sole_id,timestamp,accel_x,accel_y,accel_z,gyro_x,gyro_y,gyro_z,magn_x,magn_y,magn_z,pressure_01,pressure_02,pressure_03,pressure_04,pressure_05,pressure_06,pressure_07,pressure_08,pressure_09,pressure_10,pressure_11,pressure_12,corrupt
1,1773252024528,7130,-25135,12275,-1918116,-1244943,263893,0,0,0,232,325,248,272,206,323,341,297,277,211,289,129,0
1,1773252024544,8250,-26345,11227,-746477,-445931,452040,0,0,0,234,325,250,270,205,323,343,297,279,213,289,130,0
2,1773252024544,1115,354,11514,1303586,177150,-116064,0,0,0,532,589,269,535,541,565,471,262,433,274,175,580,0
1,1773252024560,5929,-24283,11079,474031,386066,568104,0,0,0,232,322,248,275,206,322,345,300,277,216,282,125,0
2,1773252024560,1560,201,12074,1609019,234572,-186924,0,0,0,548,592,253,538,541,574,440,249,433,284,184,591,0
1,1773252024576,2435,-18923,12160,1584584,845437,497244,0,0,0,232,314,244,293,200,320,365,310,276,261,310,119,0
2,1773252024576,1842,119,12644,1981646,216246,-288328,0,0,0,559,592,248,538,547,576,407,244,437,279,182,600,0
1,1773252024592,-741,-5987,14429,2410474,1330464,111177,0,0,0,229,301,212,279,179,290,409,391,259,270,371,116,0
2,1773252024592,1809,67,13194,2349387,129503,-379958,0,0,0,556,588,238,540,549,579,373,234,443,265,173,606,0
1,1773252024608,-3929,12294,12907,2762332,2169793,-646295,0,0,0,242,286,208,281,170,277,445,422,256,314,407,105,0
2,1773252024608,1703,-9,13936,2816088,-9773,-438601,0,0,0,560,576,233,545,547,583,358,231,438,271,174,614,0
1,1773252024624,-2804,12644,10002,3227811,2445904,-994488,0,0,0,246,305,203,286,172,276,466,462,257,352,425,111,0
2,1773252024624,2053,-100,14687,3349984,-122173,-499687,0,0,0,559,572,233,522,542,581,319,223,446,252,165,601,0
1,1773252024640,1387,1703,11964,4013384,1695761,-663399,0,0,0,246,305,206,290,170,284,475,475,267,361,428,107,0
2,1773252024640,2636,-134,15683,3966958,-189368,-631634,0,0,0,551,563,226,520,548,565,306,194,446,269,174,585,0
1,1773252024656,1899,-1828,16702,3787364,933402,120951,0,0,0,255,294,219,303,171,297,498,498,274,375,441,104,0
2,1773252024656,3005,-105,17626,4690223,-243124,-807563,0,0,0,528,562,217,514,553,557,285,166,432,259,166,576,0
1,1773252024672,-1655,-239,17329,2778215,871093,623082,0,0,0,261,303,241,322,188,315,514,514,286,412,456,105,0
2,1773252024672,3584,4,20339,5514891,-287106,-978606,0,0,0,509,543,226,506,534,546,284,155,420,226,140,489,0
1,1773252024688,-4053,440,15324,1709200,717155,364075,0,0,0,267,315,265,334,201,347,518,519,303,436,464,132,0
2,1773252024688,4206,-38,23120,6262590,-295658,-1139874,0,0,0,435,520,203,487,502,524,296,161,399,210,131,405,0
1,1773252024704,-2818,23,12261,735481,147829,-96516,0,0,0,279,329,282,337,209,368,525,525,314,437,472,166,0
2,1773252024704,4010,57,25283,6905220,-224798,-1302364,0,0,0,384,496,175,463,472,485,304,180,353,195,127,360,0
1,1773252024720,-2019,626,9839,280998,-103847,-169820,0,0,0,293,343,290,341,222,365,537,537,313,443,487,182,0
2,1773252024720,4163,153,25427,7402464,-96516,-1413542,0,0,0,332,471,170,409,441,433,317,230,299,166,122,315,0
1,1773252024736,-2263,938,9332,178372,3665,-61086,0,0,0,305,327,296,351,222,372,553,552,308,456,505,208,0
2,1773252024736,6293,23,23048,7701788,637743,-1649336,0,0,0,274,444,179,367,410,392,334,271,270,129,112,236,0
1,1773252024752,-2569,899,9743,117286,131946,-14660,0,0,0,306,341,304,358,218,378,573,567,315,465,515,244,0
2,1773252024752,7528,2024,18200,7618711,1400103,-2065946,0,0,0,260,436,189,360,400,382,343,294,270,116,115,197,0
1,1773252024768,-2507,914,10002,89186,162490,-14660,0,0,0,318,362,306,373,217,381,578,571,326,489,524,255,0
2,1773252024768,6422,6451,12744,7068932,1114218,-2774549,0,0,0,272,443,198,365,403,390,346,308,276,121,119,199,0
1,1773252024800,-2096,1100,10002,145385,40317,15882,0,0,0,326,353,312,387,227,401,589,568,329,475,521,280,0
2,1773252024800,1311,14467,11284,3092199,-2393370,-2351831,0,0,0,270,444,203,361,401,388,348,317,270,119,117,196,0
1,1773252024816,-2211,1143,10002,199142,-40317,24434,0,0,0,328,363,309,385,227,398,579,556,331,457,507,288,0
2,1773252024816,5187,14879,6542,-1215621,-2465452,-1022588,0,0,0,274,446,203,362,399,384,350,316,262,119,115,194,0
1,1773252024832,-2297,1143,9911,266337,-87964,34208,0,0,0,321,362,304,389,227,398,577,528,340,469,480,308,0
2,1773252024832,7102,11371,5025,-4773300,-1095892,-116064,0,0,0,277,446,205,365,399,386,351,316,262,122,118,195,0
1,1773252024848,-2311,1057,9767,313984,-101403,42760,0,0,0,317,360,304,396,237,409,583,519,334,481,468,315,0
2,1773252024848,4388,6690,7451,-6304129,113620,246789,0,0,0,271,446,207,364,399,386,356,316,264,128,124,194,0
1,1773252024864,-2316,923,9609,309097,-100181,50090,0,0,0,322,361,307,398,241,408,584,512,328,476,464,323,0
2,1773252024864,2536,4474,7834,-6174625,-222354,507018,0,0,0,266,446,207,367,399,387,358,316,265,131,128,194,0
1,1773252024880,-2349,827,9514,268780,-84299,58643,0,0,0,320,374,309,396,243,412,576,490,335,463,463,334,0
2,1773252024880,3665,3029,6546,-5823989,-618195,679282,0,0,0,266,448,206,369,401,387,360,317,272,132,134,192,0
1,1773252024896,-2354,832,9528,229685,-58643,63529,0,0,0,319,373,305,397,242,415,568,476,339,471,443,334,0
2,1773252024896,5288,2345,6369,-5698150,-240680,572991,0,0,0,266,449,206,367,401,385,361,321,273,128,128,188,0
1,1773252024912,-2325,861,9542,210137,-36651,67195,0,0,0,322,365,303,398,245,418,567,471,345,464,429,339,0
2,1773252024912,5063,2335,7681,-5783672,436157,432492,0,0,0,263,446,206,370,402,385,363,322,272,131,132,188,0
1,1773252024928,-2258,842,9538,210137,-36651,69638,0,0,0,324,371,306,398,251,421,569,459,350,429,429,349,0
2,1773252024928,3656,2488,9423,-5903401,875980,492357,0,0,0,262,449,207,367,400,386,372,330,268,128,129,187,0
1,1773252024944,-2230,818,9557,205250,-46425,68416,0,0,0,329,379,307,400,249,418,571,444,346,412,416,352,0
2,1773252024944,3417,2086,10466,-5843536,955393,775798,0,0,0,263,451,205,368,402,387,370,328,272,127,129,186,0
1,1773252024960,-2273,808,9518,168598,-28099,65973,0,0,0,342,380,304,402,249,418,572,430,348,415,403,364,0
2,1773252024960,4240,1622,11351,-5694485,1089783,1022588,0,0,0,266,453,206,368,401,386,369,326,275,128,130,186,0
1,1773252024976,-2244,808,9384,83077,47647,63529,0,0,0,335,378,304,403,257,417,572,421,343,409,391,378,0
2,1773252024976,4737,1617,12864,-5645616,1441641,1033583,0,0,0,265,452,206,368,402,389,371,327,270,131,133,186,0
1,1773252024992,-2177,775,9466,108734,34208,56199,0,0,0,334,384,307,421,257,430,576,412,344,409,383,381,0
2,1773252024992,4436,1837,14773,-5732359,1727526,966388,0,0,0,261,451,205,368,402,390,372,328,266,132,137,186,0
1,1773252025008,-2129,746,9643,184481,-37873,48869,0,0,0,332,378,307,409,257,426,589,400,354,404,377,389,0
2,1773252025008,3910,2129,16865,-5885075,1863138,915076,0,0,0,261,452,205,369,401,390,375,327,267,137,143,186,0
1,1773252025024,-2153,741,9734,206472,-74525,47647,0,0,0,331,389,303,414,261,453,583,401,359,389,353,402,0
2,1773252025024,3646,2493,19210,-6034126,1943773,924849,0,0,0,263,451,205,372,401,393,378,327,268,139,144,186,0
1,1773252025056,-2321,698,9791,251676,-94073,75747,0,0,0,346,381,298,437,285,466,577,373,370,398,318,436,0
2,1773252025056,3388,1928,24938,-6245486,2186897,1141096,0,0,0,265,452,206,348,423,381,380,329,270,138,139,189,0
1,1773252025072,-2383,646,9763,294437,-96516,96516,0,0,0,350,391,301,448,282,466,579,353,373,371,305,453,0
2,1773252025072,2933,-1483,27772,-6223495,2200336,1475850,0,0,0,267,452,205,371,397,389,380,328,270,130,125,186,0
1,1773252025088,-2392,607,9767,350636,-96516,128281,0,0,0,359,410,312,455,331,468,578,340,374,346,299,469,0
2,1773252025088,2321,-7111,29360,-6064670,2172236,1748296,0,0,0,270,454,205,377,401,395,384,326,272,131,122,187,0
1,1773252025104,-2345,583,9849,420275,-112399,160046,0,0,0,365,426,332,452,337,481,568,306,390,332,275,488,0
2,1773252025104,1655,-15506,28389,-5558873,1921782,1632231,0,0,0,270,452,205,385,406,399,386,326,274,128,119,185,0
1,1773252025120,-2354,545,10026,509461,-141720,188146,0,0,0,373,426,337,468,308,489,554,272,411,315,238,501,0
2,1773252025120,1033,-24498,24417,-4596150,1494176,1062905,0,0,0,272,452,205,388,406,399,394,325,275,129,118,186,0
1,1773252025136,-2531,488,10203,599869,-145385,204028,0,0,0,381,426,325,505,307,498,550,249,415,308,211,514,0
2,1773252025136,-1033,-31629,18650,-3098308,1236391,26878,0,0,0,272,451,203,387,404,399,395,324,276,128,115,187,0
1,1773252025152,-2766,435,10447,714712,-166155,243124,0,0,0,388,439,311,523,324,524,544,230,415,310,197,531,0
2,1773252025152,-6106,-34634,15501,-1580919,1044579,-923628,0,0,0,266,442,187,382,403,392,395,349,272,136,132,191,0
1,1773252025168,-2565,392,11150,911410,-245567,316428,0,0,0,400,446,280,515,359,540,511,230,429,293,186,533,0
2,1773252025168,-10662,-35328,15439,-204028,381179,-1321912,0,0,0,262,442,186,379,405,391,409,420,267,144,173,185,0
1,1773252025184,-2268,315,11773,1189965,-284663,343306,0,0,0,401,461,255,516,397,549,475,221,441,281,185,542,0
2,1773252025184,-10346,-26925,18473,1688431,-1429424,-879645,0,0,0,256,430,177,369,389,384,432,465,265,212,255,177,0
1,1773252025200,-2464,172,12108,1543045,-309097,346971,0,0,0,401,485,243,526,414,571,431,211,452,272,181,559,0
2,1773252025200,-2871,-5077,16415,3661526,-3403741,-310319,0,0,0,255,413,179,363,378,387,464,478,269,210,271,176,0
1,1773252025216,-3158,52,12567,1948660,-306654,409279,0,0,0,410,513,238,526,426,555,396,195,447,262,176,568,0
2,1773252025216,3340,10045,12778,4427551,-3842342,-13439,0,0,0,260,414,178,365,376,393,486,486,277,192,285,178,0
1,1773252025232,-3795,38,13170,2373822,-183259,530231,0,0,0,410,515,206,512,466,548,371,197,450,255,181,568,0
2,1773252025232,794,4469,14051,4535063,-2618168,0,0,0,0,264,418,173,369,377,397,500,501,283,206,311,179,0
1,1773252025248,-4340,81,13950,2896722,76969,730594,0,0,0,414,508,204,496,440,550,349,186,428,227,148,573,0
2,1773252025248,-2029,-827,18310,4351803,-1357342,-155159,0,0,0,265,417,178,375,377,404,510,509,288,217,313,181,0
1,1773252025264,-4752,86,14859,3433062,324980,952949,0,0,0,428,494,219,486,410,541,284,168,429,218,138,569,0
2,1773252025264,-598,-358,20090,3495370,-712268,-362853,0,0,0,270,426,201,383,381,412,516,516,298,215,306,191,0
1,1773252025280,-5139,-76,16372,4054923,474031,1203404,0,0,0,433,458,228,472,380,524,247,156,423,183,112,524,0
2,1773252025280,1919,1454,15266,2273640,-608421,-186924,0,0,0,287,444,239,395,386,422,529,529,308,211,294,212,0
1,1773252025312,-7470,-559,21387,5629734,510683,1819156,0,0,0,402,429,227,436,330,477,235,136,390,163,90,389,0
2,1773252025312,1095,540,10270,720820,-255341,117286,0,0,0,321,472,288,419,402,447,546,546,319,235,306,254,0
1,1773252025328,-8418,-344,22230,6191730,526565,2179567,0,0,0,340,408,219,386,317,445,230,156,358,151,108,340,0
2,1773252025328,1009,478,10638,255341,-260228,108734,0,0,0,330,479,302,419,406,451,567,567,322,263,321,271,0
1,1773252025344,-7398,512,23259,6636439,613308,2549751,0,0,0,287,382,218,346,292,392,255,192,321,151,142,274,0
2,1773252025344,894,1148,10562,26878,-333532,70860,0,0,0,342,480,312,429,411,456,583,583,316,401,441,263,0
1,1773252025360,-6542,1550,24560,6914994,886976,2725680,0,0,0,250,352,220,307,248,332,289,235,296,158,196,183,0
2,1773252025360,713,1445,10212,-1221,-261450,40317,0,0,0,352,487,310,434,412,449,591,587,316,405,441,282,0
1,1773252025376,-8628,3005,20689,7172779,1088561,2828306,0,0,0,226,306,218,267,200,299,328,251,275,169,222,118,0
2,1773252025376,760,1502,10174,-3665,-131946,23212,0,0,0,357,489,312,440,412,455,584,583,318,332,370,304,0
1,1773252025392,-9026,5671,13816,7007846,1147204,2968805,0,0,0,235,308,233,282,202,318,328,248,282,186,240,128,0
2,1773252025392,890,1560,10217,13439,-50090,10995,0,0,0,358,491,316,441,410,460,583,583,324,323,364,303,0
1,1773252025408,-8006,10538,10433,5397605,1238834,2675589,0,0,0,241,316,229,293,209,314,342,265,277,185,255,127,0
2,1773252025408,923,1636,10098,64751,-8552,0,0,0,0,360,493,315,437,411,456,586,586,328,286,325,320,0
1,1773252025424,-6427,15118,10471,2153910,1009149,1505171,0,0,0,233,317,229,283,212,314,329,265,273,185,258,128,0
2,1773252025424,923,1655,9978,123394,14660,-10995,0,0,0,366,497,316,436,415,460,583,583,328,264,301,325,0
1,1773252025440,-4546,14376,9944,-1170417,867428,-152716,0,0,0,230,317,225,284,217,315,325,266,269,183,257,129,0
2,1773252025440,942,1627,9944,182037,31764,-15882,0,0,0,372,500,318,438,415,466,583,583,328,258,293,321,0
1,1773252025456,-4953,8968,6767,-2469117,1036027,-1165530,0,0,0,231,317,234,281,211,318,331,270,275,183,260,130,0
2,1773252025456,981,1564,9944,224798,39095,-18325,0,0,0,375,497,324,440,413,471,584,583,330,256,286,327,0
1,1773252025472,-6288,5264,4130,-2554638,807563,-1319468,0,0,0,232,316,231,282,210,316,331,265,274,188,258,131,0
2,1773252025472,1024,1493,9911,240680,35430,-21991,0,0,0,375,496,326,441,415,476,583,578,330,277,303,333,0
1,1773252025488,-6164,4881,3910,-2498438,212581,-1017701,0,0,0,231,313,229,284,207,315,331,260,274,194,252,133,0
2,1773252025488,1086,1464,9853,228463,9773,-23212,0,0,0,376,499,318,440,415,475,585,571,328,317,340,332,0
1,1773252025504,-4426,5738,5508,-3164281,-6108,-962723,0,0,0,231,313,230,284,207,317,334,260,276,191,246,128,0
2,1773252025504,1115,1459,9830,217468,-20769,-29321,0,0,0,379,498,319,439,415,473,583,565,328,324,341,337,0
1,1773252025520,-4618,5541,6556,-3999945,217468,-1160643,0,0,0,233,312,229,288,208,318,342,263,276,192,248,128,0
2,1773252025520,1086,1430,9830,222354,-52534,-36651,0,0,0,383,501,325,438,416,475,587,563,332,315,332,341,0
1,1773252025536,-5675,4804,7240,-4671897,184481,-1266934,0,0,0,233,311,229,290,207,318,345,261,275,199,251,133,0
2,1773252025536,1048,1387,9844,232128,-65973,-43982,0,0,0,390,507,320,442,425,486,576,555,340,238,248,361,0
1,1773252025568,-5135,3149,9715,-5542991,-599869,-1312138,0,0,0,230,314,237,288,201,321,337,261,277,205,232,134,0
2,1773252025568,1043,1335,9844,239459,-67195,-52534,0,0,0,404,507,319,443,439,489,580,539,348,263,258,386,0
1,1773252025584,-5063,2345,11160,-5812993,-729373,-1467298,0,0,0,230,312,236,290,199,323,336,258,278,196,244,131,0
2,1773252025584,1048,1301,9844,241902,-74525,-53756,0,0,0,407,512,324,445,431,491,573,542,354,288,273,392,0
1,1773252025600,-5795,1311,12854,-5982814,-884532,-1545489,0,0,0,231,313,237,292,201,324,335,258,276,204,248,140,0
2,1773252025600,1033,1268,9858,248011,-87964,-52534,0,0,0,413,517,328,454,431,498,580,530,356,288,266,413,0
1,1773252025616,-6451,382,14678,-6068335,-1100779,-1490511,0,0,0,227,312,237,290,200,324,339,260,279,194,248,139,0
2,1773252025616,1005,1249,9897,266337,-96516,-47647,0,0,0,433,520,333,460,431,497,583,511,353,325,289,414,0
1,1773252025632,-6848,-440,16755,-6096435,-1380555,-1303586,0,0,0,227,313,236,288,200,322,338,261,279,193,246,132,0
2,1773252025632,966,1215,9954,293215,-87964,-45204,0,0,0,443,523,344,467,434,498,586,499,356,336,290,412,0
1,1773252025648,-6862,-1191,18769,-6081774,-1624901,-1121548,0,0,0,228,315,233,288,201,320,338,261,278,199,246,134,0
2,1773252025648,961,1158,10002,332310,-58643,-45204,0,0,0,452,527,343,473,440,506,588,491,366,286,230,428,0
1,1773252025664,-7083,-2081,20847,-5944940,-1780061,-1131322,0,0,0,231,316,233,288,202,318,337,261,275,203,244,136,0
2,1773252025664,971,1110,10011,366519,-31764,-48869,0,0,0,462,532,342,477,449,520,587,475,373,241,181,455,0
1,1773252025680,-7968,-3383,22861,-5671272,-1946216,-1391551,0,0,0,231,317,235,289,203,322,337,259,278,206,240,140,0
2,1773252025680,1014,1086,10059,420275,-3665,-54977,0,0,0,470,537,346,481,457,532,586,446,378,238,174,477,0
1,1773252025696,-8657,-5422,24742,-5375614,-2245540,-1762957,0,0,0,231,318,235,289,204,322,340,257,277,205,238,143,0
2,1773252025696,1091,1086,10189,502131,21991,-64751,0,0,0,477,543,344,484,463,542,584,413,391,241,169,492,0
1,1773252025712,-8317,-8973,26432,-5165476,-2702467,-2053728,0,0,0,230,319,235,290,206,321,342,257,276,203,239,140,0
2,1773252025712,1191,1052,10323,598647,35430,-78190,0,0,0,487,549,343,494,474,548,580,382,407,249,169,507,0
1,1773252025728,-6676,-14223,26302,-5136154,-2917492,-1877799,0,0,0,231,321,239,291,208,321,338,256,276,199,239,131,0
2,1773252025728,1306,899,10409,690277,53756,-106290,0,0,0,506,557,344,514,486,539,574,345,413,252,160,534,0
1,1773252025744,-4264,-19703,23632,-5071403,-2847853,-1282817,0,0,0,238,323,247,290,206,319,334,256,275,194,238,125,0
2,1773252025744,1416,775,10638,772133,100181,-149051,0,0,0,510,569,333,522,498,547,559,309,419,257,164,555,0
1,1773252025760,799,-25230,19392,-4561941,-2702467,-304210,0,0,0,242,327,249,291,205,316,341,257,277,203,246,127,0
2,1773252025760,1574,741,11079,915076,134390,-205250,0,0,0,527,575,333,532,506,559,535,279,420,265,167,571,0
1,1773252025776,7427,-30906,15711,-3513696,-2097711,728151,0,0,0,245,328,247,291,206,314,340,255,274,200,243,122,0
2,1773252025776,1440,751,11725,1180191,122173,-263893,0,0,0,532,572,321,547,506,566,499,261,430,253,160,581,0
1,1773252025792,11701,-35639,13692,-2125811,-794124,1514945,0,0,0,239,333,240,293,215,317,342,271,274,209,262,128,0
2,1773252025792,1177,660,12347,1595580,161268,-285884,0,0,0,534,581,309,552,514,567,466,248,438,264,166,593,0
1,1773252025824,11194,-23230,16611,1102000,2642603,1517389,0,0,0,234,281,188,271,180,280,431,421,274,278,403,103,0
2,1773252025824,1904,325,13610,2515543,63529,-339641,0,0,0,540,590,250,548,547,583,380,237,434,255,168,604,0
1,1773252025840,1981,1349,15462,3044552,5033529,392175,0,0,0,238,270,167,279,170,264,462,459,263,314,410,81,0
2,1773252025840,2081,335,14247,3001791,-85521,-414166,0,0,0,546,586,240,538,554,580,339,226,438,259,171,607,0
1,1773252025856,-2646,10117,12849,4156327,4528954,-514348,0,0,0,244,272,151,288,168,261,476,476,264,337,422,93,0
2,1773252025856,2301,325,14979,3582113,-240680,-508239,0,0,0,553,581,237,535,556,580,309,211,437,257,170,608,0
1,1773252025872,1555,3723,15381,4907691,2236988,-579100,0,0,0,246,275,160,299,167,267,493,493,265,374,442,90,0
2,1773252025872,2708,325,16142,4246735,-344527,-637743,0,0,0,556,577,237,527,543,578,294,185,434,247,166,592,0
1,1773252025888,3048,-1335,21229,4379903,695164,290771,0,0,0,253,285,185,312,172,279,506,507,267,401,454,87,0
2,1773252025888,3120,248,18415,5045746,-348193,-822224,0,0,0,544,571,234,515,530,566,285,162,430,235,154,539,0
1,1773252025904,-1182,-2086,21751,2961474,149051,759916,0,0,0,252,294,217,316,183,301,512,513,272,421,463,97,0
2,1773252025904,3402,363,22325,6006027,-221133,-1000597,0,0,0,505,549,225,509,523,548,284,154,413,219,137,466,0
1,1773252025920,-4187,81,15099,1483180,127059,285884,0,0,0,253,301,247,322,192,319,514,514,290,437,466,109,0
2,1773252025920,3933,574,25704,6823364,-81855,-1095892,0,0,0,447,510,210,492,499,521,285,155,390,208,127,408,0
1,1773252025936,-3110,1727,8949,794124,65973,-174707,0,0,0,263,309,269,329,192,328,522,522,309,443,472,128,0
2,1773252025936,4852,837,27690,7594276,244346,-1248608,0,0,0,381,490,178,455,466,485,298,180,356,188,120,357,0
1,1773252025952,-2139,1139,8111,665843,68416,-144164,0,0,0,275,315,282,333,190,337,534,534,300,453,488,147,0
2,1773252025952,4125,1359,28877,8130616,594982,-1477072,0,0,0,321,464,166,399,428,423,332,249,307,154,116,298,0
1,1773252025968,-2660,287,9739,323758,274889,-65973,0,0,0,290,320,302,347,192,342,535,535,287,474,492,143,0
2,1773252025968,3819,2230,28073,8384736,874759,-1679879,0,0,0,251,432,187,351,395,384,341,310,291,108,109,186,0
1,1773252025984,-2636,579,10337,-25656,422718,-70860,0,0,0,301,321,338,344,193,356,539,539,306,468,497,166,0
2,1773252025984,5336,7748,19420,7900930,850324,-1903456,0,0,0,260,441,199,366,403,401,352,323,296,115,112,200,0
1,1773252026000,-2148,1229,10179,-122173,366519,-68416,0,0,0,304,343,302,349,205,348,542,540,297,475,503,170,0
2,1773252026000,5250,13706,11490,6276029,20769,-2200336,0,0,0,255,441,197,366,405,395,356,324,289,116,112,196,0
1,1773252026016,-1995,1512,10126,-64751,237015,-35430,0,0,0,315,347,314,354,205,343,558,544,295,471,510,176,0
2,1773252026016,4331,18114,9930,2486221,-1374446,-2118480,0,0,0,257,444,204,361,401,393,355,323,290,114,113,196,0
1,1773252026032,-2091,1497,10193,85521,78190,10995,0,0,0,312,368,318,347,212,353,550,548,302,467,503,192,0
2,1773252026032,4024,16046,11246,-1836260,-1888795,-1412320,0,0,0,260,445,204,365,401,389,358,323,285,117,113,196,0
1,1773252026048,-2110,1445,10098,195476,-36651,29321,0,0,0,316,363,319,354,202,371,559,549,315,470,510,209,0
2,1773252026048,3919,9853,9480,-4189313,-2046398,-825889,0,0,0,261,445,203,367,402,389,358,325,277,118,114,195,0
1,1773252026064,-2177,1397,9887,288328,-133168,42760,0,0,0,313,358,333,355,208,378,558,538,328,467,510,237,0
2,1773252026064,4972,5685,5776,-3970624,-2103819,-811229,0,0,0,262,446,206,368,402,390,360,328,275,120,114,195,0
1,1773252026080,-2287,1330,9676,349414,-162490,52534,0,0,0,325,360,370,361,214,397,553,523,349,459,504,264,0
2,1773252026080,6264,4699,3871,-3822794,-1771509,-950506,0,0,0,266,446,208,368,401,389,361,330,273,120,112,193,0
1,1773252026096,-2368,1239,9552,373849,-140499,54977,0,0,0,324,360,385,366,211,400,550,505,351,449,502,263,0
2,1773252026096,6202,5551,4469,-4213748,-935845,-1005484,0,0,0,266,448,207,368,402,388,360,330,271,119,112,192,0
1,1773252026112,-2392,1105,9509,349414,-86742,53756,0,0,0,316,365,385,358,207,395,547,465,364,441,496,260,0
2,1773252026112,5350,5934,5699,-4682892,-300545,-802676,0,0,0,262,448,207,369,404,391,361,331,270,121,115,195,0
1,1773252026128,-2349,1024,9533,291993,-35430,56199,0,0,0,317,366,389,360,212,399,549,452,368,439,489,263,0
2,1773252026128,5245,5484,6523,-5017647,72082,-353080,0,0,0,265,448,209,369,405,393,361,332,269,121,115,194,0
1,1773252026144,-2282,1038,9585,252898,-15882,61086,0,0,0,322,365,381,372,220,406,556,461,360,431,480,268,0
2,1773252026144,6010,4714,7351,-5276653,670730,166155,0,0,0,265,448,207,370,403,392,361,334,269,119,114,192,0
1,1773252026160,-2225,1057,9609,240680,-24434,62308,0,0,0,318,367,363,373,222,407,562,450,364,424,466,275,0
2,1773252026160,6001,4240,8992,-5566204,1370781,588874,0,0,0,266,450,207,370,403,390,360,332,268,118,114,189,0
1,1773252026176,-2191,1038,9609,230907,-37873,59864,0,0,0,314,362,370,368,219,409,563,429,369,429,455,284,0
2,1773252026176,5230,4091,11083,-5911953,1775174,911410,0,0,0,269,452,211,370,403,390,366,335,272,122,116,192,0
1,1773252026208,-2234,952,8461,135612,19547,50090,0,0,0,316,371,356,371,231,408,562,423,365,407,444,290,0
2,1773252026208,5183,3345,14855,-6476393,1984090,1271821,0,0,0,268,450,209,376,405,395,368,333,273,123,117,199,0
1,1773252026224,-2191,942,8485,105068,48869,46425,0,0,0,317,377,339,374,231,406,570,406,346,426,428,297,0
2,1773252026224,5202,2928,17358,-6544810,2190562,1211956,0,0,0,270,450,209,375,402,392,372,333,275,125,117,198,0
1,1773252026240,-2120,947,9480,152716,6108,41538,0,0,0,324,372,342,395,233,413,572,400,349,422,402,313,0
2,1773252026240,4986,2603,20813,-6592457,2333505,1089783,0,0,0,270,448,210,375,404,395,371,329,275,124,116,198,0
1,1773252026256,-2139,947,9863,197920,-40317,46425,0,0,0,332,367,354,399,249,423,570,390,364,417,392,331,0
2,1773252026256,4962,2120,24479,-6662096,2371378,1094670,0,0,0,273,451,214,376,404,398,374,329,278,122,114,194,0
1,1773252026272,-2201,947,9772,233350,-58643,63529,0,0,0,340,368,376,394,252,452,562,370,376,398,370,364,0
2,1773252026272,4757,574,27824,-6742730,2412917,1513724,0,0,0,273,450,215,377,404,398,376,330,280,121,113,192,0
1,1773252026288,-2258,947,9705,312763,-72082,95294,0,0,0,363,385,370,414,254,453,563,357,378,370,340,401,0
2,1773252026288,3857,-3900,30461,-6724404,2792875,2326174,0,0,0,274,448,211,378,404,399,377,325,281,121,111,191,0
1,1773252026304,-2321,933,9820,425162,-106290,134390,0,0,0,363,392,379,433,271,465,563,332,393,355,306,427,0
2,1773252026304,904,-11466,32778,-6416528,3435506,3051882,0,0,0,277,449,209,376,408,398,380,323,284,123,112,192,0
1,1773252026320,-2335,847,9949,559552,-168598,182037,0,0,0,365,392,421,452,289,483,562,306,406,346,279,443,0
2,1773252026320,-2057,-21789,32711,-5655390,2693915,3292563,0,0,0,279,449,208,377,408,399,384,325,289,125,114,194,0
1,1773252026336,-2368,770,10198,685390,-250454,224798,0,0,0,378,398,450,466,302,507,562,274,413,335,264,475,0
2,1773252026336,1129,-33069,26164,-4456872,812450,2625498,0,0,0,280,449,209,382,404,403,386,326,290,127,113,192,0
1,1773252026352,-2421,799,10796,860098,-348193,255341,0,0,0,388,414,441,475,317,531,559,239,422,338,256,511,0
2,1773252026352,5336,-40779,16740,-2831971,367740,271224,0,0,0,280,450,210,384,405,405,386,326,287,127,112,191,0
1,1773252026368,-2550,784,11304,1148426,-375071,272445,0,0,0,398,433,401,493,340,539,543,224,427,338,247,529,0
2,1773252026368,119,-42847,13070,-1181413,1098335,-2233323,0,0,0,274,447,205,383,407,401,389,345,282,130,126,188,0
1,1773252026384,-2680,564,11600,1472185,-276111,283441,0,0,0,410,449,329,518,366,543,515,224,430,302,223,547,0
2,1773252026384,-11136,-38281,16018,368962,1044579,-3152064,0,0,0,264,438,193,377,402,390,406,402,274,140,162,179,0
1,1773252026400,-2713,301,12194,1775174,-153938,295658,0,0,0,429,466,297,530,384,547,476,207,434,276,171,562,0
2,1773252026400,-10313,-20229,21129,1974316,-1320690,-1822821,0,0,0,254,409,171,362,376,377,450,465,265,167,217,169,0
1,1773252026416,-3019,272,13127,2196671,-153938,364075,0,0,0,437,477,270,546,372,552,412,202,435,264,170,570,0
2,1773252026416,784,7159,18128,3313333,-4012162,-72082,0,0,0,252,379,168,352,361,382,479,480,267,239,297,167,0
1,1773252026432,-3656,358,13921,2720793,-205250,529009,0,0,0,428,483,210,554,454,572,359,189,441,258,165,577,0
2,1773252026432,6250,15104,10275,4064697,-4758640,989601,0,0,0,267,383,170,360,359,389,489,489,282,201,325,154,0
1,1773252026464,-5575,402,15888,3963293,152716,1094670,0,0,0,443,466,221,505,373,548,262,162,438,188,108,549,0
2,1773252026464,-6752,-2522,21134,4834387,-1262047,383623,0,0,0,272,409,207,377,358,411,552,552,284,394,468,158,0
1,1773252026480,-6465,545,18028,4689001,496022,1450194,0,0,0,431,441,232,491,380,544,255,151,449,169,89,534,0
2,1773252026480,-2378,-143,22483,3435506,-463035,-313984,0,0,0,283,427,245,383,370,420,563,563,288,421,487,177,0
1,1773252026496,-7709,129,21014,5480682,806342,1819156,0,0,0,436,427,234,453,365,515,230,136,426,155,89,442,0
2,1773252026496,1785,1392,16678,1979203,-127059,-279776,0,0,0,306,446,272,397,376,430,574,574,301,434,497,204,0
1,1773252026512,-9126,-253,23823,6181956,935845,2185675,0,0,0,378,404,233,411,330,482,214,136,385,152,90,377,0
2,1773252026512,2019,1292,10174,1043357,46425,108734,0,0,0,323,464,309,406,388,449,579,580,310,429,489,234,0
1,1773252026528,-9791,258,24800,6802595,850324,2577851,0,0,0,311,384,239,356,278,432,224,167,350,151,117,323,0
2,1773252026528,933,402,9585,599869,-2443,175929,0,0,0,339,480,315,415,402,456,581,582,308,423,484,259,0
1,1773252026544,-8485,1923,26183,7467216,667064,2989574,0,0,0,268,358,235,309,252,367,263,221,311,150,181,218,0
2,1773252026544,818,674,10404,238237,-179594,75747,0,0,0,356,489,319,424,410,457,581,581,312,451,482,262,0
1,1773252026560,-8178,3034,26274,7710341,1078788,3174055,0,0,0,253,327,229,286,226,318,307,254,280,159,218,140,0
2,1773252026560,938,1301,10294,67195,-283441,30543,0,0,0,366,496,326,428,419,459,585,585,313,454,484,277,0
1,1773252026576,-10002,6585,18999,7502646,2185675,3210707,0,0,0,254,313,230,283,201,302,332,261,272,171,222,129,0
2,1773252026576,818,1670,10031,-12217,-290771,25656,0,0,0,369,495,325,428,418,459,591,590,308,446,495,297,0
1,1773252026592,-12624,10973,11825,6579018,2322509,3203377,0,0,0,250,322,230,290,207,308,333,266,277,170,230,130,0
2,1773252026592,746,1737,10054,17104,-226020,28099,0,0,0,375,492,325,431,412,459,596,592,307,457,502,297,0
1,1773252026608,-11624,15750,9375,4145331,1143539,2697580,0,0,0,249,327,235,287,205,310,332,265,275,174,228,135,0
2,1773252026608,765,1765,10184,112399,-202807,6108,0,0,0,381,497,326,432,413,456,599,588,310,446,490,303,0
1,1773252026624,-5580,18004,9992,97738,116064,977384,0,0,0,250,328,238,287,206,304,336,265,271,177,229,135,0
2,1773252026624,655,1775,10212,194255,-168598,-9773,0,0,0,385,502,325,427,414,459,597,579,312,419,454,323,0
1,1773252026640,-3991,13438,8030,-2665815,789237,-1064127,0,0,0,244,328,233,290,212,313,344,267,276,173,228,135,0
2,1773252026640,564,1765,10150,252898,-64751,-18325,0,0,0,393,503,330,436,422,463,591,585,323,312,336,352,0
1,1773252026656,-6834,7858,4833,-3617543,1016479,-2035402,0,0,0,231,331,233,284,214,311,341,267,271,176,230,133,0
2,1773252026656,603,1722,10045,293215,40317,-19547,0,0,0,399,505,329,436,423,464,582,573,325,266,291,366,0
1,1773252026672,-8413,5240,3354,-3414736,31764,-1705535,0,0,0,226,331,232,285,222,317,338,283,275,172,260,133,0
2,1773252026672,713,1617,9940,310319,96516,-17104,0,0,0,394,503,324,445,423,471,587,557,313,262,285,392,0
1,1773252026688,-5599,5364,4627,-3436727,-805120,-1161865,0,0,0,229,331,236,283,214,322,341,274,279,177,243,137,0
2,1773252026688,818,1517,9849,304210,102625,-18325,0,0,0,401,508,327,436,422,462,580,550,314,262,277,391,0
1,1773252026720,-4340,5226,7556,-4494746,-586430,-1203404,0,0,0,232,334,232,286,217,310,345,274,269,180,240,129,0
2,1773252026720,918,1435,9791,279776,51312,-39095,0,0,0,404,509,327,443,424,474,575,534,337,251,248,386,0
1,1773252026736,-4785,4536,8925,-5064072,-830776,-1341460,0,0,0,233,334,231,286,216,308,349,277,270,179,238,128,0
2,1773252026736,928,1407,9806,273667,18325,-53756,0,0,0,410,515,328,449,428,479,574,524,334,247,237,389,0
1,1773252026752,-4292,3905,10557,-5502674,-1105666,-1524719,0,0,0,234,334,234,287,213,310,352,279,273,179,235,131,0
2,1773252026752,928,1373,9839,267558,-2443,-64751,0,0,0,414,518,331,450,430,485,572,520,342,301,281,382,0
1,1773252026768,-4120,3244,12270,-5921727,-1220508,-1740965,0,0,0,235,335,238,286,211,312,351,278,273,179,237,134,0
2,1773252026768,938,1373,9858,267558,-31764,-69638,0,0,0,420,520,333,454,434,490,575,509,348,329,295,385,0
1,1773252026784,-4465,2335,14084,-6288246,-1325577,-1857030,0,0,0,234,332,236,286,212,312,347,275,272,179,236,133,0
2,1773252026784,938,1349,9863,277332,-65973,-69638,0,0,0,433,526,337,458,437,499,580,498,353,282,237,406,0
1,1773252026800,-4594,1354,16008,-6475171,-1517389,-1749518,0,0,0,234,330,236,286,211,310,350,277,272,178,232,129,0
2,1773252026800,899,1301,9887,299323,-91629,-69638,0,0,0,445,533,341,461,439,505,578,487,359,240,186,427,0
1,1773252026816,-4312,339,18626,-6465397,-1716531,-1400103,0,0,0,236,333,239,287,209,309,352,278,273,182,231,132,0
2,1773252026816,866,1258,9973,331088,-92851,-69638,0,0,0,453,536,341,466,445,509,576,468,365,239,178,440,0
1,1773252026832,-3967,-258,21043,-6401867,-1795943,-1150870,0,0,0,242,336,241,293,206,309,350,270,271,181,229,131,0
2,1773252026832,923,1234,10064,378736,-86742,-75747,0,0,0,462,540,342,471,455,514,578,445,375,239,174,454,0
1,1773252026848,-4072,-842,23541,-6318790,-1742187,-1240056,0,0,0,242,337,241,293,208,310,320,254,278,176,223,125,0
2,1773252026848,1033,1182,10107,437379,-81855,-97738,0,0,0,470,542,343,480,466,519,577,414,373,242,171,472,0
1,1773252026864,-4929,-2019,26120,-6178291,-1721418,-1620014,0,0,0,239,337,242,291,208,309,353,268,272,188,223,124,0
2,1773252026864,1019,1095,10107,493579,-63529,-134390,0,0,0,483,550,356,487,463,528,579,388,376,254,175,495,0
1,1773252026880,-6121,-4996,28815,-5964488,-1962099,-2190562,0,0,0,234,337,238,291,210,313,356,271,276,184,223,129,0
2,1773252026880,985,1048,10165,548556,-31764,-168598,0,0,0,490,554,351,494,468,529,573,357,388,251,164,510,0
1,1773252026896,-6934,-9873,30490,-5833763,-2190562,-2505769,0,0,0,239,339,236,288,219,310,354,269,276,184,220,125,0
2,1773252026896,985,1033,10466,637743,8552,-196698,0,0,0,509,558,378,520,482,545,561,337,406,251,162,521,0
1,1773252026912,-7518,-17434,29164,-5816658,-2131919,-2234545,0,0,0,239,341,235,295,217,313,351,267,279,187,222,123,0
2,1773252026912,1043,976,10887,797790,64751,-226020,0,0,0,508,563,377,514,489,545,545,296,404,289,178,539,0
1,1773252026928,-4484,-27934,23220,-5415931,-2206445,-1044579,0,0,0,236,341,234,298,215,318,348,265,283,188,225,126,0
2,1773252026928,1153,890,11246,1020144,111177,-255341,0,0,0,524,575,370,523,504,564,525,264,408,258,159,561,0
1,1773252026944,4426,-36735,17449,-4218635,-2360383,265115,0,0,0,235,341,236,299,221,323,352,268,289,189,227,127,0
2,1773252026944,1110,765,11639,1280373,136833,-285884,0,0,0,531,579,329,530,518,566,499,242,416,254,161,576,0
1,1773252026976,14003,-41167,13764,-306654,138055,993266,0,0,0,230,329,228,301,216,324,370,298,294,212,276,123,0
2,1773252026976,1081,550,12845,1938886,171042,-267558,0,0,0,555,585,291,531,539,578,423,221,419,267,168,600,0
1,1773252026992,7063,-32232,15845,1298699,1538158,913854,0,0,0,234,308,210,300,196,296,413,376,281,271,364,113,0
2,1773252026992,1675,550,14032,2458121,182037,-322536,0,0,0,547,581,257,537,557,587,384,216,418,267,172,608,0
1,1773252027008,-1957,-5355,17334,2952922,3060434,613308,0,0,0,242,291,185,292,178,259,458,451,249,321,413,98,0
2,1773252027008,2033,588,15008,3037221,21991,-410501,0,0,0,543,575,235,531,554,587,346,209,424,260,174,608,0
1,1773252027024,-6159,13400,13615,4138001,4007275,96516,0,0,0,240,293,168,275,175,254,473,474,256,344,422,88,0
2,1773252027024,2388,516,15673,3678630,-224798,-508239,0,0,0,548,573,229,522,542,587,310,199,422,254,172,609,0
1,1773252027040,-1210,5862,13826,4989547,3040887,-234572,0,0,0,245,298,155,295,178,265,486,486,269,369,436,90,0
2,1773252027040,3082,569,16798,4394564,-434936,-654847,0,0,0,546,571,229,516,537,573,289,183,410,245,161,599,0
1,1773252027056,2904,-1761,19095,5064072,1582140,-50090,0,0,0,245,293,161,310,179,276,506,507,277,397,459,87,0
2,1773252027056,4211,717,18827,5178915,-603534,-880867,0,0,0,534,563,231,505,527,546,282,160,407,235,150,558,0
1,1773252027072,1373,-2450,22321,4002389,586430,535117,0,0,0,255,307,219,317,181,302,506,506,272,414,460,88,0
2,1773252027072,5111,583,22651,6190508,-784350,-1209513,0,0,0,508,542,231,496,521,545,282,148,397,223,139,475,0
1,1773252027088,-3187,0,17147,2437352,361632,487470,0,0,0,255,319,251,327,202,342,514,514,327,414,459,124,0
2,1773252027088,5805,1153,26164,7092145,-858876,-1473406,0,0,0,443,524,206,475,507,518,277,156,370,198,129,404,0
1,1773252027104,-3742,559,11495,1293812,168598,13439,0,0,0,267,329,278,337,209,352,545,541,309,439,487,167,0
2,1773252027104,5786,2330,28571,7979121,-421497,-1751961,0,0,0,366,501,175,440,467,463,298,186,325,184,127,353,0
1,1773252027120,-2335,38,9638,598647,80634,-183259,0,0,0,283,335,286,361,230,370,547,546,316,463,502,195,0
2,1773252027120,4599,3058,29758,8662069,157603,-1990198,0,0,0,309,465,182,384,421,416,320,257,275,150,121,281,0
1,1773252027136,-1866,272,9882,188146,129503,-122173,0,0,0,301,333,291,384,214,382,552,552,317,480,511,208,0
2,1773252027136,5029,4053,27920,8913745,526565,-2173458,0,0,0,264,442,199,360,402,392,340,295,274,118,110,207,0
1,1773252027152,-2172,832,10212,31764,171042,-39095,0,0,0,306,343,288,376,224,380,567,563,315,482,524,227,0
2,1773252027152,6020,8643,18918,8293106,-101403,-2515543,0,0,0,270,445,206,364,401,393,347,313,276,116,109,199,0
1,1773252027168,-2258,1091,10126,7330,155159,-20769,0,0,0,305,356,286,366,249,375,576,572,316,484,532,243,0
2,1773252027168,5987,13146,12222,6631553,-1593136,-2756223,0,0,0,265,444,203,369,404,395,353,320,276,117,111,196,0
1,1773252027184,-2120,1143,10074,52534,91629,-15882,0,0,0,313,363,292,371,263,376,578,566,317,491,536,252,0
2,1773252027184,6733,18411,8987,2724458,-2619390,-2499660,0,0,0,268,444,202,373,403,393,352,313,269,118,112,192,0
1,1773252027200,-2048,1210,10131,139277,3665,12217,0,0,0,318,367,297,372,271,381,578,557,325,491,537,267,0
2,1773252027200,6245,18315,9255,-2414139,-1667662,-1429424,0,0,0,271,446,202,375,403,393,358,312,270,122,114,193,0
1,1773252027216,-2062,1239,10136,235793,-83077,45204,0,0,0,320,369,298,375,273,385,573,553,333,476,524,276,0
2,1773252027216,4699,12151,8542,-5183802,-894306,-339641,0,0,0,271,447,203,378,405,396,361,314,275,122,113,192,0
1,1773252027232,-2081,1229,10040,304210,-146607,59864,0,0,0,331,373,299,391,268,384,567,543,325,457,504,269,0
2,1773252027232,5216,5977,5714,-5137376,-899193,119729,0,0,0,267,447,203,379,408,397,361,317,278,128,115,190,0
1,1773252027248,-2120,1172,9873,362853,-191811,64751,0,0,0,332,369,297,386,250,390,565,535,320,461,485,278,0
2,1773252027248,6293,3618,4154,-4827057,-720820,112399,0,0,0,264,447,202,376,408,392,362,319,277,133,119,192,0
1,1773252027264,-2206,1038,9629,386066,-196698,62308,0,0,0,335,374,291,392,242,398,555,515,330,452,478,289,0
2,1773252027264,6125,4254,5029,-5006651,-188146,-86742,0,0,0,265,449,204,377,409,392,361,322,276,124,116,198,0
1,1773252027280,-2215,957,9145,266337,-94073,70860,0,0,0,323,369,289,392,241,404,563,503,338,453,477,294,0
2,1773252027280,5312,4814,6484,-5403713,324980,-108734,0,0,0,267,451,206,382,414,395,361,326,275,125,115,201,0
1,1773252027296,-2172,942,8982,158824,-2443,81855,0,0,0,323,367,284,392,246,404,559,483,335,438,471,294,0
2,1773252027296,4838,4532,7499,-5626068,775798,96516,0,0,0,266,450,205,380,411,392,362,326,274,125,115,198,0
1,1773252027312,-2163,928,9341,196698,-12217,83077,0,0,0,320,369,288,384,242,419,554,472,350,429,474,306,0
2,1773252027312,4560,4077,8743,-5655390,1328021,465479,0,0,0,267,450,204,379,412,393,365,331,277,126,118,198,0
1,1773252027328,-2148,885,9571,237015,-29321,80634,0,0,0,323,368,293,390,237,419,550,461,348,433,449,312,0
2,1773252027328,4125,3967,10131,-5687155,1678657,786794,0,0,0,270,453,205,379,412,392,362,329,272,123,118,194,0
1,1773252027360,-2043,866,9571,179594,2443,76969,0,0,0,317,370,300,383,255,412,552,437,333,404,435,330,0
2,1773252027360,3709,4048,13811,-5995031,1968207,1323134,0,0,0,265,449,203,378,409,391,366,332,279,133,133,194,0
1,1773252027376,-2014,847,9581,156381,4886,65973,0,0,0,315,370,295,386,261,423,555,440,342,399,432,346,0
2,1773252027376,3890,4015,16219,-6300464,2142915,1404990,0,0,0,264,451,204,381,409,393,367,330,278,138,140,194,0
1,1773252027392,-2010,823,9629,150272,0,57421,0,0,0,319,370,292,384,265,426,558,437,345,389,414,358,0
2,1773252027392,3766,3584,19104,-6605896,2324953,1358564,0,0,0,267,452,208,382,410,394,367,329,276,138,138,194,0
1,1773252027408,-2010,784,9691,150272,-10995,57421,0,0,0,324,371,292,390,268,422,559,420,338,383,396,367,0
2,1773252027408,3622,2636,22742,-6769608,2371378,1310916,0,0,0,266,452,207,384,410,396,367,326,277,141,142,191,0
1,1773252027424,-2029,770,9719,166155,-31764,67195,0,0,0,325,381,287,401,287,428,558,408,349,383,389,383,0
2,1773252027424,4029,1694,26503,-6759834,2356718,1392772,0,0,0,267,452,208,383,408,397,368,321,278,145,144,194,0
1,1773252027440,-2105,804,9758,224798,-53756,94073,0,0,0,322,403,289,397,334,439,563,402,385,370,376,409,0
2,1773252027440,4039,-363,30275,-6690196,2410474,1877799,0,0,0,266,450,203,383,407,396,370,321,279,145,141,189,0
1,1773252027456,-2187,813,9844,309097,-64751,129503,0,0,0,337,425,297,405,348,464,557,384,398,370,359,430,0
2,1773252027456,3019,-5685,33424,-6591235,2724458,2660928,0,0,0,273,452,206,387,408,400,375,319,279,134,124,186,0
1,1773252027472,-2234,756,9911,403171,-58643,164933,0,0,0,352,424,331,426,367,496,551,362,398,348,328,450,0
2,1773252027472,138,-15558,34175,-6091548,2830749,3248581,0,0,0,281,457,214,389,406,406,381,317,280,123,107,190,0
1,1773252027488,-2244,655,9964,497244,-42760,190589,0,0,0,357,432,315,435,372,501,555,325,407,335,295,468,0
2,1773252027488,201,-27886,29652,-5226562,1959655,3176499,0,0,0,277,455,213,385,406,406,382,319,285,126,114,191,0
1,1773252027504,-2330,622,10150,592539,-31764,202807,0,0,0,398,448,338,440,419,512,555,282,412,329,271,502,0
2,1773252027504,3493,-39980,20200,-3966958,1119105,1783726,0,0,0,275,452,212,389,410,411,382,320,286,130,119,192,0
1,1773252027520,-2498,650,10533,725707,-42760,226020,0,0,0,415,465,355,465,410,506,524,283,419,307,263,516,0
2,1773252027520,-2206,-45020,15013,-2136806,1455080,-684169,0,0,0,272,451,207,391,414,409,384,338,284,127,124,187,0
1,1773252027536,-2531,593,11045,939510,-111177,277332,0,0,0,414,493,351,467,450,510,510,242,448,291,224,541,0
2,1773252027536,-12409,-43660,16731,-241902,978606,-2233323,0,0,0,255,444,184,375,418,390,408,428,270,141,181,179,0
1,1773252027552,-2321,416,12017,1226617,-276111,349414,0,0,0,410,501,302,482,463,532,472,215,457,275,193,558,0
2,1773252027552,-14228,-32433,22445,2042733,-1372003,-1913229,0,0,0,251,423,168,363,386,379,432,460,262,163,233,177,0
1,1773252027568,-2105,287,13170,1634675,-420275,398284,0,0,0,434,525,276,494,456,541,420,211,451,277,185,559,0
2,1773252027568,-770,-3378,18080,4415333,-3651752,-1010371,0,0,0,251,407,171,355,370,387,463,479,264,230,280,171,0
1,1773252027584,-2579,258,14151,2150245,-427605,420275,0,0,0,451,524,249,506,463,541,386,201,440,268,178,559,0
2,1773252027584,6891,10997,13199,5556430,-3792251,-412944,0,0,0,261,406,166,372,375,396,488,489,267,241,331,165,0
1,1773252027616,-4699,717,15941,3588222,-69638,823446,0,0,0,451,508,221,515,473,547,264,183,434,220,142,555,0
2,1773252027616,-2325,-2435,21186,4966334,-530231,89186,0,0,0,265,426,193,381,378,411,512,512,295,210,305,192,0
1,1773252027632,-5369,942,17506,4387234,345749,1125213,0,0,0,449,474,234,517,443,530,246,161,424,202,116,537,0
2,1773252027632,-1143,-813,22297,3793473,-353080,-215024,0,0,0,281,445,227,398,387,427,522,522,306,231,317,213,0
1,1773252027648,-6657,832,19861,5281540,649960,1474628,0,0,0,454,448,242,500,429,506,239,151,438,184,105,483,0
2,1773252027648,2077,713,16664,2167349,-450818,-134390,0,0,0,312,472,263,407,394,440,505,527,349,236,312,253,0
1,1773252027664,-8748,157,22866,6147747,725707,1894903,0,0,0,428,439,240,470,384,494,228,138,385,168,84,400,0
2,1773252027664,2005,579,11208,1023810,-304210,141720,0,0,0,341,489,286,416,403,451,530,544,342,249,308,303,0
1,1773252027680,-9954,181,25326,6830695,803898,2361605,0,0,0,354,407,230,394,322,459,218,138,346,138,90,344,0
2,1773252027680,894,167,9447,415388,-196698,167377,0,0,0,362,498,305,423,410,462,561,560,327,262,316,333,0
1,1773252027696,-10232,1215,26317,7424456,923628,2838079,0,0,0,283,378,232,343,282,415,240,182,339,152,130,339,0
2,1773252027696,799,382,9920,39095,-282219,50090,0,0,0,379,505,318,428,412,468,567,567,332,264,326,338,0
1,1773252027712,-8308,4044,26920,7870387,1115439,3181386,0,0,0,278,336,216,323,241,339,294,241,288,167,208,205,0
2,1773252027712,1076,909,10567,-92851,-390953,-3665,0,0,0,390,508,318,434,414,466,573,573,336,270,344,335,0
1,1773252027728,-8274,6058,23909,8150164,1635897,3295007,0,0,0,257,296,224,288,194,303,323,255,271,165,228,140,0
2,1773252027728,909,1206,10366,-111177,-293215,15882,0,0,0,394,509,315,440,414,463,580,580,349,284,363,333,0
1,1773252027744,-11194,7853,15783,8063421,1869247,3358537,0,0,0,253,302,234,286,203,301,329,262,275,178,242,137,0
2,1773252027744,842,1344,10203,-76969,-145385,23212,0,0,0,395,509,316,435,418,469,582,582,337,275,338,339,0
1,1773252027760,-12170,11490,9997,6849021,1083674,3426953,0,0,0,247,305,230,289,197,312,328,261,277,181,238,141,0
2,1773252027760,914,1435,10208,-4886,-65973,4886,0,0,0,404,513,322,433,420,472,574,575,331,284,335,353,0
1,1773252027776,-5867,18114,10198,2421469,168598,2208888,0,0,0,258,306,227,306,191,313,341,265,276,182,235,142,0
2,1773252027776,933,1474,10179,97738,-34208,-10995,0,0,0,404,514,326,440,424,480,586,586,329,356,392,345,0
1,1773252027792,-1627,17803,10509,-1847256,957836,-32986,0,0,0,259,307,225,312,192,311,348,268,274,185,235,141,0
2,1773252027792,909,1459,10150,184481,1221,-18325,0,0,0,410,514,327,440,422,477,590,576,322,460,488,345,0
1,1773252027808,-5628,10710,6834,-3612657,1830152,-1598023,0,0,0,257,311,227,308,194,310,349,268,273,188,236,137,0
2,1773252027808,904,1387,10098,249233,48869,-24434,0,0,0,410,514,325,442,429,480,575,573,337,287,302,377,0
1,1773252027824,-9581,5015,3058,-3699399,989601,-1661553,0,0,0,254,315,231,308,196,311,349,268,273,191,240,135,0
2,1773252027824,933,1311,10011,288328,91629,-30543,0,0,0,411,517,327,443,430,488,581,580,346,260,265,388,0
1,1773252027840,-6872,4446,3105,-3376863,-405614,-901637,0,0,0,248,313,232,310,197,317,349,266,282,191,242,139,0
2,1773252027840,995,1249,9925,305432,112399,-34208,0,0,0,413,517,323,443,428,481,580,563,340,281,268,396,0
1,1773252027872,-4661,5345,5891,-4006054,-211359,-966388,0,0,0,252,316,231,307,195,313,348,263,275,198,246,137,0
2,1773252027872,1119,1215,9882,326202,97738,-47647,0,0,0,419,517,320,451,431,491,574,538,347,270,239,409,0
1,1773252027888,-6269,4900,7250,-4631580,-463035,-1282817,0,0,0,250,319,237,306,198,319,346,261,275,197,245,137,0
2,1773252027888,1143,1177,9887,340862,84299,-56199,0,0,0,422,519,322,450,427,493,574,528,353,255,224,412,0
1,1773252027904,-6384,4249,8781,-5174028,-951728,-1527163,0,0,0,248,315,234,308,197,312,347,259,274,197,247,133,0
2,1773252027904,1162,1081,9853,301767,42760,-59864,0,0,0,422,520,325,452,427,499,576,516,357,243,211,414,0
1,1773252027920,-5800,3278,10667,-5692042,-1270599,-1814269,0,0,0,249,318,231,311,199,312,347,262,274,200,249,138,0
2,1773252027920,1182,1033,9849,261450,3665,-61086,0,0,0,424,520,323,460,433,506,577,506,358,236,199,422,0
1,1773252027936,-5719,2153,12352,-6048787,-1423316,-2030516,0,0,0,252,321,232,312,197,316,349,266,276,201,250,134,0
2,1773252027936,1182,1028,9844,244346,-34208,-59864,0,0,0,433,524,322,466,440,508,573,497,359,237,192,431,0
1,1773252027952,-6063,1091,14122,-6229603,-1563815,-2070833,0,0,0,249,320,230,313,200,316,353,268,276,198,250,136,0
2,1773252027952,1158,1024,9844,252898,-62308,-58643,0,0,0,447,534,329,467,444,509,568,483,363,245,192,434,0
1,1773252027968,-6384,291,16353,-6354220,-1747074,-1947438,0,0,0,250,323,231,311,205,314,352,267,274,196,246,134,0
2,1773252027968,1124,981,9897,270002,-75747,-58643,0,0,0,455,535,332,470,444,513,573,467,366,256,193,447,0
1,1773252027984,-6269,-296,18999,-6459289,-1926668,-1712866,0,0,0,250,324,231,309,207,311,352,266,272,197,242,135,0
2,1773252027984,1100,923,9987,291993,-65973,-61086,0,0,0,453,534,326,474,445,516,577,451,371,243,179,460,0
1,1773252028000,-5886,-928,21574,-6484945,-1990198,-1617571,0,0,0,251,322,231,310,202,310,355,267,272,199,240,135,0
2,1773252028000,1129,894,10031,326202,-46425,-67195,0,0,0,465,546,338,480,450,529,575,425,372,247,174,476,0
1,1773252028016,-6068,-1770,24163,-6382320,-2001194,-1759291,0,0,0,254,322,233,312,200,311,357,267,272,197,239,133,0
2,1773252028016,1186,875,10088,387288,-29321,-78190,0,0,0,471,550,342,492,466,547,573,401,387,246,170,498,0
1,1773252028032,-6810,-3536,27054,-6140417,-2184454,-2171015,0,0,0,254,323,235,310,200,311,357,264,275,197,239,134,0
2,1773252028032,1239,813,10141,455705,-10995,-98960,0,0,0,487,552,349,493,470,541,565,369,385,249,162,511,0
1,1773252028048,-7073,-6987,30136,-5944940,-2553416,-2593733,0,0,0,249,324,233,310,201,312,360,262,278,200,235,136,0
2,1773252028048,1287,732,10184,520457,23212,-128281,0,0,0,499,563,356,502,483,549,560,346,397,252,161,536,0
1,1773252028064,-6838,-13395,31658,-5966931,-2736676,-2702467,0,0,0,249,327,230,313,207,313,362,261,279,200,228,131,0
2,1773252028064,1502,693,10370,590095,68416,-172263,0,0,0,509,568,346,512,490,556,550,312,407,253,161,551,0
1,1773252028080,-6905,-23244,27432,-6010913,-2411695,-1929112,0,0,0,249,328,229,317,206,320,359,259,285,203,228,129,0
2,1773252028080,1737,717,10882,720820,86742,-243124,0,0,0,517,574,352,522,508,563,532,274,416,258,165,572,0
1,1773252028096,-3627,-33266,21009,-5457470,-2475225,-489913,0,0,0,244,331,229,319,217,329,351,259,290,203,232,131,0
2,1773252028096,1636,737,11581,971275,50090,-307876,0,0,0,524,573,337,529,509,562,509,248,434,258,163,583,0
1,1773252028128,16913,-43546,15405,-1798387,-977384,1872912,0,0,0,241,317,219,311,207,307,356,311,271,239,311,133,0
2,1773252028128,1330,526,12940,1819156,164933,-371406,0,0,0,541,582,288,543,533,575,434,218,440,266,165,604,0
1,1773252028144,16975,-40650,18013,211359,1601688,1755626,0,0,0,231,300,195,295,192,280,419,395,269,267,380,105,0
2,1773252028144,1608,497,13835,2241875,197920,-387288,0,0,0,550,589,268,543,548,575,394,211,446,267,172,611,0
1,1773252028160,4747,-15649,18023,2519208,4719544,1126435,0,0,0,231,277,165,282,169,252,458,453,255,311,413,95,0
2,1773252028160,2129,521,14917,2851518,67195,-438601,0,0,0,551,585,244,536,548,577,353,210,443,260,168,613,0
1,1773252028176,-5044,7968,14778,4013384,5743354,448375,0,0,0,244,274,147,296,165,245,473,473,249,347,424,85,0
2,1773252028176,2770,545,16042,3604104,-107512,-547335,0,0,0,551,571,237,532,540,579,325,198,455,257,166,619,0
1,1773252028192,-2096,7327,15290,4785518,3748269,-155159,0,0,0,247,277,144,298,166,255,489,489,252,384,447,83,0
2,1773252028192,3680,727,17525,4450764,-260228,-735481,0,0,0,544,563,227,524,539,571,308,177,454,258,172,609,0
1,1773252028208,3833,-258,20047,4990769,1214400,-128281,0,0,0,248,281,154,314,166,269,505,505,257,403,461,82,0
2,1773252028208,4599,1081,19765,5364618,-389732,-1016479,0,0,0,530,548,230,514,534,554,291,154,431,246,156,575,0
1,1773252028224,2608,-2153,21966,4197865,70860,560774,0,0,0,250,290,181,322,175,282,515,515,274,419,465,87,0
2,1773252028224,5116,1483,23378,6491054,-483805,-1353677,0,0,0,494,543,221,506,534,555,291,154,423,214,135,497,0
1,1773252028240,-3890,-296,16444,2649933,68416,627969,0,0,0,256,301,232,322,188,313,521,521,298,440,472,110,0
2,1773252028240,5173,2292,27039,7522194,-428827,-1601688,0,0,0,411,509,195,486,492,525,302,160,396,205,131,406,0
1,1773252028256,-4895,296,11246,1522276,164933,50090,0,0,0,274,302,277,336,190,350,529,528,304,457,481,140,0
2,1773252028256,5034,3225,28839,8247902,-112399,-1736079,0,0,0,363,483,175,444,448,477,304,183,340,187,123,351,0
1,1773252028272,-2512,38,9423,784350,205250,-239459,0,0,0,297,299,292,342,183,360,545,545,304,484,498,169,0
2,1773252028272,5288,2737,28848,8910080,678060,-1898569,0,0,0,291,450,181,384,415,411,325,257,288,140,112,262,0
1,1773252028288,-1579,33,9892,326202,246789,-163711,0,0,0,301,303,308,352,187,372,557,557,316,511,516,195,0
2,1773252028288,7083,3120,26733,9254608,1987755,-2263866,0,0,0,271,446,198,369,411,394,339,283,282,124,111,211,0
1,1773252028304,-1962,425,10509,58643,274889,-35430,0,0,0,320,307,305,366,192,368,570,570,313,522,523,203,0
2,1773252028304,7236,8073,19722,8779355,2635272,-2944370,0,0,0,268,447,208,374,411,399,346,302,287,119,110,198,0
1,1773252028320,-2273,856,10332,-45204,272445,-18325,0,0,0,309,344,309,368,238,378,571,570,320,518,527,218,0
2,1773252028320,1182,13357,15754,7083593,318871,-3411071,0,0,0,267,447,208,376,411,401,349,311,283,116,110,193,0
1,1773252028336,-2048,1019,10136,-13439,205250,-29321,0,0,0,309,360,307,379,235,386,567,566,325,519,527,245,0
2,1773252028336,-1182,18004,13371,3514918,-3231477,-2585181,0,0,0,266,446,208,369,406,394,348,310,275,116,112,190,0
1,1773252028352,-1895,1091,10212,72082,108734,-8552,0,0,0,315,346,316,365,230,398,572,563,325,512,532,264,0
2,1773252028352,6039,17176,8571,-1453859,-3654195,-1150870,0,0,0,264,445,206,363,404,389,349,310,271,118,114,192,0
1,1773252028368,-1899,1139,10236,199142,-8552,21991,0,0,0,320,344,312,368,221,394,573,552,320,527,537,267,0
2,1773252028368,8604,12691,6590,-4612032,-1883908,-503352,0,0,0,265,445,204,364,405,388,353,312,268,120,115,193,0
1,1773252028384,-1962,1148,10136,323758,-116064,43982,0,0,0,322,352,306,378,225,396,568,537,320,515,536,277,0
2,1773252028384,4613,6934,7461,-5795889,-166155,-318871,0,0,0,267,446,204,366,403,389,358,316,268,120,116,193,0
1,1773252028400,-2057,1024,9968,408057,-175929,53756,0,0,0,323,358,313,379,226,409,562,519,330,485,518,301,0
2,1773252028400,2287,4498,7274,-5408600,-990823,39095,0,0,0,268,445,205,370,403,391,361,320,271,158,135,194,0
1,1773252028416,-2153,842,9763,434936,-188146,59864,0,0,0,319,360,306,381,228,410,559,500,333,465,505,308,0
2,1773252028416,4871,3991,5963,-5307197,-1573588,346971,0,0,0,269,447,208,374,407,393,361,322,271,195,155,193,0
1,1773252028432,-2206,698,9614,398284,-153938,65973,0,0,0,317,360,293,385,233,406,561,484,334,450,502,307,0
2,1773252028432,7590,3799,5920,-5655390,-897971,408057,0,0,0,267,448,205,374,408,392,364,323,272,121,117,192,0
1,1773252028448,-2187,655,9657,326202,-101403,72082,0,0,0,317,363,292,386,238,410,559,472,338,441,500,316,0
2,1773252028448,7250,3508,7336,-6009692,58643,410501,0,0,0,266,447,204,371,404,390,364,324,270,116,113,188,0
1,1773252028464,-2153,655,10433,219911,-29321,76969,0,0,0,318,366,296,389,242,415,553,460,338,444,489,324,0
2,1773252028464,5379,3038,9093,-6200282,654847,599869,0,0,0,264,447,206,373,406,393,366,326,272,122,120,191,0
1,1773252028480,-2105,679,10557,167377,3665,74525,0,0,0,321,366,298,381,257,407,554,449,339,448,473,324,0
2,1773252028480,5092,2412,10122,-6241821,816115,943175,0,0,0,265,448,206,376,409,396,360,320,271,122,119,191,0
1,1773252028512,-2062,684,9389,234572,-21991,68416,0,0,0,327,373,319,393,247,419,555,425,349,412,452,341,0
2,1773252028512,5494,1531,12658,-6224716,1426981,1258382,0,0,0,263,449,204,378,410,396,366,324,274,125,117,191,0
1,1773252028528,-2029,641,9585,224798,-10995,67195,0,0,0,327,370,319,402,257,421,560,413,348,393,432,354,0
2,1773252028528,5039,1675,14888,-6276029,1673770,1215621,0,0,0,265,450,206,376,409,397,368,325,275,123,118,191,0
1,1773252028544,-2000,622,9719,215024,-4886,65973,0,0,0,325,386,334,394,264,436,559,408,368,391,425,372,0
2,1773252028544,4819,1943,17343,-6473949,1831373,1128878,0,0,0,265,448,206,376,408,396,368,324,274,121,118,189,0
1,1773252028560,-1981,588,9743,229685,-17104,69638,0,0,0,319,375,358,393,268,446,552,397,373,380,409,386,0
2,1773252028560,4838,1919,20234,-6753726,1964542,1021366,0,0,0,267,449,208,377,407,396,369,324,275,122,117,189,0
1,1773252028576,-2000,545,9772,271224,-48869,86742,0,0,0,325,381,329,397,269,442,557,372,369,374,390,411,0
2,1773252028576,5068,1167,23842,-6816034,2087937,1001818,0,0,0,272,452,211,379,407,398,371,325,277,121,115,189,0
1,1773252028592,-2081,526,9806,339641,-89186,117286,0,0,0,338,396,314,424,282,447,559,356,375,365,353,434,0
2,1773252028592,4982,-378,27331,-6674313,2225992,1215621,0,0,0,272,452,210,379,406,397,373,323,277,121,114,188,0
1,1773252028608,-2191,526,9863,427605,-112399,152716,0,0,0,366,403,305,427,292,467,566,340,381,359,314,459,0
2,1773252028608,4101,-4627,29892,-6381098,2583959,1772730,0,0,0,271,451,209,380,406,398,373,318,277,123,113,188,0
1,1773252028624,-2263,502,10021,561996,-138055,200363,0,0,0,379,412,327,436,304,490,571,294,401,349,280,487,0
2,1773252028624,2163,-11265,31950,-5997474,3005456,2276083,0,0,0,273,450,209,382,408,401,365,316,278,122,111,188,0
1,1773252028640,-2167,363,10251,698829,-219911,238237,0,0,0,389,420,335,455,307,496,572,253,426,338,252,507,0
2,1773252028640,162,-21406,30691,-5380501,2364048,2344500,0,0,0,276,449,206,384,408,402,356,319,285,124,113,188,0
1,1773252028656,-2239,191,10600,835663,-353080,266337,0,0,0,405,431,316,470,342,494,557,237,433,315,226,530,0
2,1773252028656,1162,-32356,24106,-4437325,1164309,1756848,0,0,0,276,449,203,388,407,403,387,318,281,127,113,190,0
1,1773252028672,-2737,210,11237,1001818,-399505,310319,0,0,0,418,454,291,491,402,506,526,237,429,292,203,551,0
2,1773252028672,2727,-41761,14888,-2970026,750142,113620,0,0,0,283,453,208,388,407,404,387,314,281,127,115,192,0
1,1773252028688,-2909,224,12002,1286482,-289550,383623,0,0,0,430,477,258,518,410,523,499,233,435,288,188,555,0
2,1773252028688,-3656,-43952,13567,-1155757,1244943,-1943773,0,0,0,251,430,173,372,397,382,410,424,270,139,178,176,0
1,1773252028704,-2373,100,12754,1684766,-130725,438601,0,0,0,449,477,246,513,409,524,457,208,444,277,174,558,0
2,1773252028704,-14079,-39473,21095,907745,28099,-2514321,0,0,0,251,412,172,359,381,375,442,461,266,163,231,169,0
1,1773252028720,-2287,-9,13462,2155132,-226020,450818,0,0,0,453,476,231,509,431,536,407,191,455,270,168,561,0
2,1773252028720,-12696,-18803,22775,3627317,-3571118,-1332907,0,0,0,251,389,171,356,365,385,471,476,269,186,289,167,0
1,1773252028736,-2847,62,14285,2660928,-316428,504574,0,0,0,456,500,211,525,440,549,356,186,456,302,168,570,0
2,1773252028736,1426,6403,15151,5291314,-5012760,174707,0,0,0,259,389,167,365,364,397,491,492,278,191,323,163,0
1,1773252028768,-5250,143,16400,4105014,113620,941954,0,0,0,473,496,214,488,460,545,265,172,450,198,129,564,0
2,1773252028768,-3709,-555,21852,4853935,-742812,201585,0,0,0,283,436,196,378,364,407,528,528,301,217,348,191,0
1,1773252028784,-6585,311,18784,5018868,354301,1342681,0,0,0,452,482,215,469,422,537,267,149,455,173,95,513,0
2,1773252028784,-2852,-1842,23531,3773925,-37873,-405614,0,0,0,295,450,231,391,372,423,541,541,308,228,347,207,0
1,1773252028800,-8719,229,22641,5963266,510683,1824043,0,0,0,439,435,251,466,362,526,301,138,430,186,78,444,0
2,1773252028800,1426,368,17161,2342057,-98960,-233350,0,0,0,311,457,264,409,384,439,548,548,316,242,345,237,0
1,1773252028816,-10586,502,25685,6772052,605978,2334726,0,0,0,375,418,239,413,320,477,239,145,388,165,92,378,0
2,1773252028816,2483,1316,10351,1161865,-75747,196698,0,0,0,332,471,288,421,395,451,557,557,325,255,345,273,0
1,1773252028832,-10581,1062,27532,7485542,709825,2885727,0,0,0,320,391,235,376,286,413,227,172,349,158,119,315,0
2,1773252028832,1277,258,8930,557109,-68416,278554,0,0,0,352,485,306,426,404,460,568,567,333,261,346,302,0
1,1773252028848,-9389,2483,28379,8040208,836885,3273015,0,0,0,269,344,227,331,247,355,261,221,313,152,177,212,0
2,1773252028848,1024,134,10294,206472,-257785,112399,0,0,0,362,493,320,426,406,462,577,576,338,269,346,321,0
1,1773252028864,-9901,5431,25417,8393288,990823,3490483,0,0,0,248,307,220,294,214,320,307,252,298,157,223,138,0
2,1773252028864,1009,899,10696,7330,-386066,10995,0,0,0,373,497,327,426,406,459,586,586,332,281,345,322,0
1,1773252028880,-11184,8920,17568,8210028,1209513,3679852,0,0,0,262,303,229,292,200,317,336,251,306,176,226,142,0
2,1773252028880,885,1536,10208,-46425,-320093,13439,0,0,0,384,500,336,430,404,463,586,587,318,262,335,323,0
1,1773252028896,-11270,12548,10303,6726848,1144761,3662747,0,0,0,257,312,231,287,204,324,328,258,307,172,229,145,0
2,1773252028896,885,1521,10155,-20769,-193033,17104,0,0,0,386,500,342,431,406,464,592,592,324,266,340,321,0
1,1773252028912,-6958,17348,10126,2819753,621860,2243097,0,0,0,255,316,228,286,211,326,330,262,297,175,226,142,0
2,1773252028912,894,1483,10270,24434,-122173,0,0,0,0,383,500,339,425,402,458,593,593,325,260,331,334,0
1,1773252028928,-2881,17937,10619,-1732413,890641,-207694,0,0,0,251,321,218,291,217,313,337,270,281,174,234,131,0
2,1773252028928,856,1536,10222,87964,-72082,-24434,0,0,0,389,504,340,423,398,450,591,591,321,263,321,350,0
1,1773252028944,-4814,11782,8289,-4357912,1750739,-2222327,0,0,0,240,317,219,292,215,317,338,271,279,170,237,131,0
2,1773252028944,847,1584,10112,163711,-18325,-39095,0,0,0,395,507,344,427,403,460,580,580,322,259,332,333,0
1,1773252028960,-8920,6211,4388,-4201531,1051909,-1987755,0,0,0,232,317,216,291,217,317,334,269,275,168,236,127,0
2,1773252028960,856,1545,9992,245567,23212,-41538,0,0,0,397,511,347,433,409,463,580,580,332,259,307,336,0
1,1773252028976,-8183,4503,3062,-3787364,-322536,-1037249,0,0,0,234,320,217,291,219,318,334,271,278,171,241,129,0
2,1773252028976,890,1459,9930,290771,42760,-39095,0,0,0,398,511,343,430,409,464,579,578,334,255,290,346,0
1,1773252028992,-4359,5498,4867,-4025601,-702495,-521678,0,0,0,235,321,222,292,221,323,338,266,283,175,242,130,0
2,1773252028992,947,1392,9868,290771,39095,-29321,0,0,0,401,512,342,431,409,466,579,563,329,248,277,349,0
1,1773252029024,-4584,5302,8193,-5331631,-282219,-763581,0,0,0,235,328,220,288,236,318,339,279,287,173,244,129,0
2,1773252029024,1091,1277,9810,268780,-25656,-23212,0,0,0,410,517,348,438,416,471,579,555,341,244,255,364,0
1,1773252029040,-5015,4441,9533,-5740911,-976162,-884532,0,0,0,235,331,227,287,229,325,335,273,287,176,248,138,0
2,1773252029040,1086,1229,9830,270002,-67195,-35430,0,0,0,416,521,347,436,417,468,578,540,340,247,246,367,0
1,1773252029056,-4163,3914,11141,-6085439,-1477072,-1054353,0,0,0,235,329,234,286,219,331,336,269,292,177,250,144,0
2,1773252029056,1000,1210,9815,271224,-84299,-50090,0,0,0,419,522,347,438,423,470,579,528,346,246,231,370,0
1,1773252029072,-3866,3000,13003,-6432410,-1617571,-1276708,0,0,0,234,325,233,287,214,330,340,273,294,177,248,140,0
2,1773252029072,942,1206,9806,273667,-84299,-58643,0,0,0,421,521,342,447,427,478,576,520,355,237,214,382,0
1,1773252029088,-4249,1813,14936,-6601009,-1723861,-1372003,0,0,0,235,323,230,289,209,324,342,275,292,175,248,134,0
2,1773252029088,957,1191,9834,293215,-80634,-58643,0,0,0,429,523,329,455,432,485,573,508,354,241,206,404,0
1,1773252029104,-4627,827,17018,-6538701,-1919338,-1259604,0,0,0,234,321,231,289,208,323,342,273,290,175,246,136,0
2,1773252029104,966,1153,9911,333532,-78190,-54977,0,0,0,444,532,336,463,441,494,572,498,362,239,191,410,0
1,1773252029120,-4417,100,19995,-6450736,-2124589,-1076344,0,0,0,231,321,229,286,206,320,338,270,288,178,249,143,0
2,1773252029120,971,1129,10011,389732,-73303,-57421,0,0,0,459,543,351,466,443,502,578,473,375,239,182,426,0
1,1773252029136,-4417,-382,22679,-6456845,-2134363,-1138652,0,0,0,236,321,234,286,206,324,344,276,295,172,243,133,0
2,1773252029136,1000,1100,10102,454483,-68416,-65973,0,0,0,472,551,346,479,461,513,582,449,395,262,189,454,0
1,1773252029152,-5479,-1320,25369,-6410419,-2086715,-1555262,0,0,0,234,319,234,286,207,325,344,272,297,171,238,132,0
2,1773252029152,1048,995,10131,533896,-51312,-79412,0,0,0,478,550,352,491,477,528,569,402,384,241,170,470,0
1,1773252029168,-6829,-3321,28284,-6219829,-2254092,-2194227,0,0,0,234,320,235,288,211,325,345,267,296,174,230,132,0
2,1773252029168,1115,871,10117,636521,-14660,-105068,0,0,0,503,559,359,499,471,530,566,376,395,246,164,493,0
1,1773252029184,-7260,-6872,30844,-5946162,-2698802,-2817310,0,0,0,232,321,235,293,212,327,347,270,296,177,225,133,0
2,1773252029184,1229,794,10275,711047,30543,-145385,0,0,0,508,564,361,509,479,542,556,334,415,252,164,526,0
1,1773252029200,-6877,-13290,31457,-5765346,-2950479,-3084869,0,0,0,232,323,232,294,212,328,352,273,302,179,220,130,0
2,1773252029200,1363,703,10605,790459,80634,-199142,0,0,0,511,567,366,515,491,553,541,298,422,256,162,552,0
1,1773252029216,-6384,-22196,27901,-5610186,-2797762,-2714685,0,0,0,232,329,240,288,217,342,353,275,320,177,219,134,0
2,1773252029216,1378,650,11088,934623,102625,-250454,0,0,0,519,574,345,522,499,558,521,263,430,262,162,574,0
1,1773252029232,-2703,-33553,20512,-4871039,-2817310,-1273043,0,0,0,229,329,242,288,221,346,353,276,324,179,223,136,0
2,1773252029232,1368,674,11619,1187522,41538,-273667,0,0,0,525,576,317,536,514,569,495,235,431,265,163,586,0
1,1773252029248,6097,-41784,15841,-3461162,-2744006,338419,0,0,0,228,330,241,291,224,347,354,279,321,183,229,137,0
2,1773252029248,1363,650,12409,1530828,-7330,-295658,0,0,0,532,582,301,545,528,575,461,225,423,268,169,596,0
1,1773252029280,13026,-39971,15204,480140,979827,1503950,0,0,0,227,321,236,287,209,337,355,301,317,208,265,130,0
2,1773252029280,1474,430,14319,2592512,-97738,-310319,0,0,0,547,593,258,541,552,585,371,213,427,271,179,611,0
1,1773252029296,2833,-26891,16740,2122145,2605951,1345125,0,0,0,230,299,213,286,191,304,387,358,293,278,354,109,0
2,1773252029296,2282,368,14993,3241250,-250454,-379958,0,0,0,547,595,237,535,555,576,325,210,430,266,178,614,0
1,1773252029312,-5537,2627,17788,3036000,3525914,810007,0,0,0,235,263,181,281,163,266,453,427,267,323,413,97,0
2,1773252029312,2770,536,15979,3880215,-431270,-547335,0,0,0,550,590,231,523,558,577,291,204,425,267,179,609,0
1,1773252029328,-7202,19090,12916,3551570,4260174,-46425,0,0,0,241,267,167,284,160,266,465,466,272,351,423,93,0
2,1773252029328,3302,579,17243,4607145,-615752,-737925,0,0,0,551,585,232,517,552,561,272,182,407,266,178,599,0
1,1773252029344,-789,7226,12031,4610810,3599217,-456927,0,0,0,249,275,149,304,165,266,487,488,263,393,445,92,0
2,1773252029344,4747,492,19329,5512447,-757472,-1026253,0,0,0,552,567,235,526,544,556,267,157,404,250,165,581,0
1,1773252029360,4268,-3589,18640,5238780,1846034,-188146,0,0,0,265,272,164,325,158,277,509,509,272,450,465,86,0
2,1773252029360,6144,263,22665,6525262,-800233,-1437976,0,0,0,524,552,236,501,519,540,266,149,395,221,138,500,0
1,1773252029376,1708,-2301,23129,4345695,618195,505796,0,0,0,256,287,196,333,180,303,531,531,290,445,475,90,0
2,1773252029376,6915,248,26834,7437895,-602313,-1844813,0,0,0,455,534,220,484,505,521,275,149,370,206,133,420,0
1,1773252029392,-2948,67,18851,2681698,293215,483805,0,0,0,265,298,246,333,188,340,531,531,317,464,479,120,0
2,1773252029392,5905,1464,30385,8227133,-169820,-2186897,0,0,0,371,501,174,436,459,457,291,177,324,190,124,364,0
1,1773252029408,-3680,277,12337,1306029,180816,-25656,0,0,0,275,312,273,340,190,358,550,550,317,469,503,189,0
2,1773252029408,4905,3024,31260,8870984,180816,-2381152,0,0,0,315,459,181,389,421,413,321,249,287,150,115,284,0
1,1773252029424,-2048,-220,10150,745255,117286,-199142,0,0,0,284,319,289,353,207,376,557,557,321,473,509,212,0
2,1773252029424,7054,4546,28131,9258273,966388,-2594955,0,0,0,276,442,212,366,398,399,343,301,283,123,110,218,0
1,1773252029440,-1665,-33,10179,395840,63529,-118507,0,0,0,294,334,294,356,221,383,567,565,324,475,516,220,0
2,1773252029440,6992,9964,19736,8605869,1317025,-3263242,0,0,0,265,441,208,366,400,400,350,314,283,119,111,204,0
1,1773252029456,-2191,693,10471,213802,45204,-6108,0,0,0,298,336,309,363,224,400,574,567,335,477,524,253,0
2,1773252029456,3412,16477,13314,6232047,-312763,-3512475,0,0,0,264,444,201,368,404,397,351,310,275,121,113,201,0
1,1773252029472,-2321,985,10160,230907,47647,0,0,0,0,312,335,324,374,225,412,580,560,343,477,530,288,0
2,1773252029472,2488,20890,11538,742812,-2525316,-2067167,0,0,0,266,447,203,367,403,392,352,309,270,120,113,197,0
1,1773252029488,-2201,952,9925,302989,53756,2443,0,0,0,322,344,327,376,231,414,580,548,344,472,531,305,0
2,1773252029488,4603,17386,11036,-3878994,-3059213,-278554,0,0,0,265,448,204,368,403,391,356,313,270,124,114,196,0
1,1773252029504,-2110,866,10069,346971,61086,19547,0,0,0,319,356,313,375,238,416,574,535,347,459,524,311,0
2,1773252029504,6882,9045,8327,-5474574,-2377487,682947,0,0,0,262,446,202,372,405,393,359,317,270,126,115,197,0
1,1773252029536,-2019,961,10141,417831,-14660,56199,0,0,0,326,374,287,388,244,419,565,493,349,435,474,330,0
2,1773252029536,6910,4192,3862,-4206418,-646295,362853,0,0,0,265,446,206,375,406,394,358,321,268,123,118,196,0
1,1773252029552,-2010,842,10337,414166,-50090,62308,0,0,0,325,381,285,389,254,413,565,470,349,423,449,347,0
2,1773252029552,5747,5867,5522,-4625471,-175929,445931,0,0,0,267,449,208,378,408,395,357,321,267,123,117,193,0
1,1773252029568,-2010,665,11016,326202,-34208,64751,0,0,0,320,383,273,383,279,413,573,461,352,412,437,355,0
2,1773252029568,5843,5632,7054,-5387831,101403,770911,0,0,0,266,449,207,379,409,396,363,324,265,123,117,192,0
1,1773252029584,-2010,536,10260,309097,-59864,62308,0,0,0,330,388,285,392,265,418,559,441,356,396,432,362,0
2,1773252029584,6226,4441,7810,-5748241,551000,954171,0,0,0,265,449,211,378,411,395,359,326,263,122,120,191,0
1,1773252029600,-2053,483,9365,322536,-89186,64751,0,0,0,328,393,285,392,265,416,553,424,351,381,431,374,0
2,1773252029600,5771,3407,8805,-5797111,1109331,1009149,0,0,0,265,449,208,376,408,393,359,327,263,123,116,193,0
1,1773252029616,-2100,502,9255,312763,-75747,73303,0,0,0,327,390,281,395,265,430,558,396,354,380,433,390,0
2,1773252029616,4623,3163,10413,-5787337,1470963,1056796,0,0,0,264,448,203,377,408,393,361,328,265,124,118,196,0
1,1773252029632,-2091,531,9576,285884,-37873,83077,0,0,0,324,388,284,397,269,432,551,389,355,371,418,392,0
2,1773252029632,4077,3412,12050,-5955936,1631010,1108109,0,0,0,268,449,207,380,410,396,361,330,266,125,120,195,0
1,1773252029648,-2014,531,9729,278554,-9773,91629,0,0,0,326,397,283,404,282,442,551,390,360,371,392,407,0
2,1773252029648,4020,3618,14046,-6327342,1814269,1081231,0,0,0,265,451,208,378,412,396,363,334,269,126,120,195,0
1,1773252029664,-1923,502,9734,300545,-17104,92851,0,0,0,328,394,292,406,280,450,559,371,361,359,356,417,0
2,1773252029664,3790,3397,16539,-6664539,2065946,962723,0,0,0,266,452,209,378,411,397,365,331,273,124,118,195,0
1,1773252029680,-1876,445,9777,328645,-48869,90408,0,0,0,334,397,293,412,278,449,567,350,375,353,330,430,0
2,1773252029680,3412,2751,19171,-6807482,2272418,759916,0,0,0,266,452,210,377,414,395,367,332,277,122,117,192,0
1,1773252029696,-1952,363,9858,360410,-105068,94073,0,0,0,348,402,296,427,279,448,562,334,380,357,309,445,0
2,1773252029696,2971,1866,22947,-6845355,2389704,511905,0,0,0,264,450,207,377,412,394,367,331,277,121,117,191,0
1,1773252029712,-2129,335,9877,394618,-124616,116064,0,0,0,361,407,300,447,282,458,552,318,378,356,284,464,0
2,1773252029712,2646,1143,26915,-6868568,2408030,529009,0,0,0,265,449,209,379,409,396,366,328,274,121,117,191,0
1,1773252029728,-2325,335,9901,449596,-116064,156381,0,0,0,369,420,293,459,298,479,545,298,391,343,263,493,0
2,1773252029728,1847,-866,30892,-6882007,2441017,1210734,0,0,0,267,449,210,382,408,400,369,324,272,144,124,190,0
1,1773252029744,-2598,291,9992,543670,-105068,246789,0,0,0,382,429,297,458,320,485,535,269,391,332,251,505,0
2,1773252029744,1282,-5972,33538,-6806260,2624277,2157576,0,0,0,267,449,206,386,407,402,373,322,274,165,131,186,0
1,1773252029760,-2646,201,10208,649960,-111177,353080,0,0,0,392,439,293,475,324,491,541,233,412,344,250,511,0
2,1773252029760,1005,-16238,34098,-6472728,2565634,2733011,0,0,0,270,452,209,387,407,403,379,323,278,124,113,188,0
1,1773252029776,-2325,100,10801,810007,-109955,439822,0,0,0,426,443,289,480,341,513,516,228,437,301,221,542,0
2,1773252029776,2172,-29389,29944,-5700594,1809382,2483778,0,0,0,272,453,208,388,410,406,380,320,283,123,111,188,0
1,1773252029792,-2167,62,11562,1070235,-109955,458148,0,0,0,415,472,297,494,365,521,485,207,427,291,202,557,0
2,1773252029792,2593,-41502,20531,-4138001,1309695,1045801,0,0,0,272,453,208,389,409,408,386,326,288,123,113,189,0
1,1773252029808,-2354,0,12031,1406211,-74525,461814,0,0,0,440,506,255,503,436,522,458,224,436,283,199,561,0
2,1773252029808,-4814,-45364,16453,-2189341,1599245,-742812,0,0,0,268,450,203,386,408,407,382,326,286,123,113,189,0
1,1773252029824,-2191,-148,12462,1758070,-37873,477696,0,0,0,450,503,257,506,452,531,426,207,439,274,179,571,0
2,1773252029824,-12888,-44575,16850,-329867,990823,-1804495,0,0,0,257,444,191,382,408,399,398,403,278,132,162,176,0
1,1773252029840,-1804,-210,13127,2134363,-80634,469144,0,0,0,466,519,233,527,457,551,376,188,453,264,160,577,0
2,1773252029840,-13160,-34673,21100,1386664,-879645,-1610240,0,0,0,246,419,164,367,384,379,434,461,261,235,265,167,0
1,1773252029856,-2249,-224,13792,2582738,-171042,471587,0,0,0,464,524,203,529,469,555,319,188,455,251,153,579,0
2,1773252029856,-2005,-4551,19645,3059213,-3254689,-789237,0,0,0,247,391,166,356,366,389,479,485,274,239,313,171,0
1,1773252029872,-3292,-263,14548,3154508,-186924,580321,0,0,0,458,506,198,516,487,549,255,181,459,234,148,583,0
2,1773252029872,6781,15774,12711,4223522,-4754975,-103847,0,0,0,257,386,165,365,363,396,498,497,284,218,347,161,0
1,1773252029888,-4288,-181,15845,3877772,-107512,827111,0,0,0,456,496,209,498,474,557,241,160,459,209,126,567,0
2,1773252029888,2263,5503,14046,5029864,-3580892,300545,0,0,0,267,396,168,374,362,400,524,524,284,316,421,149,0
1,1773252029920,-7398,-277,21722,5742133,42760,1613905,0,0,0,443,443,242,485,412,532,278,151,431,170,82,484,0
2,1773252029920,-3661,-1416,24015,4261395,-327423,91629,0,0,0,277,433,218,395,378,425,542,542,309,244,374,199,0
1,1773252029936,-9700,-478,25230,6669426,51312,2102598,0,0,0,401,414,226,460,368,497,264,152,401,165,82,400,0
2,1773252029936,502,1387,17583,2645046,-131946,-117286,0,0,0,294,450,258,406,385,441,551,551,317,264,388,231,0
1,1773252029952,-11074,23,28035,7496538,150272,2724458,0,0,0,321,391,211,391,324,432,226,170,343,149,107,325,0
2,1773252029952,2144,1282,11447,1326799,-106290,25656,0,0,0,318,470,291,421,397,458,564,564,317,295,410,262,0
1,1773252029968,-10093,1397,29791,7946135,470366,3203377,0,0,0,265,354,221,339,253,365,287,217,309,165,144,237,0
2,1773252029968,1215,110,10212,629191,-147829,156381,0,0,0,339,487,301,427,407,462,577,576,318,328,424,274,0
1,1773252029984,-9451,3694,28231,8222246,1075122,3448945,0,0,0,236,304,221,276,208,303,314,249,274,148,202,123,0
2,1773252029984,689,344,10571,295658,-200363,108734,0,0,0,355,496,309,427,413,465,579,578,330,275,385,297,0
1,1773252030000,-11165,7647,20598,8216137,1590693,3558900,0,0,0,247,310,221,283,216,311,326,267,283,164,239,140,0
2,1773252030000,780,1158,10543,140499,-221133,13439,0,0,0,360,496,312,432,422,472,583,583,331,279,391,305,0
1,1773252030016,-13041,11993,11887,7288844,1450194,3632204,0,0,0,250,314,221,285,215,313,321,267,280,168,248,143,0
2,1773252030016,914,1497,10208,51312,-175929,-9773,0,0,0,369,503,323,426,418,469,588,588,342,274,385,309,0
1,1773252030032,-9164,17027,10155,3693291,623082,2805093,0,0,0,251,319,229,286,210,320,310,263,284,167,243,141,0
2,1773252030032,914,1550,10193,29321,-118507,-7330,0,0,0,373,503,319,424,423,458,587,588,327,284,382,327,0
1,1773252030048,-3402,18583,10945,-1016479,696386,637743,0,0,0,253,317,231,288,208,321,326,272,285,168,244,141,0
2,1773252030048,847,1631,10251,86742,-79412,-23212,0,0,0,373,501,317,426,415,461,587,588,329,275,359,331,0
1,1773252030064,-4422,13093,8738,-3755599,1678657,-1452637,0,0,0,249,322,224,289,214,315,332,278,278,176,248,147,0
2,1773252030064,799,1751,10203,190589,-41538,-46425,0,0,0,376,505,317,429,414,464,582,582,333,265,328,338,0
1,1773252030080,-8446,7341,5187,-4552167,1626123,-2119702,0,0,0,235,323,219,287,215,314,328,277,273,174,252,143,0
2,1773252030080,818,1794,10083,311541,-3665,-58643,0,0,0,383,513,317,430,414,472,578,578,345,257,311,336,0
1,1773252030096,-9308,5106,3584,-4372573,467922,-1541823,0,0,0,230,324,222,286,214,316,329,277,275,172,251,139,0
2,1773252030096,842,1732,9954,404392,13439,-50090,0,0,0,391,518,316,434,426,479,570,570,341,272,317,345,0
1,1773252030112,-6369,5068,4608,-4471533,-348193,-897971,0,0,0,228,323,226,286,215,316,332,278,279,171,253,140,0
2,1773252030112,842,1502,9849,427605,21991,-30543,0,0,0,394,519,316,431,425,472,578,562,330,312,340,352,0
1,1773252030128,-4795,5159,6188,-4836830,-318871,-717155,0,0,0,229,322,226,286,217,317,335,283,281,169,255,138,0
2,1773252030128,894,1311,9782,408057,26878,-24434,0,0,0,395,520,312,431,424,467,580,552,329,290,307,370,0
1,1773252030144,-5226,4905,7432,-5236336,-324980,-774577,0,0,0,230,330,223,283,229,315,337,290,282,168,259,136,0
2,1773252030144,990,1234,9758,376292,6108,-29321,0,0,0,399,524,310,440,429,475,574,543,337,267,275,377,0
1,1773252030176,-4326,4489,10873,-6260146,-1213178,-1185078,0,0,0,226,347,219,282,262,312,341,301,280,166,260,134,0
2,1773252030176,1019,1196,9815,313984,-81855,-46425,0,0,0,418,535,317,451,438,487,573,520,345,250,237,400,0
1,1773252030192,-4374,3158,12490,-6640105,-1422094,-1424537,0,0,0,225,342,220,282,250,313,340,296,284,166,256,132,0
2,1773252030192,995,1201,9839,307876,-120951,-51312,0,0,0,431,539,319,453,444,487,569,501,353,252,224,405,0
1,1773252030208,-4450,1885,14060,-6657209,-1677435,-1455080,0,0,0,231,326,223,285,213,320,340,283,288,168,254,131,0
2,1773252030208,966,1206,9892,335975,-147829,-56199,0,0,0,442,541,320,461,457,496,574,479,355,256,212,414,0
1,1773252030224,-4158,1359,16161,-6475171,-1921782,-1358564,0,0,0,236,324,223,294,213,319,340,283,288,168,257,129,0
2,1773252030224,856,1134,9968,381179,-141720,-62308,0,0,0,454,547,334,470,453,507,571,463,361,248,200,425,0
1,1773252030240,-3823,1340,19171,-6428745,-2052507,-1291369,0,0,0,236,325,225,285,216,318,337,283,285,166,255,131,0
2,1773252030240,804,1052,10050,420275,-107512,-68416,0,0,0,478,563,356,469,455,515,566,434,362,233,173,441,0
1,1773252030256,-3771,1057,22368,-6539923,-2069611,-1369559,0,0,0,233,321,226,285,210,319,345,284,290,165,246,128,0
2,1773252030256,894,985,10112,459370,-62308,-76969,0,0,0,478,561,342,493,468,533,564,418,370,239,170,466,0
1,1773252030272,-4359,220,25383,-6609561,-2034181,-1667662,0,0,0,238,319,230,288,211,330,345,284,297,168,243,136,0
2,1773252030272,1067,957,10184,532674,-34208,-101403,0,0,0,493,565,355,496,465,527,560,375,378,238,162,494,0
1,1773252030288,-5393,-1928,29035,-6423858,-2172236,-2249205,0,0,0,240,320,235,288,211,325,343,282,294,170,239,134,0
2,1773252030288,1225,880,10260,597426,-25656,-145385,0,0,0,504,574,347,503,482,533,545,328,379,247,158,511,0
1,1773252030304,-6049,-6149,32682,-6180734,-2422691,-2878397,0,0,0,236,323,233,286,213,321,347,284,292,170,235,128,0
2,1773252030304,1325,751,10471,667064,-9773,-213802,0,0,0,512,584,352,506,493,538,519,308,393,248,160,528,0
1,1773252030320,-6901,-14754,33586,-6082996,-2365270,-3093421,0,0,0,233,327,227,291,219,321,354,288,291,174,234,125,0
2,1773252030320,1397,713,10949,790459,-8552,-285884,0,0,0,518,589,344,517,503,545,509,281,408,252,163,554,0
1,1773252030336,-7623,-26877,29499,-5903401,-2119702,-2561968,0,0,0,233,328,227,297,221,325,362,284,294,181,231,123,0
2,1773252030336,1474,746,11586,1020144,-50090,-349414,0,0,0,525,593,352,525,517,555,489,248,418,254,159,572,0
1,1773252030352,-2263,-39200,21392,-4883256,-2377487,-1139874,0,0,0,234,327,230,299,220,331,366,276,297,188,231,124,0
2,1773252030352,1143,765,12376,1381777,-128281,-375071,0,0,0,531,602,337,527,527,561,455,227,415,258,161,584,0
1,1773252030368,9581,-47164,15233,-2896722,-2382374,255341,0,0,0,230,326,228,296,218,329,359,280,291,200,255,126,0
2,1773252030368,794,617,12916,1831373,-185703,-360410,0,0,0,540,611,292,529,535,559,415,225,410,268,172,599,0
1,1773252030384,17262,-47728,14271,-751364,-1055575,657290,0,0,0,217,316,218,290,210,312,358,315,278,222,313,118,0
2,1773252030384,717,478,13534,2320066,-147829,-322536,0,0,0,551,613,267,529,543,557,374,230,409,275,178,605,0
1,1773252030400,9897,-37568,17846,1507615,1347568,430049,0,0,0,223,296,202,292,198,294,390,388,264,261,377,107,0
2,1773252030400,1249,507,14764,2866179,-146607,-301767,0,0,0,553,609,247,529,550,560,336,224,404,272,178,598,0
1,1773252030432,-6307,8844,13084,4989547,3728721,685390,0,0,0,246,277,163,286,168,251,472,472,244,359,430,106,0
2,1773252030432,3306,818,17659,4280943,-437379,-569326,0,0,0,545,603,230,515,551,551,279,203,397,264,174,596,0
1,1773252030448,-3196,7001,14596,5591860,3010343,498466,0,0,0,240,273,157,295,167,269,505,505,260,404,459,99,0
2,1773252030448,4441,765,18822,5142263,-648738,-856433,0,0,0,542,583,240,502,538,548,281,172,402,240,153,565,0
1,1773252030464,1627,-3115,21765,5456248,1411098,287106,0,0,0,253,285,200,314,178,286,513,513,278,432,463,95,0
2,1773252030464,5360,703,21311,6179512,-831998,-1259604,0,0,0,529,570,239,498,529,539,270,156,398,227,148,514,0
1,1773252030480,-43,-3091,23747,4101349,614530,507018,0,0,0,260,297,240,326,194,321,523,523,302,439,470,107,0
2,1773252030480,6197,603,26030,7235087,-861319,-1634675,0,0,0,474,539,218,485,522,521,279,156,372,211,134,433,0
1,1773252030496,-3464,-612,18157,2193006,210137,377514,0,0,0,270,312,264,339,203,355,537,537,329,457,485,160,0
2,1773252030496,7614,1622,29437,8080525,-574213,-1948660,0,0,0,386,514,181,449,479,469,290,180,331,196,131,379,0
1,1773252030512,-3149,114,11844,1084896,56199,-37873,0,0,0,288,324,276,351,206,379,552,551,329,472,504,213,0
2,1773252030512,7475,3594,30691,8637634,-37873,-2311514,0,0,0,329,476,179,398,435,426,312,237,287,162,123,314,0
1,1773252030528,-2120,95,9169,536339,0,-194255,0,0,0,304,340,283,359,223,402,560,559,320,485,516,245,0
2,1773252030528,7111,5273,29025,9031031,474031,-2801427,0,0,0,278,444,195,363,401,391,334,278,269,127,111,226,0
1,1773252030544,-1890,325,9806,386066,-2443,-96516,0,0,0,312,362,288,368,260,416,561,553,329,493,523,288,0
2,1773252030544,9456,7441,21234,8984605,582765,-3341432,0,0,0,266,441,206,360,395,388,346,310,273,120,115,200,0
1,1773252030560,-2325,722,10428,351858,4886,0,0,0,0,322,375,297,378,279,420,564,539,343,485,526,329,0
2,1773252030560,10926,10605,13658,8224689,282219,-3964515,0,0,0,266,446,207,363,400,392,349,321,274,119,116,200,0
1,1773252030576,-2292,832,10088,371406,20769,15882,0,0,0,336,369,313,384,256,428,568,529,353,476,514,331,0
2,1773252030576,5336,18487,9806,4602258,-295658,-3495370,0,0,0,268,446,208,365,403,393,351,319,269,119,114,200,0
1,1773252030592,-2057,799,9897,397062,-8552,19547,0,0,0,334,365,317,395,259,434,571,519,366,477,482,353,0
2,1773252030592,1531,20952,9868,-1235169,-1187522,-853989,0,0,0,273,447,209,367,403,389,354,320,262,124,117,200,0
1,1773252030608,-2062,765,10074,427605,-78190,31764,0,0,0,348,361,349,410,243,454,568,496,376,455,467,367,0
2,1773252030608,3493,13898,9657,-5634620,-2078163,1760513,0,0,0,271,448,205,368,404,383,357,322,259,127,118,197,0
1,1773252030624,-2172,732,10356,412944,-86742,52534,0,0,0,348,367,330,408,253,466,560,477,395,447,441,405,0
2,1773252030624,8097,5317,6245,-5953492,-1879021,2161241,0,0,0,267,447,204,373,405,388,359,325,261,127,119,196,0
1,1773252030640,-2158,713,10629,387288,-85521,68416,0,0,0,348,378,319,408,259,452,558,455,386,422,430,406,0
2,1773252030640,8255,3153,3522,-4807509,-540004,1027475,0,0,0,266,448,206,375,408,391,360,328,263,129,122,198,0
1,1773252030656,-2134,660,10265,441044,-156381,75747,0,0,0,337,386,317,404,269,448,555,425,388,393,407,415,0
2,1773252030656,5666,4235,4374,-4538728,283441,204028,0,0,0,268,449,207,373,408,390,358,330,263,125,123,197,0
1,1773252030688,-2306,406,9471,481361,-195476,101403,0,0,0,340,384,284,407,269,463,556,378,385,380,356,426,0
2,1773252030688,4134,5135,8198,-5596747,415388,35430,0,0,0,266,450,207,374,409,389,361,336,265,125,121,193,0
1,1773252030704,-2306,335,9504,430049,-139277,118507,0,0,0,334,384,276,413,276,465,556,361,384,364,336,439,0
2,1773252030704,4857,4479,9131,-5899736,880867,233350,0,0,0,264,448,207,375,409,391,360,334,263,123,120,197,0
1,1773252030720,-2244,301,9533,388510,-96516,130725,0,0,0,331,389,274,415,297,460,554,348,392,361,321,449,0
2,1773252030720,4651,3924,10557,-6042678,1528384,588874,0,0,0,265,448,207,377,410,392,360,332,263,125,123,202,0
1,1773252030736,-2196,287,9514,355523,-74525,133168,0,0,0,327,391,283,418,303,462,553,338,400,359,317,451,0
2,1773252030736,4283,3455,12242,-6155078,1933999,984714,0,0,0,266,449,209,379,411,393,363,336,267,125,120,200,0
1,1773252030752,-2211,258,9485,309097,-35430,129503,0,0,0,324,386,301,422,287,463,558,324,403,352,309,452,0
2,1773252030752,4201,3139,14256,-6301685,2182010,1346346,0,0,0,267,450,209,379,411,394,363,337,270,125,122,199,0
1,1773252030768,-2172,224,9528,274889,1221,127059,0,0,0,328,381,304,422,288,463,563,311,403,348,295,462,0
2,1773252030768,4087,3072,16726,-6531371,2408030,1511280,0,0,0,267,449,207,379,411,394,363,336,269,128,124,201,0
1,1773252030784,-2081,186,9667,259006,15882,123394,0,0,0,328,386,306,416,312,459,560,302,401,348,302,474,0
2,1773252030784,3522,2785,19779,-6774495,2616946,1558928,0,0,0,264,449,206,379,410,394,366,339,272,128,124,201,0
1,1773252030800,-2067,138,9863,279776,-23212,129503,0,0,0,338,393,316,417,308,480,562,272,404,343,276,470,0
2,1773252030800,2948,2349,22742,-6847799,2646268,1540602,0,0,0,263,449,207,379,409,394,369,341,275,127,123,200,0
1,1773252030816,-2206,100,9978,323758,-78190,147829,0,0,0,343,405,301,424,349,486,550,265,408,349,277,497,0
2,1773252030816,2761,2077,26226,-6869790,2618168,1590693,0,0,0,265,449,209,379,409,395,367,336,274,126,121,199,0
1,1773252030832,-2421,86,10016,399505,-113620,193033,0,0,0,368,404,305,425,337,531,544,250,446,324,249,514,0
2,1773252030832,2574,1124,30303,-6935763,2635272,1853365,0,0,0,267,450,209,382,411,396,364,331,273,127,119,197,0
1,1773252030848,-2526,67,10098,504574,-135612,251676,0,0,0,362,414,298,435,351,531,544,246,453,308,245,523,0
2,1773252030848,1895,-3354,33845,-6956533,2708576,2340835,0,0,0,269,451,210,385,410,397,377,327,273,128,118,198,0
1,1773252030864,-2555,9,10270,647517,-147829,328645,0,0,0,379,423,290,443,360,519,534,231,442,300,226,545,0
2,1773252030864,894,-11653,35625,-6675535,2646268,2700024,0,0,0,270,451,205,386,409,400,382,325,278,128,115,195,0
1,1773252030880,-2445,-43,10619,789237,-152716,387288,0,0,0,384,430,268,470,369,533,520,222,439,282,198,553,0
2,1773252030880,1536,-26977,30902,-5623625,1778839,2306627,0,0,0,275,453,210,388,409,401,383,324,283,128,115,197,0
1,1773252030896,-2392,-100,11232,984714,-164933,417831,0,0,0,402,437,268,488,362,556,490,212,444,269,172,563,0
2,1773252030896,2919,-41201,21335,-4087910,1132544,915076,0,0,0,274,452,207,393,413,406,384,327,283,129,118,199,0
1,1773252030912,-2555,-196,11849,1273043,-227241,449596,0,0,0,424,445,253,499,394,573,463,192,444,272,166,570,0
2,1773252030912,-2569,-47901,14443,-2225992,1582140,-1192408,0,0,0,274,452,206,394,413,406,386,330,281,128,116,194,0
1,1773252030928,-2321,-358,12366,1629788,-268780,480140,0,0,0,430,457,227,511,413,578,431,180,452,267,161,581,0
2,1773252030928,-14194,-43823,16506,-378736,1170417,-2417804,0,0,0,262,448,196,384,411,394,392,376,281,139,152,185,0
1,1773252030944,-1847,-449,12744,2054950,-277332,443488,0,0,0,437,470,215,518,411,573,384,170,463,254,151,594,0
2,1773252030944,-14395,-33400,21129,1232726,-983493,-2128254,0,0,0,248,428,173,370,389,379,434,456,266,255,248,179,0
1,1773252030960,-2278,-469,13218,2487443,-301767,405614,0,0,0,449,483,211,524,418,563,334,160,471,247,142,595,0
2,1773252030960,-3096,-11509,22072,2711019,-3523470,-1152091,0,0,0,250,391,163,362,368,381,470,477,267,220,270,175,0
1,1773252030976,-3637,-488,14089,3033556,-280998,489913,0,0,0,449,485,205,533,420,554,298,164,474,239,130,587,0
2,1773252030976,6781,9576,14156,3897320,-4786740,-53756,0,0,0,255,393,162,365,370,396,488,488,284,198,306,174,0
1,1773252030992,-5039,-459,15525,3734830,-167377,775798,0,0,0,451,468,209,521,422,557,281,157,458,215,125,576,0
2,1773252030992,4355,7968,11361,4805065,-3760486,856433,0,0,0,262,395,164,375,367,407,502,502,295,209,347,169,0
1,1773252031008,-6130,-306,17535,4510628,-59864,1152091,0,0,0,449,467,223,515,395,559,285,150,483,178,102,547,0
2,1773252031008,-4197,-363,18631,5152037,-1694540,875980,0,0,0,271,402,175,386,367,417,523,523,297,227,381,175,0
1,1773252031024,-7274,-344,20904,5439144,26878,1596801,0,0,0,455,460,233,475,402,546,278,171,460,167,86,499,0
2,1773252031024,-5398,-1550,22976,4638910,-575435,108734,0,0,0,279,418,198,394,374,424,537,537,304,235,379,194,0
1,1773252031040,-9179,-392,24656,6427524,98960,2057394,0,0,0,410,445,245,455,349,503,270,146,420,176,78,410,0
2,1773252031040,402,804,19550,3395188,-371406,-420275,0,0,0,287,438,233,405,382,436,547,547,321,247,361,221,0
1,1773252031072,-10485,765,29313,7809301,605978,2962696,0,0,0,264,372,203,319,264,376,246,206,308,132,142,240,0
2,1773252031072,1818,-157,10701,893084,-196698,299323,0,0,0,329,477,292,424,404,465,577,577,338,281,367,290,0
1,1773252031088,-10050,2919,28820,8212472,603534,3290120,0,0,0,243,316,220,272,202,328,297,229,296,148,184,162,0
2,1773252031088,545,-153,10576,408057,-280998,240680,0,0,0,350,487,306,431,416,479,589,589,352,293,369,317,0
1,1773252031104,-10074,8111,21708,8164824,795346,3495370,0,0,0,251,303,225,273,190,319,317,246,292,159,217,134,0
2,1773252031104,799,646,10581,222354,-312763,45204,0,0,0,361,492,317,434,415,476,592,592,350,297,366,330,0
1,1773252031120,-10801,12452,13318,7282735,1010371,3645643,0,0,0,252,312,223,287,202,322,314,254,287,159,224,131,0
2,1773252031120,1095,1162,10294,133168,-233350,-15882,0,0,0,367,495,320,431,415,478,588,588,347,299,364,335,0
1,1773252031136,-9002,15970,9892,4503298,844215,3375641,0,0,0,255,319,221,290,202,317,323,259,280,163,225,129,0
2,1773252031136,1124,1239,10165,113620,-150272,0,0,0,0,376,500,332,434,416,488,588,588,347,303,364,351,0
1,1773252031152,-4326,17415,10801,70860,966388,1707979,0,0,0,259,323,222,287,202,312,330,261,275,166,228,130,0
2,1773252031152,1100,1306,10189,153938,-130725,0,0,0,0,380,509,318,440,436,482,584,583,351,289,343,364,0
1,1773252031168,-2584,13744,9796,-3859446,1843591,-593761,0,0,0,258,322,222,287,205,313,329,262,275,167,231,132,0
2,1773252031168,990,1426,10246,259006,-139277,-23212,0,0,0,390,517,321,441,440,485,579,579,350,277,328,371,0
1,1773252031184,-6173,8566,6379,-4356690,2006081,-1275486,0,0,0,252,321,221,289,204,314,329,265,276,169,234,132,0
2,1773252031184,871,1426,10193,362853,-80634,-25656,0,0,0,401,516,318,442,435,480,584,583,346,275,317,392,0
1,1773252031200,-8777,5197,3795,-4245513,1112996,-1150870,0,0,0,238,324,223,286,205,314,329,264,275,166,234,130,0
2,1773252031200,890,1296,10088,417831,-8552,-14660,0,0,0,402,520,320,444,437,481,583,580,352,315,344,386,0
1,1773252031216,-7279,5355,4369,-4291939,86742,-739146,0,0,0,237,322,222,290,208,317,335,268,280,171,235,130,0
2,1773252031216,1043,1095,9954,421497,21991,-4886,0,0,0,406,522,319,448,447,487,578,564,354,327,345,388,0
1,1773252031232,-5867,5814,6106,-4877148,-10995,-790459,0,0,0,245,320,220,296,207,316,334,266,276,171,236,130,0
2,1773252031232,1119,942,9830,381179,-10995,-7330,0,0,0,409,525,319,452,453,492,576,545,359,316,321,395,0
1,1773252031248,-6561,5269,7571,-5533217,-47647,-984714,0,0,0,246,322,228,292,208,317,338,266,278,171,238,130,0
2,1773252031248,1134,894,9772,335975,-50090,-14660,0,0,0,412,530,321,454,454,490,575,537,360,298,285,410,0
1,1773252031264,-6992,4139,8829,-5883853,-626747,-1059240,0,0,0,237,319,233,288,208,323,335,265,280,171,240,134,0
2,1773252031264,1124,885,9801,305432,-83077,-23212,0,0,0,419,536,323,457,457,491,573,534,358,271,248,420,0
1,1773252031280,-6154,3479,10466,-6167295,-1213178,-1139874,0,0,0,233,320,224,285,209,319,334,265,278,170,238,130,0
2,1773252031280,1081,842,9849,279776,-112399,-36651,0,0,0,426,542,328,461,461,499,571,526,360,254,226,417,0
1,1773252031296,-5403,3082,12256,-6510601,-1483180,-1273043,0,0,0,237,321,223,287,211,321,335,267,280,172,241,129,0
2,1773252031296,1033,804,9868,257785,-119729,-47647,0,0,0,431,545,328,463,460,504,571,514,362,274,238,415,0
1,1773252031328,-5546,1091,16616,-6921103,-1865582,-1185078,0,0,0,238,320,229,285,205,325,334,269,284,169,236,131,0
2,1773252031328,1033,789,9873,240680,-123394,-53756,0,0,0,439,543,325,472,453,518,575,482,363,244,198,432,0
1,1773252031344,-5283,421,19377,-6786712,-2175901,-927293,0,0,0,233,322,228,286,205,321,336,269,284,169,237,129,0
2,1773252031344,1005,765,9916,255341,-125838,-57421,0,0,0,447,546,329,478,461,511,575,469,370,240,192,436,0
1,1773252031360,-4871,-105,22517,-6698748,-2425134,-794124,0,0,0,234,322,226,290,204,319,338,267,281,170,234,128,0
2,1773252031360,957,741,9973,289550,-111177,-63529,0,0,0,460,553,333,483,470,518,568,444,366,243,186,458,0
1,1773252031376,-4986,-871,25723,-6659652,-2475225,-1033583,0,0,0,236,323,225,288,201,317,340,264,280,172,230,128,0
2,1773252031376,976,708,10007,321315,-97738,-73303,0,0,0,478,557,339,488,470,518,568,419,374,266,190,470,0
1,1773252031392,-6101,-2790,29088,-6537479,-2565634,-1780061,0,0,0,236,324,229,286,203,314,343,262,281,174,224,127,0
2,1773252031392,1024,674,10016,342084,-98960,-86742,0,0,0,485,562,363,491,474,524,563,391,385,259,187,495,0
1,1773252031408,-6795,-6637,32184,-6384763,-2944370,-2651155,0,0,0,236,327,232,287,202,314,348,259,280,171,218,123,0
2,1773252031408,1100,636,10179,461814,-54977,-116064,0,0,0,492,563,368,494,480,531,553,356,391,258,176,515,0
1,1773252031424,-6810,-14936,33012,-6224716,-3189938,-3123964,0,0,0,235,329,223,291,206,319,352,263,283,178,222,121,0
2,1773252031424,1215,612,10476,618195,9773,-156381,0,0,0,504,569,347,506,498,543,545,320,400,262,168,535,0
1,1773252031440,-6805,-25427,29471,-5911953,-2996904,-2825862,0,0,0,232,330,228,291,206,327,347,257,286,178,222,127,0
2,1773252031440,1507,559,10959,796568,45204,-211359,0,0,0,515,580,358,515,509,550,527,278,408,264,169,562,0
1,1773252031456,-2297,-37353,21823,-4875926,-2992017,-1492954,0,0,0,231,330,226,296,208,327,351,257,288,184,222,131,0
2,1773252031456,1627,536,11505,1007927,29321,-277332,0,0,0,523,584,352,520,519,555,502,246,412,267,172,577,0
1,1773252031472,8413,-45570,16377,-3137403,-2836858,0,0,0,0,229,331,226,296,209,327,355,260,289,188,228,130,0
2,1773252031472,1349,440,12194,1353677,29321,-328645,0,0,0,527,585,314,533,535,565,469,228,414,274,177,587,0
1,1773252031488,17300,-47513,15204,-1099557,-1420872,840550,0,0,0,228,333,227,289,207,320,353,262,287,189,231,130,0
2,1773252031488,1253,344,13227,1799608,53756,-356745,0,0,0,530,593,288,542,546,573,431,219,416,276,179,599,0
1,1773252031504,12802,-41119,16132,897971,1028697,1045801,0,0,0,227,306,217,293,198,309,385,331,278,227,309,117,0
2,1773252031504,1531,430,14635,2339613,-59864,-368962,0,0,0,537,598,273,534,549,570,390,216,417,274,176,603,0
1,1773252031520,2402,-21359,18635,2448347,2772106,1103222,0,0,0,228,276,189,282,180,274,423,399,259,275,381,104,0
2,1773252031520,2100,583,15783,3040887,-318871,-426383,0,0,0,544,597,250,531,552,564,343,214,415,276,181,614,0
1,1773252031536,-7255,13323,17161,3494149,4112344,739146,0,0,0,239,270,158,280,173,246,453,448,265,326,414,88,0
2,1773252031536,2498,660,16721,3875329,-508239,-560774,0,0,0,548,593,236,527,553,565,310,207,424,260,176,610,0
1,1773252031552,-5575,16305,11361,4247956,4163657,-25656,0,0,0,255,277,147,296,170,245,483,482,267,374,438,90,0
2,1773252031552,3091,794,18047,4739092,-566882,-739146,0,0,0,546,581,233,523,560,570,276,182,419,258,173,598,0
1,1773252031584,3560,-4383,22766,5235115,805120,204028,0,0,0,255,279,179,309,163,285,506,506,288,449,470,101,0
2,1773252031584,6034,875,24297,6935763,-726929,-1398881,0,0,0,504,552,233,509,521,541,272,151,405,222,139,479,0
1,1773252031600,-1655,-1368,22416,3784921,228463,750142,0,0,0,262,290,224,317,179,315,509,509,319,457,471,122,0
2,1773252031600,6570,1024,29399,7991339,-443488,-1799608,0,0,0,416,533,202,474,497,507,287,162,367,205,126,399,0
1,1773252031616,-5364,722,15635,2216219,316428,342084,0,0,0,269,301,259,327,196,352,534,533,319,462,484,165,0
2,1773252031616,6092,2512,32443,8762250,36651,-2078163,0,0,0,361,494,175,427,456,446,301,198,315,185,123,353,0
1,1773252031632,-2991,-4,10610,1177748,206472,-233350,0,0,0,270,303,275,340,192,384,545,544,334,463,500,217,0
2,1773252031632,6312,4690,32328,9294925,582765,-2310292,0,0,0,288,450,180,383,413,404,325,255,282,143,110,259,0
1,1773252031648,-1488,-425,9734,637743,85521,-254119,0,0,0,293,333,296,363,198,399,555,555,340,472,506,235,0
2,1773252031648,7863,6810,26704,9540493,1402546,-2802649,0,0,0,269,441,197,366,401,390,344,289,279,123,111,210,0
1,1773252031664,-2038,196,10313,365297,103847,-62308,0,0,0,301,334,303,365,211,406,564,563,342,481,516,279,0
2,1773252031664,7523,11366,17152,8927184,1265712,-3578448,0,0,0,273,445,208,368,405,395,353,308,284,123,117,205,0
1,1773252031680,-2550,660,10303,248011,184481,6108,0,0,0,307,336,298,373,212,400,569,559,333,472,526,304,0
2,1773252031680,3326,16161,12931,6399424,-889419,-3651752,0,0,0,269,446,210,366,405,394,353,313,280,122,117,203,0
1,1773252031696,-2287,741,10045,233350,205250,6108,0,0,0,316,346,315,384,214,407,584,539,340,464,535,328,0
2,1773252031696,1947,21110,9815,1880243,-2708576,-2342057,0,0,0,266,446,207,365,403,392,351,311,272,120,116,197,0
1,1773252031712,-1943,775,10098,271224,116064,20769,0,0,0,329,358,316,393,225,410,581,522,337,453,526,335,0
2,1773252031712,4962,19856,8159,-3676187,-2923601,-74525,0,0,0,267,446,203,372,405,393,353,314,267,120,116,195,0
1,1773252031728,-1957,861,10284,333532,4886,40317,0,0,0,328,360,318,395,236,417,584,501,349,455,497,347,0
2,1773252031728,7284,11045,7355,-6012135,-1837482,962723,0,0,0,267,446,202,377,406,393,356,318,265,124,118,197,0
1,1773252031744,-2100,918,10279,409279,-73303,56199,0,0,0,326,363,322,392,230,421,585,480,367,450,466,369,0
2,1773252031744,7489,4407,5699,-6052452,-1029918,834441,0,0,0,268,448,204,376,404,392,360,320,265,127,118,197,0
1,1773252031760,-2019,837,8805,408057,-83077,67195,0,0,0,329,363,325,399,236,423,581,461,375,430,444,379,0
2,1773252031760,6996,3096,4532,-5390274,-684169,172263,0,0,0,267,447,203,375,404,389,364,323,268,127,118,194,0
1,1773252031776,-1971,713,7906,360410,-80634,70860,0,0,0,328,371,321,406,248,427,574,446,381,405,434,386,0
2,1773252031776,6724,3613,5044,-5403713,-356745,-182037,0,0,0,267,449,204,380,406,392,363,323,267,127,119,197,0
1,1773252031792,-2115,536,9064,409279,-135612,73303,0,0,0,325,380,317,398,248,442,568,430,388,389,427,400,0
2,1773252031792,6255,4101,6695,-5806884,68416,-156381,0,0,0,268,450,204,380,408,392,362,325,266,126,119,196,0
1,1773252031808,-2201,397,9801,433714,-155159,81855,0,0,0,327,378,313,394,243,456,565,412,388,387,409,410,0
2,1773252031808,5862,3804,8370,-6085439,599869,282219,0,0,0,268,451,205,380,409,393,361,325,263,126,118,198,0
1,1773252031840,-2134,306,9332,290771,-68416,94073,0,0,0,320,376,313,406,258,461,553,384,391,385,380,418,0
2,1773252031840,6278,3029,10945,-6247929,1572367,1249830,0,0,0,268,450,204,377,405,390,362,326,261,125,120,191,0
1,1773252031856,-2091,335,9466,251676,-40317,98960,0,0,0,321,387,308,406,269,457,558,394,390,388,373,423,0
2,1773252031856,6049,2526,13060,-6361550,2023185,1525941,0,0,0,269,452,207,380,404,392,362,327,262,125,117,190,0
1,1773252031872,-2000,339,9652,241902,-36651,97738,0,0,0,319,385,304,409,270,474,556,382,395,377,352,436,0
2,1773252031872,5441,2215,15644,-6470284,2285857,1604132,0,0,0,270,452,209,380,404,394,362,326,264,126,119,191,0
1,1773252031888,-1947,325,9705,229685,-43982,87964,0,0,0,322,383,305,412,266,464,560,380,382,368,337,452,0
2,1773252031888,4924,2139,18315,-6594901,2406809,1561371,0,0,0,270,452,209,381,406,396,366,327,269,125,120,192,0
1,1773252031904,-1981,291,9763,226020,-61086,79412,0,0,0,325,382,306,411,259,461,556,351,385,359,323,451,0
2,1773252031904,4661,2019,21880,-6783047,2460565,1434311,0,0,0,266,450,206,380,405,394,367,328,269,123,118,188,0
1,1773252031920,-2115,253,9868,265115,-86742,91629,0,0,0,329,385,305,432,268,476,559,334,380,382,321,457,0
2,1773252031920,4967,1502,25996,-6908885,2491108,1354899,0,0,0,264,449,205,379,404,394,367,326,269,121,117,185,0
1,1773252031936,-2249,220,9868,329867,-102625,127059,0,0,0,338,390,301,435,278,477,556,313,376,375,305,474,0
2,1773252031936,5092,201,30701,-6950424,2568077,1459967,0,0,0,265,450,208,380,406,396,369,323,272,122,116,188,0
1,1773252031952,-2292,167,9772,384845,-97738,173485,0,0,0,347,398,307,433,289,480,550,283,378,350,288,492,0
2,1773252031952,4130,-3388,34180,-6935763,2820975,1912008,0,0,0,269,450,207,385,409,400,373,318,274,124,114,191,0
1,1773252031968,-2392,124,9791,433714,-97738,219911,0,0,0,366,402,304,444,299,491,551,258,395,329,270,508,0
2,1773252031968,1277,-11988,36314,-6828251,3210707,2503325,0,0,0,272,450,206,390,412,405,375,314,274,123,111,186,0
1,1773252031984,-2651,114,10011,510683,-116064,291993,0,0,0,391,414,299,465,313,506,545,242,417,315,242,526,0
2,1773252031984,-985,-23828,34414,-6327342,2724458,2715906,0,0,0,273,451,204,389,411,405,380,315,284,126,114,189,0
1,1773252032000,-2847,86,10562,642630,-124616,394618,0,0,0,406,440,302,474,331,521,526,228,425,297,209,539,0
2,1773252032000,756,-39353,24680,-4949230,1254717,1996307,0,0,0,275,451,204,392,413,408,383,324,283,125,116,189,0
1,1773252032016,-2660,105,11557,855211,-83077,474031,0,0,0,410,460,290,475,365,534,510,218,421,277,186,548,0
2,1773252032016,-344,-49059,13998,-2637716,1238834,-328645,0,0,0,273,450,202,394,415,409,381,323,280,127,117,190,0
1,1773252032032,-2139,71,12443,1285260,-40317,498466,0,0,0,414,474,275,487,416,542,483,219,432,261,180,553,0
2,1773252032032,-9825,-47934,13677,-665843,1593136,-2196671,0,0,0,279,448,198,398,413,400,391,336,272,132,125,188,0
1,1773252032048,-1665,-153,12682,1739744,-102625,471587,0,0,0,418,482,249,491,408,549,450,201,454,262,181,561,0
2,1773252032048,-14472,-37434,19282,923628,-17104,-2195449,0,0,0,255,442,178,361,425,383,414,438,268,142,183,181,0
1,1773252032064,-1727,-363,13170,2130697,-288328,408057,0,0,0,418,497,211,503,418,556,409,197,460,259,161,560,0
2,1773252032064,-7748,-15419,22593,2458121,-2498438,-1193630,0,0,0,244,390,161,350,373,372,454,472,260,179,252,171,0
1,1773252032080,-2742,-248,14070,2634050,-414166,420275,0,0,0,434,469,201,489,418,546,336,183,476,238,148,579,0
2,1773252032080,4871,11954,16750,3721391,-4552167,100181,0,0,0,255,385,162,362,366,388,487,496,265,237,341,161,0
1,1773252032096,-4034,-52,15161,3292563,-386066,599869,0,0,0,436,476,209,486,421,546,295,165,463,234,143,577,0
2,1773252032096,6317,13070,10122,4513072,-4302934,850324,0,0,0,263,392,167,375,369,402,501,502,290,280,354,164,0
1,1773252032112,-5206,114,16884,4145331,-277332,955393,0,0,0,457,459,232,500,387,544,276,151,448,213,101,563,0
2,1773252032112,-2646,-574,15673,5176472,-2006081,948062,0,0,0,270,410,180,380,369,410,520,519,300,257,356,179,0
1,1773252032128,-6465,277,19626,5115385,-211359,1392772,0,0,0,448,450,247,490,390,541,282,156,447,179,93,514,0
2,1773252032128,-6288,-3062,23785,4877148,-465479,316428,0,0,0,279,428,217,389,372,420,541,541,307,254,368,194,0
1,1773252032144,-8298,172,23354,6186843,-215024,1869247,0,0,0,418,447,233,463,377,516,275,159,430,163,89,456,0
2,1773252032144,-1062,224,21698,3464827,-421497,-233350,0,0,0,302,449,265,405,381,436,554,554,318,271,367,220,0
1,1773252032160,-9533,483,26542,7119023,-182037,2329840,0,0,0,352,418,215,416,330,471,239,151,385,152,91,383,0
2,1773252032160,2857,1282,14156,1729970,-373849,-107512,0,0,0,325,471,294,417,391,451,563,564,327,275,356,256,0
1,1773252032176,-9796,1363,28623,7768984,63529,2737898,0,0,0,289,379,221,355,279,425,231,165,345,142,114,302,0
2,1773252032176,1737,100,10969,959058,-191811,164933,0,0,0,339,483,304,424,404,462,573,573,333,279,353,285,0
1,1773252032192,-9150,2689,29049,8133059,425162,3078760,0,0,0,255,331,230,297,225,366,271,204,313,144,159,203,0
2,1773252032192,780,-234,10337,441044,-112399,199142,0,0,0,359,490,307,430,412,466,584,583,336,281,356,309,0
1,1773252032224,-12189,9925,16817,8155050,750142,3545461,0,0,0,259,305,228,296,192,308,332,257,281,169,222,129,0
2,1773252032224,1129,1167,10313,112399,-228463,12217,0,0,0,373,497,324,433,412,467,587,588,330,286,355,329,0
1,1773252032240,-11342,14261,10681,6508158,346971,3769038,0,0,0,260,309,227,303,193,311,330,266,280,173,225,129,0
2,1773252032240,1100,1320,10107,51312,-177150,10995,0,0,0,380,502,325,433,415,470,589,589,336,285,354,329,0
1,1773252032256,-5446,18257,10246,2199114,503352,2675589,0,0,0,259,306,240,302,194,311,338,278,280,173,219,133,0
2,1773252032256,1067,1383,10203,107512,-133168,4886,0,0,0,387,502,329,433,415,467,585,584,333,286,346,339,0
1,1773252032272,-1880,17257,10256,-2351831,1561371,536339,0,0,0,260,309,235,298,188,314,335,265,280,173,219,135,0
2,1773252032272,1005,1469,10270,215024,-116064,-13439,0,0,0,395,510,330,434,419,470,586,585,340,276,334,342,0
1,1773252032288,-4527,10514,7504,-4668232,2609616,-1218065,0,0,0,254,310,231,300,193,318,336,269,280,173,223,132,0
2,1773252032288,894,1507,10227,318871,-69638,-28099,0,0,0,397,510,332,434,420,474,586,586,342,283,322,346,0
1,1773252032304,-8667,5522,3799,-4432438,1872912,-1145983,0,0,0,252,313,229,299,195,315,336,268,280,174,228,132,0
2,1773252032304,890,1407,10098,383623,19547,-21991,0,0,0,401,513,332,435,425,475,586,584,340,312,333,355,0
1,1773252032320,-9107,4096,2550,-4001167,513126,-549778,0,0,0,242,318,229,297,202,314,336,271,278,174,230,129,0
2,1773252032320,971,1249,9959,411723,87964,-15882,0,0,0,405,517,331,439,430,476,577,575,348,314,311,364,0
1,1773252032336,-6350,4886,3871,-3935193,-445931,-107512,0,0,0,247,322,232,296,198,314,335,270,278,174,231,129,0
2,1773252032336,1052,1110,9858,409279,112399,-17104,0,0,0,408,518,329,442,435,475,578,565,346,304,292,378,0
1,1773252032352,-4848,5508,5814,-4439768,-355523,-334754,0,0,0,247,319,234,299,196,314,340,271,278,172,230,130,0
2,1773252032352,1124,1057,9806,395840,101403,-24434,0,0,0,409,519,327,447,442,480,579,554,343,274,266,392,0
1,1773252032368,-5508,5288,7528,-5177693,-328645,-785572,0,0,0,246,317,234,302,195,316,345,271,281,173,229,131,0
2,1773252032368,1206,1028,9801,386066,68416,-32986,0,0,0,413,520,324,452,443,487,577,537,344,280,265,395,0
1,1773252032384,-6106,4350,9107,-5784893,-812450,-1114218,0,0,0,245,315,233,303,198,318,346,271,283,175,229,130,0
2,1773252032384,1258,961,9791,370184,18325,-43982,0,0,0,419,520,320,452,441,488,578,526,346,357,304,389,0
1,1773252032400,-5805,3306,10729,-6212499,-1268156,-1367116,0,0,0,245,317,233,305,206,317,347,273,282,177,231,128,0
2,1773252032400,1268,880,9786,345749,-43982,-56199,0,0,0,424,522,318,458,444,490,574,518,356,359,283,395,0
1,1773252032416,-5675,2306,12122,-6411641,-1494176,-1543045,0,0,0,248,322,233,307,209,315,348,275,281,180,232,129,0
2,1773252032416,1220,851,9834,339641,-94073,-64751,0,0,0,435,527,323,466,447,495,575,492,361,245,202,417,0
1,1773252032432,-6068,1541,13888,-6456845,-1720196,-1609019,0,0,0,248,319,236,304,198,318,352,274,284,177,232,127,0
2,1773252032432,1158,837,9906,353080,-118507,-72082,0,0,0,446,536,326,458,451,496,569,464,365,263,200,423,0
1,1773252032448,-6336,1139,16463,-6492275,-2001194,-1601688,0,0,0,245,318,236,303,198,318,353,273,283,179,231,129,0
2,1773252032448,1105,799,9964,378736,-102625,-83077,0,0,0,456,543,326,470,458,516,571,441,368,384,252,424,0
1,1773252032480,-6738,-23,23823,-6847799,-2360383,-1639562,0,0,0,244,314,236,302,198,319,357,269,282,184,228,131,0
2,1773252032480,1105,655,10045,439822,-13439,-109955,0,0,0,474,552,337,484,477,522,575,406,383,259,182,483,0
1,1773252032496,-7221,-1737,27614,-6930877,-2434908,-1992642,0,0,0,245,315,234,279,234,307,354,269,283,178,216,129,0
2,1773252032496,1206,626,10160,485026,3665,-118507,0,0,0,482,553,343,490,478,532,572,376,388,276,182,507,0
1,1773252032512,-7475,-4761,30873,-6798930,-2706133,-2525316,0,0,0,244,316,234,298,212,317,356,270,284,183,216,130,0
2,1773252032512,1306,588,10284,574213,9773,-138055,0,0,0,491,558,340,500,482,540,568,347,392,275,177,521,0
1,1773252032528,-6776,-10916,33874,-6486167,-3298672,-3119077,0,0,0,242,319,238,296,203,322,355,265,284,185,215,128,0
2,1773252032528,1421,512,10476,704938,15882,-172263,0,0,0,501,565,335,516,495,551,556,313,403,269,166,541,0
1,1773252032544,-5943,-20674,32825,-6236934,-3196046,-3111747,0,0,0,237,324,236,291,210,320,356,266,287,186,218,128,0
2,1773252032544,1608,445,10801,847880,20769,-221133,0,0,0,514,577,333,517,500,561,539,274,410,266,163,559,0
1,1773252032560,-6054,-32050,26743,-5787337,-2654820,-2251649,0,0,0,234,326,234,295,216,322,358,268,288,190,230,128,0
2,1773252032560,1655,411,11356,1045801,19547,-278554,0,0,0,521,581,320,525,511,562,520,250,415,270,164,575,0
1,1773252032576,-1497,-43249,18372,-4602258,-2669481,-212581,0,0,0,237,326,234,300,214,322,361,270,288,197,240,128,0
2,1773252032576,1387,382,12103,1368338,21991,-318871,0,0,0,528,582,308,529,527,563,489,233,418,270,166,586,0
1,1773252032592,14122,-47843,15616,-2470339,-2381152,1563815,0,0,0,237,316,228,297,204,314,368,287,283,207,263,121,0
2,1773252032592,1143,282,12907,1809382,108734,-322536,0,0,0,533,585,288,531,541,565,448,218,421,270,173,596,0
1,1773252032608,20535,-45795,17142,-318871,-233350,1654223,0,0,0,234,291,211,290,186,295,397,341,272,239,328,110,0
2,1773252032608,1316,244,13874,2278527,237015,-332310,0,0,0,533,585,258,537,545,569,401,212,432,270,173,601,0
1,1773252032624,7647,-25235,19205,2321287,3411071,839328,0,0,0,241,269,182,280,171,262,451,425,261,291,398,102,0
2,1773252032624,2077,296,15099,2869844,256563,-392175,0,0,0,537,582,240,530,540,575,354,208,442,266,170,602,0
1,1773252032640,-5230,2828,15879,4269948,5754350,284663,0,0,0,250,271,152,277,170,249,467,467,260,326,419,91,0
2,1773252032640,2847,402,16587,3672521,12217,-526565,0,0,0,536,576,229,524,540,583,318,194,431,264,177,608,0
1,1773252032656,-4149,9317,13395,5253441,4885700,-224798,0,0,0,250,277,166,286,164,291,492,492,277,378,443,113,0
2,1773252032656,3780,574,18138,4537506,-248011,-711047,0,0,0,538,570,230,522,541,588,291,173,417,253,171,597,0
1,1773252032672,4034,-105,18573,5624847,2034181,-458148,0,0,0,243,267,159,306,152,279,515,515,276,426,466,94,0
2,1773252032672,5068,890,20751,5572312,-425162,-1029918,0,0,0,537,556,235,520,531,564,281,152,414,235,149,556,0
1,1773252032688,5518,-3723,25431,4849048,-89186,158824,0,0,0,248,295,190,324,197,298,520,520,275,443,483,106,0
2,1773252032688,5800,1320,24450,6688974,-551000,-1390329,0,0,0,484,537,227,504,516,552,285,154,403,224,140,461,0
1,1773252032704,-2278,-1746,22172,2831971,-178372,585208,0,0,0,253,292,246,342,193,338,530,530,303,464,488,136,0
2,1773252032704,6140,1770,28767,7742106,-505796,-1661553,0,0,0,402,507,189,486,490,521,290,155,385,200,127,397,0
1,1773252032736,-2852,555,8389,529009,108734,-323758,0,0,0,292,312,284,361,195,377,556,555,322,483,509,210,0
2,1773252032736,6274,4101,31974,9148317,746477,-2222327,0,0,0,277,444,185,383,410,409,330,268,282,136,112,251,0
1,1773252032752,-1684,272,8868,360410,67195,-211359,0,0,0,298,314,299,363,197,398,571,559,332,493,521,226,0
2,1773252032752,5896,5087,27690,9343794,1099557,-2579073,0,0,0,268,443,200,372,408,400,347,303,287,120,113,209,0
1,1773252032768,-2306,354,10351,184481,186924,-53756,0,0,0,311,319,304,364,200,397,582,555,326,499,535,260,0
2,1773252032768,6882,10107,17004,8660847,630412,-3059213,0,0,0,268,446,206,369,410,402,351,320,288,118,118,204,0
1,1773252032784,-2412,894,10413,65973,285884,-18325,0,0,0,319,323,315,372,205,395,588,548,319,501,538,280,0
2,1773252032784,5250,16185,11505,6283359,-577878,-3376863,0,0,0,266,446,204,368,409,399,351,320,280,120,120,201,0
1,1773252032800,-2091,1229,10093,113620,237015,-8552,0,0,0,322,333,334,380,219,398,593,545,318,497,535,285,0
2,1773252032800,3455,20689,10308,985936,-1626123,-2590068,0,0,0,270,446,204,370,405,393,354,321,273,123,121,200,0
1,1773252032816,-1885,1215,10069,244346,117286,14660,0,0,0,327,347,346,382,229,399,592,540,318,487,525,304,0
2,1773252032816,3402,17707,9652,-3919311,-1913229,-1209513,0,0,0,274,446,205,372,403,391,355,323,270,123,121,200,0
1,1773252032832,-1962,1119,10289,356745,-7330,41538,0,0,0,326,350,349,383,219,409,582,521,324,468,499,317,0
2,1773252032832,4623,8738,7183,-5778785,-1683544,-162490,0,0,0,273,447,205,373,404,394,354,323,269,122,121,198,0
1,1773252032848,-2019,1115,10236,415388,-86742,50090,0,0,0,330,359,341,392,233,418,569,495,334,447,478,324,0
2,1773252032848,6001,3914,3933,-5029864,-1299921,-101403,0,0,0,271,448,205,373,405,396,356,326,270,122,121,199,0
1,1773252032864,-2038,971,9772,430049,-131946,47647,0,0,0,338,370,326,393,246,410,567,476,331,442,459,336,0
2,1773252032864,6657,3402,2651,-4460537,-653625,-285884,0,0,0,269,448,204,376,408,397,359,331,273,125,124,202,0
1,1773252032880,-2115,770,9322,360410,-102625,50090,0,0,0,338,384,312,389,260,399,561,466,327,430,449,342,0
2,1773252032880,5742,4996,3919,-4658458,53756,-324980,0,0,0,271,450,206,377,408,395,359,332,272,127,124,201,0
1,1773252032896,-2163,693,9423,334754,-83077,53756,0,0,0,330,371,307,402,259,414,565,450,337,415,432,347,0
2,1773252032896,4374,5379,6006,-5196019,467922,36651,0,0,0,272,452,209,376,405,392,361,332,271,126,123,196,0
1,1773252032912,-2177,674,9562,344527,-84299,57421,0,0,0,329,382,306,392,268,418,569,439,342,393,431,363,0
2,1773252032912,4206,4656,7145,-5463578,725707,481361,0,0,0,272,450,207,379,408,394,361,333,271,123,123,192,0
1,1773252032928,-2177,660,9562,339641,-63529,62308,0,0,0,333,382,303,395,272,427,568,417,342,399,431,388,0
2,1773252032928,4326,3967,8236,-5525886,1163087,873537,0,0,0,272,451,209,379,406,392,363,335,272,127,124,199,0
1,1773252032944,-2134,622,9533,316428,-32986,69638,0,0,0,330,390,304,397,297,436,532,400,357,391,415,390,0
2,1773252032944,3833,3914,9815,-5632177,1521054,1159422,0,0,0,270,449,206,380,408,398,360,332,273,126,125,199,0
1,1773252032960,-2033,574,9562,285884,-17104,78190,0,0,0,332,390,303,403,288,436,546,397,350,389,391,392,0
2,1773252032960,3364,4082,11797,-5902179,1655444,1408655,0,0,0,270,449,208,376,413,395,361,333,275,128,123,199,0
1,1773252032992,-2010,564,9696,273667,-54977,75747,0,0,0,336,410,298,414,313,431,561,380,358,372,350,423,0
2,1773252032992,4259,3273,16118,-6543588,1932777,1426981,0,0,0,274,452,212,378,407,399,363,334,278,126,124,200,0
1,1773252033008,-2029,526,9767,294437,-78190,78190,0,0,0,342,399,298,423,296,434,566,361,363,360,326,437,0
2,1773252033008,4168,2565,19674,-6751282,2171015,1161865,0,0,0,274,453,211,379,407,399,364,334,279,126,123,199,0
1,1773252033024,-2077,469,9858,334754,-116064,92851,0,0,0,351,389,309,426,291,440,559,340,366,354,301,451,0
2,1773252033024,3972,1990,23895,-6925990,2239431,977384,0,0,0,271,454,210,359,425,389,366,332,279,126,123,196,0
1,1773252033040,-2325,449,9940,405614,-157603,130725,0,0,0,356,398,320,434,305,468,538,317,395,345,281,480,0
2,1773252033040,3948,1354,28456,-7066489,2153910,1108109,0,0,0,272,454,210,358,425,389,371,330,281,129,131,193,0
1,1773252033056,-2603,425,9983,487470,-163711,211359,0,0,0,362,431,335,439,319,490,540,297,412,346,270,502,0
2,1773252033056,4005,-1483,32299,-7153231,2151467,1908343,0,0,0,275,452,211,383,408,401,374,323,283,134,140,192,0
1,1773252033072,-2636,411,10155,587652,-129503,301767,0,0,0,371,455,322,470,341,496,551,270,400,328,252,510,0
2,1773252033072,4192,-8178,34544,-7033502,2609616,2829527,0,0,0,278,453,210,386,410,405,375,316,283,134,134,191,0
1,1773252033088,-2526,358,10514,766025,-64751,375071,0,0,0,388,467,327,476,371,491,547,245,406,311,227,528,0
2,1773252033088,3369,-19502,35496,-6547253,2946813,3306002,0,0,0,277,451,206,388,411,408,375,317,284,130,123,190,0
1,1773252033104,-2536,220,10844,993266,-25656,431270,0,0,0,397,455,328,467,377,535,535,205,426,295,190,537,0
2,1773252033104,3101,-34692,29231,-5303532,1938886,2682920,0,0,0,281,455,210,391,412,411,379,321,291,130,121,191,0
1,1773252033120,-2512,110,11442,1230282,8552,483805,0,0,0,415,475,293,467,386,549,493,234,436,263,175,556,0
2,1773252033120,1909,-47767,17712,-3297450,1331686,863763,0,0,0,280,454,212,392,415,415,381,322,291,132,131,191,0
1,1773252033136,-2206,9,12256,1523497,67195,488692,0,0,0,423,483,270,487,390,545,456,201,455,271,175,566,0
2,1773252033136,-6714,-49810,14161,-1258382,1585806,-1332907,0,0,0,277,452,206,391,413,411,383,330,289,142,142,193,0
1,1773252033152,-1904,-220,12624,1872912,48869,472809,0,0,0,446,511,251,490,407,559,416,182,483,257,164,567,0
2,1773252033152,-13644,-44421,16960,533896,526565,-2450791,0,0,0,267,442,190,385,408,397,414,439,271,257,248,175,0
1,1773252033168,-1904,-272,13055,2295631,-80634,442266,0,0,0,456,524,222,502,452,540,381,179,468,262,156,564,0
2,1773252033168,-9069,-22368,22861,2278527,-1910786,-2035402,0,0,0,243,390,158,361,376,374,459,471,260,241,279,168,0
1,1773252033184,-2632,-201,13850,2769662,-152716,469144,0,0,0,469,506,215,495,469,542,325,186,448,244,151,568,0
2,1773252033184,3967,8901,17310,3797138,-4072027,-775798,0,0,0,264,380,167,361,359,391,492,504,267,246,359,156,0
1,1773252033200,-3814,-167,15075,3401297,-83077,631634,0,0,0,477,479,228,496,456,562,270,180,449,218,134,567,0
2,1773252033200,6987,12567,11098,5071403,-4302934,361632,0,0,0,275,388,169,376,358,403,509,511,292,217,351,173,0
1,1773252033216,-5360,0,16913,4178318,64751,954171,0,0,0,474,465,237,502,441,551,257,165,450,198,109,553,0
2,1773252033216,-2010,-626,18056,5688377,-2315179,685390,0,0,0,278,408,189,385,369,415,525,525,307,229,356,188,0
1,1773252033248,-8935,-421,22895,5946162,360410,1899790,0,0,0,421,452,235,454,412,500,262,158,429,163,96,458,0
2,1773252033248,-531,71,21832,2960252,-340862,-289550,0,0,0,307,451,266,408,385,445,555,555,323,268,359,241,0
1,1773252033264,-10504,-469,25900,6811147,478918,2441017,0,0,0,354,423,229,427,355,460,240,163,376,164,97,384,0
2,1773252033264,2325,918,12959,1419650,-183259,41538,0,0,0,329,468,292,416,392,456,574,574,322,370,436,257,0
1,1773252033280,-10945,933,28753,7613824,570548,3036000,0,0,0,284,380,216,347,304,410,240,181,319,142,124,317,0
2,1773252033280,1612,-253,9710,750142,-120951,271224,0,0,0,349,484,305,420,404,463,589,589,319,427,484,274,0
1,1773252033296,-9949,3890,29021,8162381,675616,3463605,0,0,0,245,341,209,312,256,353,275,217,285,158,183,230,0
2,1773252033296,650,-368,10308,439822,-149051,186924,0,0,0,361,493,309,427,414,469,593,592,328,372,428,309,0
1,1773252033312,-9825,5604,25111,8585100,775798,3759264,0,0,0,248,291,220,266,176,295,321,248,273,159,205,126,0
2,1773252033312,942,827,10428,235793,-219911,42760,0,0,0,369,496,314,427,414,471,594,593,334,311,361,333,0
1,1773252033328,-10854,8523,16621,8252789,886976,3993836,0,0,0,254,304,220,282,192,306,331,253,281,172,230,136,0
2,1773252033328,1153,1421,10007,122173,-278554,6108,0,0,0,381,503,332,420,409,472,603,601,329,306,354,348,0
1,1773252033344,-10619,12869,10677,6533814,678060,3947411,0,0,0,252,314,221,284,199,314,333,263,282,173,229,140,0
2,1773252033344,1033,1306,10069,150272,-262672,18325,0,0,0,394,508,336,436,422,478,593,592,338,357,395,365,0
1,1773252033360,-6518,18214,9322,2676811,202807,2719572,0,0,0,264,312,222,295,194,312,347,265,281,174,225,137,0
2,1773252033360,928,1263,10260,228463,-246789,7330,0,0,0,405,514,348,439,426,486,593,588,337,289,319,363,0
1,1773252033376,-2646,17286,9380,-2131919,792903,-70860,0,0,0,258,316,220,296,198,313,357,267,280,177,225,137,0
2,1773252033376,799,1335,10356,320093,-218689,-7330,0,0,0,411,515,340,443,428,481,603,574,345,266,284,379,0
1,1773252033392,-4938,10969,7250,-4477642,1558928,-1909564,0,0,0,252,316,221,294,203,314,356,269,283,177,230,139,0
2,1773252033392,746,1411,10361,393397,-134390,-6108,0,0,0,425,517,342,452,428,481,589,568,348,272,279,389,0
1,1773252033408,-9217,4714,3843,-4451985,987158,-1941329,0,0,0,248,314,219,292,205,313,352,270,282,174,234,138,0
2,1773252033408,780,1335,10284,464257,-40317,-3665,0,0,0,423,520,342,451,435,494,589,557,352,331,323,394,0
1,1773252033424,-7020,4053,3287,-3778812,-445931,-1005484,0,0,0,240,319,219,286,211,313,348,273,280,174,237,136,0
2,1773252033424,827,1062,10083,498466,25656,-8552,0,0,0,418,526,340,449,439,495,587,537,358,303,288,405,0
1,1773252033440,-3244,5326,4680,-3749490,-840550,-624304,0,0,0,233,325,222,282,222,315,345,281,282,174,240,135,0
2,1773252033440,866,861,9911,489913,56199,-18325,0,0,0,426,534,346,454,440,496,574,519,357,269,245,411,0
1,1773252033456,-3187,6125,6288,-4422664,-417831,-948062,0,0,0,234,327,224,285,228,316,345,288,282,173,241,137,0
2,1773252033456,894,808,9825,452040,62308,-32986,0,0,0,429,540,336,460,444,497,568,503,357,253,222,418,0
1,1773252033472,-4723,5910,7604,-5145928,-503352,-1265712,0,0,0,237,332,225,284,232,314,342,288,280,176,243,138,0
2,1773252033472,938,780,9801,412944,53756,-45204,0,0,0,439,544,335,464,447,501,571,482,358,253,214,423,0
1,1773252033488,-5053,5116,9174,-5681046,-1109331,-1414763,0,0,0,234,343,224,282,248,312,338,293,280,173,243,135,0
2,1773252033488,1043,751,9820,382401,21991,-54977,0,0,0,449,543,334,470,449,509,570,463,361,251,197,425,0
1,1773252033504,-4235,4211,11016,-6037792,-1447750,-1538158,0,0,0,234,336,223,285,235,314,338,286,279,173,244,135,0
2,1773252033504,1134,746,9877,379958,-31764,-65973,0,0,0,457,548,333,475,454,513,567,444,363,249,182,433,0
1,1773252033520,-4144,3015,12907,-6377433,-1634675,-1638340,0,0,0,235,332,222,289,235,315,344,288,281,178,247,136,0
2,1773252033520,1134,698,9935,389732,-83077,-84299,0,0,0,465,555,336,478,460,514,566,425,367,249,178,447,0
1,1773252033536,-4407,2067,14682,-6560692,-1800830,-1563815,0,0,0,238,332,229,291,230,314,345,286,281,183,248,138,0
2,1773252033536,1009,598,9954,398284,-105068,-101403,0,0,0,470,555,336,484,463,518,565,407,377,246,175,461,0
1,1773252033552,-4479,1430,17410,-6647435,-1997529,-1280373,0,0,0,237,328,229,292,219,314,345,286,281,178,242,134,0
2,1773252033552,899,521,9964,393397,-85521,-108734,0,0,0,476,559,331,490,471,522,566,385,382,255,173,476,0
1,1773252033568,-4292,894,20574,-6764721,-2146580,-995710,0,0,0,242,326,228,293,213,315,345,278,282,180,240,133,0
2,1773252033568,961,512,10078,397062,-61086,-117286,0,0,0,495,559,331,493,474,524,562,365,380,262,172,496,0
1,1773252033584,-4125,119,23680,-6897890,-2172236,-932180,0,0,0,240,326,230,292,215,316,348,279,285,182,239,136,0
2,1773252033584,1124,497,10256,463035,-48869,-140499,0,0,0,503,571,336,496,479,532,563,342,392,261,173,512,0
1,1773252033600,-4532,-1143,26604,-6883229,-2097711,-1273043,0,0,0,238,327,231,291,223,319,347,280,285,183,235,137,0
2,1773252033600,1172,425,10318,582765,-53756,-182037,0,0,0,507,564,362,511,496,546,554,320,394,255,162,533,0
1,1773252033632,-6499,-9643,32859,-6261368,-2697580,-2819753,0,0,0,239,320,228,294,210,319,359,269,288,192,215,131,0
2,1773252033632,971,224,10638,778242,-43982,-219911,0,0,0,527,577,344,515,503,552,522,276,400,263,167,557,0
1,1773252033648,-7628,-20488,31682,-6064670,-2649933,-2842966,0,0,0,239,320,226,302,209,325,356,269,293,193,217,129,0
2,1773252033648,1033,167,10964,923628,-51312,-217468,0,0,0,533,584,327,528,513,554,501,242,407,278,172,574,0
1,1773252033664,-6537,-32615,26039,-5622403,-2519208,-2008524,0,0,0,237,327,229,304,216,331,349,274,297,185,222,131,0
