sole_id,timestamp,accel_x,accel_y,accel_z,gyro_x,gyro_y,gyro_z,magn_x,magn_y,magn_z,pressure_01,pressure_02,pressure_03,pressure_04,pressure_05,pressure_06,pressure_07,pressure_08,pressure_09,pressure_10,pressure_11,pressure_12,corrupt,brick
1,1774545466112,-358,287,10054,-138055,-80634,-12217,0,0,0,270,128,139,245,110,231,465,260,211,346,188,294,0,
1,1774545466128,-378,301,10026,-130725,-73303,-2443,0,0,0,263,120,128,249,111,232,471,256,213,355,190,301,0,
2,1774545466128,1186,86,10045,8552,6108,-13439,0,0,0,421,322,188,454,336,458,501,225,343,356,194,500,0,
1,1774545466144,-387,311,9992,-124616,-69638,-4886,0,0,0,258,112,126,253,107,231,479,236,211,363,178,289,0,
2,1774545466144,1210,95,9964,4886,-24434,-10995,0,0,0,389,319,172,480,363,478,476,207,306,374,213,481,0,
1,1774545466160,-387,339,9992,-114842,-64751,-7330,0,0,0,263,119,134,241,102,230,477,242,218,368,183,290,0,
2,1774545466160,1172,81,9887,0,-47647,-10995,0,0,0,385,319,176,464,367,474,495,196,297,392,222,484,0,
1,1774545466176,-397,378,10011,-97738,-56199,-7330,0,0,0,262,128,143,241,109,244,486,262,241,376,218,299,0,
2,1774545466176,1129,76,9882,-3665,-56199,-14660,0,0,0,385,300,178,461,348,472,511,182,298,411,214,478,0,
1,1774545466192,-411,397,10031,-61086,-41538,-2443,0,0,0,265,128,151,231,105,248,475,266,261,368,208,314,0,
2,1774545466192,1105,86,9901,0,-48869,-14660,0,0,0,381,267,172,445,317,452,525,218,315,415,212,459,0,
1,1774545466208,-397,392,10026,-29321,-29321,0,0,0,0,260,124,156,231,101,255,467,259,245,369,199,331,0,
2,1774545466208,1100,95,9911,7330,-31764,-13439,0,0,0,371,265,172,429,327,436,512,244,315,415,229,449,0,
1,1774545466224,-378,387,10007,-12217,-25656,0,0,0,0,260,126,157,241,103,262,467,263,247,370,202,335,0,
2,1774545466224,1124,95,9944,12217,-15882,-10995,0,0,0,363,280,185,423,340,440,513,254,333,415,240,449,0,
1,1774545466240,-368,382,9997,-6108,-28099,0,0,0,0,260,126,154,237,104,259,467,261,242,367,193,318,0,
2,1774545466240,1167,100,9973,19547,-10995,-9773,0,0,0,366,272,193,418,318,441,531,261,348,411,233,447,0,
1,1774545466256,-358,373,9997,0,-35430,0,0,0,0,259,129,157,230,100,255,470,254,248,366,187,314,0,
2,1774545466256,1191,105,9954,24434,-21991,-9773,0,0,0,369,265,182,427,330,439,483,219,276,403,238,447,0,
1,1774545466272,-368,378,10002,4886,-37873,0,0,0,0,260,129,158,228,101,254,472,250,251,371,192,322,0,
2,1774545466272,1167,90,9930,26878,-31764,-9773,0,0,0,357,266,173,442,350,466,476,215,278,375,244,446,0,
1,1774545466288,-382,382,9997,19547,-34208,0,0,0,0,261,126,154,235,104,254,473,248,248,372,192,323,0,
2,1774545466288,1148,81,9930,31764,-30543,-9773,0,0,0,373,279,165,454,382,484,509,235,311,365,238,464,0,
1,1774545466304,-373,368,9983,30543,-32986,0,0,0,0,267,132,150,245,106,253,472,245,244,373,189,317,0,
2,1774545466304,1139,81,9968,50090,-13439,-8552,0,0,0,357,246,169,419,350,476,518,240,324,347,196,441,0,
1,1774545466320,-363,349,9973,30543,-34208,0,0,0,0,271,140,146,246,105,249,473,244,242,378,189,312,0,
2,1774545466320,1153,86,10035,78190,0,-9773,0,0,0,354,247,161,427,366,487,486,207,332,291,139,449,0,
1,1774545466336,-344,335,9944,28099,-39095,0,0,0,0,268,137,144,242,104,250,475,251,242,379,189,307,0,
2,1774545466336,1249,114,10193,128281,0,-15882,0,0,0,352,257,161,391,317,456,450,183,324,223,81,452,0,
1,1774545466352,-330,325,9892,24434,-53756,-1221,0,0,0,267,126,147,243,106,255,478,258,234,372,187,305,0,
2,1774545466352,1454,105,10466,230907,-70860,-35430,0,0,0,348,235,149,425,319,470,409,124,315,191,37,455,0,
1,1774545466368,-315,320,9849,18325,-74525,-6108,0,0,0,273,133,148,240,97,237,500,248,214,385,178,311,0,
2,1774545466368,1493,100,11146,408057,-180816,-72082,0,0,0,348,226,139,426,314,440,375,132,248,163,39,433,0,
1,1774545466384,-330,306,9825,8552,-103847,-14660,0,0,0,271,135,160,258,112,264,522,233,228,410,178,332,0,
2,1774545466384,1737,196,12758,758694,-217468,-124616,0,0,0,352,227,147,392,304,397,363,105,210,148,41,401,0,
1,1774545466400,-349,282,9825,4886,-139277,-19547,0,0,0,259,145,152,262,126,269,527,256,230,383,198,332,0,
2,1774545466400,1871,751,15405,1420872,-354301,-211359,0,0,0,338,221,142,359,288,347,326,110,208,138,46,355,0,
1,1774545466416,-402,296,9887,1221,-182037,-21991,0,0,0,261,121,134,272,104,258,525,259,222,402,196,323,0,
2,1774545466416,1756,1009,16386,2140471,-498466,-273667,0,0,0,321,217,129,336,281,301,279,142,185,137,59,310,0,
1,1774545466432,-483,354,10021,8552,-199142,-18325,0,0,0,261,130,141,291,107,265,563,252,211,404,196,329,0,
2,1774545466432,1603,914,15979,2831971,-561996,-322536,0,0,0,311,217,130,313,285,273,251,133,162,144,71,285,0,
1,1774545466448,-531,387,10150,19547,-161268,-10995,0,0,0,261,133,148,298,96,261,607,243,212,501,229,325,0,
2,1774545466448,2421,598,14826,3286454,-587652,-376292,0,0,0,291,206,136,302,276,254,225,122,153,138,78,271,0,
1,1774545466464,-531,387,10160,19547,-127059,-3665,0,0,0,252,130,172,313,98,290,620,249,226,486,243,333,0,
2,1774545466464,2507,3685,12869,3326772,-537561,-527787,0,0,0,278,188,135,316,274,257,223,115,117,141,63,272,0,
1,1774545466480,-564,402,10141,29321,-120951,0,0,0,0,251,132,156,322,106,292,639,248,222,467,253,328,0,
2,1774545466480,1282,10892,10591,2640159,-1022588,-496022,0,0,0,277,188,134,303,273,245,231,139,157,145,63,273,0,
1,1774545466496,-622,411,10122,58643,-118507,3665,0,0,0,258,152,142,339,115,283,646,253,215,463,275,328,0,
2,1774545466496,2373,16386,9011,1276708,-1728748,-173485,0,0,0,279,220,133,316,342,263,236,168,139,146,79,273,0,
1,1774545466512,-622,373,10112,91629,-98960,10995,0,0,0,260,169,146,333,123,286,637,245,232,456,268,348,0,
2,1774545466512,4766,16319,7475,103847,-1387885,62308,0,0,0,270,184,124,269,245,240,258,174,191,130,60,255,0,
1,1774545466528,-607,354,10112,122173,-85521,17104,0,0,0,264,177,168,330,134,308,629,251,255,446,247,363,0,
2,1774545466528,4728,15075,6408,-398284,-812450,129503,0,0,0,274,194,128,299,272,230,268,130,160,122,66,248,0,
1,1774545466544,-588,330,10102,156381,-74525,21991,0,0,0,280,193,194,351,147,335,628,257,256,434,231,365,0,
2,1774545466544,3752,14295,6101,-707381,-654847,208915,0,0,0,276,199,142,283,251,231,222,130,149,119,60,267,0,
1,1774545466560,-593,296,10107,186924,-52534,24434,0,0,0,304,224,185,359,165,333,631,203,247,413,192,381,0,
2,1774545466560,3551,13352,6594,-1102000,-564439,279776,0,0,0,277,197,130,286,260,225,209,135,123,127,67,246,0,
1,1774545466576,-617,272,10136,216246,-2443,29321,0,0,0,328,246,158,377,209,327,628,210,241,375,185,384,0,
2,1774545466576,3680,11830,7805,-1593136,-232128,316428,0,0,0,278,194,139,308,269,252,209,120,147,135,74,260,0,
1,1774545466592,-607,239,10160,249233,91629,36651,0,0,0,327,251,147,390,232,306,615,234,220,381,184,366,0,
2,1774545466592,3383,9652,9423,-2169793,272445,448375,0,0,0,277,190,139,310,273,247,201,109,135,130,68,251,0,
1,1774545466608,-507,172,10145,267558,164933,39095,0,0,0,346,358,180,367,244,319,610,176,240,357,171,412,0,
2,1774545466608,2971,7255,10878,-2648711,623082,737925,0,0,0,274,190,133,298,270,221,186,98,107,121,70,232,0,
1,1774545466624,-354,114,10145,273667,179594,30543,0,0,0,323,316,159,364,262,335,547,164,256,335,159,396,0,
2,1774545466624,2727,4881,12060,-2891836,764803,1109331,0,0,0,271,190,133,298,266,224,183,103,113,119,72,237,0,
1,1774545466640,-277,86,10184,310319,94073,13439,0,0,0,331,316,162,334,242,347,508,171,272,298,152,433,0,
2,1774545466640,2546,2455,13141,-2907718,796568,1431868,0,0,0,266,187,130,304,268,246,206,135,135,120,63,249,0,
1,1774545466656,-296,33,10198,361632,-15882,7330,0,0,0,359,324,180,333,250,363,423,163,298,268,147,452,0,
2,1774545466656,2349,387,13950,-2800206,715934,1588249,0,0,0,265,191,128,285,260,233,217,142,144,118,71,253,0,
1,1774545466672,-363,0,10265,414166,-107512,9773,0,0,0,304,282,122,365,296,353,407,178,277,289,170,459,0,
2,1774545466672,2383,-1378,14434,-2582738,465479,1514945,0,0,0,271,197,137,248,236,219,198,109,148,111,64,260,0,
1,1774545466688,-416,-62,10318,476474,-150272,21991,0,0,0,270,269,95,371,329,384,399,187,287,284,181,494,0,
2,1774545466688,2579,-2876,14491,-2354274,216246,1310916,0,0,0,265,189,133,279,250,239,199,91,142,104,70,264,0,
1,1774545466704,-425,-181,10299,541226,-180816,34208,0,0,0,351,354,129,343,322,393,337,162,279,265,170,502,0,
2,1774545466704,2617,-4474,13950,-2150245,118507,1003040,0,0,0,264,197,125,295,272,226,196,99,133,107,87,262,0,
1,1774545466720,-473,-315,10375,643851,-201585,40317,0,0,0,358,351,120,363,326,382,305,149,260,270,162,511,0,
2,1774545466720,1569,-6585,13256,-2058615,302989,691499,0,0,0,264,197,132,310,279,246,214,140,133,109,66,266,0,
1,1774545466736,-660,-354,10648,758694,-173485,53756,0,0,0,359,335,117,389,348,394,294,146,278,274,153,536,0,
2,1774545466736,-378,-9389,12610,-2070833,434936,452040,0,0,0,265,201,128,303,279,235,206,111,115,117,63,271,0,
1,1774545466752,-1005,-330,11380,917519,-51312,106290,0,0,0,443,410,160,374,356,413,265,129,307,267,147,554,0,
2,1774545466752,-1962,-12514,11801,-2109928,283441,307876,0,0,0,264,199,122,290,267,231,198,144,126,117,60,273,0,
1,1774545466768,-1067,-406,11557,1078788,133168,180816,0,0,0,445,428,150,372,347,396,256,120,290,279,160,559,0,
2,1774545466768,-2220,-16075,10533,-1882686,-34208,75747,0,0,0,263,197,119,287,261,229,203,151,144,123,65,254,0,
1,1774545466784,-899,-579,11332,1255938,304210,249233,0,0,0,482,468,176,349,327,394,214,117,285,258,154,555,0,
2,1774545466784,-2359,-18554,9562,-1400103,-161268,-234572,0,0,0,264,193,120,285,251,216,212,118,120,120,70,239,0,
1,1774545466800,-737,-794,11155,1434311,404392,296880,0,0,0,526,493,206,340,326,384,200,131,263,264,183,550,0,
2,1774545466800,-3981,-19822,9322,-778242,-233350,-560774,0,0,0,255,191,118,284,250,204,211,133,105,144,111,237,0,
1,1774545466816,-641,-1005,11289,1648114,471587,338419,0,0,0,536,490,212,320,322,387,181,110,263,232,167,547,0,
2,1774545466816,-5168,-20794,10514,-141720,-442266,-759916,0,0,0,237,185,114,286,255,209,220,176,110,210,186,235,0,
1,1774545466832,-531,-1172,11629,1899790,535117,377514,0,0,0,556,516,191,283,355,404,144,103,266,226,163,530,0,
2,1774545466832,-3962,-15864,12605,1350012,-103847,-846659,0,0,0,227,175,110,283,257,218,247,191,100,276,246,231,0,
1,1774545466848,-291,-1258,12021,2173458,587652,399505,0,0,0,553,495,198,287,357,400,123,103,263,243,167,516,0,
2,1774545466848,-14,-1919,12103,3042108,554665,-1006705,0,0,0,230,173,107,280,259,205,273,212,84,313,270,236,0,
1,1774545466864,71,-1340,12519,2538755,619417,387288,0,0,0,549,507,179,303,353,404,112,104,245,228,165,511,0,
2,1774545466864,4484,5781,10882,3725056,211359,-1109331,0,0,0,241,172,105,292,251,192,339,262,100,366,333,225,0,
1,1774545466880,339,-1497,12969,3036000,652404,340862,0,0,0,533,520,176,280,341,418,106,105,252,232,168,507,0,
2,1774545466880,4958,1273,12352,3831346,-522900,-386066,0,0,0,252,182,103,268,248,193,422,349,196,373,359,219,0,
1,1774545466896,229,-1708,13175,3589444,709825,289550,0,0,0,424,438,132,298,364,399,115,99,249,252,178,491,0,
2,1774545466896,990,-3326,15367,3194825,-718377,362853,0,0,0,276,200,115,273,288,208,452,385,180,431,404,244,0,
1,1774545466912,114,-1986,13448,4153883,801455,261450,0,0,0,300,343,83,329,388,388,122,107,258,258,198,479,0,
2,1774545466912,-1555,-3268,15242,1740965,-406836,304210,0,0,0,291,200,153,277,267,260,516,415,209,458,390,259,0,
1,1774545466928,81,-2493,15826,4787961,944397,243124,0,0,0,242,316,76,331,388,425,122,111,276,247,199,474,0,x
2,1774545466928,-114,-1005,11811,522900,-86742,-9773,0,0,0,322,213,148,319,275,280,541,405,227,512,455,279,0,x
1,1774545466944,-210,-3101,21344,5641951,1099557,239459,0,0,0,203,314,86,311,368,427,131,113,267,231,187,458,0,
2,1774545466944,909,57,9767,62308,20769,-63529,0,0,0,333,231,160,305,280,273,558,481,243,543,502,298,0,
1,1774545466960,201,-3756,28121,6869790,1237612,230907,0,0,0,137,251,75,298,313,370,146,115,215,214,177,413,0,
2,1774545466960,851,-119,9820,20769,0,13439,0,0,0,365,235,160,334,285,270,611,523,264,598,514,289,0,
1,1774545466976,-440,-4666,30653,8185594,889419,100181,0,0,0,86,138,66,287,217,342,136,89,145,193,132,334,0,
2,1774545466976,689,-301,10303,-52534,-47647,36651,0,0,0,382,243,196,352,308,309,609,521,254,653,546,308,0,
1,1774545466992,-1732,-3527,28911,8859989,-576656,210137,0,0,0,61,74,88,218,133,274,121,84,151,161,99,283,0,
2,1774545466992,722,-138,10390,-136833,-87964,13439,0,0,0,379,257,194,342,324,306,600,513,237,676,588,313,0,
1,1774545467008,-1660,1852,27413,8956506,-1495398,605978,0,0,0,131,65,108,188,82,183,138,54,135,162,66,223,0,
2,1774545467008,775,38,10246,-139277,-118507,1221,0,0,0,382,277,159,336,334,274,623,529,244,670,599,295,0,
1,1774545467024,-3704,9648,20239,8654738,-1744631,1293812,0,0,0,20,3,27,204,98,181,160,66,115,193,83,229,0,
2,1774545467024,751,67,10227,-91629,-135612,0,0,0,0,390,298,163,342,343,288,639,551,258,671,592,302,0,
1,1774545467040,-3828,13385,10284,6894225,-1896125,1970651,0,0,0,24,2,12,192,104,154,160,80,104,192,88,204,0,
2,1774545467040,703,57,10284,-45204,-139277,0,0,0,0,391,303,161,340,327,286,640,533,257,691,599,317,0,
1,1774545467056,851,14577,6020,1890017,-1558928,2128254,0,0,0,25,12,23,188,93,155,155,69,101,189,84,201,0,
2,1774545467056,679,62,10236,-15882,-145385,-3665,0,0,0,388,318,156,333,340,257,615,509,219,687,605,301,0,
1,1774545467072,3943,11653,10093,-3539353,-447153,1404990,0,0,0,25,6,21,193,84,154,162,70,106,191,80,205,0,
2,1774545467072,650,67,10131,3665,-153938,-8552,0,0,0,390,335,162,336,352,255,611,505,203,673,612,280,0,
1,1774545467088,1732,6499,12495,-5557651,109955,433714,0,0,0,27,1,17,186,79,160,163,68,119,191,79,218,0,
2,1774545467088,626,67,10045,19547,-156381,-12217,0,0,0,398,342,160,336,343,247,552,477,188,656,594,253,0,
1,1774545467104,-43,4125,10428,-5348736,-118507,-76969,0,0,0,29,9,21,186,79,160,161,66,118,192,79,216,0,
2,1774545467104,612,57,9997,26878,-155159,-17104,0,0,0,389,342,150,313,325,253,532,479,184,653,602,256,0,
1,1774545467120,794,4441,7346,-4726875,-444709,-24434,0,0,0,24,7,23,188,75,160,165,68,119,193,76,212,0,
2,1774545467120,588,43,9959,23212,-155159,-20769,0,0,0,405,364,178,307,333,260,531,471,224,634,594,256,0,
1,1774545467136,2010,4541,6652,-4812396,-522900,158824,0,0,0,19,3,23,181,72,161,164,66,123,191,75,216,0,
2,1774545467136,540,67,9930,31764,-144164,-28099,0,0,0,411,369,188,314,342,251,519,454,219,629,592,272,0,
1,1774545467152,2397,4125,7657,-5226562,-541226,337197,0,0,0,18,3,22,176,71,161,161,63,122,189,76,220,0,
2,1774545467152,507,105,9940,67195,-125838,-35430,0,0,0,429,363,196,379,364,262,542,461,228,606,565,278,0,
1,1774545467168,2014,3565,8753,-5506339,-643851,488692,0,0,0,16,1,20,177,78,157,163,79,116,187,84,217,0,
2,1774545467168,516,76,9959,119729,-109955,-40317,0,0,0,438,362,211,395,370,283,537,423,233,575,532,287,0,
1,1774545467184,1550,2967,9815,-5749463,-807563,624304,0,0,0,17,8,18,177,97,153,161,107,110,182,107,213,0,
2,1774545467184,521,19,9959,153938,-106290,-43982,0,0,0,447,364,217,365,367,284,506,359,220,571,516,296,0,
1,1774545467200,1229,2263,11026,-6032905,-973719,713490,0,0,0,30,20,20,186,109,159,155,112,103,174,104,202,0,
2,1774545467200,526,-9,9954,164933,-111177,-46425,0,0,0,465,368,203,342,373,272,502,332,231,564,499,308,0,
1,1774545467216,880,1349,12758,-6316346,-1058018,696386,0,0,0,29,2,11,205,94,147,212,115,104,223,107,209,0,
2,1774545467216,502,-9,9959,182037,-114842,-48869,0,0,0,479,379,194,337,381,278,511,328,272,542,468,346,0,
1,1774545467232,483,631,14596,-6467841,-1095892,575435,0,0,0,26,13,20,128,92,141,163,125,103,180,113,208,0,
2,1774545467232,464,-9,10011,216246,-102625,-50090,0,0,0,493,387,221,392,405,305,501,309,277,559,434,381,0,
1,1774545467248,-100,-229,17358,-6568023,-1186300,311541,0,0,0,32,19,21,181,103,158,151,101,103,164,95,204,0,
2,1774545467248,464,-38,10098,267558,-74525,-51312,0,0,0,487,401,206,399,422,321,497,282,279,521,368,418,0,
1,1774545467264,-713,-2067,20492,-6621779,-1364672,9773,0,0,0,32,20,27,197,83,163,156,66,102,171,71,196,0,
2,1774545467264,492,-81,10193,323758,-50090,-53756,0,0,0,499,429,190,427,459,345,520,276,276,480,323,468,0,
1,1774545467280,-1028,-6068,23421,-6500827,-1716531,-394618,0,0,0,24,12,24,206,85,165,154,61,101,169,69,197,0,
2,1774545467280,540,-143,10260,371406,-37873,-61086,0,0,0,529,491,191,448,494,387,535,275,322,441,291,498,0,
1,1774545467296,-23,-12036,25407,-5998696,-2324953,-1077566,0,0,0,31,17,21,217,87,168,168,63,96,175,66,188,0,
2,1774545467296,555,-215,10284,412944,-42760,-72082,0,0,0,557,471,192,477,540,429,485,220,285,376,209,550,0,
1,1774545467312,2215,-18171,25963,-5626068,-2623055,-1784948,0,0,0,35,17,16,199,89,158,174,73,104,174,75,187,0,
2,1774545467312,550,-287,10361,454483,-54977,-83077,0,0,0,568,465,204,480,552,454,456,202,283,304,142,597,0,
1,1774545467328,3517,-24905,24149,-5820323,-2313957,-2156354,0,0,0,26,16,16,191,104,148,187,91,110,181,95,187,0,
2,1774545467328,655,-358,10624,520457,-35430,-98960,0,0,0,591,470,219,494,560,478,417,211,278,273,118,614,0,
1,1774545467344,1560,-33811,18650,-5853310,-1955990,-1784948,0,0,0,19,20,20,188,116,156,194,101,120,185,109,198,0,
2,1774545467344,1072,-516,11323,691499,19547,-162490,0,0,0,612,476,193,496,571,484,370,174,250,256,111,624,0,
1,1774545467360,-43,-40574,12591,-4668232,-1903456,-818559,0,0,0,16,14,20,190,105,159,211,142,127,191,132,198,0,
2,1774545467360,1306,-507,12825,1093448,138055,-306654,0,0,0,630,495,161,479,573,472,345,144,233,225,103,640,0,
1,1774545467376,3144,-46130,10466,-2340835,-1937664,467922,0,0,0,27,4,20,189,82,132,262,229,128,225,190,164,0,
2,1774545467376,827,-239,14113,1617571,204028,-395840,0,0,0,662,507,151,466,557,456,309,153,225,177,85,649,0,
1,1774545467392,12266,-43153,12663,1103222,-1249830,753807,0,0,0,73,24,34,149,79,104,298,305,133,282,274,128,0,
2,1774545467392,732,-172,14859,2232101,-83077,-365297,0,0,0,694,494,158,461,523,446,249,173,219,132,62,645,0,
1,1774545467408,10327,-15204,11289,4406781,339641,261450,0,0,0,90,49,41,159,105,108,311,384,105,348,382,128,0,
2,1774545467408,1359,-224,15994,2904053,-470366,-351858,0,0,0,681,487,172,439,483,432,238,179,241,92,43,634,0,
1,1774545467424,938,3771,15348,5692042,1287703,348193,0,0,0,7,8,4,191,180,156,413,432,136,485,458,186,0,
2,1774545467424,2809,-325,17769,3942524,-840550,-515570,0,0,0,637,476,164,431,477,423,201,139,215,46,18,580,0,
1,1774545467440,-3149,2244,20909,5261993,1125213,554665,0,0,0,122,47,70,180,86,172,445,435,154,505,488,209,0,
2,1774545467440,4029,-320,19578,5045746,-1200961,-808785,0,0,0,558,472,129,435,514,427,208,162,203,120,80,537,0,
1,1774545467456,-1421,-4766,21459,3495370,397062,344527,0,0,0,47,3,29,216,84,177,523,409,166,540,440,233,0,
2,1774545467456,5317,-258,22900,6312681,-1806939,-1205847,0,0,0,485,464,126,422,498,376,198,120,153,122,49,494,0,
1,1774545467472,-143,-3479,15970,1684766,-36651,-31764,0,0,0,179,68,92,195,66,163,506,371,164,543,433,232,0,
2,1774545467472,7083,-622,28006,7428121,-2592512,-1606575,0,0,0,408,402,135,371,412,361,187,136,149,98,14,407,0,
1,1774545467488,-234,-148,10849,647517,-222354,-179594,0,0,0,73,17,36,243,97,195,535,388,166,537,436,272,0,
2,1774545467488,8561,-1660,33596,8318762,-3241250,-2010968,0,0,0,329,269,122,313,316,266,187,103,146,98,37,309,0,
1,1774545467504,-794,952,9121,474031,-263893,-102625,0,0,0,84,14,32,265,92,202,544,383,156,544,422,257,0,
2,1774545467504,8959,1148,32395,9005375,-3126408,-2387261,0,0,0,270,213,133,318,298,287,202,107,137,121,61,278,0,
1,1774545467520,-899,157,9825,489913,-266337,-23212,0,0,0,198,63,92,253,81,207,562,363,165,539,381,275,0,
2,1774545467520,9294,8997,23483,9326690,-2513099,-2724458,0,0,0,248,199,132,299,287,262,187,147,127,141,87,252,0,
1,1774545467536,-751,-138,10476,419053,-254119,-6108,0,0,0,149,42,73,275,93,224,603,369,198,534,353,292,0,
2,1774545467536,9308,16214,10911,8664512,-1629788,-3193603,0,0,0,245,199,137,288,277,236,184,152,125,119,75,251,0,
1,1774545467552,-751,100,10327,373849,-250454,-1221,0,0,0,80,11,38,299,101,246,646,369,212,522,342,290,0,
2,1774545467552,6546,18736,8279,4686558,618195,-3538131,0,0,0,250,198,132,284,265,213,202,138,119,112,65,237,0,
1,1774545467568,-842,134,10107,389732,-250454,9773,0,0,0,147,34,63,305,89,262,668,345,210,502,332,300,0,
2,1774545467568,-244,18401,11289,-1094670,2759889,-3123964,0,0,0,253,194,124,225,228,192,188,111,94,126,70,222,0,
1,1774545467584,-899,9,10155,392175,-234572,19547,0,0,0,193,52,88,314,77,263,672,315,235,485,307,317,0,
2,1774545467584,-3531,12481,10141,-3761708,2065946,-1563815,0,0,0,248,191,124,189,213,195,153,80,89,121,67,227,0,
1,1774545467600,-894,-76,10193,355523,-197920,23212,0,0,0,180,52,95,303,70,246,662,280,257,458,261,320,0,
2,1774545467600,-2043,8399,6044,-3694512,966388,-182037,0,0,0,243,190,118,301,282,218,177,99,125,118,65,217,0,
1,1774545467616,-918,-110,10083,316428,-168598,24434,0,0,0,194,43,64,324,83,232,649,276,253,427,244,333,0,
2,1774545467616,248,7188,4053,-3120299,659734,701273,0,0,0,249,191,120,300,299,237,192,130,117,130,72,224,0,
1,1774545467632,-990,-148,9959,287106,-135612,30543,0,0,0,92,0,29,335,86,258,623,208,320,401,146,348,0,
2,1774545467632,899,7169,5522,-3400075,1001818,1186300,0,0,0,239,197,121,284,292,218,213,129,120,126,73,220,0,
1,1774545467648,-1009,-205,9911,262672,-91629,37873,0,0,0,50,0,19,343,88,275,629,207,317,381,157,348,0,
2,1774545467648,1033,6843,7437,-4002389,1277930,1488067,0,0,0,235,202,127,303,311,231,193,128,124,118,71,226,0,
1,1774545467664,-981,-248,9892,229685,-54977,43982,0,0,0,141,36,67,316,85,259,631,180,300,349,150,348,0,
2,1774545467664,1483,5628,8935,-4637688,1499063,1594358,0,0,0,233,194,107,264,272,183,176,108,124,122,83,220,0,
1,1774545467680,-923,-287,9906,190589,-32986,43982,0,0,0,129,26,51,307,79,244,646,144,302,358,130,349,0,
2,1774545467680,1943,3919,10610,-5279097,1737300,1549154,0,0,0,243,191,110,305,290,220,194,93,100,100,34,201,0,
1,1774545467696,-894,-311,9930,163711,-28099,39095,0,0,0,151,34,61,324,75,253,641,158,309,365,141,351,0,
2,1774545467696,2258,2115,12395,-5812993,1825265,1361007,0,0,0,248,188,116,303,288,212,202,86,115,137,58,215,0,
1,1774545467712,-904,-320,9954,155159,-29321,32986,0,0,0,161,35,66,331,79,254,631,141,309,348,118,335,0,
2,1774545467712,2823,349,14103,-6167295,1709200,1059240,0,0,0,246,179,119,289,269,196,206,97,88,145,69,218,0,
1,1774545467728,-933,-330,9968,152716,-24434,31764,0,0,0,142,30,60,327,83,265,618,141,319,324,100,335,0,
2,1774545467728,3359,-741,15458,-6299242,1662775,814894,0,0,0,241,176,117,280,258,200,196,98,98,132,64,220,0,
1,1774545467744,-947,-354,9968,149051,-4886,35430,0,0,0,139,37,60,319,85,282,625,135,329,319,99,355,0,
2,1774545467744,3642,-1287,17080,-6329785,1766622,731816,0,0,0,240,175,116,271,249,196,201,114,129,118,67,222,0,
1,1774545467760,-933,-382,9944,142942,14660,41538,0,0,0,171,60,79,317,88,288,637,137,324,320,99,373,0,
2,1774545467760,4216,-2301,19148,-6352998,1957212,810007,0,0,0,242,176,123,271,251,194,204,125,142,109,68,242,0,
1,1774545467776,-914,-416,9916,118507,39095,45204,0,0,0,211,79,102,333,95,295,632,152,323,327,97,393,0,
2,1774545467776,5441,-4450,21526,-6157521,2313957,992045,0,0,0,242,178,136,281,262,212,191,111,136,114,67,272,0,
1,1774545467792,-904,-435,9887,75747,70860,47647,0,0,0,206,68,97,355,98,315,622,132,334,340,95,429,0,
2,1774545467792,6250,-7408,24431,-5483126,2849075,1235169,0,0,0,245,180,142,290,268,229,184,96,119,123,77,277,0,
1,1774545467808,-894,-435,9887,41538,103847,53756,0,0,0,158,54,73,371,107,336,607,130,332,327,107,455,0,
2,1774545467808,5690,-10413,26111,-5060407,3026226,1551597,0,0,0,245,191,136,288,278,229,193,102,116,112,72,267,0,
1,1774545467824,-861,-406,10064,67195,119729,63529,0,0,0,178,115,87,396,172,356,599,151,343,316,122,460,0,
2,1774545467824,3766,-15577,24891,-5205793,3015230,1881464,0,0,0,245,198,142,306,304,244,196,135,124,107,65,262,0,
1,1774545467840,-794,-406,10284,119729,127059,73303,0,0,0,222,126,89,423,186,397,597,132,336,326,110,474,0,
2,1774545467840,-536,-22574,22100,-5167919,3435506,1949881,0,0,0,249,209,142,279,283,226,244,133,182,128,77,274,0,
1,1774545467856,-756,-416,10461,184481,117286,75747,0,0,0,292,167,103,384,208,440,564,117,363,283,111,513,0,
2,1774545467856,-6465,-29073,18908,-4389677,3544240,1566258,0,0,0,246,202,143,271,270,227,226,121,149,120,70,274,0,
1,1774545467872,-923,-425,10614,283441,63529,91629,0,0,0,192,130,69,386,256,460,529,138,363,268,138,544,0,
2,1774545467872,-8729,-33060,14185,-2835636,2031737,580321,0,0,0,249,202,142,292,288,249,213,86,111,113,77,268,0,
1,1774545467888,-1100,-469,10815,438601,-15882,149051,0,0,0,158,108,60,409,257,501,467,130,331,271,127,575,0,
2,1774545467888,-7997,-34639,10275,-1249830,712268,-616973,0,0,0,247,203,143,295,286,245,216,138,142,50,30,253,0,
1,1774545467904,-971,-516,11380,675616,-68416,212581,0,0,0,169,122,56,407,280,481,394,146,320,274,141,595,0,
2,1774545467904,-9097,-33390,9710,111177,670730,-1364672,0,0,0,205,190,109,300,285,244,239,170,134,146,103,213,0,
1,1774545467920,-1086,-550,12912,1092227,-100181,241902,0,0,0,209,144,73,408,287,509,335,135,297,273,152,578,0,
2,1774545467920,-11160,-24785,14189,1573588,293215,-851546,0,0,0,175,145,90,288,250,197,322,245,134,240,265,173,0,
1,1774545467936,-1225,-607,13744,1650557,-155159,305432,0,0,0,224,158,78,393,286,507,295,117,292,285,163,570,0,
2,1774545467936,-5781,-1722,18841,3016452,-2212553,808785,0,0,0,168,134,81,300,254,201,374,328,146,301,405,164,0,
1,1774545467952,-660,-569,14022,2157576,-20769,328645,0,0,0,210,154,68,391,286,493,237,99,291,297,157,580,0,
2,1774545467952,-488,11557,12548,4148996,-4737870,2603507,0,0,0,187,148,72,316,277,217,425,430,149,402,507,168,0,
1,1774545467968,-263,-469,15180,2761110,213802,268780,0,0,0,198,142,61,403,282,486,174,78,273,287,139,567,0,
2,1774545467968,-5096,5226,11155,5294979,-3915646,3111747,0,0,0,235,169,86,319,285,218,512,510,157,529,586,201,0,
1,1774545467984,-856,-201,17659,3677408,339641,212581,0,0,0,182,145,62,382,284,470,146,68,257,257,137,510,0,
2,1774545467984,-10715,-5302,17544,5354844,-1324355,1656666,0,0,0,284,196,119,324,286,247,582,528,195,609,617,269,0,
1,1774545468000,-1086,287,21282,5084842,386066,279776,0,0,0,140,157,66,333,292,464,131,78,251,216,143,435,0,
2,1774545468000,-4039,-4426,20555,3896098,-23212,-244346,0,0,0,309,203,132,322,280,284,604,552,232,646,588,307,0,
1,1774545468016,-162,717,27537,6812369,439822,304210,0,0,0,147,131,73,277,239,396,126,89,228,190,140,398,0,
2,1774545468016,2488,-1019,16755,2136806,189368,-537561,0,0,0,335,228,142,304,269,280,588,553,200,651,591,286,0,
1,1774545468032,1239,641,35568,8653516,458148,151494,0,0,0,95,54,66,238,189,323,132,85,219,187,124,390,0,
2,1774545468032,2057,-349,12132,1154535,17104,-14660,0,0,0,366,253,167,304,266,256,599,583,209,657,583,266,0,
1,1774545468048,-990,363,39736,10059728,153938,-134390,0,0,0,63,27,58,182,91,229,225,60,165,175,74,300,0,
2,1774545468048,435,-559,9925,646295,-116064,202807,0,0,0,387,285,180,325,282,258,610,588,220,679,585,275,0,
1,1774545468064,-4675,4355,38951,10698693,-598647,-78190,0,0,0,106,43,77,150,58,149,168,69,115,171,66,198,0,
2,1774545468064,100,-684,10198,432492,-164933,61086,0,0,0,408,318,193,346,298,261,622,594,231,701,587,284,0,
1,1774545468080,-5527,15721,27250,10530094,-959058,547335,0,0,0,151,47,94,180,57,142,210,66,109,208,66,190,0,
2,1774545468080,593,-335,10504,201585,-204028,-25656,0,0,0,409,352,189,347,307,275,593,550,184,711,604,309,0,
1,1774545468096,-4393,22038,8389,7853283,652404,1849699,0,0,0,141,48,96,167,56,140,172,60,106,182,59,189,0,
2,1774545468096,665,-43,10404,89186,-226020,-17104,0,0,0,414,343,196,364,326,319,604,527,219,708,579,328,0,
1,1774545468112,-3374,18669,8370,2908940,2053728,3095865,0,0,0,64,19,49,172,64,152,159,65,114,177,68,197,0,
2,1774545468112,459,9,10198,125838,-199142,3665,0,0,0,416,347,206,357,341,305,595,504,238,688,560,325,0,
1,1774545468128,-2794,13026,12955,-1359786,1457524,3810577,0,0,0,25,1,18,178,71,156,166,82,124,190,81,212,0,
2,1774545468128,421,-81,10150,184481,-156381,-6108,0,0,0,422,353,193,348,337,286,566,451,219,664,521,311,0,
1,1774545468144,-1488,9188,10748,-3086091,63529,3921754,0,0,0,35,3,23,177,71,155,173,90,124,197,84,216,0,
2,1774545468144,483,-153,10136,184481,-139277,-15882,0,0,0,442,357,200,345,325,276,545,417,202,645,493,309,0,
1,1774545468160,545,7575,5666,-3079982,-700051,3486818,0,0,0,38,8,29,176,69,156,178,81,120,196,80,211,0,
2,1774545468160,502,-172,10021,135612,-129503,-10995,0,0,0,447,356,199,336,323,263,519,389,197,615,477,310,0,
1,1774545468176,1938,6556,4321,-3508809,-392175,2638937,0,0,0,31,13,26,171,69,155,174,72,120,192,78,212,0,
2,1774545468176,512,-196,9916,86742,-130725,-9773,0,0,0,442,356,175,337,318,254,502,356,198,595,463,316,0,
1,1774545468192,1718,5752,5345,-4190535,-63529,1778839,0,0,0,34,14,25,171,67,156,174,70,121,193,76,214,0,
2,1774545468192,473,-157,9920,90408,-150272,-21991,0,0,0,460,367,181,355,323,268,498,347,210,592,451,338,0,
1,1774545468208,775,5245,6484,-4698775,-74525,922406,0,0,0,36,12,23,168,60,150,177,71,119,198,76,215,0,
2,1774545468208,411,-114,9949,131946,-163711,-34208,0,0,0,488,384,215,368,366,304,470,336,220,562,425,351,0,
1,1774545468224,138,5144,7346,-5065294,-351858,124616,0,0,0,29,10,22,168,66,148,179,73,119,197,79,210,0,
2,1774545468224,354,-138,9978,188146,-150272,-39095,0,0,0,484,376,183,379,386,314,486,323,228,534,395,352,0,
1,1774545468240,-100,4958,8504,-5540547,-643851,-540004,0,0,0,35,6,24,173,59,164,186,67,132,198,77,234,0,
2,1774545468240,349,-191,10016,228463,-124616,-40317,0,0,0,517,394,193,375,400,305,469,244,239,530,359,367,0,
1,1774545468256,-311,4182,10016,-6039013,-884532,-935845,0,0,0,33,11,32,171,66,191,172,67,152,189,72,253,0,
2,1774545468256,402,-263,10074,260228,-107512,-42760,0,0,0,527,415,198,381,411,320,472,230,204,497,326,392,0,
1,1774545468272,-445,3125,11792,-6398202,-1105666,-1121548,0,0,0,30,2,23,171,67,160,179,68,127,198,77,227,0,
2,1774545468272,464,-320,10131,293215,-125838,-56199,0,0,0,543,426,210,392,412,321,442,165,211,480,247,429,0,
1,1774545468288,-129,2244,14041,-6626666,-1209513,-1104444,0,0,0,31,1,16,182,66,153,194,69,116,207,74,219,0,
2,1774545468288,430,-354,10131,335975,-162490,-75747,0,0,0,559,450,204,506,481,350,455,197,234,455,209,466,0,
1,1774545468304,354,1804,16750,-6963863,-1053131,-999375,0,0,0,34,0,15,201,61,154,215,63,119,218,68,215,0,
2,1774545468304,402,-397,10131,375071,-180816,-91629,0,0,0,587,459,212,464,463,347,409,157,209,433,174,492,0,
1,1774545468320,167,832,19655,-7345043,-944397,-873537,0,0,0,31,8,20,187,65,155,193,73,119,192,77,214,0,
2,1774545468320,469,-478,10232,416610,-185703,-114842,0,0,0,616,471,199,444,476,344,400,162,205,407,185,512,0,
1,1774545468336,-646,-2742,22952,-7392691,-1412320,-734260,0,0,0,35,6,16,190,65,157,194,70,122,192,67,230,0,
2,1774545468336,655,-641,10433,491135,-208915,-162490,0,0,0,639,487,187,467,507,372,383,175,214,362,174,550,0,
1,1774545468352,-282,-9322,26527,-6813590,-2463008,-730594,0,0,0,42,0,13,207,61,162,212,60,129,209,54,230,0,
2,1774545468352,808,-746,10725,618195,-245567,-239459,0,0,0,662,507,189,478,547,421,354,163,222,312,132,586,0,
1,1774545468368,2641,-16506,28418,-5871636,-3082425,-1071457,0,0,0,39,0,19,204,63,165,216,64,137,202,56,210,0,
2,1774545468368,966,-804,11141,836885,-285884,-327423,0,0,0,691,525,189,477,592,440,351,171,234,276,116,600,0,
1,1774545468384,4761,-23263,27580,-5406157,-2291966,-1584584,0,0,0,43,5,22,202,63,164,227,67,143,197,57,207,0,
2,1774545468384,861,-827,11916,1094670,-300545,-421497,0,0,0,712,520,195,457,561,419,311,174,223,240,101,628,0,
1,1774545468400,990,-31122,22895,-5505117,-943175,-1550375,0,0,0,74,16,32,223,58,168,238,65,136,218,57,213,0,
2,1774545468400,-464,-416,13333,1418429,-300545,-398284,0,0,0,715,519,195,426,541,450,268,158,208,176,82,659,0,
1,1774545468416,-3512,-38324,16003,-5034751,-762359,-729373,0,0,0,98,11,41,238,53,169,244,61,136,225,61,214,0,
2,1774545468416,-909,-272,14060,1882686,-282219,-259006,0,0,0,714,529,170,436,531,438,256,163,208,115,3,665,0,
1,1774545468432,-1095,-41895,11730,-3444058,-1470963,259006,0,0,0,89,17,39,225,60,170,255,84,139,232,74,214,0,
2,1774545468432,-33,-569,14079,2475225,-287106,-133168,0,0,0,714,525,179,429,533,458,167,111,161,56,26,678,0,
1,1774545468448,4039,-43029,10466,-1775174,-1444085,827111,0,0,0,38,11,31,208,79,182,265,196,170,247,159,204,0,
2,1774545468448,1038,-928,14367,3133738,-430049,-184481,0,0,0,706,517,168,421,507,459,176,126,195,78,61,649,0,
1,1774545468464,9064,-35520,13467,262672,-675616,890641,0,0,0,2,0,1,167,113,101,280,392,87,281,376,124,0,
2,1774545468464,1746,-1182,14970,3861890,-704938,-349414,0,0,0,678,508,168,415,518,471,187,159,226,104,75,608,0,
1,1774545468480,5106,-8695,10275,3227811,-180816,566882,0,0,0,14,2,8,195,107,121,387,467,106,409,519,141,0,
2,1774545468480,1971,-1148,16362,4623028,-1062905,-559552,0,0,0,611,534,151,407,536,432,181,158,174,134,75,583,0,
1,1774545468496,-1880,6293,12246,5773898,-23212,416610,0,0,0,3,0,2,204,98,153,427,531,139,495,558,188,0,
2,1774545468496,3034,-1191,19229,5573534,-1568701,-802676,0,0,0,554,524,145,407,552,410,183,148,171,124,85,536,0,
1,1774545468512,-3129,344,23105,5907066,160046,240680,0,0,0,107,36,48,200,83,159,454,530,137,537,543,204,0,
2,1774545468512,4848,-1512,25115,6780604,-2273640,-1159422,0,0,0,472,480,149,385,494,384,190,140,183,109,81,474,0,
1,1774545468528,-1206,-4647,25508,4019493,59864,56199,0,0,0,96,19,43,224,92,187,489,533,157,540,536,245,0,
2,1774545468528,5680,-2100,33921,8070751,-3165503,-1539380,0,0,0,392,380,137,362,412,347,201,109,160,121,74,401,0,
1,1774545468544,-86,-2397,16444,1442863,-282219,-125838,0,0,0,69,24,29,243,137,201,517,541,161,562,556,260,0,
2,1774545468544,6910,-2043,38511,9381668,-3893655,-1775174,0,0,0,326,258,117,330,339,288,188,84,113,128,71,307,0,
1,1774545468560,-622,1038,9198,746477,-379958,-183259,0,0,0,96,37,39,260,135,204,556,539,152,597,564,254,0,
2,1774545468560,9767,2833,33055,10179458,-3395188,-1925447,0,0,0,268,202,116,284,274,219,150,91,79,110,73,227,0,
1,1774545468576,-1115,1158,8619,685390,-261450,-150272,0,0,0,123,25,50,290,96,214,616,524,159,611,547,258,0,
2,1774545468576,11562,10681,21660,10453125,-1617571,-2395813,0,0,0,253,201,110,288,277,207,156,67,70,119,90,217,0,
1,1774545468592,-1052,119,10796,533896,-68416,-78190,0,0,0,123,25,49,312,99,218,657,506,168,606,533,261,0,
2,1774545468592,11471,10610,14572,9608910,863763,-2908940,0,0,0,256,198,107,291,281,211,170,111,100,93,75,209,0,
1,1774545468608,-847,320,10758,272445,17104,-25656,0,0,0,128,30,50,312,96,214,660,502,167,603,523,263,0,
2,1774545468608,6513,14209,12112,5380501,3889989,-2625498,0,0,0,247,194,117,299,289,214,174,120,108,116,83,219,0,
1,1774545468624,-737,741,10174,151494,35430,4886,0,0,0,201,60,73,297,91,205,667,479,163,600,492,257,0,
2,1774545468624,-1440,17942,11141,-818559,4469090,-1174082,0,0,0,251,191,114,283,250,196,180,97,119,110,63,213,0,
1,1774545468640,-679,804,10131,146607,-19547,20769,0,0,0,201,53,72,299,83,200,650,438,162,582,439,253,0,
2,1774545468640,-4513,13496,11950,-5320636,2119702,895528,0,0,0,254,192,119,298,274,245,175,88,116,54,29,221,0,
1,1774545468656,-660,732,10275,133168,-91629,34208,0,0,0,202,51,69,297,81,197,633,403,161,539,418,243,0,
2,1774545468656,-866,7049,10500,-6130643,142942,2152689,0,0,0,255,193,128,298,267,249,168,88,103,92,42,238,0,
1,1774545468672,-698,689,10232,98960,-134390,42760,0,0,0,189,50,79,283,86,205,572,367,203,507,377,267,0,
2,1774545468672,2555,4905,7714,-5750685,-8552,2362826,0,0,0,257,193,134,292,260,251,163,78,120,114,63,264,0,
1,1774545468688,-789,703,10069,80634,-94073,56199,0,0,0,189,61,80,290,102,211,519,355,153,490,387,259,0,
2,1774545468688,2751,5230,6800,-5645616,1293812,1769065,0,0,0,252,195,131,293,261,261,177,90,129,108,58,267,0,
1,1774545468704,-827,713,9978,85521,-7330,75747,0,0,0,208,54,71,320,97,215,545,314,146,488,309,258,0,
2,1774545468704,1316,5116,7968,-6006027,2370157,1089783,0,0,0,250,198,126,301,266,264,169,86,121,109,54,255,0,
1,1774545468720,-780,684,9877,105068,95294,96516,0,0,0,201,63,74,312,103,240,536,257,178,456,264,259,0,
2,1774545468720,-746,4383,10653,-6547253,2822197,417831,0,0,0,250,198,120,290,259,244,173,99,132,110,55,245,0,
1,1774545468736,-703,670,9810,130725,156381,106290,0,0,0,193,74,79,295,109,268,524,222,203,442,246,270,0,
2,1774545468736,-1517,3479,12500,-6666983,2607172,69638,0,0,0,246,195,112,277,254,221,202,134,137,119,63,239,0,
1,1774545468752,-612,641,9825,172263,173485,96516,0,0,0,136,52,56,301,124,268,523,211,188,450,231,274,0,
2,1774545468752,-1421,2483,14180,-6614448,2285857,-162490,0,0,0,242,191,107,288,263,215,205,131,110,136,84,232,0,
1,1774545468768,-540,603,9873,201585,164933,81855,0,0,0,90,41,33,323,150,258,533,223,170,448,231,276,0,
2,1774545468768,-732,1837,15620,-6620557,2233323,-213802,0,0,0,238,191,110,283,256,205,180,120,110,114,73,218,0,
1,1774545468784,-521,574,9925,212581,151494,70860,0,0,0,157,89,58,335,157,253,538,225,169,422,224,291,0,
2,1774545468784,-220,1277,17487,-6707300,2377487,-180816,0,0,0,239,189,115,290,268,235,170,113,77,115,70,235,0,
1,1774545468800,-502,531,9968,218689,142942,65973,0,0,0,229,124,88,344,146,251,537,208,175,401,198,316,0,
2,1774545468800,-62,746,19803,-6769608,2638937,10995,0,0,0,244,188,108,288,261,197,215,155,165,116,67,212,0,
1,1774545468816,-449,473,9978,221133,127059,62308,0,0,0,156,78,51,372,168,264,564,222,204,421,216,347,0,
2,1774545468816,-52,57,22656,-6753726,2776993,430049,0,0,0,236,175,100,295,261,221,190,83,92,93,56,211,0,
1,1774545468832,-435,454,10040,227241,108734,56199,0,0,0,277,133,105,354,131,267,556,170,225,416,171,371,0,
2,1774545468832,-90,-1354,25963,-6808703,2737898,990823,0,0,0,240,179,106,287,269,205,196,88,86,98,46,212,0,
1,1774545468848,-469,454,10136,239459,122173,51312,0,0,0,176,129,41,357,239,283,558,209,231,412,201,423,0,
2,1774545468848,-57,-6125,29088,-6797708,2653598,1753183,0,0,0,238,182,106,285,262,198,192,89,94,76,39,205,0,
1,1774545468864,-473,425,10232,273667,153938,54977,0,0,0,232,176,69,390,244,316,564,167,214,415,186,432,0,
2,1774545468864,-746,-13888,30318,-6403089,2955366,2361605,0,0,0,241,186,109,285,252,201,215,144,143,100,54,216,0,
1,1774545468880,-430,392,10366,340862,172263,68416,0,0,0,361,278,141,366,230,357,518,160,247,343,163,457,0,
2,1774545468880,-4010,-25886,28580,-5558873,3453832,2640159,0,0,0,241,188,105,278,247,199,222,151,156,124,69,226,0,
1,1774545468896,-306,325,10461,426383,156381,79412,0,0,0,358,297,141,386,238,395,491,156,264,331,147,526,0,
2,1774545468896,-6470,-36037,22555,-4697553,2680476,2267531,0,0,0,244,190,107,290,266,220,194,95,126,71,41,198,0,
1,1774545468912,-229,287,10691,518013,76969,73303,0,0,0,418,340,175,365,281,413,424,123,280,275,138,573,0,
2,1774545468912,-6092,-42885,15309,-3419623,1469741,1318247,0,0,0,246,190,113,300,281,230,186,72,104,42,25,184,0,
1,1774545468928,-435,277,11471,689055,-29321,84299,0,0,0,460,368,185,373,306,443,378,105,280,261,124,602,0,
2,1774545468928,-8542,-44910,11002,-1249830,1214400,-205250,0,0,0,231,177,103,284,263,192,240,114,103,166,106,220,0,
1,1774545468944,-708,277,13271,1114218,-186924,155159,0,0,0,472,394,183,389,302,453,294,110,257,267,121,629,0,
2,1774545468944,-14812,-40210,14381,883311,1111774,-1010371,0,0,0,206,157,89,300,261,195,318,179,129,275,224,203,0,
1,1774545468960,-985,378,15223,2013411,-405614,288328,0,0,0,485,441,185,396,316,468,201,103,246,267,138,625,0,
2,1774545468960,-12041,-18099,19712,3164281,-1704314,-723264,0,0,0,191,155,84,287,265,201,410,326,162,237,366,183,0,
1,1774545468976,-1139,492,15931,2868623,-195476,383623,0,0,0,497,461,190,411,345,469,163,89,248,277,158,598,0,
2,1774545468976,-780,4149,14333,4924795,-5582086,-4886,0,0,0,192,144,74,295,271,205,404,347,151,364,408,205,0,
1,1774545468992,-1115,569,15898,3654195,432492,428827,0,0,0,485,461,189,409,369,436,149,84,247,290,175,567,0,
2,1774545468992,1641,6580,12557,5921727,-5167919,983493,0,0,0,243,171,96,296,244,212,487,378,153,481,468,205,0,
1,1774545469008,-1162,732,17047,4527733,1018923,456927,0,0,0,405,431,156,373,367,408,126,90,261,287,182,521,0,
2,1774545469008,-3728,-2732,18181,5622403,-1598023,1479515,0,0,0,279,181,120,258,205,229,534,437,190,437,426,251,0,
1,1774545469024,-1584,1110,19612,5690820,1380555,526565,0,0,0,255,294,85,356,320,416,142,95,298,281,167,468,0,
2,1774545469024,-4058,-4953,20473,3843564,-160046,585208,0,0,0,315,189,128,277,215,237,525,445,192,532,504,310,0,
1,1774545469040,-2292,1450,22943,7071376,1734857,662177,0,0,0,200,269,89,336,316,455,143,95,283,236,156,475,0,
2,1774545469040,-698,-2440,16329,2076941,-208915,-67195,0,0,0,348,194,144,296,221,277,541,436,206,600,533,347,0,
1,1774545469056,-2043,689,32701,8669399,2711019,808785,0,0,0,145,182,96,289,256,370,147,100,203,202,148,413,0,
2,1774545469056,1043,-229,11409,988379,-299323,10995,0,0,0,392,194,162,304,215,267,576,446,203,640,516,374,0,
1,1774545469072,-1416,-861,43053,10031628,3710395,680503,0,0,0,121,131,92,204,172,298,128,93,167,158,125,329,0,
2,1774545469072,698,-86,9853,502131,-145385,151494,0,0,0,415,199,157,320,224,261,593,461,213,679,513,397,0,
1,1774545469088,-5498,660,42354,10974804,3176499,392175,0,0,0,32,33,23,187,120,161,178,92,122,159,91,200,0,
2,1774545469088,205,-598,10289,195476,-81855,83077,0,0,0,423,206,146,324,236,269,603,482,233,707,543,401,0,
1,1774545469104,-8432,11830,31552,11148290,833220,753807,0,0,0,24,23,19,203,112,169,182,84,125,184,90,196,0,
2,1774545469104,516,-205,10413,-51312,-277332,-14660,0,0,0,431,207,155,308,222,263,614,493,238,720,583,393,0,
1,1774545469120,-6283,18382,17841,10580185,-228463,1248608,0,0,0,21,11,10,207,106,171,189,85,124,182,86,189,0,
2,1774545469120,545,234,10332,-160046,-410501,-24434,0,0,0,438,206,166,313,217,271,607,488,241,735,595,399,0,
1,1774545469136,-2948,16549,7729,6675535,596204,1123992,0,0,0,29,19,20,208,105,193,187,88,146,177,86,212,0,
2,1774545469136,306,335,10289,-105068,-348193,-1221,0,0,0,450,206,159,339,244,284,613,500,240,742,587,396,0,
1,1774545469152,-2172,14051,8571,985936,1071457,786794,0,0,0,31,19,23,211,92,185,188,84,138,178,76,205,0,
2,1774545469152,162,311,10284,-31764,-217468,-1221,0,0,0,447,210,152,330,228,251,607,471,207,752,593,406,0,
1,1774545469168,-3086,10873,11060,-2671924,344527,698829,0,0,0,44,30,44,196,84,168,177,77,116,169,67,185,0,
2,1774545469168,138,315,10246,40317,-67195,-15882,0,0,0,442,237,161,327,244,268,607,486,229,727,559,382,0,
1,1774545469184,-3273,7748,9504,-3942524,-587652,728151,0,0,0,81,52,74,170,83,160,162,72,113,150,67,179,0,
2,1774545469184,205,306,10141,108734,32986,-21991,0,0,0,426,230,152,327,278,278,624,441,243,706,523,398,0,
1,1774545469200,-2129,5915,6427,-4008497,-1277930,735481,0,0,0,82,41,60,173,78,159,176,73,124,151,66,186,0,
2,1774545469200,282,253,10078,157603,84299,-26878,0,0,0,425,227,159,307,226,263,582,389,205,691,501,397,0,
1,1774545469216,-296,5508,6235,-4459316,-1448972,620639,0,0,0,28,10,25,196,77,172,196,78,135,176,67,208,0,
2,1774545469216,349,181,10045,162490,84299,-32986,0,0,0,425,213,190,312,235,277,564,376,207,672,474,384,0,
1,1774545469232,885,5072,7173,-5101946,-1434311,448375,0,0,0,25,0,16,198,79,170,188,74,127,187,69,212,0,
2,1774545469232,382,157,9987,136833,70860,-43982,0,0,0,401,209,162,306,240,261,574,373,234,650,456,381,0,
1,1774545469248,1129,4230,8643,-5803219,-1369559,196698,0,0,0,23,0,17,193,75,171,190,72,130,192,67,218,0,
2,1774545469248,406,186,9940,107512,58643,-56199,0,0,0,391,209,155,309,246,261,570,355,221,641,436,378,0,
1,1774545469264,655,3407,10126,-6239377,-1444085,-41538,0,0,0,41,2,18,248,72,163,249,63,121,243,64,217,0,
2,1774545469264,430,229,9911,114842,39095,-57421,0,0,0,393,209,151,326,249,267,560,339,209,636,426,361,0,
1,1774545469280,406,2818,11677,-6581462,-1560149,-213802,0,0,0,42,19,26,216,77,160,194,76,119,204,72,210,0,
2,1774545469280,421,234,9887,144164,19547,-47647,0,0,0,386,207,140,326,248,265,558,329,211,612,418,362,0,
1,1774545469296,320,2211,13496,-6996850,-1627344,-320093,0,0,0,33,15,23,214,71,150,222,75,136,193,63,195,0,
2,1774545469296,382,186,9901,190589,15882,-35430,0,0,0,380,202,143,321,252,274,563,333,219,583,399,396,0,
1,1774545469312,-57,1095,15979,-7528303,-1665218,-382401,0,0,0,38,19,19,172,73,144,205,79,141,158,63,186,0,
2,1774545469312,382,124,9949,230907,24434,-32986,0,0,0,385,201,150,345,262,301,571,355,247,568,387,416,0,
1,1774545469328,-440,-358,18640,-7883826,-1739744,-448375,0,0,0,32,10,21,167,79,168,207,103,166,152,82,216,0,
2,1774545469328,430,62,10016,265115,28099,-34208,0,0,0,375,216,141,356,289,318,572,346,252,537,377,413,0,
1,1774545469344,-536,-2340,21761,-8026769,-1809382,-607200,0,0,0,35,10,21,177,69,174,214,84,177,162,63,240,0,
2,1774545469344,469,9,9997,298102,8552,-35430,0,0,0,399,231,132,374,326,339,611,251,259,523,313,445,0,
1,1774545469360,-842,-5886,24934,-7995004,-1833817,-928515,0,0,0,25,5,24,186,61,188,221,70,189,171,51,260,0,
2,1774545469360,478,-19,9930,334754,-8552,-36651,0,0,0,413,272,155,407,365,394,593,217,283,501,283,470,0,
1,1774545469376,-1459,-11328,27719,-7656584,-2140471,-1303586,0,0,0,30,10,24,192,63,174,230,74,177,180,55,235,0,
2,1774545469376,492,-38,10035,390953,-19547,-45204,0,0,0,462,299,148,468,408,442,631,169,278,479,198,517,0,
1,1774545469392,-378,-18746,29236,-6736621,-2715906,-1827708,0,0,0,56,15,31,198,65,149,245,74,160,186,55,203,0,
2,1774545469392,497,-76,10270,459370,-29321,-53756,0,0,0,494,354,150,447,451,457,619,202,304,468,194,581,0,
1,1774545469408,2019,-25427,28078,-6186843,-2535090,-2360383,0,0,0,79,14,44,203,64,142,261,71,156,192,53,193,0,
2,1774545469408,440,-114,10571,531452,-14660,-57421,0,0,0,528,370,151,471,483,479,601,184,307,391,161,605,0,
1,1774545469424,775,-32701,22742,-6246707,-1336573,-2632829,0,0,0,94,22,50,198,64,135,264,71,146,193,53,178,0,
2,1774545469424,402,-153,10926,625526,50090,-48869,0,0,0,571,397,152,501,496,508,556,163,336,301,130,644,0,
1,1774545469440,-6073,-40660,14821,-5315749,-912632,-1621236,0,0,0,90,22,56,176,65,136,243,75,151,174,55,182,0,
2,1774545469440,421,-239,11194,728151,139277,-31764,0,0,0,595,418,165,506,511,527,482,160,339,220,103,679,0,
1,1774545469456,-6910,-45953,9925,-3271794,-2350609,349414,0,0,0,87,24,56,170,65,135,228,74,147,165,56,177,0,
2,1774545469456,368,-378,11658,869872,244346,-14660,0,0,0,618,428,176,511,535,545,415,178,324,165,80,700,0,
1,1774545469472,4000,-45900,9217,-768468,-4670675,2334726,0,0,0,104,30,55,195,63,134,244,74,148,180,55,176,0,
2,1774545469472,904,-492,13237,1280373,420275,-30543,0,0,0,635,437,190,515,542,558,346,175,310,128,52,712,0,
1,1774545469488,15970,-38674,10839,1018923,-3824016,2327396,0,0,0,89,19,54,195,57,133,259,67,145,190,52,176,0,
2,1774545469488,1651,-325,15223,2019520,566882,-173485,0,0,0,638,452,211,498,525,552,274,151,294,91,16,715,0,
1,1774545469504,17228,-28485,13510,2306627,-477696,1177748,0,0,0,10,2,6,147,91,103,284,299,126,183,213,117,0,
2,1774545469504,1450,38,16362,2970026,320093,-344527,0,0,0,648,464,203,474,506,531,252,167,278,77,5,703,0,
1,1774545469520,5599,-3531,19344,3166725,3351206,-498466,0,0,0,0,0,0,149,104,91,288,401,96,238,294,108,0,
2,1774545469520,1335,-14,16467,3824016,-295658,-371406,0,0,0,642,448,176,435,482,499,240,138,241,115,31,680,0,
1,1774545469536,-4034,26427,14008,3552792,4098905,-1514945,0,0,0,0,0,0,182,101,102,370,467,104,358,367,132,0,
2,1774545469536,1751,0,17664,4715879,-731816,-404392,0,0,0,618,439,175,419,482,479,228,162,254,143,98,648,0,
1,1774545469552,-1727,20019,9399,4779409,3037221,-2106263,0,0,0,0,0,0,197,121,128,431,490,135,448,435,163,0,
2,1774545469552,2871,47,19928,5777563,-1125213,-547335,0,0,0,522,435,158,429,482,463,193,117,205,139,74,574,0,
1,1774545469568,7063,-3814,17774,5254662,1323134,-1485624,0,0,0,18,10,7,199,123,151,444,491,151,480,469,196,0,
2,1774545469568,3905,57,24192,6885672,-1712866,-778242,0,0,0,476,379,153,434,463,426,189,132,164,122,56,497,0,
1,1774545469584,6369,-8418,22330,3784921,-39095,-58643,0,0,0,76,29,22,203,105,161,472,473,157,499,474,220,0,
2,1774545469584,5518,-172,31150,8152607,-2580294,-1047023,0,0,0,410,307,143,393,367,389,176,106,146,115,44,413,0,
1,1774545469600,-1014,-1172,17315,1875356,-425162,508239,0,0,0,104,36,30,235,106,173,530,446,157,522,470,246,0,
2,1774545469600,6322,-368,35108,9357233,-3182607,-1249830,0,0,0,315,235,128,325,284,309,142,81,123,112,46,312,0,
1,1774545469616,-1904,612,11773,878424,-255341,64751,0,0,0,73,25,29,284,123,208,573,439,160,535,453,284,0,
2,1774545469616,7738,1804,34357,10257649,-2729345,-1320690,0,0,0,269,208,129,290,267,281,161,78,143,116,60,275,0,
1,1774545469632,-425,-4,9715,535117,-215024,-166155,0,0,0,109,44,50,291,121,244,588,440,184,531,418,303,0,
2,1774545469632,9581,10461,26441,10549642,-792903,-1583362,0,0,0,265,210,126,289,280,261,168,91,124,121,76,263,0,
1,1774545469648,110,-454,10035,486248,-262672,-79412,0,0,0,220,111,97,288,110,236,612,429,189,542,414,317,0,
2,1774545469648,9791,16865,14563,9368229,708603,-2070833,0,0,0,265,220,118,288,284,237,154,101,73,119,87,249,0,
1,1774545469664,-540,4,10299,426383,-191811,18325,0,0,0,97,38,43,309,139,254,587,405,199,520,414,319,0,
2,1774545469664,6925,19459,8939,4816061,1160643,-2312735,0,0,0,257,219,114,281,276,224,153,98,64,113,84,238,0,
1,1774545469680,-713,215,10227,370184,-102625,24434,0,0,0,139,55,55,312,134,271,613,364,222,504,359,350,0,
2,1774545469680,1876,17894,12146,-1606575,686612,-1740965,0,0,0,254,201,112,282,267,217,155,90,89,113,69,232,0,
1,1774545469696,-497,81,10212,350636,-86742,6108,0,0,0,182,72,68,315,129,288,639,324,245,488,305,382,0,
2,1774545469696,478,12203,13218,-4836830,-200363,-926071,0,0,0,258,201,112,280,269,222,150,100,87,116,71,240,0,
1,1774545469712,-416,-19,10284,337197,-103847,9773,0,0,0,112,39,45,333,140,300,617,326,259,447,266,406,0,
2,1774545469712,2536,8451,8844,-4603480,-219911,-601091,0,0,0,263,215,124,282,279,230,157,115,105,121,82,254,0,
1,1774545469728,-464,-43,10303,318871,-133168,24434,0,0,0,97,34,42,357,147,299,607,300,254,433,248,427,0,
2,1774545469728,2823,7662,5781,-4289495,679282,-601091,0,0,0,263,204,130,285,264,223,174,108,102,116,67,259,0,
1,1774545469744,-531,-52,10217,298102,-155159,31764,0,0,0,98,38,49,360,140,290,606,295,274,425,227,430,0,
2,1774545469744,449,7992,6317,-4739092,1706757,-596204,0,0,0,269,204,135,311,260,231,169,87,87,112,64,243,0,
1,1774545469760,-569,-105,10107,283441,-156381,31764,0,0,0,103,39,46,371,141,297,595,233,259,393,178,429,0,
2,1774545469760,-1158,7212,8408,-5546656,1626123,-348193,0,0,0,255,200,119,279,252,223,171,94,108,119,65,237,0,
1,1774545469776,-583,-162,10016,276111,-144164,32986,0,0,0,106,39,45,364,144,311,577,180,253,378,148,426,0,
2,1774545469776,-737,6121,10050,-6150191,1197295,-69638,0,0,0,245,188,109,293,267,232,176,87,102,122,66,247,0,
1,1774545469792,-612,-234,9906,256563,-112399,35430,0,0,0,133,53,56,366,142,313,565,156,256,378,146,435,0,
2,1774545469792,727,5058,11476,-6527705,1026253,171042,0,0,0,246,185,112,299,266,227,158,92,114,114,67,242,0,
1,1774545469808,-617,-296,9806,199142,-61086,35430,0,0,0,199,94,88,367,132,313,537,139,269,372,136,447,0,
2,1774545469808,1584,4072,13371,-6817256,1362229,403171,0,0,0,245,183,123,252,236,219,182,125,119,115,59,251,0,
1,1774545469824,-603,-325,9806,146607,-21991,36651,0,0,0,213,105,97,353,128,319,510,135,280,363,123,459,0,
2,1774545469824,1876,3024,15716,-7147123,1668883,613308,0,0,0,245,184,132,259,243,212,193,117,122,115,53,262,0,
1,1774545469840,-564,-330,9882,112399,4886,42760,0,0,0,134,54,49,367,148,325,519,146,258,354,136,494,0,
2,1774545469840,2603,1622,18535,-7545407,1715309,755029,0,0,0,245,186,131,311,265,208,190,97,116,111,52,256,0,
1,1774545469856,-555,-320,10016,116064,17104,51312,0,0,0,203,114,83,341,147,349,474,142,273,302,110,492,0,
2,1774545469856,3594,358,21249,-7853283,1815491,813672,0,0,0,239,182,130,316,257,213,187,119,111,106,49,242,0,
1,1774545469872,-555,-320,10131,142942,25656,58643,0,0,0,139,68,57,360,204,350,482,148,288,309,142,520,0,
2,1774545469872,4245,-780,24766,-8043873,2131919,871093,0,0,0,236,177,130,274,239,215,180,134,115,99,46,235,0,
1,1774545469888,-564,-344,10160,168598,28099,67195,0,0,0,131,112,51,377,307,380,489,162,301,295,156,527,0,
2,1774545469888,4268,-3086,29935,-8073194,2394591,1150870,0,0,0,238,181,121,272,242,207,182,92,119,97,45,228,0,
1,1774545469904,-603,-392,10136,201585,17104,84299,0,0,0,173,111,60,415,270,381,468,122,309,310,129,517,0,
2,1774545469904,4804,-7901,34146,-7962017,2442239,1610240,0,0,0,231,180,123,280,254,225,198,117,113,105,51,235,0,
1,1774545469920,-631,-430,10222,263893,4886,117286,0,0,0,263,213,93,373,264,370,414,126,323,293,150,555,0,
2,1774545469920,4766,-18334,35357,-7384139,3051882,2068389,0,0,0,237,194,123,283,254,227,205,81,127,107,52,227,0,
1,1774545469936,-593,-445,10461,364075,19547,146607,0,0,0,343,294,131,370,294,405,375,130,341,278,155,560,0,
2,1774545469936,1828,-30973,32916,-6438519,4175874,2218662,0,0,0,242,194,119,286,257,227,199,102,130,110,54,225,0,
1,1774545469952,-636,-483,10748,514348,41538,163711,0,0,0,302,260,109,400,307,421,372,135,340,291,162,580,0,
2,1774545469952,-4321,-42914,25656,-5037194,4805065,1841147,0,0,0,243,188,113,271,237,212,203,105,122,116,58,228,0,
1,1774545469968,-1024,-550,11567,750142,31764,215024,0,0,0,333,306,115,405,308,409,343,138,319,311,178,588,0,
2,1774545469968,-12773,-48657,16927,-2935818,3590665,408057,0,0,0,248,187,117,281,242,211,204,87,121,114,56,224,0,
1,1774545469984,-981,-507,12974,1094670,9773,304210,0,0,0,383,359,140,382,311,405,298,143,292,314,194,581,0,
2,1774545469984,-20181,-50834,13567,-1060462,1633453,-1003040,0,0,0,198,197,108,289,270,234,233,142,149,145,96,208,0,
1,1774545470000,-363,-416,13874,1637118,35430,340862,0,0,0,365,329,132,369,331,416,258,141,274,305,209,573,0,
2,1774545470000,-22579,-47566,14663,695164,-652404,-1661553,0,0,0,179,171,86,274,248,208,290,261,130,243,257,186,0,
1,1774545470016,-435,-478,14213,2224771,173485,312763,0,0,0,364,312,121,369,360,425,195,119,261,290,212,568,0,
2,1774545470016,-5996,-8892,19545,2816088,-2658485,-1149648,0,0,0,176,150,71,266,244,196,336,328,125,319,390,181,0,
1,1774545470032,-1028,-693,14166,2746450,401949,322536,0,0,0,370,312,131,358,345,432,148,94,235,260,194,568,0,
2,1774545470032,7820,21000,12720,4250400,-3872885,-504574,0,0,0,181,156,69,289,258,211,409,428,152,352,495,189,0,
1,1774545470048,-890,-741,14907,3357315,757472,373849,0,0,0,370,341,139,350,308,385,160,89,212,274,195,534,0,
2,1774545470048,4675,9471,8911,6181956,-4294382,537561,0,0,0,196,166,72,314,267,226,502,552,164,410,587,210,0,
1,1774545470064,-1330,-603,17133,4148996,1147204,417831,0,0,0,337,303,117,305,297,431,118,92,249,238,168,501,0,
2,1774545470064,-5652,-7197,16898,6592457,-2893057,1073901,0,0,0,225,170,80,317,268,242,569,602,164,523,628,242,0,
1,1774545470080,-2029,-397,20220,5323079,1523497,555887,0,0,0,247,289,98,343,334,414,159,93,248,236,172,457,0,
2,1774545470080,-5427,-5183,21765,5100724,-1075122,329867,0,0,0,282,183,99,324,248,265,630,631,215,629,640,265,0,
1,1774545470096,-957,-382,25819,6774495,1824043,668286,0,0,0,146,178,72,337,295,373,134,86,209,229,142,427,0,
2,1774545470096,-411,-1091,20066,3329215,-172263,-156381,0,0,0,313,183,113,334,256,292,673,633,259,643,619,304,0,
1,1774545470112,167,-756,33433,8238128,2114815,583987,0,0,0,183,193,113,272,223,329,131,86,183,199,121,376,0,
2,1774545470112,1675,-277,14434,1634675,119729,-9773,0,0,0,337,186,186,307,244,316,642,611,238,642,610,319,0,
1,1774545470128,-1210,-1220,37784,9496511,2041511,326202,0,0,0,71,71,59,208,167,265,137,104,171,154,108,308,0,
2,1774545470128,296,-660,10882,895528,39095,191811,0,0,0,357,195,138,322,249,313,643,577,198,652,598,328,0,
1,1774545470144,-3680,3125,35759,10240544,1037249,393397,0,0,0,15,16,25,193,121,194,161,89,140,167,91,243,0,
2,1774545470144,-272,-545,9973,566882,-42760,151494,0,0,0,348,208,145,327,262,343,672,611,272,667,612,365,0,
1,1774545470160,-4910,13127,28355,10536203,139277,861319,0,0,0,25,16,23,200,102,188,177,79,140,181,84,227,0,
2,1774545470160,148,-272,10452,339641,-75747,10995,0,0,0,346,208,143,314,258,329,641,578,293,652,607,383,0,
1,1774545470176,-5398,17961,14917,9600358,224798,1659109,0,0,0,40,18,24,212,92,189,187,74,142,184,78,218,0,
2,1774545470176,354,-67,10528,127059,-100181,-26878,0,0,0,356,207,186,311,248,330,637,545,270,653,595,384,0,
1,1774545470192,-3321,15506,11131,5468465,140499,2447126,0,0,0,31,8,19,207,80,179,198,71,146,181,69,207,0,
2,1774545470192,248,33,10332,48869,-96516,-14660,0,0,0,373,211,202,318,256,334,651,543,268,658,597,390,0,
1,1774545470208,-28,13845,12189,185703,-191811,2601064,0,0,0,21,2,14,193,76,175,204,73,150,185,67,208,0,
2,1774545470208,172,76,10208,58643,-62308,-13439,0,0,0,365,210,177,318,262,319,670,541,277,644,567,377,0,
1,1774545470224,947,10969,11701,-3040887,-270002,1820378,0,0,0,27,5,17,189,81,173,199,74,144,188,70,212,0,
2,1774545470224,177,114,10217,90408,-29321,-21991,0,0,0,344,207,156,302,247,296,665,517,268,608,521,358,0,
1,1774545470240,62,7623,9016,-4249178,-226020,899193,0,0,0,19,2,19,181,81,177,185,76,154,159,70,215,0,
2,1774545470240,210,143,10193,142942,0,-31764,0,0,0,334,202,173,309,243,300,629,481,252,564,485,377,0,
1,1774545470256,-1043,5671,6843,-4373795,-199142,318871,0,0,0,29,12,31,178,82,195,173,76,154,168,73,233,0,
2,1774545470256,263,114,10050,182037,18325,-31764,0,0,0,330,196,191,333,259,321,610,460,244,528,448,403,0,
1,1774545470272,-1325,5001,6757,-4721988,-291993,84299,0,0,0,16,0,27,170,73,190,178,74,159,164,69,236,0,
2,1774545470272,325,86,9940,199142,20769,-34208,0,0,0,341,207,157,306,235,302,639,455,243,510,420,370,0,
1,1774545470288,-1512,4508,7441,-5204571,-474031,-2443,0,0,0,35,7,30,200,76,214,184,71,164,190,74,260,0,
2,1774545470288,349,81,9916,216246,0,-41538,0,0,0,348,209,148,332,240,318,639,400,267,495,377,375,0,
1,1774545470304,-1966,3886,8485,-5657833,-707381,12217,0,0,0,26,11,34,174,72,202,189,73,170,166,70,247,0,
2,1774545470304,320,38,9930,255341,-28099,-48869,0,0,0,344,212,149,344,255,301,627,392,260,472,361,379,0,
1,1774545470320,-2479,3091,10054,-6064670,-1003040,108734,0,0,0,23,2,24,199,67,193,201,72,170,189,66,241,0,
2,1774545470320,291,-19,9954,287106,-41538,-51312,0,0,0,348,227,165,337,293,301,662,353,275,445,299,382,0,
1,1774545470336,-2761,2273,11730,-6425080,-1302364,205250,0,0,0,41,9,24,184,63,164,193,57,139,172,53,210,0,
2,1774545470336,282,-71,9964,305432,-30543,-52534,0,0,0,337,239,168,479,353,329,612,307,253,436,278,385,0,
1,1774545470352,-2890,1229,13701,-6838025,-1563815,251676,0,0,0,146,39,74,195,58,147,202,53,124,184,50,192,0,
2,1774545470352,311,-162,9983,323758,-13439,-58643,0,0,0,348,212,184,397,290,351,639,304,278,403,255,394,0,
1,1774545470368,-3005,81,15793,-7208209,-1749518,218689,0,0,0,183,58,95,201,68,149,191,66,118,178,63,191,0,
2,1774545470368,335,-248,10002,328645,-3665,-64751,0,0,0,361,226,193,361,290,385,650,271,295,381,246,422,0,
1,1774545470384,-3091,-1095,18516,-7428121,-1948660,48869,0,0,0,152,58,90,181,70,145,174,69,116,159,64,188,0,
2,1774545470384,344,-282,10026,335975,-1221,-67195,0,0,0,372,256,174,379,347,418,671,242,299,369,245,453,0,
1,1774545470400,-3072,-2072,21636,-7491651,-2180788,-218689,0,0,0,131,51,87,169,64,140,170,60,117,160,54,186,0,
2,1774545470400,344,-301,10059,351858,-2443,-67195,0,0,0,379,265,170,380,394,433,681,194,297,354,210,466,0,
1,1774545470416,-2909,-3445,25675,-7516085,-2433687,-620639,0,0,0,137,46,83,183,68,144,175,66,119,171,55,189,0,
2,1774545470416,325,-349,10155,375071,-4886,-68416,0,0,0,407,281,180,397,411,449,687,166,329,359,173,488,0,
1,1774545470432,-2440,-6427,30107,-7652919,-2654820,-1226617,0,0,0,146,41,74,185,68,135,189,82,119,171,57,178,0,
2,1774545470432,315,-378,10327,409279,1221,-68416,0,0,0,444,315,175,436,436,478,681,146,354,347,149,521,0,
1,1774545470448,-1392,-11749,32864,-7761653,-2959031,-2083050,0,0,0,140,43,67,191,76,135,195,88,117,177,73,181,0,
2,1774545470448,287,-402,10557,483805,23212,-64751,0,0,0,465,356,175,454,482,509,663,122,373,289,127,563,0,
1,1774545470464,181,-19506,33428,-7665137,-3496592,-2834414,0,0,0,124,43,64,189,87,146,208,99,136,176,79,191,0,
2,1774545470464,244,-430,10825,604756,67195,-48869,0,0,0,497,389,188,469,517,533,643,122,409,226,107,620,0,
1,1774545470480,62,-30011,29461,-7334048,-3565009,-2913827,0,0,0,145,51,73,210,90,158,237,96,139,201,84,200,0,
2,1774545470480,301,-497,11064,703716,138055,-30543,0,0,0,566,389,173,510,506,535,585,134,377,180,68,656,0,
1,1774545470496,-3259,-42052,20813,-6135530,-3068986,-1374446,0,0,0,129,38,68,214,84,163,226,88,145,189,73,203,0,
2,1774545470496,607,-593,11696,812450,271224,-29321,0,0,0,592,415,164,494,531,499,511,186,361,132,20,682,0,
1,1774545470512,38,-50428,13491,-3839898,-3649308,1119105,0,0,0,76,29,53,184,88,163,215,88,140,182,73,194,0,
2,1774545470512,1167,-622,13361,1152091,458148,-61086,0,0,0,624,421,191,574,549,570,417,154,369,119,61,685,0,
1,1774545470528,16118,-51418,11241,-1183856,-3963293,2610838,0,0,0,51,13,24,225,82,151,242,82,133,213,68,187,0,
2,1774545470528,1450,-617,14716,1914451,555887,-150272,0,0,0,639,418,184,548,529,542,325,151,361,106,5,715,0,
1,1774545470544,26934,-45015,11629,1022588,-1419650,2141693,0,0,0,16,2,4,192,91,141,285,175,121,208,127,137,0,
2,1774545470544,1373,-569,15228,2841745,315206,-263893,0,0,0,643,471,176,524,553,518,276,163,313,91,36,724,0,
1,1774545470560,19090,-28949,15946,2532647,2937040,222354,0,0,0,0,0,0,149,116,111,290,351,97,242,290,114,0,
2,1774545470560,1167,-478,15869,3650530,-97738,-337197,0,0,0,630,469,200,513,560,547,230,141,307,88,51,711,0,
1,1774545470576,-81,9753,13481,3461162,4083023,-995710,0,0,0,18,8,9,153,121,92,305,450,85,306,431,109,0,
2,1774545470576,1115,-320,17429,4406781,-389732,-371406,0,0,0,600,477,180,495,561,510,241,125,251,113,60,637,0,
1,1774545470592,-7150,26192,5709,4757418,2919935,-1235169,0,0,0,23,11,11,174,113,101,333,481,86,366,522,104,0,
2,1774545470592,2182,-14,20401,5595525,-629191,-450818,0,0,0,533,475,165,489,585,485,211,130,211,124,78,569,0,
1,1774545470608,995,3972,11433,6987076,1396437,-1128878,0,0,0,0,0,1,184,123,127,382,517,112,445,576,137,0,
2,1774545470608,3972,244,25125,7026171,-1176526,-669508,0,0,0,471,443,165,448,578,459,179,118,179,114,88,506,0,
1,1774545470624,5216,-7331,21770,6592457,891863,-564439,0,0,0,11,4,11,202,128,174,494,519,166,544,552,201,0,
2,1774545470624,4024,172,32639,8581434,-2012190,-934623,0,0,0,400,350,149,386,469,395,176,106,149,115,71,426,0,
1,1774545470640,2115,-5762,23737,4658458,513126,136833,0,0,0,43,16,31,251,116,224,569,497,192,601,519,242,0,
2,1774545470640,4781,-569,37592,10004750,-2261423,-1017701,0,0,0,302,242,123,340,329,320,174,112,135,115,47,331,0,
1,1774545470656,-2201,-215,16534,2387261,226020,141720,0,0,0,64,16,31,290,122,242,602,509,191,598,515,286,0,
2,1774545470656,6958,1981,36228,10886840,-1159422,-1056796,0,0,0,242,213,125,290,287,273,165,104,127,89,51,258,0,
1,1774545470672,-957,-569,11361,1216843,52534,-161268,0,0,0,91,19,36,318,120,275,616,529,197,602,514,326,0,
2,1774545470672,8485,11596,28743,10998017,42760,-1519832,0,0,0,246,209,132,254,270,241,167,116,132,91,73,269,0,
1,1774545470688,191,-1124,9882,637743,-1221,-183259,0,0,0,133,59,89,301,133,280,621,504,189,602,467,339,0,
2,1774545470688,8614,15817,21129,10308961,733038,-2302961,0,0,0,245,210,116,260,259,228,192,155,159,99,80,248,0,
1,1774545470704,-52,-588,10327,445931,46425,-46425,0,0,0,103,31,50,328,127,267,620,459,182,586,461,364,0,
2,1774545470704,5522,18846,11548,5965709,933402,-2910161,0,0,0,244,221,117,292,322,268,184,139,128,116,85,253,0,
1,1774545470720,-397,-110,10437,332310,75747,17104,0,0,0,109,23,38,332,127,281,605,412,200,580,442,367,0,
2,1774545470720,1383,20583,7700,-582765,511905,-2834414,0,0,0,245,207,124,265,269,228,180,125,129,119,85,254,0,
1,1774545470736,-378,-57,10265,265115,64751,10995,0,0,0,114,24,44,332,130,301,601,404,231,548,433,407,0,
2,1774545470736,-354,15563,10533,-5182580,-329867,-2074498,0,0,0,244,201,117,255,262,219,177,128,140,116,83,247,0,
1,1774545470752,-172,-191,10222,228463,1221,1221,0,0,0,117,22,48,321,126,294,590,372,224,516,398,423,0,
2,1774545470752,1454,8901,10184,-5911953,-731816,-1414763,0,0,0,257,201,116,289,283,247,162,91,126,106,72,241,0,
1,1774545470768,-153,-210,10303,252898,-97738,12217,0,0,0,147,38,56,334,137,297,579,350,223,517,354,410,0,
2,1774545470768,3177,5910,7360,-5429370,-291993,-1164309,0,0,0,248,203,121,291,274,242,154,89,78,109,78,247,0,
1,1774545470784,-234,-220,10270,304210,-156381,23212,0,0,0,160,41,57,339,133,318,563,276,234,469,262,417,0,
2,1774545470784,3158,5924,5786,-4977329,866206,-1128878,0,0,0,243,202,118,291,269,240,176,104,100,118,81,249,0,
1,1774545470800,-311,-277,10141,333532,-173485,26878,0,0,0,153,36,54,327,127,326,538,233,248,401,209,437,0,
2,1774545470800,1206,6226,7437,-5149593,2171015,-866206,0,0,0,239,195,114,292,272,242,189,106,114,114,73,245,0,
1,1774545470816,-387,-354,10045,342084,-163711,35430,0,0,0,156,42,56,315,141,315,528,263,257,375,219,447,0,
2,1774545470816,-191,5843,9978,-5798332,2433687,-414166,0,0,0,234,185,110,282,268,234,179,96,108,108,71,240,0,
1,1774545470832,-406,-411,9987,334754,-120951,48869,0,0,0,161,40,66,317,147,322,539,219,255,364,171,456,0,
2,1774545470832,-588,4919,12352,-6583905,2206445,133168,0,0,0,235,182,110,271,253,224,171,91,115,117,71,242,0,
1,1774545470848,-358,-459,9920,317649,-81855,52534,0,0,0,144,27,81,329,140,354,523,152,255,368,139,465,0,
2,1774545470848,258,3555,14295,-7263187,1827708,737925,0,0,0,237,180,119,267,240,218,176,95,108,127,57,248,0,
1,1774545470864,-349,-502,9887,282219,-56199,48869,0,0,0,118,44,45,324,149,360,497,143,247,340,123,463,0,
2,1774545470864,1349,2483,16080,-7629706,1817934,1169196,0,0,0,233,161,112,257,229,206,185,81,150,107,52,246,0,
1,1774545470880,-397,-540,9877,227241,-26878,43982,0,0,0,142,40,47,333,150,350,454,143,231,336,121,482,0,
2,1774545470880,2364,1220,18592,-7993782,1898569,1507615,0,0,0,231,154,114,287,239,219,160,87,134,12,5,203,0,
1,1774545470896,-440,-579,9916,166155,29321,43982,0,0,0,169,48,63,332,152,352,444,137,241,340,114,510,0,
2,1774545470896,2976,-148,21775,-8302880,1962099,1717753,0,0,0,246,158,114,254,227,218,144,108,105,112,47,243,0,
1,1774545470912,-454,-579,10083,141720,92851,52534,0,0,0,235,100,82,338,176,347,421,146,252,307,125,510,0,
2,1774545470912,3129,-1373,25474,-8502022,1936442,1919338,0,0,0,227,152,113,334,269,244,169,97,110,108,52,243,0,
1,1774545470928,-469,-588,10270,185703,155159,78190,0,0,0,259,172,108,323,222,361,385,138,248,280,131,518,0,
2,1774545470928,3646,-3531,29973,-8614421,1885130,2240653,0,0,0,217,145,109,280,236,216,169,73,89,112,57,247,0,
1,1774545470944,-469,-646,10370,267558,215024,118507,0,0,0,211,131,80,336,223,373,361,142,259,279,149,541,0,
2,1774545470944,5082,-8729,33759,-8514239,1992642,2598620,0,0,0,219,145,112,274,220,218,199,88,110,115,52,250,0,
1,1774545470960,-445,-722,10404,381179,267558,166155,0,0,0,214,155,73,345,250,372,355,161,272,281,167,564,0,
2,1774545470960,6523,-17860,35525,-8085412,2464230,2723237,0,0,0,229,153,112,305,233,231,244,120,132,132,37,244,0,
1,1774545470976,-248,-770,10423,527787,294437,210137,0,0,0,246,193,79,358,289,395,344,164,283,289,179,565,0,
2,1774545470976,6834,-31983,32715,-7132462,3101973,2258979,0,0,0,239,163,109,305,246,229,254,120,128,149,53,241,0,
1,1774545470992,-301,-842,10710,680503,295658,230907,0,0,0,337,248,107,348,291,417,328,154,282,302,185,569,0,
2,1774545470992,3479,-42852,24182,-5409822,3659082,996932,0,0,0,243,167,108,303,256,231,252,107,126,149,64,240,0,
1,1774545471008,-751,-933,11586,924849,295658,283441,0,0,0,375,256,113,348,282,414,319,140,259,318,192,566,0,
2,1774545471008,-6403,-47216,16180,-2873510,4252843,-654847,0,0,0,243,169,112,304,252,236,264,119,153,140,53,240,0,
1,1774545471024,-47,-741,13395,1370781,302989,357967,0,0,0,348,242,104,364,296,403,285,135,245,323,203,555,0,
2,1774545471024,-18095,-46336,14630,-921184,2805093,-1593136,0,0,0,226,169,105,288,241,223,299,164,169,181,101,232,0,
1,1774545471040,713,-540,14706,1955990,271224,321315,0,0,0,383,301,131,350,311,420,202,151,269,304,211,560,0,
2,1774545471040,-19794,-41478,16515,416610,-125838,-1726305,0,0,0,172,154,70,279,253,198,353,262,122,300,276,202,0,
1,1774545471056,311,-650,14644,2620611,339641,239459,0,0,0,331,261,98,364,330,443,154,148,266,295,204,544,0,
2,1774545471056,-6925,-15482,20918,2260201,-3221703,-1106887,0,0,0,176,150,63,276,260,199,372,448,111,341,495,205,0,
1,1774545471072,-387,-904,14285,3270572,621860,219911,0,0,0,324,257,94,358,312,411,139,95,236,313,189,523,0,
2,1774545471072,4704,10748,12447,4866152,-4378682,197920,0,0,0,213,157,70,296,251,226,449,577,168,480,573,199,0,
1,1774545471088,-703,-866,16109,3891211,1004262,280998,0,0,0,287,254,75,389,336,437,149,90,229,299,177,499,0,
2,1774545471088,1105,6657,11715,7111693,-3641978,1356120,0,0,0,246,171,77,312,261,252,527,623,178,597,666,261,0,
1,1774545471104,-1742,-531,19904,5051855,1368338,417831,0,0,0,233,267,87,351,360,423,123,90,249,240,171,470,0,
2,1774545471104,-7446,-6690,21651,7235087,-2039068,1145983,0,0,0,299,210,108,349,279,302,616,672,195,647,675,288,0,
1,1774545471120,-2593,-449,24723,6577796,1793500,674395,0,0,0,182,236,91,309,331,396,164,116,266,222,161,444,0,
2,1774545471120,-4326,-5580,24096,5210680,-829554,-23212,0,0,0,307,209,107,323,257,269,604,645,193,653,639,297,0,
1,1774545471136,-942,-804,33673,8194146,2311514,863763,0,0,0,109,145,74,246,255,337,147,103,221,168,135,384,0,
2,1774545471136,1244,-1086,18171,2765997,83077,-381179,0,0,0,330,213,133,312,266,279,604,627,219,669,626,314,0,
1,1774545471152,-191,-851,41229,9748187,2747671,608421,0,0,0,129,137,109,197,158,256,137,88,179,134,96,286,0,
2,1774545471152,1368,33,11782,1481959,334754,8552,0,0,0,345,213,216,312,260,301,640,619,256,669,604,340,0,
1,1774545471168,-4072,3096,39688,10695028,2240653,389732,0,0,0,58,49,42,180,118,189,173,92,152,148,90,227,0,
2,1774545471168,425,-330,9667,988379,239459,149051,0,0,0,351,211,244,323,267,325,667,598,295,674,589,359,0,
1,1774545471184,-7772,12596,29815,10862405,943175,862541,0,0,0,28,24,18,176,115,175,182,99,148,154,96,217,0,
2,1774545471184,358,-799,10514,810007,-28099,65973,0,0,0,368,219,270,334,274,335,680,565,299,669,570,374,0,
1,1774545471200,-8375,16659,16190,9661444,257785,1788613,0,0,0,24,23,17,183,114,181,170,94,144,150,93,214,0,
2,1774545471200,579,-569,10748,527787,-184481,18325,0,0,0,380,220,306,336,276,345,681,527,285,665,553,403,0,
1,1774545471216,-5364,15386,10007,5259549,-79412,2736676,0,0,0,15,7,12,187,107,189,167,89,145,150,88,217,0,
2,1774545471216,497,-181,10404,298102,-191811,6108,0,0,0,372,208,309,340,278,362,678,490,284,655,534,433,0,
1,1774545471232,-1206,13113,12720,-161268,-414166,2715906,0,0,0,9,2,19,182,104,200,172,90,157,158,89,231,0,
2,1774545471232,344,-28,10227,289550,-74525,-7330,0,0,0,375,207,305,359,274,362,688,450,276,621,479,434,0,
1,1774545471248,583,9930,12400,-3246137,-529009,1948660,0,0,0,7,5,22,181,106,202,164,84,156,164,87,234,0,
2,1774545471248,363,-23,10308,354301,23212,-23212,0,0,0,390,212,288,366,275,350,695,397,269,600,408,427,0,
1,1774545471264,-229,7140,7925,-3623652,-507018,868650,0,0,0,16,4,19,181,102,187,169,85,145,167,89,217,0,
2,1774545471264,454,-105,10327,408057,69638,-30543,0,0,0,372,209,262,345,256,381,683,340,305,539,384,454,0,
1,1774545471280,-660,6207,5618,-3600439,-654847,92851,0,0,0,30,18,29,192,99,200,187,82,160,179,87,232,0,
2,1774545471280,478,-181,10217,419053,92851,-35430,0,0,0,371,211,241,356,272,379,643,338,261,465,358,446,0,
1,1774545471296,-330,5848,5766,-4042706,-813672,-487470,0,0,0,6,3,14,177,102,170,165,82,137,169,93,210,0,
2,1774545471296,492,-229,10160,423940,118507,-35430,0,0,0,357,204,238,340,270,363,639,291,281,428,300,464,0,
1,1774545471312,-315,5484,7121,-4823391,-850324,-917519,0,0,0,34,19,27,185,102,178,167,84,129,172,93,222,0,
2,1774545471312,579,-306,10083,461814,122173,-30543,0,0,0,361,213,223,367,286,382,617,232,279,375,247,451,0,
1,1774545471328,-976,4891,8451,-5519778,-908967,-1114218,0,0,0,31,15,20,188,106,180,168,85,140,152,88,230,0,
2,1774545471328,650,-416,9930,487470,101403,-24434,0,0,0,359,212,217,375,279,375,646,217,315,376,234,457,0,
1,1774545471344,-1689,3977,9983,-6101322,-1177748,-1071457,0,0,0,36,13,24,256,100,188,209,78,132,219,79,235,0,
2,1774545471344,674,-531,9806,476474,72082,-20769,0,0,0,351,207,215,372,275,392,647,191,321,346,192,458,0,
1,1774545471360,-1564,2986,11658,-6519153,-1567480,-894306,0,0,0,52,25,54,198,94,196,172,73,142,178,79,241,0,
2,1774545471360,670,-579,9830,449596,63529,-20769,0,0,0,359,205,215,378,281,404,612,148,305,320,152,458,0,
1,1774545471376,-971,1842,13783,-6933320,-1813048,-640186,0,0,0,41,15,36,210,97,199,220,83,151,203,93,244,0,
2,1774545471376,698,-631,9873,437379,58643,-23212,0,0,0,367,207,211,394,288,417,615,135,313,310,130,477,0,
1,1774545471392,-751,693,15994,-7325495,-1848478,-410501,0,0,0,35,18,34,196,96,206,192,78,160,177,84,249,0,
2,1774545471392,746,-693,9920,436157,46425,-34208,0,0,0,369,213,199,412,306,442,645,160,351,299,116,510,0,
1,1774545471408,-813,-536,18640,-7640702,-1835039,-271224,0,0,0,30,20,35,178,91,191,177,76,155,156,78,231,0,
2,1774545471408,770,-741,9944,426383,6108,-42760,0,0,0,384,224,191,448,351,480,635,170,363,279,104,538,0,
1,1774545471424,-851,-1856,21947,-7826405,-1893682,-261450,0,0,0,30,21,26,173,90,174,179,81,147,153,78,209,0,
2,1774545471424,794,-804,9916,389732,-56199,-54977,0,0,0,405,253,193,479,398,511,613,139,333,264,102,565,0,
1,1774545471440,-722,-3575,25599,-7926587,-2004859,-441044,0,0,0,35,22,19,176,90,173,168,80,144,146,73,203,0,
2,1774545471440,775,-856,9901,331088,-113620,-69638,0,0,0,423,292,194,445,421,490,609,118,341,251,116,597,0,
1,1774545471456,-545,-7331,29820,-8124507,-2130697,-934623,0,0,0,36,18,18,185,91,172,171,74,138,148,71,200,0,
2,1774545471456,737,-885,9992,293215,-151494,-85521,0,0,0,459,330,220,477,471,499,610,154,380,223,116,633,0,
1,1774545471472,-205,-12840,33247,-8301658,-2395813,-1668883,0,0,0,35,21,21,185,95,163,182,77,133,162,79,198,0,
2,1774545471472,679,-899,10270,312763,-153938,-96516,0,0,0,532,365,225,546,507,557,556,213,393,158,85,657,0,
1,1774545471488,23,-20646,34395,-8349306,-2712241,-2403143,0,0,0,24,15,22,182,101,166,189,81,132,164,83,199,0,
2,1774545471488,636,-918,10748,389732,-131946,-96516,0,0,0,553,382,193,501,480,544,538,227,388,130,80,678,0,
1,1774545471504,-2962,-33270,29494,-7831292,-2700024,-2564412,0,0,0,17,0,13,187,98,164,201,88,139,164,82,196,0,
2,1774545471504,827,-985,11696,613308,-97738,-96516,0,0,0,589,395,197,492,509,538,462,227,391,94,27,700,0,
1,1774545471520,-6738,-44742,20866,-6315124,-3070208,-1439198,0,0,0,15,0,13,203,97,164,213,78,135,171,74,184,0,
2,1774545471520,1210,-1062,13208,1183856,-109955,-155159,0,0,0,612,424,189,557,543,550,395,224,363,76,43,716,0,
1,1774545471536,904,-50590,14400,-3712838,-4689001,1027475,0,0,0,22,0,10,189,97,159,210,87,135,158,83,186,0,
2,1774545471536,1048,-952,14338,1826487,-177150,-238237,0,0,0,636,430,188,492,506,544,281,188,327,69,57,725,0,
1,1774545471552,17587,-51093,12404,-1310916,-4873482,2862514,0,0,0,2,0,1,147,103,111,256,238,111,191,173,138,0,
2,1774545471552,665,-765,14773,2564412,-464257,-251676,0,0,0,654,436,187,486,526,564,250,188,297,81,53,720,0,
1,1774545471568,27188,-35505,14855,1086118,-1133765,2627942,0,0,0,0,0,0,160,149,97,316,411,94,254,347,128,0,
2,1774545471568,871,-737,15898,3309667,-686612,-268780,0,0,0,651,439,193,487,539,548,222,143,270,104,63,699,0,
1,1774545471584,13754,-3369,11117,4317595,4477642,1053131,0,0,0,0,0,0,187,149,119,334,503,91,350,466,122,0,
2,1774545471584,1316,-622,17918,4269948,-724486,-362853,0,0,0,612,445,180,460,546,513,200,123,261,117,86,649,0,
1,1774545471600,-1359,5896,14070,7238753,5645616,-373849,0,0,0,0,0,0,184,133,132,363,519,113,406,514,158,0,
2,1774545471600,1359,-239,20727,5483126,-846659,-475253,0,0,0,555,455,152,438,550,479,198,144,239,127,92,568,0,
1,1774545471616,440,-1938,23479,7573507,2984687,-784350,0,0,0,16,15,13,199,142,176,429,525,159,479,517,226,0,
2,1774545471616,1320,258,26283,6928433,-1242499,-540004,0,0,0,497,432,143,460,518,444,196,128,189,131,76,493,0,
1,1774545471632,3713,-4953,24981,5595525,315206,-85521,0,0,0,38,24,28,226,141,215,494,519,188,534,489,273,0,
2,1774545471632,2120,153,34989,8681616,-1970651,-530231,0,0,0,409,337,153,479,438,404,175,79,150,81,48,418,0,
1,1774545471648,674,-2665,19573,3611435,-287106,226020,0,0,0,52,20,29,244,134,227,536,496,191,537,465,286,0,
2,1774545471648,5206,-1009,39224,10213666,-2133141,-521678,0,0,0,310,251,145,355,326,307,121,31,106,14,9,269,0,
1,1774545471664,-1584,-516,12945,2036624,-58643,-76969,0,0,0,60,17,23,262,143,235,563,483,194,531,464,305,0,
2,1774545471664,7714,2144,37559,11144625,-1229060,-714712,0,0,0,245,240,122,281,280,247,183,115,131,86,56,245,0,
1,1774545471680,-713,-1048,10610,1064127,-193033,-186924,0,0,0,71,18,30,276,139,245,582,485,199,538,471,339,0,
2,1774545471680,7915,11931,29480,11175168,-102625,-1246165,0,0,0,245,245,129,287,306,278,195,117,107,111,79,263,0,
1,1774545471696,-354,-1067,10385,486248,-197920,-65973,0,0,0,78,32,40,279,136,273,617,480,220,552,493,335,0,
2,1774545471696,7872,17257,17903,9728639,426383,-2012190,0,0,0,240,230,119,281,301,262,146,106,136,98,76,258,0,
1,1774545471712,-483,-349,10380,215024,-45204,12217,0,0,0,78,23,43,284,133,275,624,467,234,558,465,331,0,
2,1774545471712,6518,19535,9834,4943121,707381,-2761110,0,0,0,235,216,127,276,282,241,178,109,126,101,76,251,0,
1,1774545471728,-526,62,10275,96516,18325,17104,0,0,0,90,21,26,303,137,237,613,439,194,553,450,306,0,
2,1774545471728,2455,19497,10964,-1407433,977384,-2916270,0,0,0,227,206,115,263,259,227,166,112,117,120,73,246,0,
1,1774545471744,-406,86,10236,76969,-51312,2443,0,0,0,93,20,23,296,137,229,605,425,193,541,406,298,0,
2,1774545471744,-325,13673,13232,-4987103,574213,-2164906,0,0,0,230,205,113,285,278,237,156,105,99,126,72,242,0,
1,1774545471760,-373,19,10251,116064,-145385,13439,0,0,0,78,24,27,283,151,244,579,414,196,499,405,301,0,
2,1774545471760,478,8557,10284,-5463578,162490,-1426981,0,0,0,233,202,112,296,282,244,169,115,118,128,73,248,0,
1,1774545471776,-421,-4,10212,153938,-190589,20769,0,0,0,73,25,31,276,154,265,532,400,210,472,424,325,0,
2,1774545471776,1612,7523,7183,-5092172,581543,-1120326,0,0,0,236,200,113,286,282,243,179,118,119,121,82,251,0,
1,1774545471792,-521,-19,10136,180816,-191811,24434,0,0,0,76,25,31,280,154,254,523,387,198,462,401,322,0,
2,1774545471792,1186,7595,6685,-5297423,1433089,-845437,0,0,0,236,197,113,280,278,238,187,115,118,112,81,250,0,
1,1774545471808,-583,-28,10026,178372,-145385,24434,0,0,0,80,32,32,286,159,248,516,371,194,452,362,312,0,
2,1774545471808,301,7293,8652,-6080552,1743409,-537561,0,0,0,234,195,111,284,262,237,186,108,134,111,65,252,0,
1,1774545471824,-612,-86,9882,157603,-90408,26878,0,0,0,84,37,33,284,163,248,506,363,196,439,346,310,0,
2,1774545471824,382,6207,10777,-6897890,1729970,-230907,0,0,0,238,192,116,275,251,236,175,85,128,110,62,257,0,
1,1774545471840,-603,-143,9815,118507,-37873,31764,0,0,0,84,35,32,274,155,246,496,335,202,426,329,308,0,
2,1774545471840,1225,4417,12557,-7386582,1739744,-9773,0,0,0,235,185,123,270,248,230,196,92,151,116,70,260,0,
1,1774545471856,-569,-167,9820,84299,4886,32986,0,0,0,78,34,32,268,149,248,486,307,215,418,305,306,0,
2,1774545471856,1579,2895,14070,-7401243,2050063,133168,0,0,0,236,181,125,280,253,247,188,93,152,119,60,266,0,
1,1774545471872,-507,-153,9873,67195,35430,31764,0,0,0,78,33,31,279,158,260,479,326,226,419,308,326,0,
2,1774545471872,1550,1852,16185,-7386582,2338392,276111,0,0,0,250,187,125,271,254,245,145,55,95,103,60,250,0,
1,1774545471888,-473,-114,9940,86742,40317,29321,0,0,0,95,35,41,295,156,299,476,291,242,432,292,366,0,
2,1774545471888,1368,1119,18789,-7530746,2372600,444709,0,0,0,236,179,128,268,239,229,177,95,133,104,64,249,0,
1,1774545471904,-502,-110,9987,118507,47647,31764,0,0,0,141,66,58,332,166,306,485,279,245,450,257,387,0,
2,1774545471904,1306,339,21483,-7685906,2329840,687834,0,0,0,229,162,116,273,228,218,183,107,138,111,58,245,0,
1,1774545471920,-540,-157,9968,146607,74525,39095,0,0,0,136,68,73,316,177,345,470,264,272,426,250,424,0,
2,1774545471920,1655,-928,25254,-7740884,2348165,1138652,0,0,0,221,165,117,273,231,226,182,116,158,121,67,253,0,
1,1774545471936,-449,-205,10031,185703,100181,46425,0,0,0,131,78,56,321,212,337,484,265,228,404,222,446,0,
2,1774545471936,2105,-3383,29533,-7651697,2474004,1742187,0,0,0,226,170,124,261,231,218,183,110,151,116,61,255,0,
1,1774545471952,-387,-205,10208,241902,95294,48869,0,0,0,245,150,96,343,205,320,493,199,223,386,192,456,0,
2,1774545471952,2445,-8624,33543,-7411017,2615724,2504547,0,0,0,232,173,128,259,231,224,205,104,154,116,53,250,0,
1,1774545471968,-464,-215,10361,329867,90408,59864,0,0,0,335,269,132,371,257,335,457,183,208,368,201,470,0,
2,1774545471968,2890,-18865,34993,-7032280,2673146,3042108,0,0,0,231,178,127,267,239,235,209,108,157,120,65,248,0,
1,1774545471984,-406,-272,10471,437379,102625,81855,0,0,0,253,189,94,379,299,372,442,172,221,317,176,525,0,
2,1774545471984,3493,-32036,32146,-6506936,2647489,3065321,0,0,0,233,186,131,281,248,236,198,115,148,121,74,250,0,
1,1774545472000,-287,-335,10710,532674,62308,89186,0,0,0,225,174,78,398,311,414,400,145,252,308,171,577,0,
2,1774545472000,3129,-44680,23168,-5320636,2845410,2288301,0,0,0,245,197,134,274,245,223,192,115,137,117,65,247,0,
1,1774545472016,-445,-358,11275,673173,-98960,97738,0,0,0,250,192,77,405,332,442,358,140,270,295,172,603,0,
2,1774545472016,-3091,-48422,15147,-2943148,3607770,770911,0,0,0,257,206,129,256,242,208,193,116,121,117,66,244,0,
1,1774545472032,-1129,-402,12529,956614,-383623,172263,0,0,0,267,205,73,401,355,449,330,145,251,293,180,615,0,
2,1774545472032,-13414,-47858,12610,-608421,3446501,-707381,0,0,0,244,210,124,277,257,221,230,120,110,136,86,241,0,
1,1774545472048,-1191,-287,15060,1596801,-664621,331088,0,0,0,362,287,109,366,351,429,254,127,251,293,183,613,0,
2,1774545472048,-19856,-44091,13945,849102,1054353,-1514945,0,0,0,181,213,96,275,268,231,266,143,121,205,170,202,0,
1,1774545472064,-856,-114,16243,2524095,-185703,345749,0,0,0,487,381,174,318,319,408,156,99,282,282,184,583,0,
2,1774545472064,-11758,-24067,18430,2152689,-2240653,-1235169,0,0,0,171,153,72,255,231,202,276,295,109,338,431,184,0,
1,1774545472080,-1186,-224,15405,3413514,579100,343306,0,0,0,440,345,172,313,291,414,140,94,273,298,210,538,0,
2,1774545472080,3216,14812,14754,3733608,-3518583,-524122,0,0,0,179,177,66,263,270,189,362,441,144,389,497,176,0,
1,1774545472096,-1430,-416,14553,4045149,1205847,409279,0,0,0,315,277,113,323,316,415,139,106,270,300,215,504,0,
2,1774545472096,6149,16161,7604,5841093,-3067765,311541,0,0,0,215,195,79,302,275,244,479,541,159,487,601,206,0,
1,1774545472112,-1631,-57,17999,4867374,1423316,499687,0,0,0,261,257,88,311,311,399,134,103,266,280,208,478,0,
2,1774545472112,-583,-1215,14649,7270518,-2021963,888198,0,0,0,262,224,88,304,260,262,573,621,233,575,630,272,0,
1,1774545472128,-2703,378,22143,6312681,1684766,681725,0,0,0,294,319,119,295,307,369,146,110,240,236,204,463,0,
2,1774545472128,-6044,-10059,24441,6385985,-496022,489913,0,0,0,295,239,111,313,266,270,597,629,227,624,645,298,0,
1,1774545472144,-1220,134,29246,7819075,2294409,841772,0,0,0,158,200,99,263,290,389,134,108,253,179,169,449,0,
2,1774545472144,-760,-4091,22110,4086688,125838,-152716,0,0,0,319,244,130,321,272,285,623,605,224,631,622,316,0,
1,1774545472160,-650,-469,37549,9170308,2844188,707381,0,0,0,73,93,81,192,215,368,128,115,240,147,145,404,0,
2,1774545472160,2426,-215,15415,2036624,259006,-145385,0,0,0,339,250,155,331,271,300,649,576,233,638,583,348,0,
1,1774545472176,-4197,57,40435,10482447,2420248,442266,0,0,0,104,85,87,163,110,211,159,84,170,140,109,256,0,
2,1774545472176,1478,-540,10681,1028697,109955,113620,0,0,0,357,248,180,341,269,311,664,561,249,636,566,375,0,
1,1774545472192,-6977,7456,35730,11012678,1134987,786794,0,0,0,48,42,46,179,110,213,167,86,163,153,96,249,0,
2,1774545472192,612,-1067,9758,568104,-40317,129503,0,0,0,383,232,206,353,278,334,678,564,260,629,565,398,0,
1,1774545472208,-7561,15979,24469,10696250,822224,1435533,0,0,0,26,27,31,185,114,240,166,92,173,164,96,250,0,
2,1774545472208,832,-579,10370,288328,-180816,21991,0,0,0,409,218,249,365,295,370,685,561,255,633,549,429,0,
1,1774545472224,-6949,17788,10557,7766540,1648114,2188119,0,0,0,30,27,25,191,119,214,171,95,154,165,98,232,0,
2,1774545472224,1014,-67,10495,84299,-307876,-25656,0,0,0,400,224,270,360,288,368,667,522,270,617,531,440,0,
1,1774545472240,-5723,15386,11552,2244318,1165530,2515543,0,0,0,26,23,20,192,125,190,168,95,133,166,102,229,0,
2,1774545472240,885,23,10289,12217,-378736,-17104,0,0,0,415,230,232,387,306,358,643,455,250,648,546,439,0,
1,1774545472256,-3938,12443,13898,-2375044,-197920,2301740,0,0,0,17,18,19,190,126,197,165,93,137,165,105,244,0,
2,1774545472256,693,-38,10241,9773,-373849,-12217,0,0,0,415,245,219,356,281,323,649,432,257,642,523,440,0,
1,1774545472272,-2163,8863,11533,-4054923,-1453859,1279151,0,0,0,18,19,20,193,124,204,175,95,152,158,100,253,0,
2,1774545472272,612,14,10275,61086,-284663,-21991,0,0,0,411,243,239,359,281,338,636,384,250,568,448,427,0,
1,1774545472288,-990,6795,7599,-3984063,-1556484,24434,0,0,0,28,25,26,186,114,205,170,91,158,166,98,255,0,
2,1774545472288,574,71,10155,141720,-172263,-21991,0,0,0,398,246,219,364,289,332,607,339,218,542,431,432,0,
1,1774545472304,-47,5833,6034,-4227187,-1291369,-1123992,0,0,0,22,18,30,200,107,209,177,82,152,185,93,257,0,
2,1774545472304,607,28,9968,219911,-50090,-13439,0,0,0,400,245,224,342,277,329,617,364,266,508,407,456,0,
1,1774545472320,253,5714,6905,-4853935,-1111774,-1717753,0,0,0,21,16,25,200,103,185,214,87,156,181,86,233,0,
2,1774545472320,693,-33,9906,265115,15882,-12217,0,0,0,412,270,207,355,287,342,593,331,285,464,325,445,0,
1,1774545472336,19,5297,8308,-5577199,-1204626,-1769065,0,0,0,37,29,30,203,102,185,208,86,151,184,88,229,0,
2,1774545472336,760,-124,9901,288328,9773,-20769,0,0,0,414,273,196,356,284,367,586,304,298,442,287,448,0,
1,1774545472352,-229,4560,9853,-6133086,-1387885,-1393994,0,0,0,30,9,16,215,93,188,213,79,145,196,79,232,0,
2,1774545472352,770,-191,9882,293215,-17104,-30543,0,0,0,420,295,207,372,297,377,565,274,289,433,280,474,0,
1,1774545472368,47,3804,11371,-6470284,-1561371,-816115,0,0,0,37,14,25,204,89,190,189,72,142,185,75,233,0,
2,1774545472368,737,-220,9887,287106,-39095,-35430,0,0,0,419,318,213,397,318,394,540,214,266,405,239,484,0,
1,1774545472384,741,2952,13113,-6768386,-1595580,-196698,0,0,0,32,20,27,204,107,186,191,101,136,181,101,229,0,
2,1774545472384,703,-234,9959,289550,-31764,-37873,0,0,0,412,319,210,400,318,413,539,177,270,372,190,489,0,
1,1774545472400,1067,2010,15238,-7087258,-1428202,311541,0,0,0,25,5,20,192,93,182,185,84,139,176,83,227,0,
2,1774545472400,737,-277,10064,310319,-13439,-41538,0,0,0,421,330,206,399,335,412,536,176,289,360,181,514,0,
1,1774545472416,555,990,17841,-7371921,-1227839,572991,0,0,0,28,0,19,221,82,175,204,75,141,204,70,231,0,
2,1774545472416,813,-325,10193,360410,-15882,-54977,0,0,0,438,364,205,420,416,427,531,158,288,345,181,546,0,
1,1774545472432,-110,-129,21091,-7618711,-1271821,691499,0,0,0,33,7,18,206,82,178,197,79,152,190,74,237,0,
2,1774545472432,842,-382,10251,439822,-46425,-76969,0,0,0,470,392,231,435,445,503,589,201,355,334,142,610,0,
1,1774545472448,-335,-1603,24800,-7834957,-1631010,587652,0,0,0,36,15,20,174,89,174,177,88,150,161,83,224,0,
2,1774545472448,847,-459,10246,502131,-80634,-98960,0,0,0,511,400,196,455,432,479,546,175,341,302,117,631,0,
1,1774545472464,181,-4848,28762,-8123285,-2196671,113620,0,0,0,37,19,22,173,101,163,176,101,138,161,94,208,0,
2,1774545472464,818,-521,10299,543670,-106290,-118507,0,0,0,514,397,186,425,441,486,491,151,329,284,97,671,0,
1,1774545472480,1469,-10251,32548,-8409170,-2809980,-744033,0,0,0,34,15,18,186,108,164,186,107,135,173,97,216,0,
2,1774545472480,847,-593,10495,613308,-122173,-131946,0,0,0,551,438,195,489,498,510,460,137,319,212,81,683,0,
1,1774545472496,3153,-18870,35017,-8522791,-3067765,-1921782,0,0,0,34,5,13,213,104,162,213,101,128,194,89,223,0,
2,1774545472496,1196,-760,10973,735481,-109955,-168598,0,0,0,573,439,188,487,519,503,443,131,320,138,34,693,0,
1,1774545472512,961,-32969,31634,-8063421,-2393370,-2658485,0,0,0,41,4,11,244,99,154,243,99,128,216,86,211,0,
2,1774545472512,1344,-760,12557,1043357,-85521,-279776,0,0,0,607,462,187,505,529,533,421,151,308,162,62,726,0,
1,1774545472528,-4283,-46546,22986,-6642548,-1916895,-2057394,0,0,0,43,11,18,216,99,176,209,101,149,195,88,214,0,
2,1774545472528,713,-459,14457,1593136,-184481,-337197,0,0,0,621,473,204,479,517,534,330,121,289,100,48,740,0,
1,1774545472544,-2842,-55611,14725,-4052479,-3078760,-43982,0,0,0,23,19,20,212,119,168,192,107,124,179,107,196,0,
2,1774545472544,301,-406,14697,2375044,-422718,-255341,0,0,0,630,485,204,470,515,525,258,120,279,80,27,731,0,
1,1774545472560,14515,-57358,12658,-1219287,-4178318,1758070,0,0,0,1,1,16,161,97,206,239,165,179,163,115,164,0,
2,1774545472560,703,-684,14237,3025004,-596204,-188146,0,0,0,639,485,207,478,511,536,211,141,279,82,17,715,0,
1,1774545472576,23483,-44058,15257,905302,-1888795,1700648,0,0,0,0,0,1,150,109,118,302,329,101,225,275,124,0,
2,1774545472576,1440,-942,14577,3567452,-690277,-243124,0,0,0,632,477,205,461,518,548,179,136,266,76,24,697,0,
1,1774545472592,7154,-1612,12634,3458718,2719572,605978,0,0,0,0,0,0,163,130,115,293,452,101,278,386,126,0,
2,1774545472592,1904,-756,16960,4371351,-841772,-403171,0,0,0,587,476,171,447,538,518,198,124,235,134,59,657,0,
1,1774545472608,-5034,13797,8614,5839871,4538728,-213802,0,0,0,0,0,0,192,128,121,333,512,103,349,512,124,0,
2,1774545472608,2837,-531,20181,5491678,-1174082,-604756,0,0,0,502,456,161,463,497,458,208,114,206,160,71,575,0,
1,1774545472624,-2837,2517,15314,7567398,3596774,-818559,0,0,0,0,0,3,184,128,143,385,561,134,426,558,151,0,
2,1774545472624,3895,-315,25082,6801373,-1786169,-872315,0,0,0,449,441,156,431,491,430,165,94,148,129,68,481,0,
1,1774545472640,4460,-6082,23804,6715852,1794722,-569326,0,0,0,93,56,54,177,110,165,443,567,164,483,557,192,0,
2,1774545472640,4728,-808,33572,8429940,-2610838,-1130100,0,0,0,381,363,133,369,447,373,126,75,134,107,52,416,0,
1,1774545472656,3594,-3881,23086,4619362,376292,62308,0,0,0,117,64,65,222,111,191,501,551,174,520,555,243,0,
2,1774545472656,7102,-1373,38166,9903347,-2667037,-1238834,0,0,0,309,265,121,337,351,307,120,65,80,121,69,329,0,
1,1774545472672,-526,-1043,16424,2767219,-197920,56199,0,0,0,51,20,30,274,134,223,548,539,184,544,544,285,0,
2,1774545472672,8403,3594,35496,10813536,-1367116,-1547932,0,0,0,267,231,135,273,280,244,152,100,107,102,71,257,0,
1,1774545472688,-1359,-981,11466,1433089,-323758,-133168,0,0,0,55,30,30,272,140,243,584,530,209,559,514,296,0,
2,1774545472688,7666,12414,29609,11165394,-454483,-2052507,0,0,0,261,228,132,261,274,237,178,122,116,106,81,252,0,
1,1774545472704,-392,-1397,10050,728151,-145385,-135612,0,0,0,77,43,32,275,146,245,613,526,222,575,498,311,0,
2,1774545472704,8169,17827,18138,9999863,-294437,-2498438,0,0,0,246,221,123,282,284,244,162,140,137,111,79,245,0,
1,1774545472720,-282,-780,10294,337197,41538,-7330,0,0,0,82,29,30,283,148,240,630,512,227,591,497,311,0,
2,1774545472720,7207,20607,9528,4365242,667064,-2477669,0,0,0,245,219,119,272,280,232,145,111,126,115,81,242,0,
1,1774545472736,-483,-220,10342,140499,114842,32986,0,0,0,82,31,33,307,150,248,650,478,190,604,493,285,0,
2,1774545472736,2258,19478,11318,-2434908,1448972,-1791056,0,0,0,242,214,113,289,282,233,149,100,100,119,81,240,0,
1,1774545472752,-473,-76,10212,81855,97738,13439,0,0,0,90,43,35,287,157,249,621,446,229,586,455,313,0,
2,1774545472752,167,12318,14065,-5402492,624304,-649960,0,0,0,240,208,115,298,284,237,146,83,85,114,76,239,0,
1,1774545472768,-291,-119,10232,98960,21991,12217,0,0,0,99,28,34,292,131,233,620,410,214,551,415,285,0,
2,1774545472768,2110,7087,10863,-5531995,-113620,46425,0,0,0,237,207,125,279,274,235,153,80,101,116,69,242,0,
1,1774545472784,-229,-114,10299,142942,-63529,21991,0,0,0,210,89,76,288,126,220,594,360,186,498,341,274,0,
2,1774545472784,4154,6149,6594,-4723210,460592,56199,0,0,0,236,209,129,279,271,239,170,110,118,117,65,243,0,
1,1774545472800,-306,-114,10284,201585,-117286,30543,0,0,0,232,105,89,281,125,220,565,356,180,474,314,269,0,
2,1774545472800,2550,6700,6824,-4783074,1859473,-131946,0,0,0,239,220,121,293,287,234,157,121,97,109,75,237,0,
1,1774545472816,-358,-148,10198,244346,-128281,32986,0,0,0,150,60,64,289,137,247,548,358,199,446,308,319,0,
2,1774545472816,153,6604,9207,-5417152,2430021,-168598,0,0,0,236,233,112,285,300,223,147,111,82,128,94,239,0,
1,1774545472832,-387,-196,10064,259006,-113620,34208,0,0,0,102,35,46,308,151,271,531,334,201,425,281,340,0,
2,1774545472832,-440,5742,11246,-6126978,2045176,-72082,0,0,0,242,205,118,270,264,213,154,76,62,104,56,233,0,
1,1774545472848,-425,-258,9935,239459,-83077,36651,0,0,0,98,42,43,313,165,281,498,311,198,397,259,337,0,
2,1774545472848,679,4254,12763,-6701191,1687209,30543,0,0,0,247,196,132,268,257,225,178,106,115,110,54,256,0,
1,1774545472864,-440,-320,9849,202807,-31764,31764,0,0,0,96,47,43,305,170,293,462,292,204,366,242,344,0,
2,1774545472864,1545,2919,14352,-7012732,1881464,106290,0,0,0,247,199,121,270,252,218,181,130,107,121,67,245,0,
1,1774545472880,-435,-373,9834,167377,18325,24434,0,0,0,118,56,55,294,165,302,440,266,215,354,220,355,0,
2,1774545472880,1210,2000,16759,-7208209,2333505,221133,0,0,0,246,195,120,283,261,216,149,97,78,112,67,235,0,
1,1774545472896,-397,-402,9897,136833,62308,19547,0,0,0,166,92,77,277,178,296,435,261,233,351,223,383,0,
2,1774545472896,655,1244,19392,-7454999,2487443,406836,0,0,0,245,199,121,271,245,210,164,96,94,113,69,234,0,
1,1774545472912,-358,-425,9935,116064,94073,18325,0,0,0,186,118,69,291,209,306,429,259,234,345,227,416,0,
2,1774545472912,536,397,22364,-7737219,2399478,713490,0,0,0,249,190,118,238,220,199,176,118,108,111,57,231,0,
1,1774545472928,-330,-440,9959,123394,102625,25656,0,0,0,191,131,71,326,241,330,426,200,238,357,209,452,0,
2,1774545472928,851,-789,25996,-7900930,2377487,1188743,0,0,0,250,181,117,244,222,201,178,114,111,108,57,229,0,
1,1774545472944,-277,-430,10064,167377,86742,39095,0,0,0,212,120,67,363,210,330,439,160,228,367,178,474,0,
2,1774545472944,885,-3244,30375,-7991339,2459343,1883908,0,0,0,250,181,120,263,235,203,174,108,115,102,56,232,0,
1,1774545472960,-229,-430,10222,245567,63529,53756,0,0,0,231,157,75,372,260,362,406,163,229,345,167,506,0,
2,1774545472960,808,-8509,33845,-8004778,2522873,2701246,0,0,0,253,187,125,272,238,206,172,122,113,102,50,231,0,
1,1774545472976,-196,-459,10318,348193,23212,63529,0,0,0,267,169,84,384,259,366,396,159,249,342,168,553,0,
2,1774545472976,1517,-20512,34625,-7678576,2522873,3297450,0,0,0,253,193,125,276,241,211,177,115,93,107,55,225,0,
1,1774545472992,-282,-507,10504,445931,-40317,75747,0,0,0,279,195,86,385,256,407,366,134,268,314,161,572,0,
2,1774545472992,3000,-36525,30533,-6819699,2404365,3178942,0,0,0,250,196,132,262,248,216,179,94,91,107,59,232,0,
1,1774545473008,-545,-545,10978,582765,-97738,103847,0,0,0,279,201,93,379,285,435,321,125,291,295,160,584,0,
2,1774545473008,1928,-48901,20382,-4780631,2717128,1859473,0,0,0,243,190,143,259,233,230,193,100,122,142,83,242,0,
1,1774545473024,-1038,-622,11993,878424,-188146,191811,0,0,0,374,283,132,375,300,434,295,131,280,312,182,578,0,
2,1774545473024,-6393,-51203,14122,-2233323,3343876,235793,0,0,0,222,174,94,267,224,204,232,122,98,218,151,227,0,
1,1774545473040,-713,-531,13878,1446528,-340862,315206,0,0,0,470,374,164,354,313,428,234,130,280,312,202,576,0,
2,1774545473040,-19645,-49715,18927,547335,1661553,-745255,0,0,0,172,147,78,276,233,213,323,290,122,270,330,190,0,
1,1774545473056,-201,-358,15362,2208888,-217468,324980,0,0,0,504,396,179,343,289,426,164,101,275,298,179,571,0,
2,1774545473056,-19353,-34496,18248,4065919,-2510656,-752585,0,0,0,184,133,64,297,265,203,387,458,129,360,495,224,0,
1,1774545473072,-507,-406,15171,2977357,280998,265115,0,0,0,493,381,179,336,262,423,126,80,256,292,155,548,0,
2,1774545473072,-5010,-6274,14271,7027393,-5089729,-45204,0,0,0,230,182,80,308,279,240,433,516,145,521,555,240,0,
1,1774545473088,-1033,-512,15439,3714060,845437,263893,0,0,0,420,344,143,323,279,412,122,88,243,291,172,515,0,
2,1774545473088,191,2301,19368,7533190,-3287676,497244,0,0,0,296,192,96,316,257,252,510,529,190,593,561,269,0,
1,1774545473104,-1780,-268,18568,4612032,1241278,376292,0,0,0,270,256,83,324,304,408,130,91,239,276,193,488,0,
2,1774545473104,-2876,-2488,24005,6192951,-612086,294437,0,0,0,327,199,112,313,246,254,567,530,228,599,569,310,0,
1,1774545473120,-2407,153,22321,6036570,1656666,588874,0,0,0,230,249,97,313,302,417,128,96,250,250,179,463,0,
2,1774545473120,-2187,-4972,21875,4200309,693942,-216246,0,0,0,346,203,131,311,240,260,592,501,230,600,542,342,0,
1,1774545473136,-2416,38,29016,7638258,2293188,784350,0,0,0,170,202,102,285,269,386,136,102,246,225,173,420,0,
2,1774545473136,1306,-2292,14850,2294409,403171,-113620,0,0,0,375,215,145,333,255,283,624,509,248,626,530,382,0,
1,1774545473152,-1378,-928,39444,9237504,3090978,828333,0,0,0,103,110,67,238,231,311,125,106,178,157,162,364,0,
2,1774545473152,1722,-684,10442,1181413,-84299,150272,0,0,0,403,234,168,351,267,306,646,513,253,663,544,425,0,
1,1774545473168,-3823,-555,42076,10483669,3357315,625526,0,0,0,22,15,26,202,121,197,172,74,117,171,88,236,0,
2,1774545473168,497,-966,9992,503352,-207694,123394,0,0,0,417,246,186,347,270,309,645,484,219,690,552,446,0,
1,1774545473184,-9006,6580,36755,10995574,2184454,681725,0,0,0,34,20,24,200,104,182,155,76,109,180,85,220,0,
2,1774545473184,244,-823,10610,92851,-175929,-14660,0,0,0,424,258,166,348,307,299,665,498,221,705,563,446,0,
1,1774545473200,-10337,17559,24307,10607064,594982,1264491,0,0,0,30,15,21,197,102,190,145,71,109,176,84,226,0,
2,1774545473200,540,-272,10485,9773,-207694,-24434,0,0,0,423,273,180,340,341,295,658,488,237,701,571,451,0,
1,1774545473216,-7307,19210,10533,7303504,362853,1960877,0,0,0,18,5,21,196,99,185,146,69,110,176,83,230,0,
2,1774545473216,588,-23,10270,0,-230907,-4886,0,0,0,429,244,195,355,286,310,668,482,236,695,559,444,0,
1,1774545473232,-4603,16190,9408,1942551,136833,2291966,0,0,0,29,13,26,200,98,187,157,74,118,183,85,235,0,
2,1774545473232,440,-67,10246,14660,-199142,-2443,0,0,0,432,238,202,327,262,294,641,458,251,670,535,428,0,
1,1774545473248,-3153,10930,13864,-2787988,-608421,2101376,0,0,0,99,54,70,189,91,181,150,70,115,173,80,226,0,
2,1774545473248,397,-90,10289,35430,-141720,-17104,0,0,0,431,246,220,327,265,298,623,445,257,654,530,453,0,
1,1774545473264,-2546,7145,11083,-3518583,-1485624,1359786,0,0,0,161,85,110,179,83,169,136,62,105,159,73,210,0,
2,1774545473264,416,-81,10203,70860,-109955,-23212,0,0,0,431,252,218,334,263,308,592,419,260,650,511,455,0,
1,1774545473280,-1167,6015,6819,-3144734,-1886351,509461,0,0,0,136,69,92,187,88,168,140,67,102,164,77,206,0,
2,1774545473280,440,-81,10054,101403,-101403,-21991,0,0,0,440,244,214,424,296,308,561,406,228,621,495,438,0,
1,1774545473296,1033,6135,5570,-3461162,-1760513,-520457,0,0,0,99,49,70,185,89,164,137,74,96,165,82,204,0,
2,1774545473296,464,-129,9949,96516,-105068,-21991,0,0,0,435,238,204,372,285,308,544,411,239,595,484,436,0,
1,1774545473312,2148,5982,6422,-4311486,-1444085,-1426981,0,0,0,101,50,78,184,80,165,135,58,98,161,67,206,0,
2,1774545473312,464,-167,9882,67195,-114842,-28099,0,0,0,437,241,185,339,282,306,516,372,227,570,466,410,0,
1,1774545473328,1675,5470,7743,-5094616,-1236391,-1931555,0,0,0,98,46,65,182,81,166,138,58,103,158,64,205,0,
2,1774545473328,421,-167,9844,46425,-124616,-39095,0,0,0,435,247,172,340,278,295,510,354,211,561,456,395,0,
1,1774545473344,784,4852,9241,-5651725,-1290147,-1920560,0,0,0,130,62,92,177,74,163,134,53,105,160,63,205,0,
2,1774545473344,363,-134,9858,58643,-123394,-48869,0,0,0,428,255,183,349,281,312,476,339,216,543,461,404,0,
1,1774545473360,617,4254,10949,-6173404,-1494176,-1588249,0,0,0,137,61,99,178,73,166,131,49,107,160,61,209,0,
2,1774545473360,315,-100,9925,106290,-100181,-48869,0,0,0,430,265,189,361,297,337,455,312,222,519,458,419,0,
1,1774545473376,1196,3522,12696,-6681643,-1696983,-1072679,0,0,0,132,56,125,175,70,200,139,44,132,161,56,231,0,
2,1774545473376,311,-119,9973,168598,-61086,-42760,0,0,0,443,279,169,355,299,334,525,313,229,523,426,443,0,
1,1774545473392,1813,2335,14970,-7153231,-1667662,-488692,0,0,0,148,65,108,186,74,173,145,52,109,162,56,203,0,
2,1774545473392,349,-181,9992,217468,-39095,-41538,0,0,0,449,307,182,348,289,356,534,282,259,516,376,477,0,
1,1774545473408,1976,1043,17544,-7414682,-1464854,-36651,0,0,0,145,61,100,179,70,161,141,47,103,162,55,198,0,
2,1774545473408,392,-234,10011,249233,-45204,-43982,0,0,0,447,315,175,362,308,375,531,256,236,470,343,504,0,
1,1774545473424,1746,-105,20579,-7492873,-1293812,188146,0,0,0,144,57,108,181,75,172,140,45,107,159,56,210,0,
2,1774545473424,397,-258,10064,283441,-61086,-48869,0,0,0,469,332,189,380,368,424,532,225,272,455,305,534,0,
1,1774545473440,1426,-1536,24043,-7586946,-1249830,222354,0,0,0,136,54,109,177,75,178,135,43,111,154,55,217,0,
2,1774545473440,354,-282,10155,339641,-57421,-57421,0,0,0,491,348,170,400,427,431,539,222,276,454,289,586,0,
1,1774545473456,928,-4728,28226,-7760431,-1374446,-47647,0,0,0,136,55,106,174,69,173,133,44,111,155,55,213,0,
2,1774545473456,325,-344,10232,404392,-14660,-61086,0,0,0,544,344,169,430,393,429,547,187,292,451,223,600,0,
1,1774545473472,679,-11031,31825,-7955908,-1809382,-805120,0,0,0,138,60,100,175,71,165,143,54,113,156,57,207,0,
2,1774545473472,330,-406,10332,456927,37873,-59864,0,0,0,574,369,193,435,416,459,518,161,296,358,159,618,0,
1,1774545473488,794,-19487,33347,-8159937,-2169793,-1782504,0,0,0,97,41,69,188,77,163,180,67,119,171,61,204,0,
2,1774545473488,416,-430,10672,520457,105068,-53756,0,0,0,600,398,213,488,469,527,473,149,312,270,82,655,0,
1,1774545473504,-971,-32007,30657,-8190481,-1946216,-2709798,0,0,0,35,4,22,216,81,166,222,77,124,202,70,207,0,
2,1774545473504,612,-492,11194,665843,131946,-65973,0,0,0,618,416,212,494,512,532,433,141,308,209,80,672,0,
1,1774545473520,-6838,-44689,20794,-6830695,-1706757,-2427578,0,0,0,39,15,26,199,98,172,181,95,124,178,85,209,0,
2,1774545473520,894,-737,11777,939510,101403,-103847,0,0,0,629,424,201,473,519,530,378,123,299,148,61,679,0,
1,1774545473536,-5982,-51050,13275,-4326147,-3111747,-983493,0,0,0,25,6,16,198,118,168,179,113,121,177,103,204,0,
2,1774545473536,981,-574,13467,1470963,43982,-135612,0,0,0,642,430,195,474,524,551,321,126,284,103,34,700,0,
1,1774545473552,8791,-52352,11222,-1439198,-4420220,1087340,0,0,0,0,0,10,228,108,173,232,127,126,183,91,159,0,
2,1774545473552,933,-224,15434,2206445,-141720,-172263,0,0,0,659,440,196,480,548,549,265,143,251,98,55,713,0,
1,1774545473568,20985,-42923,13338,561996,-2420248,2133141,0,0,0,0,0,1,156,110,101,240,325,89,214,252,126,0,
2,1774545473568,1110,-311,15663,2984687,-519235,-221133,0,0,0,668,456,194,453,548,525,215,135,235,110,65,703,0,
1,1774545473584,13175,-8356,14907,2547308,2361605,1678657,0,0,0,0,0,0,161,120,96,278,418,85,269,386,114,0,
2,1774545473584,1497,-469,16496,3793473,-777020,-322536,0,0,0,650,472,191,417,532,499,226,143,230,132,80,688,0,
1,1774545473600,-2359,9882,10189,5215567,4241848,561996,0,0,0,0,0,0,166,117,110,338,518,105,346,499,115,0,
2,1774545473600,2053,-248,18765,4797735,-889419,-478918,0,0,0,585,492,189,409,540,476,216,131,218,135,91,608,0,
1,1774545473616,-4206,3239,16008,7142236,3270572,-337197,0,0,0,20,9,4,186,137,138,410,538,130,442,537,152,0,
2,1774545473616,2584,134,22029,5985257,-1197295,-667064,0,0,0,470,472,164,422,541,431,198,125,168,121,84,531,0,
1,1774545473632,2833,-6743,25953,6555805,1324355,-483805,0,0,0,14,4,7,228,115,166,483,547,139,492,539,195,0,
2,1774545473632,3709,229,29045,7522194,-2067167,-897971,0,0,0,430,402,169,402,509,432,161,107,136,100,59,476,0,
1,1774545473648,2613,-3814,22766,4014606,87964,35430,0,0,0,24,0,20,241,101,201,525,550,163,518,524,236,0,
2,1774545473648,4661,-411,37539,9060353,-3145955,-1110553,0,0,0,360,298,129,359,352,335,161,91,110,126,65,380,0,
1,1774545473664,-741,-416,15238,2256536,-364075,102625,0,0,0,46,1,31,243,103,231,553,537,187,537,506,276,0,
2,1774545473664,5876,-818,40286,10141584,-3619987,-1127657,0,0,0,324,235,131,298,280,278,184,111,133,117,48,305,0,
1,1774545473680,-1804,-67,10447,1336573,-326202,-117286,0,0,0,58,2,33,255,102,271,570,519,222,546,503,306,0,
2,1774545473680,9920,6322,34548,10892948,-2116037,-1218065,0,0,0,279,216,133,277,262,246,171,69,115,128,64,271,0,
1,1774545473696,-875,-727,10078,763581,-130725,-145385,0,0,0,70,3,35,269,102,302,570,507,249,554,505,314,0,
2,1774545473696,11165,16300,23694,10996796,-525344,-1703092,0,0,0,256,210,119,281,272,244,167,76,106,126,70,263,0,
1,1774545473712,-392,-421,10447,334754,25656,-50090,0,0,0,76,12,35,290,113,272,574,504,204,568,497,297,0,
2,1774545473712,9748,20062,11251,7815409,234572,-2322509,0,0,0,247,207,112,281,274,235,172,100,122,120,72,257,0,
1,1774545473728,-536,148,10433,124616,78190,18325,0,0,0,72,15,36,296,128,296,588,484,223,570,479,307,0,
2,1774545473728,5786,21100,9375,1279151,996932,-2343279,0,0,0,241,208,111,276,269,225,170,112,125,116,71,251,0,
1,1774545473744,-674,272,10198,57421,75747,19547,0,0,0,75,0,37,302,98,308,605,435,233,585,445,317,0,
2,1774545473744,2024,16630,13046,-3318219,945619,-1561371,0,0,0,238,207,107,283,280,241,166,106,95,109,67,248,0,
1,1774545473760,-588,244,10217,73303,48869,21991,0,0,0,69,1,35,309,110,304,577,410,232,555,422,305,0,
2,1774545473760,1450,9959,11773,-5293758,351858,-634078,0,0,0,238,200,106,287,286,252,160,95,83,108,69,249,0,
1,1774545473776,-469,234,10294,141720,-23212,29321,0,0,0,73,10,39,302,114,319,558,418,251,526,412,336,0,
2,1774545473776,3369,7293,6767,-4620584,467922,-318871,0,0,0,240,201,111,282,270,234,151,104,105,119,71,253,0,
1,1774545473792,-464,210,10246,207694,-107512,35430,0,0,0,68,1,40,294,100,312,557,360,248,517,314,335,0,
2,1774545473792,2584,7566,5532,-4520402,1863138,-309097,0,0,0,242,203,117,291,284,241,172,100,103,116,72,247,0,
1,1774545473808,-540,181,10126,251676,-153938,36651,0,0,0,68,0,39,292,100,293,560,361,252,503,287,329,0,
2,1774545473808,47,7226,7489,-5064072,2924822,-161268,0,0,0,233,200,111,278,266,234,178,113,117,118,67,244,0,
1,1774545473824,-598,138,10011,270002,-150272,36651,0,0,0,71,2,39,292,108,292,550,326,248,462,260,323,0,
2,1774545473824,-1378,6001,9825,-5616295,2734232,141720,0,0,0,234,202,113,272,256,237,152,99,117,100,52,238,0,
1,1774545473840,-660,76,9916,276111,-129503,40317,0,0,0,74,7,40,293,119,301,523,307,233,413,232,324,0,
2,1774545473840,-1392,4848,11734,-6100100,2133141,466701,0,0,0,230,192,118,278,264,224,148,79,73,98,65,241,0,
1,1774545473856,-684,23,9868,276111,-102625,43982,0,0,0,72,16,38,295,135,299,516,264,230,397,222,333,0,
2,1774545473856,-555,4106,13232,-6533814,1794722,692721,0,0,0,230,191,114,287,270,237,176,115,94,115,70,244,0,
1,1774545473872,-665,-9,9873,274889,-59864,43982,0,0,0,66,10,34,307,133,304,510,225,238,390,202,362,0,
2,1774545473872,100,3158,14965,-6930877,1737300,836885,0,0,0,231,188,113,282,267,227,181,106,110,113,79,245,0,
1,1774545473888,-641,-47,9906,265115,-15882,41538,0,0,0,149,48,69,310,120,306,489,210,223,379,201,385,0,
2,1774545473888,746,1670,17334,-7254635,1826487,884532,0,0,0,227,181,110,273,263,222,189,112,116,104,59,240,0,
1,1774545473904,-646,-90,9901,239459,23212,36651,0,0,0,195,85,88,303,139,292,474,202,201,378,216,390,0,
2,1774545473904,1229,631,19861,-7415904,1947438,867428,0,0,0,227,178,114,281,260,231,175,92,112,114,58,245,0,
1,1774545473920,-650,-129,9916,208915,70860,41538,0,0,0,78,36,37,322,182,298,467,201,210,378,200,406,0,
2,1774545473920,1507,-81,23019,-7624819,2083050,929736,0,0,0,228,182,118,283,264,231,175,83,111,113,64,245,0,
1,1774545473936,-636,-172,9987,193033,113620,53756,0,0,0,137,70,70,347,171,343,459,189,226,372,188,439,0,
2,1774545473936,1761,-1746,27178,-7900930,2196671,1194852,0,0,0,229,185,118,271,268,221,191,103,126,102,58,241,0,
1,1774545473952,-569,-210,10069,202807,129503,69638,0,0,0,266,166,131,335,159,343,454,161,244,352,147,455,0,
2,1774545473952,2498,-7207,31509,-7765318,2431243,1677435,0,0,0,235,186,122,275,263,228,182,108,144,110,61,249,0,
1,1774545473968,-492,-229,10179,237015,127059,80634,0,0,0,292,179,144,355,195,389,471,157,264,361,156,501,0,
2,1774545473968,2440,-15869,34295,-7051828,2841745,2191784,0,0,0,243,191,126,283,259,240,197,121,127,109,64,246,0,
1,1774545473984,-449,-244,10270,289550,103847,83077,0,0,0,199,125,62,409,291,389,468,203,274,354,196,521,0,
2,1774545473984,1091,-26312,32184,-6503271,2776993,2378709,0,0,0,239,186,123,285,248,221,206,131,138,113,58,246,0,
1,1774545474000,-406,-282,10447,357967,46425,76969,0,0,0,219,145,86,422,297,440,428,155,267,342,163,547,0,
2,1774545474000,129,-38951,25273,-5826432,2360383,2164906,0,0,0,241,179,122,287,246,239,200,109,100,104,46,250,0,
1,1774545474016,-502,-291,10844,459370,-53756,78190,0,0,0,223,189,78,417,354,432,392,154,281,321,191,570,0,
2,1774545474016,-2306,-46829,16410,-4172209,2444682,1281595,0,0,0,243,196,126,264,245,230,215,134,142,120,58,267,0,
1,1774545474032,-976,-277,11639,658512,-213802,123394,0,0,0,270,195,83,412,372,444,336,147,287,330,184,575,0,
2,1774545474032,-11610,-47996,12505,-1447750,2730567,13439,0,0,0,214,186,105,284,269,228,243,125,148,140,73,229,0,
1,1774545474048,-1287,-253,13534,1153313,-229685,255341,0,0,0,296,206,93,405,363,438,276,135,288,317,182,578,0,
2,1774545474048,-19143,-44632,14381,604756,1409876,-799011,0,0,0,193,142,87,277,231,195,338,219,91,270,269,213,0,
1,1774545474064,-837,-105,15955,1929112,64751,331088,0,0,0,348,256,115,390,365,439,211,129,302,294,189,568,0,
2,1774545474064,-14218,-24771,19368,2542421,-1847256,-800233,0,0,0,182,144,73,288,250,207,404,369,112,376,404,197,0,
1,1774545474080,-861,-14,16223,2926044,476474,335975,0,0,0,361,280,118,374,365,442,154,153,290,301,216,553,0,
2,1774545474080,-1009,1823,13692,5018868,-4687779,67195,0,0,0,202,163,84,303,268,242,463,435,160,443,488,218,0,
1,1774545474096,-952,-52,15453,3800803,871093,361632,0,0,0,320,261,101,360,352,428,126,175,257,312,242,527,0,
2,1774545474096,1268,6432,13108,6835582,-4624249,1144761,0,0,0,255,183,94,283,233,240,471,475,178,514,567,249,0,
1,1774545474112,-1177,76,16592,4537506,1185078,403171,0,0,0,285,267,93,342,348,417,119,173,251,292,238,495,0,
2,1774545474112,-5790,-3177,20512,6039013,-1855808,913854,0,0,0,307,198,104,300,234,258,529,510,185,578,597,280,0,
1,1774545474128,-1837,569,20244,5769011,1457524,519235,0,0,0,245,277,88,329,343,418,121,164,260,259,204,475,0,
2,1774545474128,-4938,-5149,22120,4192978,250454,-3665,0,0,0,336,204,116,325,253,271,608,523,199,606,587,301,0,
1,1774545474144,-1770,770,25163,7246083,1842369,664621,0,0,0,208,208,84,325,299,407,134,121,249,229,153,462,0,
2,1774545474144,1091,-1722,16649,2240653,667064,-422718,0,0,0,351,208,129,382,272,261,634,537,217,609,590,316,0,
1,1774545474160,-459,-282,36501,8862432,2751337,599869,0,0,0,133,145,81,267,232,337,129,121,195,197,145,411,0,
2,1774545474160,1804,-23,11466,1226617,125838,-3665,0,0,0,373,220,151,479,319,289,655,571,238,623,604,352,0,
1,1774545474176,-2392,-914,42196,10147693,3161838,318871,0,0,0,116,166,111,182,135,255,116,59,161,157,103,307,0,
2,1774545474176,569,-143,9705,668286,-76969,201585,0,0,0,377,216,159,330,251,292,658,580,256,655,616,378,0,
1,1774545474192,-7236,3488,37338,10947926,2183232,289550,0,0,0,30,10,22,201,95,185,148,65,113,170,71,219,0,
2,1774545474192,268,-411,10260,342084,-97738,92851,0,0,0,385,211,213,340,262,334,643,558,281,687,629,399,0,
1,1774545474208,-8480,13577,27547,10936931,726929,901637,0,0,0,22,2,15,202,108,191,151,83,112,178,93,227,0,
2,1774545474208,449,-153,10552,84299,-224798,-7330,0,0,0,420,236,196,375,264,290,622,539,210,687,611,366,0,
1,1774545474224,-6427,17678,14907,9588140,301767,1590693,0,0,0,144,83,97,180,87,171,132,65,101,156,68,208,0,
2,1774545474224,435,220,10380,-41538,-354301,-24434,0,0,0,407,230,181,323,248,283,614,521,193,695,619,405,0,
1,1774545474240,-3488,16807,8552,5139820,719599,2091602,0,0,0,161,93,117,163,76,164,122,56,100,148,66,209,0,
2,1774545474240,229,272,10236,-41538,-311541,-13439,0,0,0,408,230,199,331,254,307,618,490,201,687,588,385,0,
1,1774545474256,-2660,14596,10926,-851546,455705,2345722,0,0,0,154,75,106,168,75,158,115,51,93,150,68,202,0,
2,1774545474256,129,253,10241,-18325,-210137,-23212,0,0,0,394,226,176,480,321,311,628,477,232,673,578,408,0,
1,1774545474272,-2699,10189,12352,-4437325,-538783,2217440,0,0,0,158,71,106,170,74,161,115,50,92,152,65,202,0,
2,1774545474272,134,263,10232,19547,-102625,-42760,0,0,0,382,221,158,381,270,282,638,488,256,654,539,399,0,
1,1774545474288,-2110,6154,9667,-4803844,-1582140,1678657,0,0,0,170,76,113,174,74,164,121,53,96,152,63,205,0,
2,1774545474288,172,287,10126,59864,-26878,-56199,0,0,0,387,223,158,311,228,257,609,449,228,631,512,368,0,
1,1774545474304,-263,4718,6657,-4377460,-1842369,863763,0,0,0,174,81,117,177,72,163,128,56,100,156,65,206,0,
2,1774545474304,248,277,9997,84299,6108,-61086,0,0,0,385,224,167,318,238,263,596,429,218,595,486,339,0,
1,1774545474320,1028,4460,5953,-4453207,-1521054,34208,0,0,0,166,80,121,168,68,166,131,54,105,161,66,212,0,
2,1774545474320,325,277,9920,86742,0,-70860,0,0,0,376,223,166,302,238,250,584,421,210,569,471,329,0,
1,1774545474336,880,4240,6795,-4880813,-1108109,-642630,0,0,0,162,75,126,164,70,173,128,51,110,160,62,217,0,
2,1774545474336,368,311,9849,94073,-18325,-76969,0,0,0,367,225,155,313,244,245,584,396,208,567,471,354,0,
1,1774545474352,-172,3728,8121,-5270545,-1058018,-1037249,0,0,0,165,79,134,163,68,175,126,52,112,150,62,221,0,
2,1774545474352,373,354,9844,147829,-40317,-67195,0,0,0,365,229,154,367,281,293,609,374,242,566,449,379,0,
1,1774545474368,-813,3335,9700,-5610186,-1315803,-1169196,0,0,0,168,76,142,165,67,190,129,46,124,155,62,236,0,
2,1774545474368,339,339,9897,228463,-62308,-52534,0,0,0,373,226,159,336,277,298,576,359,240,540,397,354,0,
1,1774545474384,-402,3125,11347,-6076887,-1637118,-1017701,0,0,0,168,66,119,173,65,164,140,45,105,168,54,209,0,
2,1774545474384,272,229,9973,316428,-81855,-41538,0,0,0,372,228,149,342,276,301,571,338,213,531,372,394,0,
1,1774545474400,124,2574,13285,-6660874,-1787391,-803898,0,0,0,167,80,119,177,71,174,134,47,105,160,60,222,0,
2,1774545474400,239,86,10021,355523,-70860,-41538,0,0,0,368,276,153,351,309,352,567,317,222,499,353,409,0,
1,1774545474416,397,1445,15587,-7184996,-1742187,-576656,0,0,0,165,75,119,162,65,158,126,45,97,160,54,213,0,
2,1774545474416,258,23,10059,364075,-52534,-41538,0,0,0,390,296,163,371,350,372,555,236,249,507,327,439,0,
1,1774545474432,315,-62,18434,-7419569,-1665218,-389732,0,0,0,165,71,123,172,67,163,133,51,105,166,59,209,0,
2,1774545474432,291,0,10117,376292,-41538,-42760,0,0,0,414,312,155,422,376,412,595,219,248,451,278,475,0,
1,1774545474448,435,-1220,21540,-7454999,-1700648,-306654,0,0,0,179,72,119,181,69,159,140,53,102,168,58,199,0,
2,1774545474448,272,-19,10212,408057,-37873,-41538,0,0,0,448,334,178,432,376,412,621,194,268,449,230,523,0,
1,1774545474464,947,-2737,25269,-7550294,-1781283,-390953,0,0,0,169,74,116,171,75,159,123,53,95,147,59,188,0,
2,1774545474464,282,-43,10361,449596,-15882,-40317,0,0,0,489,367,185,473,448,452,593,200,281,411,209,555,0,
1,1774545474480,1373,-6465,29006,-7852061,-1888795,-748920,0,0,0,156,76,125,161,75,162,124,59,93,143,64,183,0,
2,1774545474480,325,-119,10394,481361,26878,-45204,0,0,0,527,395,186,499,493,498,582,188,343,355,172,595,0,
1,1774545474496,1775,-12778,32280,-8085412,-2166128,-1248608,0,0,0,154,74,117,159,73,154,137,64,97,149,65,180,0,
2,1774545474496,339,-220,10490,527787,90408,-57421,0,0,0,567,400,183,509,514,532,534,154,353,277,122,639,0,
1,1774545474512,966,-25546,32500,-7794640,-2509434,-1714087,0,0,0,154,70,101,162,71,145,147,62,103,149,60,180,0,
2,1774545474512,502,-315,10926,637743,186924,-78190,0,0,0,605,398,180,513,516,549,472,132,341,195,74,672,0,
1,1774545474528,-3053,-42024,25848,-6389650,-2504547,-1605353,0,0,0,155,68,107,171,66,150,159,61,108,153,54,181,0,
2,1774545474528,995,-382,12323,927293,288328,-158824,0,0,0,630,419,181,506,515,544,440,151,353,138,47,701,0,
1,1774545474544,-5742,-52672,15171,-3797138,-2822197,-328645,0,0,0,162,68,108,181,70,148,165,63,107,157,51,179,0,
2,1774545474544,1296,-62,15841,1517389,252898,-260228,0,0,0,643,449,186,488,519,532,371,158,340,95,29,717,0,
1,1774545474560,3752,-53945,9997,-1295034,-4218635,1579697,0,0,0,154,73,95,171,72,140,168,73,98,159,72,172,0,
2,1774545474560,741,296,17487,2389704,-83077,-226020,0,0,0,652,466,196,468,508,531,261,128,302,77,9,705,0,
1,1774545474576,17061,-50078,9949,199142,-4236961,2526538,0,0,0,93,74,67,140,100,115,222,166,106,155,144,129,0,
2,1774545474576,531,177,16324,3268129,-464257,-168598,0,0,0,675,481,202,463,501,545,222,142,265,94,27,692,0,
1,1774545474592,18344,-28662,15424,1393994,-875980,1776396,0,0,0,0,0,0,161,103,81,294,335,79,226,245,105,0,
2,1774545474592,938,-47,15472,4107457,-686612,-193033,0,0,0,656,473,192,434,492,523,215,147,239,101,37,681,0,
1,1774545474608,2833,9088,14266,3180164,3645643,-261450,0,0,0,0,0,0,184,137,99,294,439,71,274,388,98,0,
2,1774545474608,1301,287,18099,5125159,-740368,-306654,0,0,0,612,501,173,432,515,517,196,150,233,122,86,630,0,
1,1774545474624,-2215,15065,11155,4891808,4002389,-1739744,0,0,0,0,0,0,191,123,107,352,498,87,361,475,115,0,
2,1774545474624,2029,708,21885,6374989,-999375,-439822,0,0,0,490,499,173,425,508,449,185,111,150,111,60,540,0,
1,1774545474640,3747,-402,17138,5637064,1613905,-1301142,0,0,0,84,45,39,182,138,136,435,509,119,444,489,157,0,
2,1774545474640,3177,760,27427,7754323,-1674992,-626747,0,0,0,455,468,152,411,499,418,180,119,131,124,78,488,0,
1,1774545474656,4130,-6197,21923,4800179,240680,-151494,0,0,0,169,84,75,191,98,140,488,512,131,489,486,180,0,
2,1774545474656,4297,-430,36061,9348681,-2621833,-794124,0,0,0,390,341,134,385,372,369,181,71,126,129,54,401,0,
1,1774545474672,-756,-2474,19554,2933374,39095,301767,0,0,0,103,39,52,219,93,175,525,521,156,501,472,208,0,
2,1774545474672,6116,-727,39884,10556973,-2735454,-835663,0,0,0,286,250,130,316,290,307,176,74,123,123,68,312,0,
1,1774545474688,-1856,-134,13663,1622458,-74525,-70860,0,0,0,40,1,27,249,109,208,549,534,162,511,473,229,0,
2,1774545474688,7954,5556,36257,11233811,-1710422,-1007927,0,0,0,249,223,132,277,266,265,185,98,116,124,77,292,0,
1,1774545474704,-1186,-143,10327,968832,-222354,-233350,0,0,0,41,3,25,270,118,220,561,531,155,525,493,243,0,
2,1774545474704,9102,14974,25809,11160507,-915076,-1348790,0,0,0,249,222,137,263,260,248,194,104,122,119,80,286,0,
1,1774545474720,-789,-684,9911,641408,-167377,-120951,0,0,0,120,43,58,281,111,210,565,515,153,530,492,239,0,
2,1774545474720,8815,20148,11715,8547226,-868650,-1651779,0,0,0,248,222,136,265,257,240,171,82,107,115,75,275,0,
1,1774545474736,-976,-296,10327,351858,30543,-32986,0,0,0,210,90,98,273,96,193,567,503,150,519,474,220,0,
2,1774545474736,6642,20229,10686,1940107,-698829,-1599245,0,0,0,245,217,129,279,264,239,150,76,94,118,70,267,0,
1,1774545474752,-957,110,10346,123394,113620,-13439,0,0,0,184,84,93,242,95,198,562,482,159,500,465,225,0,
2,1774545474752,3890,16740,14826,-4273613,-20769,-1257160,0,0,0,245,216,127,288,282,245,164,102,113,120,80,258,0,
1,1774545474768,-823,167,10198,56199,52534,-4886,0,0,0,187,83,97,243,96,202,557,454,158,512,448,234,0,
2,1774545474768,3728,11328,13065,-5420818,482583,-907745,0,0,0,246,224,134,279,289,234,153,83,79,126,84,266,0,
1,1774545474784,-804,186,10184,51312,9773,14660,0,0,0,171,78,94,244,110,224,530,414,172,510,417,245,0,
2,1774545474784,4225,8030,8461,-5144707,1050688,-821002,0,0,0,242,216,118,270,277,228,159,96,88,117,84,259,0,
1,1774545474800,-847,210,10198,81855,13439,29321,0,0,0,155,67,76,250,112,208,500,413,157,497,414,239,0,
2,1774545474800,3230,7456,5910,-4895474,1915673,-978606,0,0,0,245,224,119,271,272,229,182,140,109,120,85,258,0,
1,1774545474816,-861,186,10107,117286,46425,31764,0,0,0,190,115,76,244,136,197,495,345,149,517,341,249,0,
2,1774545474816,397,7327,7666,-5513669,2597398,-1009149,0,0,0,245,238,119,267,272,229,190,119,106,121,80,256,0,
1,1774545474832,-851,153,9983,152716,75747,30543,0,0,0,143,92,77,251,136,242,471,334,176,474,311,275,0,
2,1774545474832,-1651,6451,10050,-6180734,2687807,-855211,0,0,0,251,223,113,304,266,229,178,96,113,135,78,256,0,
1,1774545474848,-837,124,9920,188146,87964,26878,0,0,0,170,111,90,259,150,263,461,312,222,433,292,303,0,
2,1774545474848,-1866,5020,11931,-6555805,2304183,-568104,0,0,0,243,214,114,296,271,232,174,88,105,122,74,259,0,
1,1774545474864,-827,71,9925,226020,91629,28099,0,0,0,175,97,78,281,138,245,460,278,193,444,257,308,0,
