sole_id,timestamp,accel_x,accel_y,accel_z,gyro_x,gyro_y,gyro_z,magn_x,magn_y,magn_z,pressure_01,pressure_02,pressure_03,pressure_04,pressure_05,pressure_06,pressure_07,pressure_08,pressure_09,pressure_10,pressure_11,pressure_12,corrupt,brick
1,1774291996960,-397,387,9987,-23212,-50090,8552,0,0,0,241,154,160,230,120,238,528,441,208,499,438,219,0,
2,1774291996960,966,95,9978,14660,-47647,-13439,0,0,0,350,268,187,303,257,304,522,419,255,519,563,347,0,
1,1774291996976,-397,382,9992,-14660,-52534,3665,0,0,0,249,158,140,229,120,198,529,446,178,501,445,183,0,
2,1774291996976,981,110,9964,15882,-43982,-7330,0,0,0,353,268,192,321,273,322,516,418,254,512,555,337,0,
1,1774291996992,-397,387,9987,-6108,-53756,3665,0,0,0,250,157,137,225,118,190,529,451,177,496,445,179,0,
2,1774291996992,971,105,9964,14660,-43982,-8552,0,0,0,353,270,196,275,248,284,515,408,237,522,563,355,0,
1,1774291997008,-397,392,9983,0,-54977,4886,0,0,0,255,158,147,235,124,203,526,453,178,497,445,174,0,
2,1774291997008,971,105,9964,14660,-46425,-9773,0,0,0,343,270,177,280,242,291,484,375,182,527,568,355,0,
1,1774291997024,-397,382,9983,0,-52534,4886,0,0,0,257,160,146,234,119,202,526,444,176,498,441,177,0,
2,1774291997024,976,105,9983,15882,-47647,-10995,0,0,0,355,277,190,288,256,292,548,433,278,517,559,346,0,
1,1774291997040,-397,382,9992,0,-51312,3665,0,0,0,266,156,129,240,117,194,525,438,170,501,441,178,0,
2,1774291997040,971,105,9978,17104,-46425,-9773,0,0,0,348,262,187,284,243,283,525,406,256,518,555,343,0,
1,1774291997056,-392,382,9992,-1221,-51312,3665,0,0,0,265,156,129,239,121,193,524,433,173,496,436,172,0,
2,1774291997056,961,95,9964,19547,-43982,-9773,0,0,0,354,268,191,311,269,310,526,416,236,528,565,351,0,
1,1774291997072,-392,387,9983,0,-51312,3665,0,0,0,268,159,135,240,123,197,524,439,174,494,437,173,0,
2,1774291997072,961,95,9964,18325,-43982,-9773,0,0,0,352,269,194,369,293,297,517,403,231,535,574,362,0,
1,1774291997088,-397,392,9983,6108,-52534,3665,0,0,0,268,156,130,245,127,197,525,446,170,493,438,169,0,
2,1774291997088,966,95,9973,18325,-43982,-9773,0,0,0,358,273,196,299,244,290,504,400,238,528,569,354,0,
1,1774291997104,-402,397,9992,17104,-56199,4886,0,0,0,259,154,123,244,131,193,522,452,166,490,441,165,0,
2,1774291997104,971,100,9992,19547,-43982,-9773,0,0,0,350,273,191,262,246,291,485,376,209,538,574,361,0,
1,1774291997120,-406,392,9987,29321,-58643,4886,0,0,0,255,179,125,238,140,192,517,460,166,489,448,168,0,
2,1774291997120,976,100,10002,21991,-42760,-8552,0,0,0,347,269,190,280,262,302,484,378,194,534,577,364,0,
1,1774291997136,-416,387,9987,39095,-59864,3665,0,0,0,256,214,132,232,154,194,516,465,167,484,447,168,0,
2,1774291997136,981,100,10007,26878,-42760,-8552,0,0,0,348,268,192,284,257,297,501,393,226,516,577,366,0,
1,1774291997152,-416,378,9987,43982,-56199,0,0,0,0,246,187,138,229,133,203,513,463,171,480,439,173,0,
2,1774291997152,971,95,9997,30543,-41538,-8552,0,0,0,345,270,192,272,250,285,502,389,230,496,567,362,0,
1,1774291997168,-421,363,9992,46425,-51312,0,0,0,0,244,161,134,231,127,203,516,448,169,480,431,173,0,
2,1774291997168,966,90,9992,35430,-40317,-9773,0,0,0,345,273,191,270,251,283,491,386,199,476,536,345,0,
1,1774291997184,-425,354,9987,52534,-46425,0,0,0,0,237,155,134,234,124,208,531,448,169,500,424,172,0,
2,1774291997184,971,90,9997,42760,-40317,-9773,0,0,0,352,277,191,271,256,272,505,393,235,475,494,342,0,
1,1774291997200,-425,349,9983,64751,-46425,-1221,0,0,0,242,147,138,234,104,207,533,446,173,483,406,172,0,
2,1774291997200,985,90,10007,51312,-37873,-10995,0,0,0,348,274,188,272,256,274,501,339,220,493,458,335,0,
1,1774291997216,-430,339,9983,75747,-45204,-1221,0,0,0,239,138,160,239,109,240,529,437,186,491,410,202,0,
2,1774291997216,1000,90,10026,67195,-36651,-12217,0,0,0,340,266,188,230,216,263,479,327,220,486,422,341,0,
1,1774291997232,-430,315,9973,80634,-42760,-2443,0,0,0,255,169,180,244,130,252,566,443,202,498,410,223,0,
2,1774291997232,1014,81,10059,92851,-36651,-15882,0,0,0,348,264,190,250,214,257,471,210,224,482,330,341,0,
1,1774291997248,-430,291,9964,79412,-37873,-3665,0,0,0,251,160,185,244,119,254,530,424,223,501,415,229,0,
2,1774291997248,1033,76,10112,131946,-34208,-19547,0,0,0,348,260,193,274,206,266,473,250,208,398,279,317,0,
1,1774291997264,-435,277,9949,72082,-28099,-4886,0,0,0,240,146,202,256,113,265,550,439,202,509,413,212,0,
2,1774291997264,1081,67,10198,197920,-32986,-26878,0,0,0,314,242,183,276,231,263,406,183,210,364,194,329,0,
1,1774291997280,-425,258,9935,56199,-15882,-4886,0,0,0,235,148,190,266,123,260,594,450,184,516,403,199,0,
2,1774291997280,1177,114,10399,307876,-57421,-51312,0,0,0,314,233,183,291,239,270,322,118,198,290,124,321,0,
1,1774291997296,-421,253,9940,37873,-6108,-2443,0,0,0,235,164,157,265,133,243,604,434,187,521,395,199,0,
2,1774291997296,1167,210,10854,497244,-117286,-80634,0,0,0,301,233,176,276,236,273,285,130,182,241,129,321,0,
1,1774291997312,-411,258,9968,24434,-3665,0,0,0,0,239,171,152,265,135,237,606,424,178,530,395,193,0,
2,1774291997312,1124,373,11931,838107,-160046,-106290,0,0,0,295,233,171,265,231,266,271,171,176,229,158,325,0,
1,1774291997328,-402,263,10011,14660,-3665,0,0,0,0,237,164,155,262,145,240,613,426,183,541,407,205,0,
2,1774291997328,1249,641,12854,1271821,-196698,-123394,0,0,0,280,225,171,263,227,258,254,164,170,227,162,327,0,
1,1774291997344,-411,268,10045,4886,-3665,0,0,0,0,205,205,166,255,191,287,615,462,215,547,435,257,0,
2,1774291997344,1368,1330,12778,1551597,-256563,-139277,0,0,0,253,219,169,255,227,261,242,135,161,216,166,326,0,
1,1774291997360,-421,263,10050,-3665,-1221,0,0,0,0,226,200,197,274,158,303,628,442,214,550,391,266,0,
2,1774291997360,1014,3809,12155,1544267,-106290,-206472,0,0,0,247,221,165,247,222,267,243,117,151,208,171,324,0,
1,1774291997376,-411,258,10035,-10995,0,1221,0,0,0,213,178,189,279,150,306,617,441,216,547,384,259,0,
2,1774291997376,492,6972,11366,1362229,-179594,-166155,0,0,0,248,214,164,253,218,258,253,95,145,218,146,321,0,
1,1774291997392,-406,263,10040,-21991,0,2443,0,0,0,165,145,148,278,182,310,618,457,232,571,416,271,0,
2,1774291997392,1459,9964,10169,963945,-452040,69638,0,0,0,243,212,159,254,223,250,276,130,152,223,144,311,0,
1,1774291997408,-406,268,10040,-28099,0,2443,0,0,0,165,161,143,282,194,315,616,463,234,564,428,275,0,
2,1774291997408,2249,11103,9289,471587,-367740,201585,0,0,0,246,204,158,237,217,258,257,125,142,216,131,308,0,
1,1774291997424,-406,277,10035,-31764,1221,3665,0,0,0,188,154,159,292,184,324,607,467,234,568,431,272,0,
2,1774291997424,1852,10739,8580,-85521,-106290,149051,0,0,0,248,202,153,275,225,270,276,158,201,216,146,313,0,
1,1774291997440,-397,282,10026,-37873,2443,6108,0,0,0,193,194,175,291,188,316,618,463,223,563,426,267,0,
2,1774291997440,1110,9844,8322,-397062,-111177,-64751,0,0,0,248,202,155,255,243,272,229,114,136,216,141,323,0,
1,1774291997456,-368,282,10007,-42760,1221,6108,0,0,0,187,185,178,292,191,314,616,465,225,562,423,268,0,
2,1774291997456,708,8987,8504,-657290,-216246,-293215,0,0,0,252,217,164,255,234,250,259,150,172,210,171,310,0,
1,1774291997472,-349,291,9997,-37873,-1221,6108,0,0,0,175,181,166,291,198,310,613,465,223,563,426,263,0,
2,1774291997472,492,7791,9035,-932180,-365297,-493579,0,0,0,248,211,162,236,219,227,250,147,171,197,142,301,0,
1,1774291997488,-344,306,9992,-19547,-7330,6108,0,0,0,192,203,177,281,204,294,609,470,214,563,432,246,0,
2,1774291997488,579,6063,9676,-1186300,-524122,-648738,0,0,0,242,209,161,233,215,232,204,111,138,192,138,304,0,
1,1774291997504,-339,301,9992,-2443,-12217,7330,0,0,0,217,215,194,271,197,278,603,476,206,563,425,226,0,
2,1774291997504,985,4575,10184,-1359786,-594982,-748920,0,0,0,241,212,158,250,216,241,192,104,141,186,130,305,0,
1,1774291997520,-325,296,9992,9773,-18325,8552,0,0,0,210,203,183,265,185,271,598,475,204,565,411,216,0,
2,1774291997520,1560,3326,10528,-1494176,-516791,-788016,0,0,0,245,217,157,254,221,250,178,90,123,184,126,301,0,
1,1774291997536,-330,301,10011,19547,-23212,9773,0,0,0,210,201,197,252,188,273,592,470,214,558,418,218,0,
2,1774291997536,2038,1966,10744,-1583362,-252898,-728151,0,0,0,250,220,160,240,228,258,181,89,112,179,128,299,0,
1,1774291997552,-339,296,10016,24434,-19547,9773,0,0,0,224,209,234,253,187,290,571,455,229,550,418,231,0,
2,1774291997552,2230,880,10906,-1556484,-23212,-601091,0,0,0,247,217,157,232,228,255,216,122,147,181,127,299,0,
1,1774291997568,-335,282,10002,29321,-12217,10995,0,0,0,193,164,171,294,206,312,529,419,256,552,420,256,0,
2,1774291997568,2263,-47,11136,-1419650,135612,-370184,0,0,0,239,210,154,237,218,244,210,114,154,204,150,303,0,
1,1774291997584,-311,282,10021,51312,-10995,12217,0,0,0,256,303,233,236,239,267,569,409,201,546,437,233,0,
2,1774291997584,2239,-751,11332,-1275486,200363,-89186,0,0,0,239,214,160,240,215,241,206,86,161,209,186,311,0,
1,1774291997600,-311,282,10054,74525,-12217,13439,0,0,0,272,329,199,244,240,272,561,368,197,546,372,249,0,
2,1774291997600,2120,-1249,11395,-1211956,197920,144164,0,0,0,237,214,166,242,214,238,210,102,169,177,131,296,0,
1,1774291997616,-315,263,10059,92851,-13439,14660,0,0,0,270,318,221,237,211,277,547,351,200,540,365,248,0,
2,1774291997616,1761,-1765,11328,-1231504,223576,333532,0,0,0,249,227,178,229,212,235,215,124,165,161,118,292,0,
1,1774291997632,-306,234,10045,106290,-12217,14660,0,0,0,254,326,214,233,236,276,533,318,209,517,338,267,0,
2,1774291997632,1335,-2249,11265,-1298699,310319,458148,0,0,0,245,217,159,248,231,244,232,125,172,177,137,300,0,
1,1774291997648,-301,220,10035,119729,-10995,14660,0,0,0,273,351,220,239,233,296,516,297,223,489,289,299,0,
2,1774291997648,914,-2900,11170,-1407433,499687,538783,0,0,0,259,216,166,247,219,245,211,126,143,185,150,306,0,
1,1774291997664,-287,205,10054,136833,-10995,14660,0,0,0,188,257,137,275,273,318,490,291,237,468,295,315,0,
2,1774291997664,617,-3680,10988,-1495398,702495,571769,0,0,0,261,227,171,230,216,235,216,155,167,175,142,308,0,
1,1774291997680,-268,177,10093,153938,-17104,12217,0,0,0,216,264,138,302,268,336,463,247,249,443,264,331,0,
2,1774291997680,301,-4647,10720,-1502728,860098,557109,0,0,0,256,220,166,238,230,239,207,139,166,176,146,308,0,
1,1774291997696,-253,157,10145,173485,-34208,9773,0,0,0,253,291,157,321,267,342,460,215,242,419,233,346,0,
2,1774291997696,-4,-5800,10275,-1351233,904080,464257,0,0,0,260,216,170,254,229,235,206,95,142,190,137,316,0,
1,1774291997712,-277,138,10198,206472,-54977,7330,0,0,0,222,270,131,328,293,345,455,218,233,388,230,363,0,
2,1774291997712,-229,-6824,9777,-1122770,893084,323758,0,0,0,267,215,172,250,209,220,221,72,139,198,125,315,0,
1,1774291997728,-320,110,10241,259006,-64751,12217,0,0,0,236,281,126,325,298,354,424,214,236,347,225,393,0,
2,1774291997728,-760,-7729,9332,-810007,868650,146607,0,0,0,266,218,167,247,220,219,218,79,147,193,125,305,0,
1,1774291997744,-349,62,10270,323758,-51312,21991,0,0,0,304,323,147,335,303,359,399,196,227,316,231,412,0,
2,1774291997744,-1603,-8456,9126,-488692,772133,7330,0,0,0,255,225,167,256,258,244,202,104,155,176,125,301,0,
1,1774291997760,-382,0,10327,401949,-31764,40317,0,0,0,350,417,175,309,317,364,349,182,229,275,218,404,0,x
2,1774291997760,-2565,-9748,10016,-144164,445931,-63529,0,0,0,242,226,169,248,248,277,228,150,192,180,134,299,0,x
1,1774291997776,-402,-67,10404,493579,-24434,68416,0,0,0,383,444,216,298,302,377,320,187,235,263,216,432,0,
2,1774291997776,-2871,-11634,11122,792903,-532674,-179594,0,0,0,248,223,168,256,232,282,269,193,165,333,234,314,0,
1,1774291997792,-449,-153,10528,593761,-21991,101403,0,0,0,403,464,227,326,305,438,352,153,271,264,179,520,0,
2,1774291997792,-1024,-5379,10528,2263866,-1196074,-416610,0,0,0,243,207,166,257,224,284,250,171,127,327,290,306,0,
1,1774291997808,-478,-210,10892,715934,78190,117286,0,0,0,417,469,208,351,291,417,334,133,250,287,220,507,0,
2,1774291997808,1244,1794,10849,2748893,-609643,-448375,0,0,0,252,217,178,238,209,242,270,250,122,331,381,307,0,
1,1774291997824,-421,-172,11490,878424,261450,122173,0,0,0,406,442,192,307,301,413,327,139,236,280,200,509,0,
2,1774291997824,2005,2388,11543,2608394,-283441,-378736,0,0,0,238,233,151,286,253,291,301,266,188,347,419,307,0,
1,1774291997840,-425,-181,12026,1071457,348193,147829,0,0,0,431,423,177,342,311,392,336,130,219,286,185,496,0,
2,1774291997840,1526,-358,12213,2180788,-381179,-278554,0,0,0,246,249,144,250,237,241,351,372,170,360,475,303,0,
1,1774291997856,-531,-382,12199,1356120,328645,210137,0,0,0,467,437,194,312,317,379,250,140,230,246,191,486,0,
2,1774291997856,981,-1019,12572,1671327,-255341,-183259,0,0,0,271,230,143,246,225,229,418,407,172,382,509,303,0,
1,1774291997872,-531,-555,12591,1707979,375071,268780,0,0,0,463,429,194,270,309,379,172,135,242,213,191,476,0,
2,1774291997872,1005,-703,12179,1011592,-10995,-95294,0,0,0,278,231,153,246,218,239,458,398,191,403,506,308,0,
1,1774291997888,-612,-626,13299,2106263,516791,310319,0,0,0,433,416,165,280,308,351,157,129,213,231,195,442,0,
2,1774291997888,1153,-86,10863,422718,85521,-17104,0,0,0,275,234,161,241,219,245,479,414,200,431,494,314,0,
1,1774291997904,-1067,-794,13931,2670702,761138,398284,0,0,0,378,407,167,303,306,338,180,139,185,243,192,388,0,
2,1774291997904,1052,95,10098,260228,42760,13439,0,0,0,286,232,160,249,217,249,513,460,216,480,508,319,0,
1,1774291997920,-1588,-1119,14213,3233920,1023810,544891,0,0,0,287,367,181,287,298,371,170,133,200,216,181,363,0,
2,1774291997920,1014,95,9973,217468,37873,18325,0,0,0,298,232,155,264,224,255,548,501,226,520,528,325,0,
1,1774291997936,-1852,-1320,15462,3792251,1260825,745255,0,0,0,200,294,142,265,303,380,135,116,207,196,188,365,0,
2,1774291997936,1105,62,10026,147829,52534,10995,0,0,0,290,227,151,273,250,269,558,522,212,517,523,339,0,
1,1774291997952,-1708,-1134,18123,4416555,1585806,924849,0,0,0,161,229,97,267,307,345,141,134,191,194,201,348,0,
2,1774291997952,1139,105,10007,76969,59864,10995,0,0,0,292,229,157,293,255,292,592,526,219,507,530,353,0,
1,1774291997968,-1497,-1105,21158,5076290,2014633,1021366,0,0,0,130,227,99,234,303,307,139,150,182,179,205,334,0,
2,1774291997968,1119,186,9992,45204,74525,14660,0,0,0,295,230,159,291,245,279,647,521,207,515,569,346,0,
1,1774291997984,-1670,-1698,22139,5782450,2211332,1081231,0,0,0,121,206,105,206,269,290,136,136,174,193,183,311,0,
2,1774291997984,1129,186,10016,52534,87964,7330,0,0,0,299,229,162,291,251,277,642,544,245,534,554,349,0,
1,1774291998000,-1158,-1588,21277,6428745,2075720,1165530,0,0,0,89,115,78,207,218,278,139,120,170,177,153,294,0,
2,1774291998000,1158,138,10078,47647,92851,-2443,0,0,0,300,227,155,259,240,238,661,565,219,541,555,345,0,
1,1774291998016,-186,277,18305,6818477,1684766,1197295,0,0,0,37,50,38,173,184,273,125,112,183,181,160,273,0,
2,1774291998016,1210,138,10107,32986,89186,-9773,0,0,0,305,223,149,286,249,265,712,613,278,583,563,322,0,
1,1774291998032,-196,3799,11490,6928433,1033583,1188743,0,0,0,31,24,25,241,148,253,182,98,160,235,140,273,0,
2,1774291998032,1268,134,10093,24434,70860,-13439,0,0,0,311,231,163,246,223,242,697,579,237,598,609,347,0,
1,1774291998048,-201,7063,7925,6590014,333532,1218065,0,0,0,20,23,27,207,155,248,161,101,150,209,142,273,0,
2,1774291998048,1306,105,10088,6108,36651,-14660,0,0,0,305,227,161,270,240,268,724,601,262,590,615,356,0,
1,1774291998064,990,10428,8858,4250400,-408057,1092227,0,0,0,45,30,49,187,159,246,141,98,143,180,130,259,0,
2,1774291998064,1301,129,10107,-23212,-1221,-14660,0,0,0,303,227,161,331,275,285,730,607,250,594,611,360,0,
1,1774291998080,2464,11916,9270,638965,-698829,702495,0,0,0,55,44,51,193,154,238,147,99,148,178,126,257,0,
2,1774291998080,1287,162,10102,-41538,-31764,-15882,0,0,0,306,228,160,303,248,270,734,614,247,589,603,356,0,
1,1774291998096,2048,9116,8418,-2648711,-426383,43982,0,0,0,53,46,42,200,148,225,159,100,144,190,128,251,0,
2,1774291998096,1258,181,10064,-45204,-47647,-18325,0,0,0,313,224,159,283,228,270,732,616,240,588,597,349,0,
1,1774291998112,-224,5101,6843,-3315776,-337197,-448375,0,0,0,40,35,34,199,145,216,168,104,140,191,128,242,0,
2,1774291998112,1229,186,10011,-53756,-48869,-21991,0,0,0,321,219,158,327,249,286,714,608,236,595,597,349,0,
1,1774291998128,-1263,3263,5814,-3061656,-577878,-635299,0,0,0,27,29,30,196,146,211,173,108,140,189,130,240,0,
2,1774291998128,1229,210,9954,-62308,-42760,-26878,0,0,0,327,221,154,329,251,281,707,611,260,589,599,348,0,
1,1774291998144,-526,3460,5939,-2974913,-774577,-553443,0,0,0,34,28,32,207,143,213,187,104,139,206,131,249,0,
2,1774291998144,1244,244,9901,-62308,-40317,-30543,0,0,0,325,227,154,281,233,271,716,621,273,573,595,333,0,
1,1774291998160,-119,3508,6858,-3495370,-590095,-438601,0,0,0,43,22,36,232,134,226,221,94,148,234,119,262,0,
2,1774291998160,1249,248,9882,-54977,-37873,-31764,0,0,0,334,221,167,305,243,278,693,605,258,565,593,335,0,
1,1774291998176,-732,2928,7877,-4036597,-411723,-334754,0,0,0,60,33,31,237,122,197,229,90,143,233,108,216,0,
2,1774291998176,1253,272,9887,-40317,-36651,-32986,0,0,0,332,213,158,310,247,270,689,594,251,578,603,347,0,
1,1774291998192,-1641,2091,8839,-4397007,-463035,-208915,0,0,0,147,114,99,222,118,192,210,75,126,202,96,203,0,
2,1774291998192,1258,291,9897,-20769,-37873,-31764,0,0,0,329,214,161,330,265,297,712,606,277,578,600,347,0,
1,1774291998208,-1832,1363,9906,-4675562,-700051,-85521,0,0,0,35,29,26,231,153,202,225,103,136,226,131,227,0,
2,1774291998208,1258,296,9916,0,-43982,-31764,0,0,0,324,210,152,294,247,267,678,572,221,559,594,323,0,
1,1774291998224,-1670,851,10983,-4911356,-847880,-81855,0,0,0,157,145,119,216,141,201,211,97,133,208,122,224,0,
2,1774291998224,1258,291,9916,12217,-50090,-30543,0,0,0,331,213,144,308,255,273,687,582,224,556,608,320,0,
1,1774291998240,-1780,315,12409,-5138598,-894306,-240680,0,0,0,134,127,99,219,149,200,208,104,128,209,135,221,0,
2,1774291998240,1263,291,9916,29321,-57421,-30543,0,0,0,342,219,145,317,260,290,622,536,222,558,611,322,0,
1,1774291998256,-2206,-311,13869,-5299866,-990823,-454483,0,0,0,117,98,95,221,136,211,214,93,136,210,110,228,0,
2,1774291998256,1249,282,9935,46425,-62308,-30543,0,0,0,325,220,149,304,254,288,663,555,228,550,610,322,0,
1,1774291998272,-2713,-1306,15462,-5357288,-1235169,-700051,0,0,0,62,41,50,230,131,222,219,87,145,215,105,244,0,
2,1774291998272,1249,282,9959,61086,-63529,-31764,0,0,0,297,221,147,283,246,281,669,540,184,546,613,325,0,
1,1774291998288,-2904,-3168,17013,-5145928,-1621236,-934623,0,0,0,34,16,25,193,126,225,218,90,152,213,110,253,0,
2,1774291998288,1253,282,9949,81855,-70860,-36651,0,0,0,297,215,144,273,239,273,672,538,189,549,609,327,0,
1,1774291998304,-2617,-5388,18353,-4691445,-2006081,-1174082,0,0,0,80,51,55,196,117,221,208,84,144,200,99,237,0,
2,1774291998304,1239,268,9935,112399,-79412,-40317,0,0,0,304,213,148,271,231,262,695,570,244,560,598,330,0,
1,1774291998320,-1301,-7762,19564,-3947411,-2316400,-1491732,0,0,0,143,103,110,219,113,228,201,76,142,189,88,237,0,
2,1774291998320,1249,277,9920,157603,-89186,-43982,0,0,0,288,229,158,278,236,271,678,563,245,571,590,338,0,
1,1774291998336,545,-9466,19904,-3442836,-2222327,-1670105,0,0,0,167,127,143,212,112,239,197,74,149,185,87,254,0,
2,1774291998336,1296,234,9920,227241,-111177,-45204,0,0,0,293,235,164,308,268,315,685,549,248,558,571,341,0,
1,1774291998352,1861,-10844,18994,-3407406,-1778839,-1489289,0,0,0,171,129,149,205,107,235,190,72,146,181,83,253,0,
2,1774291998352,1258,119,9959,290771,-140499,-36651,0,0,0,302,240,187,294,242,306,703,538,287,553,527,365,0,
1,1774291998368,2388,-12797,16994,-3601661,-1364672,-879645,0,0,0,172,127,150,206,106,233,190,72,147,183,82,256,0,
2,1774291998368,1201,90,10016,333532,-145385,-34208,0,0,0,332,243,181,300,243,341,694,475,276,512,456,377,0,
1,1774291998384,2440,-15238,14414,-3527135,-1378111,-26878,0,0,0,178,131,156,218,109,243,196,72,154,191,83,258,0,
2,1774291998384,1148,52,10126,387288,-131946,-41538,0,0,0,338,260,170,348,266,380,716,439,291,493,430,421,0,
1,1774291998400,2900,-16889,12299,-2998126,-1434311,514348,0,0,0,181,132,154,226,110,242,199,75,153,202,85,257,0,
2,1774291998400,1100,-4,10232,436157,-96516,-48869,0,0,0,341,238,165,407,311,436,709,327,286,457,355,445,0,
1,1774291998416,3642,-17784,10251,-1975538,-1265712,766025,0,0,0,180,146,153,228,124,241,199,77,147,202,97,257,0,
2,1774291998416,1110,-52,10275,487470,-43982,-51312,0,0,0,359,263,186,396,282,424,665,236,318,423,324,514,0,
1,1774291998432,4254,-18133,8848,-1034805,-1067792,875980,0,0,0,180,155,147,229,132,236,202,87,146,202,107,247,0,
2,1774291998432,1158,-124,10313,558330,8552,-46425,0,0,0,380,302,188,427,354,473,669,169,344,412,236,544,0,
1,1774291998448,5532,-17760,8001,-70860,-916297,978606,0,0,0,152,136,137,178,114,209,164,91,140,168,104,220,0,
2,1774291998448,1258,-229,10385,629191,61086,-47647,0,0,0,424,337,194,455,388,483,639,169,366,347,189,572,0,
1,1774291998464,7221,-16458,8997,560774,-496022,965167,0,0,0,141,160,126,160,146,188,181,178,138,179,169,196,0,
2,1774291998464,1426,-315,10543,701273,83077,-70860,0,0,0,459,349,192,464,408,491,578,164,376,296,140,606,0,
1,1774291998480,8762,-12950,12591,1390329,452040,700051,0,0,0,127,126,107,157,127,181,218,245,143,215,235,190,0,
2,1774291998480,1464,-397,10926,825889,2443,-106290,0,0,0,490,370,193,471,441,523,519,139,393,229,74,647,0,
1,1774291998496,6101,-1794,12959,2599842,1483180,212581,0,0,0,53,46,47,183,123,183,271,277,144,247,287,195,0,
2,1774291998496,1450,-579,11438,1022588,-118507,-135612,0,0,0,538,388,199,491,476,549,448,129,389,165,53,685,0,
1,1774291998512,296,3790,11706,3455053,1605353,147829,0,0,0,0,1,3,199,137,202,317,339,150,296,329,190,0,
2,1774291998512,1847,-564,12998,1379333,-129503,-204028,0,0,0,577,371,191,506,490,540,358,144,342,177,81,692,0,
1,1774291998528,-2316,842,13740,3685960,1629788,202807,0,0,0,0,0,1,208,137,210,388,375,165,354,356,187,0,
2,1774291998528,2105,-205,15295,1966986,4886,-337197,0,0,0,557,384,194,468,444,491,313,175,348,157,66,679,0,
1,1774291998544,-296,-3417,16870,2658485,1507615,35430,0,0,0,0,0,3,230,132,207,463,357,175,382,355,203,0,
2,1774291998544,1828,138,17042,2827084,-122173,-425162,0,0,0,543,419,181,469,459,469,268,138,291,147,37,680,0,
1,1774291998560,1545,-2268,14572,869872,682947,-136833,0,0,0,6,1,9,230,130,212,465,372,178,384,347,212,0,
2,1774291998560,2498,-4,17784,3816686,-646295,-444709,0,0,0,497,401,182,488,446,450,238,131,270,157,110,617,0,
1,1774291998576,746,306,10524,45204,-73303,-117286,0,0,0,23,5,21,212,136,209,447,416,176,385,369,196,0,
2,1774291998576,3991,-157,19176,4808731,-1062905,-598647,0,0,0,436,367,163,440,499,443,213,124,249,142,117,533,0,
1,1774291998592,-330,703,9294,152716,-168598,-57421,0,0,0,31,8,20,240,127,206,529,421,172,424,360,188,0,
2,1774291998592,4862,-153,22148,5957157,-1406211,-934623,0,0,0,382,334,149,384,418,374,173,132,174,144,110,468,0,
1,1774291998608,-492,205,9662,194255,-70860,-39095,0,0,0,44,19,38,246,138,227,520,465,175,442,412,221,0,
2,1774291998608,4503,-674,26082,6995628,-1715309,-1210734,0,0,0,344,285,123,345,366,326,157,122,132,136,107,394,0,
1,1774291998624,-129,-38,10394,65973,-9773,-40317,0,0,0,45,20,42,256,140,241,576,501,188,485,461,225,0,
2,1774291998624,3575,-780,28604,7596720,-1841147,-1265712,0,0,0,303,246,135,295,305,281,170,101,128,139,112,341,0,
1,1774291998640,-81,268,10346,9773,-72082,-20769,0,0,0,51,22,43,270,138,242,636,501,201,501,477,225,0,
2,1774291998640,4292,2512,24981,8065864,-1492954,-1266934,0,0,0,249,221,151,251,250,266,191,127,136,146,124,323,0,
1,1774291998656,-196,397,10212,50090,-125838,0,0,0,0,47,24,44,279,144,263,653,490,186,498,492,248,0,
2,1774291998656,3560,8399,18889,8615643,-1001818,-1396437,0,0,0,221,221,155,249,251,276,181,119,109,145,135,309,0,
1,1774291998672,-239,335,10198,97738,-138055,12217,0,0,0,54,23,49,278,143,257,652,508,209,499,498,243,0,
2,1774291998672,1273,15309,9480,7580837,-1372003,-1612684,0,0,0,216,225,152,269,273,297,163,77,89,135,131,300,0,
1,1774291998688,-244,287,10184,114842,-145385,19547,0,0,0,57,26,41,278,145,233,653,515,197,490,502,214,0,
2,1774291998688,722,18420,6800,3926641,-1977981,-1938886,0,0,0,215,221,153,275,266,303,165,77,111,128,118,304,0,
1,1774291998704,-277,248,10122,105068,-147829,20769,0,0,0,57,23,34,280,144,226,655,512,184,490,493,203,0,
2,1774291998704,2593,16539,9514,-563217,-1364672,-2405587,0,0,0,219,224,161,274,251,283,164,117,131,130,118,299,0,
1,1774291998720,-344,224,10074,79412,-127059,21991,0,0,0,56,19,31,287,141,231,654,510,188,491,481,201,0,
2,1774291998720,2450,11715,9231,-2796541,586430,-2774549,0,0,0,219,221,160,276,246,285,179,157,168,119,113,286,0,
1,1774291998736,-373,215,10031,37873,-75747,21991,0,0,0,53,22,31,290,145,231,655,508,187,488,478,196,0,
2,1774291998736,-105,9078,6920,-2970026,1353677,-2664594,0,0,0,222,225,152,263,249,275,205,147,168,117,118,276,0,
1,1774291998752,-344,224,10007,2443,-25656,24434,0,0,0,50,24,32,288,151,231,655,501,183,485,478,200,0,
2,1774291998752,-1828,8040,6034,-3114190,676838,-2048842,0,0,0,221,229,151,280,275,295,176,113,123,132,128,293,0,
1,1774291998768,-296,229,10016,-19547,6108,29321,0,0,0,49,28,34,284,154,245,646,503,205,476,474,214,0,
2,1774291998768,-1076,7116,6628,-3650530,-39095,-1358564,0,0,0,224,225,152,267,245,274,207,143,168,136,134,291,0,
1,1774291998784,-263,239,10016,-32986,23212,34208,0,0,0,41,46,31,273,176,253,645,511,221,472,472,216,0,
2,1774291998784,1263,5939,7714,-4317595,-162490,-706160,0,0,0,223,230,160,256,245,303,191,135,148,116,115,285,0,
1,1774291998800,-258,258,9997,-37873,29321,35430,0,0,0,49,39,26,307,159,229,653,501,177,486,459,198,0,
2,1774291998800,2818,4402,8858,-4818505,518013,-282219,0,0,0,224,243,157,255,258,253,156,89,104,126,127,276,0,
1,1774291998816,-253,263,9973,-32986,35430,32986,0,0,0,200,132,109,247,116,213,638,488,161,465,464,190,0,
2,1774291998816,2976,2775,10399,-5185024,1277930,0,0,0,0,222,244,149,247,249,253,146,113,108,121,128,264,0,
1,1774291998832,-224,263,9964,-26878,36651,31764,0,0,0,159,100,79,278,127,220,642,475,166,485,453,186,0,
2,1774291998832,2244,1258,12471,-5414709,1742187,235793,0,0,0,217,231,144,255,236,265,154,115,101,122,131,275,0,
1,1774291998848,-201,291,9978,-4886,25656,30543,0,0,0,69,43,44,266,147,226,625,474,195,486,450,216,0,
2,1774291998848,1856,-71,14534,-5602855,1887573,486248,0,0,0,214,224,153,243,228,259,186,121,126,122,124,282,0,
1,1774291998864,-191,315,10007,36651,8552,30543,0,0,0,57,45,41,263,161,237,612,509,210,482,450,236,0,
2,1774291998864,2234,-1048,15979,-5764124,1821600,713490,0,0,0,218,226,157,252,236,257,203,129,149,123,126,281,0,
1,1774291998880,-186,311,10031,96516,-7330,30543,0,0,0,62,45,57,281,169,292,606,494,250,473,431,282,0,
2,1774291998880,2995,-2024,17458,-5847202,1814269,971275,0,0,0,219,225,151,266,251,262,200,124,137,119,127,279,0,
1,1774291998896,-186,291,10050,157603,-18325,28099,0,0,0,67,60,60,271,161,288,602,419,246,473,400,291,0,
2,1774291998896,3651,-2919,19171,-5781228,1905899,1242499,0,0,0,215,221,146,259,254,262,202,139,126,115,117,275,0,
1,1774291998912,-215,253,10069,222354,-10995,28099,0,0,0,77,68,47,288,183,258,603,363,204,461,369,269,0,
2,1774291998912,3943,-3914,21220,-5596747,2083050,1560149,0,0,0,218,223,149,265,248,260,204,171,144,127,122,278,0,
1,1774291998928,-215,186,10107,265115,2443,31764,0,0,0,83,89,48,309,218,267,601,318,199,432,321,279,0,
2,1774291998928,3608,-5867,23862,-5409822,2271196,2076941,0,0,0,217,222,157,257,256,260,193,131,149,136,126,284,0,
1,1774291998944,-196,124,10174,290771,15882,36651,0,0,0,86,109,55,325,238,295,597,260,221,408,268,318,0,
2,1774291998944,2857,-9164,25211,-5352401,2420248,2620611,0,0,0,211,220,140,300,284,310,186,77,115,131,122,277,0,
1,1774291998960,-201,81,10260,307876,24434,43982,0,0,0,94,105,49,352,254,313,590,225,224,384,239,341,0,
2,1774291998960,894,-16228,24244,-5259549,2933374,3051882,0,0,0,214,220,150,272,263,277,191,113,133,120,122,280,0,
1,1774291998976,-210,47,10337,329867,36651,52534,0,0,0,107,136,60,344,278,346,561,226,252,322,207,371,0,
2,1774291998976,-1713,-25494,20837,-4937012,3249803,3181386,0,0,0,226,236,158,249,241,243,175,119,106,159,140,284,0,
1,1774291998992,-201,19,10413,377514,61086,61086,0,0,0,147,171,90,354,285,400,536,178,305,291,180,450,0,
2,1774291998992,-2502,-34888,16855,-4133114,2500882,2597398,0,0,0,214,221,134,257,257,255,182,104,114,160,158,271,0,
1,1774291999008,-191,4,10638,444709,62308,74525,0,0,0,208,250,106,354,390,407,440,191,249,252,196,444,0,
2,1774291999008,-2129,-40933,12510,-1771509,1714087,819781,0,0,0,217,192,125,292,258,277,236,132,161,229,189,292,0,
1,1774291999024,-268,-4,11337,653625,-24434,109955,0,0,0,173,264,77,339,372,425,371,198,265,238,212,503,0,
2,1774291999024,-9097,-41067,10476,1227839,840550,-752585,0,0,0,197,182,117,276,249,262,287,224,151,296,285,273,0,
1,1774291999040,-416,-71,12500,1036027,-224798,179594,0,0,0,224,305,99,347,382,427,293,196,286,204,196,524,0,
2,1774291999040,-10835,-27216,11576,3447723,-1070235,-654847,0,0,0,191,174,115,274,228,264,305,286,124,301,338,248,0,
1,1774291999056,-478,-81,13749,1655444,-431270,272445,0,0,0,277,353,112,343,360,427,264,187,273,236,208,511,0,
2,1774291999056,-3919,-3991,14381,4546059,-1998751,-41538,0,0,0,199,176,123,261,219,264,335,332,148,343,392,259,0,
1,1774291999072,-368,-38,13965,2239431,-289550,307876,0,0,0,330,377,141,320,363,448,190,163,276,237,204,499,0,
2,1774291999072,1708,6092,15439,4349360,-850324,227241,0,0,0,218,189,127,259,235,266,388,387,193,408,462,280,0,
1,1774291999088,-349,-129,14065,2736676,250454,268780,0,0,0,282,318,122,302,340,431,146,134,261,242,204,509,0,
2,1774291999088,1115,1005,15266,4109901,119729,-74525,0,0,0,244,203,130,276,260,279,451,424,217,440,509,294,0,
1,1774291999104,-732,-253,15367,3323106,781907,246789,0,0,0,230,297,93,315,349,417,135,132,240,245,216,456,0,
2,1774291999104,693,-3464,15462,3376863,287106,-312763,0,0,0,282,215,155,268,262,283,510,434,229,474,529,322,0,
1,1774291999120,-1445,-162,18004,4269948,1037249,339641,0,0,0,180,293,77,307,381,412,131,150,236,221,233,405,0,
2,1774291999120,1407,-3115,14218,1970651,39095,-218689,0,0,0,335,228,176,258,239,282,541,461,226,514,539,347,0,
1,1774291999136,-2220,-76,21631,5447696,1382998,499687,0,0,0,126,272,70,280,388,392,129,161,235,188,236,372,0,
2,1774291999136,1464,-1129,11442,692721,-46425,-29321,0,0,0,367,240,177,294,256,316,590,446,247,524,518,373,0,
1,1774291999152,-2933,-397,28609,6874677,1987755,714712,0,0,0,98,228,70,261,343,350,129,148,208,171,213,336,0,
2,1774291999152,1215,-229,9715,53756,-36651,20769,0,0,0,396,261,193,281,260,324,604,469,264,615,541,416,0,
1,1774291999168,-3010,-670,33974,8163603,2525316,845437,0,0,0,82,143,74,227,260,306,122,125,172,161,178,313,0,
2,1774291999168,1139,-263,9992,26878,-75747,-15882,0,0,0,415,281,212,327,297,360,596,458,252,635,543,457,0,
1,1774291999184,-4048,923,33668,9043248,2592512,902858,0,0,0,50,62,57,196,188,277,130,114,166,151,148,269,0,
2,1774291999184,1134,-191,10361,31764,-138055,-24434,0,0,0,428,282,207,334,299,368,593,490,228,640,541,430,0,
1,1774291999200,-6293,7226,29226,9539271,1727526,1112996,0,0,0,30,24,21,184,148,237,132,109,145,177,145,241,0,
2,1774291999200,1095,-38,10356,34208,-160046,-14660,0,0,0,429,300,231,375,323,359,596,493,224,651,550,461,0,
1,1774291999216,-6925,14472,18463,9591805,574213,1440420,0,0,0,36,46,26,183,168,239,137,115,154,171,154,248,0,
2,1774291999216,1057,0,10222,69638,-127059,-10995,0,0,0,436,313,259,349,333,368,619,501,285,635,523,488,0,
1,1774291999232,-3756,18037,5407,6885672,12217,1481959,0,0,0,51,30,27,202,132,229,146,86,139,188,119,235,0,
2,1774291999232,1052,-28,10184,113620,-90408,-13439,0,0,0,467,317,263,344,329,369,607,478,288,612,532,492,0,
1,1774291999248,-588,15199,8245,990823,417831,817337,0,0,0,32,30,22,191,145,230,141,96,142,191,127,240,0,
2,1774291999248,1062,-62,10165,135612,-72082,-14660,0,0,0,471,322,253,345,321,362,579,431,264,575,522,474,0,
1,1774291999264,-933,9944,11270,-2745228,607200,216246,0,0,0,30,26,24,185,134,228,141,92,143,178,120,236,0,
2,1774291999264,1072,-90,10088,141720,-62308,-14660,0,0,0,462,323,251,353,326,383,565,401,273,546,489,489,0,
1,1774291999280,-2742,5719,8657,-3110525,100181,21991,0,0,0,69,59,73,171,118,218,125,80,130,159,107,228,0,
2,1774291999280,1076,-114,9992,136833,-62308,-15882,0,0,0,467,316,257,356,322,401,565,414,303,533,460,511,0,
1,1774291999296,-1574,5814,5015,-2449569,-593761,201585,0,0,0,112,111,112,166,115,214,120,75,125,155,101,222,0,
2,1774291999296,1052,-124,9964,131946,-57421,-20769,0,0,0,471,311,256,343,292,380,563,434,308,518,441,507,0,
1,1774291999312,435,6503,4130,-2718350,-790459,296880,0,0,0,116,110,106,169,113,204,120,79,121,154,106,212,0,
2,1774291999312,1043,-138,9959,131946,-50090,-25656,0,0,0,465,311,253,346,293,387,549,390,287,505,419,532,0,
1,1774291999328,1143,6245,5522,-3792251,-450818,206472,0,0,0,101,96,93,170,118,200,125,89,124,159,116,214,0,
2,1774291999328,1043,-157,9964,135612,-40317,-29321,0,0,0,470,308,245,370,325,419,520,318,264,484,399,523,0,
1,1774291999344,201,5273,6776,-4577824,-315206,109955,0,0,0,102,99,96,167,124,206,128,98,130,164,125,226,0,
2,1774291999344,1052,-181,9968,141720,-30543,-30543,0,0,0,457,313,255,344,298,395,535,323,298,464,414,532,0,
1,1774291999360,-952,4278,7944,-5081177,-630412,101403,0,0,0,108,96,102,165,118,209,126,95,133,160,125,231,0,
2,1774291999360,1052,-201,9987,152716,-20769,-32986,0,0,0,457,316,238,415,337,414,549,253,279,464,359,564,0,
1,1774291999376,-985,3517,9571,-5577199,-1059240,139277,0,0,0,93,82,95,160,107,205,125,78,137,158,112,230,0,
2,1774291999376,1052,-215,9987,160046,-13439,-32986,0,0,0,462,342,232,396,373,418,536,259,260,464,344,575,0,
1,1774291999392,-813,2627,11375,-6043900,-1295034,144164,0,0,0,80,72,80,153,105,199,119,72,133,163,110,242,0,
2,1774291999392,1062,-244,9983,164933,-13439,-32986,0,0,0,464,339,201,417,357,469,512,214,276,448,286,580,0,
1,1774291999408,-918,1478,13601,-6416528,-1382998,103847,0,0,0,75,73,73,167,120,205,122,79,128,168,119,239,0,
2,1774291999408,1081,-277,9983,169820,-15882,-35430,0,0,0,481,332,191,397,328,456,493,214,269,425,275,575,0,
1,1774291999424,-1100,660,15807,-6616892,-1488067,-2443,0,0,0,27,30,31,171,121,211,123,80,121,159,110,217,0,
2,1774291999424,1076,-306,9987,173485,-17104,-39095,0,0,0,473,330,217,399,332,470,487,175,270,423,261,606,0,
1,1774291999440,-1172,-248,18128,-6819699,-1660331,-172263,0,0,0,27,29,31,172,110,212,135,69,132,159,89,217,0,
2,1774291999440,1076,-320,10007,183259,-18325,-40317,0,0,0,477,346,231,411,369,480,487,163,279,402,249,619,0,
1,1774291999456,-1330,-3072,21205,-6921103,-2086715,-494800,0,0,0,127,108,107,182,112,220,149,81,137,150,88,215,0,
2,1774291999456,1100,-344,10054,201585,-19547,-43982,0,0,0,487,367,225,417,369,490,508,174,299,398,207,638,0,
1,1774291999472,-492,-9016,23790,-6219829,-2939483,-1000597,0,0,0,115,101,112,182,119,227,145,83,136,146,88,216,0,
2,1774291999472,1124,-373,10117,237015,-15882,-51312,0,0,0,517,373,211,431,362,502,514,152,316,382,176,637,0,
1,1774291999488,2445,-15180,25302,-5097059,-3580892,-1654223,0,0,0,67,63,78,193,125,228,155,84,138,162,95,224,0,
2,1774291999488,1134,-402,10184,283441,-6108,-61086,0,0,0,558,375,201,437,378,505,507,135,339,351,162,640,0,
1,1774291999504,6001,-20813,24733,-4287052,-3211929,-2206445,0,0,0,110,99,104,195,124,225,168,84,142,166,94,224,0,
2,1774291999504,1158,-435,10289,351858,18325,-73303,0,0,0,574,394,215,436,399,516,501,149,365,339,135,681,0,
1,1774291999520,5886,-27322,20526,-4254065,-1991420,-1949881,0,0,0,156,135,132,199,123,228,177,81,144,173,89,219,0,
2,1774291999520,1244,-473,10543,459370,51312,-94073,0,0,0,583,426,235,468,432,545,467,140,354,306,116,693,0,
1,1774291999536,4178,-32845,15118,-4197865,-1326799,-1014036,0,0,0,162,138,133,204,124,229,183,80,144,178,90,218,0,
2,1774291999536,1478,-512,11093,654847,98960,-136833,0,0,0,604,443,194,492,466,552,459,156,345,241,99,705,0,
1,1774291999552,3843,-37037,10772,-3240029,-1268156,8552,0,0,0,149,121,119,209,126,230,188,82,144,178,93,221,0,
2,1774291999552,1569,-521,11954,950506,157603,-199142,0,0,0,612,436,239,518,445,537,423,181,351,180,28,732,0,
1,1774291999568,5149,-39827,8064,-1205847,-1264491,638965,0,0,0,88,69,72,207,132,234,206,114,149,182,112,219,0,
2,1774291999568,1287,-473,12878,1352455,160046,-241902,0,0,0,628,432,221,515,448,563,346,100,338,164,24,749,0,
1,1774291999584,7571,-37257,8801,778242,-973719,693942,0,0,0,0,0,7,193,138,216,263,204,157,208,170,198,0,
2,1774291999584,1249,-507,13529,1805717,-20769,-218689,0,0,0,638,483,229,467,469,544,302,99,332,143,24,751,0,
1,1774291999600,7977,-21928,13294,2356718,178372,489913,0,0,0,0,0,5,205,128,181,326,247,147,310,241,178,0,
2,1774291999600,1493,-650,13979,2331061,-245567,-212581,0,0,0,616,456,226,423,472,506,238,122,305,87,31,734,0,
1,1774291999616,3618,6518,13831,3683517,1909564,240680,0,0,0,2,0,1,214,147,207,346,283,151,347,333,170,0,
2,1774291999616,1852,-737,14816,2978578,-430049,-257785,0,0,0,589,455,210,441,487,532,181,120,332,87,61,722,0,
1,1774291999632,-382,15654,13127,4224743,2725680,105068,0,0,0,34,16,27,239,165,246,432,393,183,440,436,193,0,
2,1774291999632,2569,-717,16530,3753156,-627969,-355523,0,0,0,543,457,197,425,533,533,162,114,295,117,81,687,0,
1,1774291999648,1048,646,17272,3591887,1535715,-34208,0,0,0,42,14,31,255,147,255,461,430,195,487,460,209,0,
2,1774291999648,3627,-593,19459,4891808,-907745,-582765,0,0,0,500,440,176,438,527,499,153,112,244,147,96,614,0,
1,1774291999664,1569,-6877,17669,1711644,118507,-92851,0,0,0,50,21,40,256,139,264,473,417,210,475,456,275,0,
2,1774291999664,4154,-57,23383,6189286,-1293812,-871093,0,0,0,459,413,160,449,479,441,133,109,198,159,105,532,0,
1,1774291999680,277,-2651,12744,239459,-293215,-81855,0,0,0,131,81,81,272,146,269,527,434,210,500,464,263,0,
2,1774291999680,4316,-57,28212,7652919,-1865582,-1098335,0,0,0,395,368,157,401,434,375,126,111,170,143,95,448,0,
1,1774291999696,-445,995,9399,80634,-79412,-56199,0,0,0,204,110,127,280,140,295,561,467,233,520,480,284,0,
2,1774291999696,4460,-2153,31930,8963836,-1931555,-1171639,0,0,0,309,292,154,320,371,324,145,111,169,118,75,363,0,
1,1774291999712,-459,885,9284,162490,23212,-31764,0,0,0,150,73,96,280,150,320,578,488,247,540,507,316,0,
2,1774291999712,3685,-392,29896,9458637,-1036027,-1185078,0,0,0,245,221,139,276,267,284,156,83,137,122,71,311,0,
1,1774291999728,-306,9,10327,70860,9773,-12217,0,0,0,89,38,61,282,150,330,588,498,252,563,535,323,0,
2,1774291999728,3742,7575,23177,9441533,-467922,-1291369,0,0,0,233,207,142,268,239,265,195,73,120,145,84,294,0,
1,1774291999744,-229,9,10638,-51312,4886,0,0,0,0,91,40,67,285,141,333,594,502,261,589,556,321,0,
2,1774291999744,5551,13275,12936,8864876,-255341,-1846034,0,0,0,244,210,140,284,245,260,201,58,104,174,92,278,0,
1,1774291999760,-263,397,10294,-78190,8552,7330,0,0,0,143,81,102,273,139,326,590,498,264,608,566,324,0,
2,1774291999760,5474,15793,6365,6091548,317649,-2857627,0,0,0,223,202,143,252,244,253,172,69,80,152,104,273,0,
1,1774291999776,-277,397,10131,-61086,12217,10995,0,0,0,242,150,167,250,126,309,576,494,253,601,564,319,0,
2,1774291999776,2230,16937,6661,780685,874759,-3650530,0,0,0,219,203,139,254,237,247,207,128,142,129,86,275,0,
1,1774291999792,-239,335,10136,-58643,10995,14660,0,0,0,89,55,67,273,158,334,573,500,260,604,559,322,0,
2,1774291999792,-449,12672,9317,-3563787,717155,-3441614,0,0,0,213,216,135,266,249,280,179,124,137,119,81,288,0,
1,1774291999808,-201,349,10145,-59864,2443,18325,0,0,0,80,49,59,266,165,313,533,508,236,611,574,316,0,
2,1774291999808,-507,7030,8686,-5073846,370184,-2734232,0,0,0,219,227,145,267,251,278,186,114,138,110,77,295,0,
1,1774291999824,-201,373,10069,-54977,0,19547,0,0,0,77,49,49,270,160,275,520,508,216,611,576,284,0,
2,1774291999824,406,4632,6087,-4614476,310319,-2040289,0,0,0,220,214,147,275,251,278,183,79,144,108,73,282,0,
1,1774291999840,-205,378,10002,-52534,0,21991,0,0,0,81,35,51,270,141,267,526,479,202,603,554,256,0,
2,1774291999840,550,3977,5053,-4337143,420275,-1516167,0,0,0,216,195,139,270,243,266,174,95,124,117,76,270,0,
1,1774291999856,-191,392,9983,-45204,-2443,26878,0,0,0,78,36,56,270,148,282,536,460,211,589,548,268,0,
2,1774291999856,330,3598,6039,-4500855,605978,-1029918,0,0,0,213,189,133,274,252,272,182,127,119,130,89,271,0,
1,1774291999872,-172,397,9983,-25656,-12217,30543,0,0,0,78,35,52,272,143,270,523,444,198,583,538,243,0,
2,1774291999872,406,3144,7666,-4820948,868650,-561996,0,0,0,211,191,133,290,266,291,185,117,137,135,98,273,0,
1,1774291999888,-167,402,9983,-1221,-23212,34208,0,0,0,76,32,46,280,149,269,513,432,197,570,509,226,0,
2,1774291999888,789,2627,9428,-5215567,1240056,-152716,0,0,0,210,194,141,276,244,267,180,120,129,133,91,272,0,
1,1774291999904,-157,416,9987,30543,-32986,36651,0,0,0,76,34,46,277,155,268,507,423,203,552,477,229,0,
2,1774291999904,1019,1713,11050,-5637064,1696983,168598,0,0,0,216,200,155,276,244,262,188,120,136,133,91,286,0,
1,1774291999920,-148,440,9973,85521,-42760,35430,0,0,0,77,42,51,275,158,281,504,398,213,542,442,253,0,
2,1774291999920,875,631,12529,-5932723,2128254,430049,0,0,0,216,196,144,294,270,303,189,120,161,126,96,324,0,
1,1774291999936,-148,435,9973,163711,-53756,32986,0,0,0,76,52,56,277,165,301,504,348,221,546,408,287,0,
2,1774291999936,416,-402,14180,-6102543,2431243,734260,0,0,0,217,198,144,302,270,295,153,93,106,142,106,279,0,
1,1774291999952,-167,363,9997,244346,-64751,31764,0,0,0,77,62,57,266,172,293,502,309,220,537,380,314,0,
2,1774291999952,210,-938,16022,-6210056,2367713,1117883,0,0,0,217,191,145,274,247,270,174,126,116,136,104,284,0,
1,1774291999968,-191,277,10016,284663,-67195,34208,0,0,0,91,59,56,266,170,289,491,310,220,504,351,330,0,
2,1774291999968,641,-1330,17937,-6350555,2173458,1475850,0,0,0,220,198,146,273,247,262,200,144,139,129,98,283,0,
1,1774291999984,-205,224,10045,282219,-59864,36651,0,0,0,103,57,61,293,170,311,483,300,221,508,324,353,0,
2,1774291999984,1895,-2402,20229,-6472728,2128254,1748296,0,0,0,214,202,137,266,248,258,181,101,120,139,105,294,0,
1,1774292000000,-215,196,10083,272445,-46425,37873,0,0,0,92,115,59,291,249,345,474,264,231,478,314,334,0,
2,1774292000000,2967,-5360,23029,-6268699,2598620,1916895,0,0,0,213,197,137,247,227,243,157,81,112,145,99,291,0,
1,1774292000016,-220,172,10122,267558,-30543,37873,0,0,0,110,109,60,295,236,340,469,245,214,435,284,367,0,
2,1774292000016,2278,-9739,25876,-5723807,3236364,2196671,0,0,0,209,194,140,254,221,247,155,90,93,140,103,293,0,
1,1774292000032,-220,134,10184,263893,-12217,35430,0,0,0,141,106,73,344,237,353,517,252,236,432,270,385,0,
2,1774292000032,-693,-14855,26369,-5376835,3196046,2580294,0,0,0,209,195,141,272,242,269,162,107,96,143,106,292,0,
1,1774292000048,-220,90,10232,257785,1221,34208,0,0,0,152,113,87,337,222,381,489,212,264,373,195,412,0,
2,1774292000048,-2560,-22000,24201,-5335296,2555860,2841745,0,0,0,214,195,140,274,252,272,176,117,122,147,100,286,0,
1,1774292000064,-229,62,10294,262672,12217,37873,0,0,0,163,138,79,352,259,392,458,206,271,328,190,477,0,
2,1774292000064,-1186,-31509,18425,-4807509,1718974,2516764,0,0,0,219,197,140,280,254,264,192,116,127,149,103,285,0,
1,1774292000080,-282,43,10452,311541,3665,57421,0,0,0,176,168,84,345,295,418,390,203,281,284,211,512,0,
2,1774292000080,-502,-37975,12452,-3163060,1578475,1450194,0,0,0,220,200,138,294,257,261,205,111,118,167,124,280,0,
1,1774292000096,-387,4,10744,426383,-36651,95294,0,0,0,194,186,87,359,316,434,375,175,279,279,204,524,0,
2,1774292000096,-5695,-37611,9978,-978606,2053728,128281,0,0,0,204,197,131,270,235,235,221,118,126,202,177,270,0,
1,1774292000112,-593,-71,11150,673173,-111177,164933,0,0,0,212,202,85,358,327,452,335,157,288,266,191,534,0,
2,1774292000112,-11926,-31509,13462,682947,1485624,-300545,0,0,0,179,210,117,253,260,262,222,174,138,282,275,272,0,
1,1774292000128,-856,-153,11811,1017701,-74525,252898,0,0,0,227,225,87,348,341,454,282,166,291,253,197,537,0,
2,1774292000128,-8758,-13184,15616,2521651,56199,-243124,0,0,0,178,167,122,256,240,258,277,294,162,326,316,276,0,
1,1774292000144,-483,-47,13299,1447750,125838,323758,0,0,0,247,245,91,356,344,433,273,171,273,264,201,533,0,
2,1774292000144,430,4513,11294,3661526,-1045801,-305432,0,0,0,179,155,110,280,249,259,271,353,127,343,402,310,0,
1,1774292000160,-62,86,14568,1943773,332310,320093,0,0,0,284,267,102,337,320,422,227,154,273,259,197,518,0,
2,1774292000160,4302,6728,9652,4245513,-1247386,-310319,0,0,0,202,172,105,297,234,270,336,388,119,416,430,270,0,
1,1774292000176,-449,-119,14515,2539977,520457,320093,0,0,0,305,297,116,308,315,406,173,129,276,259,209,488,0,
2,1774292000176,2234,33,12179,4388455,-830776,-164933,0,0,0,225,187,120,293,227,292,402,456,157,447,477,291,0,
1,1774292000192,-780,-421,14170,3117856,769690,368962,0,0,0,248,278,85,322,346,386,159,133,260,269,224,462,0,
2,1774292000192,402,-2579,14615,3893655,-456927,-171042,0,0,0,234,189,121,285,235,288,459,477,180,459,513,305,0,
1,1774292000208,-847,-459,15692,3742160,1048244,442266,0,0,0,201,274,73,340,329,358,151,127,219,264,222,401,0,
2,1774292000208,1177,-2024,15711,3001791,-343306,-223576,0,0,0,251,198,127,260,220,274,528,527,199,508,536,321,0,
1,1774292000224,-1263,-186,19396,4692666,1353677,525344,0,0,0,217,345,128,237,281,342,128,129,254,173,190,381,0,
2,1774292000224,2124,-1148,14481,1633453,-301767,-92851,0,0,0,282,202,135,274,217,281,590,564,223,561,535,338,0,
1,1774292000240,-1962,57,24594,5990144,1753183,652404,0,0,0,143,267,92,254,309,335,124,132,190,184,206,376,0,
2,1774292000240,1421,-856,11844,723264,-130725,32986,0,0,0,316,211,148,299,231,297,618,563,242,588,536,367,0,
1,1774292000256,-1890,-507,30902,7508755,2151467,764803,0,0,0,129,232,100,216,272,314,117,133,184,159,191,351,0,
2,1774292000256,1081,-382,10011,260228,7330,43982,0,0,0,337,223,162,294,229,300,628,568,244,613,559,400,0,
1,1774292000272,-1579,-1124,32907,8531343,2105041,780685,0,0,0,39,86,44,187,228,280,132,124,171,158,159,294,0,
2,1774292000272,1320,-157,9959,213802,2443,0,0,0,0,347,209,161,320,226,305,652,576,229,643,564,396,0,
1,1774292000288,-1550,1919,29609,9033475,1836260,775798,0,0,0,17,37,32,173,198,275,138,128,186,157,151,283,0,
2,1774292000288,1426,-119,10174,151494,-21991,-9773,0,0,0,357,221,170,319,230,316,663,575,216,635,554,389,0,
1,1774292000304,-3565,8944,22268,9250943,1696983,805120,0,0,0,28,43,39,177,184,267,138,129,184,156,151,276,0,
2,1774292000304,1387,-90,10236,54977,-35430,-2443,0,0,0,352,211,161,319,236,317,665,574,224,631,555,398,0,
1,1774292000320,-4249,11844,12945,9417098,1457524,703716,0,0,0,39,53,44,181,177,253,134,118,166,162,148,260,0,
2,1774292000320,1373,-14,10150,25656,-35430,-3665,0,0,0,380,211,165,343,257,333,670,579,252,647,558,416,0,
1,1774292000336,-1421,11844,8777,7475768,1314581,317649,0,0,0,50,60,54,184,168,254,136,109,169,177,148,261,0,
2,1774292000336,1402,0,10098,29321,-47647,-8552,0,0,0,373,213,167,316,216,321,652,558,222,656,575,423,0,
1,1774292000352,167,14376,8030,1987755,1495398,14660,0,0,0,38,43,47,195,165,259,142,108,175,183,143,268,0,
2,1774292000352,1402,-9,10074,32986,-68416,-9773,0,0,0,373,217,163,342,241,309,659,561,222,646,564,410,0,
1,1774292000368,-1828,12993,7939,-2527760,1244943,63529,0,0,0,50,54,56,170,162,249,128,101,162,159,133,262,0,
2,1774292000368,1383,-4,10035,24434,-86742,-8552,0,0,0,360,220,163,341,255,325,659,551,223,638,564,407,0,
1,1774292000384,-3603,7743,7389,-4175874,41538,265115,0,0,0,127,143,146,149,127,236,121,86,168,152,114,255,0,
2,1774292000384,1383,0,10007,19547,-105068,-9773,0,0,0,351,244,167,309,251,324,651,551,234,632,562,402,0,
1,1774292000400,-2967,4082,6326,-4273613,-1092227,405614,0,0,0,85,98,118,157,136,256,125,90,182,161,122,282,0,
2,1774292000400,1373,0,9987,19547,-123394,-14660,0,0,0,371,247,167,299,258,318,627,550,242,630,562,405,0,
1,1774292000416,-1028,3345,5671,-3952298,-1413542,447153,0,0,0,19,22,34,173,158,264,140,106,186,170,141,286,0,
2,1774292000416,1359,0,9968,18325,-141720,-18325,0,0,0,377,260,172,327,272,321,612,536,236,630,558,402,0,
1,1774292000432,-143,3579,6068,-4114788,-1125213,395840,0,0,0,21,27,33,183,162,254,143,103,184,175,138,275,0,
2,1774292000432,1335,-19,9949,15882,-157603,-21991,0,0,0,364,287,183,327,266,317,610,518,236,621,540,387,0,
1,1774292000448,-430,3541,7130,-4618141,-919963,313984,0,0,0,12,35,26,164,186,267,130,122,197,164,167,297,0,
2,1774292000448,1292,-19,9925,9773,-153938,-24434,0,0,0,363,275,184,278,236,304,609,515,267,605,522,378,0,
1,1774292000464,-1119,3105,8595,-5255884,-982271,259006,0,0,0,23,33,30,168,174,274,132,111,198,161,145,295,0,
2,1774292000464,1258,-9,9911,9773,-136833,-26878,0,0,0,360,258,182,286,226,317,604,514,280,605,523,391,0,
1,1774292000480,-1612,2201,10174,-5783672,-1222952,259006,0,0,0,15,19,29,175,157,264,135,103,181,169,137,285,0,
2,1774292000480,1239,0,9897,23212,-114842,-28099,0,0,0,372,271,191,299,257,340,559,477,230,621,523,410,0,
1,1774292000496,-1866,1100,11763,-6106208,-1521054,285884,0,0,0,12,15,29,175,154,266,131,99,181,169,134,284,0,
2,1774292000496,1210,0,9882,42760,-91629,-29321,0,0,0,359,243,175,325,277,369,562,497,234,627,534,437,0,
1,1774292000512,-1660,177,13582,-6256481,-1835039,277332,0,0,0,10,13,26,183,160,266,129,96,172,166,127,270,0,
2,1774292000512,1210,0,9882,73303,-64751,-29321,0,0,0,389,285,195,305,270,366,546,466,259,596,519,455,0,
1,1774292000528,-961,-545,16018,-6450736,-2059837,119729,0,0,0,13,11,22,191,163,257,130,90,155,164,119,256,0,
2,1774292000528,1234,-9,9911,118507,-41538,-31764,0,0,0,373,277,187,322,300,362,560,456,251,564,479,459,0,
1,1774292000544,-378,-1387,18525,-6692639,-2127032,-162490,0,0,0,16,11,22,191,165,254,131,88,152,163,118,256,0,
2,1774292000544,1258,-19,9949,174707,-34208,-35430,0,0,0,396,268,179,332,308,360,495,394,268,561,438,458,0,
1,1774292000560,-430,-3488,21052,-6857573,-2144136,-587652,0,0,0,10,11,27,195,177,257,139,100,153,165,128,253,0,
2,1774292000560,1258,-47,9983,235793,-31764,-40317,0,0,0,423,263,198,385,293,379,573,373,269,533,385,498,0,
1,1774292000576,-727,-7939,23302,-6641326,-2498438,-1100779,0,0,0,25,39,28,197,192,251,149,121,155,173,150,256,0,
2,1774292000576,1263,-86,10031,298102,-25656,-42760,0,0,0,431,287,230,413,339,424,624,347,290,489,357,536,0,
1,1774292000592,430,-13921,24661,-5749463,-3263242,-1593136,0,0,0,35,45,24,197,194,244,151,131,154,179,167,255,0,
2,1774292000592,1296,-143,10131,349414,-19547,-45204,0,0,0,445,330,251,411,380,475,618,261,327,446,292,582,0,
1,1774292000608,4312,-19540,23976,-4779409,-3351206,-1958433,0,0,0,27,34,19,199,189,243,157,125,151,184,161,251,0,
2,1774292000608,1344,-191,10275,373849,-14660,-45204,0,0,0,458,367,228,423,407,506,596,170,344,406,212,609,0,
1,1774292000624,6211,-24785,20282,-4610810,-2406809,-1850921,0,0,0,33,23,25,199,160,247,164,109,160,184,133,249,0,
2,1774292000624,1416,-215,10471,405614,-20769,-53756,0,0,0,492,396,195,454,454,518,567,135,352,350,158,620,0,
1,1774292000640,4321,-30916,14716,-4581489,-1562593,-1075122,0,0,0,38,33,31,203,161,245,169,104,157,187,131,249,0,
2,1774292000640,1426,-244,10681,496022,-39095,-73303,0,0,0,558,423,208,474,497,524,517,137,376,282,124,656,0,
1,1774292000656,3474,-36893,10768,-3131295,-1519832,92851,0,0,0,14,26,30,183,179,263,199,178,194,173,172,241,0,
2,1774292000656,1387,-325,11155,680503,-24434,-97738,0,0,0,571,438,214,491,497,525,454,131,376,248,115,694,0,
1,1774292000672,8552,-40842,10370,-646295,-913854,913854,0,0,0,2,6,8,189,179,233,217,282,185,213,268,220,0,
2,1774292000672,1517,-435,12160,962723,-10995,-129503,0,0,0,598,455,194,506,479,521,390,127,342,194,86,710,0,
1,1774292000688,15003,-32600,10677,2223549,1662775,637743,0,0,0,0,0,0,187,164,219,275,327,176,266,299,194,0,
2,1774292000688,1832,-325,13993,1522276,-70860,-193033,0,0,0,607,463,172,484,487,521,296,131,329,159,51,700,0,
1,1774292000704,9691,-10323,12816,3773925,2955366,39095,0,0,0,75,62,48,196,149,207,330,350,167,330,304,190,0,
2,1774292000704,1952,-134,15367,2212553,-256563,-256563,0,0,0,569,495,188,440,507,500,224,98,291,139,91,693,0,
1,1774292000720,-770,6221,15491,4199087,2624277,-20769,0,0,0,75,58,55,215,148,224,397,385,179,402,347,200,0,
2,1774292000720,2043,-134,15912,3048217,-575435,-312763,0,0,0,593,511,180,430,471,475,201,130,281,146,105,666,0,
1,1774292000736,-1947,2680,17855,4020715,1933999,135612,0,0,0,31,17,35,231,167,258,460,419,204,453,397,222,0,
2,1774292000736,2579,-153,17238,3965737,-819781,-426383,0,0,0,562,467,167,401,499,443,158,119,204,150,127,617,0,
1,1774292000752,1919,-4029,16893,2280970,800233,-30543,0,0,0,92,53,64,236,167,263,494,428,215,471,408,243,0,
2,1774292000752,3560,33,19947,4913799,-985936,-593761,0,0,0,514,448,159,437,513,445,170,107,179,156,115,558,0,
1,1774292000768,2258,-2948,12481,572991,-47647,-151494,0,0,0,145,81,83,244,140,251,520,425,223,494,418,248,0,
2,1774292000768,5407,143,23728,6247929,-1502728,-923628,0,0,0,434,426,150,399,481,404,140,98,141,138,103,490,0,
1,1774292000784,201,469,9475,157603,-218689,-85521,0,0,0,83,45,47,261,154,258,546,436,228,526,441,250,0,
2,1774292000784,6422,-339,28217,7519751,-2370157,-1312138,0,0,0,386,380,147,355,426,338,131,89,109,139,114,422,0,
1,1774292000800,-425,780,9370,202807,-128281,-24434,0,0,0,93,60,45,273,180,262,573,469,203,536,469,253,0,
2,1774292000800,6446,-717,31103,8470257,-2780658,-1541823,0,0,0,334,301,142,314,333,287,145,93,110,143,113,351,0,
1,1774292000816,-19,-28,10299,174707,-28099,-2443,0,0,0,99,75,50,281,195,270,582,518,213,520,474,265,0,
2,1774292000816,6580,2029,28274,9133657,-2080607,-1665218,0,0,0,283,232,134,289,256,256,162,100,116,155,98,303,0,
1,1774292000832,272,0,10476,63529,-53756,-2443,0,0,0,95,72,56,279,190,299,633,518,251,520,505,312,0,
2,1774292000832,6154,8006,22148,9596692,-872315,-1901012,0,0,0,264,208,132,292,232,243,178,97,118,166,87,293,0,
1,1774292000848,210,258,10303,54977,-101403,0,0,0,0,91,69,48,279,190,265,632,510,214,526,506,281,0,
2,1774292000848,5269,13591,13644,9276599,18325,-2433687,0,0,0,256,208,134,292,235,244,176,94,118,157,84,294,0,
1,1774292000864,52,358,10169,116064,-123394,10995,0,0,0,90,64,51,277,190,275,618,511,215,514,483,269,0,
2,1774292000864,3498,16946,8676,5672494,896750,-3325550,0,0,0,248,205,132,298,253,242,163,108,87,166,99,282,0,
1,1774292000880,52,234,10169,144164,-114842,17104,0,0,0,87,68,52,281,192,278,630,497,220,505,469,285,0,
2,1774292000880,90,18085,8982,555887,1707979,-3749490,0,0,0,244,205,136,310,266,253,201,127,129,155,102,280,0,
1,1774292000896,71,177,10141,136833,-112399,18325,0,0,0,95,66,55,287,185,288,636,484,231,506,465,302,0,
2,1774292000896,-3101,13074,10155,-3364645,1635897,-3033556,0,0,0,244,210,122,303,240,255,203,83,147,150,97,273,0,
1,1774292000912,28,167,10074,111177,-103847,19547,0,0,0,96,59,52,291,183,282,625,468,223,506,459,309,0,
2,1774292000912,-3187,8312,8269,-4028045,1047023,-2008524,0,0,0,249,206,144,314,240,265,233,147,159,144,83,274,0,
1,1774292000928,0,157,10016,80634,-79412,20769,0,0,0,87,53,45,292,185,272,621,438,213,503,447,289,0,
2,1774292000928,-2072,5958,5302,-3565009,493579,-989601,0,0,0,246,206,130,316,251,254,222,148,160,189,124,286,0,
1,1774292000944,9,143,9978,46425,-43982,24434,0,0,0,77,50,39,296,191,272,621,423,214,498,444,271,0,
2,1774292000944,-1368,5934,4809,-3637091,272445,-205250,0,0,0,238,202,130,298,247,251,206,136,142,166,112,283,0,
1,1774292000960,38,134,9968,15882,-15882,25656,0,0,0,72,49,37,300,197,275,613,426,212,490,453,273,0,
2,1774292000960,-641,5862,5915,-4212526,172263,464257,0,0,0,233,201,126,321,277,264,203,132,120,149,101,278,0,
1,1774292000976,62,134,9968,-2443,-1221,28099,0,0,0,73,48,39,296,191,273,605,402,201,481,453,267,0,
2,1774292000976,607,5159,7441,-4896695,266337,943175,0,0,0,231,195,124,301,258,253,211,139,120,137,91,267,0,
1,1774292000992,95,148,9987,-8552,-1221,31764,0,0,0,75,45,42,296,185,274,606,386,206,477,432,271,0,
2,1774292000992,1847,3838,8877,-5428148,616973,1180191,0,0,0,230,192,126,276,240,245,200,139,121,142,93,270,0,
1,1774292001008,95,162,9997,8552,-7330,29321,0,0,0,74,50,48,294,183,283,616,410,213,486,438,275,0,
2,1774292001008,2230,2225,10600,-5723807,1187522,1100779,0,0,0,233,197,134,288,248,255,201,125,127,153,98,280,0,
1,1774292001024,81,162,9987,41538,-14660,26878,0,0,0,74,47,55,300,176,310,633,387,240,517,427,314,0,
2,1774292001024,2033,832,12682,-5957157,1644449,930958,0,0,0,240,202,138,299,248,261,203,99,128,158,97,283,0,
1,1774292001040,76,134,9968,74525,-18325,25656,0,0,0,74,59,52,317,194,294,624,384,237,480,418,298,0,
2,1774292001040,1804,-234,14845,-6217386,1765400,780685,0,0,0,242,200,134,284,238,251,180,82,115,163,98,284,0,
1,1774292001056,86,110,9978,96516,-20769,26878,0,0,0,87,57,55,324,192,315,622,377,238,466,420,298,0,
2,1774292001056,2258,-1143,16759,-6484945,1640784,753807,0,0,0,240,200,137,285,241,248,176,96,123,166,109,288,0,
1,1774292001072,100,100,10021,116064,-28099,28099,0,0,0,76,52,58,324,192,325,620,358,229,456,411,289,0,
2,1774292001072,3072,-2067,18803,-6665761,1601688,823446,0,0,0,249,207,141,276,229,243,187,96,133,168,101,293,0,
1,1774292001088,110,95,10045,139277,-40317,29321,0,0,0,133,93,89,316,189,315,627,335,244,471,372,300,0,
2,1774292001088,4048,-3330,21119,-6670648,1753183,979827,0,0,0,244,208,143,299,237,244,187,98,112,164,94,284,0,
1,1774292001104,110,76,10050,172263,-53756,30543,0,0,0,105,73,67,329,201,323,635,333,247,460,339,317,0,
2,1774292001104,5111,-6403,24321,-6363994,2161241,1226617,0,0,0,243,211,143,298,248,256,177,98,119,167,102,286,0,
1,1774292001120,105,33,10050,210137,-65973,30543,0,0,0,83,61,46,329,236,339,629,336,258,438,314,337,0,
2,1774292001120,5321,-10658,26709,-5866749,2665815,1506393,0,0,0,243,214,144,297,260,268,167,98,127,171,111,288,0,
1,1774292001136,105,4,10107,241902,-74525,30543,0,0,0,75,92,43,329,278,351,618,327,268,406,283,363,0,
2,1774292001136,3268,-15979,26412,-5381722,3307224,1831373,0,0,0,260,213,141,323,282,278,184,106,119,208,134,300,0,
1,1774292001152,95,-4,10212,263893,-78190,26878,0,0,0,71,94,45,352,268,370,614,270,274,367,220,398,0,
2,1774292001152,-1708,-23431,23206,-5170363,3770260,2109928,0,0,0,254,206,131,315,260,253,180,85,93,181,114,286,0,
1,1774292001168,52,-9,10308,272445,-61086,21991,0,0,0,104,68,52,372,231,403,609,210,301,337,162,433,0,
2,1774292001168,-5623,-31533,18530,-4670675,3257133,2061059,0,0,0,257,212,129,301,251,247,176,95,109,176,113,285,0,
1,1774292001184,4,-14,10452,296880,-35430,21991,0,0,0,139,105,56,379,256,440,586,212,333,308,159,463,0,
2,1774292001184,-5398,-37047,12955,-3048217,1753183,1032362,0,0,0,261,216,138,310,262,264,184,92,114,175,107,283,0,
1,1774292001200,-14,-28,10758,387288,-40317,36651,0,0,0,160,152,75,410,261,469,531,161,328,270,138,516,0,
2,1774292001200,-5494,-38109,9772,-1143539,845437,-438601,0,0,0,237,208,131,293,253,248,200,106,99,188,136,268,0,
1,1774292001216,14,-57,11217,579100,-129503,56199,0,0,0,194,161,72,384,265,470,483,137,344,248,134,535,0,
2,1774292001216,-8973,-34749,10136,477696,601091,-1497841,0,0,0,202,198,113,258,238,219,222,169,88,244,217,249,0,
1,1774292001232,-311,-186,11892,908967,-305432,96516,0,0,0,321,266,121,381,288,459,371,147,317,227,160,546,0,
2,1774292001232,-10782,-19985,18291,2173458,-576656,-1187522,0,0,0,185,188,107,252,242,227,263,244,95,315,306,250,0,
1,1774292001248,-837,-239,13165,1357342,-540004,219911,0,0,0,306,251,112,403,312,491,345,133,326,247,142,539,0,
2,1774292001248,-3531,5809,16836,3897320,-2051285,-447153,0,0,0,181,175,105,259,235,243,307,306,109,350,371,262,0,
1,1774292001264,-416,-52,14754,1982868,-276111,315206,0,0,0,231,203,76,411,321,486,242,125,307,304,173,547,0,
2,1774292001264,2991,13821,10734,4888143,-1985312,-29321,0,0,0,194,187,101,255,239,237,323,401,122,376,439,254,0,
1,1774292001280,-157,-14,15458,2647489,285884,307876,0,0,0,342,265,128,347,290,457,179,118,303,272,157,542,0,
2,1774292001280,2445,3819,12108,5170363,-1097113,185703,0,0,0,221,203,109,279,259,253,429,412,173,443,472,282,0,
1,1774292001296,-220,-43,16065,3455053,698829,287106,0,0,0,229,246,86,317,349,435,142,129,262,262,212,498,0,
2,1774292001296,-1249,-5991,16999,4361577,-210137,75747,0,0,0,253,220,116,263,251,261,509,477,219,495,528,314,0,
1,1774292001312,-454,67,17731,4388455,880867,300545,0,0,0,155,261,62,289,370,435,130,148,272,217,226,451,0,
2,1774292001312,129,-3665,17037,2653598,290771,-249233,0,0,0,287,228,132,289,253,278,545,425,161,565,519,325,0,
1,1774292001328,-1541,392,21722,5663942,1143539,383623,0,0,0,140,295,79,258,376,408,122,152,263,191,225,413,0,
2,1774292001328,2479,-966,13898,1178969,273667,-195476,0,0,0,323,227,148,303,254,305,593,495,246,569,525,351,0,
1,1774292001344,-1943,430,28801,7227757,1848478,575435,0,0,0,105,230,76,247,348,367,119,142,229,175,212,379,0,
2,1774292001344,2416,-215,10538,359188,-14660,47647,0,0,0,351,240,158,301,244,294,634,523,253,582,518,383,0,
1,1774292001360,-2321,-291,34883,8636412,2399478,638965,0,0,0,60,112,54,231,273,325,135,132,200,160,175,324,0,
2,1774292001360,1215,-368,9667,196698,-111177,84299,0,0,0,362,273,159,314,260,312,638,525,226,588,539,379,0,
1,1774292001376,-3618,0,35668,9547823,1937664,648738,0,0,0,41,57,37,209,204,276,169,123,170,182,146,259,0,
2,1774292001376,1062,-315,10102,161268,-54977,12217,0,0,0,365,282,158,321,265,345,642,525,234,608,559,399,0,
1,1774292001392,-4613,6499,30820,9732304,1186300,824668,0,0,0,34,31,16,219,174,247,194,114,151,224,145,235,0,
2,1774292001392,1407,-71,10361,108734,-24434,-19547,0,0,0,368,266,159,328,261,355,658,529,249,632,563,429,0,
1,1774292001408,-5522,15668,16290,9705426,856433,1091005,0,0,0,30,33,21,213,175,248,191,110,157,221,147,242,0,
2,1774292001408,1469,33,10236,101403,-34208,-13439,0,0,0,370,255,162,340,268,355,672,535,266,641,547,441,0,
1,1774292001424,-3541,16343,5259,7590611,1290147,1100779,0,0,0,11,14,17,199,172,250,170,104,153,190,136,245,0,
2,1774292001424,1373,-4,10141,145385,-18325,-12217,0,0,0,370,255,162,348,277,362,684,527,286,630,529,444,0,
1,1774292001440,-1392,14491,7709,2194227,1997529,940732,0,0,0,6,13,19,177,150,250,139,100,161,160,122,251,0,
2,1774292001440,1383,-43,10136,194255,2443,-18325,0,0,0,373,251,157,353,271,361,689,505,269,598,528,451,0,
1,1774292001456,-2498,11380,10801,-2362826,1780061,897971,0,0,0,8,4,15,191,146,250,131,89,147,161,118,245,0,
2,1774292001456,1459,-57,10122,223576,6108,-26878,0,0,0,385,247,156,344,253,365,680,484,284,565,481,466,0,
1,1774292001472,-4383,7528,8925,-3797138,458148,998153,0,0,0,18,10,16,189,148,246,133,89,145,165,118,241,0,
2,1774292001472,1459,-86,10031,246789,-1221,-35430,0,0,0,380,239,176,365,271,367,678,447,293,529,421,505,0,
1,1774292001488,-3177,5340,5221,-3479488,-709825,1076344,0,0,0,20,16,26,196,137,249,150,85,149,184,117,254,0,
2,1774292001488,1440,-153,9959,261450,-8552,-45204,0,0,0,375,231,175,394,268,399,674,387,277,525,389,520,0,
1,1774292001504,-947,4685,3905,-3475823,-1007927,1009149,0,0,0,29,24,31,191,132,249,161,91,162,181,116,253,0,
2,1774292001504,1430,-205,9940,262672,-10995,-50090,0,0,0,371,235,165,381,258,388,667,339,275,484,356,512,0,
1,1774292001520,430,4517,4651,-3987728,-636521,746477,0,0,0,33,25,33,193,134,255,156,88,160,179,112,254,0,
2,1774292001520,1430,-229,9940,255341,-4886,-46425,0,0,0,366,242,161,371,256,403,661,300,283,466,333,544,0,
1,1774292001536,-588,3953,6044,-4596150,-289550,368962,0,0,0,31,24,33,189,129,258,149,86,162,179,112,268,0,
2,1774292001536,1445,-263,9920,254119,-4886,-40317,0,0,0,367,231,160,385,261,417,668,238,287,438,274,552,0,
1,1774292001552,-2105,3431,7422,-5027420,-359188,89186,0,0,0,32,22,32,186,127,256,149,87,165,179,113,272,0,
2,1774292001552,1459,-311,9901,257785,-8552,-34208,0,0,0,357,242,177,391,271,430,667,231,298,405,232,569,0,
1,1774292001568,-2909,2890,9198,-5484348,-786794,-63529,0,0,0,36,23,32,195,132,252,153,86,160,183,112,259,0,
2,1774292001568,1464,-358,9916,262672,-12217,-34208,0,0,0,371,229,167,395,263,419,674,195,330,400,204,574,0,
1,1774292001584,-3230,1952,11270,-6023131,-1181413,-144164,0,0,0,31,23,28,205,139,246,155,87,151,187,116,251,0,
2,1774292001584,1469,-392,9925,263893,-13439,-35430,0,0,0,395,224,147,396,264,407,657,137,323,386,189,562,0,
1,1774292001600,-3646,425,13649,-6503271,-1429424,-158824,0,0,0,36,33,41,195,143,243,157,92,147,182,118,251,0,
2,1774292001600,1474,-440,9920,260228,-14660,-37873,0,0,0,391,236,164,414,305,451,640,119,332,357,190,575,0,
1,1774292001616,-4010,-976,16142,-6684087,-1734857,-150272,0,0,0,139,124,128,181,118,232,139,79,144,164,103,240,0,
2,1774292001616,1478,-473,9949,257785,-15882,-41538,0,0,0,374,233,184,435,331,507,657,136,396,343,170,613,0,
1,1774292001632,-3895,-1919,18679,-6718295,-2127032,-182037,0,0,0,9,7,20,191,142,254,139,88,157,168,114,260,0,
2,1774292001632,1493,-478,10026,265115,-13439,-43982,0,0,0,394,236,156,416,302,483,649,147,398,328,108,625,0,
1,1774292001648,-3551,-3216,21727,-6682865,-2555860,-278554,0,0,0,105,107,108,163,124,231,126,82,147,150,106,244,0,
2,1774292001648,1545,-497,10069,274889,-13439,-48869,0,0,0,421,280,177,467,375,518,630,159,400,306,98,653,0,
1,1774292001664,-3139,-6771,24886,-6466619,-3064100,-497244,0,0,0,88,95,94,170,134,235,134,90,147,145,108,245,0,
2,1774292001664,1603,-531,10141,293215,-28099,-61086,0,0,0,432,278,188,454,361,541,630,153,428,298,81,657,0,
1,1774292001680,-1536,-10748,26762,-6013357,-3590665,-864985,0,0,0,50,54,74,172,129,234,135,84,147,142,98,246,0,
2,1774292001680,1631,-569,10260,329867,-72082,-79412,0,0,0,450,310,211,500,397,548,613,134,422,251,79,662,0,
1,1774292001696,2579,-14089,26982,-5635842,-4003610,-1204626,0,0,0,37,31,40,197,140,252,168,92,172,165,109,265,0,
2,1774292001696,1612,-636,10299,393397,-144164,-97738,0,0,0,469,310,201,499,406,559,556,118,402,214,79,683,0,
1,1774292001712,7006,-17717,25489,-5711589,-4036597,-1177748,0,0,0,115,113,106,182,131,244,155,90,165,149,100,247,0,
2,1774292001712,1574,-722,10337,464257,-212581,-107512,0,0,0,502,338,217,522,478,596,528,119,417,170,38,703,0,
1,1774292001728,9490,-23335,21703,-5856975,-3549127,-662177,0,0,0,139,137,133,172,125,237,147,89,157,141,94,235,0,
2,1774292001728,1545,-794,10686,586430,-324980,-114842,0,0,0,535,358,216,537,510,610,493,150,416,142,42,713,0,
1,1774292001744,8217,-31270,15831,-4884478,-2400700,267558,0,0,0,72,73,76,184,139,248,164,101,168,170,101,242,0,
2,1774292001744,1459,-775,11514,777020,-406836,-123394,0,0,0,557,377,218,525,501,597,408,145,406,127,50,736,0,
1,1774292001760,6767,-37755,11284,-3086091,-1375668,1188743,0,0,0,18,24,33,177,134,238,189,143,171,185,143,225,0,
2,1774292001760,1435,-732,12433,1123992,-307876,-145385,0,0,0,572,394,210,516,494,581,326,114,368,136,71,748,0,
1,1774292001776,14008,-39277,11385,-649960,-729373,1529606,0,0,0,8,13,23,162,124,212,226,224,166,205,218,191,0,
2,1774292001776,1497,-765,12888,1532050,-218689,-173485,0,0,0,592,409,200,537,520,568,279,118,351,176,108,746,0,
1,1774292001792,19640,-25417,12897,1897347,1767844,461814,0,0,0,0,0,1,183,144,204,286,308,166,285,291,184,0,
2,1774292001792,1545,-885,13218,2008524,-248011,-205250,0,0,0,602,434,200,527,529,564,239,120,351,193,113,749,0,
1,1774292001808,10576,363,12471,4068362,4140444,-1040914,0,0,0,0,0,1,208,150,204,343,361,152,363,357,186,0,
2,1774292001808,1660,-971,14175,2609616,-359188,-241902,0,0,0,589,453,202,472,507,563,191,93,329,157,88,754,0,
1,1774292001824,1689,9437,12505,5562538,3704286,-1247386,0,0,0,1,0,2,214,182,234,358,490,162,395,453,197,0,
2,1774292001824,1990,-1005,15434,3357315,-464257,-307876,0,0,0,572,450,207,507,535,548,186,120,331,135,96,730,0,
1,1774292001840,2129,-670,16836,5575977,1965764,-239459,0,0,0,16,6,26,230,157,258,442,532,184,467,517,193,0,
2,1774292001840,2067,-928,17157,4273613,-582765,-411723,0,0,0,547,454,202,592,565,544,249,140,331,164,107,678,0,
1,1774292001856,2311,-5508,20646,4141666,741590,299323,0,0,0,35,11,29,254,168,260,479,531,193,515,537,206,0,
2,1774292001856,1966,-827,20311,5351179,-773355,-507018,0,0,0,494,433,161,465,538,516,190,114,285,144,89,574,0,
1,1774292001872,335,-3005,17291,2040289,307876,40317,0,0,0,61,32,38,275,155,252,528,524,187,554,535,238,0,
2,1774292001872,1756,-985,25967,6697526,-1235169,-560774,0,0,0,439,416,147,419,477,424,182,114,218,131,87,496,0,
1,1774292001888,-162,-248,11859,722042,227241,-245567,0,0,0,76,41,43,282,152,264,565,515,209,569,535,262,0,
2,1774292001888,1660,-1995,31007,8065864,-1783726,-505796,0,0,0,354,343,138,367,437,377,121,84,123,130,112,440,0,
1,1774292001904,416,201,9337,368962,133168,-188146,0,0,0,81,46,46,278,156,271,594,498,224,583,539,265,0,
2,1774292001904,4020,-2866,32079,8991936,-1452637,-333532,0,0,0,302,256,146,293,278,332,176,108,148,118,66,352,0,
1,1774292001920,282,-86,10126,260228,-1221,-25656,0,0,0,85,50,45,283,164,266,610,501,215,598,551,260,0,
2,1774292001920,3517,2962,30035,9379224,-277332,-415388,0,0,0,252,214,140,273,254,320,195,111,146,142,75,316,0,
1,1774292001936,0,52,10629,116064,-54977,29321,0,0,0,89,49,43,287,160,260,619,515,211,603,559,267,0,
2,1774292001936,1742,12639,23699,9624792,-294437,-604756,0,0,0,238,212,140,258,252,303,179,94,130,148,82,303,0,
1,1774292001952,-14,287,10332,54977,-57421,3665,0,0,0,89,45,43,290,155,262,628,524,212,601,561,280,0,
2,1774292001952,3000,16980,11217,8883202,-1204626,-1044579,0,0,0,235,205,137,275,247,287,168,83,111,147,77,286,0,
1,1774292001968,33,344,10136,63529,-81855,0,0,0,0,89,44,44,302,158,273,632,530,207,600,558,287,0,
2,1774292001968,2636,17946,5704,3847229,-1522276,-2150245,0,0,0,229,203,132,286,247,277,162,78,99,144,71,271,0,
1,1774292001984,52,296,10145,117286,-128281,14660,0,0,0,89,41,47,307,154,286,631,528,215,589,545,303,0,
2,1774292001984,952,16128,9040,-1892460,-1235169,-3010343,0,0,0,229,207,133,276,243,280,160,94,103,136,73,265,0,
1,1774292002000,4,258,10136,171042,-168598,20769,0,0,0,80,32,47,297,142,290,636,505,233,576,538,316,0,
2,1774292002000,382,10605,11753,-5132489,-561996,-3263242,0,0,0,229,207,133,283,243,279,170,107,111,126,70,263,0,
1,1774292002016,-57,215,10078,193033,-186924,23212,0,0,0,78,24,49,301,134,282,633,494,234,563,516,298,0,
2,1774292002016,421,5857,8652,-5103168,83077,-3050661,0,0,0,225,207,129,294,255,262,182,90,110,120,63,261,0,
1,1774292002032,-119,172,10007,169820,-174707,23212,0,0,0,85,16,43,321,131,280,628,485,225,564,491,297,0,
2,1774292002032,-425,4522,6034,-4641354,222354,-2755002,0,0,0,221,205,131,250,245,244,182,85,119,122,76,259,0,
1,1774292002048,-138,153,9983,122173,-140499,28099,0,0,0,75,13,49,321,125,295,623,485,223,550,455,310,0,
2,1774292002048,-947,4800,6456,-4935791,-140499,-2288301,0,0,0,221,208,128,154,174,196,178,73,116,126,81,265,0,
1,1774292002064,-124,138,9964,73303,-97738,30543,0,0,0,85,43,50,317,149,278,629,489,213,548,456,290,0,
2,1774292002064,105,4513,7762,-5464800,-367740,-1759291,0,0,0,218,210,127,245,236,229,189,113,118,133,85,258,0,
1,1774292002080,-95,119,9978,39095,-68416,31764,0,0,0,75,19,40,323,128,262,635,468,212,552,452,274,0,
2,1774292002080,2431,3431,9102,-5903401,-97738,-1240056,0,0,0,215,205,126,251,234,229,192,114,86,137,92,262,0,
1,1774292002096,-57,110,10026,9773,-63529,30543,0,0,0,67,22,46,316,128,277,619,462,240,564,446,273,0,
2,1774292002096,4369,1957,10509,-6235712,522900,-810007,0,0,0,223,205,138,255,244,250,139,61,99,152,93,271,0,
1,1774292002112,-47,110,10040,-20769,-65973,30543,0,0,0,66,24,45,315,136,274,613,454,224,565,443,251,0,
2,1774292002112,4857,497,12184,-6472728,1263269,-460592,0,0,0,247,191,133,260,225,242,170,90,96,141,87,266,0,
1,1774292002128,-71,134,9978,-45204,-67195,31764,0,0,0,60,22,42,314,140,286,607,454,223,564,439,249,0,
2,1774292002128,4278,-971,14338,-6685309,1781283,0,0,0,0,236,196,142,260,227,251,194,67,113,136,84,265,0,
1,1774292002144,-105,157,9925,-52534,-59864,35430,0,0,0,57,25,42,314,144,293,604,457,234,564,444,260,0,
2,1774292002144,4149,-2459,16549,-6808703,1970651,529009,0,0,0,220,201,144,252,225,258,185,82,133,141,82,267,0,
1,1774292002160,-124,181,9920,-32986,-46425,37873,0,0,0,63,30,41,316,145,277,606,449,224,562,445,254,0,
2,1774292002160,4982,-3723,18573,-6719517,2030516,1028697,0,0,0,216,199,144,248,229,248,177,93,135,136,84,268,0,
1,1774292002176,-114,191,9954,21991,-39095,39095,0,0,0,71,29,39,319,139,264,611,445,212,552,437,243,0,
2,1774292002176,5943,-4699,20626,-6514266,2197893,1483180,0,0,0,227,201,143,247,231,235,170,68,122,126,82,267,0,
1,1774292002192,-90,181,9978,94073,-40317,37873,0,0,0,80,24,37,330,137,270,627,440,215,538,435,257,0,
2,1774292002192,6613,-5541,23546,-6244264,2577851,1957212,0,0,0,236,203,146,253,221,244,161,70,116,127,79,270,0,
1,1774292002208,-76,153,9992,167377,-51312,36651,0,0,0,77,23,39,335,148,301,637,409,223,536,424,292,0,
2,1774292002208,6274,-7159,26585,-6178291,2974913,2315179,0,0,0,227,200,160,259,213,259,162,89,115,129,83,277,0,
1,1774292002224,-90,124,10026,232128,-61086,36651,0,0,0,73,30,45,340,175,350,630,395,270,515,413,323,0,
2,1774292002224,5436,-10825,28312,-6136752,3359758,2594955,0,0,0,220,199,167,251,215,254,161,79,105,126,83,283,0,
1,1774292002240,-100,90,10122,287106,-61086,37873,0,0,0,72,44,56,327,173,367,629,340,314,467,369,345,0,
2,1774292002240,2569,-17439,26393,-5800776,4091575,2673146,0,0,0,219,197,164,282,244,285,176,107,125,128,75,276,0,
1,1774292002256,-95,52,10232,320093,-52534,37873,0,0,0,90,72,58,346,221,400,634,304,320,429,325,403,0,
2,1774292002256,-2397,-25771,23220,-5115385,4761083,2456899,0,0,0,225,201,140,294,246,279,196,90,104,144,78,272,0,
1,1774292002272,-100,9,10318,350636,-45204,35430,0,0,0,114,72,50,346,213,361,644,246,296,409,228,471,0,
2,1774292002272,-6748,-33720,18277,-4048814,4073249,1572367,0,0,0,225,206,141,296,265,279,178,96,109,136,88,271,0,
1,1774292002288,-114,-33,10418,390953,-42760,34208,0,0,0,107,108,55,360,265,438,625,215,361,340,187,470,0,
2,1774292002288,-6968,-38487,13137,-2726902,2290744,1221,0,0,0,225,204,144,293,244,270,194,87,99,140,82,273,0,
1,1774292002304,-153,-71,10562,425162,-48869,36651,0,0,0,194,170,98,390,253,457,615,162,350,290,148,493,0,
2,1774292002304,-8083,-39923,10849,-796568,944397,-2007303,0,0,0,201,206,125,269,243,286,234,195,127,248,231,247,0,
1,1774292002320,-263,-76,10911,486248,-78190,59864,0,0,0,188,162,79,434,281,493,582,149,370,272,145,532,0,
2,1774292002320,-13548,-31485,16491,1120326,-9773,-2561968,0,0,0,195,176,111,278,239,271,269,257,118,304,357,251,0,
1,1774292002336,-335,-81,11514,681725,-117286,101403,0,0,0,184,172,61,402,325,487,430,161,340,243,171,564,0,
2,1774292002336,-9155,-4958,16219,3499036,-1888795,-1036027,0,0,0,204,163,108,280,227,253,304,335,133,330,419,258,0,
1,1774292002352,-612,-268,12160,1100779,-89186,149051,0,0,0,219,180,64,396,311,463,355,150,311,272,178,569,0,
2,1774292002352,569,8686,10375,5188689,-2378709,392175,0,0,0,202,165,103,279,223,257,345,378,135,355,448,260,0,
1,1774292002368,-1014,-177,14309,1653001,26878,262672,0,0,0,232,178,69,384,293,465,297,139,297,292,183,567,0,
2,1774292002368,1593,2091,12562,5562538,-1385442,445931,0,0,0,201,172,101,278,225,265,407,404,142,381,480,261,0,
1,1774292002384,-569,296,17190,2379930,252898,366519,0,0,0,306,239,115,334,273,466,201,118,284,256,175,567,0,
2,1774292002384,-780,-3699,16477,4913799,-627969,-112399,0,0,0,224,187,113,271,225,280,484,467,192,415,524,278,0,
1,1774292002400,-157,296,17166,3349984,591317,361632,0,0,0,361,290,148,309,258,435,145,93,273,226,165,537,0,
2,1774292002400,-138,-2641,16300,3969402,-551000,-487470,0,0,0,255,202,138,277,234,318,542,523,233,464,560,324,0,
1,1774292002416,-205,296,17831,4294382,852767,329867,0,0,0,193,217,79,313,308,393,126,113,237,231,200,461,0,
2,1774292002416,1569,-1689,15419,2851518,-305432,-272445,0,0,0,274,213,158,286,253,314,580,555,257,510,559,357,0,
1,1774292002432,-708,679,21536,5479461,1053131,337197,0,0,0,166,267,107,267,300,398,111,111,222,184,181,407,0,
2,1774292002432,1732,-1981,14008,1319468,42760,1221,0,0,0,325,235,156,279,243,275,585,548,246,546,582,351,0,
1,1774292002448,-722,1052,28001,7068932,1391551,373849,0,0,0,96,172,78,241,305,392,120,132,239,175,190,397,0,
2,1774292002448,1182,-1182,11328,323758,67195,59864,0,0,0,344,238,233,311,264,341,616,548,256,609,565,375,0,
1,1774292002464,-617,1009,33582,8658403,1561371,333532,0,0,0,75,114,64,226,251,303,123,127,170,151,174,301,0,
2,1774292002464,1038,-258,9676,43982,-45204,17104,0,0,0,382,251,233,312,267,354,614,556,269,631,609,395,0,
1,1774292002480,-1885,1454,34515,9690766,1181413,262672,0,0,0,22,31,25,198,183,253,139,105,150,151,126,241,0,
2,1774292002480,1206,-124,9772,106290,-119729,-19547,0,0,0,383,258,194,297,249,314,642,570,255,664,633,419,0,
1,1774292002496,-4192,7054,30744,10101267,499687,481361,0,0,0,28,21,22,209,164,240,143,101,138,171,135,237,0,
2,1774292002496,1287,-291,10275,58643,-131946,-17104,0,0,0,411,252,176,317,268,328,621,549,232,660,634,422,0,
1,1774292002512,-4924,14544,19095,10283305,-78190,899193,0,0,0,18,21,22,197,172,242,130,114,135,169,154,240,0,
2,1774292002512,1210,-215,10308,-31764,-145385,-9773,0,0,0,423,243,173,326,267,336,633,567,239,651,638,411,0,
1,1774292002528,-1612,14548,8844,8156272,729373,1131322,0,0,0,5,8,13,192,165,248,127,105,135,166,146,238,0,
2,1774292002528,1162,-119,10160,-35430,-151494,-12217,0,0,0,401,245,212,323,265,355,651,586,267,654,646,440,0,
1,1774292002544,349,13692,8131,4168544,2068389,1244943,0,0,0,18,13,17,194,156,241,137,97,144,174,130,249,0,
2,1774292002544,1162,-100,10083,-6108,-133168,-14660,0,0,0,386,253,238,322,270,368,631,551,254,654,642,452,0,
1,1774292002560,-1641,12189,10557,-808785,2665815,1492954,0,0,0,26,21,25,192,155,232,144,102,146,175,127,248,0,
2,1774292002560,1162,-95,10074,20769,-102625,-17104,0,0,0,393,259,253,313,267,356,609,508,227,644,620,433,0,
1,1774292002576,-3967,9002,8882,-2908940,1011592,1824043,0,0,0,19,16,24,191,154,235,141,102,141,169,127,240,0,
2,1774292002576,1153,-95,10045,45204,-87964,-18325,0,0,0,396,260,283,307,261,347,610,498,240,638,598,433,0,
1,1774292002592,-3306,6221,6460,-3577226,-616973,1913229,0,0,0,23,17,23,195,150,241,137,99,140,167,128,241,0,
2,1774292002592,1148,-95,10011,76969,-84299,-19547,0,0,0,383,257,278,327,271,362,592,468,246,639,587,443,0,
1,1774292002608,-837,4666,5446,-3791029,-1171639,1587027,0,0,0,27,27,28,195,155,238,141,110,139,168,144,236,0,
2,1774292002608,1129,-119,9978,92851,-85521,-23212,0,0,0,385,269,264,303,287,363,582,432,234,628,559,451,0,
1,1774292002624,459,3986,5608,-4087910,-977384,1075122,0,0,0,20,25,24,183,169,238,136,130,145,166,162,247,0,
2,1774292002624,1110,-138,9959,100181,-78190,-26878,0,0,0,382,285,269,319,309,377,579,400,239,606,526,440,0,
1,1774292002640,114,3685,6312,-4510628,-605978,463035,0,0,0,31,33,28,182,168,230,136,124,138,168,163,250,0,
2,1774292002640,1095,-138,9959,118507,-57421,-31764,0,0,0,391,266,260,316,261,360,604,396,263,617,481,454,0,
1,1774292002656,-1024,3354,7317,-5000542,-540004,-29321,0,0,0,31,31,42,185,146,251,149,108,164,168,128,266,0,
2,1774292002656,1095,-143,9983,157603,-31764,-37873,0,0,0,395,274,257,326,285,374,587,378,280,582,433,433,0,
1,1774292002672,-2043,2684,8762,-5495343,-785572,-322536,0,0,0,18,17,25,186,146,231,158,108,151,167,127,238,0,
2,1774292002672,1105,-177,9987,196698,-14660,-39095,0,0,0,397,267,254,348,284,386,591,368,302,570,401,442,0,
1,1774292002688,-2723,1684,10346,-5898514,-1134987,-445931,0,0,0,32,29,29,189,147,233,150,102,146,167,123,240,0,
2,1774292002688,1119,-220,9973,230907,-2443,-40317,0,0,0,405,263,264,343,266,388,597,371,310,495,355,454,0,
1,1774292002704,-2962,579,11964,-6117204,-1418429,-376292,0,0,0,37,32,31,190,150,234,148,102,146,167,126,242,0,
2,1774292002704,1134,-263,9973,266337,8552,-40317,0,0,0,410,267,249,339,271,400,591,320,300,461,326,499,0,
1,1774292002720,-2919,-325,13740,-6291911,-1635897,-287106,0,0,0,34,27,29,189,150,238,151,106,150,162,123,241,0,
2,1774292002720,1148,-306,9997,302989,18325,-41538,0,0,0,419,278,205,380,323,442,610,234,291,446,283,552,0,
1,1774292002736,-2613,-1000,15740,-6451958,-1781283,-250454,0,0,0,35,30,32,187,149,237,153,108,153,157,121,241,0,
2,1774292002736,1158,-358,10035,323758,26878,-42760,0,0,0,429,293,180,387,340,462,610,173,290,426,230,583,0,
1,1774292002752,-2359,-1737,18348,-6627887,-1850921,-321315,0,0,0,20,16,25,205,146,228,166,104,147,174,115,247,0,
2,1774292002752,1158,-402,10050,329867,47647,-42760,0,0,0,432,304,177,366,325,456,591,140,298,399,186,594,0,
1,1774292002768,-2502,-3158,21172,-6808703,-1937664,-466701,0,0,0,17,10,17,205,146,220,164,98,137,178,113,255,0,
2,1774292002768,1167,-440,10069,333532,80634,-36651,0,0,0,440,315,177,404,360,473,597,128,312,361,158,611,0,
1,1774292002784,-2770,-6915,24144,-6817256,-2390926,-726929,0,0,0,32,22,18,191,149,216,150,95,130,169,117,260,0,
2,1774292002784,1210,-478,10145,353080,114842,-29321,0,0,0,468,344,200,464,418,493,580,171,332,344,164,642,0,
1,1774292002800,-1655,-12261,26484,-6460510,-3264463,-1004262,0,0,0,37,26,23,195,149,215,151,95,129,174,120,260,0,
2,1774292002800,1287,-507,10265,367740,146607,-28099,0,0,0,506,382,191,623,507,513,582,162,362,339,141,651,0,
1,1774292002816,2680,-19569,27111,-5794667,-4184426,-1229060,0,0,0,33,25,26,191,148,217,156,97,133,172,121,263,0,
2,1774292002816,1397,-526,10519,398284,152716,-39095,0,0,0,521,392,188,536,487,525,573,96,320,273,72,657,0,
1,1774292002832,5264,-27092,23541,-5657833,-3630982,-1084896,0,0,0,18,15,27,190,148,223,162,96,137,172,123,268,0,
2,1774292002832,1507,-555,11040,521678,130725,-63529,0,0,0,544,418,197,519,471,539,487,102,353,201,51,690,0,
1,1774292002848,4063,-36463,17932,-5111720,-2739119,-541226,0,0,0,26,17,20,187,146,219,165,101,143,172,123,264,0,
2,1774292002848,1751,-607,12069,867428,61086,-112399,0,0,0,573,436,204,539,514,541,439,148,404,190,103,710,0,
1,1774292002864,2455,-44780,12088,-3185051,-2123367,555887,0,0,0,0,6,22,179,143,242,203,126,182,168,122,228,0,
2,1774292002864,1832,-593,13151,1448972,21991,-206472,0,0,0,573,462,195,463,487,536,347,151,388,132,73,726,0,
1,1774292002880,8595,-45962,10198,-678060,-1866804,1444085,0,0,0,0,0,10,173,145,212,313,253,191,230,206,208,0,
2,1774292002880,1598,-564,13673,1995085,-39095,-263893,0,0,0,599,462,207,472,500,542,281,131,368,140,74,734,0,
1,1774292002896,18367,-31002,12132,1640784,239459,563217,0,0,0,0,0,1,157,129,179,258,347,144,235,324,152,0,
2,1774292002896,1493,-636,14055,2546086,-205250,-266337,0,0,0,602,446,217,561,538,537,230,117,333,139,76,733,0,
1,1774292002912,12797,-2282,10945,3789807,3287676,-992045,0,0,0,0,0,0,199,152,186,327,443,138,327,422,157,0,
2,1774292002912,1842,-756,14807,3084869,-365297,-278554,0,0,0,578,455,203,497,528,521,202,118,317,120,89,717,0,
1,1774292002928,3795,7150,12869,5352401,3541796,-1082453,0,0,0,13,6,12,245,156,215,460,498,151,463,482,179,0,
2,1774292002928,2469,-693,16884,4026823,-564439,-378736,0,0,0,535,475,183,445,539,511,192,121,295,128,103,674,0,
1,1774292002944,1703,-469,19564,5468465,1618792,-320093,0,0,0,35,12,32,263,148,247,542,512,174,532,510,218,0,
2,1774292002944,3034,-459,20095,5126381,-856433,-532674,0,0,0,471,480,162,440,554,478,184,115,252,143,107,601,0,
1,1774292002960,1483,-6245,22565,3623652,45204,142942,0,0,0,56,26,37,283,160,255,585,517,179,552,518,234,0,
2,1774292002960,3685,-167,26135,6542366,-1374446,-726929,0,0,0,400,446,136,365,501,408,164,95,189,134,103,515,0,
1,1774292002976,224,-3019,16271,1496619,-149051,-29321,0,0,0,66,35,34,287,163,247,609,525,184,556,520,233,0,
2,1774292002976,4666,-473,33275,8079303,-2100154,-902858,0,0,0,354,345,128,336,433,354,145,61,116,143,91,426,0,
1,1774292002992,-454,196,10390,470366,-105068,-169820,0,0,0,69,30,43,262,138,253,616,534,204,546,522,247,0,
2,1774292002992,5833,-492,34654,9156869,-2367713,-973719,0,0,0,318,260,136,311,358,318,163,66,133,126,77,352,0,
1,1774292003008,-507,603,9078,377514,-130725,-108734,0,0,0,75,29,54,265,133,273,629,540,213,551,528,262,0,
2,1774292003008,7772,3388,30897,9843482,-1579697,-1081231,0,0,0,244,208,159,267,229,312,167,95,136,145,71,321,0,
1,1774292003024,-440,-9,10203,357967,-142942,-10995,0,0,0,90,37,58,297,145,284,643,523,219,572,519,267,0,
2,1774292003024,7815,10830,23618,10146471,-586430,-1611462,0,0,0,239,215,144,257,238,281,152,59,95,136,64,292,0,
1,1774292003040,-421,-23,10519,282219,-103847,10995,0,0,0,102,32,50,313,142,287,642,506,229,575,505,292,0,
2,1774292003040,6992,15223,14328,9160535,-131946,-2664594,0,0,0,231,226,141,278,262,291,221,104,160,149,80,292,0,
1,1774292003056,-430,191,10222,234572,-74525,1221,0,0,0,92,38,44,306,153,275,653,488,229,573,474,280,0,
2,1774292003056,5101,18099,7240,4698775,164933,-4004832,0,0,0,236,211,136,296,262,279,202,99,126,137,65,277,0,
1,1774292003072,-445,191,10093,223576,-73303,4886,0,0,0,88,44,56,308,161,311,652,484,234,550,444,329,0,
2,1774292003072,2077,16922,8604,-1249830,803898,-4513072,0,0,0,229,208,125,281,244,268,152,80,83,126,69,272,0,
1,1774292003088,-445,100,10145,205250,-73303,15882,0,0,0,137,73,84,284,145,303,653,460,227,549,395,345,0,
2,1774292003088,-387,11878,10122,-4367686,1337794,-4138001,0,0,0,224,209,123,263,228,265,159,87,91,127,76,279,0,
1,1774292003104,-445,57,10155,175929,-70860,23212,0,0,0,90,46,57,292,157,301,637,421,230,524,365,358,0,
2,1774292003104,-1608,7413,7671,-4412890,1397659,-3093421,0,0,0,222,225,130,257,233,273,177,93,112,126,87,286,0,
1,1774292003120,-483,43,10054,127059,-57421,24434,0,0,0,77,37,42,300,167,292,604,399,217,491,352,339,0,
2,1774292003120,-2278,6063,5159,-4045149,1123992,-2089159,0,0,0,222,229,134,269,251,270,197,111,131,132,94,288,0,
1,1774292003136,-526,19,9992,63529,-21991,29321,0,0,0,77,33,41,299,172,298,566,384,218,474,355,339,0,
2,1774292003136,-2158,6087,5039,-4289495,638965,-1015258,0,0,0,221,213,131,276,251,260,200,107,122,139,91,290,0,
1,1774292003152,-502,0,9949,-10995,26878,36651,0,0,0,77,35,48,302,173,305,551,378,213,475,362,334,0,
2,1774292003152,-885,5585,6326,-4770857,355523,-41538,0,0,0,217,203,126,253,229,261,170,66,90,133,85,291,0,
1,1774292003168,-435,4,9940,-61086,59864,39095,0,0,0,78,40,56,301,176,307,545,360,204,474,348,335,0,
2,1774292003168,789,4781,7733,-5101946,497244,638965,0,0,0,220,205,133,248,235,258,168,87,123,134,87,289,0,
1,1774292003184,-392,62,9973,-50090,70860,37873,0,0,0,82,54,58,293,198,309,535,346,209,459,346,345,0,
2,1774292003184,2077,3890,9361,-5417152,1020144,1132544,0,0,0,223,202,138,284,247,276,189,79,135,151,95,293,0,
1,1774292003200,-344,95,10035,6108,63529,35430,0,0,0,88,65,51,286,214,308,526,332,222,432,353,350,0,
2,1774292003200,2115,2852,11538,-5833763,1640784,1326799,0,0,0,219,203,138,273,231,276,170,53,131,147,69,293,0,
1,1774292003216,-296,90,10083,81855,41538,31764,0,0,0,85,49,47,284,185,309,512,283,233,411,306,366,0,
2,1774292003216,1727,1478,13998,-6294355,2047620,1387885,0,0,0,220,201,133,267,232,268,169,46,138,55,26,261,0,
1,1774292003232,-301,62,10078,134390,19547,26878,0,0,0,80,47,45,295,190,324,508,271,248,409,277,374,0,
2,1774292003232,1569,-210,16300,-6663318,2079385,1365894,0,0,0,232,199,135,239,214,241,146,59,92,125,74,283,0,
1,1774292003248,-335,19,10050,182037,10995,26878,0,0,0,97,103,69,283,225,361,479,283,243,377,274,382,0,
2,1774292003248,1914,-1636,18300,-6838025,1943773,1363451,0,0,0,224,198,136,263,227,254,149,72,83,132,71,281,0,
1,1774292003264,-330,-14,10050,222354,15882,34208,0,0,0,209,190,157,281,225,365,490,228,270,359,266,389,0,
2,1774292003264,2641,-2502,20411,-6814812,1850921,1446528,0,0,0,227,200,158,277,234,269,168,64,95,155,88,285,0,
1,1774292003280,-277,-43,10083,256563,9773,41538,0,0,0,98,112,50,335,271,377,478,202,253,368,223,420,0,
2,1774292003280,3345,-3402,23024,-6768386,1891238,1621236,0,0,0,239,205,161,269,231,268,176,71,117,155,88,288,0,
1,1774292003296,-248,-81,10102,278554,-6108,41538,0,0,0,151,149,76,346,277,379,506,197,271,388,205,439,0,
2,1774292003296,4087,-5570,26393,-6762278,2018298,1931555,0,0,0,235,204,151,258,233,259,156,72,121,131,74,283,0,
1,1774292003312,-253,-134,10131,301767,-32986,40317,0,0,0,239,232,145,331,272,409,504,185,278,318,190,473,0,
2,1774292003312,4848,-10820,28547,-6759834,2233323,2213775,0,0,0,221,200,147,258,236,264,149,69,104,119,67,283,0,
1,1774292003328,-263,-172,10256,346971,-64751,41538,0,0,0,167,180,90,337,308,450,476,198,313,293,204,496,0,
2,1774292003328,4551,-19004,28064,-6623000,2862514,2287079,0,0,0,219,201,145,266,231,267,169,72,87,117,65,284,0,
1,1774292003344,-268,-205,10466,420275,-101403,42760,0,0,0,204,246,121,347,305,468,452,174,313,254,173,528,0,
2,1774292003344,1943,-29327,24804,-6155078,3747047,2059837,0,0,0,222,200,142,265,218,248,177,67,89,118,66,278,0,
1,1774292003360,-335,-239,10768,541226,-146607,42760,0,0,0,292,325,162,363,312,483,405,144,297,221,147,563,0,
2,1774292003360,-2517,-39013,19152,-4794070,3841120,1353677,0,0,0,222,202,138,251,200,249,186,90,126,132,74,280,0,
1,1774292003376,-856,-368,11064,735481,-205250,81855,0,0,0,274,280,121,377,334,484,362,146,287,236,156,572,0,
2,1774292003376,-6479,-43450,14089,-2893057,2944370,241902,0,0,0,215,197,135,258,223,258,187,109,119,158,100,288,0,
1,1774292003392,-1043,-416,11878,995710,-241902,196698,0,0,0,220,219,70,382,342,467,332,154,288,257,164,566,0,
2,1774292003392,-11462,-41674,13218,-744033,1262047,-946841,0,0,0,188,191,116,274,246,265,274,235,144,340,276,268,0,
1,1774292003408,-550,-320,13304,1412320,-54977,255341,0,0,0,234,239,78,378,338,470,280,143,300,241,164,566,0,
2,1774292003408,-13898,-29404,15836,1287703,-403171,-1108109,0,0,0,193,170,119,285,238,346,308,355,133,364,417,303,0,
1,1774292003424,-435,-387,13759,1892460,224798,255341,0,0,0,245,235,107,356,306,495,217,133,308,249,181,552,0,
2,1774292003424,-5972,-464,11457,3814242,-2075720,-190589,0,0,0,205,169,101,309,238,296,369,422,142,418,486,269,0,
1,1774292003440,-540,-536,13854,2392148,511905,249233,0,0,0,356,302,160,329,276,446,165,120,306,257,176,534,0,
2,1774292003440,1206,5896,9107,5380501,-2031737,233350,0,0,0,215,180,100,305,241,328,442,504,183,451,538,281,0,
1,1774292003456,-770,-617,14568,2924822,729373,274889,0,0,0,289,240,113,328,295,432,148,120,259,265,187,494,0,
2,1774292003456,842,-952,14099,5759237,-1254717,72082,0,0,0,232,185,95,324,255,319,534,571,204,523,587,291,0,
1,1774292003472,-938,-593,16156,3630982,905302,337197,0,0,0,217,242,85,341,315,384,155,121,232,285,203,446,0,
2,1774292003472,-789,-5790,19392,5054298,-527787,-416610,0,0,0,262,200,114,313,246,305,594,600,215,590,603,308,0,
1,1774292003488,-909,-263,19688,4762305,1123992,414166,0,0,0,158,264,78,302,349,381,144,143,235,229,220,426,0,
2,1774292003488,1239,-2943,18894,3855781,-320093,-428827,0,0,0,286,215,140,301,247,316,625,595,221,609,598,323,0,
1,1774292003504,-1287,-19,25709,6285803,1518610,485026,0,0,0,150,246,96,283,322,363,148,136,222,194,184,367,0,
2,1774292003504,1995,-1225,15931,2433687,-1221,-127059,0,0,0,299,217,151,304,248,313,651,589,236,618,603,346,0,
1,1774292003520,-1507,-588,33314,7922922,1965764,532674,0,0,0,97,175,76,232,300,321,140,143,188,176,191,326,0,
2,1774292003520,1440,-1095,12352,1154535,122173,107512,0,0,0,320,221,157,296,237,306,661,598,258,637,596,381,0,
1,1774292003536,-2239,-531,35060,8956506,1897347,493579,0,0,0,52,81,55,202,234,279,139,131,162,153,172,280,0,
2,1774292003536,1014,-890,10308,499687,19547,125838,0,0,0,342,225,157,300,249,333,657,595,262,644,572,401,0,
1,1774292003552,-4369,3488,32151,9536828,1626123,572991,0,0,0,42,46,46,193,174,240,134,104,138,155,135,246,0,
2,1774292003552,1072,-488,10011,311541,-69638,36651,0,0,0,359,222,160,292,234,350,648,577,268,649,574,414,0,
1,1774292003568,-7351,11466,24891,9966877,1097113,926071,0,0,0,31,28,29,196,163,232,135,97,135,167,125,247,0,
2,1774292003568,1234,-272,10251,169820,-45204,-3665,0,0,0,355,221,164,313,235,324,662,585,249,635,570,401,0,
1,1774292003584,-6542,12983,14170,9996198,498466,1495398,0,0,0,27,20,20,205,173,236,145,104,138,176,131,251,0,
2,1774292003584,1263,-196,10236,69638,-48869,-6108,0,0,0,363,229,145,333,276,358,665,579,258,631,568,407,0,
1,1774292003600,-1737,12912,9045,7462329,703716,1920560,0,0,0,30,21,21,207,169,234,153,105,135,178,129,242,0,
2,1774292003600,1249,-172,10078,45204,-96516,-3665,0,0,0,371,259,168,309,256,343,649,568,261,631,573,439,0,
1,1774292003616,1340,14280,8834,2392148,1731192,1988977,0,0,0,22,15,21,200,159,236,151,101,139,172,122,243,0,
2,1774292003616,1225,-153,10040,57421,-127059,-9773,0,0,0,388,264,171,290,244,335,653,537,270,624,550,424,0,
1,1774292003632,-1856,12342,8490,-2366491,1734857,1716531,0,0,0,22,22,25,198,159,234,147,100,137,172,124,241,0,
2,1774292003632,1206,-143,10093,78190,-138055,-15882,0,0,0,400,254,187,329,270,370,657,519,293,609,535,436,0,
1,1774292003648,-4431,8245,7303,-4344473,270002,1303586,0,0,0,27,21,29,196,151,230,145,97,139,171,122,240,0,
2,1774292003648,1210,-162,10069,74525,-157603,-17104,0,0,0,393,253,182,345,289,375,640,500,286,605,529,433,0,
1,1774292003664,-2967,5206,6302,-4645019,-1414763,704938,0,0,0,23,21,30,198,148,233,155,95,144,175,118,242,0,
2,1774292003664,1215,-205,9983,48869,-186924,-18325,0,0,0,397,263,181,330,291,354,607,466,252,599,511,432,0,
1,1774292003680,-181,3823,6087,-4764748,-2036624,32986,0,0,0,25,24,25,198,155,238,154,98,144,180,123,253,0,
2,1774292003680,1177,-229,9930,17104,-208915,-20769,0,0,0,417,272,183,315,283,336,589,453,231,595,524,444,0,
1,1774292003696,1363,3455,6523,-4954117,-1424537,-608421,0,0,0,36,26,31,207,153,239,152,94,143,185,124,255,0,
2,1774292003696,1119,-215,9944,0,-210137,-24434,0,0,0,429,273,193,300,266,331,574,435,234,584,528,450,0,
1,1774292003712,229,3101,7370,-5264436,-663399,-979827,0,0,0,26,23,30,198,153,242,149,95,148,176,126,257,0,
2,1774292003712,1076,-177,9968,3665,-194255,-29321,0,0,0,428,284,203,291,268,339,549,393,242,550,480,441,0,
1,1774292003728,-1426,2660,8628,-5618738,-463035,-1044579,0,0,0,34,29,32,191,150,233,150,101,149,166,122,246,0,
2,1774292003728,1043,-134,9964,43982,-164933,-34208,0,0,0,441,310,185,318,312,361,553,391,253,520,456,451,0,
1,1774292003744,-2498,2096,10351,-5969375,-886976,-768468,0,0,0,32,23,31,193,149,232,152,104,150,166,122,244,0,
2,1774292003744,1038,-105,9973,107512,-131946,-36651,0,0,0,448,291,190,328,304,366,563,373,270,519,430,474,0,
1,1774292003760,-1799,1507,12256,-6202725,-1523497,-322536,0,0,0,28,22,35,193,151,244,153,104,158,167,122,263,0,
2,1774292003760,1057,-148,9992,182037,-111177,-39095,0,0,0,440,299,185,331,298,369,532,323,238,494,400,474,0,
1,1774292003776,-459,875,14362,-6432410,-1879021,8552,0,0,0,30,25,44,189,150,266,151,100,176,165,119,283,0,
2,1774292003776,1062,-220,9997,230907,-105068,-41538,0,0,0,477,319,185,389,364,425,504,300,250,430,355,514,0,
1,1774292003792,358,67,16707,-6703635,-1787391,48869,0,0,0,31,21,46,189,146,271,151,96,178,164,117,278,0,
2,1774292003792,1033,-287,10007,262672,-102625,-47647,0,0,0,484,360,228,398,327,433,492,269,228,430,316,543,0,
1,1774292003808,440,-961,19200,-6938207,-1651779,-65973,0,0,0,34,22,37,197,147,249,158,96,156,169,111,262,0,
2,1774292003808,990,-320,10035,280998,-81855,-47647,0,0,0,483,370,189,408,351,416,517,231,271,437,256,591,0,
1,1774292003824,33,-2861,22273,-7115358,-1701870,-335975,0,0,0,36,28,39,208,150,261,169,96,166,174,109,275,0,
2,1774292003824,976,-354,10083,301767,-50090,-43982,0,0,0,514,371,198,400,380,434,519,204,299,414,232,629,0,
1,1774292003840,-67,-6676,24919,-7077484,-2136806,-698829,0,0,0,37,30,47,196,152,278,159,95,179,164,112,293,0,
2,1774292003840,1000,-392,10165,337197,-8552,-39095,0,0,0,557,369,211,419,379,463,512,138,285,387,180,634,0,
1,1774292003856,804,-12548,27011,-6762278,-2809980,-1149648,0,0,0,37,19,37,208,150,277,174,98,180,181,107,296,0,
2,1774292003856,1076,-435,10270,393397,20769,-41538,0,0,0,585,382,204,436,395,479,517,134,306,373,156,653,0,
1,1774292003872,3029,-19727,27102,-6272364,-3141069,-1621236,0,0,0,46,26,39,224,151,268,189,105,177,178,110,282,0,
2,1774292003872,1100,-497,10327,452040,43982,-52534,0,0,0,592,389,196,448,416,502,492,128,328,327,123,677,0,
1,1774292003888,2881,-27843,23316,-6059783,-2306627,-1822821,0,0,0,26,22,38,210,151,261,190,105,177,176,109,282,0,
2,1774292003888,1134,-550,10547,515570,91629,-62308,0,0,0,599,407,199,461,430,529,456,117,334,256,68,692,0,
1,1774292003904,-603,-36515,17774,-5486791,-1497841,-1540602,0,0,0,22,17,38,209,156,268,187,104,177,170,106,283,0,
2,1774292003904,1335,-607,11103,640186,123394,-80634,0,0,0,625,444,203,463,439,522,444,135,355,216,55,714,0,
1,1774292003920,-2402,-43378,12299,-3428175,-1887573,-470366,0,0,0,105,91,105,193,137,250,174,92,159,149,92,252,0,
2,1774292003920,1502,-579,12285,919963,62308,-119729,0,0,0,648,438,203,458,448,510,392,100,354,188,76,733,0,
1,1774292003936,2986,-45374,9681,-1078788,-2819753,618195,0,0,0,48,44,50,188,154,221,199,159,155,161,137,214,0,
2,1774292003936,1555,-483,13615,1523497,-52534,-178372,0,0,0,643,459,204,462,490,538,308,109,326,152,77,738,0,
1,1774292003952,12835,-39688,11016,772133,-2685363,1040914,0,0,0,0,0,2,173,132,180,268,231,170,225,217,188,0,
2,1774292003952,1474,-526,13941,2153910,-182037,-228463,0,0,0,636,483,240,444,450,516,244,104,320,134,23,730,0,
1,1774292003968,11026,-12184,13630,2326174,339641,222354,0,0,0,0,0,0,181,128,165,324,309,161,278,304,161,0,
2,1774292003968,1263,-693,14099,2730567,-333532,-251676,0,0,0,606,444,215,432,502,521,218,116,316,113,49,718,0,
1,1774292003984,2282,11686,10624,3731164,2897944,-630412,0,0,0,35,44,32,209,153,172,376,396,144,333,413,142,0,
2,1774292003984,1378,-741,15328,3384193,-481361,-259006,0,0,0,585,452,230,435,460,540,232,135,320,100,13,714,0,
1,1774292004000,-1789,10256,10189,5078733,3270572,-904080,0,0,0,56,70,52,224,156,185,441,473,151,427,497,158,0,
2,1774292004000,2215,-631,17784,4183205,-603534,-322536,0,0,0,534,490,211,445,517,530,184,115,265,151,66,661,0,
1,1774292004016,2067,-1818,16889,5288871,2046398,-536339,0,0,0,15,8,17,241,153,215,500,534,165,503,498,195,0,
2,1774292004016,3225,-435,21205,5434257,-875980,-529009,0,0,0,504,477,181,417,503,475,189,115,253,155,89,581,0,
1,1774292004032,3584,-5235,20717,4305378,769690,-84299,0,0,0,60,28,39,273,147,238,561,534,181,539,508,225,0,
2,1774292004032,3943,-186,25541,6839247,-1374446,-775798,0,0,0,435,407,155,387,451,427,153,66,175,149,96,504,0,
1,1774292004048,856,-2584,17774,2448347,-108734,107512,0,0,0,93,47,54,276,132,240,603,520,193,569,526,259,0,
2,1774292004048,4182,-727,32428,8395731,-1938886,-962723,0,0,0,350,316,142,344,370,363,138,60,149,135,82,417,0,
1,1774292004064,-732,-1392,12744,976162,-252898,10995,0,0,0,78,27,39,271,133,238,613,502,197,566,524,252,0,
2,1774292004064,4958,-1033,34950,9544158,-1596801,-987158,0,0,0,296,244,134,314,300,307,170,63,122,130,66,332,0,
1,1774292004080,-646,-641,9997,278554,-185703,-37873,0,0,0,92,40,45,307,153,269,631,502,194,588,526,287,0,
2,1774292004080,5120,4000,31227,10068280,-923628,-1114218,0,0,0,265,225,131,279,270,267,171,60,72,139,78,295,0,
1,1774292004096,-277,-205,9767,240680,-118507,-10995,0,0,0,111,67,73,279,145,296,641,484,222,596,507,327,0,
2,1774292004096,7106,12361,21191,9930225,-752585,-1587027,0,0,0,249,235,133,253,265,249,161,80,76,144,94,295,0,
1,1774292004112,-378,-138,10174,265115,-83077,14660,0,0,0,99,60,64,289,149,306,639,468,246,591,502,322,0,
2,1774292004112,9629,15683,10748,8691390,8552,-2660928,0,0,0,246,225,129,288,275,272,177,99,122,134,89,291,0,
1,1774292004128,-449,-186,10270,228463,-51312,19547,0,0,0,92,68,57,294,170,310,633,463,232,587,490,324,0,
2,1774292004128,7150,18004,6575,4647462,1676214,-3795916,0,0,0,240,213,119,328,291,286,170,101,125,129,92,280,0,
1,1774292004144,-411,-210,10193,185703,-24434,20769,0,0,0,87,78,56,297,181,312,624,442,232,565,457,332,0,
2,1774292004144,-875,17559,9083,-1293812,2144136,-3672521,0,0,0,228,198,107,289,267,271,185,121,105,154,104,288,0,
1,1774292004160,-363,-215,10189,160046,-2443,23212,0,0,0,94,68,58,306,174,314,615,385,234,549,413,346,0,
2,1774292004160,-4369,12108,10136,-4674340,784350,-2464230,0,0,0,226,208,107,286,283,264,189,121,128,146,101,282,0,
1,1774292004176,-335,-215,10222,142942,8552,26878,0,0,0,113,71,58,306,192,318,597,360,234,528,390,365,0,
2,1774292004176,-1622,7059,7193,-4959004,-433714,-1241278,0,0,0,226,197,112,310,289,268,205,140,105,159,104,285,0,
1,1774292004192,-335,-239,10150,114842,15882,25656,0,0,0,121,96,57,297,223,319,572,359,234,490,384,381,0,
2,1774292004192,1000,4986,4910,-4735427,-505796,-543670,0,0,0,224,193,114,277,245,261,166,92,92,150,94,284,0,
1,1774292004208,-335,-272,10035,86742,25656,23212,0,0,0,117,115,57,301,230,316,557,336,228,458,365,381,0,
2,1774292004208,1584,4953,4804,-4674340,221133,-274889,0,0,0,227,195,115,275,249,252,152,97,103,147,87,282,0,
1,1774292004224,-330,-291,9983,83077,28099,24434,0,0,0,127,121,57,315,224,317,546,304,223,450,325,382,0,
2,1774292004224,818,5077,6211,-4993212,897971,-51312,0,0,0,235,198,119,274,249,259,162,85,99,138,82,280,0,
1,1774292004240,-330,-282,10007,108734,20769,28099,0,0,0,125,133,59,304,226,319,512,285,229,429,288,412,0,
2,1774292004240,406,4742,7829,-5440365,1210734,124616,0,0,0,237,200,116,273,249,266,175,102,107,139,82,282,0,
1,1774292004256,-296,-291,10016,139277,13439,30543,0,0,0,124,138,62,281,207,333,478,229,230,410,275,417,0,
2,1774292004256,684,3541,9786,-5943718,1389107,194255,0,0,0,236,202,115,288,261,266,172,119,108,149,95,287,0,
1,1774292004272,-258,-330,10026,157603,2443,31764,0,0,0,112,149,60,292,239,345,449,223,238,378,262,433,0,
2,1774292004272,933,2196,11792,-6255260,1665218,151494,0,0,0,230,201,119,291,263,265,157,107,96,150,102,286,0,
1,1774292004288,-248,-373,10050,166155,-12217,32986,0,0,0,127,150,71,305,258,339,433,220,248,371,251,425,0,
2,1774292004288,631,1282,13912,-6443406,1981646,98960,0,0,0,228,199,121,283,255,266,167,88,101,151,96,281,0,
1,1774292004304,-258,-406,10069,183259,-30543,40317,0,0,0,127,156,74,303,274,351,419,251,241,335,249,441,0,
2,1774292004304,201,488,16592,-6737843,2122145,193033,0,0,0,235,203,118,298,262,268,204,87,121,162,92,276,0,
1,1774292004320,-263,-430,10074,208915,-45204,48869,0,0,0,187,245,110,293,281,380,385,201,250,293,216,455,0,
2,1774292004320,244,-411,19363,-7007846,2080607,450818,0,0,0,220,204,115,290,274,268,198,108,104,142,94,272,0,
1,1774292004336,-244,-473,10088,243124,-68416,59864,0,0,0,221,270,123,294,284,408,383,188,272,268,198,486,0,
2,1774292004336,914,-1459,22230,-7078706,2020742,890641,0,0,0,214,199,119,264,240,248,173,104,113,129,87,276,0,
1,1774292004352,-277,-512,10136,276111,-103847,68416,0,0,0,178,215,87,338,319,404,381,194,279,264,200,498,0,
2,1774292004352,1713,-2991,25651,-7027393,2084272,1457524,0,0,0,218,199,120,290,262,261,161,54,97,136,87,274,0,
1,1774292004368,-478,-555,10236,327423,-157603,96516,0,0,0,169,183,64,360,322,385,363,181,259,281,204,507,0,
2,1774292004368,2182,-6020,29193,-6969972,2212553,2113593,0,0,0,211,199,113,260,246,259,169,84,125,135,95,277,0,
1,1774292004384,-622,-612,10337,399505,-210137,146607,0,0,0,191,197,66,360,321,403,336,163,258,274,196,532,0,
2,1774292004384,2091,-12983,30423,-6978524,2441017,2769662,0,0,0,215,203,115,272,258,265,185,97,129,143,100,287,0,
1,1774292004400,-516,-684,10500,509461,-272445,201585,0,0,0,209,213,75,361,327,442,315,155,288,253,184,561,0,
2,1774292004400,1435,-22947,28456,-6797708,2875953,3086091,0,0,0,226,204,122,301,266,269,204,106,102,158,85,282,0,
1,1774292004416,-306,-708,10935,635299,-295658,218689,0,0,0,245,227,96,359,324,455,309,153,310,254,180,567,0,
2,1774292004416,507,-34831,23302,-5982814,3199712,2862514,0,0,0,233,204,121,316,250,263,231,90,102,170,82,289,0,
1,1774292004432,-143,-650,11878,831998,-193033,183259,0,0,0,275,250,112,361,340,459,315,153,314,262,183,561,0,
2,1774292004432,-1876,-43340,16310,-3880215,3131295,1648114,0,0,0,230,208,120,295,244,251,216,85,119,189,110,285,0,
1,1774292004448,-248,-626,12639,1182635,-30543,135612,0,0,0,249,241,86,376,338,455,298,162,306,280,183,559,0,
2,1774292004448,-8183,-45350,12892,-1445307,2603507,10995,0,0,0,217,209,119,263,242,237,220,168,122,237,235,281,0,
1,1774292004464,-521,-760,12888,1623679,98960,116064,0,0,0,255,250,72,401,327,436,248,160,250,310,204,547,0,
2,1774292004464,-12969,-38224,16396,983493,886976,-819781,0,0,0,208,194,110,259,239,238,287,306,119,296,396,284,0,
1,1774292004480,-837,-1024,12725,2089159,246789,146607,0,0,0,267,276,92,381,319,404,189,134,247,334,231,527,0,
2,1774292004480,-6819,-12892,14094,3849672,-1442863,-884532,0,0,0,208,180,96,278,240,254,360,412,128,343,509,289,0,
1,1774292004496,-827,-1139,13271,2513099,533896,196698,0,0,0,277,271,109,359,332,412,163,128,254,320,221,499,0,
2,1774292004496,2287,3000,11026,5158146,-1908343,-452040,0,0,0,218,187,94,283,239,266,412,497,164,406,594,288,0,
1,1774292004512,-1057,-1124,14974,3029891,792903,251676,0,0,0,250,298,97,335,350,410,139,131,277,271,230,482,0,
2,1774292004512,4216,3512,13950,5711589,-1362229,-56199,0,0,0,241,194,106,292,251,284,528,623,225,504,642,260,0,
1,1774292004528,-1526,-1028,17219,3874107,1040914,365297,0,0,0,214,336,104,302,380,396,116,132,271,207,226,460,0,
2,1774292004528,483,-3149,19392,5253441,-728151,8552,0,0,0,259,210,123,300,255,296,542,647,218,561,651,278,0,
1,1774292004544,-1828,-890,20856,5123937,1446528,535117,0,0,0,151,274,82,302,374,386,115,133,243,207,217,415,0,
2,1774292004544,315,-3350,18851,3907094,-715934,-103847,0,0,0,287,213,128,318,271,312,565,631,192,567,651,306,0,
1,1774292004560,-2072,-985,27480,6558249,1955990,692721,0,0,0,110,220,69,285,348,359,118,135,202,199,204,381,0,
2,1774292004560,1124,-1651,15257,2324953,-642630,7330,0,0,0,308,234,143,326,287,335,648,625,213,583,642,308,0,
1,1774292004576,-2526,-1340,33773,8062199,2194227,729373,0,0,0,79,153,68,241,301,331,119,131,176,174,181,346,0,
2,1774292004576,1062,-502,11485,1066570,-296880,186924,0,0,0,328,254,155,309,288,316,695,653,234,612,651,326,0,
1,1774292004592,-3924,-780,34438,9312029,1646892,763581,0,0,0,44,69,52,204,224,286,128,119,161,165,152,294,0,
2,1774292004592,780,-488,10251,646295,-76969,142942,0,0,0,355,247,228,300,265,342,676,625,224,626,656,381,0,
1,1774292004608,-4268,4407,30590,9883799,814894,1023810,0,0,0,28,26,29,195,159,237,140,106,143,174,135,252,0,
2,1774292004608,861,-617,10313,455705,-75747,39095,0,0,0,383,268,259,320,292,374,696,612,253,635,641,404,0,
1,1774292004624,-4288,13826,22359,9757961,856433,1334129,0,0,0,36,33,31,201,163,240,142,106,141,176,137,253,0,
2,1774292004624,971,-378,10447,328645,-153938,0,0,0,0,395,276,252,336,298,377,699,584,269,644,626,411,0,
1,1774292004640,-4900,17243,8930,7672467,1472185,1334129,0,0,0,25,35,25,189,166,233,141,110,141,162,134,260,0,
2,1774292004640,947,-177,10318,240680,-186924,-12217,0,0,0,400,274,214,330,291,346,609,508,244,634,593,406,0,
1,1774292004656,-4594,16779,6403,2831971,1230282,1137431,0,0,0,30,31,25,185,168,221,140,121,136,165,148,259,0,
2,1774292004656,890,-162,10165,226020,-171042,-17104,0,0,0,403,283,185,319,290,321,601,477,244,607,538,398,0,
1,1774292004672,-3445,12342,10428,-2207666,-42760,873537,0,0,0,125,138,107,169,150,206,124,126,126,144,139,227,0,
2,1774292004672,885,-224,10179,235793,-150272,-25656,0,0,0,404,291,192,329,286,331,718,505,282,566,498,405,0,
1,1774292004688,-2469,7513,9763,-4002389,-950506,635299,0,0,0,122,139,113,168,153,210,117,125,122,147,146,239,0,
2,1774292004688,885,-253,10169,228463,-133168,-30543,0,0,0,407,290,199,346,286,348,680,445,270,519,483,425,0,
1,1774292004704,-1311,4862,6159,-3656639,-1221730,444709,0,0,0,46,48,40,168,144,202,117,114,117,152,136,248,0,
2,1774292004704,875,-277,10088,213802,-124616,-29321,0,0,0,406,295,205,337,290,350,650,394,255,539,454,464,0,
1,1774292004720,28,4666,4809,-3577226,-1036027,288328,0,0,0,97,97,85,156,126,193,111,99,108,151,123,247,0,
2,1774292004720,866,-311,10011,195476,-131946,-29321,0,0,0,427,282,185,341,295,361,630,374,286,478,435,443,0,
1,1774292004736,713,4704,5417,-4141666,-781907,134390,0,0,0,124,127,107,155,123,190,111,91,107,155,120,247,0,
2,1774292004736,866,-335,9983,184481,-145385,-34208,0,0,0,416,291,197,326,292,340,575,314,266,433,364,439,0,
1,1774292004752,253,4197,6709,-4838052,-744033,47647,0,0,0,76,76,61,164,129,198,118,92,114,159,121,255,0,
2,1774292004752,842,-363,9959,184481,-147829,-45204,0,0,0,450,292,184,344,300,359,571,302,269,449,383,487,0,
1,1774292004768,-311,3551,7925,-5308418,-946841,67195,0,0,0,70,64,58,163,124,200,121,87,119,157,112,251,0,
2,1774292004768,823,-392,9954,191811,-141720,-52534,0,0,0,430,286,171,346,286,361,567,269,276,411,322,458,0,
1,1774292004784,-282,3067,9212,-5605299,-1288925,189368,0,0,0,100,91,96,168,125,209,131,80,128,166,108,253,0,
2,1774292004784,789,-430,9959,206472,-134390,-58643,0,0,0,430,306,180,356,340,380,585,258,290,416,314,489,0,
1,1774292004800,311,2550,10921,-5952270,-1552819,301767,0,0,0,66,60,73,185,142,234,143,87,145,182,121,273,0,
2,1774292004800,756,-454,9949,219911,-116064,-57421,0,0,0,444,347,200,387,350,391,593,205,268,422,288,515,0,
1,1774292004816,603,1655,13113,-6277251,-1593136,289550,0,0,0,15,13,22,184,147,241,134,97,152,170,126,279,0,
2,1774292004816,760,-478,9973,228463,-98960,-51312,0,0,0,444,325,180,415,349,403,591,219,292,401,260,511,0,
1,1774292004832,402,823,15324,-6473949,-1606575,197920,0,0,0,15,12,25,188,149,255,139,93,164,163,119,284,0,
2,1774292004832,756,-521,9978,234572,-85521,-47647,0,0,0,450,306,167,402,330,399,577,213,303,388,223,527,0,
1,1774292004848,-100,14,17741,-6632774,-1736079,59864,0,0,0,17,12,21,188,149,246,148,93,161,164,118,275,0,
2,1774292004848,737,-564,9983,238237,-68416,-46425,0,0,0,452,309,166,400,350,413,591,191,308,375,193,547,0,
1,1774292004864,-823,-2479,20899,-6664539,-2247984,-81855,0,0,0,24,31,27,191,157,225,147,92,137,167,126,261,0,
2,1774292004864,727,-593,10016,240680,-43982,-45204,0,0,0,451,326,168,412,391,448,604,180,322,358,202,565,0,
1,1774292004880,-378,-6838,23986,-6241821,-3028669,-307876,0,0,0,16,12,22,194,153,231,147,98,137,167,124,252,0,
2,1774292004880,746,-626,10045,251676,-20769,-42760,0,0,0,464,344,195,421,406,483,595,159,341,350,194,596,0,
1,1774292004896,2761,-11543,26321,-5417152,-3340211,-918741,0,0,0,9,15,19,194,156,236,150,100,142,167,125,259,0,
2,1774292004896,770,-655,10083,270002,-3665,-42760,0,0,0,486,368,215,463,426,513,613,140,363,344,148,621,0,
1,1774292004912,5403,-15582,26676,-5145928,-2603507,-1696983,0,0,0,13,20,22,200,158,230,163,100,138,172,126,253,0,
2,1774292004912,775,-679,10184,296880,7330,-42760,0,0,0,510,398,189,488,433,510,607,151,368,335,158,639,0,
1,1774292004928,4048,-20708,24201,-5632177,-1384220,-2134363,0,0,0,14,19,22,206,162,228,171,100,137,176,122,250,0,
2,1774292004928,775,-703,10351,334754,17104,-41538,0,0,0,506,370,204,476,447,530,596,171,399,293,117,665,0,
1,1774292004944,-794,-29514,18454,-5632177,-989601,-1731192,0,0,0,21,24,25,204,162,228,173,103,140,178,126,250,0,
2,1774292004944,751,-708,10662,401949,18325,-37873,0,0,0,545,427,187,495,459,531,539,162,370,210,85,661,0,
1,1774292004960,-2646,-36242,13055,-4361577,-1577254,-893084,0,0,0,26,29,27,204,161,230,172,105,140,180,132,253,0,
2,1774292004960,693,-684,11217,547335,83077,-23212,0,0,0,557,429,178,550,454,545,495,137,367,190,58,667,0,
1,1774292004976,1186,-39966,9480,-2262644,-2582738,68416,0,0,0,24,25,19,193,157,220,172,110,135,179,137,247,0,
2,1774292004976,971,-765,11782,806342,233350,-28099,0,0,0,561,399,190,551,457,540,439,138,389,190,59,709,0,
1,1774292004992,10342,-39516,8231,-295658,-2756223,717155,0,0,0,12,14,10,179,160,204,191,161,140,187,177,223,0,
2,1774292004992,1478,-933,12385,1194852,339641,-97738,0,0,0,560,405,192,515,495,545,365,145,348,165,69,715,0,
1,1774292005008,14587,-32519,12452,1230282,-1138652,605978,0,0,0,0,5,6,180,171,192,241,273,149,220,273,194,0,
2,1774292005008,1287,-847,13381,1696983,199142,-175929,0,0,0,562,402,194,458,462,537,314,139,376,121,52,712,0,
1,1774292005024,7240,-5800,16281,3403741,1869247,-168598,0,0,0,18,16,8,183,166,167,300,380,130,279,367,177,0,
2,1774292005024,1019,-713,14414,2291966,-80634,-183259,0,0,0,585,400,194,442,452,551,273,137,375,101,49,704,0,
1,1774292005040,-67,13931,14132,4923573,2956587,-700051,0,0,0,93,86,46,187,157,167,346,397,131,381,396,175,0,
2,1774292005040,1392,-847,15046,3044552,-245567,-199142,0,0,0,578,420,189,457,467,537,228,123,330,123,74,684,0,
1,1774292005056,-861,7743,13563,5519778,2320066,-753807,0,0,0,25,23,19,227,203,220,460,474,164,452,510,189,0,
2,1774292005056,1703,-794,16549,4003610,-307876,-290771,0,0,0,542,429,181,441,480,509,203,121,292,134,85,642,0,
1,1774292005072,2321,-4402,18358,4612032,1549154,-404392,0,0,0,186,122,103,259,154,234,514,479,166,496,521,206,0,
2,1774292005072,1885,-430,19779,5033529,-459370,-390953,0,0,0,505,412,168,434,491,491,182,114,255,140,80,591,0,
1,1774292005088,2340,-6073,19497,2718350,806342,-92851,0,0,0,69,69,40,257,181,231,517,472,174,529,534,254,0,
2,1774292005088,2986,-435,25829,6404311,-957836,-508239,0,0,0,455,380,144,447,481,446,150,88,194,159,90,524,0,
1,1774292005104,349,-2062,14682,921184,189368,-42760,0,0,0,50,79,35,267,198,232,546,454,165,544,526,263,0,
2,1774292005104,4201,-1081,31988,7936361,-1540602,-670730,0,0,0,377,315,128,376,414,382,147,100,146,127,85,429,0,
1,1774292005120,-526,-62,10318,267558,-41538,-64751,0,0,0,66,106,51,272,220,255,568,463,191,577,535,273,0,
2,1774292005120,5130,-559,32792,9144652,-1606575,-807563,0,0,0,307,246,157,322,314,348,140,97,120,111,63,363,0,
1,1774292005136,-507,-124,9279,156381,13439,-42760,0,0,0,82,133,54,275,239,256,575,473,199,594,549,289,0,
2,1774292005136,6006,3302,29791,9781174,-800233,-959058,0,0,0,246,201,149,287,245,288,177,98,139,140,75,288,0,
1,1774292005152,-282,-497,10241,102625,152716,-6108,0,0,0,96,140,57,292,239,256,581,470,191,598,543,276,0,
2,1774292005152,5470,10428,24383,10107376,-68416,-1243721,0,0,0,238,201,145,258,240,279,197,114,143,126,75,288,0,
1,1774292005168,-205,-335,10538,21991,183259,4886,0,0,0,106,136,59,299,230,258,569,452,183,595,515,265,0,
2,1774292005168,5436,15252,14448,9486737,-87964,-1751961,0,0,0,239,219,141,291,285,303,167,100,124,136,82,280,0,
1,1774292005184,-157,-67,10299,21991,128281,1221,0,0,0,122,160,74,282,224,256,541,428,190,584,492,287,0,
2,1774292005184,4623,19057,6020,5874080,-276111,-2426356,0,0,0,237,208,134,279,263,289,177,131,113,119,97,259,0,
1,1774292005200,-119,-86,10198,95294,70860,0,0,0,0,133,190,90,265,227,255,492,400,209,566,477,301,0,
2,1774292005200,2053,19932,6317,-780685,-305432,-2906496,0,0,0,238,216,138,278,266,284,186,172,154,102,93,270,0,
1,1774292005216,-95,-157,10208,146607,31764,0,0,0,0,148,187,77,256,239,242,429,369,205,551,450,285,0,
2,1774292005216,473,12921,9992,-5009094,-57421,-2774549,0,0,0,234,210,144,288,267,310,188,134,152,118,82,302,0,
1,1774292005232,-95,-205,10184,164933,-3665,-1221,0,0,0,254,267,138,256,234,248,469,367,186,525,439,304,0,
2,1774292005232,665,6403,8509,-5474574,318871,-2483778,0,0,0,232,207,139,282,256,295,172,79,132,119,65,285,0,
1,1774292005248,-162,-224,10078,171042,-26878,0,0,0,0,233,268,141,242,232,268,421,343,199,486,405,325,0,
2,1774292005248,607,4871,5398,-4570493,706160,-2251649,0,0,0,231,205,135,302,258,292,169,86,123,121,68,274,0,
1,1774292005264,-210,-258,10021,180816,-29321,7330,0,0,0,140,172,87,269,250,301,412,307,218,474,357,345,0,
2,1774292005264,-813,5709,4785,-4427551,955393,-1849699,0,0,0,231,198,136,311,262,298,188,105,140,128,73,277,0,
1,1774292005280,-205,-296,10021,195476,-13439,20769,0,0,0,195,192,87,293,259,281,431,259,198,459,302,343,0,
2,1774292005280,-1253,5527,6345,-4961447,853989,-1343903,0,0,0,235,192,139,291,255,291,205,92,155,118,53,265,0,
1,1774292005296,-153,-320,10045,216246,1221,31764,0,0,0,185,190,73,306,270,290,417,242,206,433,292,362,0,
2,1774292005296,-507,4556,8030,-5433035,758694,-863763,0,0,0,238,197,143,292,251,292,198,92,136,97,39,260,0,
1,1774292005312,-148,-335,10088,241902,14660,41538,0,0,0,180,206,77,295,277,291,394,252,211,402,308,372,0,
2,1774292005312,1206,3053,9772,-5683490,982271,-459370,0,0,0,229,196,138,261,223,275,178,78,142,105,58,271,0,
1,1774292005328,-105,-378,10117,272445,32986,51312,0,0,0,175,228,73,303,295,294,373,269,202,365,308,375,0,
2,1774292005328,1627,2297,11557,-5812993,1558928,-243124,0,0,0,232,199,137,271,239,286,178,88,137,127,70,274,0,
1,1774292005344,-47,-430,10126,296880,34208,53756,0,0,0,179,234,73,315,302,313,376,238,206,353,260,397,0,
2,1774292005344,1105,1641,13850,-6120869,2057394,18325,0,0,0,229,194,141,257,238,283,171,74,127,128,64,271,0,
1,1774292005360,-76,-483,10141,315206,17104,53756,0,0,0,196,229,84,310,291,326,348,203,224,333,229,409,0,
2,1774292005360,660,770,16549,-6566801,2173458,415388,0,0,0,227,194,147,255,214,273,162,69,119,95,48,263,0,
1,1774292005376,-201,-540,10145,337197,4886,73303,0,0,0,214,235,91,299,289,325,307,201,233,298,229,414,0,
2,1774292005376,1062,-215,19215,-6912551,2135584,850324,0,0,0,219,190,141,254,216,268,170,102,134,115,65,281,0,
1,1774292005392,-296,-607,10193,367740,20769,111177,0,0,0,223,249,88,299,309,329,301,208,234,280,226,444,0,
2,1774292005392,2081,-1469,22316,-7068932,2189341,1299921,0,0,0,226,197,139,263,241,272,200,113,148,118,72,278,0,
1,1774292005408,-172,-655,10270,409279,68416,150272,0,0,0,254,271,99,300,313,336,291,206,236,269,223,471,0,
2,1774292005408,2579,-3790,26178,-7032280,2450791,1761735,0,0,0,219,198,140,265,239,270,211,121,165,119,74,282,0,
1,1774292005424,134,-713,10308,477696,90408,147829,0,0,0,338,321,129,296,279,334,281,175,230,258,192,465,0,
2,1774292005424,2522,-7523,29538,-6928433,2645046,2250427,0,0,0,218,198,159,262,228,283,191,94,149,125,79,286,0,
1,1774292005440,306,-760,10351,547335,48869,117286,0,0,0,374,322,140,300,268,340,293,155,231,261,174,495,0,
2,1774292005440,2182,-14410,30882,-6703635,2818532,2755002,0,0,0,223,201,168,279,236,295,211,96,146,130,76,286,0,
1,1774292005456,282,-799,10524,625526,-40317,78190,0,0,0,428,384,178,266,265,351,245,140,232,229,167,485,0,
2,1774292005456,1837,-24120,28097,-6225938,3101973,2838079,0,0,0,220,205,165,291,248,295,228,121,157,134,74,285,0,
1,1774292005472,114,-856,10806,726929,-102625,51312,0,0,0,363,336,143,290,292,379,237,153,231,239,179,507,0,
2,1774292005472,1373,-36070,21416,-5180137,3260798,2285857,0,0,0,213,205,167,274,247,294,190,99,142,135,80,285,0,
1,1774292005488,-81,-938,11174,882089,-98960,48869,0,0,0,305,303,119,361,313,411,306,146,252,276,189,529,0,
2,1774292005488,-2359,-41507,14792,-3360980,3386636,805120,0,0,0,216,206,164,265,246,293,183,66,128,146,93,285,0,
1,1774292005504,-167,-1038,11538,1119105,-45204,65973,0,0,0,296,285,111,337,327,411,242,150,253,285,205,523,0,
2,1774292005504,-9317,-42340,11706,-1562593,3106860,-520457,0,0,0,208,200,137,269,244,298,233,149,169,202,168,275,0,
1,1774292005520,-186,-1153,11921,1445307,35430,90408,0,0,0,359,329,139,374,341,385,198,136,265,251,173,516,0,
2,1774292005520,-16386,-37965,15434,459370,1346346,-1114218,0,0,0,193,179,118,262,232,255,273,278,139,290,316,239,0,
1,1774292005536,-277,-1301,12237,1826487,161268,119729,0,0,0,385,354,139,342,322,396,160,122,264,259,186,523,0,
2,1774292005536,-8312,-14032,15003,2918714,-1225395,-377514,0,0,0,198,170,126,267,250,297,278,401,145,297,415,242,0,
1,1774292005552,-291,-1507,12266,2182010,357967,162490,0,0,0,339,337,111,314,322,382,147,123,237,261,208,520,0,
2,1774292005552,2196,6001,9413,4751309,-2267531,366519,0,0,0,214,182,119,308,258,330,370,513,179,363,521,257,0,
1,1774292005568,-263,-1641,13428,2544864,537561,202807,0,0,0,259,300,82,312,343,362,141,128,213,247,221,479,0,
2,1774292005568,2378,3598,11505,5470909,-1364672,555887,0,0,0,224,186,120,310,271,361,475,585,201,499,613,300,0,
1,1774292005584,-492,-1488,16147,3248581,646295,256563,0,0,0,210,285,78,321,351,375,140,136,231,244,218,436,0,
2,1774292005584,-693,-2225,16807,5347514,-756251,229685,0,0,0,264,207,130,299,257,315,578,684,210,549,641,272,0,
1,1774292005600,-784,-1311,19238,4262617,855211,337197,0,0,0,177,287,89,321,345,400,150,148,260,241,214,421,0,
2,1774292005600,-531,-3967,20100,4386012,-785572,-331088,0,0,0,304,230,141,307,273,307,622,712,217,590,665,286,0,
1,1774292005616,-933,-1430,24847,5632177,1291369,441044,0,0,0,118,259,79,298,351,385,146,153,228,220,229,389,0,
2,1774292005616,1402,-2397,17611,2868623,-557109,-223576,0,0,0,319,244,172,313,276,311,642,693,235,610,686,320,0,
1,1774292005632,-703,-2134,32524,7123910,1725083,466701,0,0,0,122,197,75,290,321,328,153,150,185,226,207,361,0,
2,1774292005632,1718,-1469,13898,1409876,-173485,-2443,0,0,0,330,249,215,320,285,335,655,669,253,622,683,340,0,
1,1774292005648,-1823,-1785,35371,8363966,1728748,417831,0,0,0,74,96,64,190,233,290,125,126,183,193,173,356,0,
2,1774292005648,1201,-760,10772,581543,-42760,80634,0,0,0,357,276,244,330,302,368,653,648,271,637,671,354,0,
1,1774292005664,-4718,2115,32328,9275377,1191187,544891,0,0,0,17,25,20,192,174,227,146,92,140,191,129,256,0,
2,1774292005664,1067,-344,9925,399505,-120951,40317,0,0,0,381,312,245,338,312,363,661,628,285,636,648,363,0,
1,1774292005680,-6441,10083,25278,9737191,653625,1034805,0,0,0,20,23,27,209,152,243,163,98,150,197,128,258,0,
2,1774292005680,1225,-244,10251,406836,-216246,-10995,0,0,0,392,318,234,352,327,343,694,595,277,623,580,363,0,
1,1774292005696,-6197,15439,13065,9274156,624304,1711644,0,0,0,20,20,28,196,151,238,142,96,144,181,128,258,0,
