sole_id,timestamp,accel_x,accel_y,accel_z,gyro_x,gyro_y,gyro_z,magn_x,magn_y,magn_z,pressure_01,pressure_02,pressure_03,pressure_04,pressure_05,pressure_06,pressure_07,pressure_08,pressure_09,pressure_10,pressure_11,pressure_12,corrupt,concrete
2,1774544960816,454,-248,9992,-40317,-50090,-10995,0,0,0,372,218,187,315,251,270,523,306,208,460,334,320,0,
1,1774544960832,-454,-19,10045,-46425,-112399,2443,0,0,0,169,70,114,236,120,259,441,338,212,378,292,325,0,
2,1774544960832,464,-234,9978,-36651,-45204,-7330,0,0,0,347,208,174,317,258,284,517,299,203,455,329,308,0,
1,1774544960848,-473,-14,10026,-40317,-94073,0,0,0,0,176,63,128,237,114,267,455,329,225,389,259,342,0,
2,1774544960848,464,-234,9983,-34208,-45204,-8552,0,0,0,334,209,175,300,250,267,511,298,197,460,320,301,0,
1,1774544960864,-478,-9,10002,-37873,-74525,1221,0,0,0,175,68,120,246,114,269,448,330,214,393,249,337,0,
2,1774544960864,464,-224,9987,-28099,-47647,-12217,0,0,0,353,221,169,311,277,262,512,306,195,464,305,299,0,
1,1774544960880,-459,-4,10002,-31764,-58643,3665,0,0,0,165,62,116,246,120,263,447,343,209,390,272,336,0,
2,1774544960880,464,-220,9978,-24434,-48869,-12217,0,0,0,327,216,150,319,294,277,537,316,245,444,321,280,0,
1,1774544960896,-440,-4,10007,-24434,-54977,3665,0,0,0,168,54,104,234,90,238,458,328,217,393,252,318,0,
2,1774544960896,454,-220,9968,-21991,-50090,-12217,0,0,0,328,210,166,326,275,298,532,306,229,449,345,302,0,
1,1774544960912,-430,0,10011,-20769,-56199,2443,0,0,0,166,53,102,235,95,237,460,352,212,395,275,312,0,
2,1774544960912,449,-201,9968,-21991,-48869,-12217,0,0,0,366,204,149,290,250,264,501,303,215,457,357,293,0,
1,1774544960928,-435,0,10002,-19547,-59864,3665,0,0,0,156,49,111,246,105,267,458,344,228,400,292,339,0,
2,1774544960928,449,-186,9968,-20769,-48869,-12217,0,0,0,347,222,182,304,296,292,507,289,200,450,363,295,0,
1,1774544960944,-445,0,10002,-21991,-58643,3665,0,0,0,158,50,100,249,103,248,460,338,222,402,292,325,0,
2,1774544960944,454,-201,9964,-19547,-50090,-13439,0,0,0,329,233,169,304,308,294,515,318,227,448,384,292,0,
1,1774544960960,-464,4,10011,-26878,-53756,6108,0,0,0,147,41,93,247,101,246,470,337,218,399,275,323,0,
2,1774544960960,445,-205,9959,-18325,-48869,-13439,0,0,0,328,228,156,295,282,259,513,317,212,459,396,300,0,
1,1774544960976,-469,4,10011,-28099,-41538,6108,0,0,0,127,29,87,260,106,267,480,334,221,402,267,327,0,
2,1774544960976,435,-191,9968,-20769,-46425,-12217,0,0,0,329,224,152,301,275,250,518,315,207,468,386,300,0,
1,1774544960992,-469,4,10011,-28099,-30543,8552,0,0,0,116,26,81,266,107,265,491,335,221,406,271,324,0,
2,1774544960992,435,-177,9987,-23212,-41538,-12217,0,0,0,324,236,148,294,302,254,515,326,199,470,389,295,0,
1,1774544961008,-459,9,10031,-21991,-28099,10995,0,0,0,112,26,75,263,103,248,501,337,215,406,270,321,0,
2,1774544961008,440,-162,9987,-21991,-35430,-10995,0,0,0,323,242,147,295,317,256,458,320,185,471,398,293,0,
1,1774544961024,-435,28,10054,-3665,-30543,10995,0,0,0,106,22,71,265,103,250,497,336,212,401,256,322,0,
2,1774544961024,449,-134,9968,-3665,-24434,-7330,0,0,0,335,223,155,317,291,272,419,317,196,471,387,290,0,
1,1774544961040,-435,43,10093,30543,-37873,12217,0,0,0,113,25,76,255,102,247,478,330,216,388,240,325,0,
2,1774544961040,459,-119,9944,23212,-10995,-3665,0,0,0,339,217,159,284,263,255,518,353,173,481,387,290,0,
1,1774544961056,-440,52,10141,85521,-46425,14660,0,0,0,116,34,77,254,109,247,478,306,212,379,222,328,0,
2,1774544961056,473,-134,9930,47647,-3665,-1221,0,0,0,333,208,151,285,257,241,527,352,186,502,377,282,0,
1,1774544961072,-459,43,10208,174707,-56199,21991,0,0,0,136,52,88,250,125,252,435,281,200,320,192,331,0,
2,1774544961072,473,-157,9911,56199,0,0,0,0,0,342,218,184,316,264,271,569,379,219,501,377,286,0,
1,1774544961088,-483,14,10260,261450,-62308,29321,0,0,0,157,50,94,250,97,247,400,139,198,285,81,321,0,
2,1774544961088,492,-181,9906,51312,-1221,0,0,0,0,355,227,188,327,285,297,573,365,219,511,383,286,0,
1,1774544961104,-492,-4,10375,376292,-67195,39095,0,0,0,165,50,105,233,84,233,345,101,195,253,82,332,0,
2,1774544961104,516,-196,9897,36651,-9773,0,0,0,0,346,218,214,332,280,302,616,405,243,529,376,297,0,
1,1774544961120,-454,-33,10619,548556,-94073,46425,0,0,0,173,60,106,237,86,234,311,82,184,237,69,326,0,
2,1774544961120,521,-201,9892,17104,-26878,0,0,0,0,357,226,216,340,314,339,571,431,212,555,407,314,0,
1,1774544961136,-478,-90,10964,795346,-160046,51312,0,0,0,170,58,124,216,77,279,272,69,214,185,53,354,0,
2,1774544961136,521,-201,9925,0,-45204,-1221,0,0,0,364,241,208,332,310,347,584,450,249,551,394,319,0,
1,1774544961152,-808,-239,11787,1089783,-200363,72082,0,0,0,164,61,124,207,71,250,274,62,192,184,53,320,0,
2,1774544961152,526,-172,10021,-15882,-64751,-4886,0,0,0,363,264,193,332,304,323,597,456,245,570,404,328,0,
1,1774544961168,-1167,153,14276,1480737,-70860,152716,0,0,0,171,75,128,206,70,228,261,63,181,182,54,278,0,
2,1774544961168,521,-153,10093,-26878,-86742,-6108,0,0,0,367,277,194,341,314,320,610,464,246,596,407,338,0,
1,1774544961184,-1167,507,15740,1938886,184481,213802,0,0,0,169,70,117,201,68,203,243,67,160,173,61,238,0,
2,1774544961184,497,-134,10131,-28099,-94073,-7330,0,0,0,376,282,221,352,311,340,620,466,262,594,384,352,0,
1,1774544961200,-1665,186,15395,2431243,378736,290771,0,0,0,163,59,107,176,65,176,234,76,152,161,61,217,0,
2,1774544961200,478,-110,10155,-15882,-89186,-6108,0,0,0,376,300,233,362,303,345,613,457,255,588,382,363,0,
1,1774544961216,-2627,-272,14553,2764776,327423,465479,0,0,0,148,53,112,151,62,169,220,85,157,156,58,223,0,
2,1774544961216,478,-105,10150,-2443,-80634,-6108,0,0,0,368,314,201,362,316,324,608,454,254,607,401,361,0,
1,1774544961232,-2751,325,13237,2879618,160046,735481,0,0,0,131,50,114,154,62,173,204,85,147,167,65,233,0,
2,1774544961232,478,-105,10112,9773,-69638,-6108,0,0,0,375,283,198,352,295,295,605,436,245,604,387,361,0,
1,1774544961248,-1809,4087,11007,2664594,348193,896750,0,0,0,147,54,117,163,61,169,209,82,141,179,68,228,0,
2,1774544961248,478,-119,10074,18325,-57421,-7330,0,0,0,421,280,199,375,321,344,606,433,255,596,391,370,0,
1,1774544961264,-1593,8719,9571,1771509,851546,790459,0,0,0,149,55,117,158,60,166,206,85,138,178,72,227,0,
2,1774544961264,483,-134,10064,23212,-47647,-9773,0,0,0,412,284,201,375,321,340,617,461,270,581,376,389,0,
1,1774544961280,-3211,10078,8777,626747,757472,536339,0,0,0,136,68,108,153,73,166,207,96,145,172,83,229,0,
2,1774544961280,483,-134,10045,20769,-40317,-10995,0,0,0,408,295,216,377,317,367,618,445,271,610,394,395,0,
1,1774544961296,-3527,9868,7791,124616,238237,344527,0,0,0,120,42,97,153,57,160,207,86,144,177,70,228,0,
2,1774544961296,492,-143,10011,20769,-41538,-14660,0,0,0,393,293,212,368,309,344,605,452,275,606,404,383,0,
1,1774544961312,-2368,10054,6972,-80634,-109955,113620,0,0,0,134,37,101,175,61,170,228,84,146,207,74,243,0,
2,1774544961312,492,-138,9983,29321,-47647,-17104,0,0,0,379,299,209,370,321,331,581,422,243,608,393,376,0,
1,1774544961328,-1665,10155,6944,-558330,-141720,-194255,0,0,0,124,36,97,183,66,179,229,87,156,214,78,248,0,
2,1774544961328,483,-138,9983,50090,-52534,-18325,0,0,0,382,300,254,452,358,354,606,428,267,607,384,387,0,
1,1774544961344,-1550,9428,7374,-1060462,-224798,-355523,0,0,0,120,39,102,169,64,175,211,76,150,195,74,246,0,
2,1774544961344,469,-143,10002,80634,-50090,-20769,0,0,0,386,295,234,449,355,369,605,427,271,591,376,389,0,
1,1774544961360,-1273,8198,8145,-1489289,-366519,-316428,0,0,0,135,52,116,153,63,168,188,78,140,180,76,238,0,
2,1774544961360,473,-157,10021,97738,-40317,-20769,0,0,0,385,296,194,403,335,372,599,436,269,583,377,405,0,
1,1774544961376,-885,6853,9164,-1930334,-471587,-217468,0,0,0,143,62,125,142,65,165,172,86,137,168,83,233,0,
2,1774544961376,488,-177,10026,100181,-39095,-20769,0,0,0,385,301,194,400,328,379,598,431,269,586,373,425,0,
1,1774544961392,-641,5470,10179,-2323731,-529009,-150272,0,0,0,143,58,130,141,63,178,166,82,149,160,79,240,0,
2,1774544961392,483,-196,10007,91629,-53756,-20769,0,0,0,385,311,203,423,332,397,594,401,263,580,362,425,0,
1,1774544961408,-483,3823,11050,-2594955,-580321,-122173,0,0,0,144,51,132,150,60,183,171,73,154,162,66,242,0,
2,1774544961408,469,-210,10007,89186,-64751,-21991,0,0,0,378,337,199,438,347,415,606,408,270,567,377,439,0,
1,1774544961424,-358,1990,11797,-2640159,-605978,-100181,0,0,0,143,51,131,154,60,173,175,65,141,165,61,236,0,
2,1774544961424,454,-224,10021,95294,-68416,-21991,0,0,0,383,336,197,425,330,391,577,390,229,572,376,445,0,
1,1774544961440,-167,138,12534,-2536312,-624304,-80634,0,0,0,145,53,139,149,57,184,168,54,143,165,61,242,0,
2,1774544961440,440,-224,10045,107512,-61086,-20769,0,0,0,393,310,195,435,339,381,603,379,256,595,365,456,0,
1,1774544961456,253,-1679,13132,-2280970,-624304,-109955,0,0,0,145,52,131,151,50,178,176,54,139,171,59,237,0,
2,1774544961456,440,-239,10059,123394,-51312,-19547,0,0,0,403,338,200,459,414,440,593,357,228,556,371,458,0,
1,1774544961472,732,-3244,13462,-2006081,-592539,-180816,0,0,0,142,48,145,150,54,192,175,58,149,171,60,246,0,
2,1774544961472,454,-258,10078,140499,-41538,-19547,0,0,0,404,340,198,479,442,470,577,353,254,510,360,465,0,
1,1774544961488,1119,-4637,13405,-1839926,-560774,-270002,0,0,0,142,55,140,156,60,192,175,55,150,163,58,249,0,
2,1774544961488,459,-272,10088,160046,-39095,-19547,0,0,0,424,363,228,472,428,431,597,356,287,491,355,483,0,
1,1774544961504,1296,-6307,12907,-2010968,-656069,-316428,0,0,0,143,51,136,157,57,192,169,52,145,162,56,244,0,
2,1774544961504,454,-291,10093,174707,-36651,-20769,0,0,0,438,356,251,469,407,454,589,286,292,455,306,489,0,
1,1774544961520,1617,-8911,12237,-2169793,-778242,-359188,0,0,0,140,44,136,157,54,194,172,49,145,163,56,246,0,
2,1774544961520,459,-320,10098,196698,-20769,-20769,0,0,0,451,360,233,477,436,502,577,222,296,453,252,533,0,
1,1774544961536,1909,-11643,11438,-1918116,-681725,-417831,0,0,0,137,43,133,155,58,190,171,55,144,161,57,239,0,
2,1774544961536,459,-349,10136,228463,1221,-20769,0,0,0,471,361,226,480,451,517,566,196,310,430,202,566,0,
1,1774544961552,1718,-13175,10643,-1423316,-415388,-444709,0,0,0,135,47,127,156,61,183,167,55,139,160,58,244,0,
2,1774544961552,440,-387,10184,273667,39095,-17104,0,0,0,485,393,234,487,507,515,559,186,300,359,166,592,0,
1,1774544961568,794,-13352,9925,-823446,-128281,-353080,0,0,0,131,48,111,162,61,175,164,53,123,158,57,216,0,
2,1774544961568,454,-411,10284,335975,90408,-13439,0,0,0,494,422,228,499,548,498,545,197,295,306,154,611,0,
1,1774544961584,-397,-12806,9451,-307876,-92851,-54977,0,0,0,131,49,113,162,59,177,164,49,122,158,54,208,0,
2,1774544961584,521,-440,10433,410501,130725,-12217,0,0,0,511,403,200,514,512,490,523,197,318,269,124,618,0,
1,1774544961600,-1196,-11916,9145,149051,-206472,322536,0,0,0,130,46,127,154,55,183,162,49,135,159,54,225,0,
2,1774544961600,598,-516,10533,492357,133168,-18325,0,0,0,534,380,178,522,486,519,488,152,322,183,53,629,0,
1,1774544961616,-1507,-10480,8987,537561,-327423,739146,0,0,0,125,53,129,148,71,184,156,80,139,165,86,237,0,
2,1774544961616,588,-617,10768,618195,107512,-25656,0,0,0,542,389,179,497,482,526,412,149,317,148,39,638,0,
1,1774544961632,-1852,-8748,8887,755029,-228463,1106887,0,0,0,125,68,117,147,94,171,166,130,132,171,126,228,0,
2,1774544961632,804,-684,11423,836885,70860,-34208,0,0,0,566,394,186,498,474,543,376,131,332,144,23,652,0,
1,1774544961648,-2129,-7044,8791,841772,-89186,1365894,0,0,0,127,55,104,142,74,142,209,152,132,176,109,186,0,
2,1774544961648,1225,-679,12476,1218065,97738,-123394,0,0,0,567,443,176,514,515,576,332,145,305,155,53,648,0,
1,1774544961664,1229,-1785,11208,900415,193033,1381777,0,0,0,88,33,93,126,58,122,250,184,127,225,141,153,0,
2,1774544961664,1033,-622,12988,1610240,-6108,-207694,0,0,0,574,443,185,492,546,551,302,112,275,155,74,675,0,
1,1774544961680,3598,5216,11629,1265712,811229,602313,0,0,0,17,5,27,161,77,173,328,255,159,279,183,205,0,
2,1774544961680,636,-674,13132,1996307,-237015,-188146,0,0,0,575,441,179,486,466,530,292,110,254,172,42,651,0,
1,1774544961696,799,4053,11926,1959655,1138652,-65973,0,0,0,143,45,65,194,77,134,396,317,141,352,245,170,0,x
2,1774544961696,770,-832,13653,2453234,-384845,-163711,0,0,0,608,433,169,558,492,514,281,130,234,161,71,651,0,x
1,1774544961712,-1718,-2359,15305,1846034,1177748,-178372,0,0,0,21,2,17,217,83,182,425,248,199,389,231,242,0,
2,1774544961712,1296,-914,14979,3046995,-470366,-200363,0,0,0,571,419,156,483,499,483,237,132,216,145,87,614,0,
1,1774544961728,-382,-2613,13988,613308,654847,-76969,0,0,0,46,0,29,232,87,174,478,250,158,467,292,216,0,
2,1774544961728,1780,-885,16683,3766595,-641408,-301767,0,0,0,512,428,148,441,484,457,231,114,183,140,74,559,0,
1,1774544961744,311,90,10174,-80634,112399,-25656,0,0,0,53,5,34,233,94,181,492,293,157,463,340,213,0,
2,1774544961744,2613,-942,19128,4825835,-1047023,-485026,0,0,0,475,410,137,444,484,442,212,110,160,146,69,494,0,
1,1774544961760,-277,1033,8628,2443,-14660,-45204,0,0,0,56,10,38,234,103,204,495,331,177,474,415,228,0,
2,1774544961760,3211,-1134,22167,5823989,-1475850,-702495,0,0,0,434,359,128,424,442,397,196,117,138,156,69,435,0,
1,1774544961776,-684,-33,9834,39095,105068,-59864,0,0,0,63,20,41,246,108,215,495,346,191,531,459,228,0,
2,1774544961776,3086,-1842,26235,6886894,-1837482,-896750,0,0,0,384,308,126,384,356,325,200,114,116,153,52,379,0,
1,1774544961792,-655,-311,10595,-118507,178372,-52534,0,0,0,153,90,87,237,114,211,498,375,201,579,484,235,0,
2,1774544961792,2584,-1923,28829,7795862,-1721418,-904080,0,0,0,340,265,127,342,294,265,193,101,106,136,43,310,0,
1,1774544961808,-478,114,10418,-197920,175929,-36651,0,0,0,158,91,88,242,127,224,507,421,211,601,501,247,0,
2,1774544961808,2933,1823,26867,8630304,-828333,-884532,0,0,0,282,211,127,278,253,220,179,97,99,141,80,245,0,
1,1774544961824,-368,382,10246,-166155,147829,-20769,0,0,0,88,39,47,264,146,241,512,456,213,607,511,248,0,
2,1774544961824,2866,7073,22249,9237504,-151494,-1009149,0,0,0,257,187,125,294,273,233,187,106,116,146,81,220,0,
1,1774544961840,-344,320,10308,-103847,103847,-12217,0,0,0,91,44,46,269,155,237,516,473,208,607,520,243,0,
2,1774544961840,2895,12232,11505,8418944,-267558,-1105666,0,0,0,257,195,119,277,255,221,214,142,146,145,81,232,0,
1,1774544961856,-315,268,10289,-65973,31764,-1221,0,0,0,90,42,44,273,152,224,526,477,197,611,506,231,0,
2,1774544961856,2014,15529,6972,5170363,-430049,-728151,0,0,0,242,187,119,292,256,228,199,122,136,150,80,223,0,
1,1774544961872,-339,272,10198,-37873,-21991,2443,0,0,0,89,41,39,271,149,204,509,468,162,620,506,212,0,
2,1774544961872,756,16740,9169,1221,-141720,94073,0,0,0,234,187,122,285,257,230,184,106,96,145,87,232,0,
1,1774544961888,-387,282,10126,-10995,-53756,4886,0,0,0,88,38,40,269,149,204,509,463,169,621,495,221,0,
2,1774544961888,1072,12371,10658,-3580892,310319,563217,0,0,0,239,181,120,282,271,215,191,110,127,167,92,228,0,
1,1774544961904,-402,291,10059,15882,-48869,8552,0,0,0,88,40,40,279,157,212,505,426,169,498,470,222,0,
2,1774544961904,2153,6757,8743,-4543615,759916,274889,0,0,0,236,179,111,286,276,213,181,110,119,174,94,226,0,
1,1774544961920,-378,306,10011,53756,-42760,14660,0,0,0,81,41,41,260,149,201,504,409,172,597,475,218,0,
2,1774544961920,1277,4982,6264,-3871663,1154535,-500909,0,0,0,229,178,112,282,268,214,183,121,100,155,85,221,0,
1,1774544961936,-344,287,10002,101403,-47647,20769,0,0,0,77,41,41,254,153,209,493,424,175,582,498,220,0,
2,1774544961936,-1301,5872,6618,-3948632,1017701,-972497,0,0,0,249,180,112,287,263,204,198,118,99,157,89,215,0,
1,1774544961952,-330,248,10016,134390,-61086,23212,0,0,0,83,44,44,257,145,216,483,411,173,578,479,234,0,
2,1774544961952,-2005,6049,8054,-4603480,399505,-1076344,0,0,0,259,179,112,299,273,208,198,114,88,159,104,214,0,
1,1774544961968,-335,234,10040,158824,-80634,25656,0,0,0,90,42,47,269,143,232,485,387,188,560,452,255,0,
2,1774544961968,-114,4948,9059,-5207015,72082,-1087340,0,0,0,242,176,113,287,277,211,192,130,90,142,109,214,0,
1,1774544961984,-387,191,10007,184481,-87964,26878,0,0,0,90,44,46,273,146,234,490,379,191,542,425,256,0,
2,1774544961984,1751,3685,9944,-5635842,355523,-1225395,0,0,0,237,177,115,258,263,196,197,143,121,139,101,217,0,
1,1774544962000,-416,143,9978,210137,-76969,29321,0,0,0,87,43,45,277,151,238,481,362,189,527,372,260,0,
2,1774544962000,2144,2660,11399,-5963266,1183856,-1429424,0,0,0,245,169,135,274,257,213,193,134,102,138,85,220,0,
1,1774544962016,-411,119,10007,240680,-61086,32986,0,0,0,91,41,47,286,157,253,475,331,192,495,312,289,0,
2,1774544962016,1541,1785,13304,-6265033,1799608,-1490511,0,0,0,249,166,135,274,242,207,205,119,113,143,75,219,0,
1,1774544962032,-387,86,10035,265115,-47647,34208,0,0,0,128,68,63,287,155,253,478,317,190,447,281,326,0,
2,1774544962032,832,837,15620,-6522819,1894903,-1291369,0,0,0,210,167,118,247,238,198,174,84,127,124,75,219,0,
1,1774544962048,-392,57,10074,284663,-37873,35430,0,0,0,181,108,84,290,153,250,468,294,197,428,265,365,0,
2,1774544962048,1502,-272,17520,-6649878,1666440,-934623,0,0,0,222,164,111,278,243,205,236,140,161,122,67,235,0,
1,1774544962064,-430,23,10150,311541,-13439,40317,0,0,0,138,97,72,342,185,279,507,260,211,461,255,417,0,
2,1774544962064,2962,-2167,19430,-6597344,1683544,-560774,0,0,0,226,158,132,269,255,216,204,116,146,125,70,234,0,
1,1774544962080,-459,-23,10227,334754,28099,51312,0,0,0,280,177,105,323,179,245,440,262,180,418,241,414,0,
2,1774544962080,3833,-5168,21756,-6104987,2247984,-147829,0,0,0,227,162,120,272,257,225,203,130,127,71,12,222,0,
1,1774544962096,-445,-76,10256,348193,72082,62308,0,0,0,290,209,104,351,259,278,424,190,200,394,249,444,0,
2,1774544962096,2048,-7810,23929,-5271767,2841745,636521,0,0,0,224,160,111,262,257,207,189,116,101,106,49,233,0,
1,1774544962112,-382,-114,10275,357967,90408,72082,0,0,0,252,146,90,367,243,322,389,160,228,357,187,448,0,
2,1774544962112,-1081,-10476,25264,-4775744,3014009,1842369,0,0,0,227,161,116,266,252,201,200,122,120,122,69,243,0,
1,1774544962128,-358,-153,10356,378736,84299,83077,0,0,0,207,115,67,365,269,350,350,148,231,315,163,478,0,
2,1774544962128,-4029,-15754,24546,-5077511,2803871,2842966,0,0,0,225,162,117,274,253,214,206,112,114,99,51,234,0,
1,1774544962144,-306,-205,10466,416610,52534,95294,0,0,0,237,147,82,360,271,349,351,145,236,303,172,518,0,
2,1774544962144,-5824,-23378,22029,-5242445,2335948,3374419,0,0,0,221,165,117,270,252,213,199,93,104,108,55,233,0,
1,1774544962160,-339,-220,10983,526565,-47647,103847,0,0,0,260,186,94,369,301,382,321,149,251,320,201,542,0,
2,1774544962160,-4919,-31662,17262,-4542393,1425759,3026226,0,0,0,216,166,116,264,254,208,197,100,124,136,81,245,0,
1,1774544962176,-727,-253,11887,790459,-226020,155159,0,0,0,277,195,83,374,322,383,285,143,226,312,201,554,0,
2,1774544962176,-3330,-35654,12471,-2636494,777020,1543045,0,0,0,211,161,110,266,264,218,200,122,140,135,85,243,0,
1,1774544962192,-641,-248,12653,1222952,-265115,237015,0,0,0,290,192,77,367,331,394,256,136,226,303,200,567,0,
2,1774544962192,-5652,-35013,10241,-761138,807563,140499,0,0,0,213,165,107,277,267,214,221,124,123,154,97,226,0,
1,1774544962208,-344,-287,13046,1700648,-34208,250454,0,0,0,304,196,87,358,317,401,220,125,235,310,203,558,0,
2,1774544962208,-10552,-30701,10729,778242,805120,-514348,0,0,0,208,165,95,322,272,207,308,139,76,229,159,190,0,
1,1774544962224,-449,-416,13208,2147802,252898,229685,0,0,0,375,264,136,373,303,383,173,105,218,302,195,537,0,
2,1774544962224,-7394,-17970,15620,1865582,-388510,-221133,0,0,0,178,141,82,287,236,186,331,225,87,314,249,178,0,
1,1774544962240,-626,-574,13294,2630385,439822,252898,0,0,0,465,361,192,384,303,377,138,89,209,271,188,528,0,
2,1774544962240,1890,3981,17410,2893057,-2007303,125838,0,0,0,174,140,77,272,229,187,367,305,147,345,325,192,0,
1,1774544962256,-583,-703,13682,3153286,635299,288328,0,0,0,415,316,146,322,269,392,128,89,211,269,182,506,0,
2,1774544962256,3819,9059,10935,3870442,-2576629,541226,0,0,0,181,133,77,288,241,207,401,368,123,407,405,184,0,
1,1774544962272,-904,-698,15252,3772703,853989,326202,0,0,0,387,288,121,299,282,400,121,87,201,258,164,492,0,
2,1774544962272,-626,1794,10758,4790405,-1942551,893084,0,0,0,220,151,75,311,265,234,490,441,195,457,494,193,0,
1,1774544962288,-1627,-569,17267,4763527,1172861,453262,0,0,0,225,262,88,288,328,413,136,113,219,237,221,465,0,
2,1774544962288,-4551,-4656,16487,4503298,-817337,624304,0,0,0,262,203,140,269,265,281,511,493,231,540,540,235,0,
1,1774544962304,-1718,-607,19894,5943718,1627344,625526,0,0,0,197,255,96,278,299,381,145,118,218,224,204,462,0,
2,1774544962304,-1612,-2665,17583,3027448,-215024,6108,0,0,0,284,200,134,297,259,285,579,535,215,584,549,259,0,
1,1774544962320,-1421,-1100,25714,7045719,2178345,725707,0,0,0,130,217,108,222,277,365,116,107,203,166,186,440,0,
2,1774544962320,1062,-531,14687,1620014,96516,-160046,0,0,0,310,195,135,306,248,275,605,550,199,602,540,289,0,
1,1774544962336,-780,-1866,33495,8219802,2932153,647517,0,0,0,108,129,87,220,210,308,137,103,212,208,141,368,0,
2,1774544962336,894,-248,11366,919963,180816,0,0,0,0,329,192,156,316,248,285,628,555,235,614,535,309,0,
1,1774544962352,-2895,-1660,35539,9248499,3032335,454483,0,0,0,46,35,33,212,133,196,153,89,120,204,114,248,0,
2,1774544962352,473,-440,10284,656069,164933,63529,0,0,0,343,189,164,321,252,297,641,540,255,629,540,315,0,
1,1774544962368,-6264,4091,30739,9759183,1700648,604756,0,0,0,23,3,19,186,94,173,142,69,106,172,86,221,0,
2,1774544962368,617,-516,10404,475253,79412,31764,0,0,0,352,197,170,316,251,294,650,532,253,646,547,323,0,
1,1774544962384,-7092,11529,20296,9679770,575435,923628,0,0,0,97,63,80,169,102,177,121,88,100,147,104,209,0,
2,1774544962384,770,-325,10471,246789,-21991,4886,0,0,0,366,209,185,323,262,296,664,537,247,657,543,330,0,
1,1774544962400,-4580,13026,9246,7904596,467922,544891,0,0,0,141,104,110,150,97,165,112,75,93,140,90,188,0,
2,1774544962400,689,-105,10366,95294,-89186,0,0,0,0,391,213,180,336,290,313,638,498,197,655,532,323,0,
1,1774544962416,-1655,12476,9600,3419623,665843,-803898,0,0,0,116,81,94,142,77,149,118,53,92,141,63,177,0,
2,1774544962416,588,-19,10270,69638,-109955,-2443,0,0,0,357,210,189,319,255,301,663,518,236,641,535,333,0,
1,1774544962432,-1206,12270,10926,-1555262,657290,-1747074,0,0,0,104,60,90,152,71,143,127,56,89,144,67,180,0,
2,1774544962432,559,-4,10232,78190,-112399,-9773,0,0,0,389,225,175,333,296,283,674,510,213,644,527,337,0,
1,1774544962448,-3201,9600,10595,-4405560,86742,-1626123,0,0,0,129,69,106,153,69,149,125,54,94,149,68,189,0,
2,1774544962448,559,-9,10184,98960,-103847,-19547,0,0,0,373,217,189,300,248,260,636,472,200,612,473,324,0,
1,1774544962464,-3163,6197,8542,-4719544,-994488,-783129,0,0,0,123,58,118,139,61,163,117,51,110,143,61,200,0,
2,1774544962464,569,-9,10098,116064,-103847,-26878,0,0,0,373,223,178,302,239,263,632,489,241,602,465,316,0,
1,1774544962480,-521,4608,6877,-4519181,-1588249,20769,0,0,0,128,58,102,139,60,144,119,49,91,144,60,189,0,
2,1774544962480,598,-19,10021,130725,-120951,-31764,0,0,0,367,210,178,313,245,267,602,403,207,594,436,346,0,
1,1774544962496,2292,4517,6570,-4592484,-1238834,433714,0,0,0,127,58,92,146,56,140,127,49,85,150,58,180,0,
2,1774544962496,622,-47,9968,140499,-157603,-40317,0,0,0,381,225,188,309,228,272,604,390,218,572,426,348,0,
1,1774544962512,2723,4465,7336,-5046968,-559552,483805,0,0,0,125,54,95,142,63,140,123,49,93,150,57,186,0,
2,1774544962512,579,-81,9935,131946,-193033,-48869,0,0,0,390,247,234,379,275,313,593,360,223,575,423,369,0,
1,1774544962528,1818,4134,8480,-5568647,-188146,465479,0,0,0,142,48,83,182,63,140,157,48,80,185,57,176,0,
2,1774544962528,512,-105,9930,123394,-211359,-54977,0,0,0,408,266,273,372,281,332,575,336,229,570,402,387,0,
1,1774544962544,713,3402,9887,-5964488,-357967,542448,0,0,0,128,61,100,140,59,131,120,51,82,144,61,168,0,
2,1774544962544,454,-114,9959,133168,-201585,-52534,0,0,0,436,284,253,334,266,315,553,296,217,553,359,383,0,
1,1774544962560,387,2670,11165,-6157521,-712268,654847,0,0,0,136,49,87,177,65,134,162,53,86,181,62,175,0,
2,1774544962560,406,-138,9992,149051,-185703,-47647,0,0,0,449,300,204,351,296,300,509,254,210,544,333,401,0,
1,1774544962576,751,2120,12648,-6262590,-1029918,680503,0,0,0,129,44,81,179,64,135,168,54,86,182,63,177,0,
2,1774544962576,378,-181,9997,172263,-167377,-42760,0,0,0,445,317,186,367,344,312,502,291,248,533,338,438,0,
1,1774544962592,966,1818,14692,-6492275,-1053131,483805,0,0,0,67,26,43,181,72,148,164,61,95,178,67,188,0,
2,1774544962592,382,-201,10040,201585,-146607,-37873,0,0,0,452,334,194,389,375,347,573,317,257,509,319,447,0,
1,1774544962608,555,1320,17109,-6842912,-989601,153938,0,0,0,22,6,23,176,74,176,162,62,123,178,67,214,0,
2,1774544962608,411,-215,10093,230907,-135612,-37873,0,0,0,466,336,228,405,345,386,545,238,252,485,284,500,0,
1,1774544962624,-512,76,19875,-7182553,-1082453,-227241,0,0,0,84,34,95,152,65,172,144,52,124,151,57,203,0,
2,1774544962624,416,-239,10150,265115,-138055,-45204,0,0,0,478,345,211,417,385,416,514,214,264,443,238,539,0,
1,1774544962640,-1512,-3445,22593,-7143458,-1595580,-559552,0,0,0,138,63,158,137,60,164,126,45,116,128,49,189,0,
2,1774544962640,387,-268,10246,315206,-124616,-50090,0,0,0,522,375,244,480,431,432,525,193,277,421,191,581,0,
1,1774544962656,-1545,-9418,25316,-6533814,-2481334,-1034805,0,0,0,99,46,120,146,65,184,133,49,131,137,54,208,0,
2,1774544962656,392,-311,10394,390953,-100181,-58643,0,0,0,546,396,240,473,470,449,485,125,271,359,136,620,0,
1,1774544962672,564,-15046,26752,-5591860,-3017674,-1683544,0,0,0,26,7,32,163,77,204,159,62,152,158,66,230,0,
2,1774544962672,392,-339,10543,498466,-50090,-69638,0,0,0,578,423,218,551,480,456,485,171,295,325,105,617,0,
1,1774544962688,2842,-20100,25958,-5430591,-2252871,-2401922,0,0,0,11,0,28,162,75,200,166,68,155,155,67,227,0,
2,1774544962688,574,-430,10868,636521,32986,-87964,0,0,0,598,417,190,490,460,461,436,141,282,287,100,623,0,
1,1774544962704,851,-26857,22742,-5892406,-1001818,-2689028,0,0,0,9,1,35,159,71,202,162,63,156,155,62,227,0,
2,1774544962704,1134,-626,11744,884532,91629,-166155,0,0,0,632,409,188,490,485,480,411,126,267,234,55,647,0,
1,1774544962720,-4608,-34390,17573,-5788559,-563217,-2031737,0,0,0,23,13,38,160,84,208,164,87,165,157,81,233,0,
2,1774544962720,1009,-526,13558,1367116,83077,-289550,0,0,0,662,442,193,498,501,501,370,131,249,179,39,665,0,
1,1774544962736,-6001,-38894,12959,-4421442,-1483180,-681725,0,0,0,1,0,4,146,77,126,203,118,112,169,98,162,0,
2,1774544962736,71,-205,15051,2056172,-61086,-301767,0,0,0,677,455,203,480,493,509,334,164,230,149,48,677,0,
1,1774544962752,3316,-42287,13357,-2194227,-2878397,813672,0,0,0,0,0,0,152,83,110,253,240,101,223,242,130,0,
2,1774544962752,368,-406,14572,2649933,-238237,-234572,0,0,0,679,441,208,450,477,490,309,177,229,134,44,691,0,
1,1774544962768,13486,-39640,14185,829554,-1975538,797790,0,0,0,0,0,0,139,84,87,275,376,89,299,359,105,0,
2,1774544962768,856,-626,14414,3191160,-379958,-246789,0,0,0,672,444,190,418,466,471,257,141,243,128,47,680,0,
1,1774544962784,10461,-16343,11624,4522846,718377,155159,0,0,0,0,0,0,149,95,93,319,456,92,364,445,112,0,
2,1774544962784,1359,-646,15606,3861890,-592539,-324980,0,0,0,640,461,163,421,488,484,200,115,239,140,67,618,0,
1,1774544962800,-469,3819,15190,6354220,2487443,118507,0,0,0,0,0,0,169,126,119,386,483,111,432,469,141,0,
2,1774544962800,2670,-588,18516,4812396,-995710,-487470,0,0,0,546,473,155,429,508,473,195,121,207,148,80,541,0,
1,1774544962816,-2708,1627,20459,5617516,1854586,182037,0,0,0,4,0,3,197,116,150,456,489,131,492,487,173,0,
2,1774544962816,4446,-473,23053,6136752,-1618792,-810007,0,0,0,475,442,153,388,478,385,196,106,188,153,88,479,0,
1,1774544962832,52,-3034,20732,3990171,605978,25656,0,0,0,25,0,17,216,84,174,511,493,160,552,511,208,0,
2,1774544962832,5972,-684,29892,7657806,-2368935,-1259604,0,0,0,414,395,122,384,419,345,159,120,126,148,67,429,0,
1,1774544962848,1043,-2646,16118,2450791,-178372,-81855,0,0,0,52,1,32,226,82,187,557,501,184,613,510,246,0,
2,1774544962848,6724,-1550,36338,9070127,-2989574,-1602910,0,0,0,360,303,130,336,355,292,182,83,106,154,71,346,0,
1,1774544962864,-588,-320,11710,1583362,-267558,-106290,0,0,0,63,4,36,244,83,199,603,504,183,641,504,273,0,
2,1774544962864,8609,-354,37032,10188010,-2674368,-1797165,0,0,0,265,209,124,274,249,218,157,113,93,122,61,242,0,
1,1774544962880,-1273,-239,10619,1109331,-156381,-95294,0,0,0,69,7,44,258,81,227,636,501,199,653,516,289,0,
2,1774544962880,10074,7968,30155,10835527,-1093448,-2263866,0,0,0,260,189,114,275,239,193,177,89,70,130,80,224,0,
1,1774544962896,-880,-928,11036,679282,-53756,-50090,0,0,0,76,11,44,269,85,254,635,499,217,648,506,293,0,
2,1774544962896,9528,13740,19784,10706024,-172263,-2830749,0,0,0,253,192,136,267,245,200,173,91,94,128,88,225,0,
1,1774544962912,-607,-464,10624,268780,-30543,-4886,0,0,0,74,0,49,277,85,279,644,512,232,650,509,340,0,
2,1774544962912,7427,14156,10734,7883826,592539,-2651155,0,0,0,244,191,131,262,248,200,184,103,102,134,86,217,0,
1,1774544962928,-679,33,10184,84299,-34208,12217,0,0,0,81,5,48,270,86,258,643,500,229,644,480,323,0,
2,1774544962928,3134,16697,8164,2185675,1534493,-1448972,0,0,0,242,185,111,267,250,195,190,112,83,137,84,216,0,
1,1774544962944,-760,143,10102,45204,-40317,17104,0,0,0,75,7,53,265,88,262,627,452,222,612,455,325,0,
2,1774544962944,-114,14376,10691,-3423288,1183856,349414,0,0,0,243,184,105,279,260,198,188,121,90,136,86,218,0,
1,1774544962960,-727,57,10189,64751,-51312,23212,0,0,0,73,3,51,280,86,262,625,434,223,600,440,326,0,
2,1774544962960,674,8714,10232,-5477017,518013,1434311,0,0,0,243,190,106,299,277,200,192,129,121,136,91,216,0,
1,1774544962976,-713,23,10174,87964,-53756,28099,0,0,0,78,6,44,265,88,240,608,425,211,589,408,303,0,
2,1774544962976,2392,5039,6934,-4847826,772133,1568701,0,0,0,238,194,106,308,284,194,187,131,124,130,85,215,0,
1,1774544962992,-713,23,10093,102625,-36651,32986,0,0,0,66,2,38,265,92,239,595,391,206,559,380,300,0,
2,1774544962992,1273,4871,4986,-4028045,1816713,1202182,0,0,0,237,200,105,282,292,206,189,119,121,124,83,213,0,
1,1774544963008,-713,19,10021,114842,-18325,39095,0,0,0,65,2,40,264,95,248,582,407,212,535,363,312,0,
2,1774544963008,-1785,5876,6408,-4370129,2164906,873537,0,0,0,237,204,105,263,294,182,180,125,109,128,96,217,0,
1,1774544963024,-713,14,9944,131946,0,43982,0,0,0,70,2,40,261,91,236,570,360,203,533,321,303,0,
2,1774544963024,-3082,6063,8470,-5142263,1659109,712268,0,0,0,246,196,118,260,259,200,172,122,78,128,75,203,0,
1,1774544963040,-693,0,9887,157603,8552,47647,0,0,0,69,0,38,263,85,225,564,258,195,523,257,282,0,
2,1774544963040,-1813,5183,9810,-5815437,1088561,571769,0,0,0,240,186,102,280,262,215,183,96,94,128,84,207,0,
1,1774544963056,-674,-19,9901,184481,10995,48869,0,0,0,64,2,35,264,90,229,555,219,198,504,223,281,0,
2,1774544963056,-201,4005,10906,-6332229,1088561,338419,0,0,0,232,177,105,268,248,198,177,101,98,131,85,228,0,
1,1774544963072,-665,-57,9940,208915,17104,45204,0,0,0,71,5,31,271,105,235,536,215,200,493,221,309,0,
2,1774544963072,315,2986,12634,-6747617,1632231,15882,0,0,0,229,172,107,257,242,198,165,105,99,125,81,222,0,
1,1774544963088,-660,-129,9911,218689,34208,37873,0,0,0,95,18,39,297,114,254,524,207,217,462,200,360,0,
2,1774544963088,-19,2062,14797,-7099475,2078163,-261450,0,0,0,227,175,113,259,250,210,173,96,94,113,74,210,0,
1,1774544963104,-646,-172,9897,216246,50090,35430,0,0,0,92,35,41,305,130,257,532,204,203,447,211,365,0,
2,1774544963104,-636,1115,17013,-7292509,2229658,-395840,0,0,0,220,171,119,264,253,222,184,97,89,113,74,210,0,
1,1774544963120,-617,-196,9930,216246,61086,37873,0,0,0,135,52,54,318,161,282,491,190,209,455,190,387,0,
2,1774544963120,-741,325,19377,-7272961,2117258,-266337,0,0,0,217,165,116,267,240,210,188,100,102,123,68,210,0,
1,1774544963136,-588,-224,9987,223576,67195,40317,0,0,0,115,71,73,282,160,313,460,174,230,445,187,433,0,
2,1774544963136,-277,-358,22019,-7252192,1965764,63529,0,0,0,230,163,113,281,238,205,200,102,122,131,54,213,0,
1,1774544963152,-564,-258,10054,234572,68416,41538,0,0,0,139,93,74,338,192,329,450,159,217,403,166,471,0,
2,1774544963152,593,-2828,25771,-7266852,1988977,724486,0,0,0,240,164,117,290,244,215,222,109,130,133,47,218,0,
1,1774544963168,-540,-287,10107,256563,61086,43982,0,0,0,173,96,68,362,194,360,461,162,226,357,160,525,0,
2,1774544963168,741,-7575,28863,-7068932,2323731,1533271,0,0,0,224,166,110,276,231,196,233,113,134,127,50,201,0,
1,1774544963184,-526,-320,10232,293215,45204,47647,0,0,0,195,104,69,379,217,379,450,159,261,330,162,552,0,
2,1774544963184,-473,-14759,30322,-6663318,2816088,2301740,0,0,0,229,168,112,298,266,214,217,119,145,130,62,198,0,
1,1774544963200,-526,-325,10480,357967,8552,52534,0,0,0,233,139,91,388,232,400,422,135,260,296,142,571,0,
2,1774544963200,-2211,-26599,28891,-6223495,2868623,2842966,0,0,0,228,166,101,322,265,220,257,119,136,138,51,194,0,
1,1774544963216,-564,-335,10768,464257,-63529,61086,0,0,0,252,160,88,400,264,422,383,125,246,291,140,589,0,
2,1774544963216,-1794,-38860,23551,-5400048,2139250,2763554,0,0,0,227,174,112,283,262,211,231,89,109,122,60,198,0,
1,1774544963232,-650,-363,11179,624304,-157603,79412,0,0,0,267,154,83,411,278,449,354,116,265,312,154,591,0,
2,1774544963232,-76,-46073,16424,-3551570,1451415,1673770,0,0,0,222,168,108,256,247,197,218,116,123,134,76,217,0,
1,1774544963248,-1167,-478,12486,1007927,-299323,144164,0,0,0,285,155,86,411,281,447,314,109,263,318,157,581,0,
2,1774544963248,-5010,-44589,14017,-862541,1859473,-25656,0,0,0,179,136,86,256,232,183,294,190,133,265,176,190,0,
1,1774544963264,-1287,-402,14577,1635897,-354301,259006,0,0,0,297,171,94,408,287,435,256,105,246,316,158,571,0,
2,1774544963264,-13744,-37994,18602,1596801,1051909,-867428,0,0,0,176,128,77,259,203,160,388,293,127,321,285,185,0,
1,1774544963280,-938,-253,15190,2367713,-50090,317649,0,0,0,305,181,104,404,281,448,209,93,269,334,171,544,0,
2,1774544963280,-9169,-14041,16300,3981619,-2988352,-546113,0,0,0,188,132,80,275,196,172,449,367,121,379,372,177,0,
1,1774544963296,-847,-430,14290,2982244,526565,302989,0,0,0,322,199,103,369,266,425,176,82,263,331,168,507,0,
2,1774544963296,33,5068,12462,5323079,-5326744,173485,0,0,0,198,139,83,310,235,218,495,422,143,435,448,177,0,
1,1774544963312,-1100,-435,15606,3573561,886976,307876,0,0,0,365,252,130,338,260,424,155,86,260,294,160,510,0,
2,1774544963312,765,4087,14706,5651725,-3329215,871093,0,0,0,227,169,101,305,245,258,548,483,191,485,493,238,0,
1,1774544963328,-1732,38,19009,4664566,1044579,398284,0,0,0,205,178,74,323,274,425,134,83,300,250,168,448,0,
2,1774544963328,-3316,-2885,19358,4838052,-827111,577878,0,0,0,268,195,126,268,213,261,589,512,217,531,499,294,0,
1,1774544963344,-1636,550,22641,6260146,1279151,553443,0,0,0,171,211,90,273,323,440,118,111,271,208,176,442,0,
2,1774544963344,-2158,-3804,19282,3241250,113620,-3665,0,0,0,294,195,136,265,212,249,598,514,216,561,504,300,0,
1,1774544963360,-440,564,29849,7918035,1643227,592539,0,0,0,127,162,92,254,258,404,131,94,247,184,165,438,0,
2,1774544963360,808,-808,13850,1626123,76969,-42760,0,0,0,323,212,150,279,241,267,592,546,240,585,520,341,0,
1,1774544963376,794,-196,39176,9738413,1960877,377514,0,0,0,88,90,76,217,198,337,126,91,217,164,139,397,0,
2,1774544963376,1325,440,10318,904080,53756,118507,0,0,0,355,208,175,290,237,286,630,574,287,594,524,357,0,
1,1774544963392,-2517,521,39214,10797653,1258382,102625,0,0,0,29,24,31,180,123,226,142,73,146,173,90,270,0,
2,1774544963392,727,4,9815,728151,14660,171042,0,0,0,368,237,183,300,281,264,639,542,221,633,529,334,0,
1,1774544963408,-6451,7566,32926,11015121,83077,304210,0,0,0,20,9,15,176,83,184,148,62,116,178,71,209,0,
2,1774544963408,516,-521,10447,542448,-125838,87964,0,0,0,371,230,217,357,263,287,671,559,279,648,517,335,0,
1,1774544963424,-8585,17544,16649,10156245,-442266,1128878,0,0,0,23,8,13,186,75,184,139,56,107,171,69,200,0,
2,1774544963424,569,-315,10595,230907,-285884,4886,0,0,0,404,245,237,331,275,328,648,522,288,656,551,369,0,
1,1774544963440,-7489,19167,5838,7143458,-279776,1828930,0,0,0,22,4,9,188,74,181,139,55,99,162,63,194,0,
2,1774544963440,536,9,10404,42760,-344527,-20769,0,0,0,411,232,278,331,261,327,683,515,293,657,554,372,0,
1,1774544963456,-2828,16314,7212,1073901,76969,2041511,0,0,0,29,12,16,187,72,181,144,57,101,159,61,190,0,
2,1774544963456,464,162,10294,0,-335975,-21991,0,0,0,420,217,227,334,245,298,695,496,262,672,543,367,0,
1,1774544963472,-1048,10849,11983,-3562566,300545,1683544,0,0,0,20,10,22,191,73,182,139,54,100,158,62,184,0,
2,1774544963472,406,201,10299,15882,-301767,-24434,0,0,0,423,237,241,326,263,297,671,454,245,663,531,363,0,
1,1774544963488,-2345,5886,11136,-4980995,19547,1253495,0,0,0,6,0,15,193,80,184,140,59,100,159,70,185,0,
2,1774544963488,373,215,10227,62308,-244346,-26878,0,0,0,412,247,239,343,282,305,640,438,235,639,515,359,0,
1,1774544963504,-2900,4082,7126,-4377460,-706160,852767,0,0,0,0,0,13,190,73,183,139,54,99,164,64,187,0,
2,1774544963504,354,186,10088,101403,-189368,-25656,0,0,0,409,232,216,340,269,302,604,410,236,615,485,361,0,
1,1774544963520,-650,4240,5675,-4236961,-1018923,278554,0,0,0,3,1,14,188,76,196,136,59,116,156,65,208,0,
2,1774544963520,368,124,9997,117286,-152716,-25656,0,0,0,422,222,219,324,257,313,578,352,241,593,463,368,0,
1,1774544963536,904,4331,6183,-4656014,-668286,-398284,0,0,0,31,23,19,181,118,184,130,128,103,149,114,187,0,
2,1774544963536,368,86,9973,111177,-134390,-35430,0,0,0,426,225,205,348,270,329,572,327,224,580,460,368,0,
1,1774544963552,-14,3933,7260,-5205793,-106290,-900415,0,0,0,4,1,19,189,75,196,138,62,114,150,66,198,0,
2,1774544963552,354,90,9954,109955,-123394,-43982,0,0,0,406,237,212,332,265,296,540,327,214,567,420,360,0,
1,1774544963568,-2067,3172,8346,-5623625,-156381,-968832,0,0,0,0,0,13,185,74,187,140,56,112,151,65,188,0,
2,1774544963568,330,119,9973,123394,-106290,-47647,0,0,0,404,275,228,330,273,312,530,292,226,551,379,371,0,
1,1774544963584,-2526,2546,9686,-5919284,-707381,-703716,0,0,0,0,0,16,189,75,200,135,54,113,149,61,191,0,
2,1774544963584,315,119,10011,158824,-92851,-40317,0,0,0,422,315,215,394,321,320,567,370,266,531,387,395,0,
1,1774544963600,-1368,2220,11323,-6157521,-1143539,-355523,0,0,0,1,1,18,191,88,200,134,55,106,149,62,190,0,
2,1774544963600,315,81,10011,208915,-87964,-32986,0,0,0,415,332,243,386,320,353,585,288,267,519,345,450,0,
1,1774544963616,-224,1914,13496,-6461732,-1313360,-51312,0,0,0,3,1,21,187,81,208,133,52,120,145,62,202,0,
2,1774544963616,315,19,10002,249233,-91629,-30543,0,0,0,424,356,214,466,366,364,569,265,280,487,288,450,0,
1,1774544963632,23,1507,16018,-6813590,-1197295,97738,0,0,0,1,0,17,189,75,210,131,48,119,139,55,201,0,
2,1774544963632,320,-19,10035,280998,-96516,-32986,0,0,0,455,331,231,428,357,359,578,291,258,492,289,457,0,
1,1774544963648,-540,569,18951,-7176444,-1209513,109955,0,0,0,13,8,21,186,72,210,134,49,117,139,52,198,0,
2,1774544963648,315,-57,10088,311541,-102625,-40317,0,0,0,477,320,214,402,356,382,522,175,208,486,233,488,0,
1,1774544963664,-1335,-1464,22411,-7423234,-1497841,48869,0,0,0,29,18,27,192,67,210,155,49,125,155,52,205,0,
2,1774544963664,287,-100,10131,343306,-98960,-46425,0,0,0,490,355,220,404,375,396,523,160,248,461,218,527,0,
1,1774544963680,-1526,-5235,25790,-7411017,-2090380,-146607,0,0,0,23,13,22,204,69,198,167,48,121,165,53,205,0,
2,1774544963680,268,-124,10241,384845,-80634,-48869,0,0,0,520,382,245,412,403,417,525,184,272,409,196,558,0,
1,1774544963696,57,-10619,28178,-7193549,-2598620,-722042,0,0,0,6,1,16,184,78,185,141,57,113,143,62,193,0,
2,1774544963696,272,-172,10366,452040,-42760,-51312,0,0,0,558,383,253,430,425,440,506,171,267,360,157,575,0,
1,1774544963712,1995,-16578,29006,-7022506,-2588846,-1593136,0,0,0,11,0,6,183,89,184,147,75,115,138,65,181,0,
2,1774544963712,287,-239,10495,529009,2443,-54977,0,0,0,589,382,222,451,438,469,479,151,269,315,138,589,0,
1,1774544963728,2014,-23416,27183,-6875899,-2168571,-2360383,0,0,0,0,0,3,182,114,185,149,109,114,132,93,182,0,
2,1774544963728,406,-325,10777,646295,52534,-65973,0,0,0,605,398,182,456,454,512,432,138,263,234,107,618,0,
1,1774544963744,-1646,-31840,20976,-6074443,-1754404,-2210110,0,0,0,0,0,1,182,84,185,147,56,113,139,60,192,0,
2,1774544963744,765,-540,11289,851546,111177,-112399,0,0,0,603,422,177,461,465,522,413,120,290,172,41,648,0,
1,1774544963760,-3680,-38190,14984,-4470311,-2046398,-998153,0,0,0,0,0,11,187,88,200,148,60,126,133,60,199,0,
2,1774544963760,760,-617,12007,1139874,135612,-188146,0,0,0,638,437,192,485,478,530,389,125,272,151,19,656,0,
1,1774544963776,2847,-42627,12605,-2371378,-3056769,684169,0,0,0,0,0,1,156,83,147,216,152,131,160,113,166,0,
2,1774544963776,95,-291,13127,1613905,133168,-237015,0,0,0,643,430,209,485,470,510,323,116,258,143,32,684,0,
1,1774544963792,14113,-44029,14266,-254119,-2702467,1401324,0,0,0,0,0,0,146,77,104,268,292,104,220,270,132,0,
2,1774544963792,157,-215,13883,2177123,-34208,-188146,0,0,0,631,459,209,423,546,508,265,116,225,111,48,698,0,
1,1774544963808,15740,-28408,12821,2516764,452040,803898,0,0,0,0,0,0,150,89,92,296,393,86,283,368,107,0,
2,1774544963808,722,-469,14347,2696359,-289550,-166155,0,0,0,638,476,213,444,497,512,248,132,245,95,19,682,0,
1,1774544963824,4154,-2301,11423,5701816,3398854,139277,0,0,0,0,0,0,171,94,103,340,432,93,389,457,108,0,
2,1774544963824,1206,-526,15764,3386636,-535117,-229685,0,0,0,624,496,179,429,471,467,203,154,231,138,47,649,0,
1,1774544963840,-2723,4288,17808,7125132,3194825,-100181,0,0,0,0,0,0,193,89,135,387,458,125,468,504,150,0,
2,1774544963840,1636,-306,17870,4287052,-737925,-342084,0,0,0,567,492,157,433,495,423,248,223,217,150,68,592,0,
1,1774544963856,349,-3105,23507,5527108,1353677,-62308,0,0,0,0,0,5,214,90,166,433,482,152,515,516,188,0,
2,1774544963856,1952,52,20660,5390274,-993266,-481361,0,0,0,489,459,146,413,515,401,245,200,178,150,98,516,0,
1,1774544963872,1631,-4302,21263,3403741,301767,-7330,0,0,0,22,0,21,238,91,198,504,483,178,552,520,227,0,
2,1774544963872,3010,411,27001,7006624,-1612684,-681725,0,0,0,439,403,145,389,498,377,191,134,144,154,108,450,0,
1,1774544963888,28,-1249,14505,1802052,-100181,-52534,0,0,0,61,0,31,252,84,215,568,466,198,575,512,262,0,
2,1774544963888,3929,-296,35161,8592430,-2460565,-869872,0,0,0,389,320,135,364,429,331,184,119,132,148,87,384,0,
1,1774544963904,-1191,502,10007,1139874,-202807,-131946,0,0,0,69,0,23,249,84,186,562,451,174,577,493,236,0,
2,1774544963904,5216,263,37865,9786061,-2929709,-884532,0,0,0,308,231,116,312,318,267,208,128,120,130,69,307,0,
1,1774544963920,-966,-330,10054,866206,-153938,-112399,0,0,0,64,6,36,251,87,211,584,450,184,564,498,270,0,
2,1774544963920,8083,5527,34591,10613172,-2526538,-932180,0,0,0,256,190,117,266,249,226,184,102,112,124,74,262,0,
1,1774544963936,-674,-789,10739,520457,-56199,-52534,0,0,0,93,19,44,270,94,226,601,449,195,573,495,285,0,
2,1774544963936,10758,13687,26451,10994352,-1622458,-1235169,0,0,0,248,182,114,301,283,264,197,104,139,131,75,264,0,
1,1774544963952,-665,-268,10504,179594,7330,-12217,0,0,0,69,2,43,255,88,250,591,450,223,579,473,302,0,
2,1774544963952,11447,16697,14496,9497732,-97738,-1530828,0,0,0,248,182,119,434,333,271,221,138,144,143,90,262,0,
1,1774544963968,-760,143,10126,15882,32986,0,0,0,0,60,1,38,256,115,240,592,450,226,557,485,302,0,
2,1774544963968,7413,19621,9437,4345695,1821600,-1413542,0,0,0,246,183,109,296,269,235,191,116,110,143,94,240,0,
1,1774544963984,-746,153,10112,-9773,47647,8552,0,0,0,66,1,41,263,102,258,604,430,235,560,441,297,0,
2,1774544963984,995,18750,11926,-2100154,1892460,-700051,0,0,0,250,189,116,285,266,219,193,100,121,138,86,248,0,
1,1774544964000,-641,90,10208,0,34208,20769,0,0,0,66,1,28,271,95,222,588,410,191,550,437,247,0,
2,1774544964000,-579,13074,12400,-5230228,952949,42760,0,0,0,246,184,111,292,266,211,192,105,90,150,99,257,0,
1,1774544964016,-603,110,10179,28099,4886,29321,0,0,0,74,0,28,280,108,216,557,391,177,519,440,233,0,
2,1774544964016,1411,8159,8571,-5044525,917519,282219,0,0,0,253,180,107,291,256,207,209,117,125,147,90,256,0,
1,1774544964032,-641,134,10088,85521,-7330,29321,0,0,0,65,1,28,271,115,213,531,375,173,481,443,230,0,
2,1774544964032,1354,6743,6130,-4560719,1847256,106290,0,0,0,245,178,102,268,242,195,208,119,136,159,99,248,0,
1,1774544964048,-674,114,10026,134390,7330,29321,0,0,0,59,10,27,273,125,212,515,350,169,465,421,240,0,
2,1774544964048,-1392,6992,6676,-4769635,2701246,-147829,0,0,0,241,174,103,343,281,215,213,134,127,167,105,240,0,
1,1774544964064,-674,81,9973,172263,39095,30543,0,0,0,66,22,31,283,134,224,512,324,175,462,374,259,0,
2,1774544964064,-3345,6628,8628,-5485569,2386039,-160046,0,0,0,237,172,116,349,291,245,215,131,147,164,102,253,0,
1,1774544964080,-641,52,9954,215024,61086,36651,0,0,0,76,47,36,288,158,230,504,301,178,460,331,273,0,
2,1774544964080,-3297,5484,10576,-6230825,1634675,-78190,0,0,0,231,175,130,270,257,250,207,116,185,152,95,270,0,
1,1774544964096,-598,9,9968,256563,74525,41538,0,0,0,83,68,40,293,178,236,486,276,177,451,296,295,0,
2,1774544964096,-1627,4154,11787,-6607118,1310916,-46425,0,0,0,231,180,127,256,245,229,204,121,185,137,89,259,0,
1,1774544964112,-540,-38,10007,277332,79412,39095,0,0,0,86,41,50,289,146,268,475,252,197,419,239,348,0,
2,1774544964112,-603,2933,13347,-6792821,1574810,-117286,0,0,0,226,183,114,254,241,196,209,121,138,135,90,232,0,
1,1774544964128,-521,-71,10059,287106,81855,32986,0,0,0,88,44,47,271,150,259,441,215,207,366,199,369,0,
2,1774544964128,-674,2072,15171,-6956533,1815491,-158824,0,0,0,230,184,114,271,241,186,209,95,114,139,93,224,0,
1,1774544964144,-531,-110,10131,323758,81855,32986,0,0,0,111,73,57,277,183,274,402,196,194,363,187,389,0,
2,1774544964144,-928,1392,17693,-7208209,1699427,-42760,0,0,0,222,179,107,259,241,189,198,100,113,142,75,224,0,
1,1774544964160,-540,-167,10189,390953,84299,42760,0,0,0,180,126,81,284,215,286,389,204,204,333,206,419,0,
2,1774544964160,-335,698,20502,-7454999,1397659,216246,0,0,0,212,160,105,298,258,214,202,120,129,143,76,233,0,
1,1774544964176,-516,-239,10212,449596,76969,54977,0,0,0,182,109,64,315,230,313,389,183,207,321,178,467,0,
2,1774544964176,1024,-425,23464,-7611380,1259604,564439,0,0,0,231,159,98,303,257,213,215,104,105,161,74,229,0,
1,1774544964192,-449,-330,10256,493579,40317,67195,0,0,0,199,127,62,356,250,321,370,157,207,317,170,520,0,
2,1774544964192,2368,-3177,27355,-7650476,1463633,1163087,0,0,0,219,163,103,274,238,184,215,98,118,153,73,227,0,
1,1774544964208,-473,-382,10428,537561,-13439,76969,0,0,0,322,212,134,330,242,346,331,134,227,304,161,546,0,
2,1774544964208,3311,-8595,31103,-7571063,1810604,2017077,0,0,0,216,165,108,271,243,204,198,90,112,150,75,231,0,
1,1774544964224,-684,-464,10753,649960,-68416,102625,0,0,0,307,192,118,341,238,371,320,129,232,308,165,574,0,
2,1774544964224,3795,-17817,32548,-7314500,2219884,2767219,0,0,0,219,163,108,275,244,211,219,99,118,153,77,232,0,
1,1774544964240,-1038,-617,11299,871093,-91629,172263,0,0,0,296,177,97,350,246,389,293,124,235,295,156,585,0,
2,1774544964240,3311,-32481,29107,-6509379,2812423,3070208,0,0,0,222,165,109,278,242,209,232,89,111,151,65,238,0,
1,1774544964256,-741,-574,12471,1219287,-70860,252898,0,0,0,305,202,98,373,259,392,267,118,254,315,169,567,0,
2,1774544964256,1727,-43651,22531,-5051855,3196046,2700024,0,0,0,224,170,110,282,249,212,235,84,117,145,67,249,0,
1,1774544964272,-301,-435,13534,1617571,-10995,260228,0,0,0,299,217,96,389,286,392,252,114,260,348,203,545,0,
2,1774544964272,-3067,-47456,16453,-2585181,3266907,1186300,0,0,0,210,165,99,277,247,200,279,133,135,186,132,231,0,
1,1774544964288,-301,-416,14108,2217440,142942,207694,0,0,0,298,227,98,371,318,410,204,108,251,338,224,529,0,
2,1774544964288,-12773,-46594,17568,-232128,2539977,-574213,0,0,0,176,138,75,261,218,174,355,244,127,290,269,191,0,
1,1774544964304,-650,-660,13821,2785545,398284,195476,0,0,0,299,240,100,346,326,429,143,102,250,310,220,518,0,
2,1774544964304,-19205,-37114,21545,2299296,-783129,-1292590,0,0,0,168,119,71,273,197,184,401,382,125,356,407,199,0,
1,1774544964320,-880,-708,14836,3373197,702495,223576,0,0,0,335,273,106,324,309,407,128,92,244,299,200,503,0,
2,1774544964320,-6403,-7575,14367,4872261,-4787961,-560774,0,0,0,201,141,76,326,250,240,467,495,125,440,532,189,0,
1,1774544964336,-1502,-397,17583,4332256,992045,305432,0,0,0,417,364,129,306,330,368,97,78,215,267,195,494,0,
2,1774544964336,2311,6781,12969,6318790,-4734205,659734,0,0,0,245,165,99,301,241,243,477,604,132,510,604,199,0,
1,1774544964352,-2421,-191,19894,5528330,1351233,471587,0,0,0,193,238,74,303,358,398,120,119,242,225,210,460,0,
2,1774544964352,-2397,205,18779,6120869,-1791056,930958,0,0,0,265,196,104,264,259,231,541,635,205,533,618,258,0,
1,1774544964368,-2689,-282,24168,6914994,1941329,714712,0,0,0,129,266,87,246,349,398,107,128,236,167,216,446,0,
2,1774544964368,-4551,-4541,21268,4901582,125838,120951,0,0,0,307,213,146,388,308,290,603,653,271,593,598,316,0,
1,1774544964384,-1368,-1024,33333,8431162,2680476,789237,0,0,0,138,234,127,201,268,352,109,109,212,160,192,418,0,
2,1774544964384,9,-2670,17927,3222925,310319,-412944,0,0,0,334,210,151,325,267,295,628,645,296,624,590,330,0,
1,1774544964400,-1866,-1608,38999,9804387,2912605,624304,0,0,0,139,146,135,191,164,281,146,99,176,174,120,333,0,
2,1774544964400,1818,-445,12979,1852143,120951,-53756,0,0,0,360,218,222,311,250,306,637,623,259,651,604,337,0,
1,1774544964416,-5369,947,38334,10688919,1901012,533896,0,0,0,48,38,49,186,100,199,156,72,127,184,88,249,0,
2,1774544964416,1005,-263,10480,1059240,7330,222354,0,0,0,400,239,230,337,270,325,659,621,251,673,609,330,0,
1,1774544964432,-7470,11323,28614,10549642,795346,988379,0,0,0,10,1,17,176,82,182,145,62,116,178,80,228,0,
2,1774544964432,86,-952,10509,667064,-95294,171042,0,0,0,410,261,206,336,294,318,677,624,280,686,610,345,0,
1,1774544964448,-7949,17300,13165,8852659,880867,1446528,0,0,0,18,5,22,175,81,176,141,59,114,173,76,223,0,
2,1774544964448,253,-684,10739,322536,-193033,13439,0,0,0,402,280,223,341,316,324,693,623,302,676,592,348,0,
1,1774544964464,-6838,14845,8379,4194200,923628,1422094,0,0,0,27,11,27,176,83,166,144,72,111,178,78,216,0,
2,1774544964464,445,-167,10476,182037,-204028,-19547,0,0,0,403,293,244,353,322,337,675,591,276,655,557,339,0,
1,1774544964480,-4302,10897,13438,-928515,-238237,1059240,0,0,0,27,10,26,174,80,176,148,79,116,183,78,221,0,
2,1774544964480,421,43,10265,182037,-156381,-7330,0,0,0,412,299,240,345,313,319,626,519,231,632,527,344,0,
1,1774544964496,-2464,7762,13845,-3351206,-1197295,634078,0,0,0,25,5,23,175,72,186,154,58,125,181,72,231,0,
2,1774544964496,339,-28,10303,251676,-92851,-6108,0,0,0,424,307,238,338,305,294,614,445,241,586,471,333,0,
1,1774544964512,-1139,6255,9227,-3470936,-1600466,54977,0,0,0,16,0,18,167,75,172,144,63,120,173,77,229,0,
2,1774544964512,373,-100,10303,293215,-54977,-19547,0,0,0,442,321,230,332,280,298,594,372,255,562,376,337,0,
1,1774544964528,344,6054,6097,-3470936,-1291369,-660956,0,0,0,15,0,17,177,77,166,148,66,111,177,81,222,0,
2,1774544964528,469,-138,10150,271224,-54977,-24434,0,0,0,434,308,197,347,288,332,638,372,333,538,347,387,0,
1,1774544964544,923,5623,5872,-4004832,-829554,-1240056,0,0,0,15,0,17,170,73,168,143,60,115,173,72,219,0,
2,1774544964544,521,-177,10002,238237,-98960,-31764,0,0,0,424,305,213,362,297,348,567,290,254,497,311,420,0,
1,1774544964560,191,4919,6724,-4585154,-619417,-1519832,0,0,0,16,3,23,171,79,170,146,66,116,173,75,218,0,
2,1774544964560,445,-215,9920,226020,-147829,-37873,0,0,0,456,293,227,383,321,365,527,215,243,475,270,413,0,
1,1774544964576,-344,4541,7532,-4988325,-742812,-1502728,0,0,0,14,0,24,168,75,168,143,60,120,172,73,214,0,
2,1774544964576,358,-248,9892,226020,-166155,-39095,0,0,0,464,308,248,348,303,363,525,194,284,446,248,455,0,
1,1774544964592,76,4522,8633,-5437922,-1029918,-1226617,0,0,0,14,0,18,172,79,168,144,63,115,169,73,212,0,
2,1774544964592,330,-258,9949,226020,-145385,-29321,0,0,0,445,325,232,349,347,370,491,192,266,417,247,477,0,
1,1774544964608,976,4283,10189,-6054896,-1082453,-889419,0,0,0,11,0,17,169,81,166,142,65,113,169,74,214,0,
2,1774544964608,344,-287,10054,226020,-116064,-19547,0,0,0,443,320,226,373,335,396,483,168,247,386,189,501,0,
1,1774544964624,1158,3235,12084,-6666983,-851546,-522900,0,0,0,4,0,16,169,82,167,144,63,110,169,74,211,0,
2,1774544964624,382,-349,10102,271224,-95294,-25656,0,0,0,475,355,237,525,406,420,483,177,253,375,148,533,0,
1,1774544964640,751,2048,14161,-7095810,-609643,-113620,0,0,0,8,0,19,167,78,163,146,61,111,166,68,208,0,
2,1774544964640,349,-425,10031,343306,-84299,-43982,0,0,0,507,362,233,508,412,428,495,153,276,343,124,549,0,
1,1774544964656,-114,1057,16807,-7396356,-469144,317649,0,0,0,22,6,24,167,73,164,151,59,115,169,65,212,0,
2,1774544964656,296,-502,10064,395840,-53756,-50090,0,0,0,535,347,213,423,393,442,506,140,298,307,109,569,0,
1,1774544964672,-1148,134,19827,-7650476,-492357,646295,0,0,0,28,9,25,166,70,172,152,55,122,168,66,222,0,
2,1774544964672,306,-526,10279,439822,-4886,-47647,0,0,0,576,354,208,431,415,471,501,147,300,292,101,597,0,
1,1774544964688,-2349,-1402,23646,-7831292,-791681,872315,0,0,0,28,6,25,162,69,175,146,52,123,163,66,229,0,
2,1774544964688,402,-526,10581,527787,39095,-52534,0,0,0,606,379,217,449,427,492,479,123,277,262,78,620,0,
1,1774544964704,-3134,-5714,27676,-7837401,-1522276,878424,0,0,0,27,9,28,165,67,168,146,52,114,165,62,221,0,
2,1774544964704,670,-670,10772,646295,57421,-70860,0,0,0,591,416,206,452,466,504,438,113,252,197,56,644,0,
1,1774544964720,-2187,-11739,30629,-7656584,-2592512,579100,0,0,0,19,1,23,170,64,162,165,57,118,171,59,214,0,
2,1774544964720,899,-808,11270,851546,101403,-141720,0,0,0,595,434,199,461,498,524,418,139,273,170,69,665,0,
1,1774544964736,1182,-18870,31634,-7475768,-3255911,-274889,0,0,0,39,9,27,184,64,166,196,56,122,186,59,214,0,
2,1774544964736,373,-693,12069,1132544,145385,-206472,0,0,0,621,461,192,466,497,517,390,177,297,158,67,691,0,
1,1774544964752,2172,-28169,29652,-7359704,-2966361,-1210734,0,0,0,33,12,28,168,72,174,180,64,141,160,65,215,0,
2,1774544964752,-138,-622,12586,1463633,75747,-166155,0,0,0,669,446,222,460,469,530,299,111,249,152,58,723,0,
1,1774544964768,-1253,-38492,23364,-6604674,-2349387,-1453859,0,0,0,27,4,21,176,82,180,178,63,128,163,64,205,0,
2,1774544964768,301,-851,13175,1836260,-103847,-83077,0,0,0,665,484,224,450,489,521,298,141,279,111,57,703,0,
1,1774544964784,-894,-46379,16405,-4428772,-3012787,-318871,0,0,0,36,16,25,176,78,178,171,60,129,161,64,208,0,
2,1774544964784,928,-1220,15491,2332283,-302989,-51312,0,0,0,654,487,203,448,508,518,279,143,279,116,57,697,0,
1,1774544964800,8892,-50825,13299,-2189341,-3919311,1039692,0,0,0,10,5,7,148,89,139,219,173,124,173,146,172,0,
2,1774544964800,961,-1349,16472,2834414,-370184,-68416,0,0,0,653,467,196,452,494,507,246,138,253,110,43,703,0,
1,1774544964816,21832,-45857,14792,-142942,-2774549,1456302,0,0,0,0,0,0,146,107,95,287,361,90,251,300,123,0,
2,1774544964816,976,-1148,15678,3500257,-331088,-133168,0,0,0,656,475,188,453,505,509,218,138,257,115,59,687,0,
1,1774544964832,16544,-12510,12634,2840523,2360383,167377,0,0,0,0,0,0,164,105,89,362,438,76,361,418,103,0,
2,1774544964832,1340,-966,16343,4404338,-414166,-250454,0,0,0,615,498,169,463,519,508,219,145,268,138,85,637,0,
1,1774544964848,5245,7604,10126,5464800,5175250,-972497,0,0,0,0,0,0,181,104,103,397,494,91,422,514,109,0,
2,1774544964848,1904,-827,19554,5564982,-755029,-412944,0,0,0,540,503,160,462,530,511,210,138,258,139,89,574,0,
1,1774544964864,2368,2359,17870,6776938,3494149,-1111774,0,0,0,14,10,4,196,111,122,425,572,117,455,589,132,0,
2,1774544964864,2081,-708,25240,6956533,-1312138,-601091,0,0,0,479,462,152,445,518,494,216,129,230,130,79,504,0,
1,1774544964880,3876,-4651,24374,6123313,993266,-410501,0,0,0,28,18,11,210,102,159,481,591,155,525,597,181,0,
2,1774544964880,871,-1038,34156,8684060,-2069611,-653625,0,0,0,430,360,129,423,433,418,246,127,188,142,65,426,0,
1,1774544964896,1746,-3876,22742,4301713,-245567,267558,0,0,0,17,0,14,213,85,185,502,613,190,570,591,222,0,
2,1774544964896,2809,-1789,39951,10471451,-2119702,-410501,0,0,0,345,250,123,357,317,337,187,97,144,124,48,352,0,
1,1774544964912,-1206,-818,16075,2635272,-280998,76969,0,0,0,48,3,31,222,85,167,541,613,159,585,568,209,0,
2,1774544964912,5939,957,39444,11498927,-1147204,-375071,0,0,0,257,188,105,280,255,248,204,118,127,92,44,222,0,
1,1774544964928,-1588,71,11299,1593136,-224798,-211359,0,0,0,54,7,21,248,103,175,563,597,160,598,550,213,0,
2,1774544964928,8767,10189,30648,11545353,-140499,-822224,0,0,0,265,209,105,284,287,241,220,129,110,132,87,233,0,
1,1774544964944,-813,-598,10394,1126435,-124616,-243124,0,0,0,44,6,23,263,115,206,570,589,138,583,538,226,0,
2,1774544964944,9691,15405,17228,10385930,618195,-1448972,0,0,0,254,185,96,281,248,236,209,135,126,122,67,205,0,
1,1774544964960,-536,-717,10748,720820,31764,-109955,0,0,0,168,70,92,225,89,206,575,597,165,602,532,238,0,
2,1774544964960,5800,17410,8681,6056117,755029,-1551597,0,0,0,250,189,112,283,256,251,203,114,125,20,11,201,0,
1,1774544964976,-598,-368,10624,343306,101403,-15882,0,0,0,194,93,100,231,87,206,584,560,151,584,511,226,0,
2,1774544964976,1225,17563,11107,-1039692,-241902,-879645,0,0,0,241,183,108,281,256,248,194,126,109,93,52,232,0,
1,1774544964992,-660,4,10275,168598,50090,2443,0,0,0,208,95,104,242,90,210,594,504,154,546,477,232,0,
2,1774544964992,1679,11964,14563,-5953492,-1325577,-299323,0,0,0,236,177,105,276,245,242,205,138,122,131,75,253,0,
1,1774544965008,-612,110,10212,169820,-24434,13439,0,0,0,165,73,81,254,103,212,586,480,156,523,442,245,0,
2,1774544965008,4828,6575,11552,-6111095,-770911,-623082,0,0,0,234,183,107,274,250,239,206,130,133,133,80,258,0,
1,1774544965024,-583,38,10294,245567,-103847,29321,0,0,0,79,28,42,277,126,220,574,458,158,502,410,255,0,
2,1774544965024,4891,4953,7724,-5436700,729373,-1297477,0,0,0,231,188,104,273,258,239,205,121,135,131,82,253,0,
1,1774544965040,-636,-19,10260,282219,-145385,41538,0,0,0,60,20,38,290,133,244,557,418,173,469,358,276,0,
2,1774544965040,1789,5814,6719,-5155702,2089159,-1786169,0,0,0,229,185,105,275,259,244,203,114,133,129,79,254,0,
1,1774544965056,-693,-33,10141,298102,-140499,48869,0,0,0,65,22,49,282,120,276,535,334,208,439,302,303,0,
2,1774544965056,-1244,6264,8442,-5596747,2335948,-1750739,0,0,0,225,181,114,280,268,249,194,113,126,118,75,259,0,
1,1774544965072,-756,-47,9978,316428,-95294,51312,0,0,0,48,9,41,279,119,279,520,263,217,420,271,312,0,
2,1774544965072,-2211,5723,10552,-6335894,1838704,-1375668,0,0,0,220,180,117,289,291,251,201,130,134,96,74,252,0,
1,1774544965088,-770,-100,9897,340862,-41538,46425,0,0,0,52,14,37,285,131,258,481,236,199,397,244,310,0,
2,1774544965088,-545,4383,11978,-7001737,1395216,-908967,0,0,0,227,185,120,316,298,264,213,109,146,116,80,261,0,
1,1774544965104,-717,-167,9877,359188,10995,37873,0,0,0,52,23,43,284,139,264,427,186,211,365,193,323,0,
2,1774544965104,1139,3015,13342,-7468438,1557706,-583987,0,0,0,226,182,119,268,268,240,183,88,103,115,71,259,0,
1,1774544965120,-655,-248,9906,346971,58643,20769,0,0,0,65,36,41,307,171,282,487,182,204,351,161,341,0,
2,1774544965120,1933,1708,15343,-7788531,2269975,-400727,0,0,0,229,179,119,275,270,244,173,92,120,109,67,240,0,
1,1774544965136,-689,-344,9911,311541,92851,12217,0,0,0,92,58,42,322,205,300,470,208,204,347,177,372,0,
2,1774544965136,1153,732,18004,-8013330,2860071,-230907,0,0,0,221,179,119,265,252,227,180,98,100,89,64,240,0,
1,1774544965152,-732,-411,9944,280998,124616,23212,0,0,0,121,92,63,322,237,360,471,173,232,345,172,441,0,
2,1774544965152,14,-253,20961,-8164824,3065321,81855,0,0,0,213,171,114,265,252,234,171,91,89,91,70,238,0,
1,1774544965168,-737,-440,10016,272445,152716,53756,0,0,0,197,139,107,328,202,351,455,134,208,317,127,492,0,
2,1774544965168,-574,-1464,24082,-8153829,2800206,632856,0,0,0,213,181,116,272,276,236,168,91,75,95,72,237,0,
1,1774544965184,-646,-469,10064,291993,163711,81855,0,0,0,167,97,71,330,231,339,376,148,231,304,164,508,0,
2,1774544965184,47,-3536,27690,-8003556,2502104,1441641,0,0,0,209,177,113,270,269,246,177,84,90,99,67,242,0,
1,1774544965200,-536,-512,10222,346971,142942,101403,0,0,0,183,130,66,331,262,367,354,191,252,289,212,541,0,
2,1774544965200,823,-7633,31232,-7855726,2580294,2403143,0,0,0,216,176,116,268,259,241,200,95,112,103,62,239,0,
1,1774544965216,-545,-531,10461,454483,83077,114842,0,0,0,191,162,77,333,277,395,364,157,262,293,195,576,0,
2,1774544965216,392,-16664,32969,-7649254,3142290,3067765,0,0,0,228,173,118,272,246,234,227,101,131,114,54,218,0,
1,1774544965232,-765,-607,10801,620639,2443,146607,0,0,0,234,192,87,329,288,390,327,139,249,297,197,592,0,
2,1774544965232,-459,-29461,31490,-7114136,3347541,3167947,0,0,0,235,168,114,278,237,231,225,97,124,121,51,206,0,
1,1774544965248,-1316,-751,11543,886976,-97738,237015,0,0,0,341,261,116,318,278,381,278,135,239,269,181,603,0,
2,1774544965248,-698,-43158,25226,-5909510,2905275,2513099,0,0,0,238,170,110,287,241,233,211,97,109,118,51,214,0,
1,1774544965264,-827,-598,13266,1314581,-160046,354301,0,0,0,456,331,167,318,256,385,243,117,250,265,154,594,0,
2,1774544965264,-3675,-50519,17329,-3391523,2516764,860098,0,0,0,228,166,108,288,238,232,258,123,126,148,82,212,0,
1,1774544965280,-14,-363,14812,1915673,-47647,345749,0,0,0,430,301,159,334,261,412,205,103,275,305,171,561,0,
2,1774544965280,-11777,-49872,15395,-752585,2048842,-568104,0,0,0,183,150,85,256,212,191,357,264,119,264,262,199,0,
1,1774544965296,-119,-402,15075,2620611,185703,240680,0,0,0,364,260,126,335,272,448,161,93,279,308,183,552,0,
2,1774544965296,-15261,-39798,21172,2001194,-758694,-678060,0,0,0,179,136,74,269,196,171,426,488,150,373,429,187,0,
1,1774544965312,-775,-670,14434,3281568,486248,212581,0,0,0,446,324,167,312,260,448,121,73,260,286,157,548,0,
2,1774544965312,-6738,-13299,16750,4907691,-4349360,-122173,0,0,0,196,151,76,285,239,189,468,536,98,437,577,168,0,
1,1774544965328,-1215,-569,16252,3960850,845437,250454,0,0,0,399,314,138,293,277,440,97,73,272,270,165,507,0,
2,1774544965328,1263,6752,13481,6938207,-5298645,905302,0,0,0,251,174,92,296,264,218,508,604,145,524,637,187,0,
1,1774544965344,-2340,-28,20397,5076290,1216843,367740,0,0,0,244,266,91,293,363,435,95,107,293,207,187,492,0,
2,1774544965344,-3661,416,20574,6899112,-2398256,1191187,0,0,0,291,192,115,277,244,244,545,618,177,612,645,261,0,
1,1774544965360,-3177,296,25470,6885672,1802052,667064,0,0,0,146,237,92,266,317,422,103,103,270,178,188,469,0,
2,1774544965360,-5518,-4737,23704,5622403,-215024,444709,0,0,0,320,196,145,293,253,276,590,641,226,645,628,342,0,
1,1774544965376,-2163,-277,35592,8767137,2559525,868650,0,0,0,101,160,105,236,253,368,112,91,222,162,149,436,0,
2,1774544965376,-698,-3072,18880,3491705,328645,-186924,0,0,0,355,210,149,319,269,292,620,655,264,661,605,343,0,
1,1774544965392,-1952,-1258,43397,10332174,2978578,752585,0,0,0,70,67,71,212,172,297,146,96,197,164,119,334,0,
2,1774544965392,1847,-593,13031,1904677,205250,-90408,0,0,0,371,218,181,322,271,313,649,650,319,682,595,335,0,
1,1774544965408,-6034,2340,41430,11261911,2007303,671951,0,0,0,26,20,37,192,102,232,147,72,157,174,87,268,0,
2,1774544965408,976,-177,10031,1037249,-6108,202807,0,0,0,384,227,213,314,260,304,675,644,334,701,595,336,0,
1,1774544965424,-8499,13342,33146,11337658,748920,1059240,0,0,0,30,10,26,200,86,201,155,66,129,191,79,235,0,
2,1774544965424,210,-909,10619,641408,-134390,117286,0,0,0,409,241,230,322,256,303,679,626,293,723,603,358,0,
1,1774544965440,-8308,18090,16520,10067059,818559,1348790,0,0,0,29,5,20,198,90,194,150,65,121,186,79,227,0,
2,1774544965440,268,-717,10839,272445,-268780,-9773,0,0,0,419,250,243,335,263,335,671,599,281,741,603,387,0,
1,1774544965456,-6925,16530,7642,5988922,960280,1128878,0,0,0,28,6,18,197,89,186,147,62,116,183,77,220,0,
2,1774544965456,445,-119,10447,105068,-351858,-34208,0,0,0,412,260,232,326,261,314,674,594,311,726,573,370,0,
1,1774544965472,-4369,14055,10739,469144,357967,696386,0,0,0,27,9,21,194,83,180,152,61,115,183,74,213,0,
2,1774544965472,368,105,10241,83077,-373849,-19547,0,0,0,437,261,240,330,282,303,644,526,261,705,545,369,0,
1,1774544965488,-2469,11189,12098,-3044552,-375071,432492,0,0,0,24,10,27,185,80,186,150,64,124,176,73,221,0,
2,1774544965488,172,33,10279,134390,-327423,-10995,0,0,0,466,262,256,359,300,326,590,461,228,690,534,365,0,
1,1774544965504,-1703,8159,9700,-4293160,-814894,233350,0,0,0,34,14,29,189,82,187,146,61,125,179,76,224,0,
2,1774544965504,124,-14,10251,164933,-227241,-14660,0,0,0,432,282,275,353,289,316,590,425,260,648,479,395,0,
1,1774544965520,-832,6106,6862,-4480085,-1081231,24434,0,0,0,35,6,22,191,79,175,146,57,112,187,76,212,0,
2,1774544965520,148,-28,10102,163711,-117286,-14660,0,0,0,455,306,333,354,297,331,547,403,222,623,455,381,0,
1,1774544965536,851,5417,6867,-4824613,-1264491,-195476,0,0,0,35,15,27,188,81,182,148,60,123,180,74,220,0,
2,1774544965536,201,-38,9987,152716,-63529,-13439,0,0,0,464,307,291,340,270,314,559,369,248,582,418,403,0,
1,1774544965552,2321,4967,7537,-5280319,-1397659,-392175,0,0,0,37,12,25,204,81,174,153,61,107,193,76,208,0,
2,1774544965552,220,-62,9949,174707,-64751,-23212,0,0,0,475,334,265,338,279,315,505,341,248,550,376,392,0,
1,1774544965568,2904,4651,8494,-5814215,-1425759,-461814,0,0,0,35,12,24,194,85,181,154,61,113,185,76,212,0,
2,1774544965568,210,-100,9940,212581,-79412,-32986,0,0,0,464,370,268,346,299,336,463,255,234,479,328,414,0,
1,1774544965584,3082,4345,9897,-6360328,-1406211,-392175,0,0,0,35,15,26,192,81,187,153,56,118,182,72,216,0,
2,1774544965584,181,-138,9964,226020,-84299,-28099,0,0,0,464,380,266,344,333,348,449,245,245,446,312,438,0,
1,1774544965600,3302,3728,11777,-6886894,-1401324,-217468,0,0,0,34,16,30,193,76,180,163,57,119,186,69,215,0,
2,1774544965600,172,-167,10002,241902,-89186,-24434,0,0,0,493,370,265,359,371,377,450,235,268,394,232,462,0,
1,1774544965616,3512,2890,13457,-7189883,-1403768,-58643,0,0,0,31,6,24,219,76,182,179,55,110,193,61,204,0,
2,1774544965616,220,-224,10064,266337,-96516,-23212,0,0,0,523,368,259,380,388,403,447,198,259,372,208,493,0,
1,1774544965632,3407,2014,15596,-7357260,-1281595,69638,0,0,0,35,8,24,206,78,181,175,56,112,183,65,205,0,
2,1774544965632,258,-272,10122,301767,-102625,-31764,0,0,0,538,378,259,389,375,402,423,166,226,388,222,528,0,
1,1774544965648,3038,1335,17922,-7475768,-1062905,124616,0,0,0,26,5,27,186,79,180,160,56,114,171,69,209,0,
2,1774544965648,239,-306,10203,351858,-105068,-50090,0,0,0,558,386,264,398,359,395,390,161,227,366,145,554,0,
1,1774544965664,2325,339,21201,-7671245,-872315,85521,0,0,0,23,8,29,178,82,182,149,56,116,165,71,211,0,
2,1774544965664,253,-354,10356,431270,-97738,-74525,0,0,0,586,399,245,418,388,401,378,191,252,325,109,564,0,
1,1774544965680,1541,-1550,24680,-7932695,-879645,-31764,0,0,0,29,14,29,172,81,184,144,56,122,162,71,215,0,
2,1774544965680,349,-449,10543,538783,-87964,-103847,0,0,0,615,414,239,450,464,438,380,138,226,292,125,597,0,
1,1774544965696,961,-5704,28604,-8240572,-1227839,-315206,0,0,0,30,11,28,169,74,186,145,54,130,163,66,223,0,
2,1774544965696,622,-626,10753,680503,-80634,-158824,0,0,0,620,421,244,454,456,463,400,144,270,282,113,640,0,
1,1774544965712,1459,-12979,31744,-8400618,-1825265,-901637,0,0,0,28,7,29,176,72,193,170,55,143,171,64,229,0,
2,1774544965712,751,-741,11050,871093,-85521,-244346,0,0,0,647,442,211,484,503,507,368,121,260,249,65,659,0,
1,1774544965728,1387,-23785,32864,-8302880,-2063502,-1605353,0,0,0,23,2,28,207,63,203,216,51,155,194,57,219,0,
2,1774544965728,172,-579,12002,1097113,-73303,-300545,0,0,0,664,433,246,453,514,512,360,134,268,212,68,666,0,
1,1774544965744,-2847,-38745,27264,-7288844,-1651779,-1802052,0,0,0,38,16,30,217,74,194,221,60,135,194,61,208,0,
2,1774544965744,-440,-330,13620,1552819,-124616,-215024,0,0,0,678,444,207,448,519,490,301,123,255,124,39,674,0,
1,1774544965760,-6384,-49064,18597,-5243667,-1798387,-1081231,0,0,0,15,0,23,185,72,159,223,89,127,196,93,190,0,
2,1774544965760,-43,-445,14429,2160019,-229685,-114842,0,0,0,696,449,196,431,503,475,261,130,242,107,68,683,0,
1,1774544965776,-492,-55170,15075,-2268753,-3043330,350636,0,0,0,0,0,0,159,86,123,268,233,120,213,209,130,0,
2,1774544965776,521,-679,14725,2795319,-313984,-123394,0,0,0,700,467,189,414,478,463,214,147,226,113,85,703,0,
1,1774544965792,15759,-56290,16467,1568701,-2735454,382401,0,0,0,0,0,0,151,109,98,310,451,96,265,413,109,0,
2,1774544965792,842,-684,15496,3505144,-478918,-207694,0,0,0,680,470,185,437,516,468,201,158,218,125,98,682,0,
1,1774544965808,16702,-30145,13620,5437922,-302989,-404392,0,0,0,25,23,11,181,119,114,361,517,104,419,524,116,0,
2,1774544965808,1665,-593,17429,4338364,-766025,-326202,0,0,0,631,496,168,461,555,462,205,148,199,149,108,613,0,
1,1774544965824,3776,2287,17319,7746992,2291966,-298102,0,0,0,37,27,14,193,139,146,416,547,129,488,570,162,0,
2,1774544965824,3239,-416,21115,5519778,-1238834,-566882,0,0,0,550,516,149,440,561,434,194,140,159,169,104,539,0,
1,1774544965840,-2483,2258,23933,6852686,1932777,261450,0,0,0,111,50,66,203,106,174,471,561,151,575,589,216,0,
2,1774544965840,5393,-320,27590,7075041,-1999972,-993266,0,0,0,463,423,162,403,558,404,193,149,129,165,99,480,0,
1,1774544965856,-784,-4034,24063,4702440,389732,208915,0,0,0,99,35,66,222,103,200,528,567,166,618,587,242,0,
2,1774544965856,6633,-923,37070,8762250,-3053104,-1492954,0,0,0,405,299,135,370,395,324,176,95,100,146,48,416,0,
1,1774544965872,335,-3431,16970,2726902,-486248,-62308,0,0,0,68,9,41,257,107,228,584,564,183,625,575,266,0,
2,1774544965872,7958,-804,41885,10162354,-3959628,-1726305,0,0,0,318,219,134,313,276,234,172,75,127,135,40,289,0,
1,1774544965888,-569,-990,11395,1582140,-524122,-193033,0,0,0,90,11,48,271,92,253,630,553,206,636,563,300,0,
2,1774544965888,11256,5092,37817,10984578,-3552792,-1865582,0,0,0,292,193,126,290,235,190,189,96,110,169,93,242,0,
1,1774544965904,-1263,-598,10318,1039692,-215024,-135612,0,0,0,98,16,56,262,89,270,653,544,222,636,543,320,0,
2,1774544965904,13357,15242,26604,11143403,-2324953,-2195449,0,0,0,279,192,112,299,246,211,182,104,94,169,93,234,0,
1,1774544965920,-923,-784,10610,560774,-68416,-35430,0,0,0,92,10,54,284,88,278,649,537,228,634,516,329,0,
2,1774544965920,12318,17894,13371,8801346,-1015258,-2041511,0,0,0,274,189,107,293,237,208,192,105,102,153,68,217,0,
1,1774544965936,-603,-459,10514,266337,-58643,14660,0,0,0,86,12,59,287,95,281,643,506,248,620,513,350,0,
2,1774544965936,8365,19698,9112,3094643,912632,-1141096,0,0,0,275,195,103,296,243,200,180,81,69,145,65,207,0,
1,1774544965952,-670,-52,10198,246789,-81855,13439,0,0,0,83,14,61,277,96,303,633,454,283,578,468,376,0,
2,1774544965952,2890,17903,13113,-2929709,1809382,134390,0,0,0,275,189,101,301,259,205,203,109,105,148,69,207,0,
1,1774544965968,-727,-119,10212,284663,-72082,15882,0,0,0,78,14,62,280,101,303,618,379,279,535,413,374,0,
2,1774544965968,2220,11864,11978,-4831944,1145983,974940,0,0,0,273,189,98,310,264,213,207,136,114,151,75,209,0,
1,1774544965984,-732,-253,10289,304210,-57421,26878,0,0,0,88,20,59,280,101,313,594,325,284,489,358,371,0,
2,1774544965984,3522,8255,6800,-4323704,1238834,1106887,0,0,0,272,193,100,312,262,205,197,123,103,156,79,215,0,
1,1774544966000,-722,-282,10265,309097,-23212,36651,0,0,0,88,31,54,256,134,278,550,298,246,414,311,379,0,
2,1774544966000,1426,8992,5589,-4018271,2649933,768468,0,0,0,272,192,101,300,252,204,187,104,109,154,73,228,0,
1,1774544966016,-698,-287,10112,293215,41538,35430,0,0,0,98,34,64,280,159,306,528,302,239,405,313,391,0,
2,1774544966016,-2364,9696,7925,-4801400,3415958,576656,0,0,0,270,184,100,290,249,209,182,109,119,145,68,230,0,
1,1774544966032,-641,-363,9983,267558,79412,23212,0,0,0,125,32,72,282,141,312,488,234,247,396,259,415,0,
2,1774544966032,-3929,8753,10835,-5987701,2729345,602313,0,0,0,268,181,103,294,261,202,189,121,119,147,76,216,0,
1,1774544966048,-636,-464,9925,250454,72082,12217,0,0,0,119,35,75,287,144,314,446,200,238,348,221,433,0,
2,1774544966048,-3086,6757,12572,-6816034,1908343,597426,0,0,0,267,182,106,298,257,206,195,123,125,157,84,215,0,
1,1774544966064,-679,-492,9968,273667,48869,23212,0,0,0,127,37,73,298,146,313,424,198,222,324,217,440,0,
2,1774544966064,-1454,4508,13697,-7145901,1695761,436157,0,0,0,269,175,110,323,266,217,195,109,118,166,82,218,0,
1,1774544966080,-650,-512,10078,328645,28099,46425,0,0,0,135,57,72,292,182,319,405,188,218,310,206,456,0,
2,1774544966080,-938,2770,15692,-7247305,1992642,125838,0,0,0,258,174,117,289,234,199,178,108,96,163,85,226,0,
1,1774544966096,-603,-564,10083,366519,0,51312,0,0,0,134,84,71,283,239,351,371,166,241,277,176,483,0,
2,1774544966096,-1158,1541,18286,-7363369,2244318,-146607,0,0,0,264,166,105,293,237,196,195,100,111,170,75,210,0,
1,1774544966112,-641,-631,10074,395840,-29321,53756,0,0,0,157,89,75,307,231,395,361,142,273,269,158,505,0,
2,1774544966112,-1383,708,21110,-7558846,2223549,-158824,0,0,0,247,158,105,289,237,190,179,77,101,156,73,222,0,
1,1774544966128,-741,-708,10078,436157,-39095,70860,0,0,0,181,92,81,338,196,395,385,119,269,292,149,527,0,
2,1774544966128,-827,-339,23953,-7714006,2084272,118507,0,0,0,245,159,105,321,256,214,186,79,88,151,48,216,0,
1,1774544966144,-823,-784,10150,492357,-23212,101403,0,0,0,197,78,80,323,194,388,317,107,262,277,124,555,0,
2,1774544966144,445,-2278,27413,-7738440,2007303,744033,0,0,0,221,146,124,293,248,191,188,93,81,156,60,215,0,
1,1774544966160,-1105,-914,10495,592539,-23212,177150,0,0,0,209,102,73,330,230,384,323,115,289,258,120,562,0,
2,1774544966160,1823,-6427,30720,-7654141,2072054,1690874,0,0,0,237,157,118,299,250,196,174,76,85,162,66,219,0,
1,1774544966176,-938,-933,11040,720820,-32986,262672,0,0,0,270,102,86,337,230,388,295,118,266,273,133,565,0,
2,1774544966176,3082,-12936,32591,-7551516,2306627,2581516,0,0,0,251,170,97,307,246,198,204,62,95,162,58,214,0,
1,1774544966192,-440,-938,11404,924849,14660,277332,0,0,0,259,133,87,371,261,396,279,110,240,314,154,576,0,
2,1774544966192,3216,-23900,31725,-7313278,3021339,3185051,0,0,0,256,175,94,301,238,186,236,91,123,154,50,203,0,
1,1774544966208,-272,-1057,11505,1189965,68416,233350,0,0,0,274,151,82,371,270,387,249,112,246,323,175,576,0,
2,1774544966208,784,-37056,26594,-6362772,3808133,3126408,0,0,0,261,185,102,296,235,184,241,109,140,153,49,202,0,
1,1774544966224,-459,-1143,12055,1463633,74525,199142,0,0,0,380,202,121,352,237,404,217,94,265,334,159,568,0,
2,1774544966224,-3910,-47853,19731,-4235739,4042706,2364048,0,0,0,258,187,102,289,237,194,258,118,135,181,83,212,0,
1,1774544966240,-679,-1196,12907,1841147,134390,194255,0,0,0,432,261,135,322,251,411,175,95,260,328,186,569,0,
2,1774544966240,-12151,-49260,16152,-1459967,2643824,795346,0,0,0,239,163,94,274,226,193,311,196,137,240,188,209,0,
1,1774544966256,-756,-1316,13338,2311514,326202,213802,0,0,0,460,326,162,323,273,413,136,87,244,319,189,561,0,
2,1774544966256,-16405,-48020,20229,631634,183259,-151494,0,0,0,203,143,93,260,204,171,373,337,131,319,356,182,0,
1,1774544966272,-851,-1320,14486,2817310,604756,233350,0,0,0,484,366,183,327,281,421,108,77,234,280,171,548,0,
2,1774544966272,-9777,-28446,18492,3787364,-3810577,-563217,0,0,0,210,168,80,295,272,193,444,489,111,448,581,190,0,
1,1774544966288,-1311,-1009,17477,3674965,880867,290771,0,0,0,399,322,147,311,300,439,100,88,252,249,188,525,0,
2,1774544966288,148,-804,14156,6240599,-5479461,15882,0,0,0,251,162,113,311,234,246,525,620,151,523,646,224,0,
1,1774544966304,-2254,-555,20593,5013981,1170417,434936,0,0,0,236,240,95,307,321,451,110,103,280,260,208,491,0,
2,1774544966304,-555,4460,18109,7180110,-3754377,916297,0,0,0,289,178,112,301,255,247,553,638,169,568,682,240,0,
1,1774544966320,-2876,-368,25675,6795264,1707979,707381,0,0,0,178,222,96,299,302,423,113,101,262,234,181,464,0,
2,1774544966320,-4809,-2775,22589,6054896,-1054353,632856,0,0,0,326,207,140,286,218,283,617,646,246,644,653,306,0,
1,1774544966336,-2053,-1162,35386,8696277,2353052,893084,0,0,0,117,150,105,225,222,391,117,94,244,195,164,413,0,
2,1774544966336,-2301,-4479,21182,4103792,305432,-83077,0,0,0,349,211,182,293,220,316,654,624,278,689,631,364,0,
1,1774544966352,-1938,-2373,42220,10269866,2503325,796568,0,0,0,77,51,65,211,147,300,136,75,189,182,107,340,0,
2,1774544966352,1799,-1359,14673,2120924,320093,-169820,0,0,0,368,211,197,315,236,326,708,634,322,697,618,376,0,
1,1774544966368,-5412,1617,41253,11228924,1125213,757472,0,0,0,25,11,23,168,86,184,142,68,126,182,91,253,0,
2,1774544966368,1229,-177,10844,1205847,91629,142942,0,0,0,380,213,209,321,235,318,705,609,293,711,604,375,0,
1,1774544966384,-6968,13768,32208,11115303,-30543,1238834,0,0,0,5,0,18,170,85,196,139,64,130,170,79,241,0,
2,1774544966384,248,-622,10318,748920,-50090,196698,0,0,0,389,212,218,328,246,335,699,582,283,720,602,380,0,
1,1774544966400,-7284,19310,14213,8866098,741590,1848478,0,0,0,8,0,17,177,88,179,138,59,112,171,78,221,0,
2,1774544966400,205,-722,10796,454483,-140499,54977,0,0,0,399,213,237,344,278,369,725,588,318,708,580,381,0,
1,1774544966416,-6853,17741,7647,3777590,1109331,2114815,0,0,0,14,1,21,181,75,170,148,58,110,170,74,215,0,
2,1774544966416,421,-239,10638,265115,-173485,-21991,0,0,0,406,224,273,348,295,378,723,557,304,688,524,393,0,
1,1774544966432,-4718,12428,12940,-1791056,190589,1905899,0,0,0,14,2,22,176,72,169,144,59,110,171,72,218,0,
2,1774544966432,435,86,10308,262672,-140499,-14660,0,0,0,401,232,286,348,287,371,699,488,285,663,493,431,0,
1,1774544966448,-2383,7887,13352,-3775147,-686612,1451415,0,0,0,24,9,25,174,73,174,143,61,116,172,73,226,0,
2,1774544966448,344,0,10337,333532,-68416,-6108,0,0,0,395,235,246,358,285,355,699,487,316,608,480,441,0,
1,1774544966464,-909,5829,8552,-3699399,-726929,1038470,0,0,0,30,15,30,169,73,185,142,60,125,172,74,243,0,
2,1774544966464,358,-114,10366,382401,-18325,-13439,0,0,0,407,230,216,371,303,380,643,424,250,558,434,442,0,
1,1774544966480,-674,5728,5943,-3645643,-350636,783129,0,0,0,21,8,26,160,71,183,137,59,125,173,75,251,0,
2,1774544966480,430,-181,10179,379958,2443,-25656,0,0,0,421,230,230,384,308,412,624,400,299,491,354,453,0,
1,1774544966496,-804,5340,6164,-4118453,-346971,557109,0,0,0,19,4,21,160,70,175,138,58,120,176,73,246,0,
2,1774544966496,459,-210,10011,333532,21991,-28099,0,0,0,389,214,306,387,315,400,577,298,306,422,312,439,0,
1,1774544966512,-990,4675,7418,-4682892,-726929,360410,0,0,0,30,9,26,161,71,181,142,59,124,179,75,249,0,
2,1774544966512,483,-253,9964,309097,26878,-29321,0,0,0,383,233,204,338,298,365,560,263,276,388,289,422,0,
1,1774544966528,-1005,4058,8423,-5098281,-1246165,210137,0,0,0,24,7,27,156,73,182,134,64,126,169,81,249,0,
2,1774544966528,478,-301,9944,320093,12217,-32986,0,0,0,394,238,178,346,308,380,602,232,284,374,243,432,0,
1,1774544966544,-607,3527,9686,-5557651,-1739744,90408,0,0,0,21,12,31,157,72,184,134,59,125,170,74,251,0,
2,1774544966544,449,-363,9930,343306,3665,-25656,0,0,0,404,228,218,355,293,382,582,194,308,353,169,447,0,
1,1774544966560,0,2904,11337,-6090326,-2091602,-39095,0,0,0,28,10,31,162,67,205,136,52,144,171,73,251,0,
2,1774544966560,459,-421,9978,360410,12217,-19547,0,0,0,402,211,251,369,280,422,557,165,297,327,134,475,0,
1,1774544966576,512,1670,13491,-6649878,-2222327,-219911,0,0,0,29,9,24,162,73,177,141,58,126,169,75,233,0,
2,1774544966576,526,-473,10045,377514,18325,-19547,0,0,0,407,205,259,392,279,439,566,150,307,328,120,521,0,
1,1774544966592,588,277,15534,-7039611,-2145358,-401949,0,0,0,14,0,18,169,73,166,146,55,111,174,72,218,0,
2,1774544966592,555,-536,10026,384845,0,-29321,0,0,0,431,220,262,421,292,462,557,140,328,305,99,549,0,
1,1774544966608,363,-952,17817,-7305948,-1951103,-603534,0,0,0,21,8,25,170,74,172,146,60,117,170,71,225,0,
2,1774544966608,550,-598,10002,379958,-28099,-34208,0,0,0,453,248,272,447,334,507,540,128,331,271,85,573,0,
1,1774544966624,-210,-2641,20799,-7629706,-1764178,-863763,0,0,0,17,6,26,168,75,173,142,57,115,161,67,223,0,
2,1774544966624,569,-646,10069,379958,-43982,-36651,0,0,0,467,278,266,462,376,525,534,107,325,251,74,607,0,
1,1774544966640,-1493,-5891,23895,-7987673,-1742187,-1167974,0,0,0,22,5,27,164,69,177,144,58,124,162,63,235,0,
2,1774544966640,598,-679,10184,400727,-56199,-50090,0,0,0,503,303,246,466,380,526,512,93,328,199,47,624,0,
1,1774544966656,-2991,-12127,26432,-7941248,-2448347,-1462411,0,0,0,28,6,28,164,69,181,147,58,129,167,67,246,0,
2,1774544966656,574,-732,10203,434936,-81855,-70860,0,0,0,553,319,253,464,395,548,536,131,361,163,45,657,0,
1,1774544966672,-2062,-18401,27910,-7479433,-3473379,-1677435,0,0,0,33,10,27,175,72,174,166,57,125,181,68,237,0,
2,1774544966672,512,-823,10232,470366,-91629,-80634,0,0,0,584,360,238,464,430,561,511,143,353,147,50,680,0,
1,1774544966688,1225,-25245,28154,-6938207,-3891211,-1869247,0,0,0,36,13,26,189,72,168,194,56,124,197,62,226,0,
2,1774544966688,550,-899,10591,532674,-52534,-74525,0,0,0,616,358,243,484,440,565,444,139,327,99,29,699,0,
1,1774544966704,1167,-34098,24244,-6475171,-3010343,-1814269,0,0,0,33,7,23,197,73,175,205,57,126,200,59,225,0,
2,1774544966704,847,-871,11998,763581,51312,-101403,0,0,0,640,340,221,478,462,577,396,127,346,112,33,716,0,
1,1774544966720,-1296,-42086,17310,-5335296,-2368935,-1171639,0,0,0,23,0,18,195,76,179,194,61,123,193,64,219,0,
2,1774544966720,957,-818,13596,1304808,112399,-174707,0,0,0,661,351,198,499,486,581,331,122,359,128,52,734,0,
1,1774544966736,0,-46762,12141,-3229033,-2884505,197920,0,0,0,20,0,14,178,81,164,194,92,124,183,86,214,0,
2,1774544966736,727,-871,15281,2018298,-141720,-180816,0,0,0,691,374,196,471,454,547,288,122,329,110,24,731,0,
1,1774544966752,9341,-46647,13309,-1203404,-3142290,1213178,0,0,0,0,0,0,156,111,104,273,297,101,192,201,137,0,
2,1774544966752,899,-1009,16601,2662150,-437379,-141720,0,0,0,699,389,202,446,483,547,252,149,304,78,28,723,0,
1,1774544966768,19267,-32151,17645,1196074,-919963,880867,0,0,0,0,0,0,164,80,77,343,333,81,256,222,101,0,
2,1774544966768,1139,-904,16793,3356093,-507018,-162490,0,0,0,683,406,193,460,480,538,269,132,282,106,45,707,0,
1,1774544966784,14118,-971,13567,4116009,3645643,-998153,0,0,0,0,0,0,148,99,93,317,383,91,361,384,95,0,
2,1774544966784,1158,-516,17693,4378682,-420275,-278554,0,0,0,626,417,172,479,481,532,318,133,273,154,72,658,0,
1,1774544966800,4288,6068,13170,6230825,3940080,-1923003,0,0,0,42,10,26,188,91,135,444,504,131,525,504,144,0,
2,1774544966800,1258,9,20770,5783672,-485026,-405614,0,0,0,541,405,154,471,517,520,300,138,241,158,88,581,0,
1,1774544966816,3211,-1770,23201,6349333,1512502,-1407433,0,0,0,37,17,26,238,87,176,536,561,142,612,553,180,0,
2,1774544966816,583,411,27729,7425677,-863763,-470366,0,0,0,480,364,133,441,503,465,246,122,193,139,79,503,0,
1,1774544966832,3393,-6197,28580,4310265,-273667,-168598,0,0,0,36,6,26,244,86,191,560,557,155,636,544,206,0,
2,1774544966832,-827,282,37429,9286373,-1375668,-313984,0,0,0,430,294,115,382,406,374,217,126,163,125,62,426,0,
1,1774544966848,-315,-2005,19009,2161241,-339641,169820,0,0,0,43,6,28,245,88,194,568,535,167,635,521,212,0,
2,1774544966848,1167,14,42933,10927157,-1345125,47647,0,0,0,323,219,116,310,289,275,174,95,114,123,46,323,0,
1,1774544966864,-1837,1220,9786,1240056,-179594,-52534,0,0,0,100,38,61,237,92,192,600,536,174,641,503,219,0,
2,1774544966864,4656,5407,41095,11963184,-419053,95294,0,0,0,261,195,107,280,289,230,184,122,108,132,88,246,0,
1,1774544966880,-1474,598,8954,1112996,-81855,-141720,0,0,0,166,85,93,237,97,191,628,538,159,651,479,215,0,
2,1774544966880,6920,15635,31064,12161105,333532,-229685,0,0,0,263,195,106,267,262,240,181,125,128,125,82,257,0,
1,1774544966896,-1072,-335,10112,869872,111177,-107512,0,0,0,197,108,124,245,96,204,631,511,162,649,457,212,0,
2,1774544966896,7853,21196,14501,10480004,572991,-775798,0,0,0,251,192,112,272,265,233,171,106,94,128,87,243,0,
1,1774544966912,-737,-512,11127,379958,313984,-1221,0,0,0,189,99,139,241,95,220,618,471,189,636,456,225,0,
2,1774544966912,4790,22541,8887,3894876,111177,-1200961,0,0,0,248,185,115,280,266,242,171,83,96,118,68,234,0,
1,1774544966928,-732,134,10437,119729,274889,21991,0,0,0,176,100,116,235,107,220,603,452,189,620,467,235,0,
2,1774544966928,1430,20775,12486,-2783102,-349414,-1204626,0,0,0,242,185,101,270,250,227,197,116,130,121,80,235,0,
1,1774544966944,-703,473,10045,69638,202807,26878,0,0,0,235,138,155,228,99,236,590,440,200,598,463,267,0,
2,1774544966944,1177,14448,14558,-6365215,-518013,-1150870,0,0,0,241,185,104,268,250,225,190,128,135,119,81,237,0,
1,1774544966960,-564,435,10198,177150,129503,28099,0,0,0,262,148,158,234,106,229,562,401,200,579,382,278,0,
2,1774544966960,2952,8403,10279,-6427524,256563,-1659109,0,0,0,241,201,107,273,264,236,181,129,135,109,80,233,0,
1,1774544966976,-502,311,10308,268780,37873,18325,0,0,0,266,181,179,223,107,237,537,389,208,528,337,277,0,
2,1774544966976,1823,6695,7331,-5987701,1528384,-2332283,0,0,0,246,198,102,273,266,233,182,120,131,106,75,226,0,
1,1774544966992,-574,244,10289,334754,-24434,14660,0,0,0,288,219,162,247,131,234,516,343,179,474,277,279,0,
2,1774544966992,-2407,7240,8399,-6221051,2361605,-2685363,0,0,0,244,182,98,270,261,219,186,117,122,112,71,224,0,
1,1774544967008,-626,181,10174,389732,-25656,15882,0,0,0,314,215,160,222,137,230,455,337,182,412,287,304,0,
2,1774544967008,-4455,6771,10648,-6897890,2024407,-2526538,0,0,0,235,177,101,269,253,209,192,127,120,117,71,231,0,
1,1774544967024,-646,62,10002,425162,-1221,10995,0,0,0,350,225,163,259,149,239,453,244,188,415,219,321,0,
2,1774544967024,-2546,4422,12299,-7356039,1312138,-2161241,0,0,0,237,177,108,266,245,206,199,127,127,116,75,234,0,
1,1774544967040,-703,-43,9916,430049,24434,13439,0,0,0,352,228,165,273,158,255,427,194,184,379,193,334,0,
2,1774544967040,-435,2483,13381,-7303504,1225395,-1910786,0,0,0,230,172,105,273,260,215,196,112,133,110,80,223,0,
1,1774544967056,-684,-81,10002,455705,43982,40317,0,0,0,370,224,175,266,148,259,383,156,192,340,150,344,0,
2,1774544967056,172,1742,14879,-7066489,1693318,-1626123,0,0,0,233,183,101,259,229,187,157,107,89,130,87,229,0,
1,1774544967072,-507,-100,10126,510683,17104,59864,0,0,0,397,255,171,257,193,256,353,143,188,325,152,362,0,
2,1774544967072,47,1426,17061,-7089701,2171015,-1163087,0,0,0,230,170,107,258,233,215,219,111,138,118,77,223,0,
1,1774544967088,-416,-153,10212,566882,-35430,58643,0,0,0,391,262,186,263,215,284,332,146,203,318,167,401,0,
2,1774544967088,119,856,19640,-7393912,2423913,-486248,0,0,0,230,158,102,259,231,205,187,116,151,119,66,221,0,
1,1774544967104,-579,-268,10342,627969,-81855,52534,0,0,0,312,210,153,292,223,315,311,142,219,300,164,458,0,
2,1774544967104,799,-617,22804,-7626041,2505769,444709,0,0,0,232,155,103,263,226,204,185,109,133,123,73,223,0,
1,1774544967120,-866,-435,10519,717155,-81855,74525,0,0,0,249,175,84,324,261,321,294,132,210,280,162,506,0,
2,1774544967120,1627,-3024,26652,-7655363,2602285,1650557,0,0,0,232,156,102,269,227,212,194,104,132,122,78,230,0,
1,1774544967136,-1253,-626,10873,850324,-4886,142942,0,0,0,305,206,101,337,272,336,286,130,220,283,163,525,0,
2,1774544967136,2196,-6570,29983,-7573507,2765997,2868623,0,0,0,235,159,108,264,226,208,194,86,117,123,75,227,0,
1,1774544967152,-1139,-646,11476,1078788,240680,237015,0,0,0,299,199,92,351,275,354,273,138,232,305,178,533,0,
2,1774544967152,2038,-13510,32122,-7468438,3144734,3839898,0,0,0,236,165,107,263,228,202,206,71,111,124,67,222,0,
1,1774544967168,-550,-583,11682,1282817,365297,287106,0,0,0,309,232,101,342,303,364,248,133,244,312,203,517,0,
2,1774544967168,765,-24795,32524,-7164227,3556457,4268726,0,0,0,237,171,112,264,225,206,247,95,146,128,62,226,0,
1,1774544967184,-162,-703,11557,1447750,299323,284663,0,0,0,374,286,131,342,308,371,213,125,251,308,207,529,0,
2,1774544967184,-469,-39186,28858,-6421415,3346319,3847229,0,0,0,239,171,114,265,229,213,275,127,171,142,68,231,0,
1,1774544967200,-454,-837,12342,1710422,246789,263893,0,0,0,415,308,171,320,284,386,180,110,252,303,189,526,0,
2,1774544967200,-1067,-51591,20392,-4392121,2499660,2009746,0,0,0,227,162,94,272,240,205,288,168,140,182,139,215,0,
1,1774544967216,-813,-866,13634,2178345,349414,280998,0,0,0,409,302,148,314,291,402,157,101,250,313,202,502,0,
2,1774544967216,-7384,-56625,18009,-1594358,1866804,-118507,0,0,0,201,141,78,273,216,182,380,314,124,269,330,190,0,
1,1774544967232,-684,-928,14103,2801427,560774,324980,0,0,0,415,309,147,321,295,373,141,101,227,304,203,493,0,
2,1774544967232,-15424,-48954,18238,2919935,-797790,-1078788,0,0,0,210,141,76,291,229,194,436,490,139,411,518,208,0,
1,1774544967248,-373,-1028,14347,3503923,828333,335975,0,0,0,386,340,134,312,305,360,144,110,222,285,195,493,0,
2,1774544967248,-7528,-17956,14386,6233268,-3695734,-638965,0,0,0,229,154,82,318,268,246,529,584,171,508,615,225,0,
1,1774544967264,-899,-832,17071,4254065,1082453,348193,0,0,0,289,346,116,291,324,379,131,113,238,238,191,495,0,
2,1774544967264,1861,5029,16884,7376808,-3847229,266337,0,0,0,282,218,91,320,323,246,561,627,203,585,657,213,0,
1,1774544967280,-2751,-569,21229,5569869,1550375,505796,0,0,0,206,312,103,270,338,390,118,123,234,202,208,474,0,
2,1774544967280,-713,1072,22809,6522819,-1540602,571769,0,0,0,312,196,115,299,248,247,619,624,200,660,663,276,0,
1,1774544967296,-4187,-665,28087,7189883,2313957,830776,0,0,0,157,253,97,245,321,366,119,131,213,188,221,440,0,
2,1774544967296,-2852,-4359,22880,4756196,199142,153938,0,0,0,333,196,159,274,224,259,642,634,247,655,644,302,0,
1,1774544967312,-3359,-1277,38238,8841663,3203377,1080009,0,0,0,100,167,83,218,254,314,133,119,195,176,187,391,0,
2,1774544967312,-382,-3326,16898,2860071,603534,-142942,0,0,0,356,203,190,276,223,287,683,638,311,660,633,347,0,
1,1774544967328,-4536,-1679,42732,10532538,3382971,1033583,0,0,0,63,58,55,205,146,243,160,88,165,180,116,303,0,
2,1774544967328,1292,-411,11337,1613905,333532,87964,0,0,0,362,203,209,292,225,298,693,603,279,671,623,368,0,
1,1774544967344,-8360,3536,38899,11366980,1955990,1152091,0,0,0,53,10,48,200,68,218,150,54,150,169,70,273,0,
2,1774544967344,957,-306,10083,978606,109955,210137,0,0,0,359,200,231,298,227,303,704,583,271,686,615,378,0,
1,1774544967360,-9686,14075,28375,11261911,114842,1676214,0,0,0,30,16,36,189,95,227,141,60,140,172,80,267,0,
2,1774544967360,449,-904,10792,554665,-29321,84299,0,0,0,358,207,228,304,245,314,725,588,294,700,611,397,0,
1,1774544967376,-6283,14874,13668,9468411,-197920,1613905,0,0,0,18,7,30,194,88,233,149,60,145,173,78,276,0,
2,1774544967376,469,-516,10725,280998,-107512,-9773,0,0,0,365,201,211,324,258,340,732,563,287,697,587,423,0,
1,1774544967392,-2306,13342,8432,5099503,-68416,587652,0,0,0,15,8,23,195,91,184,151,61,111,167,70,239,0,
2,1774544967392,574,-38,10370,228463,-130725,-23212,0,0,0,378,194,218,353,254,360,713,490,261,658,524,432,0,
1,1774544967408,-411,13347,10193,-344527,129503,-591317,0,0,0,7,1,26,182,89,211,141,59,143,172,81,239,0,
2,1774544967408,536,38,10275,287106,-119729,-19547,0,0,0,384,213,229,360,261,360,685,428,264,608,461,438,0,
1,1774544967424,-1986,10662,10471,-3955963,46425,-944397,0,0,0,20,9,27,181,89,204,140,64,127,168,79,216,0,
2,1774544967424,516,-100,10327,326202,-108734,-26878,0,0,0,372,211,224,322,245,364,660,396,275,577,429,467,0,
1,1774544967440,-3144,6949,9006,-4989547,-552222,-630412,0,0,0,28,12,29,183,89,201,145,63,128,172,81,224,0,
2,1774544967440,531,-167,10222,315206,-116064,-34208,0,0,0,384,216,184,317,260,356,669,354,281,509,382,441,0,
1,1774544967456,-1794,5034,7824,-4959004,-1237612,-69638,0,0,0,30,14,27,185,91,188,142,66,121,175,85,220,0,
2,1774544967456,540,-172,10040,278554,-129503,-36651,0,0,0,364,203,162,335,267,329,648,363,305,451,333,440,0,
1,1774544967472,263,4393,7633,-5088507,-1461189,392175,0,0,0,23,9,26,185,90,193,136,63,128,173,78,222,0,
2,1774544967472,521,-172,10007,288328,-129503,-41538,0,0,0,370,213,200,373,274,358,616,280,277,402,283,439,0,
1,1774544967488,1076,3996,8202,-5428148,-1268156,607200,0,0,0,22,9,27,184,90,198,135,58,128,170,74,227,0,
2,1774544967488,449,-210,10031,337197,-105068,-42760,0,0,0,376,211,175,346,288,374,589,200,292,384,211,472,0,
1,1774544967504,938,3493,9155,-5805663,-1235169,704938,0,0,0,25,13,27,181,88,184,139,56,114,169,78,220,0,
2,1774544967504,416,-306,10007,367740,-64751,-32986,0,0,0,395,204,164,379,270,376,613,178,298,395,161,507,0,
1,1774544967520,899,3335,10514,-6274807,-1439198,772133,0,0,0,22,6,25,178,81,175,143,55,111,167,75,212,0,
2,1774544967520,464,-397,9987,377514,-21991,-23212,0,0,0,403,214,161,393,313,405,581,156,272,338,128,499,0,
1,1774544967536,875,2914,12371,-6829473,-1855808,813672,0,0,0,30,7,29,172,80,181,142,59,118,163,71,214,0,
2,1774544967536,555,-440,10059,395840,-2443,-25656,0,0,0,413,209,175,377,294,407,552,127,262,287,96,500,0,
1,1774544967552,804,1842,14314,-7248526,-2333505,791681,0,0,0,26,9,32,173,78,201,143,60,140,163,68,228,0,
2,1774544967552,617,-488,10088,420275,-36651,-43982,0,0,0,446,226,182,374,259,424,558,138,286,262,80,530,0,
1,1774544967568,914,282,16439,-7425677,-2769662,626747,0,0,0,29,3,25,206,86,194,159,67,131,188,74,217,0,
2,1774544967568,555,-583,10002,410501,-86742,-59864,0,0,0,487,274,171,400,296,472,572,173,316,246,86,573,0,
1,1774544967584,1359,-770,19162,-7420790,-2839301,257785,0,0,0,29,12,22,179,85,171,146,62,110,169,73,204,0,
2,1774544967584,574,-646,10050,383623,-120951,-63529,0,0,0,499,308,180,419,359,494,547,151,323,228,78,607,0,
1,1774544967600,1727,-1909,22694,-7542963,-2620611,-251676,0,0,0,32,21,24,169,98,166,139,79,106,165,101,203,0,
2,1774544967600,603,-708,10174,390953,-146607,-70860,0,0,0,510,354,209,424,402,519,490,106,337,194,51,634,0,
1,1774544967616,1464,-4814,26556,-7951021,-2370157,-905302,0,0,0,21,7,30,174,84,182,143,63,126,165,77,218,0,
2,1774544967616,579,-760,10299,430049,-157603,-90408,0,0,0,575,354,209,479,454,546,486,104,359,182,74,662,0,
1,1774544967632,1158,-10978,29432,-8289441,-2764776,-1593136,0,0,0,18,10,27,166,98,184,138,71,127,161,91,217,0,
2,1774544967632,746,-832,10667,532674,-124616,-119729,0,0,0,590,378,177,491,452,525,483,120,334,191,69,686,0,
1,1774544967648,2498,-18497,31031,-8289441,-3379306,-2219884,0,0,0,14,3,24,166,83,174,149,61,122,158,75,206,0,
2,1774544967648,928,-880,11452,745255,-41538,-184481,0,0,0,621,339,193,495,466,539,465,104,334,147,74,718,0,
1,1774544967664,4326,-29896,29356,-7787310,-3242472,-2656042,0,0,0,20,1,19,176,76,169,163,57,121,164,65,202,0,
2,1774544967664,574,-832,12400,1119105,46425,-255341,0,0,0,640,343,204,501,466,541,408,147,345,152,47,736,0,
1,1774544967680,2670,-41555,22895,-6522819,-2310292,-2368935,0,0,0,21,1,20,184,79,173,166,59,124,168,67,205,0,
2,1774544967680,291,-780,12998,1554041,-74525,-240680,0,0,0,660,353,214,476,475,555,340,123,326,111,21,730,0,
1,1774544967696,440,-51074,14170,-3930306,-1819156,-696386,0,0,0,22,10,24,183,85,174,181,78,128,165,76,195,0,
2,1774544967696,162,-818,13103,2056172,-320093,-193033,0,0,0,686,406,210,665,504,516,303,132,299,105,29,744,0,
1,1774544967712,9581,-52629,11165,-1132544,-2686585,1456302,0,0,0,19,16,16,164,87,142,235,170,118,188,123,152,0,
2,1774544967712,244,-981,13428,2561968,-461814,-155159,0,0,0,689,419,203,567,502,506,273,115,253,103,13,724,0,
1,1774544967728,20995,-41138,13328,1117883,-1799608,2084272,0,0,0,0,0,0,149,87,96,309,329,97,252,259,109,0,
2,1774544967728,760,-1095,14888,3152064,-448375,-194255,0,0,0,673,411,198,445,496,499,237,114,237,100,41,696,0,
1,1774544967744,12687,-8312,11112,3651752,2444682,542448,0,0,0,0,0,0,176,102,109,363,435,106,317,427,118,0,
2,1774544967744,1110,-923,17176,4043927,-503352,-295658,0,0,0,626,428,182,434,521,499,275,226,270,129,85,653,0,
1,1774544967760,947,6877,11653,6024352,4528954,-742812,0,0,0,2,0,0,198,108,132,385,479,123,389,496,130,0,
2,1774544967760,1732,-531,20928,5254662,-747699,-411723,0,0,0,552,441,152,424,546,490,282,259,252,163,109,581,0,
1,1774544967776,-516,703,18798,6891781,3346319,-981049,0,0,0,5,0,3,217,118,171,454,542,151,475,559,197,0,
2,1774544967776,2550,-52,27451,7017619,-1253495,-614530,0,0,0,477,403,131,414,522,439,197,132,163,163,108,498,0,
1,1774544967792,3933,-5896,24106,5641951,1174082,-360410,0,0,0,47,4,29,236,108,204,558,539,183,602,573,260,0,
2,1774544967792,2096,-315,35410,8795237,-1942551,-741590,0,0,0,411,325,125,395,432,368,188,101,123,148,65,416,0,
1,1774544967808,1986,-3933,21038,3384193,1221,70860,0,0,0,67,13,36,275,118,219,599,540,180,616,557,258,0,
2,1774544967808,3230,-708,39679,10312626,-2122145,-620639,0,0,0,327,268,102,335,344,305,224,159,135,140,80,333,0,
1,1774544967824,-851,-1320,15017,1466076,-377514,26878,0,0,0,78,21,50,280,110,250,591,519,194,617,558,283,0,
2,1774544967824,5063,3436,39162,11290011,-1386664,-555887,0,0,0,248,197,105,258,264,227,193,91,140,135,86,261,0,
1,1774544967840,-1301,-382,10528,636521,-232128,-135612,0,0,0,83,19,53,289,106,301,615,512,224,610,555,308,0,
2,1774544967840,6111,14132,30040,11447614,-636521,-799011,0,0,0,251,184,103,301,266,253,178,91,96,135,68,257,0,
1,1774544967856,-598,-459,9973,403171,-91629,-68416,0,0,0,98,29,45,318,120,274,626,502,197,605,551,295,0,
2,1774544967856,7078,20229,15290,9738413,-632856,-1253495,0,0,0,239,186,103,261,256,232,194,97,132,95,52,243,0,
1,1774544967872,-411,-248,10466,254119,-34208,17104,0,0,0,96,30,39,313,132,253,630,486,182,591,518,285,0,
2,1774544967872,6666,21004,8557,4377460,-631634,-1827708,0,0,0,235,186,107,282,280,251,186,110,113,106,78,279,0,
1,1774544967888,-583,19,10461,196698,-40317,23212,0,0,0,89,29,41,312,131,257,627,465,180,581,478,300,0,
2,1774544967888,3455,18224,12964,-2544864,152716,-2098932,0,0,0,242,182,95,292,287,233,184,105,113,126,96,249,0,
1,1774544967904,-607,67,10303,211359,-62308,13439,0,0,0,87,30,44,306,129,268,604,418,190,565,442,320,0,
2,1774544967904,1244,12093,14716,-5931501,665843,-1927890,0,0,0,236,182,93,290,279,224,208,105,124,130,86,229,0,
1,1774544967920,-536,-14,10289,252898,-97738,19547,0,0,0,86,31,43,286,135,267,581,370,199,531,389,322,0,
2,1774544967920,1517,7374,10040,-5628512,735481,-1683544,0,0,0,232,186,97,280,278,219,204,104,125,129,86,228,0,
1,1774544967936,-559,-38,10270,267558,-123394,34208,0,0,0,93,39,49,272,142,262,567,353,195,498,325,317,0,
2,1774544967936,1598,5853,6872,-5099503,934623,-1600466,0,0,0,239,185,98,271,273,210,196,102,119,137,94,232,0,
1,1774544967952,-603,-62,10145,278554,-131946,41538,0,0,0,118,51,67,281,143,276,535,327,202,480,276,337,0,
2,1774544967952,607,5814,6915,-5131268,1248608,-1501506,0,0,0,240,182,97,276,265,212,204,96,118,144,90,233,0,
1,1774544967968,-646,-105,9992,295658,-122173,41538,0,0,0,94,20,56,299,125,295,523,256,217,424,207,382,0,
2,1774544967968,-4,5417,8767,-5621181,1215621,-1200961,0,0,0,225,180,107,280,263,224,206,98,131,138,88,234,0,
1,1774544967984,-674,-181,9901,305432,-81855,35430,0,0,0,79,12,51,286,117,283,505,245,218,370,198,368,0,
2,1774544967984,713,4795,10375,-6096435,1115439,-828333,0,0,0,223,179,129,262,256,234,221,136,153,131,93,246,0,
1,1774544968000,-674,-253,9834,295658,-34208,31764,0,0,0,91,26,62,279,121,323,457,194,239,330,174,425,0,
2,1774544968000,2148,4154,11825,-6568023,1380555,-404392,0,0,0,226,180,121,271,265,212,230,131,147,129,85,248,0,
1,1774544968016,-636,-296,9844,270002,0,29321,0,0,0,75,28,47,286,137,275,482,169,207,323,159,406,0,
2,1774544968016,2541,3206,13682,-7045719,2098932,50090,0,0,0,222,174,126,270,265,219,163,80,110,131,88,251,0,
1,1774544968032,-593,-330,9925,248011,-1221,28099,0,0,0,93,53,69,311,145,309,470,156,223,328,153,435,0,
2,1774544968032,2397,1789,16171,-7512420,2646268,558330,0,0,0,217,172,127,270,251,228,225,133,172,127,75,254,0,
1,1774544968048,-607,-378,10007,233350,-18325,32986,0,0,0,119,50,73,318,151,342,456,157,238,311,134,474,0,
2,1774544968048,2584,205,19305,-7860613,2671924,1095892,0,0,0,219,164,115,262,238,206,223,120,137,127,72,236,0,
1,1774544968064,-693,-416,10059,227241,-23212,50090,0,0,0,126,76,73,310,193,356,439,158,235,279,153,511,0,
2,1774544968064,3172,-875,22450,-8053647,2533869,1554041,0,0,0,220,156,128,253,220,199,194,86,139,127,61,241,0,
1,1774544968080,-741,-445,10145,251676,14660,80634,0,0,0,146,90,73,341,216,366,427,149,227,281,154,516,0,
2,1774544968080,4063,-2144,26580,-8170933,2483778,2015855,0,0,0,221,156,121,249,218,193,200,100,139,119,58,236,0,
1,1774544968096,-626,-469,10375,332310,47647,109955,0,0,0,174,100,76,355,231,385,401,138,235,280,147,551,0,
2,1774544968096,5058,-5790,31146,-8327314,2593733,2531425,0,0,0,225,161,120,255,220,198,210,115,127,118,60,240,0,
1,1774544968112,-574,-478,10725,521678,23212,118507,0,0,0,206,112,75,375,236,393,385,126,239,289,137,578,0,
2,1774544968112,5876,-12519,34036,-8383514,2801427,2987131,0,0,0,231,164,131,270,226,213,244,113,123,120,59,241,0,
1,1774544968128,-765,-564,10973,734260,-26878,134390,0,0,0,245,142,79,399,240,386,375,123,234,306,142,576,0,
2,1774544968128,5690,-24642,34127,-7926587,3349984,3218038,0,0,0,237,168,131,278,231,224,255,103,139,131,63,238,0,
1,1774544968144,-1186,-751,11395,967610,-123394,200363,0,0,0,300,198,97,385,253,385,342,126,231,303,164,589,0,
2,1774544968144,3565,-39865,28891,-6548475,3755599,2794097,0,0,0,242,173,124,276,228,222,265,89,154,148,66,239,0,
1,1774544968160,-775,-741,12548,1265712,-194255,280998,0,0,0,350,227,108,371,251,391,302,119,235,309,160,604,0,
2,1774544968160,-713,-49193,20851,-4261395,3690847,1546710,0,0,0,240,171,116,267,218,208,282,96,150,155,69,232,0,
1,1774544968176,-483,-636,13658,1687209,-68416,280998,0,0,0,298,197,89,378,256,397,243,114,259,350,183,569,0,
2,1774544968176,-8920,-50399,15506,-1794722,3268129,0,0,0,0,219,165,93,253,212,192,282,169,138,189,132,215,0,
1,1774544968192,-713,-660,14017,2324953,279776,250454,0,0,0,305,214,97,369,275,417,191,114,267,343,207,544,0,
2,1774544968192,-18487,-45790,18013,97738,1703092,-891863,0,0,0,183,150,78,254,208,172,394,312,133,329,314,193,0,
1,1774544968208,-981,-856,13854,2869844,614530,257785,0,0,0,309,209,115,335,256,433,165,89,278,329,194,517,0,
2,1774544968208,-13323,-23838,18669,2619390,-2073276,-690277,0,0,0,184,127,71,292,219,197,423,456,130,391,560,193,0,
1,1774544968224,-1115,-827,15305,3435506,899193,304210,0,0,0,286,213,100,311,277,418,128,78,269,311,192,501,0,
2,1774544968224,-1426,1698,12438,5478239,-5219232,-136833,0,0,0,207,136,71,327,258,264,498,611,180,551,643,195,0,
1,1774544968240,-1507,-339,18789,4410447,1131322,383623,0,0,0,238,240,99,311,316,447,143,117,294,260,200,480,0,
2,1774544968240,1335,5393,14319,7381695,-4623028,618195,0,0,0,268,165,89,309,266,247,596,685,210,632,709,250,0,
1,1774544968256,-2522,129,21962,5979148,1495398,569326,0,0,0,200,255,98,294,325,459,125,119,273,221,194,459,0,
2,1774544968256,-4479,-3402,22828,6880786,-1426981,569326,0,0,0,307,191,108,301,246,245,651,677,200,680,700,283,0,
1,1774544968272,-2163,172,29360,7825183,2053728,784350,0,0,0,131,193,93,253,303,415,111,105,235,180,180,441,0,
2,1774544968272,-3402,-5096,23914,5067738,454483,-101403,0,0,0,335,201,127,285,220,247,653,650,189,688,675,322,0,
1,1774544968288,-1158,-976,39607,9668775,2321287,686612,0,0,0,76,108,77,225,238,341,127,104,189,166,159,367,0,
2,1774544968288,904,-2072,17650,2940705,593761,-197920,0,0,0,349,204,143,285,229,260,683,644,225,684,646,329,0,
1,1774544968304,-2900,-799,41622,10957700,1792278,513126,0,0,0,38,40,47,210,145,252,145,85,145,174,111,274,0,
2,1774544968304,1871,-43,11318,1447750,287106,103847,0,0,0,353,206,166,296,238,275,702,636,245,697,634,343,0,
1,1774544968320,-6149,6360,36515,11329106,520457,689055,0,0,0,16,4,27,215,79,210,156,57,134,193,66,233,0,
2,1774544968320,670,-368,9652,962723,102625,235793,0,0,0,356,207,200,311,237,297,711,626,253,707,625,366,0,
1,1774544968336,-7279,16338,24441,10800097,-112399,1314581,0,0,0,18,7,31,232,82,239,159,59,151,200,67,246,0,
2,1774544968336,507,-837,10504,642630,-47647,112399,0,0,0,370,210,209,315,239,314,722,605,254,697,606,374,0,
1,1774544968352,-5766,18401,10457,8233241,171042,1749518,0,0,0,20,9,25,202,95,218,136,61,132,165,71,224,0,
2,1774544968352,631,-550,10830,310319,-189368,10995,0,0,0,388,217,183,308,236,305,712,560,225,682,589,374,0,
1,1774544968368,-2718,16400,7753,2560747,651182,1704314,0,0,0,31,11,17,206,95,202,137,50,117,154,60,200,0,
2,1774544968368,641,0,10433,138055,-224798,-10995,0,0,0,383,231,194,314,241,293,715,545,256,657,563,375,0,
1,1774544968384,-1660,12002,12404,-2564412,500909,1297477,0,0,0,25,0,18,203,76,197,143,46,118,170,57,215,0,
2,1774544968384,536,47,10251,184481,-178372,-10995,0,0,0,387,218,190,306,235,308,661,453,250,642,524,364,0,
1,1774544968400,-2215,7116,12141,-4477642,-92851,875980,0,0,0,18,0,27,192,79,210,141,52,130,166,61,231,0,
2,1774544968400,512,-33,10318,262672,-144164,-25656,0,0,0,398,225,234,316,250,316,653,437,235,610,458,380,0,
1,1774544968416,-1971,5532,7623,-3905872,-619417,730594,0,0,0,31,12,26,192,76,194,144,49,119,166,58,213,0,
2,1774544968416,555,-90,10232,272445,-149051,-36651,0,0,0,387,232,183,303,241,285,644,405,267,573,421,373,0,
1,1774544968432,-770,5230,5738,-3848451,-850324,671951,0,0,0,32,10,29,188,75,189,143,53,123,167,65,212,0,
2,1774544968432,579,-134,10021,240680,-156381,-40317,0,0,0,382,220,210,294,243,278,598,387,264,527,386,373,0,
1,1774544968448,679,5106,6283,-4438546,-890641,568104,0,0,0,29,10,28,188,78,187,146,54,119,171,65,214,0,
2,1774544968448,564,-162,9911,212581,-162490,-43982,0,0,0,379,219,230,315,273,314,588,351,255,496,377,388,0,
1,1774544968464,751,4618,7609,-5120272,-910189,410501,0,0,0,34,11,28,182,80,180,144,60,116,168,72,212,0,
2,1774544968464,536,-186,9906,223576,-168598,-51312,0,0,0,378,229,248,322,282,332,570,280,255,467,341,438,0,
1,1774544968480,335,4120,8863,-5630955,-1091005,304210,0,0,0,36,12,26,188,78,178,151,57,112,172,70,209,0,
2,1774544968480,478,-229,9853,235793,-174707,-51312,0,0,0,381,223,245,333,275,345,564,234,261,449,287,444,0,
1,1774544968496,196,3565,10308,-6063448,-1492954,267558,0,0,0,36,5,24,203,72,176,172,52,111,190,65,206,0,
2,1774544968496,421,-277,9858,235793,-164933,-40317,0,0,0,398,249,247,374,314,356,568,226,280,437,263,455,0,
1,1774544968512,703,2737,12031,-6508158,-1890017,245567,0,0,0,27,0,25,200,71,177,169,51,112,188,64,207,0,
2,1774544968512,411,-301,9964,237015,-138055,-26878,0,0,0,434,280,251,396,355,393,570,225,290,415,256,492,0,
1,1774544968528,1153,1608,14122,-6965085,-2064724,178372,0,0,0,24,5,28,189,71,177,153,51,117,175,63,213,0,
2,1774544968528,425,-344,10026,252898,-112399,-24434,0,0,0,462,299,246,377,359,431,557,208,278,383,229,534,0,
1,1774544968544,1115,397,16396,-7323052,-1927890,52534,0,0,0,37,15,27,193,66,173,160,51,121,183,62,215,0,
2,1774544968544,445,-382,10083,288328,-89186,-30543,0,0,0,469,321,243,366,352,419,532,183,269,353,175,558,0,
1,1774544968560,425,-804,19262,-7536855,-1673770,-140499,0,0,0,35,13,22,194,67,174,172,50,114,191,61,207,0,
2,1774544968560,454,-411,10203,345749,-69638,-40317,0,0,0,509,326,247,395,370,418,532,176,283,324,136,567,0,
1,1774544968576,-402,-2359,22737,-7712784,-1578475,-390953,0,0,0,28,0,14,207,70,171,189,49,110,201,60,205,0,
2,1774544968576,449,-459,10318,422718,-43982,-53756,0,0,0,531,339,221,424,421,469,517,140,276,307,131,613,0,
1,1774544968592,-1086,-5163,26293,-7987673,-1756848,-745255,0,0,0,32,0,19,207,66,172,191,50,111,202,61,212,0,
2,1774544968592,392,-492,10442,485026,-13439,-61086,0,0,0,539,358,203,408,413,461,478,179,276,265,93,635,0,
1,1774544968608,-1306,-10787,29772,-8318762,-2322509,-1321912,0,0,0,39,8,24,206,66,181,192,46,117,203,62,212,0,
2,1774544968608,378,-531,10624,563217,12217,-65973,0,0,0,566,406,202,453,423,519,467,135,299,222,50,684,0,
1,1774544968624,-622,-18497,31945,-8381071,-2996904,-1955990,0,0,0,20,0,22,177,78,172,166,59,123,163,62,199,0,
2,1774544968624,521,-660,10993,709825,28099,-72082,0,0,0,629,369,222,476,458,532,418,119,310,181,8,706,0,
1,1774544968640,-765,-30332,30442,-7929030,-3139847,-2399478,0,0,0,33,15,21,183,74,183,160,54,120,156,58,190,0,
2,1774544968640,914,-794,11988,971275,70860,-90408,0,0,0,648,366,210,464,460,540,409,179,341,128,20,706,0,
1,1774544968656,-3125,-42230,24311,-6809925,-2844188,-2207666,0,0,0,26,4,16,183,74,178,167,59,123,162,63,192,0,
2,1774544968656,1124,-689,13854,1532050,149051,-175929,0,0,0,663,363,204,477,471,544,334,153,314,112,14,714,0,
1,1774544968672,-2230,-50413,16176,-4354247,-3340211,-566882,0,0,0,7,0,16,168,105,161,186,123,129,153,73,175,0,
2,1774544968672,540,-454,14859,2294409,-70860,-208915,0,0,0,675,386,208,466,469,537,256,108,268,121,25,729,0,
1,1774544968688,7599,-53246,13634,-1984090,-4006054,1254717,0,0,0,0,0,6,157,97,123,237,245,103,187,211,122,0,
2,1774544968688,406,-603,14821,2888170,-368962,-175929,0,0,0,675,413,204,460,469,535,227,120,254,130,38,726,0,
1,1774544968704,24489,-43493,16774,785572,-1977981,1882686,0,0,0,0,0,0,167,98,101,313,355,84,282,343,102,0,
2,1774544968704,1052,-765,15697,3490483,-521678,-206472,0,0,0,658,418,195,454,469,511,222,139,243,133,52,691,0,
1,1774544968720,16506,-12500,12342,3998723,2494773,357967,0,0,0,0,0,0,180,108,100,360,452,87,382,465,114,0,
2,1774544968720,1698,-488,18286,4445877,-646295,-323758,0,0,0,612,430,194,443,479,481,204,118,219,135,72,643,0,
1,1774544968736,2182,6235,13122,6873455,4200309,-864985,0,0,0,0,0,0,192,104,128,392,532,113,464,577,145,0,
2,1774544968736,2627,-14,22249,5847202,-949284,-514348,0,0,0,525,453,188,450,503,485,189,103,208,143,75,595,0,
1,1774544968752,-794,-19,23081,7259522,2025629,-676838,0,0,0,8,0,6,214,94,176,454,568,149,533,605,187,0,
2,1774544968752,3474,282,28375,7481877,-1631010,-775798,0,0,0,443,399,153,437,465,457,212,132,195,147,50,517,0,
1,1774544968768,1732,-4972,25364,5033529,76969,84299,0,0,0,32,1,22,227,95,188,515,575,155,579,585,210,0,
2,1774544968768,3412,-459,36745,9154426,-2480112,-954171,0,0,0,386,302,125,383,351,356,197,89,167,149,46,406,0,
1,1774544968784,229,-3460,19530,2757445,-520457,234572,0,0,0,46,7,27,248,103,212,572,544,157,605,542,232,0,
2,1774544968784,4943,-57,40258,10421360,-2656042,-873537,0,0,0,297,219,129,338,277,308,165,76,121,134,49,320,0,
1,1774544968800,-1665,-90,11485,1274264,-294437,-100181,0,0,0,40,0,28,265,105,205,610,523,169,590,515,224,0,
2,1774544968800,7217,6503,37731,11274128,-1919338,-882089,0,0,0,259,227,118,250,281,253,174,85,121,124,92,277,0,
1,1774544968816,-1277,191,9547,869872,-95294,-185703,0,0,0,29,7,32,265,118,227,611,516,168,602,512,227,0,
2,1774544968816,8748,18047,27207,11418293,-884532,-1174082,0,0,0,253,211,127,268,294,265,187,105,146,121,91,270,0,
1,1774544968832,-770,-220,10136,634078,28099,-97738,0,0,0,38,7,33,242,111,229,600,470,196,579,505,236,0,
2,1774544968832,9456,21684,12974,8544782,9773,-1657888,0,0,0,239,185,114,282,270,254,187,97,131,114,80,257,0,
1,1774544968848,-631,-248,10772,399505,127059,-10995,0,0,0,52,4,39,271,115,242,608,439,204,573,494,253,0,
2,1774544968848,6331,21909,9088,2073276,1257160,-2078163,0,0,0,229,175,109,284,253,239,197,97,130,118,92,253,0,
1,1774544968864,-722,95,10356,288328,163711,-2443,0,0,0,79,27,53,289,130,266,618,427,220,552,488,289,0,
2,1774544968864,1000,16472,14323,-3683517,1470963,-1787391,0,0,0,231,176,110,280,253,233,203,117,132,129,95,257,0,
1,1774544968880,-665,124,10174,285884,140499,7330,0,0,0,80,41,55,272,145,263,591,406,218,528,468,284,0,
2,1774544968880,114,10758,13438,-5347514,1064127,-1307251,0,0,0,246,175,109,295,252,237,219,117,108,157,86,260,0,
1,1774544968896,-588,52,10313,289550,86742,30543,0,0,0,143,87,100,263,141,249,574,352,193,493,382,277,0,
2,1774544968896,1780,7063,7872,-4763527,1077566,-1003040,0,0,0,239,173,110,294,260,242,214,102,102,149,75,257,0,
1,1774544968912,-593,33,10323,278554,68416,42760,0,0,0,194,105,117,260,132,244,538,289,184,436,307,285,0,
2,1774544968912,947,6915,6322,-4587597,1875356,-1014036,0,0,0,221,171,109,277,268,234,188,93,118,119,69,256,0,
1,1774544968928,-579,14,10145,274889,63529,40317,0,0,0,166,76,84,270,134,250,498,247,197,394,263,306,0,
2,1774544968928,-942,6834,7772,-5092172,2272418,-908967,0,0,0,222,168,104,281,262,219,188,100,124,123,72,257,0,
1,1774544968944,-526,-14,10016,287106,42760,25656,0,0,0,126,56,59,290,145,256,485,230,202,375,221,337,0,
2,1774544968944,-1502,6149,9992,-5798332,2003637,-634078,0,0,0,223,166,108,290,262,225,206,125,136,129,76,250,0,
1,1774544968960,-579,-90,9987,305432,15882,12217,0,0,0,115,50,46,273,153,243,451,226,198,341,207,352,0,
2,1774544968960,-291,4953,11505,-6318790,1743409,-305432,0,0,0,231,166,111,297,262,237,214,132,158,122,67,245,0,
1,1774544968976,-655,-153,10021,328645,24434,24434,0,0,0,108,36,50,275,149,250,423,219,211,334,178,368,0,
2,1774544968976,780,3670,12936,-6707300,1913229,-9773,0,0,0,227,168,108,283,254,217,206,136,123,126,75,239,0,
1,1774544968992,-579,-191,10059,381179,42760,48869,0,0,0,162,61,66,331,160,291,382,190,210,325,170,408,0,
2,1774544968992,847,2646,14869,-6967528,2349387,223576,0,0,0,220,198,138,293,248,237,210,136,136,126,76,253,0,
1,1774544969008,-492,-248,10107,433714,28099,57421,0,0,0,211,112,99,290,164,307,353,191,229,266,163,432,0,
2,1774544969008,775,1727,17219,-7236309,2618168,478918,0,0,0,222,163,125,282,254,223,208,138,134,130,71,238,0,
1,1774544969024,-497,-320,10174,483805,4886,58643,0,0,0,188,102,80,293,228,310,364,167,212,279,162,451,0,
2,1774544969024,894,842,20062,-7522194,2670702,834441,0,0,0,215,149,104,281,262,230,195,113,129,115,63,228,0,
1,1774544969040,-579,-373,10351,563217,-1221,65973,0,0,0,297,177,131,314,204,318,339,140,225,264,137,475,0,
2,1774544969040,1397,4,23230,-7776314,2585181,1329242,0,0,0,215,143,102,279,250,217,212,116,118,119,63,234,0,
1,1774544969056,-698,-454,10533,680503,7330,90408,0,0,0,273,174,112,327,247,348,344,141,224,286,154,502,0,
2,1774544969056,2105,-1330,26929,-8026769,2557081,1930334,0,0,0,217,145,102,264,225,191,195,97,99,115,45,231,0,
1,1774544969072,-804,-622,10691,836885,57421,141720,0,0,0,340,202,122,333,223,340,318,128,211,292,145,509,0,
2,1774544969072,2885,-5254,30992,-8258898,2690250,2747671,0,0,0,220,143,103,268,226,204,200,94,127,121,42,231,0,
1,1774544969088,-789,-760,10973,1012814,114842,200363,0,0,0,365,214,122,358,217,344,297,116,202,292,143,526,0,
2,1774544969088,3441,-12481,33850,-8267450,2965139,3430619,0,0,0,223,145,107,266,226,206,212,78,123,117,52,233,0,
1,1774544969104,-655,-842,11284,1235169,146607,257785,0,0,0,428,264,147,366,226,373,260,113,209,292,137,541,0,
2,1774544969104,3905,-25924,34204,-7792196,3226590,3677408,0,0,0,228,148,110,261,221,203,219,77,122,115,54,236,0,
1,1774544969120,-430,-904,11505,1469741,124616,282219,0,0,0,436,284,141,375,263,397,226,118,231,311,154,532,0,
2,1774544969120,4111,-43426,27915,-6345668,3021339,2839301,0,0,0,231,153,111,265,221,216,215,92,135,119,45,242,0,
1,1774544969136,-402,-990,11969,1738522,136833,279776,0,0,0,395,284,113,373,327,395,193,120,250,319,190,524,0,
2,1774544969136,67,-53687,19454,-3973067,3037221,1171639,0,0,0,224,159,110,265,223,222,228,108,138,134,65,238,0,
1,1774544969152,-555,-1129,12457,2103819,267558,273667,0,0,0,466,381,159,319,356,387,132,109,246,279,194,543,0,
2,1774544969152,-12447,-51873,15998,-1308473,2736676,-453262,0,0,0,203,150,101,263,216,207,328,192,162,211,177,212,0,
1,1774544969168,-555,-1340,12534,2492330,515570,280998,0,0,0,543,462,220,298,330,410,102,90,230,251,173,559,0,
2,1774544969168,-18152,-44230,19717,678060,678060,-1036027,0,0,0,180,134,81,241,176,160,430,382,104,357,414,183,0,
1,1774544969184,-545,-1459,13912,2988352,812450,290771,0,0,0,548,438,215,319,375,416,99,79,234,257,163,555,0,
2,1774544969184,-8671,-18032,17932,3374419,-3342654,-1026253,0,0,0,164,127,76,289,226,188,507,520,164,478,550,176,0,
1,1774544969200,-354,-1450,17329,3865555,1165530,315206,0,0,0,482,461,169,360,391,386,119,108,213,312,198,495,0,
2,1774544969200,2699,4029,12285,6117204,-5501452,-257785,0,0,0,188,155,66,305,277,226,649,656,167,559,649,193,0,
1,1774544969216,-684,-1416,21655,4940678,1596801,311541,0,0,0,240,311,87,389,433,440,139,138,275,268,214,463,0,
2,1774544969216,603,2684,17190,7465994,-3962071,767246,0,0,0,253,166,93,291,237,224,687,689,157,645,697,273,0,
1,1774544969232,-2550,-1177,27819,6320011,1943773,399505,0,0,0,154,261,78,317,397,406,114,119,233,234,194,451,0,
2,1774544969232,-5599,-4828,24221,6757391,-1014036,857654,0,0,0,327,190,116,305,234,253,687,703,214,665,683,297,0,
1,1774544969248,-2498,-789,35295,8328536,2304183,634078,0,0,0,124,175,95,257,248,384,118,94,210,199,162,419,0,
2,1774544969248,-2287,-3948,21928,4426329,354301,46425,0,0,0,328,190,135,293,223,263,703,688,244,667,663,328,0,
1,1774544969264,-1962,-636,39750,10268644,2531425,647517,0,0,0,88,85,87,211,162,317,135,90,199,157,114,347,0,
2,1774544969264,1598,-1091,15529,2439795,455705,-144164,0,0,0,332,209,186,287,225,289,740,680,265,682,654,380,0,
1,1774544969280,-4527,2421,39004,11222816,1463633,630412,0,0,0,40,28,45,198,107,228,147,70,145,167,78,264,0,
2,1774544969280,1698,-253,11002,1357342,156381,117286,0,0,0,339,211,218,290,235,318,747,660,278,699,651,392,0,
1,1774544969296,-6049,10945,33304,11216707,248011,982271,0,0,0,17,5,17,206,87,188,152,58,113,186,73,226,0,
2,1774544969296,770,-689,10126,831998,-68416,204028,0,0,0,344,198,237,304,242,335,737,638,293,705,643,380,0,
1,1774544969312,-6058,17592,17166,9823934,250454,1485624,0,0,0,14,0,14,203,83,180,149,57,109,184,75,218,0,
2,1774544969312,492,-746,10758,483805,-239459,78190,0,0,0,357,210,279,321,247,350,754,634,326,703,624,403,0,
1,1774544969328,-5264,16836,6389,5276653,725707,1549154,0,0,0,27,0,17,208,74,173,157,55,107,187,69,212,0,
2,1774544969328,641,-143,10595,222354,-299323,-4886,0,0,0,358,208,277,321,252,347,754,602,337,687,594,412,0,
1,1774544969344,-3144,12802,11055,-744033,21991,994488,0,0,0,40,3,18,212,72,169,165,56,108,194,68,211,0,
2,1774544969344,646,129,10323,162490,-273667,-15882,0,0,0,372,199,223,337,265,331,729,534,319,662,566,396,0,
1,1774544969360,-1564,8030,13711,-4097684,-718377,388510,0,0,0,28,9,24,181,84,172,147,63,114,174,78,214,0,
2,1774544969360,583,62,10303,233350,-228463,-17104,0,0,0,373,208,218,309,230,350,659,437,309,640,524,424,0,
1,1774544969376,-1119,5522,9715,-3984063,-861319,75747,0,0,0,30,12,22,186,84,180,147,63,111,179,77,210,0,
2,1774544969376,574,-19,10299,277332,-210137,-26878,0,0,0,383,202,225,316,236,327,686,387,245,630,473,432,0,
1,1774544969392,-416,4938,6168,-3556457,-741590,-21991,0,0,0,25,9,22,187,84,172,144,65,109,174,76,206,0,
2,1774544969392,583,-57,10131,254119,-190589,-32986,0,0,0,381,212,209,324,255,322,662,343,259,586,415,424,0,
1,1774544969408,617,5092,5719,-3769038,-564439,-26878,0,0,0,30,14,23,190,81,170,148,64,103,178,75,198,0,
2,1774544969408,574,-57,10002,227241,-150272,-35430,0,0,0,368,204,232,314,243,340,615,302,248,527,382,438,0,
1,1774544969424,871,4757,6733,-4406781,-540004,-19547,0,0,0,34,14,19,197,87,170,145,60,98,178,75,199,0,
2,1774544969424,574,-62,9978,239459,-127059,-41538,0,0,0,367,224,202,321,271,355,595,267,278,471,335,438,0,
1,1774544969440,507,4240,7748,-5050633,-709825,58643,0,0,0,17,1,20,179,77,183,141,57,122,163,72,209,0,
2,1774544969440,559,-119,9906,261450,-134390,-37873,0,0,0,372,214,196,334,275,379,577,247,289,448,308,451,0,
1,1774544969456,95,3665,8925,-5622403,-1100779,232128,0,0,0,26,9,29,182,79,187,144,61,119,168,70,220,0,
2,1774544969456,526,-196,9858,266337,-136833,-30543,0,0,0,391,239,205,360,282,414,555,223,296,420,272,492,0,
1,1774544969472,555,2948,10753,-6247929,-1554041,427605,0,0,0,31,7,23,186,78,170,160,59,110,189,75,210,0,
2,1774544969472,507,-248,9911,265115,-131946,-29321,0,0,0,411,268,228,394,303,430,543,194,300,392,220,507,0,
1,1774544969488,1363,2086,12720,-6842912,-1784948,529009,0,0,0,29,8,22,181,80,163,155,59,106,182,76,206,0,
2,1774544969488,507,-296,9992,283441,-131946,-35430,0,0,0,438,278,228,424,336,440,549,168,296,388,171,507,0,
1,1774544969504,1574,971,14539,-7288844,-1745852,496022,0,0,0,33,7,19,189,78,165,159,59,112,186,72,210,0,
2,1774544969504,497,-339,10050,321315,-128281,-47647,0,0,0,467,284,193,436,363,444,548,154,279,390,146,537,0,
1,1774544969520,985,-248,16630,-7509977,-1670105,340862,0,0,0,29,4,22,184,73,189,156,56,133,182,70,229,0,
2,1774544969520,459,-363,10074,359188,-107512,-56199,0,0,0,486,294,187,437,366,422,516,150,259,361,133,578,0,
1,1774544969536,425,-1397,19765,-7610159,-1701870,87964,0,0,0,26,2,23,178,72,191,150,53,131,173,68,226,0,
2,1774544969536,473,-411,10141,382401,-65973,-58643,0,0,0,526,307,194,436,370,454,507,141,285,335,100,600,0,
1,1774544969552,268,-3134,23708,-7784866,-1810604,-267558,0,0,0,34,5,17,187,73,163,156,52,104,182,67,206,0,
2,1774544969552,540,-449,10327,410501,-35430,-64751,0,0,0,541,350,190,453,423,527,478,107,288,257,101,648,0,
1,1774544969568,191,-6872,27915,-8195368,-2018298,-799011,0,0,0,33,12,21,181,71,167,152,53,110,178,67,215,0,
2,1774544969568,583,-483,10629,497244,-34208,-81855,0,0,0,575,372,194,476,426,518,447,136,301,220,111,663,0,
1,1774544969584,440,-12285,30222,-8604647,-2384817,-1352455,0,0,0,30,12,28,176,74,179,154,57,122,169,66,220,0,
2,1774544969584,717,-607,10902,643851,-31764,-97738,0,0,0,604,350,191,485,438,532,429,136,301,180,24,679,0,
