sole_id,timestamp,accel_x,accel_y,accel_z,gyro_x,gyro_y,gyro_z,magn_x,magn_y,magn_z,pressure_01,pressure_02,pressure_03,pressure_04,pressure_05,pressure_06,pressure_07,pressure_08,pressure_09,pressure_10,pressure_11,pressure_12,corrupt,concrete
1,1774544768144,81,598,9959,-1221,-48869,8552,0,0,0,178,223,134,229,203,228,434,407,190,360,314,266,0,
2,1774544768144,1373,47,9873,1221,-52534,-10995,0,0,0,386,254,155,395,330,358,633,336,251,411,273,396,0,
1,1774544768160,81,598,9959,-2443,-50090,6108,0,0,0,186,208,126,241,196,221,442,408,191,357,304,246,0,
2,1774544768160,1373,52,9868,0,-50090,-8552,0,0,0,391,237,165,406,305,385,626,319,250,413,269,401,0,
1,1774544768176,81,593,9959,0,-51312,1221,0,0,0,191,214,136,232,179,222,448,399,191,357,290,240,0,
2,1774544768176,1359,52,9863,0,-50090,-9773,0,0,0,384,235,150,443,328,399,612,302,201,409,255,391,0,
1,1774544768192,81,593,9968,-1221,-54977,1221,0,0,0,76,98,67,251,188,237,459,402,199,367,301,252,0,
2,1774544768192,1354,52,9868,0,-51312,-10995,0,0,0,379,261,156,423,359,388,653,350,279,427,274,411,0,
1,1774544768208,71,598,9978,-1221,-54977,2443,0,0,0,42,63,39,262,193,233,472,405,198,371,299,247,0,
2,1774544768208,1354,57,9877,-1221,-50090,-10995,0,0,0,379,246,161,386,288,335,641,342,258,418,260,395,0,
1,1774544768224,67,598,9983,-4886,-54977,4886,0,0,0,51,65,39,269,190,230,481,400,192,374,286,245,0,
2,1774544768224,1354,57,9882,-3665,-47647,-9773,0,0,0,371,213,153,381,284,350,605,314,219,422,262,380,0,
1,1774544768240,67,598,9983,-7330,-53756,4886,0,0,0,50,57,37,268,184,228,448,379,195,373,276,246,0,
2,1774544768240,1354,67,9887,-8552,-46425,-9773,0,0,0,364,202,167,385,276,364,632,366,266,416,276,377,0,
1,1774544768256,62,598,9983,-13439,-51312,4886,0,0,0,55,63,45,252,172,218,420,369,197,364,266,233,0,
2,1774544768256,1349,71,9882,-12217,-45204,-8552,0,0,0,355,208,172,397,290,377,640,378,276,413,275,378,0,
1,1774544768272,52,598,9983,-20769,-48869,4886,0,0,0,73,78,58,238,158,214,468,396,189,356,254,225,0,
2,1774544768272,1349,76,9873,-15882,-42760,-8552,0,0,0,345,206,170,382,279,360,628,346,256,415,268,381,0,
1,1774544768288,52,603,9978,-30543,-46425,4886,0,0,0,79,83,62,237,159,227,458,396,200,355,255,235,0,
2,1774544768288,1359,76,9868,-21991,-41538,-8552,0,0,0,329,199,161,371,278,340,608,313,208,415,273,369,0,
1,1774544768304,67,607,9973,-39095,-43982,2443,0,0,0,88,90,66,232,145,211,449,382,179,354,244,217,0,
2,1774544768304,1363,81,9873,-28099,-40317,-8552,0,0,0,324,208,153,374,294,333,599,315,176,410,276,341,0,
1,1774544768320,71,617,9973,-45204,-42760,2443,0,0,0,77,85,64,231,131,212,454,384,181,361,238,223,0,
2,1774544768320,1363,95,9897,-30543,-40317,-7330,0,0,0,331,218,156,369,286,318,616,341,207,417,285,328,0,
1,1774544768336,62,622,9973,-52534,-41538,2443,0,0,0,67,98,60,234,151,206,450,398,164,358,266,227,0,
2,1774544768336,1363,105,9897,-26878,-39095,-7330,0,0,0,326,208,156,362,275,301,622,346,220,427,301,329,0,
1,1774544768352,62,622,9973,-58643,-40317,2443,0,0,0,90,98,46,256,157,202,450,406,168,366,274,216,0,
2,1774544768352,1363,110,9887,-25656,-37873,-8552,0,0,0,327,212,162,330,247,276,611,333,204,418,280,314,0,
1,1774544768368,67,631,9968,-62308,-40317,2443,0,0,0,59,93,43,233,160,202,450,403,173,356,258,210,0,
2,1774544768368,1359,114,9887,-28099,-36651,-6108,0,0,0,320,217,175,324,240,280,638,333,235,426,282,313,0,
1,1774544768384,76,646,9964,-69638,-43982,3665,0,0,0,62,100,42,231,164,204,457,403,185,368,278,210,0,
2,1774544768384,1359,119,9887,-34208,-35430,-4886,0,0,0,322,218,170,313,232,264,630,362,218,424,299,303,0,
1,1774544768400,67,655,9964,-80634,-47647,3665,0,0,0,58,99,39,227,159,195,464,404,187,384,278,218,0,
2,1774544768400,1359,129,9892,-42760,-35430,-4886,0,0,0,327,218,184,313,251,271,630,340,229,426,292,297,0,
1,1774544768416,57,670,9968,-87964,-48869,4886,0,0,0,27,65,22,230,160,196,462,397,177,385,287,209,0,
2,1774544768416,1378,143,9901,-48869,-37873,-4886,0,0,0,321,222,185,327,274,267,597,310,237,418,282,313,0,
1,1774544768432,57,693,9978,-91629,-50090,4886,0,0,0,9,41,22,228,158,224,457,393,205,378,287,217,0,
2,1774544768432,1387,157,9906,-50090,-41538,-6108,0,0,0,325,218,171,313,253,247,595,333,231,434,297,314,0,
1,1774544768448,57,713,9978,-94073,-51312,3665,0,0,0,4,34,26,225,159,241,447,395,229,380,293,228,0,
2,1774544768448,1392,172,9911,-48869,-47647,-6108,0,0,0,341,210,159,312,247,235,604,348,209,430,294,290,0,
1,1774544768464,57,737,9973,-94073,-56199,-1221,0,0,0,0,25,14,226,163,228,442,397,215,395,316,222,0,
2,1774544768464,1387,196,9920,-41538,-57421,-6108,0,0,0,345,225,159,329,292,251,602,362,231,425,300,303,0,
1,1774544768480,57,732,9959,-94073,-61086,-10995,0,0,0,0,19,11,224,158,225,461,398,215,405,319,219,0,
2,1774544768480,1383,205,9920,-34208,-64751,-6108,0,0,0,350,241,164,342,329,279,587,351,238,424,308,325,0,
1,1774544768496,57,727,9959,-107512,-68416,-19547,0,0,0,0,15,14,231,162,227,485,416,206,405,300,217,0,
2,1774544768496,1373,220,9906,-24434,-65973,-6108,0,0,0,353,241,164,331,322,289,567,329,232,416,301,336,0,
1,1774544768512,62,770,9959,-120951,-83077,-26878,0,0,0,0,13,0,222,159,207,474,410,205,393,287,222,0,
2,1774544768512,1373,224,9906,-12217,-67195,-6108,0,0,0,342,246,155,317,302,267,566,329,254,406,292,328,0,
1,1774544768528,62,818,9959,-119729,-98960,-32986,0,0,0,0,17,0,237,192,221,469,445,198,387,327,201,0,
2,1774544768528,1368,224,9930,1221,-65973,-8552,0,0,0,325,265,147,328,298,236,586,348,277,408,296,299,0,
1,1774544768544,52,847,9954,-102625,-118507,-35430,0,0,0,64,121,67,218,166,214,498,401,210,393,299,194,0,
2,1774544768544,1354,215,9940,13439,-64751,-8552,0,0,0,320,247,151,323,296,240,569,352,253,397,289,285,0,
1,1774544768560,28,885,9911,-67195,-131946,-35430,0,0,0,33,88,42,218,176,211,500,407,196,394,302,184,0,
2,1774544768560,1349,215,9964,21991,-61086,-10995,0,0,0,307,222,152,278,280,232,522,331,246,376,279,284,0,
1,1774544768576,4,918,9834,-18325,-141720,-30543,0,0,0,26,62,33,218,156,203,484,434,185,391,332,174,0,
2,1774544768576,1354,229,10040,35430,-52534,-13439,0,0,0,305,202,146,297,272,244,389,290,216,322,286,268,0,
1,1774544768592,-23,933,9763,40317,-144164,-26878,0,0,0,50,62,45,226,144,211,529,436,188,399,337,182,0,
2,1774544768592,1378,296,10155,74525,-43982,-17104,0,0,0,296,211,138,294,286,232,376,279,178,243,242,262,0,
1,1774544768608,-43,866,9791,101403,-144164,-18325,0,0,0,103,96,85,219,127,210,548,413,175,401,331,192,0,
2,1774544768608,1383,411,10270,185703,-29321,-17104,0,0,0,291,212,147,289,289,244,310,210,147,206,185,257,0,
1,1774544768624,-38,775,9868,118507,-153938,-7330,0,0,0,135,111,111,224,114,212,579,423,182,456,349,196,0,
2,1774544768624,1416,521,10547,356745,-14660,-17104,0,0,0,282,223,146,273,282,243,295,198,178,141,142,259,0,
1,1774544768640,-43,713,9930,94073,-171042,2443,0,0,0,143,102,115,246,112,222,635,453,196,509,375,205,0,
2,1774544768640,1349,421,11433,671951,-23212,-36651,0,0,0,280,208,154,252,260,221,283,162,189,140,120,274,0,
1,1774544768656,-71,737,9930,68416,-188146,8552,0,0,0,140,89,99,260,120,224,661,470,186,509,394,203,0,
2,1774544768656,942,315,13280,1182635,-100181,-30543,0,0,0,273,211,155,252,277,224,251,162,153,155,129,279,0,
1,1774544768672,-114,808,9983,74525,-191811,8552,0,0,0,98,58,60,274,130,235,661,498,180,521,423,182,0,
2,1774544768672,1574,1234,14036,1578475,-194255,36651,0,0,0,253,211,142,264,281,227,259,196,151,161,130,257,0,
1,1774544768688,-157,832,10122,102625,-171042,14660,0,0,0,64,36,65,304,119,269,670,523,197,524,421,198,0,
2,1774544768688,2129,3670,12802,1734857,-69638,-70860,0,0,0,244,206,134,264,263,204,259,187,162,156,115,234,0,
1,1774544768704,-191,813,10179,127059,-150272,21991,0,0,0,120,66,89,296,107,235,678,519,186,552,416,180,0,
2,1774544768704,1502,8384,11045,1529606,-206472,-251676,0,0,0,249,217,136,259,269,191,240,159,142,149,113,236,0,
1,1774544768720,-205,770,10122,134390,-139277,25656,0,0,0,114,72,114,251,115,241,672,512,191,527,422,191,0,
2,1774544768720,1871,12538,9485,1036027,-583987,-284663,0,0,0,245,216,133,258,267,201,264,166,147,154,121,243,0,
1,1774544768736,-220,737,10069,133168,-133168,28099,0,0,0,162,102,124,276,120,242,681,500,185,542,426,202,0,
2,1774544768736,2818,13591,8222,487470,-570548,-266337,0,0,0,239,216,130,252,249,208,258,170,160,147,122,238,0,
1,1774544768752,-215,693,10040,123394,-122173,28099,0,0,0,154,93,100,278,114,232,696,493,178,537,421,197,0,
2,1774544768752,2943,13663,7451,58643,-351858,-337197,0,0,0,239,213,136,280,272,223,235,191,148,140,116,230,0,
1,1774544768768,-220,665,10007,107512,-112399,26878,0,0,0,146,85,104,285,118,235,705,484,188,537,410,202,0,
2,1774544768768,2493,13385,7580,-296880,-179594,-439822,0,0,0,243,211,135,244,246,191,250,178,129,137,113,239,0,
1,1774544768784,-244,646,9973,94073,-95294,23212,0,0,0,135,77,101,292,125,246,681,486,191,507,407,208,0,
2,1774544768784,2148,12294,8413,-788016,-124616,-449596,0,0,0,240,195,128,234,236,191,220,133,133,145,105,233,0,
1,1774544768800,-258,626,9949,86742,-78190,23212,0,0,0,98,55,74,309,144,260,676,484,196,492,391,207,0,
2,1774544768800,2081,10313,9351,-1308473,-109955,-367740,0,0,0,247,194,148,270,259,230,265,189,150,154,113,247,0,
1,1774544768816,-272,617,9925,81855,-63529,26878,0,0,0,95,57,66,307,149,253,676,472,196,486,384,214,0,
2,1774544768816,2330,7748,10232,-1718974,-86742,-229685,0,0,0,245,189,131,293,282,240,271,179,152,151,104,242,0,
1,1774544768832,-282,612,9906,78190,-42760,28099,0,0,0,131,86,94,297,149,258,681,456,210,481,383,229,0,
2,1774544768832,2550,5374,11012,-1881464,-26878,-98960,0,0,0,252,190,137,283,253,205,249,150,123,153,97,232,0,
1,1774544768848,-268,598,9906,74525,-15882,29321,0,0,0,148,100,108,300,151,267,688,447,215,472,385,243,0,
2,1774544768848,2636,3469,11667,-1887573,2443,10995,0,0,0,251,192,131,302,258,197,255,144,122,89,44,206,0,
1,1774544768864,-239,579,9930,64751,4886,28099,0,0,0,159,98,100,317,149,259,689,440,193,462,384,248,0,
2,1774544768864,2761,1885,12132,-1793500,36651,101403,0,0,0,249,192,128,299,260,190,249,133,102,103,56,214,0,
1,1774544768880,-234,583,9968,62308,26878,28099,0,0,0,143,75,77,334,156,253,679,442,186,448,381,243,0,
2,1774544768880,2857,559,12376,-1726305,167377,158824,0,0,0,243,192,128,270,254,191,228,137,96,138,97,235,0,
1,1774544768896,-239,593,9992,74525,57421,28099,0,0,0,46,27,32,340,185,264,664,448,201,432,386,241,0,
2,1774544768896,2622,-459,12457,-1737300,377514,186924,0,0,0,237,194,130,259,259,211,214,139,110,125,97,239,0,
1,1774544768912,-205,583,10040,87964,90408,28099,0,0,0,49,40,33,344,203,286,669,399,195,424,366,235,0,
2,1774544768912,1880,-1387,12342,-1846034,513126,235793,0,0,0,240,195,137,258,262,205,221,131,107,126,95,240,0,
1,1774544768928,-196,583,10078,87964,135612,25656,0,0,0,37,56,38,305,213,293,634,376,219,391,344,254,0,
2,1774544768928,1072,-2498,11983,-1959655,496022,313984,0,0,0,241,192,134,251,254,184,253,172,138,125,96,238,0,
1,1774544768944,-162,540,10078,74525,199142,21991,0,0,0,43,91,50,311,277,323,597,376,227,424,330,322,0,
2,1774544768944,397,-4206,11457,-1874134,416610,390953,0,0,0,241,196,133,253,249,212,258,197,178,131,103,251,0,
1,1774544768960,-76,497,10074,58643,226020,14660,0,0,0,84,89,50,329,254,315,565,352,224,428,327,313,0,
2,1774544768960,-186,-5886,11055,-1627344,354301,403171,0,0,0,240,201,131,245,256,187,247,162,141,130,106,244,0,
1,1774544768976,-14,512,10112,50090,219911,9773,0,0,0,117,178,89,318,286,325,492,361,234,355,325,343,0,
2,1774544768976,-789,-7441,10686,-1357342,246789,348193,0,0,0,242,218,150,260,263,224,247,146,166,114,99,292,0,
1,1774544768992,23,521,10145,51312,191811,7330,0,0,0,139,186,112,304,281,343,451,345,229,335,293,355,0,
2,1774544768992,-1210,-8868,10098,-1226617,96516,262672,0,0,0,246,210,147,267,272,219,248,157,166,133,104,290,0,
1,1774544769008,33,492,10126,69638,153938,7330,0,0,0,139,196,96,307,316,348,419,329,225,302,273,380,0,
2,1774544769008,-1445,-10289,9461,-1051909,-9773,175929,0,0,0,249,204,139,274,270,214,264,163,162,136,97,272,0,
1,1774544769024,57,469,10126,105068,112399,8552,0,0,0,141,216,78,324,345,345,439,289,217,290,264,395,0,
2,1774544769024,-1545,-11447,9021,-693942,-68416,97738,0,0,0,255,203,138,274,260,216,271,168,144,147,104,274,0,
1,1774544769040,76,449,10208,174707,65973,9773,0,0,0,229,251,109,348,317,344,422,228,205,295,216,399,0,
2,1774544769040,-1574,-11730,8978,-141720,-129503,74525,0,0,0,254,206,137,284,275,221,298,188,155,154,108,279,0,
1,1774544769056,47,402,10323,272445,28099,20769,0,0,0,327,285,144,362,279,340,363,182,197,294,162,416,0,
2,1774544769056,-1507,-11304,9164,334754,-215024,134390,0,0,0,248,202,177,276,271,247,291,176,178,148,107,287,0,
1,1774544769072,-129,311,10514,432492,-10995,58643,0,0,0,370,314,155,342,265,332,314,160,198,275,152,439,0,
2,1774544769072,-1110,-10423,9495,777020,-366519,285884,0,0,0,224,189,209,256,249,258,258,168,184,158,129,269,0,
1,1774544769088,-335,282,10921,652404,0,129503,0,0,0,428,372,176,301,267,326,263,146,199,240,158,446,0,
2,1774544769088,263,-8059,10289,1192408,-415388,390953,0,0,0,194,178,198,252,238,249,240,198,172,208,182,241,0,
1,1774544769104,-272,263,11375,878424,131946,178372,0,0,0,457,406,125,321,317,312,233,149,172,264,172,447,0,
2,1774544769104,3024,2010,12151,1607797,387288,89186,0,0,0,189,176,183,254,235,248,236,214,150,258,224,247,0,
1,1774544769120,244,330,12050,1154535,362853,180816,0,0,0,408,345,119,370,326,360,245,146,208,285,192,461,0,
2,1774544769120,4173,9140,11457,1891238,888198,-652404,0,0,0,191,175,133,241,231,191,257,229,114,263,252,225,0,
1,1774544769136,478,301,12467,1430646,372627,146607,0,0,0,336,310,112,353,319,395,213,130,255,280,184,492,0,
2,1774544769136,4938,5245,9461,2372600,119729,-779464,0,0,0,196,169,193,256,224,231,264,250,139,265,298,255,0,
1,1774544769152,253,134,12577,1754404,343306,131946,0,0,0,388,350,124,337,351,369,182,134,225,260,193,488,0,
2,1774544769152,3589,-550,10672,2696359,-459370,30543,0,0,0,208,175,176,245,228,206,282,310,141,274,387,254,0,
1,1774544769168,43,-114,12452,2162462,408057,156381,0,0,0,425,383,147,315,330,368,158,121,246,244,183,490,0,
2,1774544769168,311,-1512,12179,2310292,-393397,477696,0,0,0,196,170,171,230,221,208,327,346,186,290,387,251,0,
1,1774544769184,320,-397,12098,2539977,511905,179594,0,0,0,456,372,132,314,318,336,134,106,214,277,196,463,0,x
2,1774544769184,-823,86,11768,1700648,-188146,73303,0,0,0,220,185,147,254,209,189,375,358,140,334,391,232,0,x
1,1774544769200,435,-670,12117,2871066,558330,185703,0,0,0,349,287,103,301,321,375,123,107,256,252,203,434,0,
2,1774544769200,1244,325,11079,1440420,-124616,-284663,0,0,0,225,189,131,255,242,224,394,380,163,333,387,245,0,
1,1774544769216,67,-885,13003,3207042,596204,215024,0,0,0,252,262,82,303,354,402,116,113,252,239,217,426,0,
2,1774544769216,2053,-320,11203,1238834,-68416,-207694,0,0,0,243,188,136,260,234,214,459,412,171,366,380,266,0,
1,1774544769232,-287,-1105,14362,3678630,747699,298102,0,0,0,211,278,96,291,368,433,113,117,256,212,212,436,0,
2,1774544769232,1402,-780,11088,907745,42760,-35430,0,0,0,274,195,136,263,233,208,533,453,175,408,389,290,0,
1,1774544769248,-287,-1517,16238,4291939,1004262,394618,0,0,0,162,256,94,271,339,402,119,115,231,186,196,422,0,
2,1774544769248,1172,-665,10361,509461,147829,-35430,0,0,0,299,208,138,286,257,225,584,485,208,434,406,279,0,
1,1774544769264,-296,-2211,20746,4987103,1263269,456927,0,0,0,114,202,78,274,291,348,124,103,185,176,170,385,0,
2,1774544769264,1416,-593,9968,223576,178372,-47647,0,0,0,315,216,149,300,267,233,611,495,232,465,418,266,0,
1,1774544769280,-52,-2818,27087,5892406,1525941,476474,0,0,0,97,146,76,282,248,325,121,89,169,177,137,351,0,
2,1774544769280,1512,-378,10011,69638,204028,-18325,0,0,0,329,215,159,297,261,229,631,495,224,498,439,279,0,
1,1774544769296,-622,-2818,29236,6770830,1512502,433714,0,0,0,68,80,59,242,194,265,133,84,153,179,129,298,0,
2,1774544769296,1564,-210,10122,21991,218689,0,0,0,0,332,206,166,329,279,245,665,504,234,504,478,292,0,
1,1774544769312,-1139,0,25608,7356039,1215621,498466,0,0,0,36,29,24,210,126,185,165,79,113,179,119,217,0,
2,1774544769312,1665,-205,10102,20769,169820,0,0,0,0,333,211,174,336,268,269,692,522,243,549,473,348,0,
1,1774544769328,-1923,5230,20717,7694458,1176526,626747,0,0,0,27,8,16,224,97,167,199,61,99,207,76,195,0,
2,1774544769328,1742,-224,10035,-1221,86742,0,0,0,0,334,211,167,324,246,266,702,547,267,539,451,311,0,
1,1774544769344,-3823,9432,13701,8051203,1215621,773355,0,0,0,35,17,13,205,90,172,206,68,122,203,84,211,0,
2,1774544769344,1742,-196,10021,-30543,-2443,0,0,0,0,333,217,167,379,287,298,703,541,241,544,472,307,0,
1,1774544769360,-5427,9657,7767,6943094,940732,894306,0,0,0,27,17,22,203,94,185,169,62,114,195,85,221,0,
2,1774544769360,1684,-153,10050,-28099,-73303,-1221,0,0,0,335,220,187,355,283,285,701,552,269,558,477,307,0,
1,1774544769376,-4211,11016,7748,3786142,46425,930958,0,0,0,9,2,6,201,99,181,150,57,103,180,85,202,0,
2,1774544769376,1622,-143,10045,-7330,-122173,-6108,0,0,0,332,243,162,368,321,283,681,535,219,564,480,300,0,
1,1774544769392,-866,11361,8356,-296880,-627969,624304,0,0,0,29,11,21,210,94,186,146,58,106,191,84,209,0,
2,1774544769392,1588,-148,10011,8552,-138055,-9773,0,0,0,329,240,156,354,317,256,691,542,210,578,487,314,0,
1,1774544769408,961,8671,7853,-3105638,-492357,62308,0,0,0,33,18,21,190,94,179,151,65,110,194,83,213,0,
2,1774544769408,1564,-153,9978,19547,-139277,-12217,0,0,0,333,234,150,353,320,245,695,551,209,588,493,330,0,
1,1774544769424,306,5474,6604,-3966958,68416,-438601,0,0,0,31,18,19,180,95,182,149,69,117,185,87,220,0,
2,1774544769424,1550,-153,9935,32986,-135612,-14660,0,0,0,343,229,152,361,320,259,677,531,204,579,481,331,0,
1,1774544769440,-722,4426,5963,-4042706,173485,-599869,0,0,0,29,18,21,174,96,186,141,67,120,175,90,225,0,
2,1774544769440,1541,-157,9887,50090,-134390,-20769,0,0,0,355,227,156,373,321,285,663,501,214,558,453,323,0,
1,1774544769456,-1019,4297,6159,-4169766,-149051,-543670,0,0,0,26,13,19,175,95,185,142,62,118,175,89,225,0,
2,1774544769456,1512,-177,9849,75747,-127059,-30543,0,0,0,358,231,157,383,329,320,668,486,221,555,449,337,0,
1,1774544769472,-751,4245,7121,-4439768,-662177,-299323,0,0,0,16,7,18,180,92,182,147,59,113,184,88,229,0,
2,1774544769472,1493,-186,9834,100181,-109955,-39095,0,0,0,352,228,158,365,311,322,675,475,226,555,461,361,0,
1,1774544769488,-358,3866,8432,-4770857,-1015258,75747,0,0,0,3,4,17,180,90,178,146,59,110,188,89,234,0,
2,1774544769488,1493,-191,9844,125838,-92851,-45204,0,0,0,350,233,149,344,303,286,671,458,235,539,460,381,0,
1,1774544769504,0,3402,9710,-5109276,-1197295,405614,0,0,0,3,0,13,178,89,173,142,60,107,185,87,228,0,
2,1774544769504,1474,-205,9877,152716,-79412,-46425,0,0,0,362,251,146,370,343,310,642,422,196,530,460,407,0,
1,1774544769520,282,2703,11107,-5457470,-1313360,613308,0,0,0,7,0,11,178,91,177,139,57,104,181,86,222,0,
2,1774544769520,1469,-234,9901,173485,-73303,-45204,0,0,0,392,250,156,411,354,352,650,402,219,509,453,388,0,
1,1774544769536,540,1737,12720,-5705481,-1442863,588874,0,0,0,1,0,6,187,97,184,125,49,94,177,86,220,0,
2,1774544769536,1478,-272,9901,185703,-80634,-43982,0,0,0,416,267,152,421,402,390,630,417,280,492,460,437,0,
1,1774544769552,808,875,14319,-5847202,-1546710,377514,0,0,0,13,0,14,181,93,168,133,54,94,193,91,227,0,
2,1774544769552,1493,-315,9897,191811,-98960,-43982,0,0,0,431,294,174,407,350,409,612,369,270,450,417,476,0,
1,1774544769568,1028,33,16281,-5926614,-1599245,-70860,0,0,0,24,10,14,167,95,178,117,54,100,175,91,235,0,
2,1774544769568,1517,-335,9935,189368,-129503,-46425,0,0,0,428,329,172,443,422,450,609,395,271,434,415,500,0,
1,1774544769584,1086,-727,18224,-5948605,-1626123,-509461,0,0,0,26,14,20,169,96,194,116,51,108,176,92,237,0,
2,1774544769584,1497,-344,9968,189368,-169820,-47647,0,0,0,446,342,200,431,438,448,604,353,308,421,392,507,0,
1,1774544769600,1167,-1761,20277,-5878967,-1689653,-850324,0,0,0,11,11,25,171,93,202,124,53,120,165,82,242,0,
2,1774544769600,1450,-373,9997,199142,-201585,-51312,0,0,0,478,360,204,470,441,476,588,316,308,428,327,544,0,
1,1774544769616,2163,-3991,22488,-5692042,-1870469,-1054353,0,0,0,3,4,26,175,96,208,131,58,126,164,83,244,0,
2,1774544769616,1440,-382,10078,218689,-205250,-53756,0,0,0,494,403,206,457,439,464,542,289,300,402,284,598,0,
1,1774544769632,4182,-7169,24125,-5489235,-2029294,-1149648,0,0,0,21,11,19,182,99,188,137,55,109,169,80,233,0,
2,1774544769632,1440,-411,10150,241902,-205250,-57421,0,0,0,528,444,217,452,469,459,502,263,298,349,236,605,0,
1,1774544769648,6786,-11361,24508,-5376835,-1925447,-1149648,0,0,0,15,5,12,185,100,177,150,57,105,172,81,220,0,
2,1774544769648,1421,-459,10203,289550,-175929,-72082,0,0,0,561,457,216,478,506,484,477,229,297,309,171,612,0,
1,1774544769664,7059,-17889,22435,-5464800,-1236391,-978606,0,0,0,22,11,16,186,101,184,158,62,115,173,81,225,0,
2,1774544769664,1435,-488,10390,393397,-112399,-96516,0,0,0,571,464,197,492,516,499,429,184,284,278,124,649,0,
1,1774544769680,3412,-25647,19066,-5166698,-529009,-612086,0,0,0,18,11,12,181,99,184,171,68,126,171,77,225,0,
2,1774544769680,1593,-545,10729,560774,-41538,-136833,0,0,0,598,492,179,502,523,505,368,149,264,240,102,657,0,
1,1774544769696,-344,-32629,13271,-3543018,-560774,20769,0,0,0,0,3,6,170,103,171,189,105,123,186,109,212,0,
2,1774544769696,2077,-713,11529,875980,10995,-244346,0,0,0,637,499,181,473,520,504,383,155,298,218,84,679,0,
1,1774544769712,3077,-37870,10021,-1275486,-1406211,483805,0,0,0,1,7,11,165,118,159,218,207,114,223,196,203,0,
2,1774544769712,1722,-574,12955,1247386,24434,-350636,0,0,0,659,495,201,489,518,512,377,155,297,162,40,707,0,
1,1774544769728,11155,-40832,9657,1161865,-1977981,238237,0,0,0,0,0,0,162,122,145,263,328,118,234,257,186,0,
2,1774544769728,1028,-397,13802,1734857,-130725,-290771,0,0,0,677,479,186,445,501,476,314,161,265,138,65,688,0,
1,1774544769744,8518,-20579,10581,3605326,-349414,-113620,0,0,0,0,0,0,151,115,118,254,350,93,242,292,147,0,
2,1774544769744,1206,-526,13965,2229658,-327423,-201585,0,0,0,685,505,185,440,535,487,264,155,250,117,34,672,0,
1,1774544769760,713,756,14166,4656014,1577254,240680,0,0,0,0,0,0,170,113,127,319,397,117,359,382,155,0,
2,1774544769760,1909,-746,14419,2784323,-500909,-193033,0,0,0,661,499,183,418,531,474,233,123,224,139,82,648,0,
1,1774544769776,-3354,4938,16999,4294382,2105041,450818,0,0,0,0,0,0,186,94,159,403,421,137,433,350,189,0,
2,1774544769776,2790,-952,15257,3522248,-735481,-328645,0,0,0,632,483,174,396,531,452,207,142,193,134,70,621,0,
1,1774544769792,90,-1052,16922,3087312,1097113,45204,0,0,0,0,0,0,190,94,181,453,422,166,475,371,235,0,
2,1774544769792,3517,-1095,16400,4255287,-1040914,-530231,0,0,0,567,501,161,408,541,430,190,154,171,143,82,555,0,
1,1774544769808,1799,-2560,14759,1890017,277332,-133168,0,0,0,0,0,3,207,124,184,491,443,170,494,395,233,0,
2,1774544769808,4345,-1182,18870,5115385,-1478293,-796568,0,0,0,508,485,148,407,536,426,199,147,180,179,115,491,0,
1,1774544769824,890,-660,11883,996932,-61086,-101403,0,0,0,12,0,8,234,113,183,533,456,162,492,408,251,0,
2,1774544769824,5494,-1363,22790,6137973,-1954768,-1133765,0,0,0,446,415,135,398,505,390,206,126,161,182,110,432,0,
1,1774544769840,81,234,10629,598647,-86742,-62308,0,0,0,32,0,12,241,103,172,561,449,160,506,403,249,0,
2,1774544769840,6068,-2211,27441,7224092,-2422691,-1480737,0,0,0,377,320,126,374,422,317,203,105,131,151,70,371,0,
1,1774544769856,38,205,10179,350636,-133168,-41538,0,0,0,26,0,14,234,106,178,565,437,163,530,404,259,0,
2,1774544769856,6944,-2459,28887,8158716,-2034181,-1714087,0,0,0,308,243,122,310,310,248,198,104,140,126,56,306,0,
1,1774544769872,100,134,10160,191811,-166155,-18325,0,0,0,23,5,16,240,112,185,596,438,165,540,423,257,0,
2,1774544769872,6781,1368,26795,8901528,-944397,-2013411,0,0,0,248,219,128,253,262,207,177,125,138,100,86,244,0,
1,1774544769888,19,296,10169,79412,-147829,0,0,0,0,33,6,18,256,116,185,629,445,163,547,447,248,0,
2,1774544769888,4929,8140,20488,9073792,-482583,-2386039,0,0,0,254,212,146,271,268,245,188,141,140,108,105,227,0,
1,1774544769904,-43,464,10150,23212,-109955,8552,0,0,0,31,0,15,262,117,181,627,446,158,560,464,253,0,
2,1774544769904,3546,12988,12696,7933917,-948062,-2543642,0,0,0,232,212,115,242,268,190,223,160,147,105,92,212,0,
1,1774544769920,-19,459,10117,13439,-84299,12217,0,0,0,20,0,13,256,115,176,632,446,163,566,479,257,0,
2,1774544769920,3598,16099,9179,3922976,-857654,-2211332,0,0,0,227,212,99,265,284,201,187,152,96,112,98,213,0,
1,1774544769936,0,425,10107,8552,-70860,17104,0,0,0,23,0,19,248,98,185,634,450,189,566,480,268,0,
2,1774544769936,1966,15683,11012,-1353677,770911,-1473406,0,0,0,230,211,109,262,292,217,231,177,165,96,95,231,0,
1,1774544769952,0,421,10093,1221,-64751,20769,0,0,0,32,2,11,259,104,178,622,440,151,580,479,232,0,
2,1774544769952,-1062,11141,11639,-4172209,1815491,-664621,0,0,0,221,205,106,248,277,194,211,151,128,109,97,225,0,
1,1774544769968,-14,430,10074,-3665,-57421,23212,0,0,0,20,5,11,272,117,172,615,458,155,580,477,209,0,
2,1774544769968,-3043,7217,9102,-4006054,1444085,-62308,0,0,0,218,199,105,262,275,196,185,132,106,122,101,216,0,
1,1774544769984,-19,435,10040,-4886,-47647,24434,0,0,0,19,0,7,275,107,182,607,458,157,583,468,229,0,
2,1774544769984,-3125,6834,6494,-3517362,432492,359188,0,0,0,217,192,109,279,278,209,188,133,112,126,97,213,0,
1,1774544770000,-4,449,10007,0,-46425,28099,0,0,0,17,0,2,267,105,178,599,456,168,562,465,207,0,
2,1774544770000,-2225,7365,6700,-4079358,-15882,585208,0,0,0,213,191,106,271,279,196,208,139,120,120,101,212,0,
1,1774544770016,4,459,9978,19547,-54977,34208,0,0,0,20,0,5,268,102,171,598,442,156,552,461,209,0,
2,1774544770016,-603,6561,8059,-5000542,59864,613308,0,0,0,238,183,94,274,282,192,218,149,126,118,96,206,0,
1,1774544770032,9,459,9968,48869,-73303,40317,0,0,0,13,0,8,269,100,171,611,409,150,566,427,205,0,
2,1774544770032,875,4881,9279,-5695707,459370,497244,0,0,0,265,172,89,292,288,205,213,153,118,124,86,201,0,
1,1774544770048,0,435,9973,78190,-92851,45204,0,0,0,4,0,10,273,101,180,615,402,152,543,411,219,0,
2,1774544770048,1469,3067,10524,-6080552,1047023,307876,0,0,0,256,170,89,300,291,205,207,142,102,132,95,206,0,
1,1774544770064,0,397,9978,95294,-105068,50090,0,0,0,8,0,11,264,101,182,615,401,162,529,407,242,0,
2,1774544770064,1392,1904,11964,-6322455,1339016,218689,0,0,0,249,167,84,300,287,206,204,135,119,143,100,208,0,
1,1774544770080,-23,358,9968,92851,-111177,54977,0,0,0,8,0,5,256,103,174,608,409,159,513,403,243,0,
2,1774544770080,1789,574,13993,-6616892,1202182,257785,0,0,0,240,166,86,267,263,187,214,121,124,128,95,204,0,
1,1774544770096,-52,382,9949,91629,-106290,54977,0,0,0,8,0,6,261,108,181,611,407,155,495,393,254,0,
2,1774544770096,2857,-507,15630,-6828251,952949,390953,0,0,0,207,186,97,259,305,184,189,159,131,104,104,200,0,
1,1774544770112,-95,421,9959,119729,-95294,52534,0,0,0,15,0,12,272,119,194,627,382,163,499,369,265,0,
2,1774544770112,4484,-1689,17324,-6974859,904080,586430,0,0,0,214,170,103,177,233,180,206,157,150,105,80,208,0,
1,1774544770128,-100,402,10007,172263,-81855,46425,0,0,0,11,5,4,278,140,183,620,372,157,500,340,220,0,
2,1774544770128,6245,-3637,19109,-6941872,1207069,715934,0,0,0,211,175,103,245,268,207,196,125,87,104,88,205,0,
1,1774544770144,-62,335,10040,215024,-72082,41538,0,0,0,28,22,14,288,155,211,607,359,163,448,320,225,0,
2,1774544770144,7317,-6441,21402,-6328563,1971872,774577,0,0,0,214,199,101,274,312,214,212,157,128,115,108,210,0,
1,1774544770160,-57,301,10064,241902,-61086,40317,0,0,0,48,24,15,303,157,217,623,301,172,420,285,228,0,
2,1774544770160,6714,-8513,23646,-5463578,2649933,1017701,0,0,0,216,207,114,329,360,226,236,158,130,116,112,220,0,
1,1774544770176,-90,282,10088,272445,-41538,42760,0,0,0,43,40,26,309,174,265,634,320,213,424,263,281,0,
2,1774544770176,4953,-10093,24345,-5148372,2691472,1683544,0,0,0,220,180,107,302,291,199,225,88,90,126,74,215,0,
1,1774544770192,-110,244,10165,320093,-1221,46425,0,0,0,74,54,23,351,188,249,622,242,208,408,208,289,0,
2,1774544770192,3125,-12950,23632,-5244888,2812423,2315179,0,0,0,223,171,97,289,268,204,236,88,121,138,58,212,0,
1,1774544770208,-110,172,10212,350636,50090,50090,0,0,0,82,76,44,377,219,313,608,237,245,390,182,386,0,
2,1774544770208,-689,-18458,22000,-5147150,3273015,2592512,0,0,0,225,175,104,293,279,226,251,122,147,139,60,207,0,
1,1774544770224,-71,76,10232,359188,103847,50090,0,0,0,114,92,49,399,230,342,584,210,280,365,175,441,0,
2,1774544770224,-4474,-23129,19133,-4285830,2762332,2075720,0,0,0,226,175,127,287,273,235,259,127,148,142,64,209,0,
1,1774544770240,-86,62,10394,350636,149051,51312,0,0,0,162,101,53,448,269,373,545,160,276,336,137,447,0,
2,1774544770240,-5340,-26824,14477,-3039665,1271821,934623,0,0,0,225,178,141,288,276,239,249,111,146,145,73,220,0,
1,1774544770256,-86,71,10619,384845,189368,63529,0,0,0,181,145,56,446,305,403,499,143,282,318,139,472,0,
2,1774544770256,-4345,-28844,11107,-1977981,351858,-399505,0,0,0,220,178,123,293,277,227,232,108,114,144,91,214,0,
1,1774544770272,-157,14,10911,511905,116064,97738,0,0,0,197,177,58,429,324,420,433,136,275,303,144,512,0,
2,1774544770272,-7580,-28973,10725,-709825,403171,-1455080,0,0,0,202,165,90,291,248,186,292,171,121,194,148,197,0,
1,1774544770288,-780,-124,11624,802676,-75747,195476,0,0,0,228,182,71,424,348,435,380,128,279,296,144,553,0,
2,1774544770288,-10820,-26216,14702,480140,-188146,-1556484,0,0,0,168,151,87,275,247,192,275,304,113,257,288,173,0,
1,1774544770304,-1493,-220,12926,1302364,-295658,419053,0,0,0,288,204,96,425,361,445,326,117,281,282,141,566,0,
2,1774544770304,-6992,-12601,16630,2436130,-1901012,-1092227,0,0,0,168,136,87,256,238,175,312,348,110,337,341,182,0,
1,1774544770320,-105,76,14883,1985312,-171042,542448,0,0,0,338,240,110,424,340,432,263,107,266,280,144,539,0,
2,1774544770320,430,2335,12529,4443433,-2803871,-585208,0,0,0,206,132,79,275,209,163,315,353,129,343,400,174,0,
1,1774544770336,469,177,15501,2712241,288328,450818,0,0,0,317,241,101,406,314,407,215,108,272,311,179,506,0,
2,1774544770336,4034,4699,11849,5567425,-1882686,-61086,0,0,0,191,136,78,282,238,187,409,424,149,406,435,183,0,
1,1774544770352,-4,-23,14859,3340211,733038,349414,0,0,0,305,272,102,362,295,396,159,107,255,295,195,487,0,
2,1774544770352,981,-861,16104,4983438,-544891,234572,0,0,0,202,139,80,299,249,198,487,489,138,467,476,199,0,
1,1774544770368,-157,-129,15544,4004832,955393,349414,0,0,0,246,243,80,340,288,388,138,90,239,290,183,454,0,
2,1774544770368,-746,-2383,16573,3885102,-8552,107512,0,0,0,231,157,91,289,244,201,521,530,149,515,509,241,0,
1,1774544770384,-550,-9,18224,4858822,1089783,383623,0,0,0,151,215,75,311,290,379,126,98,237,223,176,403,0,
2,1774544770384,808,-966,14644,2950479,-31764,-100181,0,0,0,290,166,102,284,238,206,527,540,169,546,519,268,0,
1,1774544770400,-1153,-4,23866,6155078,1372003,471587,0,0,0,195,251,114,362,257,382,182,84,231,251,156,423,0,
2,1774544770400,1880,-387,13055,2031737,20769,-58643,0,0,0,359,171,117,305,242,226,567,553,208,581,516,278,0,
1,1774544770416,-1110,-325,32017,7684684,1748296,554665,0,0,0,116,192,80,281,251,341,140,101,184,211,165,385,0,
2,1774544770416,1502,-674,11710,1303586,122173,61086,0,0,0,381,190,140,326,255,252,626,566,250,630,521,298,0,
1,1774544770432,-1158,-320,37329,9073792,1859473,510683,0,0,0,76,75,58,232,179,285,132,76,160,172,119,313,0,
2,1774544770432,1229,-861,10849,764803,57421,53756,0,0,0,366,207,169,337,262,267,635,549,237,675,535,337,0,
1,1774544770448,-3986,3010,35362,9985203,1119105,560774,0,0,0,23,12,20,194,116,205,114,66,109,165,89,222,0,
2,1774544770448,1277,-722,10538,415388,-41538,6108,0,0,0,393,209,196,341,267,274,656,567,228,689,536,378,0,
1,1774544770464,-6087,10921,28810,10341948,289550,933402,0,0,0,6,3,13,186,103,184,126,68,106,168,89,203,0,
2,1774544770464,1359,-354,10366,193033,-95294,-15882,0,0,0,363,208,153,321,272,246,652,555,234,674,531,345,0,
1,1774544770480,-6403,18387,13945,9783617,-69638,1389107,0,0,0,42,27,48,186,103,185,133,68,110,164,88,200,0,
2,1774544770480,1363,-134,10256,76969,-130725,-19547,0,0,0,370,212,173,347,268,262,642,529,238,658,513,349,0,
1,1774544770496,-3460,17587,8423,5831319,317649,1317025,0,0,0,51,28,45,195,99,177,144,66,107,179,83,200,0,
2,1774544770496,1316,-71,10198,39095,-167377,-17104,0,0,0,396,213,170,348,297,294,647,539,222,672,548,381,0,
1,1774544770512,-1182,15300,10686,136833,657290,1049466,0,0,0,29,9,17,195,95,171,151,65,109,189,82,208,0,
2,1774544770512,1277,-62,10165,53756,-182037,-18325,0,0,0,376,224,204,311,266,276,622,525,221,654,509,353,0,
1,1774544770528,-1536,10729,11591,-3200933,205250,775798,0,0,0,18,1,14,184,93,176,145,67,111,177,82,208,0,
2,1774544770528,1244,-67,10074,70860,-189368,-20769,0,0,0,406,218,235,247,237,285,605,497,212,668,506,392,0,
1,1774544770544,-1818,6771,8700,-3908315,-603534,527787,0,0,0,5,0,14,188,95,180,145,68,106,173,78,196,0,
2,1774544770544,1215,-81,9987,76969,-191811,-24434,0,0,0,440,235,199,331,298,304,584,458,224,647,490,396,0,
1,1774544770560,-521,5594,5829,-3479488,-1082453,295658,0,0,0,19,10,28,186,93,184,138,68,107,156,75,198,0,
2,1774544770560,1186,-90,9930,81855,-188146,-28099,0,0,0,429,246,211,326,287,281,585,474,246,641,452,393,0,
1,1774544770576,1397,5915,5915,-3888768,-838107,18325,0,0,0,111,59,92,164,83,182,127,52,111,151,72,218,0,
2,1774544770576,1153,-105,9897,91629,-175929,-30543,0,0,0,432,265,202,332,279,276,568,452,233,624,429,378,0,
1,1774544770592,1904,5747,7054,-4657236,-433714,-241902,0,0,0,127,67,99,164,83,173,136,51,108,152,64,211,0,
2,1774544770592,1124,-105,9887,117286,-156381,-36651,0,0,0,431,281,190,344,291,285,550,422,232,598,419,386,0,
1,1774544770608,660,4905,8542,-5400048,-274889,-414166,0,0,0,119,63,88,171,83,168,133,54,95,156,68,194,0,
2,1774544770608,1110,-114,9906,164933,-131946,-45204,0,0,0,438,299,201,347,320,296,553,404,252,564,386,425,0,
1,1774544770624,-282,4288,9719,-5732359,-665843,-357967,0,0,0,111,57,93,165,87,170,120,52,98,145,66,189,0,
2,1774544770624,1081,-143,9935,216246,-109955,-48869,0,0,0,459,316,199,368,344,311,552,360,239,527,341,447,0,
1,1774544770640,-397,3661,11131,-6078109,-1125213,-228463,0,0,0,115,58,83,166,83,161,128,56,99,154,69,192,0,
2,1774544770640,1072,-181,9949,244346,-95294,-47647,0,0,0,449,307,188,368,322,318,530,297,209,502,316,452,0,
1,1774544770656,-4,2818,12797,-6439741,-1368338,-118507,0,0,0,100,42,63,182,83,159,156,57,95,175,70,197,0,
2,1774544770656,1076,-220,9949,260228,-83077,-42760,0,0,0,478,330,200,382,347,355,521,238,207,471,282,486,0,
1,1774544770672,52,1675,14970,-6783047,-1276708,-107512,0,0,0,75,31,50,190,85,163,164,59,101,177,71,200,0,
2,1774544770672,1100,-263,9978,284663,-74525,-39095,0,0,0,470,331,193,420,380,421,540,272,258,458,286,517,0,
1,1774544770688,-382,660,17362,-7081149,-1062905,-151494,0,0,0,56,21,46,188,89,169,153,61,109,171,74,208,0,
2,1774544770688,1095,-315,10021,304210,-64751,-39095,0,0,0,518,344,183,411,375,396,518,271,246,482,253,533,0,
1,1774544770704,-1373,-402,20334,-7367034,-924849,-195476,0,0,0,27,9,27,195,97,180,148,61,115,163,74,214,0,
2,1774544770704,1067,-373,10083,316428,-45204,-37873,0,0,0,505,371,183,424,410,410,531,259,300,400,223,546,0,
1,1774544770720,-2608,-3115,23924,-7566176,-1303586,-200363,0,0,0,14,4,14,195,98,192,146,60,118,157,72,219,0,
2,1774544770720,1115,-411,10189,340862,-17104,-39095,0,0,0,519,405,183,460,461,454,525,240,287,332,228,570,0,
1,1774544770736,-2383,-8480,26968,-7209431,-2370157,-290771,0,0,0,20,6,17,187,95,195,147,59,121,159,73,228,0,
2,1774544770736,1191,-449,10260,388510,-13439,-54977,0,0,0,567,418,184,452,456,453,480,156,248,314,190,590,0,
1,1774544770752,425,-13878,28743,-6473949,-3331659,-552222,0,0,0,12,9,21,187,93,199,159,59,129,171,79,241,0,
2,1774544770752,1186,-502,10265,444709,-9773,-70860,0,0,0,592,427,205,448,477,502,441,254,321,260,166,630,0,
1,1774544770768,5025,-19047,28442,-5947383,-3376863,-1005484,0,0,0,11,5,23,184,90,212,170,61,147,174,77,249,0,
2,1774544770768,1143,-555,10404,519235,17104,-83077,0,0,0,601,440,202,485,524,519,408,227,338,263,148,665,0,
1,1774544770784,6202,-25058,24967,-5992587,-2438574,-1290147,0,0,0,17,3,25,189,90,201,175,63,142,175,74,235,0,
2,1774544770784,1383,-703,10806,651182,59864,-98960,0,0,0,628,447,199,510,533,507,387,169,310,238,103,694,0,
1,1774544770800,2383,-31878,18803,-5397605,-1583362,-811229,0,0,0,14,1,17,196,91,189,190,65,132,185,78,229,0,
2,1774544770800,1631,-737,11954,944397,102625,-174707,0,0,0,661,479,201,494,515,517,362,171,311,175,66,718,0,
1,1774544770816,-201,-37812,13299,-3835011,-1413542,287106,0,0,0,21,1,17,189,92,180,180,65,126,183,74,209,0,
2,1774544770816,1167,-502,13342,1417207,98960,-218689,0,0,0,679,516,203,480,516,526,308,126,299,148,64,721,0,
1,1774544770832,4316,-40665,10701,-1771509,-2105041,1412320,0,0,0,22,1,16,193,95,183,180,67,124,183,80,221,0,
2,1774544770832,880,-464,13701,1921782,-34208,-166155,0,0,0,686,507,217,487,525,521,262,125,277,122,53,717,0,
1,1774544770848,11213,-39133,10208,-133168,-2252871,1552819,0,0,0,5,0,3,182,99,150,229,149,118,167,114,172,0,
2,1774544770848,1363,-794,13261,2362826,-213802,-136833,0,0,0,684,497,196,478,513,514,274,152,264,120,21,728,0,
1,1774544770864,13026,-26633,13591,1273043,-638965,583987,0,0,0,0,0,0,157,92,111,286,292,98,217,213,133,0,
2,1774544770864,1847,-1110,13098,2846632,-388510,-196698,0,0,0,680,444,184,499,509,503,229,138,236,133,7,707,0,
1,1774544770880,3172,3799,15443,2498438,2224771,-541226,0,0,0,0,0,0,157,96,98,302,366,94,288,311,119,0,
2,1774544770880,1909,-1115,14343,3422067,-551000,-298102,0,0,0,662,467,171,465,517,477,192,132,204,127,70,676,0,
1,1774544770896,-2550,15549,10457,3991393,3587000,-1241278,0,0,0,0,0,0,184,109,110,379,452,98,355,434,114,0,
2,1774544770896,2249,-1062,16386,4158770,-746477,-389732,0,0,0,624,457,160,450,525,495,184,114,181,155,79,627,0,
1,1774544770912,1100,3216,11615,5575977,2564412,-1401324,0,0,0,0,0,0,188,113,135,412,517,142,402,538,129,0,
2,1774544770912,2976,-1014,19090,5183802,-1078788,-542448,0,0,0,554,488,164,439,571,445,201,137,180,150,75,575,0,
1,1774544770928,5096,-4221,18674,5368283,1266934,-797790,0,0,0,0,0,3,202,101,167,433,525,187,461,572,166,0,
2,1774544770928,2890,-808,23402,6428745,-1616349,-733038,0,0,0,474,457,150,416,553,407,203,140,183,134,82,483,0,
1,1774544770944,3273,-2847,21028,3921754,456927,53756,0,0,0,0,0,5,237,93,185,532,533,167,529,577,186,0,
2,1774544770944,2656,-1206,29600,7727445,-2277305,-822224,0,0,0,408,364,159,379,466,381,177,114,163,119,63,407,0,
1,1774544770960,-660,-148,17114,2273640,62308,222354,0,0,0,5,0,5,228,106,173,563,537,141,546,577,182,0,
2,1774544770960,4173,-1971,34668,9090896,-2582738,-740368,0,0,0,337,274,143,328,357,309,167,98,133,120,44,341,0,
1,1774544770976,-799,100,12309,1304808,-140499,-70860,0,0,0,20,0,15,245,126,173,592,537,141,575,569,191,0,
2,1774544770976,6642,234,34453,10159910,-1824043,-740368,0,0,0,269,229,123,282,298,229,175,103,137,118,61,278,0,
1,1774544770992,-134,-47,10088,874759,-153938,-184481,0,0,0,16,0,7,258,106,170,630,532,150,584,557,191,0,
2,1774544770992,7676,8356,27255,10511769,-745255,-1092227,0,0,0,237,227,116,266,286,201,184,124,147,108,91,238,0,
1,1774544771008,-71,-86,10308,624304,8552,-101403,0,0,0,18,0,21,268,116,223,635,527,167,573,546,226,0,
2,1774544771008,8791,12730,18363,9968098,-190589,-1593136,0,0,0,229,226,108,264,279,206,190,151,136,109,105,236,0,
1,1774544771024,-129,28,10543,317649,139277,-20769,0,0,0,22,0,13,263,116,177,627,526,162,600,549,211,0,
2,1774544771024,8356,13342,12744,7264409,718377,-2039068,0,0,0,213,204,115,258,283,212,190,154,135,111,114,243,0,
1,1774544771040,-76,220,10380,81855,155159,15882,0,0,0,28,0,11,272,127,183,589,516,148,588,542,204,0,
2,1774544771040,2785,16472,10945,1692096,1635897,-1780061,0,0,0,213,184,139,284,275,249,193,138,128,107,95,232,0,
1,1774544771056,0,349,10203,-4886,112399,25656,0,0,0,28,9,17,269,128,179,563,493,143,587,516,191,0,
2,1774544771056,-1646,15553,11088,-3145955,1260825,-963945,0,0,0,217,181,138,254,259,245,222,188,200,102,100,245,0,
1,1774544771072,62,425,10179,-12217,56199,31764,0,0,0,28,10,26,253,135,213,527,483,175,574,504,216,0,
2,1774544771072,-1440,9739,10815,-5755572,-91629,17104,0,0,0,214,184,137,266,269,239,183,107,132,110,107,252,0,
1,1774544771088,76,454,10203,23212,-12217,36651,0,0,0,33,18,32,243,145,225,497,458,178,566,515,235,0,
2,1774544771088,244,6503,9274,-5954714,-315206,188146,0,0,0,215,189,103,273,279,212,207,170,132,98,92,220,0,
1,1774544771104,0,425,10107,58643,-51312,36651,0,0,0,33,33,28,240,166,218,481,427,169,555,505,234,0,
2,1774544771104,148,5360,8317,-6107430,151494,24434,0,0,0,212,193,99,273,292,222,198,146,144,100,105,229,0,
1,1774544771120,-76,397,9997,87964,-46425,36651,0,0,0,46,33,24,250,171,207,477,399,161,543,467,226,0,
2,1774544771120,-775,4972,8571,-6316346,684169,-254119,0,0,0,212,187,94,280,284,207,171,121,91,117,100,226,0,
1,1774544771136,-105,416,9916,122173,-15882,37873,0,0,0,58,24,23,266,158,201,484,364,153,535,413,230,0,
2,1774544771136,-670,3823,9212,-6467841,935845,-547335,0,0,0,209,180,103,261,267,213,164,113,81,118,95,247,0,
1,1774544771152,-100,406,9882,174707,15882,39095,0,0,0,119,69,57,257,143,196,464,306,155,524,349,242,0,
2,1774544771152,-296,2866,10270,-6623000,1182635,-852767,0,0,0,211,176,107,262,257,219,159,127,105,116,93,243,0,
1,1774544771168,-43,335,9892,218689,45204,36651,0,0,0,218,135,111,234,133,202,409,261,171,512,313,264,0,
2,1774544771168,-282,2560,11864,-6823364,1451415,-1014036,0,0,0,213,171,104,276,263,225,164,135,112,116,88,226,0,
1,1774544771184,38,272,9954,222354,58643,31764,0,0,0,78,62,51,264,181,255,456,278,203,497,305,313,0,
2,1774544771184,-296,2239,13591,-7073819,1644449,-955393,0,0,0,210,168,99,273,265,219,186,126,111,103,73,214,0,
1,1774544771200,71,244,10031,201585,53756,21991,0,0,0,106,59,62,286,165,282,462,266,230,480,287,340,0,
2,1774544771200,-19,1488,15391,-7368256,1711644,-590095,0,0,0,209,170,97,267,256,194,191,107,115,101,68,208,0,
1,1774544771216,57,215,10059,205250,46425,19547,0,0,0,136,66,71,308,167,280,482,236,213,496,235,353,0,
2,1774544771216,454,435,17717,-7591833,1703092,-24434,0,0,0,209,175,104,264,265,196,186,97,114,123,83,225,0,
1,1774544771232,19,196,10136,262672,42760,26878,0,0,0,255,169,125,328,175,256,484,216,186,511,209,381,0,
2,1774544771232,1220,-593,20669,-7626041,1607797,667064,0,0,0,203,183,105,268,290,201,199,133,127,124,80,229,0,
1,1774544771248,0,162,10227,345749,52534,43982,0,0,0,184,91,78,349,177,281,472,199,215,450,194,398,0,
2,1774544771248,2579,-2038,24359,-7579615,1588249,1451415,0,0,0,200,182,102,273,300,191,179,101,76,136,97,236,0,
1,1774544771264,43,90,10198,414166,62308,62308,0,0,0,177,108,76,369,196,337,442,179,243,375,175,444,0,
2,1774544771264,3852,-4647,28073,-7562511,1781283,2266310,0,0,0,202,184,102,273,305,202,204,96,125,114,86,228,0,
1,1774544771280,100,14,10160,445931,43982,74525,0,0,0,206,138,79,372,244,353,395,179,239,333,176,471,0,
2,1774544771280,4541,-9959,31237,-7519751,2182010,3067765,0,0,0,200,170,105,266,262,206,225,133,138,106,47,214,0,
1,1774544771296,114,-23,10236,469144,2443,84299,0,0,0,243,137,87,405,247,370,414,165,239,335,144,498,0,
2,1774544771296,4450,-20057,31696,-7131240,2579073,3451388,0,0,0,210,160,110,252,229,177,200,71,121,128,45,225,0,
1,1774544771312,-67,-105,10509,527787,-48869,105068,0,0,0,266,173,96,412,259,383,381,145,229,322,151,543,0,
2,1774544771312,4115,-31720,28279,-6191730,2764776,3282789,0,0,0,210,160,106,250,221,195,206,62,112,119,45,227,0,
1,1774544771328,-497,-205,11122,697608,-114842,188146,0,0,0,300,198,99,400,269,381,318,126,227,315,161,574,0,
2,1774544771328,3067,-41268,20526,-4362799,2720793,2247984,0,0,0,209,168,106,266,252,208,225,91,116,118,53,225,0,
1,1774544771344,-650,-215,12208,1016479,-119729,299323,0,0,0,341,214,105,393,292,385,285,124,237,313,157,566,0,
2,1774544771344,-1880,-42923,14462,-2098932,2779436,304210,0,0,0,206,164,112,271,244,207,226,127,130,131,72,233,0,
1,1774544771360,201,43,14175,1560149,46425,324980,0,0,0,364,248,117,388,315,400,256,127,250,306,166,535,0,
2,1774544771360,-10265,-41244,12500,-219911,2359161,-1722639,0,0,0,179,162,103,269,253,196,265,211,139,209,203,244,0,
1,1774544771376,478,129,15171,2214997,219911,262672,0,0,0,368,255,123,376,274,387,197,106,262,324,186,513,0,
2,1774544771376,-14276,-32155,17492,1139874,72082,-2388483,0,0,0,162,159,82,274,267,189,267,311,99,282,370,227,0,
1,1774544771392,-124,-19,14883,2940705,401949,227241,0,0,0,352,263,118,363,288,375,160,97,230,331,208,504,0,
2,1774544771392,-7542,-9504,16448,3437949,-2713463,-1799608,0,0,0,177,147,71,289,264,198,275,393,63,323,469,207,0,
1,1774544771408,-540,-277,14376,3600439,698829,293215,0,0,0,341,276,105,359,328,396,135,94,220,301,198,514,0,
2,1774544771408,3125,3943,11777,5604077,-2882062,-354301,0,0,0,204,146,77,303,275,214,400,489,107,393,542,217,0,
1,1774544771424,-842,-349,15692,4309043,1039692,397062,0,0,0,268,284,75,356,338,376,125,86,203,266,184,490,0,
2,1774544771424,3421,1703,15223,6440963,-1422094,691499,0,0,0,242,168,91,304,273,233,473,587,157,463,604,225,0,
1,1774544771440,-1182,-148,18535,5359731,1398881,546113,0,0,0,258,288,100,315,336,356,125,96,235,256,190,461,0,
2,1774544771440,-2890,-4297,20789,5479461,-119729,450818,0,0,0,270,175,103,273,235,249,518,620,184,569,604,277,0,
1,1774544771456,-1229,-263,22560,6519153,1832595,674395,0,0,0,177,246,88,283,304,390,116,96,206,211,182,471,0,
2,1774544771456,-794,-2852,18951,3800803,58643,-304210,0,0,0,305,192,117,305,260,248,596,632,209,510,544,259,0,
1,1774544771472,-837,-933,31122,7793418,2430021,731816,0,0,0,109,187,86,241,263,353,116,97,190,177,155,424,0,
2,1774544771472,2244,-933,14907,2333505,117286,-313984,0,0,0,327,191,180,293,250,250,612,632,218,635,568,335,0,
1,1774544771488,-914,-1785,38923,9078679,2927266,634078,0,0,0,101,125,80,237,196,298,132,84,182,182,136,353,0,
2,1774544771488,2459,-354,11332,1265712,131946,75747,0,0,0,352,196,170,328,255,271,644,603,229,688,582,324,0,
1,1774544771504,-4503,531,37233,10181901,2342057,585208,0,0,0,34,41,38,240,137,225,140,68,129,162,98,247,0,
2,1774544771504,1220,-713,10485,770911,43982,140499,0,0,0,367,206,156,319,254,245,659,601,245,700,588,349,0,
1,1774544771520,-8207,8537,30610,10625389,905302,940732,0,0,0,11,15,22,233,124,203,143,65,104,156,86,205,0,
2,1774544771520,957,-737,10480,432492,-50090,46425,0,0,0,392,204,185,326,265,275,671,596,238,707,608,377,0,
1,1774544771536,-7647,13275,20215,10578964,-454483,1395216,0,0,0,12,15,22,225,125,208,145,65,106,164,89,202,0,
2,1774544771536,1239,-277,10452,183259,-108734,-17104,0,0,0,399,197,179,339,278,281,690,613,243,710,610,371,0,
1,1774544771552,-3153,12892,11495,8731707,-802676,1180191,0,0,0,7,11,21,228,123,205,155,61,110,171,84,202,0,
2,1774544771552,1320,33,10284,67195,-134390,-18325,0,0,0,407,199,160,344,282,275,698,618,253,708,604,368,0,
1,1774544771568,1225,14094,8552,3523470,89186,240680,0,0,0,6,9,18,226,124,199,153,58,106,167,81,201,0,
2,1774544771568,1225,76,10208,58643,-150272,-10995,0,0,0,406,213,169,333,268,271,681,600,277,704,587,385,0,
1,1774544771584,-555,13405,9432,-1666440,673173,-511905,0,0,0,13,7,9,213,120,193,133,61,92,157,84,194,0,
2,1774544771584,1177,52,10212,70860,-167377,-15882,0,0,0,384,220,172,312,249,249,651,575,295,691,556,377,0,
1,1774544771600,-3479,9188,9442,-4814839,70860,-875980,0,0,0,42,23,22,244,116,183,154,61,96,191,85,216,0,
2,1774544771600,1172,23,10155,91629,-189368,-25656,0,0,0,383,216,158,301,249,236,621,536,257,667,528,345,0,
1,1774544771616,-2747,6058,8064,-5197241,-1161865,-731816,0,0,0,17,9,18,251,116,182,152,61,93,198,90,200,0,
2,1774544771616,1129,4,10021,97738,-188146,-30543,0,0,0,381,239,163,293,241,236,596,510,229,641,495,355,0,
1,1774544771632,-454,5072,7341,-5423261,-1728748,-467922,0,0,0,36,22,15,235,120,190,142,63,98,177,91,202,0,
2,1774544771632,1091,-4,9930,87964,-166155,-37873,0,0,0,375,216,154,322,259,239,598,481,233,623,490,354,0,
1,1774544771648,1263,4647,7781,-5876523,-1627344,-141720,0,0,0,30,19,18,200,118,204,128,61,114,154,86,214,0,
2,1774544771648,1072,-9,9892,73303,-144164,-47647,0,0,0,387,239,179,306,243,233,533,426,209,589,479,354,0,
1,1774544771664,1349,3680,8662,-6276029,-1503950,158824,0,0,0,39,18,19,197,109,189,135,61,103,164,87,209,0,
2,1774544771664,1057,9,9858,79412,-140499,-52534,0,0,0,392,226,169,356,281,260,528,363,208,588,453,343,0,
1,1774544771680,1392,2986,9734,-6469062,-1673770,398284,0,0,0,31,14,18,191,107,195,129,59,102,154,80,203,0,
2,1774544771680,1024,28,9844,114842,-133168,-54977,0,0,0,400,251,164,341,283,273,519,374,198,589,407,366,0,
1,1774544771696,1880,2794,11026,-6616892,-1802052,507018,0,0,0,17,16,23,179,107,191,131,62,100,144,75,192,0,
2,1774544771696,1019,14,9877,174707,-113620,-56199,0,0,0,418,277,172,361,303,294,525,353,214,563,397,392,0,
1,1774544771712,2091,2579,12481,-6778160,-1706757,445931,0,0,0,11,11,23,183,106,186,141,62,103,149,75,194,0,
2,1774544771712,1043,-19,9920,218689,-109955,-53756,0,0,0,442,291,176,369,300,286,515,336,235,520,401,415,0,
1,1774544771728,1569,1880,14390,-6913772,-1555262,267558,0,0,0,4,3,13,203,107,188,135,55,92,151,74,188,0,
2,1774544771728,1048,-86,9930,240680,-130725,-51312,0,0,0,462,305,178,400,321,322,500,300,243,478,378,441,0,
1,1774544771744,1100,1158,16630,-6993185,-1535715,36651,0,0,0,0,0,6,208,110,191,125,53,86,146,73,185,0,
2,1774544771744,985,-143,9940,251676,-136833,-48869,0,0,0,476,317,175,429,365,382,495,281,265,453,331,472,0,
1,1774544771760,981,502,19344,-7084815,-1618792,-260228,0,0,0,0,0,4,203,111,187,121,52,88,144,71,189,0,
2,1774544771760,952,-162,10011,272445,-118507,-48869,0,0,0,497,338,179,429,402,421,490,267,283,450,306,510,0,
1,1774544771776,842,-890,22632,-7213096,-1720196,-626747,0,0,0,0,0,0,210,109,182,132,48,87,153,70,189,0,
2,1774544771776,952,-186,10098,301767,-89186,-47647,0,0,0,523,381,197,431,429,440,482,224,273,440,286,555,0,
1,1774544771792,555,-4307,25728,-7216761,-1933999,-1000597,0,0,0,0,0,3,219,109,189,146,49,90,159,71,188,0,
2,1774544771792,976,-234,10174,333532,-62308,-47647,0,0,0,548,423,204,436,449,433,473,207,270,387,211,600,0,
1,1774544771808,1306,-10725,28604,-6774495,-2472782,-1447750,0,0,0,0,0,8,207,109,201,127,48,96,141,69,188,0,
2,1774544771808,1043,-296,10313,389732,-46425,-58643,0,0,0,586,449,210,487,501,461,446,184,255,337,167,633,0,
1,1774544771824,3689,-17721,29729,-6284581,-2643824,-1930334,0,0,0,0,0,10,194,110,210,127,53,108,132,67,195,0,
2,1774544771824,995,-344,10485,483805,-7330,-74525,0,0,0,614,488,210,690,576,485,452,190,304,298,127,670,0,
1,1774544771840,3541,-26049,26714,-6333450,-1637118,-2196671,0,0,0,0,0,11,202,119,222,135,53,116,138,68,207,0,
2,1774544771840,1043,-402,10835,586430,63529,-78190,0,0,0,639,495,228,489,537,524,399,140,312,218,92,684,0,
1,1774544771856,-1459,-35745,20468,-6057339,-660956,-1881464,0,0,0,0,0,1,196,113,203,135,54,109,135,68,195,0,
2,1774544771856,1627,-598,11811,816115,111177,-108734,0,0,0,670,511,194,480,524,510,359,150,287,179,76,713,0,
1,1774544771872,-5948,-43565,13625,-4432438,-1159422,-690277,0,0,0,0,0,0,172,100,154,177,108,112,152,102,183,0,
2,1774544771872,1478,-344,13926,1381777,91629,-193033,0,0,0,693,494,177,548,528,521,341,170,284,155,51,722,0,
1,1774544771888,3512,-48982,13247,-1732413,-2789210,797790,0,0,0,0,0,0,156,101,138,248,237,118,195,146,150,0,
2,1774544771888,1048,-38,15285,2102598,-41538,-211359,0,0,0,705,516,180,477,511,506,319,162,302,130,45,722,0,
1,1774544771904,18214,-47566,14041,1407433,-1844813,1064127,0,0,0,0,0,0,157,98,118,284,306,107,238,209,131,0,
2,1774544771904,1383,-186,15324,2838079,-322536,-206472,0,0,0,711,516,182,429,496,485,228,121,238,120,44,714,0,
1,1774544771920,16683,-19535,11361,5277875,2333505,-29321,0,0,0,0,0,0,174,110,126,331,380,109,328,304,139,0,
2,1774544771920,1971,-339,15663,3597996,-637743,-256563,0,0,0,698,494,184,513,512,499,199,117,213,111,33,682,0,
1,1774544771936,2665,1852,16544,6757391,3543018,-354301,0,0,0,0,0,5,192,106,162,409,414,142,414,367,179,0,
2,1774544771936,2703,-296,17267,4526511,-945619,-405614,0,0,0,641,489,171,493,545,476,208,139,206,129,67,624,0,
1,1774544771952,-1354,2158,22684,6067113,2354274,-184481,0,0,0,15,0,15,212,97,189,468,426,167,462,403,220,0,
2,1774544771952,3239,33,20473,5641951,-1312138,-614530,0,0,0,559,496,155,419,565,419,212,142,175,136,96,548,0,
1,1774544771968,1560,-4680,23120,3720169,409279,20769,0,0,0,37,0,21,228,105,200,507,442,174,491,422,242,0,
2,1774544771968,4675,210,25546,7013954,-1959655,-872315,0,0,0,486,449,151,440,521,376,202,118,135,126,68,468,0,
1,1774544771984,1445,-3297,15539,1638340,-307876,-52534,0,0,0,48,1,24,235,103,203,556,423,184,505,407,261,0,
2,1774544771984,6264,-698,33687,8517904,-3088534,-1221730,0,0,0,414,325,142,452,405,335,168,94,100,133,36,391,0,
1,1774544772000,-86,-119,10179,779464,-344527,-141720,0,0,0,68,1,28,246,89,198,577,429,188,522,418,285,0,
2,1774544772000,8040,-1631,37841,9643118,-3826459,-1407433,0,0,0,311,230,117,341,323,279,177,106,118,111,48,309,0,
1,1774544772016,-641,325,9418,568104,-234572,-97738,0,0,0,75,9,34,242,89,234,598,430,224,548,412,323,0,
2,1774544772016,10500,2335,33716,10431134,-3038443,-1551597,0,0,0,241,203,118,272,243,207,189,122,125,113,75,244,0,
1,1774544772032,-454,-153,10227,344527,-138055,-20769,0,0,0,82,13,50,262,90,287,617,454,249,556,432,331,0,
2,1774544772032,10169,11160,24168,10603398,-1419650,-1970651,0,0,0,236,179,111,365,316,249,219,147,138,124,82,233,0,
1,1774544772048,-181,-129,10638,124616,-61086,14660,0,0,0,74,9,36,257,90,287,617,441,258,563,403,344,0,
2,1774544772048,9016,14003,14496,9680992,-405614,-2351831,0,0,0,222,175,121,284,262,232,166,110,82,116,93,237,0,
1,1774544772064,-215,263,10294,70860,-42760,10995,0,0,0,57,9,37,269,99,262,622,391,233,529,383,345,0,
2,1774544772064,7284,15563,9691,6013357,814894,-2283414,0,0,0,217,175,117,278,263,227,198,150,122,110,81,232,0,
1,1774544772080,-301,354,10122,131946,-53756,10995,0,0,0,52,16,38,263,113,275,610,379,234,509,387,349,0,
2,1774544772080,2311,18205,9858,-252898,1850921,-1599245,0,0,0,217,177,133,268,257,230,208,170,165,109,82,241,0,
1,1774544772096,-272,263,10212,186924,-59864,18325,0,0,0,124,53,64,260,117,247,620,328,217,507,330,327,0,
2,1774544772096,-1320,14510,11351,-4685336,1598023,-645073,0,0,0,219,181,116,265,254,206,169,110,118,112,82,228,0,
1,1774544772112,-239,191,10246,210137,-59864,23212,0,0,0,161,81,90,251,119,237,611,289,215,506,290,326,0,
2,1774544772112,-641,8389,9432,-5211902,1003040,59864,0,0,0,223,186,114,273,267,212,148,97,88,106,84,221,0,
1,1774544772128,-291,167,10131,199142,-36651,24434,0,0,0,181,88,126,226,101,266,577,264,249,478,259,364,0,
2,1774544772128,138,6207,6800,-4635245,1244943,317649,0,0,0,220,181,113,271,260,229,164,112,94,109,90,230,0,
1,1774544772144,-339,129,9983,169820,12217,25656,0,0,0,190,84,132,223,98,282,563,239,256,466,222,378,0,
2,1774544772144,-756,6412,5963,-4392121,1927890,372627,0,0,0,218,175,101,269,248,228,171,101,83,119,89,235,0,
1,1774544772160,-277,67,9906,138055,51312,25656,0,0,0,139,57,81,260,126,285,575,236,235,477,200,369,0,
2,1774544772160,-2455,6460,7518,-4989547,1964542,459370,0,0,0,219,179,107,279,257,230,169,94,80,117,82,232,0,
1,1774544772176,-215,43,9906,119729,63529,23212,0,0,0,130,51,67,277,130,296,557,246,243,457,190,380,0,
2,1774544772176,-2790,5948,9518,-5731137,1475850,555887,0,0,0,211,173,112,275,247,222,184,85,101,118,84,231,0,
1,1774544772192,-181,38,9959,124616,54977,23212,0,0,0,234,100,107,263,121,275,511,228,227,430,189,367,0,
2,1774544772192,-1306,4881,11064,-6249151,1136209,543670,0,0,0,216,168,111,259,241,214,185,118,94,121,79,229,0,
1,1774544772208,-129,19,10007,144164,26878,23212,0,0,0,85,30,47,292,145,296,515,195,219,435,164,396,0,
2,1774544772208,9,3675,12529,-6585127,1350012,426383,0,0,0,224,168,107,305,252,207,223,120,104,130,65,215,0,
1,1774544772224,-119,19,10059,166155,-2443,21991,0,0,0,90,36,51,300,151,303,529,193,239,420,141,412,0,
2,1774544772224,196,2479,14314,-6808703,1893682,245567,0,0,0,214,168,98,289,272,206,233,140,155,114,66,206,0,
1,1774544772240,-201,0,10064,186924,0,21991,0,0,0,122,63,67,299,153,296,480,184,210,371,150,410,0,
2,1774544772240,-378,1143,16836,-7053050,2150245,118507,0,0,0,213,168,98,311,288,202,234,153,136,125,85,217,0,
1,1774544772256,-244,-38,10040,207694,29321,30543,0,0,0,106,87,55,295,196,299,480,191,229,328,178,419,0,
2,1774544772256,-612,124,19569,-7246083,1979203,156381,0,0,0,214,158,91,304,276,214,202,109,109,126,60,222,0,
1,1774544772272,-196,-76,10074,230907,57421,46425,0,0,0,125,83,53,336,202,324,484,209,221,345,181,435,0,
2,1774544772272,47,-449,22244,-7387804,1632231,389732,0,0,0,222,153,93,299,263,210,212,98,91,138,54,221,0,
1,1774544772288,-129,-95,10117,251676,57421,54977,0,0,0,133,87,62,344,207,384,449,203,255,302,181,474,0,
2,1774544772288,1517,-1890,26173,-7553959,1523497,858876,0,0,0,215,171,103,275,250,202,212,110,109,128,56,218,0,
1,1774544772304,-67,-129,10122,276111,40317,58643,0,0,0,210,147,115,345,202,388,401,174,275,296,151,498,0,
2,1774544772304,2435,-5149,29968,-7590611,1681101,1407433,0,0,0,213,187,111,266,247,201,217,105,140,113,55,223,0,
1,1774544772320,-52,-172,10169,312763,0,63529,0,0,0,217,148,93,384,234,393,426,168,275,316,147,534,0,
2,1774544772320,2866,-12270,32117,-7360926,1946216,2020742,0,0,0,218,193,112,273,249,204,219,89,154,111,57,224,0,
1,1774544772336,-76,-215,10313,375071,-58643,69638,0,0,0,210,136,71,417,240,411,434,147,290,320,132,563,0,
2,1774544772336,2474,-23043,30983,-6889338,2360383,2414139,0,0,0,220,193,108,281,253,214,209,76,145,119,60,220,0,
1,1774544772352,-67,-263,10557,474031,-130725,76969,0,0,0,293,196,108,399,243,432,388,122,316,292,119,587,0,
2,1774544772352,1167,-34835,24130,-5866749,2645046,2173458,0,0,0,224,196,113,288,261,229,208,73,133,122,54,233,0,
1,1774544772368,-387,-339,10997,656069,-222354,91629,0,0,0,335,229,121,381,279,450,345,126,306,275,139,599,0,
2,1774544772368,-933,-42632,15994,-4014606,2820975,1233947,0,0,0,217,197,111,265,255,216,210,112,133,134,78,243,0,
1,1774544772384,-789,-421,11969,959058,-340862,166155,0,0,0,315,210,105,394,298,467,298,129,259,282,155,604,0,
2,1774544772384,-6685,-44479,11954,-1698205,2912605,-224798,0,0,0,199,150,72,280,275,197,281,205,145,199,182,224,0,
1,1774544772400,-421,-311,13625,1439198,-359188,250454,0,0,0,415,276,151,390,278,486,206,103,239,275,145,622,0,
2,1774544772400,-17362,-43459,17391,680503,1281595,-1227839,0,0,0,153,130,87,276,241,189,342,301,164,260,291,237,0,
1,1774544772416,-210,-239,14256,1997529,-4886,223576,0,0,0,318,231,102,401,317,461,172,107,266,328,197,573,0,
2,1774544772416,-16113,-27226,17051,3799581,-2662150,-1154535,0,0,0,179,122,66,315,245,196,374,390,150,340,422,201,0,
1,1774544772432,-445,-301,14491,2575407,464257,194255,0,0,0,332,226,104,395,311,431,164,115,316,359,200,553,0,
2,1774544772432,-2555,-2766,13778,6246707,-4327369,-295658,0,0,0,202,142,82,323,277,228,430,471,158,401,490,192,0,
1,1774544772448,-938,-315,15702,3265685,814894,227241,0,0,0,336,273,106,392,315,433,133,92,268,337,197,513,0,
2,1774544772448,2522,3967,16467,6914994,-2711019,492357,0,0,0,238,178,85,312,269,211,467,547,156,503,542,231,0,
1,1774544772464,-1445,-100,17621,4304156,1018923,364075,0,0,0,296,291,103,342,312,424,133,100,267,285,196,498,0,
2,1774544772464,-1995,-2957,20981,5745798,-399505,449596,0,0,0,303,180,97,324,257,226,578,590,226,589,530,261,0,
1,1774544772480,-1789,62,19363,5516113,1353677,541226,0,0,0,195,271,88,343,342,414,140,107,251,261,205,476,0,
2,1774544772480,-1718,-4245,19851,3793473,232128,-145385,0,0,0,334,179,141,317,250,243,594,559,209,616,523,284,0,
1,1774544772496,-1722,-100,24512,6775717,1944994,684169,0,0,0,136,229,96,309,286,376,133,99,222,229,183,452,0,
2,1774544772496,1397,-2029,15194,1776396,327423,-263893,0,0,0,344,187,161,315,247,263,602,565,227,629,518,301,0,
1,1774544772512,-1445,-890,33404,8124507,2597398,734260,0,0,0,92,144,85,259,231,340,133,100,207,192,152,399,0,
2,1774544772512,2282,-301,10892,748920,111177,57421,0,0,0,361,201,156,331,257,283,609,580,262,642,527,338,0,
1,1774544772528,-2622,-1751,39406,9501397,2943148,627969,0,0,0,38,52,40,203,181,272,131,92,167,164,127,307,0,
2,1774544772528,1105,-430,9858,417831,-28099,129503,0,0,0,378,214,196,336,271,297,606,574,269,656,550,378,0,
1,1774544772544,-6853,2225,35596,10192897,2070833,734260,0,0,0,23,28,38,175,141,233,122,85,139,152,113,253,0,
2,1774544772544,636,-536,10184,197920,-100181,37873,0,0,0,384,220,262,335,283,319,621,571,265,684,559,392,0,
1,1774544772560,-8963,10638,28839,10447017,734260,1161865,0,0,0,42,46,59,180,131,231,121,91,133,153,108,239,0,
2,1774544772560,866,-220,10385,50090,-151494,-13439,0,0,0,392,226,266,356,293,335,618,552,234,706,555,388,0,
1,1774544772576,-6054,14304,16783,10241766,98960,1175304,0,0,0,46,43,43,196,140,210,141,94,112,174,104,217,0,
2,1774544772576,985,47,10308,-20769,-195476,-13439,0,0,0,400,229,254,336,268,306,605,547,229,677,548,369,0,
1,1774544772592,-1847,12969,10385,7241196,974940,201585,0,0,0,30,25,22,200,132,185,155,83,90,193,98,204,0,
2,1774544772592,890,81,10217,-1221,-194255,-1221,0,0,0,422,223,252,348,285,299,646,570,277,685,560,392,0,
1,1774544772608,-981,13141,9624,2009746,1868025,-627969,0,0,0,25,18,21,185,109,178,133,65,95,177,89,215,0,
2,1774544772608,804,52,10246,43982,-147829,-10995,0,0,0,395,216,222,329,286,304,589,535,262,643,534,377,0,
1,1774544772624,-4331,12017,11170,-2603507,1198517,-439822,0,0,0,33,22,18,195,113,172,147,63,96,181,92,211,0,
2,1774544772624,794,62,10217,92851,-100181,-19547,0,0,0,443,217,215,389,307,309,605,521,294,638,511,382,0,
1,1774544772640,-4685,8466,9461,-3926641,-871093,307876,0,0,0,29,17,17,180,113,179,128,67,102,163,94,214,0,
2,1774544772640,837,47,10098,129503,-80634,-19547,0,0,0,422,227,162,350,282,296,554,461,243,630,507,382,0,
1,1774544772656,-1847,5637,7322,-4366464,-2474004,860098,0,0,0,24,24,26,191,117,180,130,67,99,163,94,207,0,
2,1774544772656,871,9,9997,138055,-94073,-19547,0,0,0,414,217,166,326,259,266,564,465,250,595,444,366,0,
1,1774544772672,995,4828,6786,-4659680,-2349387,894306,0,0,0,28,28,26,188,115,174,137,73,98,171,98,207,0,
2,1774544772672,875,0,9954,134390,-119729,-25656,0,0,0,414,228,193,337,263,309,548,444,267,574,427,405,0,
1,1774544772688,1856,4302,7116,-5072624,-1784948,753807,0,0,0,26,15,20,184,107,171,142,68,107,172,90,214,0,
2,1774544772688,847,-28,9911,129503,-147829,-32986,0,0,0,400,244,186,324,274,295,517,434,257,535,427,373,0,
1,1774544772704,1076,3776,7930,-5536882,-1307251,521678,0,0,0,26,10,18,180,110,167,134,69,101,166,90,213,0,
2,1774544772704,775,-38,9887,131946,-153938,-41538,0,0,0,407,253,166,322,271,280,516,438,235,518,405,357,0,
1,1774544772720,-110,3436,9169,-6054896,-1253495,309097,0,0,0,16,8,20,187,108,173,133,64,98,170,86,212,0,
2,1774544772720,717,-28,9944,160046,-133168,-45204,0,0,0,417,266,167,343,280,291,515,403,235,500,372,385,0,
1,1774544772736,-923,3058,10562,-6535036,-1413542,182037,0,0,0,10,2,19,190,104,175,130,64,99,168,82,207,0,
2,1774544772736,703,-38,10002,204028,-100181,-46425,0,0,0,420,292,178,364,316,311,513,360,248,487,339,419,0,
1,1774544772752,-1220,2230,12184,-6912551,-1712866,125838,0,0,0,19,7,22,180,109,188,125,78,110,164,94,217,0,
2,1774544772752,737,-100,9997,230907,-79412,-43982,0,0,0,433,315,175,368,352,334,512,349,233,499,313,442,0,
1,1774544772768,-837,1105,13998,-7016398,-2039068,61086,0,0,0,48,18,38,177,118,190,124,90,112,163,108,221,0,
2,1774544772768,775,-162,9973,230907,-85521,-43982,0,0,0,455,320,185,386,364,365,467,298,207,468,301,471,0,
1,1774544772784,-119,263,16128,-6984633,-2283414,-106290,0,0,0,51,14,40,184,111,177,127,77,100,161,96,208,0,
2,1774544772784,770,-196,9987,227241,-100181,-45204,0,0,0,515,356,203,439,381,408,498,295,252,449,271,507,0,
1,1774544772800,583,-81,18975,-6989520,-2284635,-448375,0,0,0,17,5,21,181,93,185,128,55,105,161,77,218,0,
2,1774544772800,727,-210,10021,230907,-103847,-46425,0,0,0,511,352,206,446,366,385,473,204,222,440,218,534,0,
1,1774544772816,1153,-837,22488,-7181331,-2152689,-906524,0,0,0,21,15,26,179,93,187,129,53,106,162,78,226,0,
2,1774544772816,698,-234,10064,245567,-80634,-47647,0,0,0,548,366,257,414,399,417,500,199,258,451,210,579,0,
1,1774544772832,1411,-3450,26192,-7529524,-2084272,-1447750,0,0,0,15,10,27,180,95,189,128,55,109,158,78,223,0,
2,1774544772832,722,-263,10155,274889,-35430,-51312,0,0,0,597,384,258,440,413,449,450,202,283,395,157,565,0,
1,1774544772848,1689,-8901,29930,-7671245,-2373822,-2013411,0,0,0,11,6,22,177,98,174,128,57,101,162,80,211,0,
2,1774544772848,770,-291,10375,334754,-1221,-62308,0,0,0,599,448,228,498,468,457,496,187,301,368,150,620,0,
1,1774544772864,3369,-17468,32017,-7385360,-2803871,-2560747,0,0,0,29,24,26,192,110,170,145,84,111,178,94,209,0,
2,1774544772864,760,-315,10720,460592,1221,-74525,0,0,0,614,494,188,552,517,509,434,173,305,295,130,661,0,
1,1774544772880,3268,-27791,30332,-7177666,-2244318,-2954144,0,0,0,18,8,18,184,108,170,175,89,120,172,91,203,0,
2,1774544772880,818,-378,11107,669508,39095,-84299,0,0,0,644,524,198,575,538,531,390,140,310,225,59,700,0,
1,1774544772896,-5168,-41277,22201,-6361550,-531452,-2548529,0,0,0,18,17,24,178,108,178,163,82,122,165,91,213,0,
2,1774544772896,1210,-497,11911,949284,89186,-138055,0,0,0,657,525,202,545,544,519,366,137,290,168,33,712,0,
1,1774544772912,-11208,-50370,13960,-4194200,-981049,-874759,0,0,0,26,24,26,187,112,188,164,71,123,173,92,218,0,
2,1774544772912,933,-263,13720,1426981,79412,-202807,0,0,0,673,503,193,491,526,507,308,135,266,126,23,706,0,
1,1774544772928,-1378,-51954,10705,-1324355,-4145331,1428202,0,0,0,10,9,9,157,103,153,212,157,123,171,108,174,0,
2,1774544772928,765,-124,14922,2180788,-79412,-185703,0,0,0,688,494,194,463,519,506,251,124,258,105,8,716,0,
1,1774544772944,18894,-38698,13663,805120,-4051258,2156354,0,0,0,0,0,0,133,85,110,251,268,105,193,221,129,0,
2,1774544772944,1292,-315,15022,2948035,-365297,-179594,0,0,0,688,490,202,448,526,498,233,136,250,101,35,726,0,
1,1774544772960,17607,-7848,12347,2615724,1850921,928515,0,0,0,0,0,0,148,97,99,305,382,94,289,364,116,0,
2,1774544772960,1813,-454,15348,3622430,-670730,-257785,0,0,0,682,466,212,424,505,473,206,132,225,102,57,688,0,
1,1774544772976,2502,7427,10160,4636467,5615073,-758694,0,0,0,0,0,0,179,125,111,368,501,101,384,482,115,0,
2,1774544772976,2459,-402,17114,4502076,-960280,-408057,0,0,0,618,467,187,424,530,460,161,108,165,104,46,626,0,
1,1774544772992,-469,2881,15467,6097656,4278500,-1534493,0,0,0,0,0,0,217,127,135,429,569,123,437,546,138,0,
2,1774544772992,3311,-301,19612,5555208,-1350012,-625526,0,0,0,548,468,163,443,546,412,198,142,161,157,90,550,0,
1,1774544773008,5101,-4369,21646,5866749,1276708,-1004262,0,0,0,5,0,0,264,111,169,521,563,150,497,541,191,0,
2,1774544773008,4498,-296,24082,6756169,-2007303,-918741,0,0,0,464,461,150,418,498,380,190,129,145,133,62,494,0,
1,1774544773024,3790,-3053,20928,4284608,101403,-89186,0,0,0,23,0,5,270,107,180,607,546,148,505,539,216,0,
2,1774544773024,5345,-985,30648,7974234,-2899166,-1229060,0,0,0,402,320,130,402,378,347,209,131,167,146,30,415,0,
1,1774544773040,-57,-995,16625,2722015,-171042,64751,0,0,0,14,0,13,258,103,206,612,557,161,527,500,246,0,
2,1774544773040,6097,-2191,35448,8944288,-3674965,-1376890,0,0,0,313,286,114,305,316,244,201,125,137,132,41,339,0,
1,1774544773056,-1234,-612,12065,1561371,-301767,-212581,0,0,0,41,0,14,294,103,192,660,531,142,529,500,231,0,
2,1774544773056,8236,248,33256,9688322,-3404962,-1423316,0,0,0,237,205,100,279,276,216,211,128,130,116,70,257,0,
1,1774544773072,-335,-1028,10514,979827,-353080,-215024,0,0,0,85,10,34,302,87,234,685,512,154,553,456,278,0,
2,1774544773072,9294,9413,25943,10096380,-2113593,-1716531,0,0,0,217,198,100,266,266,208,186,126,114,123,86,237,0,
1,1774544773088,-62,-746,10279,603534,-262672,-95294,0,0,0,124,15,48,330,80,273,689,462,184,557,432,306,0,
2,1774544773088,9743,15089,15625,9473298,-1098335,-2229658,0,0,0,216,191,105,271,275,226,186,142,118,101,76,250,0,
1,1774544773104,-282,-215,10361,404392,-150272,-7330,0,0,0,93,5,39,328,93,272,696,402,201,546,410,317,0,
2,1774544773104,8662,16065,10662,5627290,792903,-2752558,0,0,0,215,189,105,275,287,233,207,152,136,87,68,248,0,
1,1774544773120,-406,-110,10227,326202,-105068,2443,0,0,0,82,25,36,328,140,283,683,376,212,521,381,324,0,
2,1774544773120,3153,16759,11390,-107512,2774549,-2800206,0,0,0,219,195,104,284,299,225,212,141,126,105,84,238,0,
1,1774544773136,-368,-177,10184,296880,-85521,9773,0,0,0,82,30,38,323,148,304,669,360,252,487,330,333,0,
2,1774544773136,-1617,12912,12237,-3370754,2288301,-1808161,0,0,0,224,180,106,301,299,225,186,125,92,116,99,239,0,
1,1774544773152,-296,-191,10251,289550,-59864,24434,0,0,0,80,25,37,320,136,310,657,355,281,471,263,336,0,
2,1774544773152,-2220,8566,9006,-4164879,967610,-549778,0,0,0,220,176,105,288,275,215,151,110,84,110,89,239,0,
1,1774544773168,-268,-196,10227,293215,-41538,30543,0,0,0,78,23,37,318,126,291,651,318,275,448,212,334,0,
2,1774544773168,-559,7413,5996,-3911980,486248,254119,0,0,0,215,180,111,281,270,236,172,128,109,104,77,247,0,
1,1774544773184,-277,-234,10122,294437,-42760,20769,0,0,0,82,22,40,322,118,265,647,253,257,393,184,331,0,
2,1774544773184,330,7183,5498,-4196644,555887,741590,0,0,0,210,168,114,279,266,235,202,154,155,95,72,269,0,
1,1774544773200,-335,-287,10054,300545,-45204,10995,0,0,0,105,35,42,340,133,260,622,227,249,352,155,321,0,
2,1774544773200,741,6757,6824,-4918686,828333,1006705,0,0,0,214,173,116,269,275,220,178,106,91,91,79,263,0,
1,1774544773216,-406,-354,9954,309097,-30543,12217,0,0,0,113,38,43,325,130,266,624,173,260,341,138,323,0,
2,1774544773216,1210,5900,8399,-5544212,1070235,1076344,0,0,0,215,172,99,283,277,231,177,119,83,96,61,235,0,
1,1774544773232,-425,-430,9825,295658,-2443,24434,0,0,0,111,42,51,331,145,285,607,171,267,337,132,335,0,
2,1774544773232,1698,4450,10088,-6059783,1448972,917519,0,0,0,219,172,94,275,267,219,183,119,115,79,52,208,0,
1,1774544773248,-397,-478,9801,255341,20769,41538,0,0,0,102,39,49,324,164,302,595,159,315,333,127,359,0,
2,1774544773248,1679,2804,12012,-6469062,1886351,627969,0,0,0,212,163,94,276,257,203,205,137,124,94,64,214,0,
1,1774544773264,-373,-488,9882,217468,50090,57421,0,0,0,110,41,41,316,149,286,589,174,312,314,129,359,0,
2,1774544773264,1143,1402,14041,-6695083,2133141,343306,0,0,0,210,160,99,284,269,218,206,140,128,103,71,219,0,
1,1774544773280,-320,-512,9911,185703,98960,65973,0,0,0,87,17,37,340,143,283,602,143,296,323,104,369,0,
2,1774544773280,531,4,16333,-6850242,2123367,85521,0,0,0,208,161,97,287,267,219,199,144,137,110,73,222,0,
1,1774544773296,-263,-550,9901,150272,135612,67195,0,0,0,70,23,37,333,153,316,588,167,333,308,124,396,0,
2,1774544773296,411,-679,18171,-6983411,2019520,61086,0,0,0,208,154,95,286,256,210,216,126,154,115,60,228,0,
1,1774544773312,-234,-564,9944,113620,160046,65973,0,0,0,66,35,35,357,173,335,573,162,320,310,133,412,0,
2,1774544773312,598,-1172,20038,-7097032,1925447,246789,0,0,0,209,149,97,279,247,208,212,84,136,109,38,227,0,
1,1774544773328,-210,-583,10016,91629,183259,73303,0,0,0,86,47,38,370,177,354,563,148,303,316,132,445,0,
2,1774544773328,1387,-2086,23177,-7139792,1871691,762359,0,0,0,209,153,97,286,251,215,187,59,103,102,33,220,0,
1,1774544773344,-162,-583,10107,78190,200363,80634,0,0,0,127,77,68,361,185,371,539,143,311,300,125,492,0,
2,1774544773344,2316,-4125,27231,-7021285,1936442,1429424,0,0,0,214,155,102,315,273,236,214,71,137,108,44,226,0,
1,1774544773360,-134,-588,10136,85521,215024,91629,0,0,0,157,83,76,373,200,394,504,133,309,290,116,523,0,
2,1774544773360,3187,-8222,30500,-6961420,2020742,2108706,0,0,0,216,152,101,298,254,224,236,118,181,118,51,236,0,
1,1774544773376,-62,-588,10174,139277,201585,100181,0,0,0,170,79,60,402,228,408,498,127,301,302,117,539,0,
2,1774544773376,3115,-16793,30409,-6880786,2581516,2520429,0,0,0,215,160,103,297,273,210,242,95,165,108,59,229,0,
1,1774544773392,9,-583,10413,246789,153938,102625,0,0,0,186,107,59,415,286,405,503,142,303,306,142,555,0,
2,1774544773392,1100,-28418,27422,-6362772,3577226,2575407,0,0,0,213,176,99,289,279,223,234,95,127,113,63,225,0,
1,1774544773408,4,-593,10873,426383,48869,100181,0,0,0,206,140,58,416,347,430,440,155,299,291,173,564,0,
2,1774544773408,-2431,-38430,21780,-4998099,4172209,2042733,0,0,0,222,169,105,278,262,224,208,95,111,115,44,222,0,
1,1774544773424,-555,-674,11438,690277,-118507,139277,0,0,0,228,169,69,411,341,456,356,138,293,301,163,580,0,
2,1774544773424,-7456,-42287,15774,-2803871,3546683,717155,0,0,0,218,165,112,292,250,240,241,104,167,114,43,240,0,
1,1774544773440,-880,-732,12701,1094670,-293215,266337,0,0,0,259,184,78,402,338,424,326,146,277,300,170,579,0,
2,1774544773440,-13586,-42675,12754,-869872,2267531,-690277,0,0,0,174,154,86,285,262,198,322,197,136,227,201,218,0,
1,1774544773456,-86,-564,14620,1659109,-234572,348193,0,0,0,293,196,87,390,295,420,269,110,241,297,172,575,0,
2,1774544773456,-16061,-34563,17142,1015258,69638,-1122770,0,0,0,169,153,72,283,279,194,366,359,140,319,394,192,0,
1,1774544773472,14,-516,15075,2388483,194255,287106,0,0,0,300,190,92,363,258,428,181,94,301,313,163,535,0,
2,1774544773472,-8638,-12878,15620,3644422,-2425134,-663399,0,0,0,194,150,85,310,278,239,438,494,176,435,536,193,0,
1,1774544773488,-339,-646,15017,3028669,605978,260228,0,0,0,298,196,95,344,252,443,143,80,285,313,182,498,0,
2,1774544773488,1804,5479,11591,6249151,-3582113,184481,0,0,0,229,159,97,318,278,263,505,605,212,543,629,226,0,
1,1774544773504,-918,-579,16793,3821572,900415,321315,0,0,0,248,187,75,342,282,404,119,88,250,284,187,460,0,
2,1774544773504,406,899,18023,6767165,-1982868,557109,0,0,0,272,182,105,309,281,255,548,666,229,602,664,262,0,
1,1774544773520,-1545,-191,19932,4929682,1176526,456927,0,0,0,225,229,101,327,279,373,118,90,225,254,173,401,0,
2,1774544773520,-2287,-4412,23187,5593082,-339641,223576,0,0,0,307,201,114,323,279,255,581,652,223,642,651,287,0,
1,1774544773536,-1478,253,25422,6593679,1595580,641408,0,0,0,165,215,108,276,271,356,113,95,215,212,168,400,0,
2,1774544773536,-411,-3646,19794,3544240,334754,-277332,0,0,0,326,212,119,332,286,265,584,636,206,684,643,323,0,
1,1774544773552,-1172,-282,35022,8352971,2051285,665843,0,0,0,96,136,85,235,240,333,110,96,207,175,153,391,0,
2,1774544773552,1799,-512,12964,2345722,267558,-133168,0,0,0,371,210,174,333,287,296,629,632,215,709,619,339,0,
1,1774544773568,-2479,-378,40358,9848369,2062281,582765,0,0,0,48,52,45,207,167,260,124,85,169,166,118,304,0,
2,1774544773568,1885,57,10155,1736079,223576,94073,0,0,0,404,199,136,347,301,282,653,632,196,695,607,348,0,
1,1774544773584,-5833,3235,38162,10756115,1210734,686612,0,0,0,24,14,13,172,115,177,133,77,117,171,97,223,0,
2,1774544773584,1325,-1440,11217,1182635,182037,103847,0,0,0,362,203,124,399,300,334,677,635,249,695,563,365,0,
1,1774544773600,-6972,13749,27858,10680367,338419,1204626,0,0,0,33,20,21,175,131,193,121,79,116,157,100,231,0,
2,1774544773600,1373,-1172,11026,489913,-4886,12217,0,0,0,378,225,126,370,300,333,663,610,266,689,546,409,0,
1,1774544773616,-5455,19621,9954,9046914,597426,1425759,0,0,0,17,5,13,180,134,196,126,84,113,153,98,225,0,
2,1774544773616,1440,-239,10169,212581,-158824,-24434,0,0,0,380,249,127,375,325,340,655,581,245,681,522,395,0,
1,1774544773632,-3278,17530,7906,4233296,1260825,860098,0,0,0,2,3,20,184,126,179,145,79,110,156,88,212,0,
2,1774544773632,1344,-105,10011,240680,-173485,-17104,0,0,0,412,262,128,355,313,285,613,526,222,674,526,386,0,
1,1774544773648,-2474,14079,11189,-1436755,1119105,194255,0,0,0,45,32,49,158,110,184,125,67,105,153,82,212,0,
2,1774544773648,1268,-253,10174,240680,-156381,-15882,0,0,0,440,278,129,380,338,336,607,483,223,651,471,423,0,
1,1774544773664,-2785,9638,11744,-4150218,95294,-54977,0,0,0,55,37,44,190,110,173,151,72,100,172,91,207,0,
2,1774544773664,1253,-320,10222,206472,-152716,-24434,0,0,0,440,291,142,382,329,352,586,464,209,620,426,475,0,
1,1774544773680,-1785,6700,7642,-4089131,-561996,160046,0,0,0,55,39,52,181,105,181,127,67,101,160,90,216,0,
2,1774544773680,1268,-301,10093,189368,-167377,-30543,0,0,0,445,300,148,370,308,342,571,421,188,578,410,465,0,
1,1774544773696,-215,5604,5259,-3919311,-548556,441044,0,0,0,47,25,42,184,105,178,130,66,100,162,87,204,0,
2,1774544773696,1296,-311,9954,195476,-202807,-32986,0,0,0,452,306,151,389,328,364,578,400,221,537,385,444,0,
1,1774544773712,794,5441,5589,-4312708,-140499,648738,0,0,0,66,23,44,211,97,187,146,61,113,183,84,228,0,
2,1774544773712,1258,-368,9877,202807,-241902,-41538,0,0,0,457,304,166,395,348,384,563,383,247,498,361,464,0,
1,1774544773728,368,5092,7001,-4957782,42760,772133,0,0,0,76,33,58,199,94,196,150,65,127,180,78,246,0,
2,1774544773728,1158,-411,9844,212581,-252898,-51312,0,0,0,464,302,171,350,329,359,522,313,215,454,356,484,0,
1,1774544773744,-827,4436,8518,-5492900,-260228,955393,0,0,0,58,27,47,175,95,172,134,61,108,158,72,218,0,
2,1774544773744,1076,-425,9877,222354,-232128,-52534,0,0,0,449,314,155,355,351,357,522,290,253,439,310,516,0,
1,1774544773760,-1129,3900,9834,-5878967,-788016,1112996,0,0,0,60,21,40,189,91,152,161,59,93,176,69,193,0,
2,1774544773760,1095,-440,9925,229685,-199142,-45204,0,0,0,457,321,156,408,385,398,522,257,268,440,269,519,0,
1,1774544773776,-861,3278,11447,-6315124,-1334129,1187522,0,0,0,86,28,54,219,82,162,208,58,102,213,72,203,0,
2,1774544773776,1139,-483,9964,254119,-183259,-52534,0,0,0,498,328,142,431,386,363,508,248,246,449,268,524,0,
1,1774544773792,-397,2392,13563,-6723182,-1738522,1105666,0,0,0,95,34,65,211,82,179,186,56,113,197,74,220,0,
2,1774544773792,1057,-531,9940,296880,-183259,-72082,0,0,0,504,328,141,413,372,390,507,257,300,398,210,528,0,
1,1774544773808,-234,1459,15941,-6973637,-1923003,882089,0,0,0,88,34,63,179,84,174,143,62,117,156,73,215,0,
2,1774544773808,957,-574,9916,328645,-157603,-78190,0,0,0,518,360,161,485,404,440,459,205,239,390,197,564,0,
1,1774544773824,-545,435,18870,-7172779,-1993864,496022,0,0,0,68,35,65,150,83,170,130,55,113,137,69,208,0,
2,1774544773824,899,-612,9935,346971,-101403,-69638,0,0,0,550,369,174,450,406,465,420,262,305,397,240,612,0,
1,1774544773840,-1450,-1828,22263,-7297396,-2201558,50090,0,0,0,58,25,65,148,85,182,131,52,139,121,57,209,0,
2,1774544773840,918,-660,10026,362853,-32986,-57421,0,0,0,580,387,170,476,412,456,447,180,274,346,162,621,0,
1,1774544773856,-2129,-7403,25570,-6867347,-2877175,-568104,0,0,0,68,35,67,148,79,172,137,59,139,129,58,209,0,
2,1774544773856,971,-722,10112,382401,29321,-51312,0,0,0,601,378,155,492,444,474,441,114,239,303,136,631,0,
1,1774544773872,-1110,-13596,27891,-5946162,-3630982,-1489289,0,0,0,71,36,63,163,85,172,130,54,112,145,67,214,0,
2,1774544773872,1048,-799,10145,397062,98960,-51312,0,0,0,602,385,163,466,442,499,457,179,300,268,79,669,0,
1,1774544773888,1966,-17362,28360,-5374392,-3738495,-2500882,0,0,0,72,35,63,165,84,167,130,52,105,147,69,206,0,
2,1774544773888,1024,-851,10270,416610,190589,-54977,0,0,0,611,390,169,456,440,501,448,195,322,233,34,698,0,
1,1774544773904,4024,-20464,26948,-5822767,-3049439,-3123964,0,0,0,71,33,62,168,90,168,133,56,103,147,69,203,0,
2,1774544773904,1172,-918,10801,511905,387288,-56199,0,0,0,628,382,179,473,472,510,423,139,298,187,34,713,0,
1,1774544773920,1957,-27255,22498,-6279694,-2388483,-2779436,0,0,0,74,35,63,171,89,166,146,57,107,152,67,201,0,
2,1774544773920,1483,-928,11533,756251,594982,-108734,0,0,0,637,378,197,498,511,534,402,128,295,142,51,726,0,
1,1774544773936,-722,-34237,16755,-5359731,-2179567,-1684766,0,0,0,84,37,63,181,88,165,158,55,108,161,66,201,0,
2,1774544773936,1201,-823,12390,1076344,547335,-129503,0,0,0,646,385,194,514,518,528,348,157,287,125,52,731,0,
1,1774544773952,-397,-38635,12711,-3503923,-2247984,-164933,0,0,0,70,27,56,162,82,151,177,95,114,152,70,182,0,
2,1774544773952,1014,-823,12878,1489289,211359,-68416,0,0,0,660,399,193,484,521,520,286,143,278,131,30,731,0,
1,1774544773968,4565,-41445,10815,-1607797,-2652376,1298699,0,0,0,36,16,35,126,77,118,211,183,107,157,147,142,0,
2,1774544773968,1359,-981,13084,1991420,-100181,-10995,0,0,0,671,452,197,496,537,524,289,165,291,119,52,748,0,
1,1774544773984,16549,-34338,14352,908967,-915076,851546,0,0,0,14,10,10,122,85,90,254,297,87,210,273,112,0,
2,1774544773984,1765,-1148,13687,2533869,-249233,-36651,0,0,0,656,431,193,507,480,500,263,168,267,159,44,738,0,
1,1774544774000,14524,-11418,12725,3927863,2671924,-950506,0,0,0,10,7,7,145,109,100,289,407,98,285,338,124,0,
2,1774544774000,1990,-1287,14414,3138625,-254119,-139277,0,0,0,632,399,203,518,511,524,221,88,258,167,55,722,0,
1,1774544774016,4503,5924,12299,6131865,3932750,-2313957,0,0,0,2,16,10,152,149,126,305,443,115,366,450,139,0,
2,1774544774016,1966,-1277,15462,3894876,-312763,-251676,0,0,0,594,436,184,484,483,505,214,119,243,154,51,691,0,
1,1774544774032,3632,1167,17731,6276029,2140471,-1733635,0,0,0,20,0,9,196,93,143,431,473,121,438,490,168,0,
2,1774544774032,1914,-1134,17310,4756196,-497244,-324980,0,0,0,531,449,185,487,517,487,271,192,238,172,66,638,0,
1,1774544774048,5211,-4240,21914,5167919,747699,-410501,0,0,0,20,0,11,228,93,182,535,484,173,487,497,220,0,
2,1774544774048,1593,-1052,21607,5907066,-894306,-372627,0,0,0,481,423,165,471,538,434,253,181,228,153,75,558,0,
1,1774544774064,2153,-3962,20449,3325550,86742,405614,0,0,0,26,0,17,241,98,199,588,451,186,523,498,221,0,
2,1774544774064,813,-1048,28489,7318165,-1516167,-332310,0,0,0,432,351,164,422,494,405,213,150,219,135,64,468,0,
1,1774544774080,-966,-1091,14118,1716531,-87964,31764,0,0,0,41,11,23,257,138,212,602,461,187,545,518,233,0,
2,1774544774080,2340,-1794,34453,8840441,-1606575,-123394,0,0,0,350,274,136,361,378,349,196,102,161,110,45,368,0,
1,1774544774096,-933,-181,10327,872315,-40317,-223576,0,0,0,189,143,116,239,147,229,605,452,202,567,499,271,0,
2,1774544774096,4201,-1206,36333,10079276,-872315,-9773,0,0,0,274,220,115,294,277,261,192,87,110,98,51,270,0,
1,1774544774112,-43,-569,9753,425162,166155,-141720,0,0,0,144,106,79,252,161,214,572,429,184,596,505,263,0,
2,1774544774112,6168,5637,30538,10626611,-29321,-194255,0,0,0,245,201,117,247,242,204,190,116,117,101,74,230,0,
1,1774544774128,90,-421,10313,63529,376292,0,0,0,0,100,70,59,257,175,229,534,417,193,609,510,267,0,
2,1774544774128,8241,13357,19971,10538647,731816,-704938,0,0,0,246,206,108,253,253,201,183,130,125,98,79,236,0,
1,1774544774144,67,28,10428,-169820,453262,21991,0,0,0,112,79,65,261,181,230,512,408,187,617,511,254,0,
2,1774544774144,6245,15606,12524,8630304,972497,-1238834,0,0,0,239,200,105,279,275,220,186,142,109,97,75,219,0,
1,1774544774160,196,239,10289,-204028,361632,-8552,0,0,0,125,85,60,271,186,215,490,383,165,623,509,244,0,
2,1774544774160,966,18420,9949,2482556,120951,-1249830,0,0,0,226,182,103,287,274,227,218,164,143,104,82,221,0,
1,1774544774176,363,287,10236,-142942,227241,-14660,0,0,0,149,93,59,280,194,214,463,350,163,612,476,257,0,
2,1774544774176,-134,16831,10701,-2972470,-616973,-992045,0,0,0,216,171,98,277,277,212,199,145,112,103,77,215,0,
1,1774544774192,454,306,10232,-1221,63529,-4886,0,0,0,186,112,57,287,194,195,443,326,147,584,433,235,0,
2,1774544774192,1742,10605,11184,-6034126,-366519,-1044579,0,0,0,220,176,90,282,277,221,173,122,91,93,75,210,0,
1,1774544774208,349,277,10136,128281,-42760,-6108,0,0,0,216,141,74,269,186,190,419,310,142,542,411,229,0,
2,1774544774208,693,6307,9672,-6158743,834441,-1670105,0,0,0,224,187,98,268,258,212,205,134,118,102,74,208,0,
1,1774544774224,224,210,10050,204028,-87964,-6108,0,0,0,164,117,51,283,214,206,403,312,151,502,392,244,0,
2,1774544774224,-2694,5532,8561,-5952270,1400103,-2116037,0,0,0,223,178,100,275,259,200,196,124,113,132,79,212,0,
1,1774544774240,138,129,10011,227241,-78190,1221,0,0,0,185,131,56,296,224,220,387,299,158,489,373,257,0,
2,1774544774240,-5498,5628,8647,-6075665,985936,-2117258,0,0,0,226,174,104,276,271,195,206,125,118,113,71,214,0,
1,1774544774256,114,67,9978,218689,-32986,15882,0,0,0,178,124,63,289,221,218,374,286,153,489,322,244,0,
2,1774544774256,-4728,4704,9399,-6440963,238237,-1802052,0,0,0,227,171,99,274,266,197,210,124,126,107,75,213,0,
1,1774544774272,129,33,9964,215024,18325,35430,0,0,0,319,244,106,272,218,215,341,253,147,446,284,249,0,
2,1774544774272,-2747,3799,10299,-6756169,-1221,-1529606,0,0,0,218,166,93,274,267,195,193,106,112,107,68,208,0,
1,1774544774288,220,33,9997,230907,56199,50090,0,0,0,320,235,126,288,246,241,331,249,164,399,267,268,0,
2,1774544774288,-1474,3292,11605,-6923546,448375,-1334129,0,0,0,212,163,92,273,269,190,192,97,85,105,61,206,0,
1,1774544774304,335,33,10031,262672,48869,52534,0,0,0,299,223,114,295,257,246,304,226,157,374,257,272,0,
2,1774544774304,-1177,2866,13472,-7094588,1038470,-1071457,0,0,0,212,160,91,279,267,196,213,100,85,99,60,205,0,
1,1774544774320,349,4,10054,288328,26878,52534,0,0,0,246,201,83,309,286,252,312,216,158,370,254,287,0,
2,1774544774320,-1416,2368,15525,-7413460,1307251,-713490,0,0,0,209,151,91,288,267,212,214,94,107,90,46,204,0,
1,1774544774336,205,-43,10136,306654,42760,57421,0,0,0,236,181,66,316,303,261,304,209,163,354,241,299,0,
2,1774544774336,-1234,1320,17927,-7830070,1138652,-208915,0,0,0,212,149,95,277,251,211,187,96,109,104,49,215,0,
1,1774544774352,43,-114,10284,331088,136833,78190,0,0,0,258,173,64,318,293,254,291,194,171,333,216,318,0,
2,1774544774352,-287,43,20612,-8021882,869872,354301,0,0,0,208,154,100,284,248,211,203,104,138,102,46,226,0,
1,1774544774368,-14,-172,10437,377514,329867,114842,0,0,0,268,182,79,320,293,254,273,212,169,316,243,340,0,
2,1774544774368,1641,-1617,23842,-7866722,926071,1001818,0,0,0,208,150,108,271,241,218,216,84,126,98,48,223,0,
1,1774544774384,162,-229,10385,459370,507018,164933,0,0,0,277,209,95,321,312,279,247,226,164,307,284,350,0,
2,1774544774384,2971,-4221,27197,-7661471,1431868,1709200,0,0,0,208,146,111,275,245,212,233,113,131,100,31,232,0,
1,1774544774400,330,-301,10303,547335,540004,207694,0,0,0,305,234,88,334,306,291,260,142,183,310,213,375,0,
2,1774544774400,2641,-8978,30016,-7574728,2083050,2411695,0,0,0,218,144,104,270,244,199,244,102,155,90,22,224,0,
1,1774544774416,464,-382,10418,658512,453262,251676,0,0,0,314,228,85,354,304,290,246,136,184,304,192,423,0,
2,1774544774416,1770,-19109,30634,-7287622,2354274,2911383,0,0,0,215,144,96,298,261,224,240,115,159,103,33,212,0,
1,1774544774432,253,-516,10801,819781,331088,290771,0,0,0,332,248,98,358,313,321,257,122,186,311,182,475,0,
2,1774544774432,2196,-32093,27312,-6304129,2161241,2868623,0,0,0,214,145,95,286,239,204,243,104,143,111,38,208,0,
1,1774544774448,445,-531,11706,1025031,197920,356745,0,0,0,346,256,83,359,343,334,244,126,201,310,195,469,0,
2,1774544774448,2225,-41277,20081,-4243069,1988977,1751961,0,0,0,212,149,98,279,228,208,241,101,137,111,39,210,0,
1,1774544774464,1359,-325,12782,1298699,215024,331088,0,0,0,362,264,94,378,309,322,190,116,160,305,180,459,0,
2,1774544774464,-2742,-43900,14343,-1960877,2229658,162490,0,0,0,209,152,99,283,249,225,234,146,138,162,138,210,0,
1,1774544774480,1426,-311,13290,1728748,329867,196698,0,0,0,359,306,91,357,321,332,149,100,154,279,174,464,0,
2,1774544774480,-10916,-42703,14362,-158824,1885130,-1001818,0,0,0,203,148,87,275,249,232,257,280,136,266,319,199,0,
1,1774544774496,933,-454,13783,2329840,411723,116064,0,0,0,408,335,99,350,340,309,140,98,134,281,177,434,0,
2,1774544774496,-8021,-33495,15539,2168571,941954,-1210734,0,0,0,206,142,72,276,239,234,313,465,141,372,481,201,0,
1,1774544774512,258,-713,13941,3040887,498466,149051,0,0,0,393,348,94,357,367,315,137,100,134,270,186,443,0,
2,1774544774512,2249,-7552,11366,5199684,15882,-1461189,0,0,0,225,150,73,311,276,226,370,602,149,460,596,227,0,
1,1774544774528,-220,-942,14462,3705508,718377,278554,0,0,0,336,336,86,355,401,360,137,111,181,265,201,437,0,
2,1774544774528,9327,5920,12591,6732956,-784350,-1350012,0,0,0,264,179,90,313,279,217,463,690,133,549,667,220,0,
1,1774544774544,-899,-981,17343,4448320,1122770,454483,0,0,0,273,321,85,345,383,386,139,115,214,266,213,436,0,
2,1774544774544,5149,-268,19865,6426302,-753807,-353080,0,0,0,323,177,95,348,277,245,584,715,135,615,661,255,0,
1,1774544774560,-2206,-880,21655,5475796,1704314,675616,0,0,0,205,301,90,328,335,369,135,111,207,245,204,434,0,
2,1774544774560,-339,-4355,21952,5035973,-401949,150272,0,0,0,375,178,110,332,258,243,628,692,117,655,635,305,0,
1,1774544774576,-3986,-1048,28341,6933320,2652376,1027475,0,0,0,148,244,85,295,310,327,125,106,172,206,175,387,0,
2,1774544774576,177,-2589,17607,3243694,-86742,-36651,0,0,0,358,171,116,316,239,243,735,735,251,699,595,319,0,
1,1774544774592,-4848,-2000,36041,8210028,3711617,1385442,0,0,0,100,141,62,255,266,270,131,99,134,194,145,302,0,
2,1774544774592,1751,-851,12849,1787391,100181,-79412,0,0,0,377,171,144,320,238,283,742,698,249,702,606,404,0,
1,1774544774608,-6001,-1454,38071,9199630,4206418,1626123,0,0,0,32,31,32,222,147,201,166,84,120,216,116,243,0,
2,1774544774608,1928,-847,10629,998153,63529,37873,0,0,0,368,189,168,312,228,300,749,687,253,705,609,462,0,
1,1774544774624,-9145,5417,31983,9754296,3766595,1861917,0,0,0,20,19,22,185,126,171,141,69,103,173,97,213,0,
2,1774544774624,1268,-957,10547,561996,-67195,64751,0,0,0,382,191,144,355,261,330,765,674,272,720,606,448,0,
1,1774544774640,-10820,11610,21263,10158688,2792875,2072054,0,0,0,15,15,14,195,129,178,130,62,89,156,90,194,0,
2,1774544774640,1057,-545,10552,320093,-102625,19547,0,0,0,415,194,133,362,295,350,764,655,276,706,586,442,0,
1,1774544774656,-9045,7686,17023,10406700,1020144,1521054,0,0,0,22,31,33,177,152,199,149,87,114,171,117,218,0,
2,1774544774656,1229,-191,10308,245567,-74525,-12217,0,0,0,417,187,136,356,298,353,715,606,266,685,554,454,0,
1,1774544774672,-3732,7657,16415,8764694,-1567480,168598,0,0,0,93,98,78,161,145,165,116,105,91,142,107,193,0,
2,1774544774672,1301,-157,10184,250454,-56199,-18325,0,0,0,409,190,137,357,292,362,693,576,277,674,536,466,0,
1,1774544774688,2412,15903,8805,3381749,-1803274,-1440420,0,0,0,98,87,85,162,110,165,119,71,95,143,86,188,0,
2,1774544774688,1258,-248,10217,273667,-47647,-21991,0,0,0,412,204,138,354,291,364,703,554,280,644,513,471,0,
1,1774544774704,3101,17889,4704,-2653598,-521678,-2614503,0,0,0,113,91,99,159,100,153,111,55,89,141,80,188,0,
2,1774544774704,1239,-263,10198,270002,-34208,-34208,0,0,0,396,189,137,357,281,344,691,492,266,578,461,461,0,
1,1774544774720,-918,11782,6996,-6809925,156381,-3031113,0,0,0,115,91,95,153,97,152,111,56,93,151,79,189,0,
2,1774544774720,1239,-277,10069,250454,-15882,-41538,0,0,0,374,166,143,344,261,344,694,453,300,504,417,439,0,
1,1774544774736,-3306,5565,9964,-7832514,-1054353,-2641381,0,0,0,57,43,50,161,94,150,123,55,93,156,80,193,0,
2,1774544774736,1253,-311,9940,234572,-13439,-45204,0,0,0,350,167,142,319,230,334,629,363,219,473,352,427,0,
1,1774544774752,-2684,2651,10878,-7750658,-2324953,-1850921,0,0,0,78,61,70,153,89,144,116,52,93,152,81,199,0,
2,1774544774752,1287,-330,9882,238237,-35430,-50090,0,0,0,355,167,129,306,228,328,607,333,274,450,333,434,0,
1,1774544774768,-693,1809,10547,-7409795,-2637716,-698829,0,0,0,131,97,102,154,88,138,119,48,85,160,81,198,0,
2,1774544774768,1320,-368,9849,261450,-68416,-59864,0,0,0,346,175,139,321,247,319,583,281,253,401,335,439,0,
1,1774544774784,516,1167,10681,-7126353,-2328618,505796,0,0,0,127,95,91,157,90,142,116,44,75,163,81,181,0,
2,1774544774784,1282,-416,9844,298102,-69638,-72082,0,0,0,336,173,147,341,259,345,567,262,279,335,299,444,0,
1,1774544774800,1593,1009,11318,-6797708,-2271196,1373225,0,0,0,108,90,84,141,89,145,95,44,76,152,87,169,0,
2,1774544774800,1215,-473,9863,345749,-45204,-76969,0,0,0,351,176,142,348,276,353,569,234,260,304,269,451,0,
1,1774544774816,2426,1464,12409,-6591235,-2467895,1609019,0,0,0,116,91,90,139,89,135,102,47,80,157,93,178,0,
2,1774544774816,1172,-559,9820,378736,-2443,-69638,0,0,0,380,171,145,371,282,385,590,207,280,324,191,469,0,
1,1774544774832,2574,1655,14256,-6690196,-2637716,1293812,0,0,0,113,93,96,134,88,144,96,39,83,150,92,184,0,
2,1774544774832,1191,-641,9782,377514,29321,-58643,0,0,0,384,165,138,392,289,441,616,209,325,312,137,505,0,
1,1774544774848,2330,1153,16362,-6893003,-2712241,766025,0,0,0,109,87,113,134,83,168,96,44,102,155,87,202,0,
2,1774544774848,1253,-679,9801,350636,35430,-51312,0,0,0,389,165,143,411,282,489,617,163,332,294,114,531,0,
1,1774544774864,2330,105,19033,-7070154,-2744006,30543,0,0,0,108,84,121,133,83,175,94,41,108,148,85,210,0,
2,1774544774864,1292,-717,9853,320093,20769,-48869,0,0,0,403,172,145,432,281,504,620,138,344,293,103,557,0,
1,1774544774880,2479,-1914,21995,-7238753,-2736676,-807563,0,0,0,113,77,121,140,88,181,99,42,110,154,89,207,0,
2,1774544774880,1316,-780,9901,289550,-1221,-48869,0,0,0,423,183,137,450,306,502,612,158,377,284,93,588,0,
1,1774544774896,2574,-5910,25072,-7280291,-2829527,-1684766,0,0,0,104,75,81,156,96,153,116,56,92,148,81,184,0,
2,1774544774896,1363,-813,10007,271224,-24434,-56199,0,0,0,443,210,148,469,343,520,572,115,369,248,69,602,0,
1,1774544774912,3402,-11174,27341,-7175223,-2918714,-2263866,0,0,0,61,42,43,180,110,164,137,66,100,160,85,192,0,
2,1774544774912,1368,-813,10150,283441,-56199,-68416,0,0,0,440,262,164,494,394,552,601,104,389,206,34,636,0,
1,1774544774928,3900,-17473,28427,-7172779,-2675589,-2360383,0,0,0,58,35,34,197,118,169,161,72,103,173,89,192,0,
2,1774544774928,1325,-818,10332,317649,-83077,-72082,0,0,0,464,308,183,524,451,596,573,131,415,118,1,673,0,
1,1774544774944,2483,-26010,26786,-6965085,-2210110,-1760513,0,0,0,39,34,33,200,122,190,152,72,107,158,89,186,0,
2,1774544774944,1287,-799,10725,393397,-102625,-63529,0,0,0,514,344,179,497,449,586,517,157,437,107,8,685,0,
1,1774544774960,516,-34060,20612,-5589416,-2112371,-335975,0,0,0,12,14,26,206,125,219,140,69,117,143,85,188,0,
2,1774544774960,1368,-827,11380,549778,-133168,-52534,0,0,0,542,368,186,507,459,586,419,181,424,94,0,702,0,
1,1774544774976,3029,-38343,14845,-3541796,-2493551,1367116,0,0,0,6,6,19,218,126,203,148,75,114,151,86,189,0,
2,1774544774976,1828,-918,12730,990823,-123394,-95294,0,0,0,574,375,179,516,489,559,395,133,374,34,0,723,0,
1,1774544774992,14233,-39167,11835,-1617571,-2828306,2816088,0,0,0,8,8,10,191,113,146,211,150,111,173,126,165,0,
2,1774544774992,2292,-1033,14185,1698205,-119729,-223576,0,0,0,607,355,177,513,465,575,321,137,382,74,0,748,0,
1,1774544775008,25551,-34706,12974,-41538,-1361007,2883283,0,0,0,0,0,0,140,96,110,298,289,119,205,213,125,0,
2,1774544775008,2196,-1234,15075,2470339,-321315,-335975,0,0,0,629,371,198,533,480,567,290,151,348,98,20,743,0,
1,1774544775024,19215,-11562,14998,2072054,3608991,905302,0,0,0,0,0,0,153,104,109,327,401,107,286,336,111,0,
2,1774544775024,1569,-1000,16003,3270572,-541226,-359188,0,0,0,628,401,196,511,497,544,287,131,317,130,46,727,0,
1,1774544775040,4101,5594,12457,4620584,5902179,-1127657,0,0,0,0,0,0,182,118,122,397,513,104,406,520,124,0,
2,1774544775040,1320,-459,17817,4197865,-555887,-362853,0,0,0,581,407,169,461,520,511,265,155,321,130,63,670,0,
1,1774544775056,1469,4163,15860,6459289,4453207,-1955990,0,0,0,0,0,0,218,117,156,444,538,119,498,576,160,0,
2,1774544775056,1708,172,21440,5494121,-572991,-399505,0,0,0,516,402,145,431,547,447,239,175,280,122,87,580,0,
1,1774544775072,7255,-5020,23828,6018244,1310916,-981049,0,0,0,0,0,7,232,101,196,510,553,162,590,570,240,0,
2,1774544775072,1938,622,28178,7217983,-955393,-472809,0,0,0,450,367,133,420,519,410,213,125,183,128,82,488,0,
1,1774544775088,3642,-4737,22742,3674965,54977,45204,0,0,0,92,64,39,222,160,196,542,507,162,593,554,209,0,
2,1774544775088,1828,660,35817,9017592,-1480737,-450818,0,0,0,378,298,128,377,396,380,178,74,123,124,40,397,0,
1,1774544775104,-449,-1584,15936,1760513,-175929,103847,0,0,0,79,33,40,273,133,205,579,495,171,618,558,227,0,
2,1774544775104,3536,71,40459,10670593,-1407433,-295658,0,0,0,306,242,120,310,275,268,170,91,121,107,40,299,0,
1,1774544775120,-1244,421,9667,860098,-107512,-194255,0,0,0,74,49,42,266,133,222,599,481,190,617,561,245,0,
2,1774544775120,4680,4991,36386,11435397,-373849,-285884,0,0,0,243,191,116,285,285,238,197,129,135,92,75,244,0,
1,1774544775136,-272,-296,9581,609643,-52534,-134390,0,0,0,95,82,52,265,153,218,617,463,187,616,561,255,0,
2,1774544775136,5451,14137,28116,11491596,359188,-575435,0,0,0,245,198,126,269,270,238,188,128,157,102,105,285,0,
1,1774544775152,0,-531,10567,293215,48869,2443,0,0,0,102,82,51,266,158,214,620,458,188,616,550,255,0,
2,1774544775152,3345,18612,15352,9577145,24434,-1556484,0,0,0,242,193,116,286,272,238,208,165,113,107,85,242,0,
1,1774544775168,-157,-19,10562,65973,80634,30543,0,0,0,92,65,45,260,153,210,600,441,185,615,534,249,0,
2,1774544775168,-86,20081,8805,4668232,-1583362,-2616946,0,0,0,223,188,105,285,291,222,211,165,141,179,132,266,0,
1,1774544775184,-196,282,10208,-9773,47647,12217,0,0,0,87,59,42,261,161,210,576,398,172,596,513,241,0,
2,1774544775184,-464,18085,10308,-1762957,-3026226,-3298672,0,0,0,221,172,102,281,267,206,209,143,107,101,69,219,0,
1,1774544775200,-76,263,10112,34208,-7330,7330,0,0,0,95,72,44,265,183,216,567,369,174,558,476,246,0,
2,1774544775200,2297,12428,11064,-5089729,-2034181,-3439171,0,0,0,225,172,102,310,283,242,187,116,106,100,67,214,0,
1,1774544775216,-9,201,10251,128281,-81855,20769,0,0,0,114,90,51,263,194,215,564,367,188,532,430,270,0,
2,1774544775216,2569,8446,9183,-5899736,-488692,-3464827,0,0,0,231,173,101,290,271,218,180,106,130,120,79,220,0,
1,1774544775232,-81,157,10251,199142,-144164,24434,0,0,0,102,59,40,285,171,227,553,343,198,523,393,275,0,
2,1774544775232,1038,6422,7910,-5841093,257785,-3330437,0,0,0,223,169,99,294,277,227,192,118,137,114,78,215,0,
1,1774544775248,-224,124,10102,226020,-153938,17104,0,0,0,99,65,44,279,174,228,510,342,181,491,348,299,0,
2,1774544775248,105,5029,7944,-5715255,334754,-2959031,0,0,0,213,164,99,287,264,204,197,121,101,108,71,220,0,
1,1774544775264,-296,47,9959,215024,-97738,9773,0,0,0,105,70,60,262,182,252,498,317,209,467,339,314,0,
2,1774544775264,363,4402,8820,-5673716,147829,-2414139,0,0,0,206,161,95,276,251,186,188,120,88,114,73,224,0,
1,1774544775280,-315,-4,9873,207694,-31764,13439,0,0,0,117,104,46,272,209,247,470,287,203,436,340,325,0,
2,1774544775280,1536,4000,10299,-5992587,179594,-1756848,0,0,0,204,160,93,284,258,203,180,125,106,113,76,215,0,
1,1774544775296,-272,-33,9868,215024,25656,25656,0,0,0,133,94,52,282,202,251,465,276,208,415,300,335,0,
2,1774544775296,3158,3172,12103,-6579018,494800,-1105666,0,0,0,210,158,95,287,262,213,189,129,120,108,69,214,0,
1,1774544775312,-167,-14,10011,246789,51312,35430,0,0,0,129,99,51,302,202,258,462,246,202,400,255,361,0,
2,1774544775312,4575,1541,14036,-7178888,1175304,-504574,0,0,0,211,151,97,271,254,201,206,127,149,127,69,228,0,
1,1774544775328,-76,-23,10165,301767,40317,37873,0,0,0,134,106,50,306,221,271,431,238,213,362,244,357,0,
2,1774544775328,5326,-406,16199,-7635815,2014633,98960,0,0,0,219,147,93,294,263,210,180,95,101,118,46,210,0,
1,1774544775344,-76,-76,10179,351858,3665,30543,0,0,0,146,110,61,316,233,285,418,233,204,338,239,361,0,
2,1774544775344,5039,-1794,18583,-7804414,2620611,605978,0,0,0,210,146,90,297,247,215,177,99,95,120,65,221,0,
1,1774544775360,-100,-148,10169,401949,-26878,28099,0,0,0,163,125,81,318,239,309,405,201,213,312,205,404,0,
2,1774544775360,4551,-2660,21866,-7789753,2775771,1128878,0,0,0,210,153,98,297,280,225,215,80,124,111,65,212,0,
1,1774544775376,-143,-234,10227,443488,-51312,34208,0,0,0,182,143,89,322,257,326,375,183,232,296,179,456,0,
2,1774544775376,4723,-3747,25561,-7819075,2717128,1656666,0,0,0,210,149,86,301,282,224,168,75,33,113,63,217,0,
1,1774544775392,-248,-311,10351,488692,-78190,54977,0,0,0,202,152,81,352,268,330,354,172,226,303,172,491,0,
2,1774544775392,5407,-5967,29102,-8026769,2811201,2144136,0,0,0,214,151,95,311,272,226,162,78,60,107,45,216,0,
1,1774544775408,-464,-411,10480,554665,-97738,95294,0,0,0,220,159,74,375,271,337,337,134,217,302,160,520,0,
2,1774544775408,5288,-10801,31777,-8170933,3342654,2627942,0,0,0,240,146,93,309,257,219,183,53,64,93,45,213,0,
1,1774544775424,-603,-526,10638,669508,-75747,161268,0,0,0,242,180,77,373,302,341,312,145,214,298,175,544,0,
2,1774544775424,3259,-18157,32510,-7817853,4307821,3061656,0,0,0,234,173,92,295,255,207,185,46,83,105,55,213,0,
1,1774544775440,-411,-612,10859,831998,17104,212581,0,0,0,282,216,103,390,315,385,314,137,240,287,156,571,0,
2,1774544775440,-665,-28724,29882,-6762278,4901582,3106860,0,0,0,224,185,90,299,263,217,222,83,123,109,52,213,0,
1,1774544775456,-28,-626,11390,987158,106290,217468,0,0,0,303,217,105,378,312,382,270,142,245,318,172,552,0,
2,1774544775456,-3072,-39133,23038,-5224119,4092797,2185675,0,0,0,223,174,94,299,257,223,233,90,136,112,37,213,0,
1,1774544775472,47,-598,12380,1213178,172263,182037,0,0,0,323,218,93,406,349,425,236,126,260,302,164,545,0,
2,1774544775472,-4469,-44278,15644,-3400075,2646268,34208,0,0,0,210,159,97,285,250,215,223,105,123,135,63,209,0,
1,1774544775488,-153,-612,13160,1653001,237015,182037,0,0,0,332,229,102,390,333,439,188,108,265,303,177,540,0,
2,1774544775488,-11395,-44943,13213,-1298699,1653001,-2200336,0,0,0,186,148,91,281,252,210,254,222,106,211,195,196,0,
1,1774544775504,-143,-679,13505,2212553,335975,197920,0,0,0,326,235,92,390,322,392,161,98,238,330,195,528,0,
2,1774544775504,-17358,-38401,17334,831998,106290,-2652376,0,0,0,189,145,91,299,256,216,316,393,103,348,409,182,0,
1,1774544775520,-181,-851,13673,2803871,521678,206472,0,0,0,332,235,99,374,299,403,140,87,235,317,183,504,0,
2,1774544775520,-8418,-11591,12782,3985284,-1591914,-1330464,0,0,0,206,159,115,312,289,227,366,491,137,432,554,178,0,
1,1774544775536,-378,-880,15180,3434284,735481,238237,0,0,0,304,244,83,375,325,447,124,83,211,305,184,497,0,
2,1774544775536,3589,5982,9136,6762278,-1740965,-135612,0,0,0,240,179,89,398,330,247,447,640,147,532,633,196,0,
1,1774544775552,-1043,-636,17860,4340808,963945,316428,0,0,0,254,272,74,362,353,425,124,94,207,287,200,486,0,
2,1774544775552,4819,1392,17372,7838622,-679282,333532,0,0,0,272,178,102,316,259,253,509,682,153,589,657,230,0,
1,1774544775568,-1880,-483,20215,5705481,1413542,521678,0,0,0,200,289,76,342,350,388,135,107,218,262,196,452,0,
2,1774544775568,-311,-4718,23737,6437297,118507,-21991,0,0,0,304,195,104,331,268,244,591,728,169,637,661,263,0,
1,1774544775584,-1450,-703,25738,7020063,2012190,693942,0,0,0,145,253,88,287,302,394,124,100,222,212,175,439,0,
2,1774544775584,162,-3742,21258,4348138,368962,-422718,0,0,0,330,201,124,382,298,289,649,703,196,656,628,265,0,
1,1774544775600,-205,-1497,36616,8503244,2742784,693942,0,0,0,95,169,90,226,240,367,110,92,203,172,155,416,0,
2,1774544775600,2876,-961,14859,2586403,304210,-251676,0,0,0,353,217,137,342,288,272,699,691,201,686,621,317,0,
1,1774544775616,-1660,-1780,41411,9979094,3081204,438601,0,0,0,58,77,58,210,182,260,127,89,153,178,122,308,0,
2,1774544775616,2574,-837,11160,1422094,69638,86742,0,0,0,373,222,149,352,282,276,710,666,195,707,627,362,0,
1,1774544775632,-6278,2388,37941,10803762,2368935,401949,0,0,0,34,27,32,170,112,178,138,62,112,171,84,219,0,
2,1774544775632,1593,-1354,10413,752585,-131946,123394,0,0,0,384,234,186,416,306,293,694,647,212,709,630,397,0,
1,1774544775648,-9796,11548,28595,11087204,698829,912632,0,0,0,25,28,40,201,122,207,138,59,113,173,89,233,0,
2,1774544775648,1397,-1005,10500,333532,-243124,13439,0,0,0,418,244,211,408,301,294,702,651,241,719,636,420,0,
1,1774544775664,-9002,11720,18923,11129964,-460592,1069014,0,0,0,40,39,42,216,128,206,145,68,105,173,90,209,0,
2,1774544775664,1526,-358,10313,97738,-305432,-35430,0,0,0,444,251,202,348,271,279,720,649,250,730,635,419,0,
1,1774544775680,-4867,9337,13247,9336464,-1091005,390953,0,0,0,18,9,25,208,122,206,144,64,113,178,90,223,0,
2,1774544775680,1526,-52,10122,52534,-323758,-17104,0,0,0,430,265,191,342,272,271,706,624,236,730,619,419,0,
1,1774544775696,555,14032,9284,4549724,-792903,-709825,0,0,0,33,26,25,195,119,194,140,71,107,176,98,219,0,
2,1774544775696,1349,-119,10155,98960,-268780,-9773,0,0,0,436,273,207,355,285,287,675,590,224,731,593,439,0,
1,1774544775712,1698,16185,8164,-1921782,638965,-1550375,0,0,0,17,22,20,199,133,183,130,68,106,176,92,211,0,
2,1774544775712,1277,-148,10193,167377,-174707,-19547,0,0,0,444,273,230,363,288,292,636,545,215,685,540,427,0,
1,1774544775728,-1579,11002,9274,-5542991,1269377,-1638340,0,0,0,8,8,12,195,128,178,130,68,100,174,96,211,0,
2,1774544775728,1296,-148,10117,243124,-79412,-25656,0,0,0,411,273,177,327,266,284,585,463,243,629,494,429,0,
1,1774544775744,-3847,5867,9346,-6543588,304210,-851546,0,0,0,15,15,24,191,116,178,132,64,97,169,93,208,0,
2,1774544775744,1340,-201,9983,280998,-4886,-26878,0,0,0,438,264,201,364,317,344,601,465,277,547,443,480,0,
1,1774544775760,-1976,4714,9284,-6990741,-1080009,172263,0,0,0,33,32,38,192,117,175,124,58,92,157,88,202,0,
2,1774544775760,1402,-272,9887,266337,18325,-31764,0,0,0,421,261,195,354,263,295,604,409,275,574,395,468,0,
1,1774544775776,1454,4704,10504,-7617489,-1648114,944397,0,0,0,46,41,45,186,117,168,120,57,92,152,87,202,0,
2,1774544775776,1450,-335,9825,224798,-19547,-40317,0,0,0,394,270,204,363,288,336,562,332,248,537,367,447,0,
1,1774544775792,2799,3575,11911,-8084190,-1546710,1404990,0,0,0,51,38,45,180,110,166,120,57,94,157,88,206,0,
2,1774544775792,1440,-368,9796,199142,-74525,-50090,0,0,0,401,272,192,358,298,315,566,355,241,499,357,450,0,
1,1774544775808,1799,1641,12854,-8085412,-1262047,1663996,0,0,0,52,31,43,187,104,170,121,53,91,163,85,206,0,
2,1774544775808,1359,-373,9820,205250,-91629,-56199,0,0,0,418,281,187,373,293,318,575,311,252,479,333,452,0,
1,1774544775824,440,660,13213,-7750658,-1407433,1842369,0,0,0,54,26,49,188,100,169,128,54,92,170,79,208,0,
2,1774544775824,1306,-378,9877,243124,-62308,-54977,0,0,0,462,280,172,357,281,326,498,258,249,455,272,451,0,
1,1774544775840,320,885,14367,-7556403,-1948660,1868025,0,0,0,61,24,46,194,99,163,128,54,94,171,77,207,0,
2,1774544775840,1325,-406,9906,268780,-42760,-45204,0,0,0,470,281,163,360,318,345,481,215,235,423,213,465,0,
1,1774544775856,737,875,16329,-7588167,-2300518,1621236,0,0,0,59,27,42,203,104,164,132,54,89,168,76,200,0,
2,1774544775856,1368,-469,9920,279776,-42760,-35430,0,0,0,446,293,168,407,371,380,532,190,245,407,234,505,0,
1,1774544775872,904,134,19262,-7634593,-2368935,984714,0,0,0,43,21,46,196,99,169,122,55,92,155,67,194,0,
2,1774544775872,1430,-531,9940,283441,-57421,-36651,0,0,0,467,310,166,418,369,402,500,211,270,395,287,553,0,
1,1774544775888,799,-861,22656,-7655363,-2381152,237015,0,0,0,54,34,49,186,100,164,127,55,95,167,76,202,0,
2,1774544775888,1454,-579,9992,312763,-79412,-56199,0,0,0,499,337,166,423,388,427,486,207,268,358,243,578,0,
1,1774544775904,780,-2952,26819,-7792196,-2508212,-657290,0,0,0,56,31,47,185,97,164,127,55,95,162,76,201,0,
2,1774544775904,1397,-617,9997,350636,-91629,-75747,0,0,0,513,354,162,479,461,490,509,166,278,343,207,591,0,
1,1774544775920,1646,-7528,30686,-7940026,-2807536,-1717753,0,0,0,50,29,43,193,103,169,121,49,89,160,76,194,0,
2,1774544775920,1335,-670,10021,386066,-81855,-84299,0,0,0,553,369,159,467,490,496,523,161,312,335,121,658,0,
1,1774544775936,3082,-13208,33113,-7931474,-2917492,-2806314,0,0,0,57,32,48,188,95,170,138,55,98,158,70,194,0,
2,1774544775936,1330,-689,10270,434936,-42760,-84299,0,0,0,588,394,190,498,506,523,459,170,302,259,108,681,0,
1,1774544775952,2780,-21794,32500,-7819075,-2415361,-3638313,0,0,0,55,30,51,178,88,165,147,57,106,158,69,198,0,
2,1774544775952,1325,-693,10710,543670,0,-81855,0,0,0,631,418,180,521,496,551,486,124,305,239,48,712,0,
1,1774544775968,-2038,-33874,27183,-7282735,-1567480,-3693291,0,0,0,52,30,53,181,88,163,146,58,104,166,73,206,0,
2,1774544775968,1641,-813,11610,780685,57421,-100181,0,0,0,644,434,188,513,484,530,409,138,306,180,11,726,0,
1,1774544775984,-7997,-46202,17726,-5508782,-1717753,-2157576,0,0,0,31,25,41,183,104,175,144,66,108,168,87,231,0,
2,1774544775984,1765,-760,13280,1243721,145385,-172263,0,0,0,664,463,190,505,467,527,393,148,314,151,22,742,0,
1,1774544776000,1191,-52275,12519,-2762332,-3911980,202807,0,0,0,29,23,40,180,107,183,141,64,112,163,87,245,0,
2,1774544776000,1349,-569,14395,1849699,87964,-206472,0,0,0,687,480,191,493,494,539,305,131,289,131,53,747,0,
1,1774544776016,16898,-52084,11533,-470366,-4514294,1273043,0,0,0,31,18,34,166,98,160,181,125,117,156,95,199,0,
2,1774544776016,1411,-655,13960,2521651,-201585,-167377,0,0,0,692,469,199,468,501,543,239,127,285,61,34,749,0,
1,1774544776032,23187,-41201,13491,1375668,-1481959,566882,0,0,0,0,0,0,145,109,120,261,287,119,182,189,122,0,
2,1774544776032,1986,-909,13543,3178942,-472809,-194255,0,0,0,680,458,200,462,496,542,247,129,280,68,27,747,0,
1,1774544776048,6288,-3010,12390,3134960,2929709,-629191,0,0,0,0,0,0,156,116,107,276,395,92,281,365,115,0,
2,1774544776048,2598,-1038,14831,3798360,-651182,-337197,0,0,0,658,491,189,472,532,535,248,125,250,148,63,718,0,
1,1774544776064,-6441,18210,5508,4718323,4326147,-1180191,0,0,0,0,0,0,160,113,97,343,498,85,369,500,121,0,
2,1774544776064,2814,-808,17769,4703662,-891863,-499687,0,0,0,612,534,185,505,588,497,215,148,238,121,67,643,0,
1,1774544776080,-392,3474,12711,6440963,2532647,-1501506,0,0,0,10,6,5,190,118,115,423,572,94,466,568,135,0,
2,1774544776080,3464,-531,21459,6013357,-1317025,-680503,0,0,0,525,503,167,584,597,441,245,160,227,135,87,553,0,
1,1774544776096,6949,-6987,22799,6480058,1027475,-1161865,0,0,0,97,56,45,210,110,161,522,606,132,484,598,186,0,
2,1774544776096,3665,-368,28427,7547850,-1991420,-869872,0,0,0,460,460,163,418,500,426,214,132,191,119,63,481,0,
1,1774544776112,5537,-4766,24718,4819726,397062,-39095,0,0,0,7,3,7,260,112,190,575,596,150,551,588,218,0,
2,1774544776112,4321,-1115,36362,9170308,-2555860,-954171,0,0,0,359,346,155,375,395,369,177,130,133,135,24,407,0,
1,1774544776128,-760,-382,18717,2938261,139277,414166,0,0,0,171,100,97,248,113,217,563,600,165,580,586,246,0,
2,1774544776128,6862,-2239,39870,10616837,-2219884,-957836,0,0,0,259,196,113,324,293,264,183,79,125,114,49,280,0,
1,1774544776144,-1340,129,12648,1770287,-75747,15882,0,0,0,95,43,54,249,106,221,616,596,186,613,577,248,0,
2,1774544776144,9102,4690,32787,11072543,-871093,-1243721,0,0,0,243,181,121,313,288,253,204,96,111,124,46,264,0,
1,1774544776160,95,-449,10050,1182635,-166155,-217468,0,0,0,61,21,36,260,116,226,629,569,186,628,558,256,0,
2,1774544776160,10835,11275,23579,10978470,-63529,-1868025,0,0,0,230,189,114,288,285,235,185,108,78,97,62,256,0,
1,1774544776176,296,-607,10552,850324,-72082,-111177,0,0,0,68,36,36,271,135,220,628,532,165,633,542,280,0,
2,1774544776176,10246,8557,20076,10420139,583987,-2533869,0,0,0,229,202,110,278,313,234,139,104,92,114,98,254,0,
1,1774544776192,43,-325,10696,471587,2443,-8552,0,0,0,79,36,41,278,133,233,634,506,174,630,533,297,0,
2,1774544776192,5283,10686,16372,8080525,1043357,-2530203,0,0,0,221,192,112,281,292,235,160,131,132,116,99,251,0,
1,1774544776208,-201,105,10236,217468,23212,18325,0,0,0,90,30,50,285,124,259,635,488,207,623,503,305,0,
2,1774544776208,-1631,18076,9078,2481334,219911,-1512502,0,0,0,219,173,106,290,276,240,171,126,110,108,83,240,0,
1,1774544776224,-43,124,10107,207694,18325,8552,0,0,0,116,47,57,288,125,251,625,446,207,612,448,301,0,
2,1774544776224,-382,15348,7896,-2295631,-1072679,-324980,0,0,0,219,171,98,290,270,228,155,108,57,115,85,233,0,
1,1774544776240,105,86,10251,219911,-8552,13439,0,0,0,158,63,67,291,117,223,614,390,178,586,426,279,0,
2,1774544776240,3709,8360,8174,-5101946,-1235169,340862,0,0,0,218,174,96,298,272,214,165,109,47,136,93,231,0,
1,1774544776256,71,81,10323,216246,-56199,23212,0,0,0,88,29,35,308,140,245,597,410,177,561,429,311,0,
2,1774544776256,4063,5259,7642,-5597969,114842,75747,0,0,0,219,166,94,312,280,211,189,108,70,143,89,228,0,
1,1774544776272,4,57,10227,215024,-79412,28099,0,0,0,98,27,35,309,160,271,579,378,178,502,390,331,0,
2,1774544776272,1378,5455,7652,-6155078,1315803,-344527,0,0,0,215,169,94,292,270,199,173,96,73,123,86,229,0,
1,1774544776288,-19,19,10074,216246,-72082,29321,0,0,0,82,34,39,282,165,248,563,383,202,464,368,326,0,
2,1774544776288,-1507,6264,9155,-7181331,1644449,-640186,0,0,0,209,168,104,300,287,234,184,101,83,111,79,228,0,
1,1774544776304,-9,-23,9964,204028,-53756,28099,0,0,0,110,48,42,294,194,280,552,365,229,462,346,364,0,
2,1774544776304,-1890,4991,11840,-8191702,1407433,-756251,0,0,0,213,162,119,306,284,254,214,110,119,112,61,229,0,
1,1774544776320,-9,-76,9906,182037,-35430,24434,0,0,0,93,64,55,282,212,297,506,335,229,428,316,386,0,
2,1774544776320,-1158,3019,13965,-8703607,1290147,-834441,0,0,0,210,154,122,284,250,229,182,97,119,121,45,240,0,
1,1774544776336,-19,-110,9901,173485,-17104,26878,0,0,0,94,67,60,278,197,300,486,326,231,413,271,397,0,
2,1774544776336,129,1124,14855,-8610756,1407433,-929736,0,0,0,206,158,101,292,263,232,205,120,110,127,66,241,0,
1,1774544776352,-4,-124,9940,186924,4886,36651,0,0,0,108,69,58,289,194,284,478,332,216,385,249,376,0,
2,1774544776352,693,167,15515,-8291884,1990198,-1026253,0,0,0,206,155,128,276,251,244,206,123,144,114,47,277,0,
1,1774544776368,4,-138,9973,212581,25656,46425,0,0,0,117,78,58,277,190,271,443,284,201,343,213,373,0,
2,1774544776368,-67,86,17085,-8117177,2706133,-904080,0,0,0,200,157,106,290,265,229,170,97,108,115,62,243,0,
1,1774544776384,28,-172,9987,232128,35430,52534,0,0,0,192,150,110,261,184,274,419,236,188,321,191,390,0,
2,1774544776384,-1320,9,19928,-8169711,2774549,-335975,0,0,0,199,158,108,303,271,238,201,117,132,115,60,245,0,
1,1774544776400,38,-205,10045,251676,34208,58643,0,0,0,218,175,121,275,200,286,409,235,187,305,196,402,0,
2,1774544776400,-1454,-540,22919,-8274780,2272418,443488,0,0,0,199,165,111,294,266,232,204,103,127,110,60,253,0,
1,1774544776416,52,-244,10117,285884,25656,69638,0,0,0,148,107,61,311,231,306,396,212,202,281,179,429,0,
2,1774544776416,201,-2282,26723,-8416501,1635897,1434311,0,0,0,205,172,106,283,263,225,170,80,111,112,64,249,0,
1,1774544776432,67,-282,10189,335975,8552,81855,0,0,0,179,112,70,353,250,329,415,162,211,294,154,481,0,
2,1774544776432,2268,-5838,30672,-8514239,1561371,2392148,0,0,0,215,169,110,281,256,228,167,97,120,119,57,251,0,
1,1774544776448,57,-330,10208,392175,-9773,90408,0,0,0,203,121,72,392,264,338,423,142,222,319,156,524,0,
2,1774544776448,3369,-13390,33706,-8411614,2261423,3186273,0,0,0,216,159,109,280,249,215,203,107,120,124,51,245,0,
1,1774544776464,0,-406,10279,465479,-36651,108734,0,0,0,232,146,85,419,291,391,442,141,244,326,154,562,0,
2,1774544776464,2986,-26207,32644,-7794640,2840523,3374419,0,0,0,209,148,95,291,264,218,238,100,144,130,51,231,0,
1,1774544776480,-258,-497,10720,615752,-117286,157603,0,0,0,251,156,77,404,299,433,376,130,270,319,154,590,0,
2,1774544776480,2742,-40052,26451,-6366437,2970026,2911383,0,0,0,211,153,97,298,258,237,230,102,147,110,32,239,0,
1,1774544776496,-598,-574,11428,853989,-259006,245567,0,0,0,264,176,87,412,340,414,356,137,282,291,161,583,0,
2,1774544776496,-574,-46728,17300,-3726277,3360980,1489289,0,0,0,226,158,104,305,265,245,218,87,139,107,34,227,0,
1,1774544776512,-177,-521,12701,1200961,-379958,331088,0,0,0,267,203,73,408,366,424,306,144,255,293,188,587,0,
2,1774544776512,-8748,-47594,12486,-1252273,3556457,-111177,0,0,0,229,156,102,290,255,216,232,87,166,119,35,226,0,
1,1774544776528,646,-382,14070,1692096,-294437,284663,0,0,0,347,258,104,408,323,431,240,117,262,312,171,592,0,
2,1774544776528,-16970,-45240,12581,263893,2006081,-1496619,0,0,0,148,160,91,258,257,200,276,157,161,226,150,188,0,
1,1774544776544,186,-430,14438,2382374,-1221,157603,0,0,0,329,248,103,421,340,459,196,105,277,328,180,562,0,
2,1774544776544,-14462,-35587,16606,1138652,-1045801,-2221106,0,0,0,162,144,79,296,268,209,333,359,124,341,372,177,0,
1,1774544776560,-588,-612,14285,2974913,324980,151494,0,0,0,338,262,108,403,330,445,167,95,269,344,202,528,0,
2,1774544776560,-296,2828,18755,2978578,-3552792,-1912008,0,0,0,178,141,75,310,273,225,349,487,114,420,534,164,0,
1,1774544776576,-875,-550,15979,3655417,647517,252898,0,0,0,341,281,109,384,317,425,139,86,270,332,198,503,0,
2,1774544776576,7767,18478,10169,5406157,-3929085,-486248,0,0,0,208,153,82,314,272,238,469,614,167,518,632,200,0,
1,1774544776592,-1014,-153,18755,4701218,934623,365297,0,0,0,279,283,97,357,330,433,121,88,276,288,187,471,0,
2,1774544776592,1172,1560,15161,7214318,-2370157,769690,0,0,0,262,181,94,316,263,242,552,663,161,597,675,251,0,
1,1774544776608,-1407,100,21440,6119647,1318247,489913,0,0,0,182,261,85,324,334,425,119,96,260,240,180,440,0,
2,1774544776608,-4728,-7963,22589,6949202,-801455,751364,0,0,0,298,198,112,311,261,250,552,654,138,632,676,282,0,
1,1774544776624,-258,-248,30217,7811744,1830152,580321,0,0,0,111,211,79,288,296,362,122,101,219,196,169,422,0,
2,1774544776624,-1469,-4340,22024,4664566,129503,-173485,0,0,0,320,204,128,311,267,262,583,643,180,662,657,314,0,
1,1774544776640,679,-1148,40100,9421985,2228436,432492,0,0,0,91,154,86,212,229,309,125,104,173,151,167,364,0,
2,1774544776640,2689,-464,15793,2566855,355523,-289550,0,0,0,361,217,135,327,268,266,646,617,211,697,645,362,0,
1,1774544776656,-3957,272,41100,10797653,1671327,218689,0,0,0,93,99,101,204,152,257,134,82,145,146,105,261,0,
2,1774544776656,2062,-981,11557,1459967,150272,78190,0,0,0,392,216,149,348,275,285,677,608,227,707,630,411,0,
1,1774544776672,-7963,7269,36381,11192272,516791,553443,0,0,0,8,7,14,193,116,183,150,70,111,169,92,204,0,
2,1774544776672,866,-1765,10217,751364,-75747,157603,0,0,0,421,212,169,362,266,306,680,585,207,716,616,448,0,
1,1774544776688,-9217,16802,27293,11050552,-652404,1535715,0,0,0,30,23,25,230,116,195,163,61,115,185,88,200,0,
2,1774544776688,861,-1186,10399,296880,-261450,-2443,0,0,0,460,196,171,369,274,312,728,600,290,726,624,432,0,
1,1774544776704,-7786,16980,14323,8903971,-1183856,2423913,0,0,0,28,24,26,212,121,188,133,60,108,161,80,202,0,
2,1774544776704,1124,-392,10332,87964,-394618,-41538,0,0,0,461,234,217,359,273,310,699,566,241,732,635,460,0,
1,1774544776720,-3852,16458,8226,3935193,-1337794,2550973,0,0,0,25,10,20,188,109,182,127,60,103,156,80,200,0,
2,1774544776720,976,-177,10241,23212,-420275,-10995,0,0,0,493,237,188,383,284,321,683,541,257,745,638,471,0,
1,1774544776736,52,13874,10399,-1274264,-790459,1760513,0,0,0,13,8,25,178,109,195,130,64,118,156,84,207,0,
2,1774544776736,703,-301,10275,68416,-299323,8552,0,0,0,484,251,185,376,293,321,648,471,225,723,566,472,0,
1,1774544776752,-181,8982,11256,-3811799,136833,549778,0,0,0,13,7,19,182,112,190,144,66,114,164,91,210,0,
2,1774544776752,693,-287,10323,160046,-149051,-6108,0,0,0,477,248,186,382,292,328,617,448,228,682,526,469,0,
1,1774544776768,-2455,5967,8284,-4125783,375071,-233350,0,0,0,21,7,17,185,111,187,146,66,111,167,86,211,0,
2,1774544776768,751,-268,10260,256563,-35430,-18325,0,0,0,470,247,175,368,294,310,601,423,229,636,485,451,0,
1,1774544776784,-2431,6039,6326,-4180761,-486248,-354301,0,0,0,21,8,20,185,107,193,144,63,118,169,81,216,0,
2,1774544776784,823,-325,10064,306654,26878,-23212,0,0,0,461,255,174,347,282,296,583,376,231,598,433,446,0,
1,1774544776800,-559,6259,6719,-4812396,-1374446,-339641,0,0,0,24,12,23,186,104,193,148,60,120,170,83,217,0,
2,1774544776800,856,-411,9925,273667,52534,-28099,0,0,0,453,258,198,340,282,307,555,333,227,571,390,453,0,
1,1774544776816,1536,5934,8183,-5722585,-1833817,-273667,0,0,0,31,19,20,187,102,183,149,63,113,166,84,212,0,
2,1774544776816,890,-478,9863,232128,46425,-35430,0,0,0,450,250,209,351,292,324,546,311,234,540,363,458,0,
1,1774544776832,2407,5082,9796,-6558249,-1772730,-124616,0,0,0,26,14,17,183,103,182,139,64,111,166,84,212,0,
2,1774544776832,909,-502,9839,210137,9773,-42760,0,0,0,450,246,191,363,286,334,552,298,268,498,335,469,0,
1,1774544776848,2067,3823,11610,-7142236,-1572367,160046,0,0,0,25,11,22,182,97,181,139,57,108,167,80,211,0,
2,1774544776848,880,-507,9849,208915,-18325,-48869,0,0,0,443,260,197,343,288,336,520,273,270,467,288,482,0,
1,1774544776864,1761,2794,13256,-7457442,-1583362,477696,0,0,0,19,4,24,176,97,180,140,62,112,171,84,216,0,
2,1774544776864,847,-507,9901,222354,-19547,-47647,0,0,0,433,268,166,338,280,352,541,235,283,436,236,465,0,
1,1774544776880,1742,2062,14984,-7640702,-1706757,747699,0,0,0,25,15,29,176,100,184,143,62,122,171,80,215,0,
2,1774544776880,875,-545,9920,223576,-14660,-35430,0,0,0,448,276,174,372,296,403,533,224,291,443,255,478,0,
1,1774544776896,1818,1344,17037,-7820296,-1789835,894306,0,0,0,33,16,26,188,96,184,157,61,118,179,80,217,0,
2,1774544776896,938,-617,9906,216246,-32986,-34208,0,0,0,450,347,187,388,358,422,468,186,246,396,267,496,0,
1,1774544776912,1919,722,19444,-8008443,-1837482,836885,0,0,0,17,11,22,176,91,175,146,58,113,171,79,215,0,
2,1774544776912,966,-655,9916,210137,-74525,-47647,0,0,0,458,358,180,392,382,385,497,227,266,402,273,537,0,
1,1774544776928,1823,-248,22617,-8244237,-2001194,571769,0,0,0,14,3,20,177,87,175,141,54,111,170,75,216,0,
2,1774544776928,952,-665,9973,223576,-113620,-65973,0,0,0,510,354,202,428,401,455,508,242,332,416,285,577,0,
