sole_id,timestamp,accel_x,accel_y,accel_z,gyro_x,gyro_y,gyro_z,magn_x,magn_y,magn_z,pressure_01,pressure_02,pressure_03,pressure_04,pressure_05,pressure_06,pressure_07,pressure_08,pressure_09,pressure_10,pressure_11,pressure_12,corrupt
2,1769098663200,-57,363,10050,29321,-58643,-23212,0,0,0,462,523,281,472,451,481,571,395,366,261,187,449,0
2,1769098663216,-57,358,10026,9773,-50090,-18325,0,0,0,462,522,294,475,455,488,571,395,371,263,187,448,0
2,1769098663232,-38,358,10026,-10995,-47647,-13439,0,0,0,461,522,291,481,457,492,570,399,372,259,187,446,0
2,1769098663248,-33,363,10026,-32986,-50090,-10995,0,0,0,462,522,277,479,452,489,569,396,363,265,191,445,0
2,1769098663264,-33,368,10021,-56199,-52534,-9773,0,0,0,459,521,285,478,451,486,579,408,367,261,184,444,0
2,1769098663280,-33,392,10021,-79412,-53756,-8552,0,0,0,454,519,278,473,448,483,571,409,371,259,188,443,0
2,1769098663296,-14,411,10040,-103847,-53756,-7330,0,0,0,454,520,274,479,451,489,574,406,370,261,190,450,0
2,1769098663312,-23,425,10045,-124616,-52534,-6108,0,0,0,452,519,273,478,444,485,563,406,362,262,190,444,0
2,1769098663328,-43,449,10059,-139277,-46425,-4886,0,0,0,441,513,263,478,441,481,559,410,359,260,191,428,0
2,1769098663344,-47,483,10074,-147829,-35430,-2443,0,0,0,432,510,259,476,437,479,564,415,363,274,222,420,0
2,1769098663360,-47,502,10083,-151494,-20769,0,0,0,0,431,509,271,472,432,477,574,421,359,272,223,415,0
2,1769098663376,-43,526,10069,-160046,-8552,1221,0,0,0,426,504,273,471,427,480,576,430,357,258,200,412,0
2,1769098663392,-23,555,10045,-174707,-2443,2443,0,0,0,417,498,267,469,420,481,570,436,357,257,208,410,0
2,1769098663408,-9,598,10054,-188146,0,4886,0,0,0,412,498,274,457,415,466,567,446,350,257,219,401,0
2,1769098663424,0,641,10088,-188146,0,4886,0,0,0,411,498,272,450,414,453,565,460,353,262,222,400,0
2,1769098663440,0,674,10102,-180816,0,4886,0,0,0,403,492,265,443,398,443,554,455,350,261,226,392,0
2,1769098663456,4,693,10088,-175929,1221,3665,0,0,0,392,489,260,444,394,440,581,468,337,262,227,382,0
2,1769098663472,9,717,10074,-174707,7330,3665,0,0,0,382,483,274,434,386,438,580,468,331,267,237,378,0
2,1769098663488,23,765,10078,-175929,14660,2443,0,0,0,368,483,251,435,386,425,583,466,335,328,311,355,0
2,1769098663504,38,813,10078,-169820,15882,2443,0,0,0,367,483,256,426,382,420,581,472,328,349,340,354,0
2,1769098663520,47,847,10083,-157603,15882,1221,0,0,0,377,486,285,423,392,416,579,473,327,371,376,343,0
2,1769098663536,67,899,10083,-133168,10995,0,0,0,0,368,484,267,425,384,421,579,475,326,379,390,341,0
2,1769098663552,90,947,10088,-102625,1221,-1221,0,0,0,363,479,260,429,384,426,581,478,324,371,383,337,0
2,1769098663568,105,966,10093,-65973,-7330,-3665,0,0,0,362,477,257,428,386,424,587,482,326,364,374,339,0
2,1769098663584,95,947,10083,-40317,-15882,-6108,0,0,0,364,477,258,428,384,423,588,485,333,342,349,344,0
2,1769098663600,95,933,10059,-23212,-21991,-7330,0,0,0,366,477,264,424,377,422,590,485,338,341,351,341,0
2,1769098663616,119,947,10050,-14660,-28099,-8552,0,0,0,365,477,266,417,370,415,596,482,337,367,388,334,0
2,1769098663632,134,966,10064,-1221,-35430,-8552,0,0,0,364,476,261,424,372,415,592,480,330,364,389,328,0
2,1769098663648,119,966,10064,10995,-43982,-9773,0,0,0,358,475,252,435,381,423,591,481,334,379,402,331,0
2,1769098663664,100,947,10040,18325,-47647,-10995,0,0,0,359,487,252,426,388,414,590,485,335,379,404,335,0
2,1769098663680,95,938,10031,18325,-50090,-10995,0,0,0,367,495,266,436,404,426,593,488,333,379,402,335,0
2,1769098663696,110,947,10040,19547,-50090,-10995,0,0,0,367,492,264,434,401,424,595,489,334,377,398,334,0
2,1769098663712,119,952,10059,31764,-56199,-10995,0,0,0,367,489,262,432,398,422,598,490,335,375,395,334,0
2,1769098663728,119,942,10059,41538,-61086,-12217,0,0,0,371,490,269,432,392,422,597,483,329,384,400,336,0
2,1769098663744,105,933,10050,40317,-62308,-12217,0,0,0,371,485,267,433,381,423,597,482,333,382,394,338,0
2,1769098663760,95,928,10045,32986,-59864,-10995,0,0,0,368,481,266,435,382,426,599,482,337,380,385,339,0
2,1769098663776,95,933,10045,31764,-58643,-10995,0,0,0,369,483,269,434,388,426,598,484,341,370,373,343,0
2,1769098663792,105,942,10050,30543,-58643,-9773,0,0,0,374,486,277,435,387,427,598,487,343,343,342,345,0
2,1769098663808,90,933,10035,23212,-56199,-9773,0,0,0,375,486,284,436,384,431,599,491,346,322,316,348,0
2,1769098663824,90,928,10035,13439,-52534,-8552,0,0,0,373,484,287,434,382,433,600,494,348,315,308,352,0
2,1769098663840,105,938,10045,7330,-48869,-7330,0,0,0,372,485,283,434,382,432,598,494,346,309,303,353,0
2,1769098663856,114,947,10050,8552,-48869,-7330,0,0,0,372,484,274,433,382,429,596,496,346,304,297,352,0
2,1769098663872,124,952,10054,14660,-51312,-7330,0,0,0,369,480,273,430,379,429,599,497,348,306,300,354,0
2,1769098663888,129,952,10059,20769,-53756,-8552,0,0,0,368,480,278,430,383,434,611,498,354,324,324,351,0
2,1769098663904,124,942,10059,28099,-57421,-10995,0,0,0,378,486,288,432,382,435,606,501,347,292,288,355,0
2,1769098663920,105,938,10045,25656,-56199,-9773,0,0,0,369,480,280,434,386,435,611,501,347,311,308,355,0
2,1769098663936,105,938,10045,23212,-53756,-8552,0,0,0,381,487,289,427,376,432,609,495,336,307,304,355,0
2,1769098663952,114,947,10059,23212,-53756,-7330,0,0,0,374,488,286,433,386,436,607,495,334,293,290,359,0
2,1769098663968,110,942,10054,24434,-54977,-7330,0,0,0,375,486,285,429,383,433,612,497,336,319,318,354,0
2,1769098663984,105,942,10050,25656,-56199,-7330,0,0,0,380,488,289,429,382,433,616,499,339,328,323,354,0
2,1769098664000,105,933,10050,23212,-57421,-8552,0,0,0,381,488,288,428,384,433,617,501,339,315,308,357,0
2,1769098664016,110,933,10050,19547,-56199,-7330,0,0,0,375,484,281,430,388,433,615,500,339,306,300,361,0
2,1769098664032,119,938,10054,20769,-57421,-7330,0,0,0,371,483,278,433,392,435,612,498,338,311,301,364,0
2,1769098664048,124,942,10064,28099,-59864,-7330,0,0,0,373,487,281,438,395,440,611,498,337,332,304,361,0
2,1769098664064,114,952,10074,40317,-63529,-8552,0,0,0,373,490,281,441,396,442,613,502,341,353,304,353,0
2,1769098664080,110,933,10059,45204,-64751,-8552,0,0,0,376,490,279,433,386,433,617,502,341,307,297,362,0
2,1769098664096,110,918,10050,47647,-65973,-8552,0,0,0,380,488,277,440,390,440,618,504,345,307,294,361,0
2,1769098664112,105,923,10054,45204,-65973,-8552,0,0,0,380,491,279,433,388,436,616,504,343,309,298,367,0
2,1769098664128,100,923,10064,41538,-65973,-8552,0,0,0,378,491,279,435,388,436,616,504,343,309,299,367,0
2,1769098664144,95,918,10069,41538,-65973,-9773,0,0,0,378,490,279,436,394,438,617,503,343,307,296,364,0
2,1769098664160,95,914,10069,39095,-65973,-8552,0,0,0,383,491,283,436,390,437,618,502,343,306,294,365,0
2,1769098664176,95,909,10069,35430,-63529,-7330,0,0,0,381,492,281,441,392,440,616,501,344,307,296,366,0
2,1769098664192,86,904,10064,31764,-61086,-7330,0,0,0,377,497,277,441,405,443,620,506,353,305,300,367,0
2,1769098664208,86,904,10059,26878,-58643,-6108,0,0,0,383,497,277,439,402,441,618,503,356,306,298,367,0
2,1769098664224,95,909,10064,26878,-58643,-6108,0,0,0,385,493,278,440,398,441,618,502,358,305,294,366,0
2,1769098664240,100,904,10074,29321,-58643,-7330,0,0,0,381,489,276,439,395,440,621,502,357,306,295,369,0
2,1769098664256,105,899,10078,30543,-59864,-8552,0,0,0,383,492,276,438,398,440,622,503,357,307,296,370,0
2,1769098664272,100,899,10064,28099,-59864,-8552,0,0,0,387,496,277,439,401,441,625,506,359,306,295,368,0
2,1769098664288,90,899,10064,28099,-59864,-8552,0,0,0,385,491,272,438,394,439,627,505,360,309,295,369,0
2,1769098664304,90,894,10069,30543,-59864,-8552,0,0,0,381,490,270,438,394,438,623,500,359,308,296,369,0
2,1769098664320,90,894,10074,32986,-59864,-8552,0,0,0,385,492,278,439,394,442,626,502,359,306,295,368,0
2,1769098664336,90,894,10069,31764,-59864,-7330,0,0,0,388,492,285,439,393,440,627,504,361,312,295,371,0
2,1769098664352,100,894,10069,34208,-59864,-7330,0,0,0,390,499,279,455,411,443,624,504,356,309,294,369,0
2,1769098664368,110,894,10074,43982,-63529,-8552,0,0,0,398,499,291,441,388,435,622,495,337,304,289,369,0
2,1769098664384,100,890,10078,52534,-65973,-10995,0,0,0,400,499,295,439,384,433,629,500,344,302,283,370,0
2,1769098664400,86,880,10074,57421,-67195,-12217,0,0,0,397,496,295,444,405,438,626,507,354,305,282,374,0
2,1769098664416,81,866,10064,57421,-67195,-12217,0,0,0,405,499,284,443,394,433,628,499,363,301,278,369,0
2,1769098664432,81,861,10064,54977,-68416,-12217,0,0,0,409,499,287,447,395,440,623,496,347,295,269,371,0
2,1769098664448,76,856,10064,51312,-69638,-10995,0,0,0,416,501,297,445,397,440,624,496,345,294,268,373,0
2,1769098664464,71,847,10069,45204,-67195,-9773,0,0,0,419,501,302,438,393,436,575,479,358,291,264,370,0
2,1769098664480,71,847,10069,39095,-64751,-8552,0,0,0,418,500,303,437,390,437,566,476,356,288,263,371,0
2,1769098664496,71,851,10069,39095,-64751,-8552,0,0,0,418,500,308,441,390,442,618,494,343,281,256,376,0
2,1769098664512,67,851,10069,42760,-65973,-9773,0,0,0,417,499,307,443,390,443,617,494,347,268,240,379,0
2,1769098664528,57,837,10074,45204,-65973,-9773,0,0,0,414,499,298,448,395,449,618,496,346,271,241,381,0
2,1769098664544,57,832,10069,43982,-62308,-9773,0,0,0,417,503,301,450,398,450,623,500,349,271,241,382,0
2,1769098664560,62,832,10069,42760,-62308,-10995,0,0,0,413,498,295,448,398,446,621,498,348,272,240,388,0
2,1769098664576,67,827,10074,42760,-64751,-10995,0,0,0,413,494,293,443,400,436,618,494,336,271,233,397,0
2,1769098664592,62,818,10074,43982,-65973,-9773,0,0,0,413,494,291,450,408,443,620,498,345,275,235,403,0
2,1769098664608,62,818,10069,41538,-64751,-9773,0,0,0,409,496,283,450,410,443,620,496,340,277,239,408,0
2,1769098664624,62,818,10069,35430,-63529,-9773,0,0,0,408,493,283,449,409,444,621,500,347,275,235,409,0
2,1769098664640,62,823,10074,29321,-62308,-9773,0,0,0,411,494,287,447,407,441,620,498,346,275,234,408,0
2,1769098664656,62,818,10074,28099,-61086,-9773,0,0,0,411,497,290,446,411,443,621,498,347,270,231,407,0
2,1769098664672,67,823,10078,30543,-61086,-9773,0,0,0,412,499,293,447,411,444,619,494,344,273,234,408,0
2,1769098664688,67,823,10078,35430,-61086,-9773,0,0,0,416,501,296,448,411,444,620,494,344,274,236,410,0
2,1769098664704,62,813,10083,36651,-61086,-9773,0,0,0,413,497,294,446,407,443,624,498,347,275,237,410,0
2,1769098664720,62,799,10078,34208,-61086,-10995,0,0,0,412,496,293,444,403,441,627,498,348,276,238,410,0
2,1769098664736,57,804,10083,32986,-62308,-10995,0,0,0,417,500,295,443,401,440,625,495,346,274,235,407,0
2,1769098664752,57,804,10093,36651,-62308,-10995,0,0,0,417,500,297,443,398,440,623,494,347,272,234,405,0
2,1769098664768,57,804,10093,40317,-63529,-10995,0,0,0,419,505,309,444,396,444,622,493,343,274,238,407,0
2,1769098664784,57,794,10083,42760,-63529,-12217,0,0,0,423,505,307,439,393,438,619,491,343,273,240,405,0
2,1769098664800,62,784,10078,43982,-63529,-12217,0,0,0,417,503,298,438,389,437,625,495,349,269,235,403,0
2,1769098664816,52,775,10074,45204,-63529,-12217,0,0,0,413,503,290,446,397,443,622,497,351,275,239,410,0
2,1769098664832,43,775,10074,40317,-63529,-12217,0,0,0,413,504,306,449,401,449,617,492,347,274,240,410,0
2,1769098664848,47,775,10074,36651,-62308,-13439,0,0,0,414,505,294,444,395,446,620,495,349,272,241,409,0
2,1769098664864,57,784,10078,32986,-62308,-13439,0,0,0,414,506,294,445,397,446,623,496,352,272,239,409,0
2,1769098664880,47,775,10078,32986,-62308,-13439,0,0,0,411,504,288,443,442,433,622,498,353,273,239,410,0
2,1769098664896,38,765,10078,31764,-62308,-13439,0,0,0,413,504,295,442,416,438,623,497,352,271,238,409,0
2,1769098664912,33,765,10078,26878,-59864,-12217,0,0,0,414,506,298,445,396,447,621,495,349,271,238,409,0
2,1769098664928,33,765,10078,25656,-59864,-10995,0,0,0,413,506,295,446,396,446,621,496,350,360,277,396,0
2,1769098664944,43,765,10078,25656,-58643,-12217,0,0,0,415,506,298,444,393,445,621,497,351,371,282,396,0
2,1769098664960,38,765,10074,25656,-58643,-12217,0,0,0,418,509,302,448,398,451,621,497,352,273,239,412,0
2,1769098664976,28,765,10074,26878,-58643,-12217,0,0,0,416,508,299,451,401,454,622,497,354,274,237,412,0
2,1769098664992,28,760,10078,28099,-58643,-12217,0,0,0,415,507,293,446,398,451,619,495,349,276,241,414,0
2,1769098665008,33,751,10083,25656,-58643,-12217,0,0,0,422,510,300,449,400,453,621,498,352,274,238,411,0
2,1769098665024,38,756,10093,24434,-59864,-12217,0,0,0,414,505,299,450,399,452,618,495,351,274,238,412,0
2,1769098665040,38,765,10093,25656,-59864,-12217,0,0,0,410,503,291,444,396,449,611,491,351,264,230,406,0
2,1769098665056,43,770,10093,29321,-59864,-12217,0,0,0,415,507,291,444,396,448,619,496,351,273,238,413,0
2,1769098665072,47,765,10093,34208,-61086,-12217,0,0,0,414,508,286,442,394,446,620,492,350,273,240,413,0
2,1769098665088,43,756,10088,39095,-61086,-13439,0,0,0,409,502,285,444,394,447,620,491,352,271,233,411,0
2,1769098665104,38,746,10088,42760,-62308,-14660,0,0,0,409,501,285,445,395,446,620,493,354,271,229,410,0
2,1769098665120,33,746,10088,43982,-62308,-14660,0,0,0,413,505,289,449,398,450,617,492,353,271,230,410,0
2,1769098665136,28,741,10083,42760,-62308,-13439,0,0,0,412,504,290,454,402,454,617,491,353,272,230,410,0
2,1769098665152,33,737,10083,43982,-62308,-14660,0,0,0,411,504,291,455,402,455,617,490,353,273,230,412,0
2,1769098665168,33,737,10083,45204,-62308,-14660,0,0,0,412,506,291,451,400,452,618,489,355,274,232,414,0
2,1769098665184,23,732,10083,46425,-63529,-15882,0,0,0,411,505,288,447,397,448,619,489,357,274,232,414,0
2,1769098665200,14,713,10088,40317,-63529,-14660,0,0,0,415,508,295,448,396,450,614,485,355,275,231,415,0
2,1769098665216,14,713,10074,32986,-61086,-13439,0,0,0,413,506,294,451,400,453,612,482,358,272,228,413,0
2,1769098665232,19,713,10074,26878,-59864,-12217,0,0,0,408,502,287,450,401,452,614,486,363,276,233,416,0
2,1769098665248,19,713,10074,21991,-59864,-10995,0,0,0,410,504,289,447,398,450,617,489,363,274,233,415,0
2,1769098665264,19,713,10074,18325,-58643,-10995,0,0,0,411,505,290,449,400,454,614,484,355,271,228,413,0
2,1769098665280,19,717,10078,14660,-57421,-10995,0,0,0,410,506,292,445,394,450,617,489,357,272,228,413,0
2,1769098665296,23,722,10083,12217,-56199,-10995,0,0,0,410,506,293,445,394,449,621,494,365,276,232,417,0
2,1769098665312,23,717,10078,10995,-54977,-10995,0,0,0,413,510,294,449,399,453,618,490,360,278,235,418,0
2,1769098665328,28,717,10078,9773,-54977,-10995,0,0,0,409,507,290,448,396,452,614,486,356,278,236,418,0
2,1769098665344,28,722,10078,6108,-53756,-9773,0,0,0,408,506,292,448,398,453,613,486,354,276,235,418,0
2,1769098665360,23,727,10078,3665,-53756,-9773,0,0,0,406,507,291,450,400,454,615,487,356,278,234,419,0
2,1769098665376,23,727,10078,2443,-52534,-8552,0,0,0,404,507,291,450,400,454,614,487,355,276,233,418,0
2,1769098665392,23,732,10083,2443,-52534,-8552,0,0,0,404,507,292,453,403,455,613,486,353,275,235,418,0
2,1769098665408,23,737,10083,2443,-51312,-8552,0,0,0,403,507,288,454,405,456,616,489,355,278,237,420,0
2,1769098665424,28,741,10088,4886,-51312,-8552,0,0,0,402,506,288,451,400,453,618,493,357,275,232,417,0
2,1769098665440,33,741,10093,8552,-53756,-9773,0,0,0,401,504,290,450,401,452,614,490,353,309,250,414,0
2,1769098665456,33,746,10083,12217,-54977,-9773,0,0,0,403,506,290,448,397,452,613,493,360,432,299,389,0
2,1769098665472,28,751,10078,14660,-56199,-10995,0,0,0,401,507,290,453,401,455,617,493,358,278,235,421,0
2,1769098665488,23,746,10083,15882,-56199,-10995,0,0,0,398,504,282,445,396,448,617,493,357,278,237,421,0
2,1769098665504,23,746,10088,14660,-53756,-9773,0,0,0,401,505,287,445,395,447,615,490,352,276,234,418,0
2,1769098665520,28,751,10093,15882,-53756,-9773,0,0,0,401,506,285,451,400,451,615,491,354,276,237,418,0
2,1769098665536,19,751,10083,19547,-53756,-9773,0,0,0,404,509,288,446,395,448,615,491,353,277,235,418,0
2,1769098665552,19,756,10078,21991,-56199,-10995,0,0,0,402,507,288,449,399,450,616,492,354,280,239,419,0
2,1769098665568,23,751,10083,23212,-57421,-10995,0,0,0,406,509,291,451,402,453,619,496,357,279,237,419,0
2,1769098665584,28,746,10083,20769,-56199,-10995,0,0,0,405,507,289,448,399,451,616,493,355,278,237,419,0
2,1769098665600,33,746,10078,18325,-56199,-12217,0,0,0,400,504,285,448,398,450,617,492,355,281,240,421,0
2,1769098665616,28,746,10074,17104,-56199,-10995,0,0,0,400,505,287,448,399,451,622,498,361,280,240,421,0
2,1769098665632,28,746,10074,15882,-56199,-10995,0,0,0,401,505,287,448,398,452,622,498,361,279,239,419,0
2,1769098665648,28,746,10078,13439,-54977,-9773,0,0,0,400,503,284,451,400,453,616,492,353,279,240,419,0
2,1769098665664,33,746,10078,12217,-54977,-9773,0,0,0,405,507,287,454,400,454,619,495,355,279,237,417,0
2,1769098665680,33,751,10074,9773,-54977,-9773,0,0,0,402,505,288,453,403,457,612,492,356,275,234,414,0
2,1769098665696,33,751,10074,8552,-54977,-9773,0,0,0,404,508,289,446,398,450,586,484,363,274,235,415,0
2,1769098665712,33,756,10078,8552,-54977,-9773,0,0,0,398,502,284,454,406,458,620,497,359,276,239,415,0
2,1769098665728,28,756,10078,9773,-54977,-9773,0,0,0,402,505,288,452,405,456,620,494,358,279,239,417,0
2,1769098665744,23,751,10083,12217,-54977,-9773,0,0,0,403,506,290,448,399,451,622,497,360,274,234,413,0
2,1769098665760,23,756,10088,13439,-54977,-9773,0,0,0,403,505,289,450,400,453,622,498,359,277,237,415,0
2,1769098665776,28,760,10093,17104,-54977,-9773,0,0,0,406,508,292,452,402,454,622,498,359,279,240,416,0
2,1769098665792,28,760,10093,19547,-54977,-9773,0,0,0,404,508,291,448,398,451,621,497,358,276,239,415,0
2,1769098665808,28,760,10093,20769,-54977,-10995,0,0,0,401,505,288,447,396,452,618,494,356,276,238,414,0
2,1769098665824,28,760,10093,20769,-54977,-10995,0,0,0,404,506,289,449,398,454,618,494,356,276,238,414,0
2,1769098665840,33,765,10093,23212,-56199,-10995,0,0,0,406,507,291,450,402,454,619,495,357,275,236,414,0
2,1769098665856,33,765,10088,24434,-57421,-10995,0,0,0,404,506,290,451,403,454,620,495,357,278,236,415,0
2,1769098665872,33,756,10088,25656,-58643,-10995,0,0,0,405,508,293,450,400,455,624,499,361,279,238,416,0
2,1769098665888,33,751,10088,26878,-58643,-10995,0,0,0,407,510,296,454,404,457,623,498,360,277,237,416,0
2,1769098665904,28,751,10088,28099,-57421,-12217,0,0,0,407,510,297,453,403,457,620,495,357,276,237,417,0
2,1769098665920,28,756,10088,29321,-56199,-12217,0,0,0,407,510,294,449,400,455,622,497,355,276,238,419,0
2,1769098665936,33,760,10093,32986,-57421,-10995,0,0,0,406,511,292,448,398,450,618,493,354,279,237,419,0
2,1769098665952,33,751,10093,36651,-61086,-10995,0,0,0,403,506,291,450,398,452,620,495,357,278,237,418,0
2,1769098665968,33,751,10088,37873,-62308,-12217,0,0,0,402,505,286,450,399,454,623,498,360,282,241,419,0
2,1769098665984,28,746,10078,39095,-63529,-12217,0,0,0,406,508,288,449,397,451,618,492,357,281,241,420,0
2,1769098666000,23,746,10078,36651,-61086,-12217,0,0,0,409,509,290,451,400,453,617,492,354,280,241,420,0
2,1769098666016,23,746,10083,34208,-59864,-12217,0,0,0,408,509,291,451,400,454,614,489,351,280,241,421,0
2,1769098666032,28,737,10083,31764,-58643,-12217,0,0,0,409,509,291,453,402,456,616,490,354,279,238,420,0
2,1769098666048,33,737,10088,31764,-58643,-12217,0,0,0,408,508,291,451,401,453,619,493,357,278,236,420,0
2,1769098666064,28,741,10093,32986,-59864,-12217,0,0,0,407,506,291,448,398,450,620,492,355,276,235,419,0
2,1769098666080,19,732,10098,36651,-61086,-12217,0,0,0,409,507,292,449,399,451,620,491,355,276,235,418,0
2,1769098666096,19,727,10093,37873,-59864,-12217,0,0,0,409,509,293,449,399,451,621,492,358,279,237,420,0
2,1769098666112,28,722,10083,39095,-58643,-12217,0,0,0,407,506,288,458,405,458,621,492,358,277,235,418,0
2,1769098666128,28,717,10078,35430,-58643,-12217,0,0,0,406,506,288,456,404,458,620,494,357,279,236,419,0
2,1769098666144,9,708,10078,29321,-58643,-12217,0,0,0,406,507,287,449,397,451,615,486,353,274,233,417,0
2,1769098666160,9,708,10078,20769,-58643,-12217,0,0,0,407,508,287,452,402,453,624,496,362,277,237,419,0
2,1769098666176,23,722,10093,15882,-58643,-10995,0,0,0,412,511,295,452,403,453,620,492,355,278,237,418,0
2,1769098666192,33,737,10107,17104,-57421,-10995,0,0,0,412,511,296,450,400,451,619,491,356,278,237,418,0
2,1769098666208,28,732,10102,21991,-57421,-10995,0,0,0,412,510,297,451,402,454,615,487,353,278,235,420,0
2,1769098666224,28,727,10098,24434,-57421,-12217,0,0,0,416,516,301,454,406,456,620,492,358,278,235,421,0
2,1769098666240,19,727,10088,26878,-57421,-13439,0,0,0,416,514,301,452,403,453,624,495,360,278,234,419,0
2,1769098666256,4,727,10078,28099,-58643,-12217,0,0,0,414,511,301,451,401,453,621,491,356,276,232,417,0
2,1769098666272,9,737,10083,29321,-61086,-12217,0,0,0,413,509,301,448,399,452,620,491,356,274,231,415,0
2,1769098666288,9,732,10098,30543,-59864,-12217,0,0,0,413,509,302,448,399,453,622,493,357,274,231,417,0
2,1769098666304,14,727,10112,34208,-59864,-12217,0,0,0,413,510,303,452,402,457,616,490,358,272,229,417,0
2,1769098666320,19,722,10107,41538,-61086,-13439,0,0,0,410,509,297,451,419,452,607,487,363,271,229,416,0
2,1769098666336,9,713,10088,45204,-62308,-14660,0,0,0,407,507,290,448,446,444,618,492,360,280,234,422,0
2,1769098666352,4,698,10078,45204,-63529,-15882,0,0,0,410,509,286,453,403,455,620,483,353,276,228,417,0
2,1769098666368,4,689,10078,36651,-62308,-14660,0,0,0,409,508,279,453,402,455,619,482,353,273,226,417,0
2,1769098666384,9,689,10078,30543,-62308,-13439,0,0,0,408,506,277,453,403,455,621,483,355,273,227,417,0
2,1769098666400,19,693,10088,26878,-59864,-13439,0,0,0,409,506,281,457,405,456,621,488,360,276,228,418,0
2,1769098666416,9,698,10088,24434,-58643,-13439,0,0,0,411,509,282,452,402,453,624,487,357,275,227,419,0
2,1769098666432,0,703,10083,23212,-58643,-13439,0,0,0,412,509,284,449,400,451,621,486,356,274,227,419,0
2,1769098666448,0,693,10078,21991,-58643,-13439,0,0,0,414,509,286,455,404,456,622,486,356,274,225,419,0
2,1769098666464,4,689,10078,20769,-58643,-13439,0,0,0,411,508,284,454,403,457,618,484,355,270,223,418,0
2,1769098666480,9,693,10088,20769,-59864,-13439,0,0,0,412,508,284,451,400,455,618,485,359,272,225,420,0
2,1769098666496,0,703,10093,21991,-58643,-13439,0,0,0,412,508,284,447,398,451,618,484,364,272,225,421,0
2,1769098666512,0,703,10098,24434,-57421,-12217,0,0,0,413,509,285,445,397,447,615,482,366,270,224,419,0
2,1769098666528,14,698,10102,28099,-57421,-12217,0,0,0,417,512,290,446,398,448,615,482,370,271,225,419,0
2,1769098666544,19,698,10102,29321,-58643,-13439,0,0,0,417,512,290,444,410,443,616,483,370,267,223,416,0
2,1769098666560,9,693,10093,30543,-61086,-14660,0,0,0,421,515,293,443,455,428,612,479,362,271,223,415,0
2,1769098666576,0,689,10083,26878,-61086,-14660,0,0,0,422,516,295,447,400,449,612,482,363,268,223,414,0
2,1769098666592,0,689,10083,23212,-62308,-13439,0,0,0,415,514,286,452,405,453,616,485,369,272,224,416,0
2,1769098666608,4,689,10093,21991,-61086,-13439,0,0,0,415,517,286,451,404,452,611,480,365,373,257,404,0
2,1769098666624,4,689,10098,21991,-58643,-12217,0,0,0,411,513,276,451,408,452,613,483,367,284,230,411,0
2,1769098666640,4,693,10102,24434,-58643,-10995,0,0,0,411,512,279,451,403,449,614,484,372,275,227,414,0
2,1769098666656,0,684,10093,26878,-58643,-10995,0,0,0,412,512,281,453,403,451,614,487,374,272,226,414,0
2,1769098666672,0,670,10078,25656,-59864,-12217,0,0,0,413,512,282,453,404,450,612,486,374,273,226,415,0
2,1769098666688,0,674,10074,20769,-58643,-12217,0,0,0,410,510,281,453,405,452,610,483,374,274,226,417,0
2,1769098666704,0,684,10078,15882,-56199,-10995,0,0,0,411,511,282,454,406,452,609,482,373,275,227,417,0
2,1769098666720,0,689,10093,15882,-56199,-9773,0,0,0,414,513,287,453,405,450,610,482,373,275,228,415,0
2,1769098666736,4,684,10098,15882,-54977,-9773,0,0,0,414,512,288,451,404,450,611,483,374,275,230,415,0
2,1769098666752,9,674,10083,15882,-54977,-10995,0,0,0,413,511,287,452,406,451,603,480,373,277,229,418,0
2,1769098666768,4,674,10074,14660,-56199,-10995,0,0,0,409,508,286,447,405,445,589,478,379,277,231,418,0
2,1769098666784,0,679,10078,10995,-57421,-10995,0,0,0,408,508,284,443,434,437,616,488,382,286,248,419,0
2,1769098666800,0,684,10083,6108,-57421,-10995,0,0,0,410,508,289,448,402,448,610,485,374,278,234,419,0
2,1769098666816,0,689,10088,1221,-54977,-9773,0,0,0,411,509,293,450,405,450,611,486,374,278,230,417,0
2,1769098666832,0,689,10088,0,-52534,-7330,0,0,0,412,508,294,445,400,445,612,487,374,275,230,415,0
2,1769098666848,0,689,10088,-1221,-51312,-6108,0,0,0,407,505,296,448,404,449,611,488,374,275,232,412,0
2,1769098666864,0,693,10083,-6108,-48869,-4886,0,0,0,405,502,292,450,403,450,615,494,374,275,235,400,0
2,1769098666880,0,708,10078,-15882,-48869,-2443,0,0,0,402,503,282,449,403,448,613,496,372,275,239,391,0
2,1769098666896,0,717,10078,-29321,-47647,-1221,0,0,0,392,502,276,452,407,452,605,498,361,275,240,387,0
2,1769098666912,0,717,10064,-45204,-43982,0,0,0,0,382,499,273,452,408,453,604,501,356,273,240,383,0
2,1769098666928,0,722,10050,-64751,-39095,0,0,0,0,379,497,272,445,400,445,604,503,350,273,243,378,0
2,1769098666944,0,751,10059,-84299,-34208,3665,0,0,0,376,496,272,443,398,442,601,506,342,276,249,374,0
2,1769098666960,14,780,10098,-89186,-30543,4886,0,0,0,367,491,264,445,401,446,600,513,344,275,254,360,0
2,1769098666976,38,799,10126,-83077,-29321,4886,0,0,0,366,489,257,434,391,433,601,513,337,279,266,333,0
2,1769098666992,38,794,10126,-74525,-23212,0,0,0,0,354,488,254,423,389,421,607,513,333,301,296,314,0
2,1769098667008,47,827,10141,-63529,-21991,0,0,0,0,357,485,263,426,383,416,601,497,311,329,327,286,0
2,1769098667024,71,899,10169,-32986,-29321,-6108,0,0,0,340,480,240,433,395,409,593,511,313,332,334,259,0
2,1769098667040,81,914,10174,15882,-46425,-12217,0,0,0,338,480,234,423,376,396,586,511,302,321,334,236,0
2,1769098667056,67,890,10169,61086,-69638,-21991,0,0,0,327,474,219,422,417,395,574,524,302,260,276,235,0
2,1769098667072,57,866,10169,103847,-90408,-29321,0,0,0,323,477,218,430,391,394,568,522,299,242,268,226,0
2,1769098667088,57,866,10203,156381,-107512,-39095,0,0,0,319,480,219,431,391,402,562,525,302,237,268,228,0
2,1769098667104,47,856,10241,241902,-127059,-48869,0,0,0,311,484,210,430,398,406,549,521,306,238,265,237,0
2,1769098667120,47,808,10256,332310,-151494,-56199,0,0,0,304,484,205,397,436,393,545,520,312,240,261,251,0
2,1769098667136,38,737,10236,419053,-180816,-59864,0,0,0,306,485,209,401,430,401,549,517,320,242,257,272,0
2,1769098667152,-4,641,10045,483805,-195476,-69638,0,0,0,326,491,223,431,408,423,552,513,322,245,250,296,0
2,1769098667168,-105,449,9700,425162,-177150,-72082,0,0,0,353,499,239,438,411,431,557,511,324,254,247,323,0
2,1769098667184,-119,368,9633,282219,-156381,-61086,0,0,0,376,505,247,443,413,434,567,508,338,266,250,354,0
2,1769098667200,-23,449,9973,183259,-169820,-53756,0,0,0,406,513,261,451,426,443,578,504,355,277,249,381,0
2,1769098667216,0,488,10323,191811,-218689,-58643,0,0,0,441,533,288,457,440,447,577,506,348,284,252,402,0
2,1769098667232,-71,478,10662,317649,-278554,-64751,0,0,0,449,536,274,471,446,459,577,504,346,320,260,422,0
2,1769098667248,-172,550,11112,553443,-335975,-65973,0,0,0,468,547,256,483,456,480,588,502,355,448,328,431,0
2,1769098667264,-186,545,10873,866206,-378736,-62308,0,0,0,493,556,299,485,467,492,589,482,371,299,242,483,0
2,1769098667280,19,-28,8475,775798,-421497,-89186,0,0,0,505,572,322,488,483,508,615,483,389,287,230,519,0
2,1769098667296,-263,-727,6944,158824,-480140,-138055,0,0,0,520,579,400,493,487,521,624,477,379,293,233,531,0
2,1769098667312,-1076,-349,9346,-487470,-373849,-109955,0,0,0,529,585,402,498,507,531,622,473,386,303,237,553,0
2,1769098667328,-727,799,12998,-177150,-141720,-7330,0,0,0,538,587,372,511,518,532,618,463,389,415,362,552,0
2,1769098667344,-177,808,12983,541226,-68416,3665,0,0,0,544,588,325,526,519,530,595,448,383,379,310,558,0
2,1769098667360,-411,23,11064,971275,-7330,-47647,0,0,0,537,583,261,539,523,525,562,419,373,315,224,572,0
2,1769098667376,-679,-43,11902,1045801,260228,-35430,0,0,0,538,574,226,537,524,513,512,374,366,312,210,583,0
2,1769098667392,-397,282,14515,1457524,603534,-6108,0,0,0,539,566,230,516,509,506,436,318,370,316,213,583,0
2,1769098667408,-521,837,17745,2425134,846659,23212,0,0,0,519,555,231,488,485,504,353,244,380,300,201,570,0
2,1769098667424,-521,1196,19497,3444058,955393,51312,0,0,0,496,536,219,459,463,479,304,171,386,266,175,522,0
2,1769098667440,-311,1325,20952,4696331,1029918,-19547,0,0,0,434,506,198,441,438,438,313,174,381,234,157,394,0
2,1769098667456,-1024,-19,23876,5478239,1088561,-92851,0,0,0,335,476,188,398,385,401,340,177,343,187,130,294,0
2,1769098667472,703,-5312,24374,5023755,1414763,-70860,0,0,0,279,466,184,386,374,397,365,182,344,179,133,262,0
2,1769098667488,4034,-18004,11672,2657263,1781283,-917519,0,0,0,299,470,190,401,389,411,354,182,330,179,128,255,0
2,1769098667504,1876,-24986,1301,335975,1451415,-2322509,0,0,0,289,461,188,389,373,402,349,189,325,180,130,247,0
2,1769098667520,-2187,-25182,1521,-367740,482583,-2367713,0,0,0,276,454,186,387,369,399,347,192,326,175,129,237,0
2,1769098667536,-1349,-16501,4077,1115439,-172263,-262672,0,0,0,263,451,183,383,365,395,345,204,324,166,126,221,0
2,1769098667552,-473,-4197,3283,1977981,-337197,1341460,0,0,0,256,445,177,383,366,394,345,222,320,157,119,210,0
2,1769098667568,-1033,7159,392,1452637,-328645,1430646,0,0,0,256,436,172,382,372,388,353,240,314,155,121,204,0
2,1769098667584,-1780,13347,-1383,362853,-293215,734260,0,0,0,256,432,173,377,372,381,346,258,300,153,127,197,0
2,1769098667600,-2335,14859,-1727,-956614,-329867,-166155,0,0,0,251,433,172,369,371,374,328,275,283,147,131,187,0
2,1769098667616,-1904,13022,-2081,-2024407,-552222,-691499,0,0,0,248,432,170,362,373,366,322,283,270,153,135,180,0
2,1769098667632,-593,9911,-2574,-2575407,-701273,-872315,0,0,0,247,432,169,357,375,360,322,289,261,166,145,177,0
2,1769098667648,626,6331,-2412,-2724458,-635299,-836885,0,0,0,247,432,169,353,378,356,316,308,257,146,146,177,0
2,1769098667664,603,3747,-1186,-2761110,-456927,-660956,0,0,0,247,435,170,361,375,360,329,305,254,151,146,177,0
2,1769098667680,368,526,-114,-2645046,-368962,-423940,0,0,0,252,441,171,368,380,363,333,305,258,153,146,181,0
2,1769098667696,598,-4886,445,-1701870,-373849,-118507,0,0,0,245,440,170,360,385,363,316,304,260,147,147,183,0
2,1769098667712,842,-7532,1105,-427605,-342084,169820,0,0,0,245,447,170,360,390,363,316,306,265,147,147,183,0
2,1769098667728,674,-6298,2167,401949,-230907,625526,0,0,0,245,451,168,365,392,364,324,308,270,152,145,184,0
2,1769098667744,775,-5474,2182,227241,-95294,1277930,0,0,0,248,449,168,377,400,371,321,309,272,156,148,188,0
2,1769098667760,1703,-5781,1182,210137,-46425,1721418,0,0,0,341,496,183,426,424,431,339,298,307,224,178,403,0
2,1769098667776,3034,-5163,1847,482583,-83077,1594358,0,0,0,400,523,191,492,463,475,426,317,350,256,188,492,0
2,1769098667792,258,-4757,20248,-2698802,-608421,795346,0,0,0,415,530,281,491,458,469,567,426,357,454,398,419,0
2,1769098667808,-382,1876,33869,-8290663,-1110553,164933,0,0,0,432,546,403,476,447,481,664,526,359,654,619,356,0
2,1769098667824,-981,9236,43043,-9316916,-445931,-76969,0,0,0,451,564,417,492,455,498,647,498,372,619,589,402,0
2,1769098667840,799,12682,36965,-4500855,-8552,-48869,0,0,0,458,569,350,497,459,489,590,448,367,533,494,473,0
2,1769098667856,2991,7767,18597,1711644,-129503,-125838,0,0,0,460,572,296,504,478,499,569,461,352,508,464,479,0
2,1769098667872,1641,-660,7638,2765997,-1080009,-366519,0,0,0,477,595,338,512,493,512,571,470,358,520,479,485,0
2,1769098667888,-2005,-3283,2876,1125213,-1378111,-450818,0,0,0,485,601,425,516,494,531,581,474,380,536,497,489,0
2,1769098667904,-3019,-181,6623,-384845,-326202,-150272,0,0,0,485,604,428,519,495,524,586,476,379,535,501,494,0
2,1769098667920,-1048,1497,11165,-676838,395840,127059,0,0,0,498,604,444,521,494,529,570,465,379,532,500,484,0
2,1769098667936,689,1134,12218,-226020,233350,113620,0,0,0,488,595,355,528,507,529,581,476,383,522,486,476,0
2,1769098667952,368,684,11079,52534,-64751,3665,0,0,0,488,591,325,524,503,522,558,466,373,512,481,476,0
2,1769098667968,-449,689,10160,131946,-131946,-35430,0,0,0,476,587,285,522,505,518,549,448,366,495,465,464,0
2,1769098667984,-492,617,9839,175929,-43982,-2443,0,0,0,460,584,293,508,496,503,538,440,365,465,423,450,0
2,1769098668000,-320,378,9490,112399,40317,19547,0,0,0,448,576,286,491,482,491,520,427,361,475,424,447,0
2,1769098668016,-224,387,9552,-20769,120951,26878,0,0,0,442,569,267,482,478,480,508,425,361,464,423,436,0
2,1769098668032,-191,536,9806,-119729,173485,31764,0,0,0,436,565,263,481,469,477,508,418,364,454,416,427,0
2,1769098668048,-196,574,9820,-172263,210137,37873,0,0,0,428,569,271,485,458,475,517,413,363,458,411,418,0
2,1769098668064,-100,641,9930,-219911,252898,47647,0,0,0,419,571,272,485,450,472,516,413,358,456,406,412,0
2,1769098668080,90,799,10236,-218689,252898,46425,0,0,0,408,557,261,480,439,468,502,411,355,442,406,412,0
2,1769098668096,201,885,10361,-160046,188146,34208,0,0,0,412,549,252,476,435,460,499,413,354,433,412,395,0
2,1769098668112,110,789,10088,-119729,125838,26878,0,0,0,417,548,251,456,434,454,491,411,342,431,408,389,0
2,1769098668128,28,722,9877,-136833,127059,30543,0,0,0,407,534,249,469,436,457,511,422,336,431,405,388,0
2,1769098668144,52,765,9906,-182037,169820,40317,0,0,0,412,544,260,456,431,452,504,422,326,420,405,379,0
2,1769098668160,172,856,10059,-202807,194255,41538,0,0,0,404,525,265,465,445,454,510,422,334,436,406,383,0
2,1769098668176,282,933,10174,-195476,183259,34208,0,0,0,406,527,270,460,427,440,515,423,332,461,436,374,0
2,1769098668192,382,995,10265,-153938,119729,20769,0,0,0,394,522,261,458,420,442,519,429,330,462,445,374,0
2,1769098668208,416,1028,10294,-102625,30543,7330,0,0,0,397,526,266,458,420,445,526,430,324,454,431,376,0
2,1769098668224,354,1038,10222,-51312,-39095,-1221,0,0,0,397,525,262,464,424,455,522,433,333,454,430,371,0
2,1769098668240,287,1014,10145,-20769,-52534,-2443,0,0,0,398,527,265,461,421,448,529,436,329,454,430,367,0
2,1769098668256,287,1014,10098,-1221,-54977,-2443,0,0,0,396,530,268,457,418,438,536,437,323,461,436,361,0
2,1769098668272,282,1019,10064,12217,-65973,-4886,0,0,0,395,533,264,458,420,441,530,437,324,463,441,358,0
2,1769098668288,248,990,10026,21991,-74525,-7330,0,0,0,399,537,267,459,423,446,521,434,320,459,435,361,0
2,1769098668304,210,957,9997,14660,-67195,-7330,0,0,0,400,535,272,458,422,450,519,433,316,468,447,357,0
2,1769098668320,220,961,10011,1221,-48869,-3665,0,0,0,401,537,276,450,418,449,520,438,314,470,451,359,0
2,1769098668336,258,981,10054,-9773,-36651,-3665,0,0,0,386,530,263,443,415,443,520,432,311,463,443,362,0
2,1769098668352,282,1000,10088,-14660,-37873,-8552,0,0,0,377,520,253,446,415,443,523,441,316,466,451,361,0
2,1769098668368,287,1005,10107,-12217,-39095,-12217,0,0,0,381,507,244,450,418,445,531,437,313,467,453,351,0
2,1769098668384,296,1019,10102,-4886,-39095,-14660,0,0,0,374,511,242,447,414,442,521,443,331,473,450,343,0
2,1769098668400,291,1024,10064,0,-43982,-15882,0,0,0,371,504,242,448,412,434,523,442,307,459,448,340,0
2,1769098668416,263,1009,10021,-1221,-51312,-13439,0,0,0,370,506,240,452,409,433,516,436,306,469,469,333,0
2,1769098668432,239,985,9992,-15882,-52534,-9773,0,0,0,367,504,227,444,403,424,521,439,304,475,471,331,0
2,1769098668448,239,985,10007,-36651,-47647,-7330,0,0,0,355,502,219,438,400,420,514,441,300,487,454,316,0
2,1769098668464,268,1000,10045,-57421,-41538,-7330,0,0,0,335,497,217,434,401,415,513,446,297,481,463,299,0
2,1769098668480,268,952,10069,-90408,-39095,-9773,0,0,0,306,489,210,428,403,405,514,454,292,479,476,280,0
2,1769098668496,239,914,10074,-142942,-34208,-10995,0,0,0,285,487,197,424,403,389,514,463,284,485,480,253,0
2,1769098668512,220,966,10074,-199142,-30543,-15882,0,0,0,279,486,190,421,400,381,515,474,275,479,488,231,0
2,1769098668528,253,1134,10112,-208915,-32986,-28099,0,0,0,268,480,190,415,395,381,508,483,272,470,497,223,0
2,1769098668544,296,1282,10122,-179594,-41538,-40317,0,0,0,265,482,183,415,396,377,510,491,270,463,501,210,0
2,1769098668560,315,1335,10098,-122173,-47647,-47647,0,0,0,265,490,181,417,398,371,508,494,262,459,502,204,0
2,1769098668576,315,1335,10059,-63529,-48869,-46425,0,0,0,279,489,189,414,394,369,498,495,263,446,489,188,0
2,1769098668592,320,1306,10059,-17104,-40317,-40317,0,0,0,280,482,182,419,395,365,503,505,261,360,400,198,0
2,1769098668608,354,1325,10040,14660,-34208,-32986,0,0,0,281,476,184,418,402,370,503,510,264,306,355,201,0
2,1769098668624,378,1368,9987,63529,-34208,-24434,0,0,0,281,479,186,421,402,371,498,496,262,287,331,200,0
2,1769098668640,373,1368,9992,140499,-43982,-24434,0,0,0,276,480,187,420,402,382,496,488,269,282,324,205,0
2,1769098668656,435,1296,10131,257785,-65973,-47647,0,0,0,272,484,189,423,409,387,493,465,274,311,345,210,0
2,1769098668672,655,1359,10490,399505,-146607,-83077,0,0,0,274,492,191,431,418,395,493,446,280,267,276,234,0
2,1769098668688,938,1421,11060,593761,-382401,-114842,0,0,0,287,498,187,439,426,404,482,422,285,238,229,270,0
2,1769098668704,899,1220,11505,879645,-711047,-179594,0,0,0,308,501,184,446,433,414,463,400,292,241,216,310,0
2,1769098668720,1191,842,11911,1237612,-871093,-283441,0,0,0,329,503,182,447,433,421,444,385,288,242,205,331,0
2,1769098668736,2005,679,13323,1656666,-615752,-547335,0,0,0,347,505,182,442,431,415,418,370,279,239,196,335,0
2,1769098668752,1966,947,14788,2021963,-349414,-795346,0,0,0,349,504,180,436,436,403,390,359,279,237,196,341,0
2,1769098668768,2230,1105,15328,2408030,-365297,-938289,0,0,0,320,493,170,425,444,393,378,362,273,230,207,327,0
2,1769098668784,2900,909,15132,2822197,-559552,-1142317,0,0,0,285,475,170,403,420,380,355,370,270,209,202,276,0
2,1769098668800,3594,545,14142,3086091,-660956,-1446528,0,0,0,241,458,166,381,396,372,340,374,259,192,207,243,0
2,1769098668816,4235,1550,12744,3040887,-555887,-1723861,0,0,0,232,436,172,367,391,370,344,383,259,166,196,192,0
2,1769098668832,4441,5800,11380,2532647,-503352,-1776396,0,0,0,232,436,177,366,390,371,344,381,261,177,223,191,0
2,1769098668848,5661,11361,8561,1563815,-482583,-1464854,0,0,0,235,441,171,362,384,362,340,376,255,183,241,184,0
2,1769098668864,6738,13199,6365,553443,25656,-819781,0,0,0,239,436,169,362,384,362,342,385,254,206,240,184,0
2,1769098668880,5728,12835,5723,-219911,641408,-160046,0,0,0,235,431,165,358,383,359,342,391,254,178,227,181,0
2,1769098668896,3460,12160,5742,-766025,1060462,436157,0,0,0,238,433,170,355,382,361,340,393,254,166,219,182,0
2,1769098668912,1378,12007,6015,-1229060,1260825,822224,0,0,0,238,434,171,355,380,362,338,394,252,164,218,181,0
2,1769098668928,-392,11725,6762,-1710422,1309695,1022588,0,0,0,237,431,170,356,383,364,340,399,255,162,212,182,0
2,1769098668944,-1899,10591,8174,-2265088,1232726,1117883,0,0,0,234,430,169,355,385,365,344,404,258,156,205,180,0
2,1769098668960,-2727,9198,9547,-2676811,1091005,1141096,0,0,0,232,433,169,353,384,364,346,405,256,153,201,177,0
2,1769098668976,-2828,7288,11045,-3021339,864985,1119105,0,0,0,234,435,171,350,381,362,346,405,255,157,204,179,0
2,1769098668992,-2263,5474,12347,-3276681,665843,1070235,0,0,0,236,434,172,348,377,359,347,410,256,158,208,180,0
2,1769098669008,-1416,3790,13414,-3459940,538783,1045801,0,0,0,241,434,174,353,376,358,347,405,255,179,231,178,0
2,1769098669024,-402,1651,14199,-3517362,443488,1110553,0,0,0,255,440,171,352,376,354,334,386,248,276,358,178,0
2,1769098669040,459,-416,14539,-3408628,405614,1207069,0,0,0,222,440,164,295,415,333,334,384,248,268,351,172,0
2,1769098669056,847,-2636,14558,-3143512,417831,1286482,0,0,0,223,438,164,344,374,355,333,382,248,264,342,172,0
2,1769098669072,469,-5173,14343,-2757445,401949,1297477,0,0,0,226,438,166,348,373,357,333,382,248,256,333,170,0
2,1769098669088,67,-7638,13902,-2304183,332310,1242499,0,0,0,229,440,171,348,370,357,332,381,249,247,321,173,0
2,1769098669104,-105,-9710,13117,-1764178,216246,1086118,0,0,0,225,437,167,350,384,359,333,388,250,213,282,171,0
2,1769098669120,-52,-10863,12007,-1189965,79412,803898,0,0,0,226,441,167,352,390,359,338,397,253,170,221,174,0
2,1769098669136,-4,-11261,10978,-678060,-32986,488692,0,0,0,225,440,169,348,383,356,329,388,248,204,268,175,0
2,1769098669152,-167,-10859,10112,-172263,-120951,146607,0,0,0,225,438,171,345,378,354,320,378,243,241,324,173,0
2,1769098669168,-406,-9983,9490,235793,-194255,-74525,0,0,0,228,443,173,349,380,356,317,378,242,228,308,171,0
2,1769098669184,-277,-9011,8896,525344,-265115,-120951,0,0,0,230,442,170,351,393,359,324,396,246,199,266,172,0
2,1769098669200,603,-7858,8097,825889,-317649,-91629,0,0,0,233,429,162,350,399,358,362,440,253,177,241,176,0
2,1769098669216,1737,-5293,9619,1238834,-492357,-87964,0,0,0,233,413,156,357,361,352,399,459,246,198,302,168,0
2,1769098669232,2613,2646,12385,2262644,-1714087,-129503,0,0,0,235,402,152,356,352,346,423,469,249,211,333,161,0
2,1769098669248,2388,5168,12495,3211929,-2288301,31764,0,0,0,238,408,153,363,352,353,441,483,279,225,338,155,0
2,1769098669264,-191,2282,13323,3660304,-1042136,526565,0,0,0,246,412,160,363,351,357,457,492,264,246,372,161,0
2,1769098669280,-2885,-81,16372,3203377,206472,459370,0,0,0,252,421,168,369,357,363,481,498,270,238,371,172,0
2,1769098669296,-1450,-397,16429,2345722,-12217,-79412,0,0,0,257,425,172,379,354,363,512,531,272,254,371,170,0
2,1769098669312,760,478,12261,1467298,-438601,-157603,0,0,0,258,440,185,386,372,384,540,556,311,353,448,191,0
2,1769098669328,301,512,10275,918741,-288328,10995,0,0,0,293,462,217,404,396,400,572,574,308,374,442,253,0
2,1769098669344,-531,-67,10782,476474,-75747,48869,0,0,0,353,485,240,427,406,410,586,577,316,380,425,307,0
2,1769098669360,-268,153,10964,229685,-124616,-25656,0,0,0,389,495,256,438,418,424,594,576,319,388,418,348,0
2,1769098669376,4,531,10514,207694,-166155,-42760,0,0,0,413,505,272,440,420,431,607,575,321,407,417,372,0
2,1769098669392,0,603,10126,239459,-118507,-15882,0,0,0,437,523,289,444,426,441,619,568,333,374,372,402,0
2,1769098669408,-52,540,10208,229685,-67195,-12217,0,0,0,451,534,301,454,443,471,618,551,347,307,301,439,0
2,1769098669424,-47,564,10318,256563,-47647,-28099,0,0,0,467,537,311,464,450,494,615,534,355,319,276,455,0
2,1769098669440,-38,579,10351,343306,-23212,-42760,0,0,0,480,544,319,466,460,497,619,516,361,335,257,469,0
2,1769098669456,-33,473,10308,411723,13439,-52534,0,0,0,487,546,319,468,462,502,607,487,378,287,229,501,0
2,1769098669472,-4,339,10270,422718,42760,-61086,0,0,0,505,557,324,483,468,507,596,466,386,289,224,521,0
2,1769098669488,0,311,10380,423940,57421,-72082,0,0,0,506,559,304,480,472,507,569,436,397,281,208,520,0
2,1769098669504,-43,291,10528,458148,84299,-75747,0,0,0,510,564,297,488,475,513,559,422,397,281,205,527,0
2,1769098669520,-76,229,10591,546113,155159,-65973,0,0,0,513,566,315,496,493,515,544,392,407,288,205,549,0
2,1769098669536,110,76,10428,648738,259006,-58643,0,0,0,504,562,261,503,509,511,529,374,403,284,200,552,0
2,1769098669552,320,-71,10227,702495,304210,-78190,0,0,0,501,565,252,507,520,515,514,360,404,276,189,552,0
2,1769098669568,330,-148,10198,689055,282219,-107512,0,0,0,501,568,246,509,522,522,503,351,394,275,187,563,0
2,1769098669584,229,-181,10251,668286,227241,-114842,0,0,0,503,569,234,521,527,526,509,344,387,285,192,571,0
2,1769098669600,153,-268,10145,645073,128281,-89186,0,0,0,508,574,234,521,526,520,499,336,395,286,193,572,0
2,1769098669616,143,-411,9887,601091,61086,-58643,0,0,0,510,576,235,515,526,515,482,336,401,283,193,579,0
2,1769098669632,201,-545,9624,521678,34208,-31764,0,0,0,507,572,227,518,535,520,480,338,405,285,194,586,0
2,1769098669648,291,-641,9518,416610,21991,-13439,0,0,0,505,569,227,522,541,525,485,335,416,287,194,584,0
2,1769098669664,397,-689,9581,296880,-10995,-10995,0,0,0,516,575,237,525,541,527,488,331,405,291,196,590,0
2,1769098669680,464,-703,9696,205250,-53756,-19547,0,0,0,524,583,244,517,538,525,476,329,405,286,189,590,0
2,1769098669696,445,-693,9844,139277,-98960,-37873,0,0,0,520,581,236,517,540,522,477,339,406,284,191,595,0
2,1769098669712,354,-684,10011,102625,-125838,-48869,0,0,0,517,583,235,535,556,529,484,335,403,293,192,597,0
2,1769098669728,306,-670,10299,112399,-131946,-48869,0,0,0,514,583,224,532,547,531,476,335,402,290,198,594,0
2,1769098669744,311,-641,10629,193033,-122173,-50090,0,0,0,510,581,231,525,550,532,466,334,418,285,193,605,0
2,1769098669760,244,-650,10744,320093,-105068,-52534,0,0,0,512,588,227,523,551,529,463,335,404,285,194,598,0
2,1769098669776,191,-717,10614,430049,-80634,-41538,0,0,0,529,597,230,527,555,519,450,325,404,292,195,603,0
2,1769098669792,268,-799,10634,522900,-64751,-29321,0,0,0,532,597,227,530,558,519,459,325,418,295,196,601,0
2,1769098669808,502,-880,10916,636521,-74525,-36651,0,0,0,528,594,222,534,559,528,453,322,417,297,199,605,0
2,1769098669824,555,-928,11232,811229,-106290,-76969,0,0,0,531,594,221,532,557,530,432,324,417,298,202,607,0
2,1769098669840,402,-981,11414,1017701,-120951,-112399,0,0,0,534,593,218,538,553,525,416,326,421,301,201,607,0
2,1769098669856,282,-1062,11667,1262047,-111177,-119729,0,0,0,532,591,212,534,549,526,405,327,414,301,204,615,0
2,1769098669872,449,-1172,12194,1523497,-116064,-122173,0,0,0,534,586,213,521,541,531,391,329,396,297,209,622,0
2,1769098669888,746,-1335,12854,1846034,-149051,-158824,0,0,0,536,578,218,515,528,528,374,327,382,296,208,617,0
2,1769098669904,1033,-1584,13610,2236988,-161268,-235793,0,0,0,526,569,217,506,523,524,364,327,385,297,210,605,0
2,1769098669920,1459,-1789,14960,2712241,-162490,-343306,0,0,0,518,564,222,501,522,530,356,326,388,289,209,585,0
2,1769098669936,2211,-1914,17114,3367089,-204028,-507018,0,0,0,495,561,213,490,519,523,327,293,391,274,204,551,0
2,1769098669952,2727,-2100,19152,4108679,-224798,-684169,0,0,0,456,553,202,489,513,509,311,272,380,262,193,496,0
2,1769098669968,2191,-1981,20971,4911356,-182037,-827111,0,0,0,424,539,191,475,502,494,301,256,368,294,222,472,0
2,1769098669984,2110,-1789,21392,5556430,-162490,-872315,0,0,0,382,497,173,460,475,452,306,266,332,250,188,418,0
2,1769098670000,2603,-1775,20933,5740911,-188146,-971275,0,0,0,333,462,164,415,424,410,314,286,300,223,177,383,0
2,1769098670016,4541,-961,18970,5496565,-278554,-1202182,0,0,0,246,424,159,367,380,386,334,330,282,185,180,290,0
2,1769098670032,6920,-871,13496,5018868,-58643,-1698205,0,0,0,236,408,159,354,357,363,351,354,274,163,176,210,0
2,1769098670048,4819,-3555,8523,4630358,175929,-2151467,0,0,0,239,415,158,354,356,356,352,353,270,158,172,188,0
2,1769098670064,3163,3809,6513,3341432,80634,-2274862,0,0,0,232,424,157,352,362,357,340,352,266,156,174,189,0
2,1769098670080,2976,15305,7427,641408,-174707,-2073276,0,0,0,227,427,155,348,368,353,325,360,259,152,178,183,0
2,1769098670096,2167,14577,6432,-1772730,-825889,-1634675,0,0,0,225,427,154,344,368,347,315,364,250,150,180,176,0
2,1769098670112,4809,7437,1287,-1975538,-952949,-1303586,0,0,0,227,425,158,341,365,341,314,367,246,151,181,172,0
2,1769098670128,5436,6972,14,-2080607,-204028,-1145983,0,0,0,227,423,159,333,372,335,315,373,244,153,187,175,0
2,1769098670144,3469,8896,2263,-2894279,359188,-718377,0,0,0,226,424,159,294,405,319,316,376,246,154,189,170,0
2,1769098670160,3637,8403,3335,-3676187,530231,-161268,0,0,0,225,427,159,346,373,342,315,379,247,154,195,168,0
2,1769098670176,4690,6202,3594,-4072027,871093,270002,0,0,0,225,428,159,343,369,342,318,387,248,154,195,168,0
2,1769098670192,3996,4651,4972,-4079358,1414763,526565,0,0,0,220,429,159,345,369,355,316,389,247,218,248,175,0
2,1769098670208,2646,4498,7221,-4090353,1813048,768468,0,0,0,223,429,162,346,369,356,318,393,251,166,204,175,0
2,1769098670224,1387,4824,9897,-4364021,1991420,1098335,0,0,0,227,429,164,347,370,357,319,387,256,153,195,176,0
2,1769098670240,607,3814,12084,-4689001,2084272,1475850,0,0,0,229,429,165,348,370,357,320,385,257,153,194,175,0
2,1769098670256,-134,1407,14017,-4879591,2156354,1893682,0,0,0,230,431,166,349,371,355,323,382,258,154,192,174,0
2,1769098670272,-1651,-1354,16712,-4937012,2171015,2381152,0,0,0,228,431,163,350,372,355,326,378,261,155,191,176,0
2,1769098670288,-3541,-4048,19631,-5000542,2006081,2761110,0,0,0,226,430,162,351,372,356,326,373,264,154,188,177,0
2,1769098670304,-5058,-8968,22469,-4973664,1538158,3010343,0,0,0,228,433,165,342,381,355,325,367,265,153,183,177,0
2,1769098670320,-3646,-17291,23914,-4451985,863763,2907718,0,0,0,229,435,163,337,391,353,326,359,265,154,179,177,0
2,1769098670336,57,-24393,23010,-3551570,360410,2469117,0,0,0,226,434,160,355,373,359,330,361,263,153,180,177,0
2,1769098670352,3967,-29083,19597,-2151467,59864,1731192,0,0,0,223,431,160,351,372,357,338,377,262,164,194,180,0
2,1769098670368,3235,-33328,16831,-548556,-395840,995710,0,0,0,225,431,161,352,368,356,361,388,259,229,229,182,0
2,1769098670384,-2675,-34510,13285,1321912,-1163087,59864,0,0,0,250,459,183,392,384,377,465,393,277,199,195,224,0
2,1769098670400,-8442,-23661,14678,1874134,-1644449,-497244,0,0,0,300,463,197,412,399,393,503,405,295,288,285,264,0
2,1769098670416,-6307,-6949,14137,653625,-1275486,-276111,0,0,0,345,484,231,418,400,418,554,436,321,249,228,340,0
2,1769098670432,-201,3254,11194,-726929,-443488,107512,0,0,0,393,492,260,432,402,432,577,447,374,249,207,386,0
2,1769098670448,1292,2445,10447,-466701,-113620,68416,0,0,0,421,510,299,431,408,447,587,455,388,253,206,421,0
2,1769098670464,440,177,10801,160046,-127059,-20769,0,0,0,447,524,313,436,421,462,595,454,390,261,208,435,0
2,1769098670480,282,-9,10562,339641,-161268,-21991,0,0,0,467,537,326,441,430,469,599,446,390,263,209,453,0
2,1769098670496,598,445,10198,259006,-156381,-7330,0,0,0,478,549,334,440,434,475,603,441,393,262,210,474,0
2,1769098670512,650,559,10083,184481,-149051,-15882,0,0,0,489,557,330,445,440,478,606,436,397,273,213,485,0
2,1769098670528,421,373,10184,188146,-136833,-25656,0,0,0,500,560,341,451,443,471,599,425,403,278,212,488,0
2,1769098670544,339,349,10232,190589,-109955,-21991,0,0,0,508,562,361,448,444,470,586,412,414,263,205,482,0
2,1769098670560,382,406,10265,196698,-72082,-17104,0,0,0,522,567,359,462,451,480,578,401,413,280,213,482,0
2,1769098670576,445,416,10342,234572,-46425,-20769,0,0,0,529,576,357,448,443,472,570,387,404,341,268,486,0
2,1769098670592,483,373,10366,284663,-51312,-30543,0,0,0,532,572,343,456,451,471,567,391,405,338,260,504,0
2,1769098670608,492,268,10184,316428,-87964,-41538,0,0,0,533,574,340,458,453,480,557,383,398,304,225,509,0
2,1769098670624,488,153,9935,294437,-118507,-52534,0,0,0,534,576,337,461,456,489,547,375,391,270,190,514,0
2,1769098670640,478,76,9767,223576,-136833,-62308,0,0,0,538,578,332,462,458,490,552,373,395,275,197,520,0
2,1769098670656,416,76,9753,130725,-140499,-70860,0,0,0,539,576,323,460,459,489,554,389,398,285,204,512,0
2,1769098670672,306,90,9753,46425,-133168,-70860,0,0,0,539,574,322,463,458,487,549,397,396,279,200,504,0
2,1769098670688,205,129,9877,-32986,-102625,-50090,0,0,0,531,570,319,459,455,479,553,402,394,276,198,501,0
2,1769098670704,229,167,10083,-80634,-65973,-26878,0,0,0,521,567,317,455,454,473,562,405,385,285,202,494,0
2,1769098670720,311,153,10069,-101403,-35430,-12217,0,0,0,508,563,311,453,448,470,561,409,375,283,203,486,0
2,1769098670736,335,119,9887,-163711,-8552,-4886,0,0,0,491,557,296,453,443,469,556,414,371,271,200,476,0
2,1769098670752,363,157,9901,-251676,15882,-2443,0,0,0,472,548,279,456,441,468,558,419,368,268,202,456,0
2,1769098670768,392,253,10069,-311541,29321,-3665,0,0,0,455,539,272,456,435,463,559,424,364,266,208,432,0
2,1769098670784,392,368,10208,-311541,21991,-7330,0,0,0,447,534,279,451,426,453,551,427,359,272,216,432,0
2,1769098670800,402,464,10279,-268780,4886,-8552,0,0,0,433,527,280,456,428,462,551,432,358,270,211,432,0
2,1769098670816,435,564,10303,-167377,-14660,-10995,0,0,0,432,524,270,457,428,462,553,433,356,270,210,429,0
2,1769098670832,430,579,10251,-69638,-26878,-14660,0,0,0,418,519,254,458,428,456,549,433,347,274,216,444,0
2,1769098670848,397,512,10145,-13439,-31764,-15882,0,0,0,419,519,269,456,424,458,548,430,350,275,215,432,0
2,1769098670864,392,473,10093,3665,-32986,-12217,0,0,0,414,518,277,455,424,466,552,432,357,281,236,427,0
2,1769098670880,421,492,10098,12217,-35430,-10995,0,0,0,411,521,272,453,438,466,556,436,361,290,262,420,0
2,1769098670896,435,488,10093,23212,-39095,-10995,0,0,0,406,516,287,455,432,472,556,437,363,293,266,416,0
2,1769098670912,440,454,10064,24434,-43982,-12217,0,0,0,406,514,277,454,425,465,552,435,357,282,242,418,0
2,1769098670928,430,445,10050,7330,-50090,-13439,0,0,0,410,517,269,455,429,464,555,440,358,269,223,422,0
2,1769098670944,421,469,10064,-2443,-56199,-13439,0,0,0,418,520,275,454,432,467,554,441,358,265,218,421,0
2,1769098670960,421,507,10083,-4886,-59864,-13439,0,0,0,423,521,279,456,431,469,551,438,355,265,218,417,0
2,1769098670976,421,502,10093,0,-62308,-13439,0,0,0,422,522,273,460,431,469,551,437,352,266,218,416,0
2,1769098670992,425,483,10088,0,-63529,-14660,0,0,0,419,520,271,458,427,465,549,434,351,268,216,418,0
2,1769098671008,416,483,10074,-1221,-62308,-14660,0,0,0,416,519,274,458,423,466,551,435,354,269,218,419,0
2,1769098671024,411,502,10083,0,-61086,-13439,0,0,0,417,519,271,459,424,468,555,436,357,269,217,420,0
2,1769098671040,411,526,10122,12217,-61086,-13439,0,0,0,420,522,277,461,428,472,555,436,358,271,217,423,0
2,1769098671056,421,531,10141,34208,-61086,-13439,0,0,0,426,527,284,461,428,469,556,436,357,271,216,425,0
2,1769098671072,421,512,10122,51312,-61086,-14660,0,0,0,421,523,278,463,429,471,556,434,357,265,215,422,0
2,1769098671088,411,492,10107,59864,-59864,-14660,0,0,0,421,523,274,462,428,468,559,438,361,268,215,423,0
2,1769098671104,411,502,10107,69638,-57421,-14660,0,0,0,425,524,274,460,428,466,558,439,360,270,218,424,0
2,1769098671120,411,507,10102,85521,-58643,-17104,0,0,0,427,525,272,465,431,468,560,438,363,268,216,425,0
2,1769098671136,411,464,10069,96516,-63529,-18325,0,0,0,434,526,280,468,433,470,558,432,358,271,215,425,0
2,1769098671152,406,421,10064,84299,-63529,-14660,0,0,0,430,523,276,466,431,468,558,431,357,274,217,427,0
2,1769098671168,421,421,10112,70860,-63529,-14660,0,0,0,427,522,271,462,428,466,559,431,361,275,216,429,0
2,1769098671184,449,445,10184,78190,-62308,-18325,0,0,0,430,523,268,467,434,472,556,429,362,272,214,428,0
2,1769098671200,454,459,10260,119729,-63529,-29321,0,0,0,433,523,266,469,436,475,546,424,359,271,214,427,0
2,1769098671216,445,454,10270,174707,-76969,-37873,0,0,0,434,524,265,465,432,471,536,418,357,274,214,428,0
2,1769098671232,425,421,10179,219911,-98960,-37873,0,0,0,434,525,259,467,438,473,531,411,360,272,211,428,0
2,1769098671248,425,392,10189,270002,-120951,-37873,0,0,0,439,526,256,465,438,472,519,406,358,269,212,429,0
2,1769098671264,421,349,10303,335975,-138055,-41538,0,0,0,442,528,245,465,438,471,511,400,354,272,204,437,0
2,1769098671280,421,272,10337,417831,-145385,-45204,0,0,0,436,522,241,466,441,473,508,405,357,271,204,439,0
2,1769098671296,387,191,10189,474031,-147829,-48869,0,0,0,437,518,225,470,448,477,509,405,357,268,204,439,0
2,1769098671312,320,81,9911,454483,-138055,-42760,0,0,0,433,517,226,466,445,474,511,409,355,266,206,439,0
2,1769098671328,301,-57,9643,329867,-111177,-31764,0,0,0,428,516,226,469,443,475,515,410,363,271,210,436,0
2,1769098671344,301,-86,9633,179594,-80634,-30543,0,0,0,417,516,223,467,440,475,526,415,369,271,213,433,0
2,1769098671360,306,-28,9825,51312,-47647,-30543,0,0,0,413,515,223,470,443,475,531,422,367,272,216,435,0
2,1769098671376,358,62,10098,9773,-31764,-28099,0,0,0,415,518,228,470,442,477,532,429,370,269,216,442,0
2,1769098671392,416,100,10260,50090,-54977,-35430,0,0,0,422,524,230,469,447,482,526,429,378,265,213,443,0
2,1769098671408,378,110,10351,131946,-100181,-45204,0,0,0,434,532,230,470,455,484,529,427,383,268,214,450,0
2,1769098671424,234,81,10423,237015,-150272,-37873,0,0,0,444,541,230,471,461,484,548,432,391,273,218,463,0
2,1769098671440,253,9,10514,365297,-206472,-8552,0,0,0,460,545,233,473,470,490,557,431,399,296,242,480,0
2,1769098671456,449,-76,10337,469144,-268780,-3665,0,0,0,487,548,246,476,483,499,561,422,393,337,276,504,0
2,1769098671472,636,-191,9834,463035,-345749,-45204,0,0,0,489,556,264,475,494,503,578,425,406,354,294,511,0
2,1769098671488,258,-306,9375,290771,-438601,-92851,0,0,0,515,570,282,482,490,507,577,417,405,463,413,516,0
2,1769098671504,-124,-411,9045,67195,-439822,-76969,0,0,0,530,588,316,479,499,512,601,433,424,480,433,524,0
2,1769098671520,-153,-473,9246,-204028,-348193,-31764,0,0,0,551,591,389,475,492,513,596,426,435,443,377,527,0
2,1769098671536,-105,-272,10428,-326202,-248011,-1221,0,0,0,567,609,398,477,499,521,602,434,432,441,382,537,0
2,1769098671552,43,23,11610,-156381,-185703,8552,0,0,0,575,612,411,483,502,529,596,435,427,435,375,542,0
2,1769098671568,215,86,11840,215024,-168598,-21991,0,0,0,567,602,345,500,514,526,572,412,414,436,365,550,0
2,1769098671584,52,-23,11596,513126,-146607,-59864,0,0,0,554,589,268,506,524,524,536,388,422,443,364,559,0
2,1769098671600,-172,-81,12352,824668,17104,-63529,0,0,0,559,582,237,507,531,511,495,356,411,360,272,576,0
2,1769098671616,-358,201,14725,1314581,293215,-31764,0,0,0,552,581,225,506,518,497,432,305,404,300,203,588,0
2,1769098671632,-368,684,17875,2157576,598647,34208,0,0,0,534,578,220,486,494,499,349,236,415,285,190,573,0
2,1769098671648,76,990,20244,3462384,828333,39095,0,0,0,503,556,215,465,475,499,305,184,400,262,170,516,0
2,1769098671664,564,1139,22560,4922352,949284,-80634,0,0,0,435,508,191,446,448,460,323,173,362,242,155,420,0
2,1769098671680,-435,86,26044,5639507,993266,-168598,0,0,0,346,471,173,411,412,412,348,179,342,212,147,319,0
2,1769098671696,-67,-3685,25048,5105611,1233947,-107512,0,0,0,273,465,176,397,398,411,359,202,333,179,141,251,0
2,1769098671712,3000,-10868,13290,2819753,1568701,-601091,0,0,0,282,468,182,398,397,409,348,216,329,172,134,243,0
2,1769098671728,3665,-16554,2593,-30543,1248608,-2324953,0,0,0,267,460,181,397,383,415,355,201,325,168,133,236,0
2,1769098671744,1143,-17669,1976,-851546,626747,-2872288,0,0,0,254,457,183,390,378,409,354,208,327,163,127,233,0
2,1769098671760,-1134,-11969,3608,307876,85521,-1321912,0,0,0,243,455,170,380,375,394,352,217,319,160,127,217,0
2,1769098671776,-851,-2287,1660,978606,-333532,719599,0,0,0,239,451,168,373,372,386,348,226,324,150,123,211,0
2,1769098671792,234,5192,-693,755029,-548556,1714087,0,0,0,226,444,161,359,366,373,351,239,301,142,123,199,0
2,1769098671808,244,7786,-1091,-50090,-452040,1408655,0,0,0,223,445,162,353,366,369,337,255,285,142,127,198,0
2,1769098671824,-717,7762,-492,-878424,-350636,842994,0,0,0,222,443,162,350,370,368,327,283,276,138,131,192,0
2,1769098671840,-1832,5987,43,-1626123,-395840,342084,0,0,0,225,438,164,347,373,366,319,299,270,137,135,189,0
2,1769098671856,-1584,3924,-358,-2015855,-570548,84299,0,0,0,228,435,166,349,375,365,315,299,270,138,138,190,0
2,1769098671872,-536,2397,-1201,-2020742,-631634,-135612,0,0,0,231,433,168,354,377,365,315,300,271,141,138,191,0
2,1769098671888,19,1186,-1320,-1646892,-481361,-428827,0,0,0,236,433,169,357,379,367,313,298,268,143,138,191,0
2,1769098671904,382,555,-804,-1268156,-298102,-823446,0,0,0,237,434,170,360,380,367,314,296,269,144,140,191,0
2,1769098671920,617,1397,-33,-1326799,-72082,-1204626,0,0,0,235,437,168,363,380,368,319,295,267,151,142,191,0
2,1769098671936,-220,1229,545,-1776396,85521,-1088561,0,0,0,236,440,167,368,383,375,317,294,270,163,147,190,0
2,1769098671952,-205,-2689,823,-1648114,18325,-324980,0,0,0,234,437,166,367,387,375,320,296,277,153,152,197,0
2,1769098671968,1995,-8245,804,-615752,-100181,723264,0,0,0,234,444,169,367,386,378,329,297,286,152,153,196,0
2,1769098671984,3627,-10471,1182,361632,94073,1204626,0,0,0,226,452,161,362,379,372,361,310,291,141,137,189,0
2,1769098672000,3034,-10327,1402,662177,510683,972497,0,0,0,361,509,194,438,443,473,350,268,392,239,173,474,0
2,1769098672016,-181,-7662,3254,602313,713490,383623,0,0,0,391,535,188,475,470,478,460,297,414,295,206,491,0
2,1769098672032,-2311,-3742,24508,-2631607,-648738,383623,0,0,0,434,553,356,462,450,454,599,465,392,519,482,375,0
2,1769098672048,1038,3043,43321,-8096407,-1806939,526565,0,0,0,467,564,431,456,437,457,634,520,383,606,570,363,0
2,1769098672064,1871,9083,44235,-8060977,-1629788,201585,0,0,0,479,565,388,459,447,466,591,479,418,562,509,435,0
2,1769098672080,899,9260,26111,-2095267,-618195,-162490,0,0,0,498,569,363,466,453,477,565,454,439,503,437,484,0
2,1769098672096,287,2479,11150,1993864,-42760,-270002,0,0,0,521,581,379,471,454,496,575,466,436,487,419,504,0
2,1769098672112,-52,-2785,4575,2250427,-177150,-224798,0,0,0,526,591,399,473,460,510,590,477,443,498,435,517,0
2,1769098672128,-210,-1832,7011,-2443,-447153,-142942,0,0,0,529,597,438,476,460,516,597,480,447,498,430,520,0
2,1769098672144,-449,679,10562,-580321,-217468,-72082,0,0,0,534,596,458,483,463,522,598,482,445,499,429,524,0
2,1769098672160,-86,1024,11380,-233350,20769,6108,0,0,0,530,592,423,494,474,523,592,478,439,479,406,514,0
2,1769098672176,277,196,10313,30543,53756,19547,0,0,0,528,594,404,479,461,514,595,484,432,487,410,524,0
2,1769098672192,162,239,10198,-76969,32986,-2443,0,0,0,512,588,374,479,461,506,584,482,423,490,436,504,0
2,1769098672208,43,425,10246,-97738,63529,-3665,0,0,0,498,578,342,477,457,490,570,475,407,464,418,479,0
2,1769098672224,52,248,9873,-116064,113620,17104,0,0,0,486,567,330,464,453,476,556,474,401,476,425,473,0
2,1769098672240,157,263,9925,-179594,149051,35430,0,0,0,463,561,309,453,440,468,563,483,394,321,281,456,0
2,1769098672256,287,473,10246,-175929,151494,37873,0,0,0,440,548,307,456,440,468,556,474,383,277,237,437,0
2,1769098672272,315,526,10222,-96516,125838,29321,0,0,0,430,539,289,459,434,458,546,467,365,362,282,402,0
2,1769098672288,277,382,9877,-92851,103847,29321,0,0,0,429,534,277,445,417,440,543,467,349,342,275,384,0
2,1769098672304,315,382,9911,-163711,97738,32986,0,0,0,420,531,273,430,414,431,542,470,331,264,244,382,0
2,1769098672320,402,502,10107,-200363,81855,30543,0,0,0,406,531,260,435,430,436,544,475,316,266,253,378,0
2,1769098672336,440,617,10174,-160046,42760,18325,0,0,0,404,532,255,444,433,445,549,476,317,267,253,380,0
2,1769098672352,430,679,10117,-87964,3665,4886,0,0,0,405,531,259,440,426,444,550,480,323,265,253,378,0
2,1769098672368,406,693,10074,-17104,-25656,-4886,0,0,0,410,535,265,441,427,441,552,481,320,266,254,375,0
2,1769098672384,358,598,9992,0,-40317,-9773,0,0,0,413,531,274,441,419,436,554,482,328,265,256,371,0
2,1769098672400,335,497,9935,-57421,-40317,-2443,0,0,0,400,520,260,433,422,433,565,494,377,279,277,374,0
2,1769098672416,349,507,9997,-129503,-36651,3665,0,0,0,404,520,274,441,422,436,561,490,348,314,305,361,0
2,1769098672432,387,631,10122,-144164,-29321,0,0,0,0,391,521,270,441,426,437,562,496,336,314,313,358,0
2,1769098672448,421,732,10189,-122173,-29321,-4886,0,0,0,391,518,275,440,427,438,563,497,332,336,337,354,0
2,1769098672464,430,789,10189,-73303,-40317,-13439,0,0,0,393,517,270,446,432,441,564,495,336,350,357,354,0
2,1769098672480,430,799,10160,-15882,-52534,-15882,0,0,0,397,521,270,447,436,444,566,498,339,321,332,359,0
2,1769098672496,425,789,10169,39095,-58643,-20769,0,0,0,402,524,274,444,432,444,566,499,344,355,360,356,0
2,1769098672512,425,765,10227,106290,-51312,-29321,0,0,0,403,526,282,446,430,446,562,479,365,328,314,362,0
2,1769098672528,473,784,10337,199142,-41538,-42760,0,0,0,408,529,279,450,431,449,551,431,367,274,247,381,0
2,1769098672544,555,851,10547,340862,-42760,-63529,0,0,0,421,533,266,453,433,452,524,383,353,282,244,404,0
2,1769098672560,727,880,11251,638965,-114842,-100181,0,0,0,428,536,252,454,443,456,478,352,367,256,193,433,0
2,1769098672576,1167,708,12562,1181413,-345749,-162490,0,0,0,425,533,232,455,447,458,439,331,391,270,200,450,0
2,1769098672592,1397,789,15041,1919338,-695164,-250454,0,0,0,430,528,202,452,448,447,396,324,352,318,254,461,0
2,1769098672608,1277,1014,17243,2703689,-758694,-328645,0,0,0,427,520,193,450,455,430,363,346,311,269,202,442,0
2,1769098672624,2158,512,17736,3342654,-593761,-417831,0,0,0,395,529,177,437,502,383,348,330,291,261,202,416,0
2,1769098672640,3407,153,17224,3742160,-509461,-630412,0,0,0,355,516,172,420,448,390,338,329,280,245,199,390,0
2,1769098672656,4422,0,16123,3951076,-598647,-886976,0,0,0,290,496,168,404,426,387,328,345,271,223,204,337,0
2,1769098672672,5144,239,14984,3780034,-692721,-1207069,0,0,0,243,461,157,378,410,368,328,365,259,192,207,250,0
2,1769098672688,5163,2177,13577,3274237,-884532,-1464854,0,0,0,232,446,162,365,398,363,328,372,255,169,203,207,0
2,1769098672704,7145,8743,9983,2433687,-977384,-1674992,0,0,0,235,442,165,359,393,360,325,376,251,160,200,194,0
2,1769098672720,8399,16324,6360,1232726,-388510,-1676214,0,0,0,240,441,165,355,393,357,323,381,249,159,200,190,0
2,1769098672736,6877,18564,4934,-58643,230907,-1221730,0,0,0,244,443,169,355,391,355,323,382,247,159,201,189,0
2,1769098672752,5474,16295,4417,-934623,563217,-533896,0,0,0,243,445,168,356,389,353,325,386,243,159,197,187,0
2,1769098672768,4838,14338,4498,-1446528,912632,23212,0,0,0,235,445,161,357,387,351,327,393,240,160,192,185,0
2,1769098672784,3704,13567,5795,-1926668,1270599,381179,0,0,0,234,444,164,355,384,349,324,392,238,158,192,184,0
2,1769098672800,2273,12854,7599,-2436130,1455080,569326,0,0,0,232,442,164,354,385,350,327,398,241,156,192,183,0
2,1769098672816,1005,11150,9131,-2973691,1501506,747699,0,0,0,227,443,159,352,387,349,327,401,242,157,194,183,0
2,1769098672832,110,9485,10418,-3374419,1489289,885754,0,0,0,225,443,158,352,386,348,326,399,238,156,194,181,0
2,1769098672848,-387,7556,12122,-3718947,1408655,1012814,0,0,0,231,443,162,352,386,348,328,401,242,157,194,182,0
2,1769098672864,-363,5278,13864,-3990171,1307251,1136209,0,0,0,231,444,163,353,388,350,329,402,241,157,196,182,0
2,1769098672880,-14,2790,15147,-4118453,1232726,1262047,0,0,0,229,444,162,352,389,349,328,403,239,157,197,183,0
2,1769098672896,373,-425,16104,-4051258,1174082,1423316,0,0,0,229,446,163,351,389,349,319,394,240,154,193,182,0
2,1769098672912,488,-3531,16625,-3827681,1109331,1519832,0,0,0,229,448,164,351,386,350,324,398,244,154,190,182,0
2,1769098672928,272,-7097,16802,-3472158,983493,1468520,0,0,0,228,448,163,352,385,351,331,403,248,156,190,182,0
2,1769098672944,-224,-11447,16362,-3012787,734260,1154535,0,0,0,228,450,163,352,385,350,330,401,247,154,188,180,0
2,1769098672960,-583,-15472,15285,-2459343,455705,731816,0,0,0,229,452,165,352,386,349,318,384,247,151,188,179,0
2,1769098672976,-674,-18588,13543,-1591914,182037,237015,0,0,0,229,453,165,352,386,347,315,376,245,154,191,179,0
2,1769098672992,-512,-19841,11983,-648738,-28099,-129503,0,0,0,229,447,163,351,383,343,333,400,237,162,198,181,0
2,1769098673008,-201,-19521,11184,139277,-135612,-263893,0,0,0,228,431,154,353,380,337,355,427,236,178,224,176,0
2,1769098673024,-3866,-22201,14438,1161865,-783129,58643,0,0,0,233,426,151,361,382,339,393,463,234,195,279,157,0
2,1769098673040,-5412,-16999,16051,2762332,-2272418,766025,0,0,0,241,424,156,367,376,343,421,480,237,221,349,150,0
2,1769098673056,-3268,-684,15797,3474601,-1907121,1182635,0,0,0,244,432,183,369,369,361,453,491,244,269,387,150,0
2,1769098673072,-3144,4958,16783,3064100,-612086,728151,0,0,0,255,444,168,383,366,353,475,521,240,404,488,160,0
2,1769098673088,-1306,1378,16013,2059837,-155159,-200363,0,0,0,265,452,180,388,375,359,517,532,250,364,445,170,0
2,1769098673104,1550,-363,12581,1249830,-357967,-377514,0,0,0,297,472,217,400,386,373,550,541,263,362,429,219,0
2,1769098673120,1273,354,10418,663399,-482583,64751,0,0,0,317,486,226,409,388,385,571,553,273,405,460,254,0
2,1769098673136,201,531,10672,205250,-354301,124616,0,0,0,325,491,229,418,393,398,580,563,283,437,487,280,0
2,1769098673152,186,847,10576,-97738,-215024,17104,0,0,0,333,492,240,417,393,402,588,565,292,468,522,292,0
2,1769098673168,555,1158,10155,-112399,-166155,-28099,0,0,0,348,489,246,412,392,399,603,573,298,493,538,306,0
2,1769098673184,516,1234,10054,-41538,-123394,3665,0,0,0,362,488,244,414,394,397,582,566,315,491,525,323,0
2,1769098673200,425,1234,10112,0,-76969,15882,0,0,0,367,490,249,419,394,403,565,556,332,484,523,339,0
2,1769098673216,435,1234,10136,29321,-48869,1221,0,0,0,371,493,256,420,397,413,614,583,315,501,537,359,0
2,1769098673232,469,1220,10117,64751,-28099,-8552,0,0,0,375,498,254,424,400,414,611,582,318,514,548,337,0
2,1769098673248,473,1201,10088,90408,-12217,-9773,0,0,0,380,507,262,422,403,418,611,577,324,520,548,335,0
2,1769098673264,459,1191,10078,107512,4886,-10995,0,0,0,376,506,262,419,399,416,610,570,334,557,581,328,0
2,1769098673280,483,1191,10069,125838,25656,-17104,0,0,0,376,504,261,423,402,421,609,560,332,532,552,340,0
2,1769098673296,531,1182,10064,150272,37873,-21991,0,0,0,376,503,260,428,406,426,608,550,330,508,523,352,0
2,1769098673312,569,1143,10045,173485,29321,-25656,0,0,0,375,502,262,420,401,426,600,537,330,493,508,360,0
2,1769098673328,579,1119,10035,191811,13439,-30543,0,0,0,384,506,263,429,406,431,601,528,335,482,490,365,0
2,1769098673344,579,1091,10035,206472,0,-37873,0,0,0,388,508,261,432,408,433,604,524,348,475,485,369,0
2,1769098673360,583,1048,10031,212581,-17104,-42760,0,0,0,388,511,258,434,411,430,598,512,347,474,483,379,0
2,1769098673376,588,1028,10016,215024,-32986,-43982,0,0,0,391,514,260,435,413,433,595,497,350,469,473,395,0
2,1769098673392,579,1005,10016,216246,-47647,-45204,0,0,0,402,521,275,436,417,442,599,488,359,463,460,403,0
2,1769098673408,564,971,10016,211359,-63529,-43982,0,0,0,413,534,280,446,424,446,599,481,357,467,453,417,0
2,1769098673424,564,938,10035,211359,-83077,-39095,0,0,0,419,540,271,455,432,452,593,473,355,461,445,434,0
2,1769098673440,579,909,10078,221133,-101403,-39095,0,0,0,423,541,268,452,442,466,595,470,363,404,392,444,0
2,1769098673456,588,875,10122,245567,-106290,-48869,0,0,0,436,555,270,458,455,467,598,462,362,329,298,481,0
2,1769098673472,607,847,10179,293215,-108734,-68416,0,0,0,457,562,299,456,462,473,584,441,374,336,293,500,0
2,1769098673488,641,804,10279,367740,-112399,-97738,0,0,0,479,560,310,483,486,491,563,421,405,359,304,494,0
2,1769098673504,660,741,10394,455705,-127059,-128281,0,0,0,499,580,304,499,488,506,562,411,389,312,238,531,0
2,1769098673520,655,626,10571,591317,-155159,-157603,0,0,0,499,583,294,512,520,524,550,401,415,288,206,554,0
2,1769098673536,655,564,10983,800233,-167377,-182037,0,0,0,501,579,262,525,538,524,549,390,419,300,215,562,0
2,1769098673552,622,607,11921,1158200,-135612,-205250,0,0,0,524,582,239,532,535,523,527,382,443,351,279,581,0
2,1769098673568,402,622,12912,1584584,-30543,-217468,0,0,0,541,591,240,534,539,530,500,381,431,361,292,595,0
2,1769098673584,57,588,13534,2019520,119729,-182037,0,0,0,537,595,231,538,546,539,483,380,448,331,263,622,0
2,1769098673600,62,473,13969,2466673,190589,-85521,0,0,0,537,596,220,542,551,543,448,390,452,314,237,636,0
2,1769098673616,789,263,14515,3003013,130725,-26878,0,0,0,547,595,216,542,544,543,421,380,453,309,221,629,0
2,1769098673632,1383,181,15314,3502701,41538,-103847,0,0,0,549,590,214,533,534,551,395,355,446,302,214,622,0
2,1769098673648,1885,114,16568,4111123,-67195,-243124,0,0,0,542,590,212,518,531,551,357,331,424,293,211,610,0
2,1769098673664,2747,-181,18449,4850269,-228463,-419053,0,0,0,534,592,213,505,531,524,317,297,412,281,206,563,0
2,1769098673680,3809,-751,21229,5722585,-447153,-648738,0,0,0,511,570,212,494,527,511,276,251,406,264,193,499,0
2,1769098673696,4996,-1588,24441,6652322,-665843,-915076,0,0,0,471,552,199,485,503,495,269,203,383,251,177,463,0
2,1769098673712,5230,-2043,25757,7268074,-691499,-1187522,0,0,0,444,526,180,467,480,457,267,187,349,252,171,444,0
2,1769098673728,4441,-1340,26532,7739662,-533896,-1442863,0,0,0,366,490,159,427,458,417,268,211,296,234,175,398,0
2,1769098673744,3402,1210,28958,7875274,-499687,-1610240,0,0,0,286,447,156,379,405,368,286,244,267,192,161,296,0
2,1769098673760,6312,6465,26355,7365813,-1134987,-1717753,0,0,0,249,433,158,361,377,361,309,288,266,162,155,221,0
2,1769098673776,10509,10605,17171,6721961,-1451415,-1942551,0,0,0,253,436,162,325,403,335,315,292,264,152,147,199,0
2,1769098673792,12888,16774,7126,5286427,-800233,-2128254,0,0,0,255,432,163,344,384,350,308,290,279,151,148,202,0
2,1769098673808,7006,21488,9260,1161865,34208,-1281595,0,0,0,251,427,160,354,371,349,304,294,265,150,150,194,0
2,1769098673824,2249,17214,11926,-2717128,-436157,202807,0,0,0,244,427,155,352,370,340,300,299,246,146,150,181,0
2,1769098673840,5192,8490,8403,-3847229,-1347568,1128878,0,0,0,235,426,153,348,371,336,296,306,238,143,154,174,0
2,1769098673856,9518,5159,3546,-3422067,-590095,753807,0,0,0,231,425,153,345,371,334,297,314,234,144,161,169,0
2,1769098673872,7518,6293,4029,-3644422,740368,117286,0,0,0,231,424,152,344,371,328,298,320,229,146,162,165,0
2,1769098673888,2459,7217,7537,-4532620,1205847,-98960,0,0,0,230,422,150,343,372,328,295,326,228,143,161,163,0
2,1769098673904,842,6183,9250,-5143485,968832,56199,0,0,0,234,423,150,344,372,328,294,329,227,143,164,160,0
2,1769098673920,1962,4589,9408,-5277875,923628,268780,0,0,0,230,422,150,342,373,328,293,331,227,144,164,163,0
2,1769098673936,1809,3771,10500,-5291314,1380555,406836,0,0,0,229,422,149,342,378,327,294,337,229,146,170,161,0
2,1769098673952,382,3646,12419,-5425705,1683544,580321,0,0,0,226,422,147,287,410,301,296,342,232,145,173,160,0
2,1769098673968,-114,3632,14228,-5699372,1617571,807563,0,0,0,230,421,151,339,375,327,294,342,232,143,171,158,0
2,1769098673984,335,3421,15754,-5985257,1551597,961501,0,0,0,229,420,151,345,372,330,296,343,232,147,172,161,0
2,1769098674000,918,3043,17482,-6247929,1606575,1004262,0,0,0,233,422,154,344,372,332,298,349,233,148,177,163,0
2,1769098674016,971,2665,19626,-6422637,1706757,1004262,0,0,0,227,419,147,343,370,330,297,348,232,149,177,165,0
2,1769098674032,1052,2325,22053,-6566801,1754404,1060462,0,0,0,224,420,148,344,369,331,297,343,232,151,174,168,0
2,1769098674048,1076,1488,25288,-6725626,1748296,1262047,0,0,0,227,422,151,345,370,333,300,343,234,148,172,167,0
2,1769098674064,794,-1009,28628,-6852686,1678657,1655444,0,0,0,231,424,156,344,367,333,299,338,238,144,167,163,0
2,1769098674080,488,-6575,31160,-6803817,1549154,2136806,0,0,0,230,423,156,345,367,333,303,337,239,146,168,162,0
2,1769098674096,794,-16831,30835,-6372546,1193630,2296853,0,0,0,226,423,152,350,371,335,312,341,239,151,170,163,0
2,1769098674112,4685,-28896,25690,-5484348,577878,1733635,0,0,0,228,424,153,352,371,338,317,340,241,150,168,162,0
2,1769098674128,5900,-36424,16951,-3803246,777020,157603,0,0,0,229,427,158,351,373,341,317,344,244,149,171,164,0
2,1769098674144,-1560,-38473,12735,-2037846,1307251,-1290147,0,0,0,227,426,154,353,375,341,320,349,246,150,171,164,0
2,1769098674160,-12175,-37688,13577,-531452,971275,-1794722,0,0,0,226,413,150,349,358,335,348,376,237,164,195,166,0
2,1769098674176,-11696,-35300,17362,895528,-561996,-1221730,0,0,0,223,377,144,337,339,329,404,458,240,185,295,156,0
2,1769098674192,-6092,-21014,21957,3308446,-3083647,-405614,0,0,0,227,327,142,331,298,337,449,476,245,203,348,161,0
2,1769098674208,607,784,18320,5929058,-5100724,270002,0,0,0,244,343,151,347,300,350,482,493,252,237,407,161,0
2,1769098674224,-263,3819,19722,6681643,-3576005,874759,0,0,0,246,355,163,354,306,360,513,529,260,297,449,161,0
2,1769098674240,-4292,-909,25206,5357288,-1279151,851546,0,0,0,258,386,170,367,318,362,532,558,262,322,474,170,0
2,1769098674256,-3421,-2603,22397,3199712,-469144,186924,0,0,0,271,419,190,380,331,379,567,577,281,350,472,208,0
2,1769098674272,177,110,13304,1824043,-563217,-15882,0,0,0,290,451,209,396,359,397,589,590,293,391,485,245,0
2,1769098674288,1124,827,9384,994488,-514348,76969,0,0,0,313,475,236,404,372,411,607,601,312,436,509,286,0
2,1769098674304,311,0,10490,294437,-373849,91629,0,0,0,330,485,275,410,377,427,621,613,320,452,504,324,0
2,1769098674320,-43,296,11002,-28099,-288328,14660,0,0,0,341,486,295,419,381,435,626,621,314,461,497,337,0
2,1769098674336,162,995,10356,-21991,-213802,-12217,0,0,0,348,489,286,421,382,429,628,623,313,481,505,344,0
2,1769098674352,325,1119,10040,26878,-116064,4886,0,0,0,352,494,274,415,382,413,618,619,323,471,494,361,0
2,1769098674368,287,1019,10160,34208,-54977,6108,0,0,0,358,498,275,413,382,417,598,607,340,451,493,346,0
2,1769098674384,248,1014,10198,53756,-19547,-6108,0,0,0,361,492,273,417,386,421,631,625,331,451,494,346,0
2,1769098674400,253,1048,10155,97738,3665,-14660,0,0,0,361,495,282,416,388,426,627,613,340,426,464,359,0
2,1769098674416,277,1057,10117,158824,20769,-18325,0,0,0,361,496,286,419,388,433,618,599,328,467,494,359,0
2,1769098674432,301,1000,10117,204028,30543,-18325,0,0,0,366,498,278,420,389,430,618,585,317,400,439,353,0
2,1769098674448,330,952,10107,229685,32986,-23212,0,0,0,373,502,283,421,388,425,613,578,326,325,357,377,0
2,1769098674464,358,923,10088,251676,26878,-31764,0,0,0,370,499,269,423,393,429,609,570,327,301,319,393,0
2,1769098674480,373,918,10083,283441,13439,-43982,0,0,0,374,504,273,419,390,429,601,549,344,292,300,395,0
2,1769098674496,387,890,10107,327423,0,-61086,0,0,0,378,509,296,420,393,442,597,527,358,282,280,405,0
2,1769098674512,387,813,10107,346971,-8552,-70860,0,0,0,380,515,288,428,401,448,590,509,355,278,263,418,0
2,1769098674528,378,732,10093,353080,-20769,-74525,0,0,0,391,524,271,437,412,448,581,492,352,278,253,428,0
2,1769098674544,363,665,10054,349414,-40317,-74525,0,0,0,406,530,278,444,430,452,578,475,367,276,245,436,0
2,1769098674560,363,607,10045,342084,-63529,-72082,0,0,0,415,543,293,446,445,461,576,455,386,275,236,449,0
2,1769098674576,392,559,10083,335975,-87964,-70860,0,0,0,418,561,301,452,457,476,567,438,378,282,232,469,0
2,1769098674592,416,507,10141,348193,-105068,-78190,0,0,0,435,561,293,456,500,463,563,425,376,281,219,484,0
2,1769098674608,464,459,10208,379958,-113620,-96516,0,0,0,454,560,313,470,456,497,563,406,391,278,208,511,0
2,1769098674624,507,406,10366,459370,-122173,-133168,0,0,0,490,574,312,476,464,498,564,397,408,280,208,535,0
2,1769098674640,545,349,10605,594982,-105068,-173485,0,0,0,485,574,305,494,493,508,559,382,429,281,201,557,0
2,1769098674656,607,268,10954,806342,-41538,-221133,0,0,0,494,578,282,508,501,525,546,374,417,282,201,568,0
2,1769098674672,521,248,11624,1078788,42760,-270002,0,0,0,499,588,255,524,519,538,534,370,410,295,215,590,0
2,1769098674688,186,325,12687,1428202,124616,-283441,0,0,0,508,590,238,528,533,545,517,371,416,306,219,606,0
2,1769098674704,-14,311,13577,1863138,134390,-221133,0,0,0,516,595,223,533,527,559,494,364,420,298,214,616,0
2,1769098674720,205,134,14151,2420248,97738,-120951,0,0,0,525,604,214,535,526,565,470,360,421,298,217,632,0
2,1769098674736,808,57,15070,2985909,58643,-80634,0,0,0,526,598,214,531,540,551,430,349,422,315,225,636,0
2,1769098674752,1718,81,16290,3668856,-45204,-178372,0,0,0,530,594,218,525,541,543,378,331,417,316,222,632,0
2,1769098674768,2067,105,17927,4526511,-174707,-376292,0,0,0,533,596,219,523,534,548,326,305,414,295,210,611,0
2,1769098674784,2617,186,20129,5483126,-261450,-576656,0,0,0,516,583,211,522,535,545,285,260,420,274,196,551,0
2,1769098674800,3737,-354,24024,6591235,-431270,-796568,0,0,0,491,568,209,507,523,530,266,205,407,261,183,491,0
2,1769098674816,5790,-1780,28509,7637037,-522900,-1015258,0,0,0,454,541,196,480,489,507,261,170,382,258,179,465,0
2,1769098674832,6657,-1560,31792,8454374,-327423,-1346346,0,0,0,381,507,171,442,459,448,262,180,335,242,178,435,0
2,1769098674848,4771,430,34343,8770803,-448375,-1705535,0,0,0,300,465,167,389,406,385,289,222,280,202,157,343,0
2,1769098674864,6058,5259,33878,8546004,-929736,-1931555,0,0,0,254,434,162,366,367,369,315,256,274,163,146,234,0
2,1769098674880,10064,14745,23019,7611380,-1015258,-2213775,0,0,0,247,431,161,360,369,366,312,273,273,153,141,208,0
2,1769098674896,10447,22450,11581,5696929,-733038,-2463008,0,0,0,249,431,160,358,371,359,306,274,258,151,143,200,0
2,1769098674912,5824,25474,8351,1591914,-585208,-2003637,0,0,0,245,426,155,353,368,347,305,278,248,150,143,191,0
2,1769098674928,3000,19463,10007,-2702467,-1120326,-652404,0,0,0,241,423,152,335,384,333,303,288,246,149,144,184,0
2,1769098674944,4972,10916,7877,-4665788,-1612684,372627,0,0,0,237,424,155,336,382,333,297,298,242,146,148,183,0
2,1769098674960,8542,6235,4087,-4497189,-1281595,458148,0,0,0,233,424,158,346,370,339,293,312,235,144,156,182,0
2,1769098674976,8580,5819,3613,-4333478,-199142,63529,0,0,0,231,424,156,342,367,333,288,318,228,143,156,176,0
2,1769098674992,6006,6422,6073,-4703662,656069,-153938,0,0,0,232,426,155,341,365,329,286,319,227,142,153,169,0
2,1769098675008,4828,5838,8513,-5286427,812450,70860,0,0,0,232,424,155,342,369,330,289,326,230,141,157,167,0
2,1769098675024,5345,4556,9806,-5646838,1033583,337197,0,0,0,233,421,151,345,370,330,287,326,228,141,160,165,0
2,1769098675040,5092,3680,11395,-5825210,1502728,505796,0,0,0,238,420,153,344,369,331,287,323,228,146,163,163,0
2,1769098675056,4115,3388,13606,-6078109,1859473,696386,0,0,0,230,422,151,341,367,328,288,330,230,162,173,163,0
2,1769098675072,3512,3192,15898,-6470284,1984090,950506,0,0,0,233,422,154,341,367,326,292,331,230,146,166,167,0
2,1769098675088,3689,2301,17841,-6767165,2058615,1156978,0,0,0,233,423,156,343,367,326,293,331,233,144,165,165,0
2,1769098675104,3728,1402,19908,-6863681,2175901,1286482,0,0,0,233,423,153,343,367,327,293,329,234,144,164,162,0
2,1769098675120,3670,976,22569,-6866125,2295631,1404990,0,0,0,234,423,153,342,367,328,296,332,236,141,164,160,0
2,1769098675136,3857,660,26771,-6994406,2387261,1690874,0,0,0,234,423,156,343,368,331,297,331,237,142,162,161,0
2,1769098675152,4039,-1292,30696,-7206988,2453234,2221106,0,0,0,232,424,158,343,365,333,300,326,238,144,159,165,0
2,1769098675168,2809,-7709,33290,-7170336,2615724,2833192,0,0,0,230,423,154,346,365,335,307,324,241,144,159,164,0
2,1769098675184,-258,-17209,34500,-6736621,2514321,3130073,0,0,0,230,422,157,349,367,341,314,325,249,144,159,165,0
2,1769098675200,-904,-28643,31170,-5869193,1623679,2812423,0,0,0,230,421,159,352,367,348,319,327,258,146,160,170,0
2,1769098675216,3656,-39411,21057,-4323704,805120,1328021,0,0,0,230,422,157,352,367,350,321,328,259,147,161,173,0
2,1769098675232,2536,-45206,12443,-2315179,996932,-1022588,0,0,0,231,424,159,351,366,347,320,329,255,147,164,172,0
2,1769098675248,-7542,-43704,12950,-696386,1077566,-2428800,0,0,0,226,415,153,351,364,344,332,359,249,153,183,166,0
2,1769098675264,-13371,-38908,15807,855211,184481,-2638937,0,0,0,220,377,148,344,337,340,387,450,256,176,250,163,0
2,1769098675280,-10418,-21502,23445,2714685,-2111150,-1562593,0,0,0,233,323,146,340,296,335,468,470,262,209,328,167,0
2,1769098675296,-2167,3503,21335,4361577,-5001764,-29321,0,0,0,246,329,163,330,296,352,477,481,274,216,379,169,0
2,1769098675312,1708,9748,15482,5778785,-5155702,1293812,0,0,0,258,340,160,349,294,360,500,500,279,261,413,167,0
2,1769098675328,-3675,-622,20095,6028018,-2244318,1760513,0,0,0,257,348,162,363,299,361,540,540,284,291,443,175,0
2,1769098675344,-5829,-3101,23335,4324925,-911410,761138,0,0,0,264,379,172,371,323,366,556,581,270,369,494,190,0
2,1769098675360,-1847,-119,17109,2714685,-580321,-54977,0,0,0,274,417,193,388,342,392,589,604,302,433,529,230,0
2,1769098675376,981,794,11567,1731192,-431270,-20769,0,0,0,286,457,206,404,376,410,606,620,303,472,543,290,0
2,1769098675392,909,-287,10495,763581,-313984,127059,0,0,0,311,483,234,412,387,423,617,628,299,506,545,315,0
2,1769098675408,-177,-244,10978,87964,-283441,101403,0,0,0,331,494,260,418,388,429,627,630,305,497,537,331,0
2,1769098675424,-81,732,10452,13439,-237015,7330,0,0,0,341,500,264,426,394,438,638,632,315,485,544,347,0
2,1769098675440,215,1048,10078,54977,-153938,-12217,0,0,0,348,502,262,430,397,446,644,636,321,502,558,346,0
2,1769098675456,296,909,10117,58643,-91629,2443,0,0,0,354,500,278,428,402,443,639,634,320,494,543,348,0
2,1769098675472,186,899,10217,47647,-63529,-2443,0,0,0,359,500,294,427,408,442,636,628,321,476,532,356,0
2,1769098675488,119,961,10212,79412,-30543,-18325,0,0,0,362,499,279,428,397,441,633,617,320,467,518,354,0
2,1769098675504,134,961,10165,144164,8552,-21991,0,0,0,370,496,270,431,395,439,627,608,322,441,471,360,0
2,1769098675520,177,904,10136,196698,41538,-19547,0,0,0,366,503,263,430,400,436,607,587,314,450,446,358,0
2,1769098675536,229,866,10112,217468,52534,-19547,0,0,0,362,502,265,432,400,441,603,581,320,303,336,390,0
2,1769098675552,258,818,10074,222354,50090,-24434,0,0,0,361,501,256,434,402,438,600,573,323,295,320,390,0
2,1769098675568,296,794,10045,227241,41538,-34208,0,0,0,361,499,252,434,402,442,593,561,326,416,419,385,0
2,1769098675584,335,780,10050,232128,25656,-45204,0,0,0,367,502,257,434,402,446,594,548,336,317,304,410,0
2,1769098675600,335,751,10064,238237,0,-52534,0,0,0,375,507,258,435,403,446,597,530,343,275,252,419,0
2,1769098675616,330,727,10074,254119,-25656,-58643,0,0,0,384,509,254,444,411,453,592,523,350,275,241,429,0
2,1769098675632,325,679,10069,271224,-43982,-63529,0,0,0,400,513,258,455,419,460,588,508,363,275,232,443,0
2,1769098675648,301,603,10078,290771,-61086,-67195,0,0,0,415,523,268,471,430,467,584,481,377,277,224,458,0
2,1769098675664,301,569,10145,318871,-70860,-73303,0,0,0,428,539,286,477,444,479,576,464,385,281,221,476,0
2,1769098675680,335,540,10232,365297,-74525,-80634,0,0,0,447,556,297,468,471,480,570,454,387,281,220,500,0
2,1769098675696,402,488,10323,434936,-69638,-96516,0,0,0,462,561,278,484,508,475,570,430,387,290,218,525,0
2,1769098675712,464,406,10509,544891,-87964,-127059,0,0,0,481,568,276,492,471,512,567,413,403,293,215,555,0
2,1769098675728,473,315,10772,708603,-129503,-158824,0,0,0,501,573,260,504,485,508,548,401,390,320,227,583,0
2,1769098675744,421,244,11165,923628,-123394,-186924,0,0,0,509,587,253,520,520,525,547,396,390,478,306,583,0
2,1769098675760,497,119,11820,1220508,13439,-216246,0,0,0,517,588,238,520,515,533,530,384,404,334,234,620,0
2,1769098675776,330,90,12754,1598023,189368,-234572,0,0,0,516,586,219,530,524,542,514,387,419,320,227,633,0
2,1769098675792,-114,234,13831,2026850,256563,-190589,0,0,0,529,594,219,535,533,550,479,385,433,318,221,635,0
2,1769098675808,143,186,14611,2535090,164933,-83077,0,0,0,548,604,222,534,538,545,443,384,428,323,227,631,0
2,1769098675824,1253,23,15558,3164281,53756,-59864,0,0,0,553,596,219,535,546,549,411,366,423,330,232,630,0
2,1769098675840,2182,-4,16597,3893655,-45204,-254119,0,0,0,553,591,217,540,552,555,369,341,404,316,227,634,0
2,1769098675856,2086,33,18128,4754975,-131946,-509461,0,0,0,547,586,209,533,547,559,319,307,405,301,221,618,0
2,1769098675872,2407,-177,21076,5777563,-205250,-681725,0,0,0,518,579,198,518,538,559,282,257,417,283,207,558,0
2,1769098675888,4603,-1148,24981,6824586,-271224,-856433,0,0,0,475,570,191,504,524,539,266,203,395,256,183,494,0
2,1769098675904,7169,-2292,28997,7729888,-189368,-1156978,0,0,0,439,538,185,480,493,487,263,171,367,255,181,472,0
2,1769098675920,6283,-1287,32323,8450709,-59864,-1627344,0,0,0,369,505,168,446,462,441,268,184,329,236,172,417,0
2,1769098675936,4369,2895,34333,8778133,-153938,-2004859,0,0,0,284,452,160,381,398,384,282,217,271,198,157,337,0
2,1769098675952,5742,8025,31576,8460483,-577878,-2173458,0,0,0,251,421,161,365,368,374,310,261,273,159,145,231,0
2,1769098675968,8499,12869,22636,7957130,-937067,-2411695,0,0,0,251,430,162,361,369,371,308,275,274,156,145,216,0
2,1769098675984,10212,19607,11529,6177069,-850324,-2647489,0,0,0,252,430,155,356,368,360,302,278,258,152,144,202,0
2,1769098676000,6771,25307,8643,1672549,-493579,-2194227,0,0,0,248,429,153,347,365,340,295,283,243,154,146,216,0
2,1769098676016,2512,19612,10949,-3205820,-971275,-769690,0,0,0,245,425,149,351,366,339,301,287,241,151,147,194,0
2,1769098676032,3948,9624,8863,-5128824,-1759291,354301,0,0,0,239,425,154,342,378,335,299,300,241,145,146,183,0
2,1769098676048,8896,4125,3862,-4527733,-1583362,465479,0,0,0,235,426,158,342,375,337,291,306,236,143,149,179,0
2,1769098676064,9313,5197,2943,-4134335,-31764,-80634,0,0,0,232,423,158,346,372,339,286,314,233,143,156,177,0
2,1769098676080,5920,6537,5958,-4658458,723264,-179594,0,0,0,232,421,157,344,373,337,286,321,234,165,176,176,0
2,1769098676096,4182,6422,8336,-5225341,907745,29321,0,0,0,230,420,156,344,373,336,286,324,235,170,178,173,0
2,1769098676112,5053,4891,9442,-5624847,1023810,419053,0,0,0,228,419,155,345,374,337,286,327,235,141,161,170,0
2,1769098676128,4991,4005,10835,-5786115,1517389,598647,0,0,0,228,419,155,343,371,336,287,330,237,141,164,170,0
2,1769098676144,3977,3594,13017,-6031683,1874134,767246,0,0,0,229,419,156,344,371,339,289,333,242,141,162,173,0
2,1769098676160,3450,3431,15214,-6379876,1973094,956614,0,0,0,229,419,155,345,376,335,289,342,236,142,171,170,0
2,1769098676176,3718,3172,17401,-6768386,2072054,1103222,0,0,0,229,420,155,343,373,336,290,342,240,142,171,170,0
2,1769098676192,3833,2541,19942,-7098254,2238210,1196074,0,0,0,228,417,151,343,373,332,293,340,237,143,169,164,0
2,1769098676208,3747,1541,22861,-7244861,2395813,1273043,0,0,0,224,414,150,345,371,333,296,340,237,143,168,164,0
2,1769098676224,3996,784,27149,-7259522,2525316,1458746,0,0,0,228,418,156,346,371,338,296,335,239,145,167,167,0
2,1769098676240,3981,-387,31954,-7392691,2645046,1897347,0,0,0,230,419,158,349,368,342,303,334,243,148,164,166,0
2,1769098676256,2885,-4536,35261,-7568620,2796541,2570520,0,0,0,230,420,154,348,366,340,311,332,249,146,160,166,0
2,1769098676272,-1196,-16243,37501,-7338934,2740341,3177720,0,0,0,231,421,155,351,367,345,321,334,260,146,161,168,0
2,1769098676288,-837,-30653,33046,-6387206,1656666,2823419,0,0,0,230,421,155,356,375,354,326,337,266,147,163,171,0
2,1769098676304,3211,-44326,22522,-4718323,740368,1329242,0,0,0,228,423,153,356,381,355,326,337,264,147,164,173,0
2,1769098676320,497,-50499,12979,-2488664,1027475,-1264491,0,0,0,227,423,154,355,376,351,326,338,262,149,164,172,0
2,1769098676336,-11438,-48317,13472,-703716,974940,-2638937,0,0,0,222,418,152,356,371,351,340,375,262,154,189,169,0
2,1769098676352,-16286,-41622,16850,1204626,-364075,-2557081,0,0,0,214,394,147,348,355,349,391,464,265,175,266,163,0
2,1769098676368,-7389,-18990,23359,2954144,-2516764,-1448972,0,0,0,225,337,140,339,306,345,446,472,269,207,352,159,0
2,1769098676384,2531,12964,20244,4400673,-5133711,-59864,0,0,0,237,352,148,341,313,358,476,480,265,226,390,162,0
2,1769098676400,2335,13256,14950,5815437,-4643797,1128878,0,0,0,255,357,161,354,311,364,496,496,279,267,414,167,0
2,1769098676416,-5369,-2512,20847,6133086,-1543045,1352455,0,0,0,263,368,164,357,325,362,527,527,283,292,436,171,0
2,1769098676432,-4417,-4120,22842,4331034,-409279,238237,0,0,0,274,407,174,380,331,374,560,559,312,308,448,204,0
2,1769098676448,722,354,16525,2608394,-610865,-250454,0,0,0,276,435,190,391,347,383,590,591,325,317,424,236,0
2,1769098676464,1684,1162,11217,1257160,-570548,15882,0,0,0,288,455,221,406,364,399,607,606,315,358,438,265,0
2,1769098676480,507,86,10275,383623,-338419,178372,0,0,0,307,475,250,417,371,406,569,576,324,396,472,284,0
2,1769098676496,129,272,10643,130725,-261450,92851,0,0,0,318,488,267,424,377,413,586,585,321,427,507,299,0
2,1769098676512,311,885,10476,69638,-228463,13439,0,0,0,327,494,280,428,385,421,628,616,308,446,524,309,0
2,1769098676528,574,1239,10069,72082,-164933,-3665,0,0,0,337,495,289,431,388,424,627,618,307,449,524,314,0
2,1769098676544,492,1119,10102,45204,-95294,2443,0,0,0,341,494,294,430,387,427,628,616,303,429,505,320,0
2,1769098676560,416,1100,10174,41538,-47647,-4886,0,0,0,342,497,298,429,388,434,627,612,297,378,452,327,0
2,1769098676576,425,1148,10141,68416,-8552,-19547,0,0,0,340,500,297,434,393,441,628,607,302,373,443,326,0
2,1769098676592,464,1167,10088,98960,23212,-25656,0,0,0,335,502,309,429,389,436,621,600,307,363,430,335,0
2,1769098676608,492,1172,10045,141720,42760,-25656,0,0,0,336,503,332,435,393,443,621,582,318,399,462,330,0
2,1769098676624,512,1153,10050,182037,42760,-24434,0,0,0,337,492,314,427,391,433,617,571,323,322,369,339,0
2,1769098676640,555,1124,10059,211359,37873,-25656,0,0,0,343,496,283,426,398,438,599,570,333,337,371,345,0
2,1769098676656,622,1067,10045,230907,23212,-34208,0,0,0,341,497,305,430,396,437,596,552,328,309,336,353,0
2,1769098676672,641,1009,10011,235793,-2443,-45204,0,0,0,350,499,296,435,402,433,596,537,331,301,315,357,0
2,1769098676688,607,961,9992,224798,-39095,-51312,0,0,0,348,499,282,442,408,440,596,527,341,284,291,366,0
2,1769098676704,579,942,10002,216246,-65973,-54977,0,0,0,360,503,292,442,421,446,596,518,342,279,273,379,0
2,1769098676720,559,928,10007,216246,-84299,-57421,0,0,0,380,510,303,440,424,446,594,505,342,276,258,395,0
2,1769098676736,564,904,10035,232128,-94073,-59864,0,0,0,394,520,310,446,425,448,594,492,347,270,245,412,0
2,1769098676752,574,894,10112,267558,-101403,-61086,0,0,0,411,533,325,454,434,457,595,480,347,269,235,425,0
2,1769098676768,593,871,10189,316428,-111177,-65973,0,0,0,436,548,354,458,438,465,590,457,352,265,216,442,0
2,1769098676784,622,789,10217,372627,-122173,-78190,0,0,0,463,558,379,473,453,478,583,432,367,273,209,471,0
2,1769098676800,703,684,10279,436157,-147829,-103847,0,0,0,464,571,386,480,464,509,579,416,370,274,204,507,0
2,1769098676816,808,626,10495,537561,-207694,-144164,0,0,0,485,574,428,504,466,527,572,401,377,307,214,515,0
2,1769098676832,760,598,10964,714712,-271224,-188146,0,0,0,488,573,404,499,480,528,582,397,406,495,291,512,0
2,1769098676848,593,574,11672,1014036,-277332,-224798,0,0,0,521,596,349,520,506,525,568,394,390,321,219,576,0
2,1769098676864,339,502,12404,1439198,-190589,-229685,0,0,0,516,597,274,530,526,522,529,392,386,309,224,606,0
2,1769098676880,191,411,12993,1888795,-86742,-179594,0,0,0,522,598,238,547,538,546,508,395,382,305,225,617,0
2,1769098676896,483,344,14046,2414139,-23212,-123394,0,0,0,529,596,217,547,548,547,477,386,384,314,229,630,0
2,1769098676912,1191,325,15352,3029891,-53756,-152716,0,0,0,535,594,213,539,552,533,435,378,395,319,229,638,0
2,1769098676928,1804,239,16458,3738495,-84299,-267558,0,0,0,547,595,210,539,555,538,406,363,402,324,227,637,0
2,1769098676944,1794,440,17702,4566828,-46425,-456927,0,0,0,541,591,203,530,550,540,359,335,398,312,218,629,0
2,1769098676960,1947,794,20234,5474574,-68416,-603534,0,0,0,527,580,207,520,545,538,304,296,399,285,204,591,0
2,1769098676976,4082,287,23641,6557027,-266337,-806342,0,0,0,509,567,215,513,547,538,275,246,400,264,191,527,0
2,1769098676992,6336,-784,27824,7649254,-304210,-1161865,0,0,0,461,548,194,495,530,513,265,197,379,254,177,475,0
2,1769098677008,6384,-473,31576,8522791,-227241,-1532050,0,0,0,401,516,168,468,483,476,264,184,352,241,174,431,0
2,1769098677024,5360,1076,32519,9132435,-268780,-1859473,0,0,0,314,477,164,400,425,412,282,217,291,210,164,375,0
2,1769098677040,5723,3359,31591,9042027,-241902,-2096489,0,0,0,242,423,156,359,370,368,307,254,265,157,141,237,0
2,1769098677056,7016,10653,25833,8136724,-311541,-2388483,0,0,0,250,434,160,360,370,371,307,275,278,157,147,221,0
2,1769098677072,8155,18358,14836,6494719,-635299,-2758667,0,0,0,248,434,160,353,369,366,304,282,264,145,140,205,0
2,1769098677088,6412,22392,8480,2904053,-846659,-2615724,0,0,0,245,435,159,351,371,354,299,284,258,147,143,200,0
2,1769098677104,2837,20727,8451,-1350012,-1033583,-1709200,0,0,0,240,431,153,350,371,347,291,289,244,146,144,190,0
2,1769098677120,1780,12849,8748,-4298047,-1555262,-307876,0,0,0,232,431,149,347,370,342,290,301,234,143,144,180,0
2,1769098677136,6374,6456,4546,-4342030,-1596801,367740,0,0,0,226,428,148,346,372,339,289,313,232,142,151,176,0
2,1769098677152,9451,4546,1722,-3924198,-609643,355523,0,0,0,225,429,151,343,371,335,286,321,230,139,153,174,0
2,1769098677168,6580,6106,4010,-4223522,436157,207694,0,0,0,227,427,154,340,371,333,282,320,232,137,155,173,0
2,1769098677184,3929,6508,7020,-4904026,779464,399505,0,0,0,229,423,154,339,374,331,283,320,233,141,161,175,0
2,1769098677200,4536,5187,8126,-5338962,818559,673173,0,0,0,229,423,154,338,373,329,288,329,230,143,162,173,0
2,1769098677216,4953,4134,9164,-5590638,1109331,811229,0,0,0,229,425,155,338,371,327,290,336,229,136,159,160,0
2,1769098677232,4259,3804,10940,-5834984,1503950,875980,0,0,0,226,423,151,338,371,323,287,336,225,137,164,160,0
2,1769098677248,3512,3718,13108,-6232047,1661553,1016479,0,0,0,225,424,151,339,373,324,289,340,225,140,167,159,0
2,1769098677264,3417,3244,15142,-6599788,1739744,1199739,0,0,0,223,425,151,337,369,323,292,342,227,140,167,159,0
2,1769098677280,3541,2435,17477,-6786712,1854586,1348790,0,0,0,222,421,149,338,367,326,293,343,227,140,167,159,0
2,1769098677296,3565,1909,19942,-6872233,1953547,1412320,0,0,0,224,421,150,338,366,324,291,340,229,139,167,159,0
2,1769098677312,3871,1483,23483,-7005402,2046398,1447750,0,0,0,232,421,144,346,364,324,300,340,230,145,164,158,0
2,1769098677328,4460,856,28102,-7205766,2144136,1567480,0,0,0,227,420,148,342,364,328,302,343,234,144,162,164,0
2,1769098677344,4508,-1962,32409,-7397578,2267531,1993864,0,0,0,226,419,148,345,364,332,305,343,238,144,159,166,0
2,1769098677360,2976,-8848,35467,-7384139,2445904,2492330,0,0,0,226,420,150,347,364,336,313,340,248,145,159,166,0
2,1769098677376,746,-20612,35309,-6885672,2079385,2514321,0,0,0,224,421,152,349,367,344,320,340,257,147,161,172,0
2,1769098677392,2115,-32806,29346,-5903401,1290147,1808161,0,0,0,223,419,153,352,370,349,326,341,263,149,162,177,0
2,1769098677408,2038,-41162,18817,-3973067,1136209,-91629,0,0,0,223,418,152,353,372,350,326,341,262,147,161,174,0
2,1769098677424,-5273,-43498,13074,-1883908,1308473,-2007303,0,0,0,224,413,153,353,366,352,336,362,259,149,172,171,0
2,1769098677440,-13553,-41813,13653,-234572,691499,-2781880,0,0,0,225,384,154,345,342,352,379,418,259,166,215,173,0
2,1769098677456,-13811,-32739,19798,1395216,-1138652,-2144136,0,0,0,225,337,152,330,310,344,437,464,262,191,287,174,0
2,1769098677472,-7958,-10179,22555,3640756,-4235739,-818559,0,0,0,233,322,153,332,292,354,469,474,270,211,345,171,0
2,1769098677488,1976,9418,15960,5931501,-5968153,779464,0,0,0,256,333,155,351,291,362,493,496,277,251,420,170,0
2,1769098677504,-454,3086,17473,6181956,-2840523,1556484,0,0,0,251,335,161,347,290,364,490,539,271,372,484,169,0
2,1769098677520,-5857,-2785,22589,5071403,51312,1270599,0,0,0,260,362,167,360,298,380,482,535,301,338,471,177,0
2,1769098677536,-4115,-1756,21067,3354871,459370,94073,0,0,0,262,387,173,371,304,387,552,579,297,440,531,211,0
2,1769098677552,1718,847,13165,2344500,-612086,-147829,0,0,0,267,422,186,392,343,406,596,608,305,460,536,249,0
2,1769098677568,2029,62,10394,1481959,-1020144,197920,0,0,0,293,459,220,424,370,422,607,614,310,464,527,299,0
2,1769098677584,14,-660,11241,520457,-651182,226020,0,0,0,320,477,226,450,390,430,607,614,314,476,531,327,0
2,1769098677600,-449,-23,11069,-20769,-321315,76969,0,0,0,334,482,220,457,401,433,607,615,313,485,533,335,0
2,1769098677616,162,746,10337,-34208,-201585,-17104,0,0,0,344,488,226,455,401,436,613,620,315,485,534,341,0
2,1769098677632,459,871,10107,42760,-157603,-13439,0,0,0,353,494,233,455,404,439,622,626,320,484,536,346,0
2,1769098677648,320,684,10265,54977,-91629,8552,0,0,0,356,492,234,451,409,434,621,626,320,487,534,347,0
2,1769098677664,263,722,10246,47647,-36651,-6108,0,0,0,362,494,237,446,409,431,613,616,314,487,529,350,0
2,1769098677680,287,770,10174,68416,2443,-19547,0,0,0,366,496,238,447,410,433,606,611,319,467,505,354,0
2,1769098677696,335,775,10112,108734,24434,-19547,0,0,0,354,496,236,454,408,453,605,603,327,433,471,359,0
2,1769098677712,335,741,10098,131946,30543,-12217,0,0,0,357,497,237,446,408,450,597,598,335,489,525,355,0
2,1769098677728,344,727,10093,152716,31764,-7330,0,0,0,356,502,239,446,404,449,585,582,333,473,504,356,0
2,1769098677744,382,717,10069,172263,21991,-7330,0,0,0,356,504,236,458,412,460,586,583,333,423,412,376,0
2,1769098677760,421,679,10026,179594,2443,-10995,0,0,0,358,506,238,446,411,452,584,577,348,337,348,386,0
2,1769098677776,425,641,10016,172263,-14660,-19547,0,0,0,361,505,237,438,410,448,584,566,355,309,328,389,0
2,1769098677792,430,622,10031,163711,-28099,-28099,0,0,0,374,512,248,438,420,451,580,551,356,302,316,399,0
2,1769098677808,440,617,10026,166155,-42760,-35430,0,0,0,388,522,255,444,427,456,578,540,359,291,293,409,0
2,1769098677824,445,612,10035,188146,-65973,-43982,0,0,0,399,529,258,450,429,466,580,530,357,286,274,419,0
2,1769098677840,430,612,10093,226020,-90408,-50090,0,0,0,410,535,258,460,446,476,580,517,366,287,262,433,0
2,1769098677856,416,612,10208,295658,-102625,-57421,0,0,0,426,549,257,473,467,487,573,498,380,286,247,453,0
2,1769098677872,454,521,10299,373849,-92851,-67195,0,0,0,451,568,267,478,470,507,564,469,366,284,232,481,0
2,1769098677888,469,387,10409,461814,-83077,-83077,0,0,0,469,564,272,490,474,517,560,439,370,295,226,505,0
2,1769098677904,521,291,10576,561996,-85521,-102625,0,0,0,493,576,287,503,489,530,558,414,385,342,232,526,0
2,1769098677920,564,291,10959,719599,-96516,-135612,0,0,0,511,584,271,530,556,494,546,399,400,305,217,543,0
2,1769098677936,526,325,11572,977384,-81855,-172263,0,0,0,513,581,239,527,514,540,525,379,400,300,214,586,0
2,1769098677952,512,239,12208,1325577,-90408,-186924,0,0,0,512,599,227,532,532,542,513,385,393,312,222,601,0
2,1769098677968,368,90,13070,1803274,-98960,-177150,0,0,0,519,605,219,533,535,540,484,379,409,312,221,617,0
2,1769098677984,205,81,13960,2293188,-30543,-142942,0,0,0,529,601,224,538,537,547,451,372,405,319,245,626,0
2,1769098678000,698,86,14903,2787988,-20769,-116064,0,0,0,546,598,228,543,545,543,420,363,407,314,233,627,0
2,1769098678016,1660,-9,15965,3357315,-108734,-173485,0,0,0,549,596,222,537,549,538,382,354,400,312,222,624,0
2,1769098678032,2455,-110,17109,4130670,-243124,-405614,0,0,0,546,592,217,520,551,546,342,337,396,302,218,614,0
2,1769098678048,2445,-110,18664,5004208,-283441,-669508,0,0,0,541,582,219,506,549,549,305,302,405,286,205,592,0
2,1769098678064,2522,-110,21674,6222273,-215024,-901637,0,0,0,522,569,216,499,537,532,276,252,405,276,195,551,0
2,1769098678080,4895,-1507,25795,7254635,-173485,-1077566,0,0,0,486,557,199,489,517,500,264,200,384,265,185,502,0
2,1769098678096,7614,-2416,29222,8091520,30543,-1400103,0,0,0,439,540,180,459,484,467,256,170,360,257,179,474,0
2,1769098678112,6963,-1000,32127,8779355,313984,-1901012,0,0,0,364,497,168,429,453,433,272,189,307,249,180,430,0
2,1769098678128,5374,2627,32792,8919854,129503,-2289522,0,0,0,265,454,160,380,394,385,294,226,275,185,148,307,0
2,1769098678144,7111,8198,29293,8486139,-234572,-2615724,0,0,0,257,435,164,370,383,381,309,256,280,163,141,236,0
2,1769098678160,9633,14840,18980,7337713,-410501,-3010343,0,0,0,255,437,161,366,379,369,304,265,272,159,147,219,0
2,1769098678176,8619,20488,10433,5088507,-483805,-2982244,0,0,0,252,438,160,359,379,357,303,270,262,150,142,206,0
2,1769098678192,4350,23603,7753,569326,-641408,-1828930,0,0,0,238,434,153,354,379,352,301,279,255,166,153,199,0
2,1769098678208,3421,17238,8748,-3518583,-1051909,-19547,0,0,0,234,432,151,353,379,348,298,284,251,153,149,188,0
2,1769098678224,6590,7987,6704,-5144707,-1158200,1076344,0,0,0,230,430,151,350,377,342,294,293,242,144,149,182,0
2,1769098678240,9150,3910,3608,-4575380,-399505,836885,0,0,0,228,429,154,346,377,338,292,301,236,144,154,180,0
2,1769098678256,6546,5154,4273,-4359134,656069,250454,0,0,0,231,430,158,344,377,337,289,306,234,143,159,177,0
2,1769098678272,3134,6523,6767,-4768414,1147204,24434,0,0,0,234,431,160,342,377,336,287,315,232,142,166,174,0
2,1769098678288,2402,6073,8662,-5325523,1170417,167377,0,0,0,235,429,159,339,379,331,290,329,232,139,174,172,0
2,1769098678304,2680,5154,10064,-5688377,1370781,318871,0,0,0,231,426,158,340,381,334,287,339,232,137,180,168,0
2,1769098678320,2345,4565,11830,-5925392,1754404,423940,0,0,0,226,424,150,340,379,335,287,341,229,138,181,161,0
2,1769098678336,1344,4292,13998,-6218608,1975538,560774,0,0,0,230,422,155,343,383,339,297,350,238,143,184,167,0
2,1769098678352,684,3957,16166,-6537479,2062281,747699,0,0,0,226,426,152,339,383,329,289,354,230,139,183,162,0
2,1769098678368,631,3570,18444,-6791599,2092824,934623,0,0,0,226,422,151,341,386,328,286,354,230,141,190,162,0
2,1769098678384,756,3149,20885,-7011511,2140471,1073901,0,0,0,226,423,154,338,383,327,290,356,234,142,187,163,0
2,1769098678400,976,2579,23943,-7241196,2208888,1194852,0,0,0,228,424,155,341,383,328,290,357,233,142,187,161,0
2,1769098678416,1134,1885,28092,-7442782,2272418,1439198,0,0,0,225,424,151,339,380,328,290,354,233,144,182,164,0
2,1769098678432,765,-277,32687,-7610159,2304183,1976759,0,0,0,227,421,151,343,381,333,295,350,235,143,177,166,0
2,1769098678448,-23,-6709,35998,-7591833,2282192,2663372,0,0,0,232,427,154,347,379,334,300,347,239,141,172,162,0
2,1769098678464,-550,-19774,36577,-7128797,1871691,2961474,0,0,0,231,426,153,351,381,339,308,346,248,142,175,164,0
2,1769098678480,2976,-35750,30696,-6067113,972497,2445904,0,0,0,230,424,152,354,384,345,312,345,259,145,179,168,0
2,1769098678496,4326,-46613,18980,-3964515,927293,638965,0,0,0,231,427,154,352,384,345,315,347,261,147,182,168,0
2,1769098678512,-4766,-49662,12821,-1622458,1341460,-1191187,0,0,0,226,418,151,352,374,342,334,391,252,166,218,165,0
2,1769098678528,-16171,-46307,14524,268780,703716,-1777617,0,0,0,219,379,145,344,342,338,382,458,245,194,289,164,0
2,1769098678544,-11763,-30911,22220,2409252,-1629788,-1005484,0,0,0,224,333,146,330,304,341,436,477,253,234,363,167,0
2,1769098678560,-732,-2641,21440,5087285,-3755599,-340862,0,0,0,233,333,150,332,293,348,436,522,255,350,480,159,0
2,1769098678576,2852,6704,19444,6939429,-3204599,70860,0,0,0,240,339,153,344,293,362,481,546,256,397,509,167,0
2,1769098678592,-330,301,23364,6360328,-1508837,241902,0,0,0,254,352,162,361,297,366,512,562,261,418,518,173,0
2,1769098678608,-1904,-3618,23096,4258952,-643851,76969,0,0,0,276,387,173,376,312,382,550,579,286,427,521,204,0
2,1769098678624,358,-344,15099,2519208,-552222,-6108,0,0,0,277,414,197,388,345,397,575,611,289,469,559,234,0
2,1769098678640,1569,1009,10562,1492954,-485026,74525,0,0,0,294,462,218,406,367,413,597,618,295,482,562,269,0
2,1769098678656,1105,-172,10634,648738,-439822,139277,0,0,0,322,492,236,410,387,413,607,622,308,499,569,304,0
2,1769098678672,469,-181,10997,172263,-359188,59864,0,0,0,349,497,244,419,394,412,612,628,313,513,574,321,0
2,1769098678688,540,564,10452,36651,-233350,-3665,0,0,0,362,499,253,422,395,414,616,631,313,517,575,323,0
2,1769098678704,789,942,10064,57421,-133168,-2443,0,0,0,366,502,265,420,393,419,617,631,312,518,577,323,0
2,1769098678720,804,904,10102,54977,-75747,1221,0,0,0,372,502,270,423,393,423,617,630,316,519,580,337,0
2,1769098678736,722,837,10189,58643,-36651,-6108,0,0,0,379,502,269,427,396,424,618,628,327,516,572,346,0
2,1769098678752,713,899,10131,107512,-4886,-19547,0,0,0,383,501,267,431,398,423,617,616,328,504,550,335,0
2,1769098678768,732,928,10088,168598,18325,-24434,0,0,0,384,501,262,433,406,422,603,592,330,469,501,349,0
2,1769098678784,770,875,10083,210137,32986,-23212,0,0,0,384,501,257,428,402,417,534,539,349,402,393,365,0
2,1769098678800,794,808,10064,234572,36651,-24434,0,0,0,387,502,254,428,398,417,604,572,319,392,382,375,0
2,1769098678816,813,760,10040,249233,32986,-34208,0,0,0,392,509,260,429,404,423,606,569,330,335,325,391,0
2,1769098678832,823,741,10035,263893,29321,-45204,0,0,0,387,505,254,430,409,426,601,561,334,300,297,395,0
2,1769098678848,871,708,10045,283441,17104,-56199,0,0,0,388,507,250,441,416,431,594,539,334,303,285,397,0
2,1769098678864,909,665,10050,296880,-10995,-69638,0,0,0,392,510,253,438,411,433,589,523,343,339,334,394,0
2,1769098678880,890,607,10021,301767,-42760,-79412,0,0,0,400,511,254,441,411,437,583,508,347,326,308,404,0
2,1769098678896,832,550,9992,295658,-68416,-83077,0,0,0,408,517,261,443,423,445,581,493,344,331,325,415,0
2,1769098678912,827,521,10026,290771,-79412,-79412,0,0,0,414,522,267,448,429,455,582,482,346,337,333,430,0
2,1769098678928,847,492,10074,304210,-90408,-79412,0,0,0,423,530,271,454,432,462,588,469,356,317,281,457,0
2,1769098678944,808,440,10122,333532,-92851,-83077,0,0,0,435,540,278,454,441,467,589,454,366,297,237,485,0
2,1769098678960,760,373,10169,370184,-80634,-85521,0,0,0,449,550,283,459,451,478,583,439,376,289,224,507,0
2,1769098678976,789,315,10251,432492,-50090,-85521,0,0,0,467,561,286,470,469,492,582,421,383,289,219,537,0
2,1769098678992,933,277,10452,543670,-30543,-98960,0,0,0,484,570,277,490,487,504,571,407,387,290,213,563,0
2,1769098679008,1091,205,10854,736703,-30543,-131946,0,0,0,492,578,272,508,494,519,561,399,409,287,204,587,0
2,1769098679024,1196,119,11552,1055575,-19547,-191811,0,0,0,505,586,265,515,513,525,562,391,422,301,213,614,0
2,1769098679040,971,110,12490,1451415,72082,-240680,0,0,0,511,591,232,536,529,531,531,384,422,310,224,617,0
2,1769098679056,622,95,13294,1903456,189368,-240680,0,0,0,514,592,217,539,535,539,507,386,423,316,222,626,0
2,1769098679072,536,-9,13802,2403143,278554,-177150,0,0,0,535,605,230,536,526,560,448,373,459,317,224,642,0
2,1769098679088,1000,-38,14721,2970026,315206,-124616,0,0,0,540,600,227,539,535,558,427,368,460,317,220,636,0
2,1769098679104,1770,-33,16051,3580892,276111,-146607,0,0,0,550,597,233,531,537,556,389,353,455,313,216,636,0
2,1769098679120,2550,-95,17875,4408003,180816,-310319,0,0,0,548,596,221,522,545,556,350,317,466,300,215,624,0
2,1769098679136,3522,-76,20095,5357288,61086,-536339,0,0,0,538,582,212,518,537,549,310,266,453,284,204,579,0
2,1769098679152,4838,-349,24024,6554584,-133168,-846659,0,0,0,509,555,208,516,528,543,281,211,420,261,185,517,0
2,1769098679168,5829,-1167,28537,7644367,-277332,-1115439,0,0,0,456,523,193,500,507,521,272,175,386,243,171,466,0
2,1769098679184,5910,-2033,32931,8554556,-229685,-1361007,0,0,0,394,496,174,456,463,467,271,180,344,237,169,429,0
2,1769098679200,5116,1057,34309,8899084,-37873,-1579697,0,0,0,319,466,166,395,417,396,280,227,288,210,166,361,0
2,1769098679216,5398,6791,33390,8913745,-70860,-1791056,0,0,0,247,422,151,363,369,363,312,259,274,162,144,225,0
2,1769098679232,7767,15171,26106,8356636,-337197,-2106263,0,0,0,263,424,156,364,368,364,312,267,279,161,148,214,0
2,1769098679248,8657,20301,15357,6627887,-564439,-2536312,0,0,0,255,425,153,361,371,364,309,281,265,154,148,202,0
2,1769098679264,6379,24331,9078,2790432,-696386,-2455678,0,0,0,252,424,148,351,367,346,307,290,251,147,146,190,0
2,1769098679280,2943,21258,9839,-2214997,-918741,-1398881,0,0,0,252,424,145,358,367,339,301,283,245,150,144,182,0
2,1769098679296,2392,13673,9767,-5018868,-1361007,-359188,0,0,0,241,422,148,348,364,338,296,293,252,142,142,175,0
2,1769098679312,4967,6953,6905,-5246110,-1638340,83077,0,0,0,230,421,150,345,369,342,296,305,245,143,151,177,0
2,1769098679328,7327,5494,4527,-4873482,-1033583,-153938,0,0,0,224,425,151,340,368,339,291,306,239,153,179,178,0
2,1769098679344,6886,6144,5259,-5144707,-91629,-467922,0,0,0,224,424,153,339,368,335,290,313,235,148,175,174,0
2,1769098679360,4383,6082,8126,-5788559,519235,-507018,0,0,0,226,421,153,341,370,333,290,322,233,141,162,168,0
2,1769098679376,3144,5049,10093,-6162408,697608,-278554,0,0,0,227,423,151,342,373,331,291,330,232,142,165,166,0
2,1769098679392,3742,3910,10988,-6239377,856433,52534,0,0,0,226,421,150,342,373,331,294,336,232,142,167,166,0
2,1769098679408,3843,3369,12601,-6346889,1259604,312763,0,0,0,226,418,147,340,371,328,294,337,233,142,169,166,0
2,1769098679424,3388,3043,14907,-6564357,1589471,558330,0,0,0,229,420,148,343,374,330,294,343,234,143,172,165,0
2,1769098679440,3220,2694,17520,-6880786,1755626,772133,0,0,0,226,418,148,343,375,331,298,350,236,144,176,166,0
2,1769098679456,3579,1899,20100,-7166670,1899790,883311,0,0,0,226,418,149,342,384,331,299,350,235,145,177,166,0
2,1769098679472,3809,832,23058,-7348708,2095267,972497,0,0,0,224,418,149,342,371,330,297,348,233,145,176,166,0
2,1769098679488,3799,-129,27082,-7384139,2258979,1235169,0,0,0,226,419,151,340,370,332,299,348,239,145,174,169,0
2,1769098679504,4039,-1813,31246,-7376808,2342057,1810604,0,0,0,223,417,151,343,370,336,306,348,241,150,173,167,0
2,1769098679520,4264,-6111,33706,-7280291,2443460,2527760,0,0,0,225,418,152,344,368,338,311,346,246,147,170,168,0
2,1769098679536,2512,-15888,34544,-6825808,2460565,2956587,0,0,0,227,419,151,351,369,342,322,346,252,146,167,168,0
2,1769098679552,947,-27595,31682,-5979148,1931555,2767219,0,0,0,227,420,152,354,370,348,325,344,256,147,165,170,0
2,1769098679568,1244,-39052,22230,-4377460,1224173,1637118,0,0,0,228,423,155,352,369,351,325,346,259,186,191,174,0
2,1769098679584,-1196,-45828,13854,-2475225,1033583,47647,0,0,0,227,423,155,350,368,350,325,353,259,197,201,176,0
2,1769098679600,-7671,-46297,11998,-660956,864985,-1266934,0,0,0,227,412,151,350,361,344,336,367,253,155,178,170,0
2,1769098679616,-9485,-39602,14352,1121548,-64751,-1464854,0,0,0,230,374,150,346,333,337,376,404,248,173,220,166,0
2,1769098679632,-5819,-24713,19483,2724458,-1191187,-1058018,0,0,0,225,320,147,329,299,341,429,460,253,210,331,172,0
2,1769098679648,239,4125,23268,4217413,-3235142,-123394,0,0,0,228,311,150,312,280,347,452,493,262,304,449,169,0
2,1769098679664,2249,11797,16530,5563760,-4103792,816115,0,0,0,231,310,150,319,274,348,442,532,255,386,505,161,0
2,1769098679680,-1335,1536,16324,6207612,-2100154,1453859,0,0,0,247,324,157,340,283,366,496,526,275,346,468,176,0
2,1769098679696,-5451,-3843,21895,5182580,36651,954171,0,0,0,263,342,175,352,284,370,538,562,277,392,499,191,0
2,1769098679712,-2847,-1655,21411,3733608,270002,-1221,0,0,0,275,381,182,375,301,385,572,576,288,444,512,207,0
2,1769098679728,1765,598,14888,2362826,-443488,-140499,0,0,0,288,413,194,391,322,397,586,603,317,440,503,257,0
2,1769098679744,1986,-9,11093,1244943,-645073,164933,0,0,0,301,446,216,405,347,418,607,615,330,441,500,314,0
2,1769098679760,215,-813,10634,466701,-458148,285884,0,0,0,318,469,231,422,373,431,622,623,324,442,500,341,0
2,1769098679776,-373,-138,10806,124616,-248011,108734,0,0,0,338,482,246,423,391,430,635,632,327,449,508,350,0
2,1769098679792,301,612,10409,112399,-140499,-6108,0,0,0,353,489,259,419,391,430,629,629,338,459,514,355,0
2,1769098679808,617,727,10117,107512,-97738,-9773,0,0,0,366,494,265,429,384,437,615,621,334,465,510,360,0
2,1769098679824,478,636,10136,101403,-87964,6108,0,0,0,382,499,277,436,393,441,625,623,331,475,507,371,0
2,1769098679840,349,670,10212,142942,-69638,0,0,0,0,387,499,276,440,396,447,620,608,341,480,504,372,0
2,1769098679856,325,693,10222,234572,-28099,-15882,0,0,0,391,504,276,440,397,449,623,594,359,470,488,394,0
2,1769098679872,363,603,10179,289550,21991,-18325,0,0,0,389,504,275,438,401,456,614,578,365,411,424,428,0
2,1769098679888,421,550,10174,323758,67195,-23212,0,0,0,395,506,271,449,405,458,603,562,372,313,315,439,0
2,1769098679904,464,507,10165,371406,78190,-32986,0,0,0,396,509,268,452,410,457,600,539,368,300,291,437,0
2,1769098679920,497,440,10122,410501,74525,-46425,0,0,0,402,507,270,453,409,458,528,490,388,285,263,441,0
2,1769098679936,521,363,10074,411723,65973,-54977,0,0,0,397,507,261,456,413,468,582,503,374,284,256,452,0
2,1769098679952,564,287,10050,387288,48869,-65973,0,0,0,394,510,256,454,417,471,599,497,377,287,260,457,0
2,1769098679968,569,234,10045,359188,20769,-76969,0,0,0,395,510,256,455,421,470,605,479,383,284,248,464,0
2,1769098679984,531,210,10059,334754,-10995,-80634,0,0,0,401,513,258,462,429,473,590,459,382,280,231,478,0
2,1769098680000,531,177,10093,326202,-36651,-81855,0,0,0,408,520,257,476,445,487,584,442,382,278,221,486,0
2,1769098680016,569,124,10136,335975,-58643,-84299,0,0,0,422,527,256,487,453,500,584,427,380,280,220,495,0
2,1769098680032,593,67,10189,367740,-76969,-92851,0,0,0,438,535,258,485,452,502,576,408,376,284,218,511,0
2,1769098680048,593,4,10308,425162,-92851,-103847,0,0,0,449,543,257,485,464,508,574,393,385,281,207,526,0
2,1769098680064,588,-38,10495,522900,-118507,-112399,0,0,0,465,550,254,492,470,513,567,388,397,287,203,546,0
2,1769098680080,626,-105,10681,681725,-144164,-119729,0,0,0,472,554,242,505,491,510,561,380,397,306,211,574,0
2,1769098680096,708,-196,10930,868650,-102625,-147829,0,0,0,475,563,223,522,517,511,561,376,397,305,210,588,0
2,1769098680112,598,-220,11562,1088561,24434,-191811,0,0,0,499,577,223,535,522,524,536,369,401,304,214,606,0
2,1769098680128,469,-263,12251,1341460,85521,-197920,0,0,0,515,573,223,539,522,532,524,362,414,332,231,621,0
2,1769098680144,536,-402,12840,1711644,103847,-180816,0,0,0,512,582,226,545,535,535,502,362,431,319,221,624,0
2,1769098680160,732,-454,13687,2217440,129503,-177150,0,0,0,529,578,210,561,553,554,469,352,433,315,215,637,0
2,1769098680176,1167,-411,14859,2770884,124616,-206472,0,0,0,535,581,207,551,540,558,425,345,433,311,220,648,0
2,1769098680192,1804,-344,16324,3480710,62308,-306654,0,0,0,545,586,221,555,547,558,397,324,419,318,222,643,0
2,1769098680208,2158,-315,17894,4355469,25656,-502131,0,0,0,539,582,222,573,577,545,352,291,412,303,216,630,0
2,1769098680224,2000,-71,20253,5436700,97738,-693942,0,0,0,517,569,215,565,570,566,305,241,425,283,207,589,0
2,1769098680240,3110,-674,24599,6801373,224798,-824668,0,0,0,487,547,205,539,528,574,285,185,423,274,193,528,0
2,1769098680256,5082,-2115,29729,7952243,423940,-955393,0,0,0,450,523,191,512,494,526,281,157,390,264,175,470,0
2,1769098680272,6288,-2852,34065,8846550,834441,-1187522,0,0,0,397,500,176,463,461,459,281,173,341,243,167,420,0
2,1769098680288,4900,-282,36439,9230173,1177748,-1530828,0,0,0,316,464,164,397,408,399,298,218,288,207,158,348,0
2,1769098680304,4058,6719,35826,9104335,1097113,-1883908,0,0,0,257,424,157,375,377,372,319,241,276,163,134,228,0
2,1769098680320,3991,17444,27446,8240572,323758,-2302961,0,0,0,255,426,157,375,380,382,314,258,296,154,141,215,0
2,1769098680336,4503,22756,14682,6126978,-987158,-2505769,0,0,0,256,431,154,375,381,374,308,266,272,158,141,207,0
2,1769098680352,4752,24292,8901,1577254,-1455080,-1938886,0,0,0,248,430,150,361,375,362,307,269,267,150,141,198,0
2,1769098680368,3661,20191,8872,-2916270,-1317025,-989601,0,0,0,244,428,151,355,373,355,300,275,271,146,141,194,0
2,1769098680384,2847,12289,9155,-5154480,-1361007,-168598,0,0,0,239,426,148,353,372,352,297,283,264,144,142,183,0
2,1769098680400,4503,6365,6609,-5229006,-1701870,134390,0,0,0,236,424,152,349,375,348,295,294,262,142,147,183,0
2,1769098680416,7001,5690,4757,-5115385,-1369559,-85521,0,0,0,233,426,154,347,376,345,290,302,256,150,166,183,0
2,1769098680432,7322,5934,5446,-5516113,-565661,-342084,0,0,0,232,421,155,347,372,343,289,309,252,146,163,179,0
2,1769098680448,5436,5427,7872,-6015800,157603,-389732,0,0,0,231,419,154,342,372,338,291,318,252,141,159,175,0
2,1769098680464,4312,4541,9614,-6241821,471587,-201585,0,0,0,227,420,153,341,371,338,287,319,251,142,164,172,0
2,1769098680480,4584,3761,11031,-6367659,722042,144164,0,0,0,227,420,155,343,369,340,285,322,251,143,166,173,0
2,1769098680496,4733,3311,12835,-6570466,1067792,423940,0,0,0,230,418,157,344,373,341,291,329,257,140,166,173,0
2,1769098680512,4369,2876,15238,-6855129,1409876,630412,0,0,0,227,418,156,345,376,343,291,329,258,138,167,172,0
2,1769098680528,4201,2244,17884,-7100697,1648114,742812,0,0,0,227,418,157,344,373,342,291,338,255,141,169,173,0
2,1769098680544,4245,1780,20717,-7277848,1853365,795346,0,0,0,230,419,160,344,371,341,293,339,254,140,166,172,0
2,1769098680560,4355,1387,24814,-7451334,2054950,885754,0,0,0,224,416,153,347,369,341,293,338,254,140,164,172,0
2,1769098680576,4781,124,29973,-7600385,2204001,1244943,0,0,0,224,416,155,356,372,348,294,332,256,137,159,170,0
2,1769098680592,4785,-3895,33912,-7688349,2444682,1866804,0,0,0,226,415,156,346,366,346,305,337,264,143,160,174,0
2,1769098680608,2507,-12208,36018,-7518529,2740341,2492330,0,0,0,231,419,159,349,366,347,313,335,269,145,163,175,0
2,1769098680624,-105,-24594,35290,-6786712,2232101,2696359,0,0,0,233,422,162,350,369,353,320,335,275,148,165,178,0
2,1769098680640,1828,-36094,28791,-5575977,1257160,2200336,0,0,0,233,422,159,353,370,355,326,336,277,149,165,180,0
2,1769098680656,2287,-44168,18262,-3624874,1075122,516791,0,0,0,233,423,157,355,368,355,330,339,278,148,163,176,0
2,1769098680672,-4115,-47499,13381,-1745852,1247386,-1159422,0,0,0,232,421,157,354,368,352,331,341,275,147,163,173,0
2,1769098680688,-10232,-45091,13936,68416,563217,-1901012,0,0,0,229,403,153,350,356,344,358,390,262,161,212,166,0
2,1769098680704,-8217,-35137,16750,1841147,-610865,-1787391,0,0,0,227,357,145,342,325,342,419,462,253,191,300,162,0
2,1769098680720,-2005,-7145,22541,3558900,-2409252,-790459,0,0,0,235,320,144,336,299,350,467,472,262,235,360,165,0
2,1769098680736,1718,12644,17712,5196019,-3830125,871093,0,0,0,252,338,154,341,302,359,488,501,265,319,438,163,0
2,1769098680752,-1995,6240,17066,6255260,-2448347,1775174,0,0,0,255,338,163,350,294,370,501,556,266,433,517,171,0
2,1769098680768,-7513,-5494,23866,5645616,-8552,1111774,0,0,0,274,364,171,367,301,379,550,580,291,434,516,203,0
2,1769098680784,-2000,-2995,21646,3690847,39095,-153938,0,0,0,283,401,188,391,325,400,584,584,301,495,522,228,0
2,1769098680800,2928,918,14127,1955990,-554665,-265115,0,0,0,292,446,212,409,352,437,604,608,323,479,542,271,0
2,1769098680816,1636,617,10495,901637,-596204,161268,0,0,0,308,469,224,413,372,432,612,625,334,494,548,308,0
