sole_id,timestamp,accel_x,accel_y,accel_z,gyro_x,gyro_y,gyro_z,magn_x,magn_y,magn_z,pressure_01,pressure_02,pressure_03,pressure_04,pressure_05,pressure_06,pressure_07,pressure_08,pressure_09,pressure_10,pressure_11,pressure_12,corrupt
1,1769098663184,-1430,-641,9949,-24434,-17104,12217,0,0,0,355,485,190,422,358,432,532,316,394,380,349,468,0
1,1769098663200,-1445,-631,9930,8552,-13439,17104,0,0,0,344,478,195,417,359,431,524,311,389,384,347,462,0
1,1769098663216,-1411,-641,9858,28099,-12217,23212,0,0,0,330,471,194,413,354,431,517,304,390,389,352,457,0
1,1769098663232,-1368,-655,9796,30543,-17104,24434,0,0,0,324,466,191,418,346,428,514,293,396,387,345,457,0
1,1769098663248,-1330,-670,9796,17104,-34208,14660,0,0,0,324,469,207,417,347,437,518,302,414,391,352,459,0
1,1769098663264,-1359,-665,9839,0,-46425,4886,0,0,0,321,473,193,411,371,430,514,322,412,386,372,450,0
1,1769098663280,-1450,-650,9882,-10995,-42760,1221,0,0,0,318,473,186,416,348,425,521,307,402,389,357,450,0
1,1769098663296,-1464,-650,9877,-9773,-25656,8552,0,0,0,318,469,189,414,348,426,520,301,392,405,349,451,0
1,1769098663312,-1435,-655,9892,-1221,-15882,18325,0,0,0,323,475,192,410,343,426,518,305,387,391,353,454,0
1,1769098663328,-1421,-641,9930,10995,-13439,21991,0,0,0,319,479,187,413,356,428,514,304,385,388,355,451,0
1,1769098663344,-1416,-636,9944,32986,-8552,23212,0,0,0,315,476,185,417,358,428,513,302,385,393,362,450,0
1,1769098663360,-1407,-660,9911,53756,-6108,25656,0,0,0,313,474,186,420,364,431,514,300,386,390,358,453,0
1,1769098663376,-1363,-684,9834,54977,-10995,23212,0,0,0,318,469,188,418,363,433,516,299,390,388,351,458,0
1,1769098663392,-1335,-689,9825,41538,-25656,14660,0,0,0,323,466,186,416,355,433,517,298,392,390,346,458,0
1,1769098663408,-1373,-679,9853,21991,-32986,6108,0,0,0,319,464,186,416,347,438,516,300,392,388,348,457,0
1,1769098663424,-1411,-689,9839,1221,-32986,1221,0,0,0,312,462,194,411,344,441,515,305,393,386,359,457,0
1,1769098663440,-1397,-708,9791,-23212,-34208,0,0,0,0,305,467,195,408,340,437,516,308,391,385,363,454,0
1,1769098663456,-1387,-684,9801,-52534,-46425,0,0,0,0,299,466,195,410,341,435,517,311,389,385,362,453,0
1,1769098663472,-1392,-655,9849,-67195,-57421,-1221,0,0,0,310,463,196,419,338,428,521,303,381,390,363,446,0
1,1769098663488,-1392,-636,9873,-63529,-65973,0,0,0,0,292,448,180,422,329,439,526,297,380,390,356,440,0
1,1769098663504,-1373,-626,9873,-59864,-76969,-2443,0,0,0,287,436,192,416,320,443,536,302,370,387,356,440,0
1,1769098663520,-1383,-626,9858,-63529,-91629,-8552,0,0,0,289,408,183,414,308,438,534,301,367,385,358,446,0
1,1769098663536,-1416,-607,9877,-72082,-102625,-14660,0,0,0,292,400,191,407,301,437,534,303,368,375,351,444,0
1,1769098663552,-1483,-574,9916,-76969,-98960,-15882,0,0,0,290,406,189,406,305,435,533,308,370,373,360,444,0
1,1769098663568,-1512,-564,9887,-79412,-78190,-9773,0,0,0,287,408,191,400,302,440,534,315,374,371,365,443,0
1,1769098663584,-1483,-564,9830,-90408,-59864,-4886,0,0,0,288,402,197,393,291,443,536,312,385,382,365,443,0
1,1769098663600,-1445,-555,9825,-109955,-62308,-8552,0,0,0,289,395,200,392,282,439,537,308,391,398,362,440,0
1,1769098663616,-1445,-526,9853,-129503,-74525,-14660,0,0,0,282,389,194,392,278,438,543,310,386,401,366,435,0
1,1769098663632,-1464,-492,9882,-140499,-84299,-19547,0,0,0,271,383,186,390,278,437,549,319,384,396,388,436,0
1,1769098663648,-1483,-469,9897,-139277,-87964,-21991,0,0,0,271,390,196,392,277,427,546,332,392,396,401,441,0
1,1769098663664,-1497,-445,9897,-134390,-89186,-23212,0,0,0,271,379,192,391,274,426,549,328,382,409,400,429,0
1,1769098663680,-1502,-425,9897,-130725,-92851,-23212,0,0,0,261,360,178,390,310,427,563,339,369,393,403,406,0
1,1769098663696,-1526,-397,9906,-124616,-92851,-23212,0,0,0,262,377,189,383,267,427,562,341,371,399,421,405,0
1,1769098663712,-1555,-368,9906,-117286,-90408,-23212,0,0,0,274,368,203,386,257,429,550,340,382,407,403,418,0
1,1769098663728,-1569,-344,9901,-111177,-86742,-20769,0,0,0,271,378,207,380,270,424,551,354,389,411,408,423,0
1,1769098663744,-1588,-315,9916,-96516,-79412,-14660,0,0,0,275,374,215,375,264,423,554,353,395,413,413,421,0
1,1769098663760,-1608,-296,9930,-73303,-68416,-9773,0,0,0,278,367,215,381,262,424,556,366,388,418,419,418,0
1,1769098663776,-1617,-287,9920,-48869,-58643,-3665,0,0,0,289,363,204,390,265,417,558,375,382,423,419,415,0
1,1769098663792,-1608,-282,9911,-25656,-47647,0,0,0,0,290,365,203,389,268,416,559,371,387,427,419,418,0
1,1769098663808,-1588,-277,9906,-10995,-41538,1221,0,0,0,281,369,211,381,270,423,560,369,388,426,421,422,0
1,1769098663824,-1593,-272,9906,1221,-37873,2443,0,0,0,280,370,212,378,269,423,562,371,380,420,422,421,0
1,1769098663840,-1598,-272,9901,15882,-34208,7330,0,0,0,278,372,212,376,272,423,562,374,378,421,425,425,0
1,1769098663856,-1603,-282,9887,26878,-31764,9773,0,0,0,280,370,210,376,271,423,564,378,378,417,427,425,0
1,1769098663872,-1598,-287,9877,29321,-31764,10995,0,0,0,280,373,212,376,271,423,567,381,381,415,431,428,0
1,1769098663888,-1588,-282,9882,31764,-28099,10995,0,0,0,280,376,213,376,272,423,561,377,380,417,434,427,0
1,1769098663904,-1588,-282,9887,35430,-25656,12217,0,0,0,280,377,214,382,278,429,559,377,378,417,435,427,0
1,1769098663920,-1584,-301,9887,40317,-24434,14660,0,0,0,282,378,213,355,334,409,555,384,386,419,434,428,0
1,1769098663936,-1584,-301,9882,41538,-24434,14660,0,0,0,283,378,215,376,292,424,562,381,384,420,435,431,0
1,1769098663952,-1588,-306,9882,41538,-24434,13439,0,0,0,282,376,215,384,275,429,568,380,386,418,433,432,0
1,1769098663968,-1584,-311,9887,40317,-24434,13439,0,0,0,283,376,213,384,274,427,565,375,385,422,437,436,0
1,1769098663984,-1574,-315,9887,39095,-24434,13439,0,0,0,282,376,212,386,276,430,562,371,383,422,440,437,0
1,1769098664000,-1569,-325,9882,37873,-24434,13439,0,0,0,281,375,211,388,277,432,559,373,383,419,439,435,0
1,1769098664016,-1564,-330,9882,36651,-24434,13439,0,0,0,283,374,210,386,275,430,561,377,384,417,440,433,0
1,1769098664032,-1564,-339,9892,35430,-24434,13439,0,0,0,283,372,218,382,273,432,566,377,387,416,444,431,0
1,1769098664048,-1569,-339,9892,35430,-23212,13439,0,0,0,280,370,228,379,271,436,559,368,384,419,446,430,0
1,1769098664064,-1574,-344,9887,36651,-21991,14660,0,0,0,284,373,210,381,271,427,562,370,378,419,444,430,0
1,1769098664080,-1564,-339,9887,34208,-21991,14660,0,0,0,285,373,207,383,273,429,560,375,383,418,435,431,0
1,1769098664096,-1555,-339,9901,34208,-23212,14660,0,0,0,286,374,211,385,273,430,565,370,386,416,427,430,0
1,1769098664112,-1564,-344,9911,37873,-23212,15882,0,0,0,286,372,204,389,272,429,561,369,385,419,420,426,0
1,1769098664128,-1569,-349,9911,45204,-20769,17104,0,0,0,282,370,215,385,271,431,560,366,383,417,416,427,0
1,1769098664144,-1564,-354,9901,54977,-18325,18325,0,0,0,284,372,215,386,272,429,560,363,381,415,416,425,0
1,1769098664160,-1550,-368,9887,57421,-18325,19547,0,0,0,285,373,209,389,272,428,563,360,382,416,414,429,0
1,1769098664176,-1541,-378,9877,53756,-18325,18325,0,0,0,287,374,206,391,272,427,562,361,385,420,412,431,0
1,1769098664192,-1541,-382,9887,47647,-19547,17104,0,0,0,290,376,209,390,271,426,562,361,385,420,412,430,0
1,1769098664208,-1541,-387,9892,43982,-20769,17104,0,0,0,290,377,211,387,271,425,562,360,382,418,412,429,0
1,1769098664224,-1545,-392,9892,41538,-18325,17104,0,0,0,285,377,208,384,272,425,562,364,382,417,413,430,0
1,1769098664240,-1531,-397,9887,37873,-18325,15882,0,0,0,282,377,206,382,276,428,564,370,385,416,415,429,0
1,1769098664256,-1526,-397,9887,35430,-20769,14660,0,0,0,284,378,208,384,282,431,561,365,380,412,409,427,0
1,1769098664272,-1531,-402,9897,36651,-23212,15882,0,0,0,284,378,207,384,278,432,560,362,380,411,403,426,0
1,1769098664288,-1536,-402,9901,40317,-21991,15882,0,0,0,285,380,211,385,281,434,551,363,380,439,394,423,0
1,1769098664304,-1531,-402,9906,43982,-19547,17104,0,0,0,287,377,211,382,278,435,560,371,384,406,412,430,0
1,1769098664320,-1521,-411,9901,47647,-18325,19547,0,0,0,282,378,211,378,280,431,558,375,385,403,417,431,0
1,1769098664336,-1517,-416,9901,47647,-18325,19547,0,0,0,277,378,208,380,282,433,557,379,388,405,415,432,0
1,1769098664352,-1517,-421,9901,47647,-19547,19547,0,0,0,279,378,207,378,280,433,553,373,387,397,407,432,0
1,1769098664368,-1521,-425,9906,47647,-19547,18325,0,0,0,280,378,206,380,283,434,552,371,387,397,405,433,0
1,1769098664384,-1521,-435,9901,47647,-18325,18325,0,0,0,281,378,205,383,286,434,551,369,385,400,404,433,0
1,1769098664400,-1507,-449,9887,42760,-18325,17104,0,0,0,284,378,205,378,305,428,548,369,387,409,403,432,0
1,1769098664416,-1502,-454,9882,36651,-19547,15882,0,0,0,286,377,204,375,312,425,549,371,391,415,401,431,0
1,1769098664432,-1502,-449,9897,31764,-23212,14660,0,0,0,284,377,203,382,284,431,554,369,389,407,398,433,0
1,1769098664448,-1502,-449,9906,31764,-24434,13439,0,0,0,282,378,202,380,282,430,552,369,389,407,394,432,0
1,1769098664464,-1502,-454,9911,32986,-25656,13439,0,0,0,276,380,202,382,289,433,552,369,392,409,391,432,0
1,1769098664480,-1517,-464,9911,34208,-24434,14660,0,0,0,278,380,203,383,285,433,551,364,391,402,388,432,0
1,1769098664496,-1507,-464,9887,34208,-23212,14660,0,0,0,280,384,202,384,287,434,551,365,392,405,393,435,0
1,1769098664512,-1502,-469,9882,31764,-24434,15882,0,0,0,278,383,226,380,284,441,551,367,395,403,395,436,0
1,1769098664528,-1502,-469,9892,29321,-25656,13439,0,0,0,281,382,211,382,284,433,557,358,388,402,387,434,0
1,1769098664544,-1502,-473,9906,29321,-26878,13439,0,0,0,286,385,209,383,285,429,559,359,383,403,389,433,0
1,1769098664560,-1507,-478,9911,30543,-25656,13439,0,0,0,287,384,220,381,287,430,557,358,379,397,399,431,0
1,1769098664576,-1507,-478,9906,31764,-24434,13439,0,0,0,290,385,218,382,287,429,557,358,380,395,399,431,0
1,1769098664592,-1502,-478,9906,34208,-25656,15882,0,0,0,291,385,212,384,287,428,558,357,382,395,396,430,0
1,1769098664608,-1493,-478,9906,34208,-25656,14660,0,0,0,288,383,209,384,288,430,558,357,382,393,394,430,0
1,1769098664624,-1488,-483,9906,34208,-25656,14660,0,0,0,286,381,208,383,288,432,561,359,385,393,388,434,0
1,1769098664640,-1488,-488,9901,29321,-26878,13439,0,0,0,284,378,207,383,289,434,563,361,388,392,385,434,0
1,1769098664656,-1488,-497,9901,26878,-28099,13439,0,0,0,281,377,205,386,289,435,564,368,389,394,386,437,0
1,1769098664672,-1493,-507,9906,24434,-29321,12217,0,0,0,279,377,206,386,287,434,563,367,391,395,384,439,0
1,1769098664688,-1493,-507,9906,23212,-29321,12217,0,0,0,284,379,206,386,291,441,562,367,391,395,383,441,0
1,1769098664704,-1497,-502,9897,23212,-29321,10995,0,0,0,273,379,199,386,298,441,556,366,389,393,383,442,0
1,1769098664720,-1497,-502,9897,24434,-29321,10995,0,0,0,273,376,203,387,296,444,560,367,395,394,377,438,0
1,1769098664736,-1493,-502,9906,25656,-29321,12217,0,0,0,274,375,197,385,299,441,557,362,390,392,378,441,0
1,1769098664752,-1497,-507,9901,23212,-29321,12217,0,0,0,275,375,195,386,300,440,563,362,391,392,379,442,0
1,1769098664768,-1502,-507,9897,20769,-30543,10995,0,0,0,274,377,196,382,298,438,562,363,392,391,378,442,0
1,1769098664784,-1497,-512,9901,18325,-31764,10995,0,0,0,270,376,194,383,298,439,559,364,392,391,378,440,0
1,1769098664800,-1488,-512,9901,18325,-30543,10995,0,0,0,269,375,194,388,297,438,560,364,388,424,375,434,0
1,1769098664816,-1488,-512,9897,17104,-30543,10995,0,0,0,273,376,194,390,296,437,562,364,387,442,376,432,0
1,1769098664832,-1488,-521,9901,14660,-32986,9773,0,0,0,274,376,194,388,298,438,565,370,392,391,386,441,0
1,1769098664848,-1488,-521,9906,12217,-32986,8552,0,0,0,269,374,192,381,295,434,567,370,391,389,384,439,0
1,1769098664864,-1493,-516,9906,12217,-34208,8552,0,0,0,273,378,197,381,294,436,566,371,390,390,388,442,0
1,1769098664880,-1497,-516,9906,14660,-35430,8552,0,0,0,275,379,196,386,299,441,564,370,386,388,388,440,0
1,1769098664896,-1497,-526,9901,14660,-34208,8552,0,0,0,274,378,195,386,301,443,563,370,386,391,395,444,0
1,1769098664912,-1497,-531,9901,10995,-32986,8552,0,0,0,274,378,195,384,296,438,563,368,389,391,392,444,0
1,1769098664928,-1493,-516,9906,7330,-32986,7330,0,0,0,281,379,205,384,292,440,561,370,392,389,390,437,0
1,1769098664944,-1488,-516,9906,6108,-32986,7330,0,0,0,280,383,196,384,292,434,564,372,390,391,393,436,0
1,1769098664960,-1488,-516,9897,6108,-34208,6108,0,0,0,280,386,196,386,296,435,566,375,393,389,395,436,0
1,1769098664976,-1488,-516,9892,3665,-35430,4886,0,0,0,276,383,192,386,298,437,566,377,395,393,397,437,0
1,1769098664992,-1502,-502,9901,1221,-35430,4886,0,0,0,275,382,190,387,298,438,564,376,395,394,397,437,0
1,1769098665008,-1502,-497,9911,1221,-32986,4886,0,0,0,276,384,192,387,300,438,564,376,395,393,397,436,0
1,1769098665024,-1502,-497,9916,2443,-32986,6108,0,0,0,276,384,192,386,302,438,564,376,396,392,396,436,0
1,1769098665040,-1507,-502,9897,6108,-32986,6108,0,0,0,279,382,194,387,302,440,564,373,397,392,395,436,0
1,1769098665056,-1497,-502,9892,6108,-34208,4886,0,0,0,282,384,197,389,304,442,564,372,399,394,396,439,0
1,1769098665072,-1497,-502,9882,2443,-37873,3665,0,0,0,281,383,194,389,301,441,561,369,394,394,400,440,0
1,1769098665088,-1502,-502,9887,0,-37873,3665,0,0,0,280,382,193,390,301,442,566,373,399,397,403,439,0
1,1769098665104,-1507,-502,9911,0,-37873,3665,0,0,0,283,384,199,393,302,444,564,372,402,397,401,438,0
1,1769098665120,-1502,-502,9920,0,-37873,3665,0,0,0,283,384,199,393,299,445,564,368,402,397,401,438,0
1,1769098665136,-1502,-502,9911,1221,-37873,4886,0,0,0,284,386,203,391,298,442,555,362,403,400,402,437,0
1,1769098665152,-1512,-497,9906,2443,-37873,4886,0,0,0,281,383,195,391,298,441,560,365,397,398,396,432,0
1,1769098665168,-1507,-492,9906,2443,-37873,4886,0,0,0,284,385,198,395,299,440,561,364,398,400,397,434,0
1,1769098665184,-1507,-492,9906,1221,-36651,4886,0,0,0,291,384,200,400,300,443,563,369,399,402,397,435,0
1,1769098665200,-1512,-488,9906,1221,-36651,4886,0,0,0,291,382,201,404,302,448,565,368,398,405,398,435,0
1,1769098665216,-1517,-488,9901,1221,-36651,4886,0,0,0,286,382,200,401,301,447,565,364,398,406,397,435,0
1,1769098665232,-1521,-483,9911,6108,-37873,6108,0,0,0,284,382,206,396,298,444,566,361,399,407,394,435,0
1,1769098665248,-1521,-483,9911,7330,-35430,6108,0,0,0,290,386,220,396,299,449,539,353,405,407,394,435,0
1,1769098665264,-1521,-483,9911,10995,-34208,7330,0,0,0,293,388,224,400,301,455,513,345,411,405,394,435,0
1,1769098665280,-1512,-483,9906,13439,-32986,7330,0,0,0,289,381,215,398,297,451,566,361,402,406,393,435,0
1,1769098665296,-1507,-483,9906,18325,-32986,8552,0,0,0,286,378,212,400,300,454,568,361,406,406,393,436,0
1,1769098665312,-1507,-488,9897,23212,-34208,9773,0,0,0,290,382,217,398,295,453,565,360,402,406,395,436,0
1,1769098665328,-1507,-488,9897,24434,-34208,10995,0,0,0,287,382,215,400,298,457,567,364,403,406,393,441,0
1,1769098665344,-1521,-488,9911,26878,-32986,12217,0,0,0,284,379,202,405,301,461,567,366,407,406,395,444,0
1,1769098665360,-1526,-488,9916,32986,-30543,12217,0,0,0,291,383,206,404,303,465,562,366,408,406,401,449,0
1,1769098665376,-1517,-488,9911,36651,-28099,13439,0,0,0,286,387,223,397,295,468,559,365,404,403,399,446,0
1,1769098665392,-1497,-502,9892,36651,-28099,14660,0,0,0,290,389,222,402,296,465,561,367,401,402,402,444,0
1,1769098665408,-1497,-512,9882,28099,-30543,12217,0,0,0,288,390,212,399,297,458,563,369,398,403,407,446,0
1,1769098665424,-1512,-516,9892,20769,-34208,9773,0,0,0,297,392,212,398,294,456,561,367,398,406,410,450,0
1,1769098665440,-1512,-512,9897,13439,-34208,8552,0,0,0,306,390,222,397,287,459,562,368,402,406,407,451,0
1,1769098665456,-1512,-512,9897,9773,-35430,7330,0,0,0,305,386,224,396,284,459,564,368,402,406,405,451,0
1,1769098665472,-1512,-507,9897,4886,-35430,6108,0,0,0,306,387,212,403,294,456,564,367,395,407,407,452,0
1,1769098665488,-1512,-507,9892,0,-36651,4886,0,0,0,303,386,206,404,294,455,564,367,393,406,405,450,0
1,1769098665504,-1521,-512,9892,-1221,-36651,4886,0,0,0,303,386,202,405,296,454,567,365,396,408,406,451,0
1,1769098665520,-1521,-507,9892,-1221,-36651,3665,0,0,0,304,388,204,406,297,454,570,363,399,408,402,450,0
1,1769098665536,-1517,-492,9887,-3665,-37873,1221,0,0,0,305,389,207,406,297,454,564,357,393,410,397,447,0
1,1769098665552,-1517,-488,9887,-8552,-39095,1221,0,0,0,303,388,214,406,292,461,563,361,396,402,394,446,0
1,1769098665568,-1517,-478,9901,-10995,-39095,1221,0,0,0,305,391,209,411,295,455,564,361,392,404,401,446,0
1,1769098665584,-1521,-478,9906,-10995,-39095,1221,0,0,0,307,392,226,408,290,461,555,362,396,405,405,447,0
1,1769098665600,-1521,-478,9901,-6108,-36651,1221,0,0,0,308,390,217,408,291,454,561,363,391,408,406,446,0
1,1769098665616,-1521,-478,9897,-3665,-36651,2443,0,0,0,309,389,210,409,291,451,565,360,391,410,401,446,0
1,1769098665632,-1521,-473,9897,-3665,-36651,2443,0,0,0,307,391,211,391,327,437,561,359,392,410,398,445,0
1,1769098665648,-1526,-469,9901,-4886,-37873,2443,0,0,0,304,392,212,391,325,437,561,356,391,409,397,443,0
1,1769098665664,-1536,-459,9911,-3665,-36651,2443,0,0,0,304,391,212,407,289,449,566,355,391,409,401,441,0
1,1769098665680,-1536,-449,9911,0,-35430,3665,0,0,0,305,391,212,407,289,449,565,356,387,440,397,436,0
1,1769098665696,-1526,-449,9916,2443,-34208,4886,0,0,0,308,391,214,409,291,450,563,351,381,479,386,428,0
1,1769098665712,-1526,-459,9901,4886,-32986,6108,0,0,0,309,392,216,409,290,451,567,358,385,406,410,441,0
1,1769098665728,-1531,-454,9901,4886,-34208,6108,0,0,0,306,392,216,405,289,447,564,358,384,408,412,442,0
1,1769098665744,-1541,-449,9911,7330,-35430,7330,0,0,0,310,394,219,407,286,447,564,360,382,406,412,441,0
1,1769098665760,-1536,-449,9911,8552,-34208,7330,0,0,0,307,391,222,406,286,450,564,358,384,407,415,444,0
1,1769098665776,-1536,-449,9911,9773,-32986,8552,0,0,0,304,390,227,407,287,455,565,361,388,408,415,444,0
1,1769098665792,-1531,-449,9906,9773,-32986,7330,0,0,0,306,391,235,406,284,456,564,358,389,405,411,441,0
1,1769098665808,-1531,-459,9906,8552,-32986,7330,0,0,0,310,390,222,406,284,453,504,337,399,405,407,439,0
1,1769098665824,-1526,-459,9897,7330,-32986,7330,0,0,0,312,392,219,406,287,449,545,352,391,407,407,441,0
1,1769098665840,-1521,-449,9892,4886,-32986,7330,0,0,0,314,389,218,406,286,449,568,357,386,409,406,442,0
1,1769098665856,-1521,-445,9892,3665,-34208,6108,0,0,0,315,388,214,405,285,448,569,357,389,415,406,444,0
1,1769098665872,-1536,-445,9897,2443,-34208,6108,0,0,0,311,389,214,404,284,447,570,358,391,419,407,446,0
1,1769098665888,-1541,-445,9892,1221,-34208,6108,0,0,0,306,389,214,403,284,447,569,356,391,419,406,444,0
1,1769098665904,-1550,-440,9901,0,-34208,4886,0,0,0,305,390,212,405,284,448,568,356,392,418,404,443,0
1,1769098665920,-1545,-440,9911,1221,-34208,4886,0,0,0,306,392,213,405,285,446,567,355,390,412,409,443,0
1,1769098665936,-1536,-440,9911,4886,-32986,6108,0,0,0,305,392,212,405,288,448,569,360,392,412,411,443,0
1,1769098665952,-1531,-440,9906,4886,-32986,7330,0,0,0,305,392,209,405,285,447,569,364,391,415,412,443,0
1,1769098665968,-1536,-440,9901,3665,-32986,6108,0,0,0,299,392,211,406,290,451,567,358,388,414,414,441,0
1,1769098665984,-1536,-445,9901,1221,-32986,4886,0,0,0,303,393,214,405,289,451,567,357,388,411,410,440,0
1,1769098666000,-1526,-445,9887,0,-32986,4886,0,0,0,304,397,216,406,289,450,566,357,389,411,413,440,0
1,1769098666016,-1526,-440,9882,-1221,-32986,3665,0,0,0,299,397,211,409,293,451,563,362,392,414,414,443,0
1,1769098666032,-1545,-430,9887,-3665,-32986,3665,0,0,0,296,397,210,407,291,450,565,364,395,409,412,439,0
1,1769098666048,-1545,-416,9906,-1221,-31764,3665,0,0,0,296,397,209,409,291,451,567,363,394,409,417,437,0
1,1769098666064,-1541,-416,9916,2443,-30543,6108,0,0,0,296,396,210,409,291,450,569,362,393,411,420,436,0
1,1769098666080,-1541,-406,9911,4886,-30543,6108,0,0,0,297,393,214,403,289,448,564,364,394,450,407,429,0
1,1769098666096,-1541,-406,9911,7330,-29321,6108,0,0,0,302,391,219,401,286,446,559,361,390,475,402,428,0
1,1769098666112,-1536,-416,9906,10995,-28099,6108,0,0,0,308,393,223,402,284,446,568,352,383,417,421,437,0
1,1769098666128,-1536,-421,9906,14660,-28099,7330,0,0,0,308,394,221,404,286,449,570,352,384,438,414,433,0
1,1769098666144,-1536,-425,9901,17104,-29321,9773,0,0,0,309,394,222,398,281,445,573,355,385,498,393,423,0
1,1769098666160,-1536,-425,9897,15882,-29321,8552,0,0,0,310,394,224,402,281,446,572,355,385,408,417,434,0
1,1769098666176,-1536,-421,9897,14660,-29321,7330,0,0,0,313,397,227,402,285,446,568,354,383,412,423,437,0
1,1769098666192,-1531,-421,9897,12217,-29321,7330,0,0,0,311,393,226,402,288,448,574,360,391,409,423,438,0
1,1769098666208,-1526,-416,9897,13439,-30543,8552,0,0,0,309,393,222,402,288,446,570,357,387,410,424,439,0
1,1769098666224,-1521,-416,9901,15882,-30543,8552,0,0,0,311,394,224,403,288,447,568,357,384,408,421,436,0
1,1769098666240,-1521,-416,9901,17104,-30543,8552,0,0,0,311,394,226,402,286,446,568,356,384,409,422,435,0
1,1769098666256,-1536,-421,9901,15882,-30543,7330,0,0,0,311,396,230,402,289,447,568,357,385,408,423,436,0
1,1769098666272,-1541,-425,9906,13439,-30543,7330,0,0,0,306,396,225,402,289,447,568,357,384,407,423,435,0
1,1769098666288,-1541,-421,9906,14660,-29321,7330,0,0,0,294,397,217,403,289,446,568,359,386,411,425,433,0
1,1769098666304,-1541,-430,9901,15882,-26878,9773,0,0,0,283,401,215,406,294,448,566,365,388,417,424,427,0
1,1769098666320,-1526,-440,9877,8552,-24434,9773,0,0,0,277,401,210,406,294,441,564,367,384,414,414,414,0
1,1769098666336,-1517,-435,9877,0,-24434,7330,0,0,0,274,402,198,401,289,434,564,362,383,409,408,409,0
1,1769098666352,-1521,-411,9897,-1221,-26878,4886,0,0,0,269,397,188,410,298,438,567,365,380,414,410,417,0
1,1769098666368,-1526,-406,9911,0,-28099,3665,0,0,0,272,399,189,408,300,437,568,365,382,414,409,418,0
1,1769098666384,-1531,-406,9920,2443,-29321,3665,0,0,0,276,402,200,409,300,441,568,367,383,419,412,421,0
1,1769098666400,-1531,-406,9920,7330,-30543,4886,0,0,0,272,399,190,409,300,439,569,369,384,417,412,421,0
1,1769098666416,-1531,-406,9916,14660,-31764,7330,0,0,0,284,401,192,414,303,443,568,372,389,419,416,426,0
1,1769098666432,-1536,-411,9906,20769,-34208,8552,0,0,0,277,403,200,416,307,449,564,376,394,418,413,420,0
1,1769098666448,-1521,-416,9901,20769,-34208,7330,0,0,0,283,402,196,415,304,447,565,376,394,418,413,419,0
1,1769098666464,-1526,-425,9897,17104,-36651,7330,0,0,0,303,401,199,416,300,447,564,375,393,418,411,419,0
1,1769098666480,-1531,-430,9897,10995,-36651,6108,0,0,0,308,402,200,416,314,446,559,378,394,421,415,421,0
1,1769098666496,-1536,-425,9906,10995,-37873,6108,0,0,0,307,401,195,416,316,444,559,382,396,423,418,423,0
1,1769098666512,-1526,-416,9906,14660,-36651,7330,0,0,0,314,399,195,421,300,446,563,380,395,423,417,424,0
1,1769098666528,-1526,-416,9897,17104,-36651,8552,0,0,0,310,402,198,418,302,447,562,378,392,421,418,428,0
1,1769098666544,-1531,-421,9892,15882,-36651,8552,0,0,0,307,402,203,413,300,445,567,376,391,416,416,426,0
1,1769098666560,-1531,-421,9897,13439,-36651,7330,0,0,0,323,402,204,413,292,441,568,372,388,424,419,429,0
1,1769098666576,-1531,-416,9901,12217,-36651,7330,0,0,0,323,400,203,416,296,442,568,371,386,420,416,426,0
1,1769098666592,-1531,-416,9901,12217,-36651,7330,0,0,0,331,401,202,414,292,437,570,372,386,420,415,432,0
1,1769098666608,-1531,-416,9906,12217,-35430,7330,0,0,0,323,399,197,398,361,427,554,388,400,425,418,437,0
1,1769098666624,-1531,-416,9901,12217,-35430,8552,0,0,0,325,401,206,417,309,451,563,383,402,419,413,442,0
1,1769098666640,-1536,-421,9882,9773,-35430,7330,0,0,0,326,402,205,422,299,454,560,383,399,423,416,444,0
1,1769098666656,-1536,-421,9882,3665,-36651,6108,0,0,0,335,400,200,427,301,456,558,384,399,428,417,445,0
1,1769098666672,-1541,-411,9897,0,-37873,3665,0,0,0,330,402,202,425,300,456,560,385,400,426,415,445,0
1,1769098666688,-1545,-402,9916,3665,-36651,3665,0,0,0,322,405,205,422,300,455,560,383,400,424,415,446,0
1,1769098666704,-1545,-397,9920,12217,-34208,7330,0,0,0,323,405,206,425,302,456,560,383,401,428,415,448,0
1,1769098666720,-1541,-406,9901,14660,-34208,7330,0,0,0,319,407,208,425,303,458,561,386,404,430,414,448,0
1,1769098666736,-1541,-416,9887,13439,-34208,7330,0,0,0,309,408,208,424,305,458,560,385,403,433,416,450,0
1,1769098666752,-1545,-416,9887,9773,-35430,6108,0,0,0,300,412,211,418,321,457,556,384,401,436,415,448,0
1,1769098666768,-1550,-411,9892,7330,-35430,6108,0,0,0,308,411,214,392,359,438,551,387,406,440,414,448,0
1,1769098666784,-1541,-411,9897,4886,-35430,7330,0,0,0,296,410,214,422,306,460,561,377,400,432,415,449,0
1,1769098666800,-1536,-406,9887,0,-35430,6108,0,0,0,291,408,213,418,306,457,558,375,395,428,417,449,0
1,1769098666816,-1536,-406,9887,-3665,-35430,3665,0,0,0,292,410,213,414,303,455,560,374,397,420,411,446,0
1,1769098666832,-1541,-406,9892,-7330,-36651,2443,0,0,0,295,413,218,420,307,461,561,374,401,421,411,448,0
1,1769098666848,-1541,-397,9897,-8552,-37873,2443,0,0,0,289,408,213,415,304,456,562,370,398,420,412,447,0
1,1769098666864,-1545,-392,9901,-4886,-36651,2443,0,0,0,291,408,214,414,303,455,564,375,400,425,417,448,0
1,1769098666880,-1550,-387,9906,0,-36651,2443,0,0,0,291,407,213,417,305,458,562,379,401,426,415,448,0
1,1769098666896,-1555,-382,9901,0,-35430,2443,0,0,0,292,407,214,419,307,460,560,377,399,428,417,450,0
1,1769098666912,-1550,-378,9897,0,-32986,3665,0,0,0,295,408,217,415,305,458,562,369,398,432,419,451,0
1,1769098666928,-1545,-378,9897,0,-32986,3665,0,0,0,296,408,217,411,300,456,566,362,397,440,415,447,0
1,1769098666944,-1541,-378,9897,0,-32986,4886,0,0,0,299,407,220,414,298,456,565,362,397,447,414,445,0
1,1769098666960,-1541,-382,9901,1221,-32986,3665,0,0,0,300,406,223,413,300,456,567,366,399,437,409,447,0
1,1769098666976,-1550,-387,9897,0,-35430,3665,0,0,0,302,407,222,413,300,453,563,361,395,442,410,446,0
1,1769098666992,-1545,-382,9892,-1221,-35430,1221,0,0,0,315,410,221,417,308,453,562,375,403,430,410,449,0
1,1769098667008,-1545,-373,9887,-7330,-35430,0,0,0,0,306,410,220,414,310,453,559,369,401,432,404,450,0
1,1769098667024,-1545,-363,9887,-15882,-35430,0,0,0,0,307,408,226,411,310,456,563,361,403,433,401,451,0
1,1769098667040,-1541,-363,9882,-25656,-35430,0,0,0,0,300,406,221,408,309,454,564,362,406,435,405,448,0
1,1769098667056,-1545,-363,9868,-39095,-39095,-3665,0,0,0,294,407,219,408,309,450,563,361,398,454,421,444,0
1,1769098667072,-1545,-349,9868,-52534,-39095,-7330,0,0,0,295,407,219,413,309,447,555,365,389,468,427,440,0
1,1769098667088,-1550,-335,9877,-64751,-39095,-10995,0,0,0,299,400,217,416,302,438,557,367,386,448,433,427,0
1,1769098667104,-1550,-330,9887,-75747,-39095,-14660,0,0,0,302,397,220,410,285,429,562,369,403,429,444,414,0
1,1769098667120,-1550,-311,9887,-89186,-39095,-18325,0,0,0,308,399,229,401,267,414,559,369,399,438,447,399,0
1,1769098667136,-1564,-287,9897,-100181,-39095,-23212,0,0,0,312,395,230,396,262,391,558,367,357,449,444,376,0
1,1769098667152,-1564,-263,9906,-108734,-35430,-25656,0,0,0,298,393,218,393,268,390,556,388,370,443,445,366,0
1,1769098667168,-1564,-239,9906,-113620,-32986,-26878,0,0,0,300,397,223,392,263,391,548,399,362,430,461,357,0
1,1769098667184,-1564,-220,9897,-114842,-34208,-26878,0,0,0,300,389,228,399,262,406,547,396,378,428,468,358,0
1,1769098667200,-1579,-177,9911,-101403,-36651,-23212,0,0,0,290,391,295,383,251,422,534,395,374,418,469,359,0
1,1769098667216,-1598,-157,9940,-76969,-39095,-18325,0,0,0,297,385,242,371,260,393,542,421,360,415,479,330,0
1,1769098667232,-1593,-162,9940,-57421,-39095,-12217,0,0,0,307,380,228,390,261,379,542,419,336,428,477,309,0
1,1769098667248,-1584,-167,9920,-53756,-40317,-10995,0,0,0,311,364,223,407,249,360,544,417,347,418,471,280,0
1,1769098667264,-1574,-153,9916,-56199,-41538,-10995,0,0,0,307,354,218,402,245,355,544,416,336,420,470,266,0
1,1769098667280,-1603,-110,9964,-37873,-41538,-7330,0,0,0,304,372,214,399,254,352,535,421,330,436,468,261,0
1,1769098667296,-1651,-52,10045,15882,-39095,2443,0,0,0,297,386,211,391,272,356,526,427,344,441,468,263,0
1,1769098667312,-1675,-19,10098,122173,-30543,23212,0,0,0,287,381,207,378,286,365,523,424,353,425,470,270,0
1,1769098667328,-1679,-43,10117,254119,-9773,46425,0,0,0,282,377,205,377,286,367,527,418,348,408,472,278,0
1,1769098667344,-1617,-124,10026,393397,28099,72082,0,0,0,283,368,207,383,278,372,536,420,345,408,472,287,0
1,1769098667360,-1349,-349,9552,378736,46425,67195,0,0,0,291,377,216,390,273,380,539,415,354,410,472,296,0
1,1769098667376,-1296,-564,9227,144164,14660,21991,0,0,0,294,400,222,380,296,384,549,413,351,413,470,323,0
1,1769098667392,-1622,-358,9734,-57421,-13439,-1221,0,0,0,297,386,213,389,282,396,561,402,348,416,460,391,0
1,1769098667408,-1914,23,10490,73303,24434,48869,0,0,0,310,417,227,393,314,413,550,402,352,407,460,403,0
1,1769098667424,-1785,23,10667,455705,133168,142942,0,0,0,341,419,228,412,322,430,563,389,360,420,451,439,0
1,1769098667440,-1340,-382,10303,700051,252898,169820,0,0,0,356,429,235,433,351,446,568,388,362,425,445,450,0
1,1769098667456,-1081,-593,9916,723264,311541,125838,0,0,0,387,461,261,417,347,446,579,396,374,421,434,468,0
1,1769098667472,-1048,-784,8762,487470,257785,52534,0,0,0,407,491,291,428,369,454,617,427,401,479,459,490,0
1,1769098667488,-952,-1095,7772,-36651,95294,-14660,0,0,0,428,533,371,429,368,472,647,442,414,507,472,506,0
1,1769098667504,-1206,-899,9131,-696386,-9773,-97738,0,0,0,459,585,440,421,362,476,654,452,407,530,479,519,0
1,1769098667520,-1809,-114,11490,-780685,78190,-101403,0,0,0,488,618,453,423,396,478,649,454,408,559,485,528,0
1,1769098667536,-1866,210,11849,-133168,196698,19547,0,0,0,497,625,438,426,443,492,636,437,426,543,472,539,0
1,1769098667552,-1440,-153,10849,367740,109955,105068,0,0,0,493,620,384,430,460,497,609,421,437,493,442,565,0
1,1769098667568,-1349,-335,10729,621860,1221,138055,0,0,0,493,598,282,467,471,520,569,376,424,442,401,572,0
1,1769098667584,-1349,-392,11538,842994,-39095,160046,0,0,0,497,594,204,472,428,510,513,344,395,398,364,589,0
1,1769098667600,-880,-483,14008,1286482,-50090,138055,0,0,0,500,567,204,440,398,530,411,275,424,380,293,581,0
1,1769098667616,-866,-363,17568,2078163,-293215,72082,0,0,0,456,511,200,410,376,497,347,236,418,274,214,551,0
1,1769098667632,-2177,81,20631,3296228,-605978,116064,0,0,0,423,392,202,390,298,446,326,169,391,236,148,478,0
1,1769098667648,-3139,536,23048,4549724,-750142,338419,0,0,0,356,319,203,356,217,406,357,171,379,213,136,346,0
1,1769098667664,-3680,-1531,25532,5097059,-928515,577878,0,0,0,285,276,195,333,181,355,405,182,348,214,140,246,0
1,1769098667680,-4369,-10418,23048,4373795,-1453859,864985,0,0,0,258,277,194,319,177,340,398,192,343,197,148,221,0
1,1769098667696,-914,-21770,8729,2191784,-1605353,1472185,0,0,0,245,282,193,316,179,339,391,200,350,192,154,219,0
1,1769098667712,2522,-25857,-1722,-135612,-507018,1623679,0,0,0,252,280,195,326,170,342,401,207,351,198,156,219,0
1,1769098667728,521,-22632,-2144,-207694,295658,1296256,0,0,0,268,277,182,329,171,336,397,212,345,199,161,209,0
1,1769098667744,-368,-9375,1899,1224173,298102,509461,0,0,0,257,281,163,321,188,323,377,218,335,193,173,192,0
1,1769098667760,512,2780,3613,1756848,359188,-386066,0,0,0,229,292,167,318,196,322,369,229,327,190,182,186,0
1,1769098667776,282,10945,2689,1163087,557109,-1095892,0,0,0,222,297,167,318,199,322,367,228,323,194,181,181,0
1,1769098667792,-650,14434,1627,197920,461814,-949284,0,0,0,220,295,158,322,203,313,364,228,318,204,196,161,0
1,1769098667808,-856,16764,660,-913854,283441,-509461,0,0,0,220,308,157,322,209,301,365,233,320,214,209,156,0
1,1769098667824,-459,13883,129,-1975538,186924,-41538,0,0,0,222,308,157,331,215,309,358,236,300,244,210,166,0
1,1769098667840,-306,6661,287,-2373822,186924,337197,0,0,0,217,308,151,332,222,309,350,250,295,223,230,152,0
1,1769098667856,95,-928,794,-2084272,172263,654847,0,0,0,216,307,154,332,212,308,348,231,292,220,237,147,0
1,1769098667872,1172,-3699,1081,-1844813,289550,502131,0,0,0,208,312,171,328,212,322,348,229,301,219,239,157,0
1,1769098667888,894,-5589,641,-1749518,538783,-19547,0,0,0,202,316,170,328,219,323,356,233,309,225,233,151,0
1,1769098667904,-1062,-9045,-14,-1018923,471587,-441044,0,0,0,203,325,153,331,225,306,356,236,308,220,232,137,0
1,1769098667920,-1005,-10299,234,145385,207694,-430049,0,0,0,206,325,147,336,225,299,350,233,313,212,235,137,0
1,1769098667936,909,-6771,971,1017701,200363,-280998,0,0,0,206,317,151,341,226,305,348,225,320,211,229,143,0
1,1769098667952,536,-2187,674,948062,474031,-367740,0,0,0,259,349,161,365,254,341,327,210,321,230,220,237,0
1,1769098667968,-1895,-708,-215,1004262,463035,-472809,0,0,0,384,441,195,421,323,441,298,198,332,291,240,479,0
1,1769098667984,-2703,-3216,7269,309097,-183259,-469144,0,0,0,352,474,227,437,345,483,439,304,373,374,334,499,0
1,1769098668000,-1311,-6197,21751,-4602258,-974940,-921184,0,0,0,370,488,348,428,314,478,648,531,400,578,568,401,0
1,1769098668016,-3503,1708,32979,-10269866,-1047023,-1554041,0,0,0,365,495,623,412,405,474,734,729,402,754,754,292,0
1,1769098668032,-6542,7078,41521,-9605245,-609643,-1560149,0,0,0,396,534,612,438,333,503,680,588,408,688,688,381,0
1,1769098668048,-7791,10423,30868,-3415958,53756,-665843,0,0,0,398,555,431,448,358,490,618,471,405,526,561,477,0
1,1769098668064,-4656,4718,14472,2239431,245567,466701,0,0,0,419,562,389,468,387,523,640,448,394,506,554,497,0
1,1769098668080,-1038,-2359,5704,3682295,465479,862541,0,0,0,424,573,434,492,399,540,647,458,437,523,572,508,0
1,1769098668096,789,-3876,4402,1284038,544891,471587,0,0,0,428,596,450,493,398,538,654,473,438,524,583,506,0
1,1769098668112,62,-670,8552,-692721,14660,3665,0,0,0,428,601,462,486,398,540,657,477,433,522,587,499,0
1,1769098668128,-1617,851,11749,-744033,-280998,-133168,0,0,0,426,596,453,483,406,539,649,476,435,531,584,495,0
1,1769098668144,-1933,330,11399,-15882,-112399,-14660,0,0,0,432,590,434,481,402,541,629,453,430,524,570,494,0
1,1769098668160,-1464,-224,10313,302989,30543,51312,0,0,0,433,584,404,472,389,544,602,409,418,486,549,495,0
1,1769098668176,-1454,-220,10217,282219,61086,46425,0,0,0,407,575,320,465,394,516,580,389,406,460,533,484,0
1,1769098668192,-1316,-296,9901,299323,84299,61086,0,0,0,390,543,295,461,371,481,558,363,397,454,523,461,0
1,1769098668208,-1005,-478,9270,172263,0,32986,0,0,0,381,525,316,446,362,486,551,334,388,439,510,450,0
1,1769098668224,-990,-478,9284,-1221,-144164,-9773,0,0,0,351,501,261,448,368,487,543,332,361,424,517,434,0
1,1769098668240,-1282,-315,9839,-106290,-251676,-37873,0,0,0,357,494,252,456,371,462,544,332,356,425,479,405,0
1,1769098668256,-1555,-268,10093,-102625,-241902,-32986,0,0,0,344,485,242,440,344,452,517,352,355,414,463,394,0
1,1769098668272,-1588,-268,10002,-80634,-169820,-8552,0,0,0,368,474,257,430,313,442,507,339,334,414,463,378,0
1,1769098668288,-1497,-215,9964,-61086,-118507,1221,0,0,0,352,450,224,423,320,431,513,333,330,409,446,357,0
1,1769098668304,-1378,-210,9844,-53756,-102625,-2443,0,0,0,332,445,242,396,356,405,514,338,322,409,456,348,0
1,1769098668320,-1330,-248,9729,-79412,-122173,-18325,0,0,0,323,443,281,402,338,417,507,335,319,408,454,363,0
1,1769098668336,-1387,-253,9758,-124616,-162490,-30543,0,0,0,321,439,262,417,309,427,505,328,326,415,450,368,0
1,1769098668352,-1440,-229,9758,-171042,-195476,-37873,0,0,0,322,435,229,400,315,411,513,336,332,425,456,350,0
1,1769098668368,-1459,-224,9696,-243124,-218689,-51312,0,0,0,323,434,236,381,317,402,523,355,331,424,467,338,0
1,1769098668384,-1512,-162,9796,-349414,-227241,-70860,0,0,0,323,436,244,392,284,416,528,359,328,412,481,337,0
1,1769098668400,-1603,-23,9973,-376292,-216246,-79412,0,0,0,323,431,270,388,267,435,532,363,326,417,479,335,0
1,1769098668416,-1756,148,10131,-280998,-177150,-59864,0,0,0,322,441,303,403,280,449,548,374,348,443,494,344,0
1,1769098668432,-1828,167,10126,-155159,-129503,-26878,0,0,0,322,444,290,392,312,430,546,374,346,432,497,337,0
1,1769098668448,-1775,81,10007,-70860,-90408,-2443,0,0,0,322,460,299,392,323,444,549,372,349,440,506,354,0
1,1769098668464,-1708,52,9901,-52534,-73303,0,0,0,0,325,466,299,396,323,448,555,380,345,442,517,351,0
1,1769098668480,-1698,76,9877,-50090,-64751,0,0,0,0,324,479,293,393,350,437,559,392,349,442,527,354,0
1,1769098668496,-1703,76,9897,-42760,-59864,0,0,0,0,328,461,285,395,338,442,555,394,346,441,519,357,0
1,1769098668512,-1718,62,9897,-36651,-58643,0,0,0,0,332,447,283,398,322,442,554,405,343,433,520,359,0
1,1769098668528,-1718,71,9868,-36651,-56199,0,0,0,0,333,438,287,399,300,446,555,414,346,429,524,359,0
1,1769098668544,-1713,90,9868,-41538,-52534,0,0,0,0,337,426,289,405,278,460,557,418,351,443,524,365,0
1,1769098668560,-1708,86,9877,-46425,-52534,0,0,0,0,340,416,284,411,267,466,563,423,349,456,525,363,0
1,1769098668576,-1708,86,9877,-56199,-58643,-4886,0,0,0,340,409,285,406,261,460,566,427,346,449,526,350,0
1,1769098668592,-1722,105,9849,-76969,-65973,-10995,0,0,0,338,397,279,402,266,453,560,426,347,450,522,345,0
1,1769098668608,-1742,124,9834,-98960,-68416,-17104,0,0,0,319,386,242,402,285,418,580,429,341,464,519,311,0
1,1769098668624,-1742,138,9834,-117286,-63529,-19547,0,0,0,304,382,261,403,297,425,590,422,358,463,504,322,0
1,1769098668640,-1751,157,9839,-131946,-59864,-23212,0,0,0,314,347,312,404,265,425,598,437,340,472,526,296,0
1,1769098668656,-1765,172,9858,-145385,-57421,-28099,0,0,0,292,386,254,381,309,377,586,461,308,484,522,260,0
1,1769098668672,-1732,167,9844,-169820,-57421,-34208,0,0,0,285,367,236,379,296,379,595,464,280,486,540,232,0
1,1769098668688,-1698,143,9830,-212581,-67195,-46425,0,0,0,288,359,244,376,258,369,574,488,293,499,536,198,0
1,1769098668704,-1679,157,9853,-268780,-86742,-64751,0,0,0,286,349,278,361,236,365,564,489,323,516,534,187,0
1,1769098668720,-1746,315,9873,-304210,-112399,-80634,0,0,0,279,348,284,366,232,362,554,483,342,526,532,186,0
1,1769098668736,-1852,497,9873,-270002,-107512,-73303,0,0,0,275,341,265,367,230,353,547,488,332,529,529,178,0
1,1769098668752,-1895,583,9858,-213802,-89186,-54977,0,0,0,275,341,242,366,231,338,552,510,314,531,530,166,0
1,1769098668768,-1866,579,9830,-158824,-72082,-36651,0,0,0,275,353,248,377,232,334,557,534,305,532,532,160,0
1,1769098668784,-1847,574,9806,-124616,-65973,-29321,0,0,0,277,351,285,370,223,340,561,538,298,533,533,153,0
1,1769098668800,-1828,555,9801,-97738,-65973,-26878,0,0,0,282,359,271,354,224,332,579,536,297,544,546,137,0
1,1769098668816,-1828,545,9786,-90408,-64751,-29321,0,0,0,284,365,283,369,232,344,569,536,304,547,547,153,0
1,1769098668832,-1866,612,9743,-74525,-53756,-30543,0,0,0,282,372,254,358,231,336,569,531,304,551,551,145,0
1,1769098668848,-1895,660,9748,-35430,-30543,-28099,0,0,0,273,370,281,360,235,353,577,542,316,553,553,160,0
1,1769098668864,-1866,598,9796,-3665,-10995,-19547,0,0,0,274,368,259,370,227,349,588,552,305,562,563,149,0
1,1769098668880,-1832,545,9815,0,-9773,-14660,0,0,0,279,364,330,353,221,354,594,564,330,564,565,166,0
1,1769098668896,-1813,574,9786,-13439,-14660,-13439,0,0,0,277,365,316,356,231,354,594,582,319,562,562,171,0
1,1769098668912,-1813,593,9767,-20769,-14660,-13439,0,0,0,270,356,354,366,235,372,597,594,316,576,576,191,0
1,1769098668928,-1823,579,9791,-24434,-17104,-13439,0,0,0,269,353,337,362,235,362,607,606,316,588,588,204,0
1,1769098668944,-1828,574,9796,-34208,-25656,-13439,0,0,0,286,357,311,357,230,343,619,595,308,601,601,197,0
1,1769098668960,-1832,583,9772,-50090,-29321,-14660,0,0,0,297,356,319,356,233,348,634,594,312,615,614,192,0
1,1769098668976,-1823,593,9767,-64751,-30543,-15882,0,0,0,297,351,342,357,239,362,638,607,318,619,619,204,0
1,1769098668992,-1847,617,9801,-73303,-36651,-18325,0,0,0,304,352,358,365,236,360,631,604,312,617,618,212,0
1,1769098669008,-1899,689,9853,-53756,-42760,-17104,0,0,0,303,359,358,372,244,360,635,612,319,621,621,206,0
1,1769098669024,-1909,698,9853,-7330,-39095,-3665,0,0,0,284,358,376,359,256,383,631,614,328,619,619,211,0
1,1769098669040,-1895,665,9825,25656,-37873,4886,0,0,0,300,360,369,366,240,354,643,621,322,626,626,201,0
1,1769098669056,-1885,646,9806,32986,-41538,9773,0,0,0,296,374,347,359,263,369,647,627,341,627,627,217,0
1,1769098669072,-1885,641,9810,39095,-46425,10995,0,0,0,292,382,336,369,261,369,645,622,373,625,625,211,0
1,1769098669088,-1876,631,9839,46425,-53756,15882,0,0,0,288,373,365,380,256,385,641,624,363,625,625,227,0
1,1769098669104,-1871,626,9834,52534,-64751,20769,0,0,0,285,387,351,378,256,379,644,623,344,624,624,218,0
1,1769098669120,-1876,626,9801,56199,-70860,23212,0,0,0,277,390,360,374,262,407,640,620,351,618,619,220,0
1,1769098669136,-1890,612,9763,56199,-64751,23212,0,0,0,277,393,359,378,270,408,642,622,344,618,619,218,0
1,1769098669152,-1885,593,9743,47647,-50090,20769,0,0,0,281,398,344,383,273,390,645,625,342,620,620,214,0
1,1769098669168,-1876,593,9743,32986,-36651,18325,0,0,0,285,399,337,381,267,384,642,627,346,619,619,216,0
1,1769098669184,-1871,603,9748,20769,-28099,12217,0,0,0,290,398,337,382,261,387,640,627,341,618,618,217,0
1,1769098669200,-1866,607,9758,18325,-23212,10995,0,0,0,292,393,342,388,270,392,643,625,344,615,615,215,0
1,1769098669216,-1871,607,9772,18325,-25656,10995,0,0,0,286,393,359,388,275,396,637,623,347,615,615,212,0
1,1769098669232,-1880,607,9786,17104,-30543,12217,0,0,0,302,395,369,381,255,385,641,625,352,616,616,218,0
1,1769098669248,-1885,612,9791,17104,-31764,13439,0,0,0,304,392,348,381,260,387,642,628,359,621,621,208,0
1,1769098669264,-1880,617,9796,21991,-29321,14660,0,0,0,291,397,372,374,253,395,642,629,360,621,621,217,0
1,1769098669280,-1871,617,9801,31764,-29321,17104,0,0,0,302,398,376,374,254,403,636,619,376,610,610,224,0
1,1769098669296,-1871,612,9806,43982,-32986,21991,0,0,0,281,415,373,369,276,405,635,610,365,609,609,226,0
1,1769098669312,-1880,607,9796,58643,-34208,26878,0,0,0,295,418,371,369,263,398,641,597,352,611,610,223,0
1,1769098669328,-1885,617,9777,79412,-29321,32986,0,0,0,307,417,362,365,258,379,646,584,349,612,611,215,0
1,1769098669344,-1885,617,9786,109955,-19547,39095,0,0,0,316,431,376,369,272,377,640,580,349,608,608,221,0
1,1769098669360,-1890,593,9806,142942,-12217,45204,0,0,0,316,454,410,381,298,400,630,570,356,609,609,250,0
1,1769098669376,-1904,559,9820,171042,-4886,52534,0,0,0,310,463,450,388,314,430,624,554,378,605,604,289,0
1,1769098669392,-1909,564,9834,227241,9773,62308,0,0,0,317,464,486,395,310,457,623,544,404,586,593,334,0
1,1769098669408,-1909,569,9906,326202,23212,81855,0,0,0,334,493,482,411,329,472,631,518,411,562,595,383,0
1,1769098669424,-1928,516,10083,474031,15882,112399,0,0,0,360,516,456,439,372,463,619,467,420,512,571,417,0
1,1769098669440,-1943,425,10342,667064,0,149051,0,0,0,342,506,433,457,363,488,601,424,421,453,552,452,0
1,1769098669456,-1899,248,10777,978606,54977,175929,0,0,0,355,516,323,475,388,484,584,358,424,420,480,474,0
1,1769098669472,-1832,90,11519,1415985,290771,197920,0,0,0,351,511,228,490,352,495,565,355,403,383,448,494,0
1,1769098669488,-1952,153,13012,1926668,706160,224798,0,0,0,383,500,199,487,394,478,533,354,401,395,425,506,0
1,1769098669504,-2335,248,15094,2430021,907745,272445,0,0,0,385,485,194,487,399,488,507,371,397,378,442,526,0
1,1769098669520,-2488,143,16286,2950479,770911,366519,0,0,0,403,477,205,468,377,486,456,330,387,340,389,546,0
1,1769098669536,-2593,138,17219,3600439,620639,476474,0,0,0,406,466,232,455,356,488,417,315,373,303,351,523,0
1,1769098669552,-3172,306,18717,4459316,713490,598647,0,0,0,401,445,220,457,364,478,365,294,366,274,306,465,0
1,1769098669568,-3790,248,20325,5312084,813672,778242,0,0,0,371,423,189,456,351,455,345,268,365,266,268,403,0
1,1769098669584,-4393,-387,20885,5847202,828333,995710,0,0,0,337,411,174,439,312,423,338,250,353,260,241,358,0
1,1769098669600,-4072,-894,20890,6218608,874759,1226617,0,0,0,318,393,175,401,278,387,319,246,327,243,229,315,0
1,1769098669616,-3967,-1718,20622,6265033,1163087,1352455,0,0,0,280,344,165,353,238,343,333,259,293,237,252,241,0
1,1769098669632,-5474,-1378,18860,5964488,1411098,1428202,0,0,0,237,285,142,321,193,286,354,273,259,239,282,169,0
1,1769098669648,-6905,1742,14577,5391496,1382998,1534493,0,0,0,237,269,138,308,182,262,369,275,270,239,281,138,0
1,1769098669664,-8456,9207,8872,4328591,963945,1696983,0,0,0,241,275,142,310,184,257,369,275,271,232,278,140,0
1,1769098669680,-8025,15118,6862,2557081,283441,1617571,0,0,0,233,271,138,294,182,250,362,291,269,217,286,134,0
1,1769098669696,-5144,14070,6733,520457,63529,1082453,0,0,0,235,274,141,294,184,245,362,290,263,221,296,130,0
1,1769098669712,-4149,10054,5072,-1007927,131946,543670,0,0,0,232,272,138,295,178,241,371,280,263,232,295,128,0
1,1769098669728,-5116,7016,3067,-1505171,-70860,445931,0,0,0,228,274,141,292,179,241,363,285,256,226,293,124,0
1,1769098669744,-3852,6762,3330,-1762957,-626747,540004,0,0,0,222,277,143,289,181,242,357,295,259,219,295,124,0
1,1769098669760,-2077,6733,4436,-2162462,-908967,360410,0,0,0,219,278,145,291,181,248,364,304,263,219,297,126,0
1,1769098669776,-1402,6168,5498,-2630385,-1012814,-76969,0,0,0,219,280,145,295,183,252,368,309,263,224,297,125,0
1,1769098669792,-1268,5388,6566,-3049439,-1166752,-471587,0,0,0,220,281,140,298,187,250,361,308,262,224,300,123,0
1,1769098669808,-1153,4565,8025,-3434284,-1369559,-675616,0,0,0,219,277,140,302,188,252,356,311,261,219,300,121,0
1,1769098669824,-655,3488,10074,-3863111,-1562593,-599869,0,0,0,218,277,144,301,188,252,360,310,264,219,306,119,0
1,1769098669840,478,2163,12184,-4268726,-1692096,-356745,0,0,0,225,280,144,307,189,252,380,295,265,245,309,119,0
1,1769098669856,1675,890,13730,-4514294,-1670105,-96516,0,0,0,225,279,144,305,190,254,366,298,261,250,310,121,0
1,1769098669872,2474,-459,15046,-4673119,-1590693,101403,0,0,0,224,284,141,306,195,255,363,317,261,242,318,116,0
1,1769098669888,2397,-1407,15764,-4673119,-1507615,69638,0,0,0,224,277,144,307,187,256,368,307,263,249,300,121,0
1,1769098669904,1598,-1761,16348,-4580267,-1492954,-239459,0,0,0,221,278,154,304,189,265,360,295,267,236,300,129,0
1,1769098669920,784,-2120,17114,-4514294,-1495398,-691499,0,0,0,222,278,144,304,194,257,347,288,258,231,301,127,0
1,1769098669936,138,-2900,17741,-4447098,-1433089,-1280373,0,0,0,221,282,138,305,199,254,341,281,257,225,286,126,0
1,1769098669952,-397,-4187,18219,-4240626,-1325577,-1891238,0,0,0,220,286,139,306,202,257,337,274,260,217,280,127,0
1,1769098669968,-1210,-6111,18679,-3843564,-1167974,-2338392,0,0,0,221,287,141,308,198,259,336,266,261,217,281,129,0
1,1769098669984,-2943,-8887,18865,-3484375,-1010371,-2366491,0,0,0,221,288,139,310,195,261,340,261,261,223,281,130,0
1,1769098670000,-4546,-11940,18300,-3340211,-955393,-2120924,0,0,0,217,291,136,309,198,261,346,268,263,221,287,128,0
1,1769098670016,-4393,-14725,16405,-3288898,-1045801,-1607797,0,0,0,218,293,138,308,198,259,347,273,265,221,292,130,0
1,1769098670032,-2321,-17023,13826,-2959031,-1163087,-948062,0,0,0,216,289,139,310,198,260,345,271,263,221,294,130,0
1,1769098670048,770,-18856,11576,-2216219,-1172861,-305432,0,0,0,220,286,138,309,197,259,351,276,267,220,295,128,0
1,1769098670064,2952,-20942,10126,-1459967,-954171,149051,0,0,0,222,289,138,306,196,258,352,281,268,227,304,128,0
1,1769098670080,4096,-22857,8906,-822224,-547335,463035,0,0,0,213,261,133,289,184,250,367,359,244,257,399,108,0
1,1769098670096,5503,-24541,10744,89186,63529,463035,0,0,0,217,239,117,295,181,239,424,455,221,315,436,86,0
1,1769098670112,4977,-18741,11395,2025629,912632,134390,0,0,0,232,231,119,300,170,234,483,491,219,377,469,88,0
1,1769098670128,119,-1249,11079,4416555,1425759,-212581,0,0,0,226,220,118,305,159,244,522,522,220,447,506,92,0
1,1769098670144,-1268,5159,15214,5407379,1657888,-76969,0,0,0,217,231,125,317,160,275,559,559,263,509,542,121,0
1,1769098670160,-277,-473,21852,4455651,1632231,304210,0,0,0,234,273,154,333,196,304,589,588,292,532,565,168,0
1,1769098670176,-1014,-3919,20320,2074498,814894,221133,0,0,0,269,308,218,350,212,357,607,588,314,527,578,267,0
1,1769098670192,-1856,-1962,13974,559552,105068,-48869,0,0,0,293,335,283,371,218,421,619,556,356,523,573,384,0
1,1769098670208,-1866,693,9853,507018,42760,-100181,0,0,0,326,386,314,396,264,457,623,512,391,520,542,455,0
1,1769098670224,-1689,708,9662,834441,260228,31764,0,0,0,392,438,345,423,300,483,619,469,407,513,512,502,0
1,1769098670240,-1603,-253,10547,868650,344527,130725,0,0,0,432,458,390,461,309,494,616,439,415,521,499,528,0
1,1769098670256,-1373,-425,10189,696386,250454,124616,0,0,0,440,458,360,466,329,517,624,433,438,510,491,547,0
1,1769098670272,-1177,-382,9672,522900,139277,92851,0,0,0,441,454,364,458,347,526,611,417,439,462,459,566,0
1,1769098670288,-1244,-301,9758,394618,64751,74525,0,0,0,459,484,411,465,333,535,624,338,437,461,437,564,0
1,1769098670304,-1435,-167,10351,398284,15882,94073,0,0,0,461,490,337,466,383,541,611,349,456,437,398,569,0
1,1769098670320,-1392,-172,10595,516791,-7330,124616,0,0,0,459,495,303,474,385,540,592,347,437,417,367,585,0
1,1769098670336,-1258,-349,10442,649960,-20769,128281,0,0,0,457,498,287,491,371,545,586,321,426,421,356,597,0
1,1769098670352,-1277,-512,10222,709825,-35430,118507,0,0,0,452,500,272,490,386,547,566,303,430,403,332,603,0
1,1769098670368,-1325,-655,9987,709825,-54977,111177,0,0,0,455,512,262,481,405,546,549,283,434,384,306,598,0
1,1769098670384,-1239,-799,9839,662177,-61086,100181,0,0,0,460,530,253,476,412,548,509,288,444,367,293,591,0
1,1769098670400,-1311,-866,9849,593761,-85521,89186,0,0,0,458,532,243,474,409,553,475,317,454,352,291,596,0
1,1769098670416,-1536,-899,9853,515570,-124616,111177,0,0,0,461,519,236,479,400,552,510,309,443,373,308,605,0
1,1769098670432,-1459,-942,9806,463035,-106290,138055,0,0,0,465,524,226,476,407,540,493,301,450,389,326,612,0
1,1769098670448,-1263,-1033,9691,416610,-46425,129503,0,0,0,467,522,229,460,413,547,485,278,452,376,308,606,0
1,1769098670464,-1244,-1119,9638,371406,-12217,109955,0,0,0,465,514,213,451,426,546,457,258,450,382,307,605,0
1,1769098670480,-1349,-1158,9753,343306,-13439,103847,0,0,0,481,535,229,453,431,547,457,269,450,360,292,608,0
1,1769098670496,-1296,-1186,9801,335975,-9773,109955,0,0,0,469,532,229,460,423,543,488,277,449,359,293,607,0
1,1769098670512,-1162,-1239,9667,321315,-1221,102625,0,0,0,463,525,219,461,415,533,489,282,441,369,299,603,0
1,1769098670528,-1076,-1325,9447,279776,4886,75747,0,0,0,465,519,218,469,417,537,492,281,439,373,298,604,0
1,1769098670544,-1215,-1378,9471,207694,8552,48869,0,0,0,458,527,220,477,411,547,495,276,442,365,291,608,0
1,1769098670560,-1459,-1378,9815,164933,20769,50090,0,0,0,452,538,214,473,432,557,488,283,445,357,303,610,0
1,1769098670576,-1411,-1359,10313,208915,40317,79412,0,0,0,458,536,209,469,459,558,475,284,447,359,310,609,0
1,1769098670592,-1167,-1363,10830,328645,42760,90408,0,0,0,470,524,214,465,460,550,460,268,445,364,297,608,0
1,1769098670608,-1129,-1426,11227,526565,0,73303,0,0,0,469,505,218,460,447,542,444,269,435,358,301,603,0
1,1769098670624,-1273,-1502,11844,805120,-72082,61086,0,0,0,450,455,217,471,395,524,431,272,424,339,298,592,0
1,1769098670640,-1560,-1521,12921,1178969,-146607,75747,0,0,0,430,394,218,437,336,495,424,259,406,313,257,558,0
1,1769098670656,-1914,-1421,14233,1687209,-205250,128281,0,0,0,381,390,192,427,322,474,408,267,387,309,270,514,0
1,1769098670672,-2167,-1186,15151,2204001,-312763,211359,0,0,0,351,339,186,428,245,461,396,244,386,299,255,450,0
1,1769098670688,-2397,-1253,14300,2456899,-583987,304210,0,0,0,298,349,174,388,296,431,426,281,369,292,289,355,0
1,1769098670704,-2675,-1450,12242,2404365,-948062,401949,0,0,0,264,298,172,381,244,392,426,285,345,273,298,236,0
1,1769098670720,-2196,-43,9839,2010968,-1204626,519235,0,0,0,240,277,151,375,206,339,449,300,318,291,325,152,0
1,1769098670736,1014,6972,7815,1114218,-907745,638965,0,0,0,224,270,156,352,199,340,441,314,318,284,334,136,0
1,1769098670752,3555,15003,5876,-107512,-182037,713490,0,0,0,222,274,160,340,204,340,423,320,317,270,337,135,0
1,1769098670768,3105,17453,4905,-1314581,392175,739146,0,0,0,219,277,147,342,207,326,411,319,305,272,343,131,0
1,1769098670784,1713,16037,5025,-2362826,712268,594982,0,0,0,216,281,137,341,209,317,412,323,300,276,350,129,0
1,1769098670800,239,11385,6350,-3271794,833220,142942,0,0,0,221,288,136,344,212,309,415,327,297,278,354,128,0
1,1769098670816,-1134,6508,7580,-3655417,905302,-381179,0,0,0,218,290,130,354,214,305,395,319,290,284,350,128,0
1,1769098670832,-3029,492,8327,-3517362,842994,-818559,0,0,0,210,306,131,348,224,301,377,300,297,265,333,125,0
1,1769098670848,-3823,-5580,9715,-2599842,685390,-1069014,0,0,0,217,324,138,339,229,309,370,287,279,251,318,133,0
1,1769098670864,-4149,-12371,12864,-1463633,571769,-1219287,0,0,0,280,350,138,359,250,323,402,295,285,296,334,164,0
1,1769098670880,-4919,-24833,18717,-717155,23212,-1380555,0,0,0,307,373,160,378,257,357,413,291,315,329,337,271,0
1,1769098670896,-3479,-36573,18085,-620639,-541226,-1339016,0,0,0,285,366,167,381,260,358,422,284,310,334,317,302,0
1,1769098670912,-2665,-26135,11768,-326202,-515570,-627969,0,0,0,279,396,156,390,287,370,427,281,322,353,326,353,0
1,1769098670928,-1440,-3225,8671,-204028,-397062,15882,0,0,0,310,401,184,398,286,398,467,290,338,414,323,377,0
1,1769098670944,-842,4781,9365,-298102,-428827,91629,0,0,0,334,405,197,401,287,412,492,301,346,411,326,396,0
1,1769098670960,-1268,52,10768,-390953,-441044,-117286,0,0,0,344,408,184,409,296,409,505,310,349,399,344,414,0
1,1769098670976,-1584,-1641,10461,-311541,-293215,-108734,0,0,0,348,405,174,417,304,405,512,327,349,419,364,418,0
1,1769098670992,-1497,-583,9987,-224798,-172263,-37873,0,0,0,347,407,181,419,310,416,515,343,359,428,385,421,0
1,1769098671008,-1349,43,9887,-210137,-161268,-23212,0,0,0,337,413,193,423,313,433,528,350,385,421,418,432,0
1,1769098671024,-1344,-143,9959,-229685,-182037,-41538,0,0,0,315,416,191,413,319,427,539,367,360,401,429,414,0
1,1769098671040,-1488,-335,10064,-240680,-186924,-52534,0,0,0,313,422,204,411,309,430,547,342,348,410,425,412,0
1,1769098671056,-1603,-129,10083,-191811,-147829,-30543,0,0,0,310,431,214,398,319,431,534,351,379,409,426,427,0
1,1769098671072,-1603,14,10054,-109955,-98960,-2443,0,0,0,311,434,212,401,318,426,541,350,375,425,416,416,0
1,1769098671088,-1483,-38,10002,-45204,-76969,4886,0,0,0,307,444,207,400,354,430,547,343,393,441,416,419,0
1,1769098671104,-1421,-100,9949,-19547,-76969,0,0,0,0,312,447,204,397,365,428,549,350,403,441,420,421,0
1,1769098671120,-1483,-100,9925,-25656,-81855,-3665,0,0,0,315,446,204,397,363,432,555,344,405,448,418,423,0
1,1769098671136,-1574,-71,9944,-28099,-73303,-2443,0,0,0,316,446,218,393,359,439,557,349,402,446,421,432,0
1,1769098671152,-1603,-47,9973,-12217,-50090,4886,0,0,0,315,445,223,393,359,441,560,356,403,449,427,437,0
1,1769098671168,-1579,-52,9968,7330,-26878,13439,0,0,0,313,444,216,395,359,436,565,356,404,454,424,431,0
1,1769098671184,-1497,-76,9916,18325,-18325,14660,0,0,0,313,443,211,396,358,433,565,355,401,452,418,426,0
1,1769098671200,-1430,-110,9868,6108,-25656,8552,0,0,0,315,444,212,396,357,432,566,359,401,457,423,430,0
1,1769098671216,-1469,-105,9882,-20769,-39095,0,0,0,0,323,446,219,393,355,430,565,361,399,458,423,427,0
1,1769098671232,-1541,-57,9930,-24434,-41538,0,0,0,0,326,446,225,394,357,434,565,361,396,456,421,424,0
1,1769098671248,-1574,-19,9983,4886,-28099,4886,0,0,0,327,447,231,392,356,433,565,360,399,451,420,422,0
1,1769098671264,-1560,-23,9992,40317,-9773,14660,0,0,0,320,445,230,388,351,432,559,364,398,447,419,422,0
1,1769098671280,-1521,-52,9954,67195,0,23212,0,0,0,326,445,230,399,349,434,564,364,398,448,419,422,0
1,1769098671296,-1493,-71,9944,79412,2443,25656,0,0,0,306,445,211,407,348,442,558,371,400,451,416,429,0
1,1769098671312,-1478,-81,9940,89186,3665,26878,0,0,0,304,445,212,404,348,438,554,368,397,457,415,426,0
1,1769098671328,-1464,-90,9897,87964,6108,26878,0,0,0,305,441,210,408,340,440,557,367,399,459,412,432,0
1,1769098671344,-1464,-100,9858,78190,7330,25656,0,0,0,307,443,210,409,336,443,558,363,396,460,412,433,0
1,1769098671360,-1450,-114,9892,80634,6108,28099,0,0,0,310,442,221,406,336,449,555,355,393,462,410,435,0
1,1769098671376,-1450,-124,9983,101403,1221,29321,0,0,0,317,440,224,408,338,444,556,346,385,452,407,433,0
1,1769098671392,-1483,-129,10050,131946,1221,32986,0,0,0,320,439,213,411,337,432,557,339,377,442,408,432,0
1,1769098671408,-1507,-129,10016,171042,20769,42760,0,0,0,318,436,207,410,330,426,557,339,380,446,411,437,0
1,1769098671424,-1426,-196,9844,178372,40317,48869,0,0,0,323,437,221,412,328,428,561,343,386,444,408,440,0
1,1769098671440,-1239,-325,9652,111177,26878,36651,0,0,0,322,434,261,410,323,445,561,346,393,441,413,434,0
1,1769098671456,-1225,-349,9686,-14660,-37873,3665,0,0,0,317,432,270,401,314,444,554,347,397,448,411,434,0
1,1769098671472,-1397,-248,9935,-97738,-83077,-17104,0,0,0,312,427,249,398,306,435,559,344,389,444,409,424,0
1,1769098671488,-1555,-110,10165,-54977,-62308,-2443,0,0,0,315,420,225,390,310,419,559,352,383,441,413,415,0
1,1769098671504,-1555,-81,10145,35430,-12217,20769,0,0,0,310,405,220,387,297,420,555,351,378,430,415,407,0
1,1769098671520,-1464,-153,10054,108734,21991,35430,0,0,0,309,413,217,390,306,421,544,355,370,433,418,397,0
1,1769098671536,-1464,-196,10107,171042,51312,43982,0,0,0,325,420,200,395,304,412,538,357,366,431,422,406,0
1,1769098671552,-1493,-210,10150,252898,103847,61086,0,0,0,315,425,194,397,305,415,534,365,366,430,419,410,0
1,1769098671568,-1335,-268,9863,300545,160046,74525,0,0,0,298,432,196,400,307,420,502,357,379,429,420,408,0
1,1769098671584,-1110,-416,9451,197920,118507,51312,0,0,0,290,441,190,400,327,424,511,359,382,415,425,410,0
1,1769098671600,-1258,-402,9786,92851,29321,31764,0,0,0,295,439,184,408,333,425,541,365,377,404,421,419,0
1,1769098671616,-1550,-258,10581,160046,47647,47647,0,0,0,317,439,188,421,318,420,546,357,371,413,411,439,0
1,1769098671632,-1727,-138,11639,561996,310319,122173,0,0,0,344,449,187,423,322,420,546,353,364,420,408,464,0
1,1769098671648,-1411,-205,11715,1018923,531452,174707,0,0,0,345,454,173,434,344,441,537,369,367,403,416,480,0
1,1769098671664,-966,-449,11189,1318247,527787,188146,0,0,0,354,484,183,439,392,457,506,398,362,389,420,519,0
1,1769098671680,-483,-799,9959,1265712,298102,129503,0,0,0,404,488,193,455,347,493,504,388,376,421,423,549,0
1,1769098671696,-392,-1210,7638,1022588,160046,34208,0,0,0,420,526,193,475,379,499,518,414,408,436,455,569,0
1,1769098671712,-942,-1603,4867,489913,202807,-25656,0,0,0,466,562,215,500,427,530,588,447,410,471,451,574,0
1,1769098671728,-1608,-1770,4168,-377514,305432,13439,0,0,0,470,582,242,506,425,527,617,420,440,507,482,582,0
1,1769098671744,-1105,-1311,8839,-1361007,178372,136833,0,0,0,486,603,280,506,437,538,630,402,436,530,489,588,0
1,1769098671760,-354,-445,13764,-1385442,-96516,103847,0,0,0,503,605,265,512,461,543,629,390,434,553,479,583,0
1,1769098671776,-689,-4,14319,-557109,-172263,0,0,0,0,503,602,237,508,478,539,606,375,440,518,465,591,0
1,1769098671792,-1407,-311,11639,350636,-21991,-1221,0,0,0,506,601,227,499,468,524,559,349,444,456,431,599,0
1,1769098671808,-1354,-550,11773,728151,20769,100181,0,0,0,513,589,221,491,439,512,488,316,444,416,371,595,0
1,1769098671824,-928,-564,14462,1175304,-59864,151494,0,0,0,493,561,215,466,398,508,400,276,432,364,296,586,0
1,1769098671840,-555,-339,18267,2046398,-331088,95294,0,0,0,444,510,215,423,345,492,327,220,404,280,212,556,0
1,1769098671856,-1052,52,20803,3248581,-662177,53756,0,0,0,404,424,202,403,311,458,315,176,389,235,157,494,0
1,1769098671872,-2493,215,21737,4480085,-840550,202807,0,0,0,350,355,205,389,240,425,378,163,370,243,137,385,0
1,1769098671888,-3120,-914,23996,5034751,-836885,458148,0,0,0,273,308,196,335,188,348,378,186,358,204,145,233,0
1,1769098671904,-4335,-4101,23144,4616919,-1049466,618195,0,0,0,254,291,173,344,170,340,401,200,351,220,155,211,0
1,1769098671920,-5173,-10945,13510,3014009,-1573588,889419,0,0,0,254,302,168,346,177,325,410,201,328,225,163,207,0
1,1769098671936,-1402,-13759,2866,748920,-1109331,995710,0,0,0,234,302,168,316,178,341,375,205,336,203,164,212,0
1,1769098671952,-363,-14170,-172,-982271,50090,465479,0,0,0,236,304,156,329,183,318,385,205,313,218,175,204,0
1,1769098671968,-1727,-9423,1555,-147829,102625,59864,0,0,0,246,308,153,344,187,310,410,210,306,226,180,193,0
1,1769098671984,-143,-1564,2335,678060,-123394,-285884,0,0,0,246,311,150,341,194,300,410,222,300,231,195,182,0
1,1769098672000,1062,5058,2105,546113,46425,-770911,0,0,0,243,301,154,332,187,301,398,223,312,232,198,184,0
1,1769098672016,157,7159,1158,-76969,284663,-878424,0,0,0,238,291,157,324,177,303,381,219,317,225,197,181,0
1,1769098672032,100,8638,210,-664621,277332,-552222,0,0,0,225,294,153,316,181,290,357,224,291,218,212,163,0
1,1769098672048,660,9112,-148,-1260825,224798,-95294,0,0,0,221,297,155,308,184,291,342,224,288,218,220,161,0
1,1769098672064,1081,7729,-71,-1797165,223576,216246,0,0,0,216,296,157,306,183,292,335,222,288,216,221,163,0
1,1769098672080,1387,3704,378,-2043955,298102,344527,0,0,0,213,299,155,304,185,292,335,228,287,215,218,157,0
1,1769098672096,1134,134,626,-1931555,382401,270002,0,0,0,205,314,159,303,199,294,335,232,288,209,214,154,0
1,1769098672112,440,-2546,674,-1606575,423940,4886,0,0,0,208,300,156,313,200,304,335,231,301,218,214,161,0
1,1769098672128,-540,-4962,545,-1188743,404392,-249233,0,0,0,217,303,153,323,204,302,333,234,296,210,207,161,0
1,1769098672144,-1359,-8131,143,-601091,289550,-284663,0,0,0,199,308,166,315,205,314,340,225,311,195,193,168,0
1,1769098672160,-741,-11304,-239,311541,149051,-3665,0,0,0,198,322,149,324,220,310,326,219,301,180,187,157,0
1,1769098672176,363,-12959,-110,1329242,156381,356745,0,0,0,189,336,181,326,228,335,320,222,318,170,187,171,0
1,1769098672192,717,-11270,387,2048842,268780,572991,0,0,0,292,394,185,366,285,408,276,198,333,217,182,355,0
1,1769098672208,-713,-4603,1478,1721418,222354,333532,0,0,0,355,441,182,433,340,456,304,208,362,273,225,506,0
1,1769098672224,-134,-2177,11950,-1615127,-129503,-221133,0,0,0,362,446,262,445,330,466,486,380,387,460,443,490,0
1,1769098672240,335,-387,22598,-7589389,-464257,-1059240,0,0,0,363,440,450,401,297,455,687,640,382,711,711,388,0
1,1769098672256,-3522,4685,37817,-10627833,-835663,-1556484,0,0,0,360,468,543,401,314,449,718,702,374,727,733,368,0
1,1769098672272,-7954,8542,41861,-7287622,-566882,-1199739,0,0,0,395,523,377,446,349,487,644,566,401,580,611,482,0
1,1769098672288,-6135,7638,22359,113620,21991,39095,0,0,0,394,549,229,458,383,491,598,489,415,508,569,544,0
1,1769098672304,-1971,382,7394,3814242,439822,767246,0,0,0,400,562,271,465,421,503,593,462,416,532,564,561,0
1,1769098672320,263,-4139,3350,2592512,766025,631634,0,0,0,431,589,311,479,422,515,620,502,432,528,576,561,0
1,1769098672336,387,-1828,6949,-45204,316428,217468,0,0,0,442,593,362,488,446,531,628,520,438,540,588,567,0
1,1769098672352,-631,698,11442,-762359,-224798,-25656,0,0,0,449,592,343,499,429,528,621,502,419,548,588,568,0
1,1769098672368,-1660,358,11615,9773,-78190,3665,0,0,0,456,591,324,489,421,518,610,487,412,536,575,558,0
1,1769098672384,-1134,-497,9978,317649,152716,59864,0,0,0,406,572,269,471,401,506,593,471,403,503,554,543,0
1,1769098672400,-1019,-402,10050,153938,105068,19547,0,0,0,378,550,231,465,392,499,580,432,403,501,540,537,0
1,1769098672416,-1167,-258,10232,113620,79412,2443,0,0,0,374,524,220,458,383,489,567,402,400,502,538,514,0
1,1769098672432,-952,-435,9600,114842,59864,12217,0,0,0,358,498,216,460,357,473,556,386,381,484,536,479,0
1,1769098672448,-689,-516,9351,-36651,-101403,-14660,0,0,0,325,470,220,451,329,455,541,373,361,459,513,449,0
1,1769098672464,-756,-382,9748,-175929,-322536,-69638,0,0,0,307,435,221,431,309,439,528,368,355,445,481,423,0
1,1769098672480,-1043,-320,9944,-186924,-390953,-92851,0,0,0,315,404,202,435,279,421,526,366,345,445,471,392,0
1,1769098672496,-1277,-344,9901,-208915,-397062,-96516,0,0,0,286,392,199,408,254,404,510,370,322,438,455,343,0
1,1769098672512,-1301,-339,9877,-245567,-373849,-86742,0,0,0,283,378,202,390,254,386,508,406,318,404,442,311,0
1,1769098672528,-1344,-210,9978,-251676,-351858,-86742,0,0,0,276,356,198,402,236,388,508,421,312,415,438,283,0
1,1769098672544,-1488,-67,10064,-222354,-295658,-81855,0,0,0,281,358,204,396,241,376,492,386,304,417,438,267,0
1,1769098672560,-1608,0,10054,-150272,-189368,-58643,0,0,0,266,357,208,386,242,376,493,400,301,393,453,268,0
1,1769098672576,-1531,-28,9954,-80634,-107512,-23212,0,0,0,272,364,224,392,252,385,497,407,327,397,458,287,0
1,1769098672592,-1430,-52,9877,-35430,-73303,-1221,0,0,0,266,366,240,380,256,393,500,409,340,397,461,300,0
1,1769098672608,-1402,-71,9863,-28099,-75747,0,0,0,0,271,370,240,374,267,396,499,414,330,411,469,301,0
1,1769098672624,-1397,-100,9810,-51312,-83077,-2443,0,0,0,283,370,246,384,256,400,501,414,324,435,483,294,0
1,1769098672640,-1402,-105,9810,-100181,-90408,-7330,0,0,0,290,366,261,384,236,399,515,410,323,446,479,293,0
1,1769098672656,-1426,-76,9887,-141720,-98960,-13439,0,0,0,295,363,269,382,231,392,531,412,318,445,463,298,0
1,1769098672672,-1478,-14,9978,-147829,-101403,-17104,0,0,0,302,365,266,399,229,389,538,424,320,451,469,303,0
1,1769098672688,-1526,28,9983,-122173,-86742,-13439,0,0,0,303,372,261,397,232,395,539,438,336,460,485,309,0
1,1769098672704,-1526,43,9925,-102625,-67195,-8552,0,0,0,291,381,258,396,235,407,532,447,347,462,501,318,0
1,1769098672720,-1450,23,9849,-109955,-58643,-10995,0,0,0,306,372,269,394,231,390,548,439,342,452,509,324,0
1,1769098672736,-1402,19,9815,-127059,-67195,-21991,0,0,0,300,372,261,402,248,410,544,467,347,447,519,331,0
1,1769098672752,-1402,19,9815,-151494,-85521,-41538,0,0,0,317,373,262,396,241,385,567,483,346,450,535,335,0
1,1769098672768,-1454,19,9801,-185703,-96516,-61086,0,0,0,320,373,240,404,258,401,573,507,346,471,534,339,0
1,1769098672784,-1497,47,9782,-224798,-101403,-73303,0,0,0,328,369,255,390,256,406,589,533,333,494,547,352,0
1,1769098672800,-1550,134,9825,-256563,-102625,-81855,0,0,0,326,374,274,378,249,406,608,567,336,530,574,370,0
1,1769098672816,-1636,268,9992,-227241,-98960,-70860,0,0,0,327,376,285,385,249,418,623,591,350,559,591,369,0
1,1769098672832,-1689,344,10069,-152716,-91629,-47647,0,0,0,327,363,297,384,249,427,580,566,399,567,609,363,0
1,1769098672848,-1703,349,10026,-85521,-83077,-26878,0,0,0,337,362,295,388,245,427,588,579,400,571,614,364,0
1,1769098672864,-1698,330,9935,-37873,-69638,-10995,0,0,0,348,371,293,407,247,424,635,620,376,586,612,373,0
1,1769098672880,-1689,315,9920,-2443,-57421,1221,0,0,0,345,377,298,416,270,433,639,627,383,599,614,387,0
1,1769098672896,-1675,306,9949,26878,-50090,12217,0,0,0,339,383,286,405,296,455,639,627,389,599,611,394,0
1,1769098672912,-1655,296,9964,53756,-54977,19547,0,0,0,346,377,285,416,287,457,654,627,413,593,608,386,0
1,1769098672928,-1655,287,9935,73303,-61086,21991,0,0,0,347,372,295,419,272,475,649,621,388,597,607,393,0
1,1769098672944,-1670,277,9906,92851,-62308,24434,0,0,0,346,369,299,414,260,475,642,608,376,592,610,402,0
1,1769098672960,-1675,244,9887,105068,-53756,29321,0,0,0,352,363,283,431,265,480,639,606,378,576,612,418,0
1,1769098672976,-1665,220,9873,109955,-45204,34208,0,0,0,353,373,296,412,259,473,624,561,393,541,620,398,0
1,1769098672992,-1641,205,9873,112399,-40317,37873,0,0,0,354,375,300,432,269,481,636,577,401,549,609,411,0
1,1769098673008,-1631,191,9873,114842,-42760,37873,0,0,0,367,377,298,424,277,494,643,572,417,542,604,428,0
1,1769098673024,-1636,191,9868,122173,-45204,39095,0,0,0,364,375,291,427,294,492,641,563,417,540,593,433,0
1,1769098673040,-1651,177,9849,128281,-43982,41538,0,0,0,366,387,296,428,292,490,638,564,420,549,581,443,0
1,1769098673056,-1651,148,9844,130725,-34208,45204,0,0,0,364,412,299,432,294,487,637,566,421,553,569,456,0
1,1769098673072,-1646,114,9853,130725,-24434,48869,0,0,0,355,428,295,437,304,491,638,553,419,557,559,477,0
1,1769098673088,-1636,110,9877,131946,-17104,48869,0,0,0,365,422,294,443,307,498,641,537,419,559,540,490,0
1,1769098673104,-1646,119,9916,151494,-15882,51312,0,0,0,384,416,296,460,313,493,642,526,422,536,506,481,0
1,1769098673120,-1684,124,10002,212581,-13439,65973,0,0,0,378,431,300,472,311,508,630,492,440,510,491,494,0
1,1769098673136,-1689,86,10083,288328,-14660,86742,0,0,0,373,438,313,492,323,525,609,464,447,483,477,520,0
1,1769098673152,-1689,19,10145,373849,-17104,109955,0,0,0,371,450,267,501,373,533,603,455,474,461,449,513,0
1,1769098673168,-1689,-62,10265,496022,2443,129503,0,0,0,368,471,253,485,373,529,592,439,472,399,408,540,0
1,1769098673184,-1708,-181,10514,659734,45204,152716,0,0,0,380,508,223,499,397,530,566,405,480,385,413,547,0
1,1769098673200,-1651,-244,11050,922406,136833,183259,0,0,0,401,500,206,504,409,537,545,383,500,375,405,582,0
1,1769098673216,-1517,-291,11864,1320690,300545,190589,0,0,0,397,497,200,510,431,561,517,370,508,353,404,589,0
1,1769098673232,-1564,-311,12653,1672549,284663,197920,0,0,0,393,513,198,509,451,564,493,374,504,329,392,599,0
1,1769098673248,-1789,-430,13223,1986533,70860,235793,0,0,0,412,517,197,514,446,552,472,374,489,320,373,605,0
1,1769098673264,-2033,-593,13778,2344500,17104,283441,0,0,0,432,513,194,512,437,546,440,367,466,308,348,610,0
1,1769098673280,-2459,-727,14620,2834414,138055,364075,0,0,0,444,515,194,509,445,544,407,353,459,287,323,611,0
1,1769098673296,-3206,-875,15927,3503923,274889,538783,0,0,0,459,516,202,506,444,539,375,316,468,270,287,590,0
1,1769098673312,-3670,-890,17697,4177096,376292,772133,0,0,0,454,508,204,481,413,533,333,264,459,251,227,547,0
1,1769098673328,-3977,-1072,20516,5127602,532674,1042136,0,0,0,412,485,191,464,400,517,309,223,427,236,193,481,0
1,1769098673344,-4426,-1957,23192,5995031,587652,1241278,0,0,0,410,465,181,431,374,478,307,206,413,249,185,398,0
1,1769098673360,-4584,-2651,24843,6677978,492357,1380555,0,0,0,346,458,175,399,334,453,291,193,382,222,177,381,0
1,1769098673376,-3651,-1856,25785,7097032,524122,1473406,0,0,0,328,420,175,380,267,377,309,191,335,219,176,290,0
1,1769098673392,-4369,-129,25934,7112914,922406,1502728,0,0,0,245,319,146,340,217,300,330,223,283,209,213,186,0
1,1769098673408,-6551,3890,22818,6834360,1369559,1580919,0,0,0,234,279,142,320,191,286,345,237,282,211,230,157,0
1,1769098673424,-8403,10696,16463,6207612,1716531,1621236,0,0,0,242,289,147,313,193,287,342,250,291,215,242,166,0
1,1769098673440,-11198,18482,10758,4272391,1439198,1255938,0,0,0,240,300,145,313,204,280,336,255,285,215,249,160,0
1,1769098673456,-10327,21904,9303,890641,514348,436157,0,0,0,237,290,147,311,198,279,334,262,280,214,260,148,0
1,1769098673472,-6704,17176,9021,-1822821,234572,-351858,0,0,0,228,286,148,305,197,280,333,275,281,209,275,147,0
1,1769098673488,-6566,12337,7422,-2950479,282219,-605978,0,0,0,217,287,144,302,205,275,331,281,278,208,286,147,0
1,1769098673504,-8384,9380,5881,-3230255,-199142,-230907,0,0,0,218,274,147,303,197,272,332,286,271,212,297,144,0
1,1769098673520,-5714,9035,7403,-3783699,-1060462,161268,0,0,0,221,276,144,302,198,270,332,302,268,208,304,140,0
1,1769098673536,-2732,8083,9241,-4438546,-1298699,101403,0,0,0,214,274,144,299,197,266,335,303,268,207,295,135,0
1,1769098673552,-2187,6494,10610,-4918686,-1257160,-266337,0,0,0,215,273,145,299,195,266,340,299,271,271,289,162,0
1,1769098673568,-2187,5053,12093,-5270545,-1419650,-568104,0,0,0,207,275,138,311,206,269,329,299,268,199,309,135,0
1,1769098673584,-1493,3804,13893,-5580864,-1694540,-673173,0,0,0,213,274,147,302,199,275,333,298,275,207,316,141,0
1,1769098673600,-636,2565,15577,-5839871,-1798387,-592539,0,0,0,220,272,145,302,194,269,337,298,271,209,313,135,0
1,1769098673616,-248,1368,17238,-6012135,-1842369,-439822,0,0,0,217,272,141,302,195,268,338,296,266,214,315,134,0
1,1769098673632,38,378,18808,-6072000,-1890017,-311541,0,0,0,212,275,155,299,198,278,334,294,274,216,316,141,0
1,1769098673648,512,-555,20234,-6068335,-1899790,-357967,0,0,0,209,276,161,298,198,285,332,296,280,216,311,148,0
1,1769098673664,966,-1694,21694,-6007248,-1814269,-785572,0,0,0,207,278,158,297,198,285,327,300,280,206,303,148,0
1,1769098673680,1009,-3402,23412,-5900958,-1657888,-1715309,0,0,0,207,282,154,296,200,281,324,303,276,196,305,144,0
1,1769098673696,933,-6255,25230,-5742133,-1463633,-2752558,0,0,0,210,286,153,299,206,280,325,307,272,200,314,143,0
1,1769098673712,588,-11624,26049,-5516113,-1083674,-3275459,0,0,0,211,291,156,298,209,282,319,307,274,202,314,145,0
1,1769098673728,-1560,-18817,24709,-5313305,-540004,-3054326,0,0,0,208,298,160,297,208,286,320,309,277,203,321,147,0
1,1769098673744,-7370,-27963,20172,-5043303,-69638,-1808161,0,0,0,207,319,157,301,222,291,328,308,285,208,316,152,0
1,1769098673760,-9093,-33328,15218,-4263839,-546113,-37873,0,0,0,202,314,163,301,222,296,326,308,280,207,316,147,0
1,1769098673776,-2713,-35333,11830,-2818532,-1253495,1401324,0,0,0,205,314,146,303,220,283,327,313,276,206,328,142,0
1,1769098673792,7030,-34654,10940,-1075122,-1259604,1782504,0,0,0,190,294,130,276,207,248,352,382,260,258,399,120,0
1,1769098673808,11404,-33730,13998,717155,112399,1177748,0,0,0,181,265,122,278,207,243,405,445,272,293,421,104,0
1,1769098673824,10169,-26465,15879,3092199,2575407,394618,0,0,0,203,251,119,296,204,251,439,474,258,361,458,104,0
1,1769098673840,2837,-4412,17951,5249775,3075095,-250454,0,0,0,216,248,122,314,197,260,468,490,247,421,488,110,0
1,1769098673856,224,5226,21837,5599190,612086,-535117,0,0,0,213,284,124,326,210,269,486,493,250,435,493,113,0
1,1769098673872,492,291,21373,3981619,-1067792,37873,0,0,0,217,310,133,331,217,274,501,501,255,440,493,113,0
1,1769098673888,-1631,-1966,15778,2298075,-908967,552222,0,0,0,223,304,154,328,224,281,522,523,266,466,507,124,0
1,1769098673904,-3460,497,9533,1649336,-204028,420275,0,0,0,233,297,178,336,222,303,547,547,282,507,530,145,0
1,1769098673920,-3278,894,8700,1583362,191811,42760,0,0,0,262,291,198,354,193,330,573,573,291,559,559,179,0
1,1769098673936,-2785,-894,10801,1109331,559552,-179594,0,0,0,271,305,232,351,209,348,597,598,302,592,592,234,0
1,1769098673952,-1904,-1033,11801,454483,751364,-195476,0,0,0,280,312,283,351,216,385,604,604,328,600,600,264,0
1,1769098673968,-1349,90,11074,83077,480140,-79412,0,0,0,302,317,299,356,213,381,615,615,331,616,616,283,0
1,1769098673984,-1598,507,10236,-18325,156381,-12217,0,0,0,302,348,267,359,271,365,618,618,326,626,626,286,0
1,1769098674000,-1952,430,9949,-2443,23212,-2443,0,0,0,311,328,289,365,233,363,629,618,311,629,633,280,0
1,1769098674016,-1914,378,10011,37873,19547,0,0,0,0,316,353,282,354,279,365,623,611,320,628,629,301,0
1,1769098674032,-1794,416,9973,81855,-7330,12217,0,0,0,322,351,289,352,250,375,628,608,333,618,624,317,0
1,1769098674048,-1789,421,9935,123394,-65973,24434,0,0,0,331,358,298,357,229,388,634,602,345,606,619,332,0
1,1769098674064,-1847,358,9920,149051,-111177,29321,0,0,0,328,361,301,356,233,399,631,588,350,597,620,350,0
1,1769098674080,-1904,287,9863,141720,-119729,28099,0,0,0,324,357,299,353,237,403,627,566,360,581,616,370,0
1,1769098674096,-1914,282,9834,124616,-113620,29321,0,0,0,327,358,290,359,234,401,623,546,378,557,600,384,0
1,1769098674112,-1895,301,9877,122173,-117286,35430,0,0,0,319,360,272,365,237,405,614,537,384,541,587,389,0
1,1769098674128,-1885,311,9911,134390,-131946,42760,0,0,0,316,368,261,367,247,408,606,535,375,527,578,388,0
1,1769098674144,-1904,291,9901,157603,-150272,47647,0,0,0,323,366,270,364,233,427,593,506,389,525,561,382,0
1,1769098674160,-1938,272,9839,182037,-149051,52534,0,0,0,312,366,264,365,225,427,593,499,391,506,543,364,0
1,1769098674176,-1957,258,9772,205250,-128281,57421,0,0,0,317,373,267,375,244,433,584,492,393,503,540,365,0
1,1769098674192,-1962,215,9724,226020,-94073,59864,0,0,0,323,381,271,385,263,439,575,485,395,500,538,367,0
1,1769098674208,-1952,153,9700,235793,-59864,62308,0,0,0,303,382,290,381,246,442,585,470,380,476,551,368,0
1,1769098674224,-1923,114,9734,234572,-35430,65973,0,0,0,304,376,294,389,241,441,589,462,378,473,545,386,0
1,1769098674240,-1923,110,9825,250454,-29321,69638,0,0,0,309,379,288,400,256,456,582,462,397,461,528,404,0
1,1769098674256,-2000,110,9920,301767,-34208,86742,0,0,0,309,387,289,410,304,472,586,443,428,441,525,421,0
1,1769098674272,-2100,47,9983,400727,-37873,136833,0,0,0,309,396,282,411,314,475,585,416,445,430,499,449,0
1,1769098674288,-2115,-9,10045,524122,-23212,193033,0,0,0,313,407,254,431,308,483,590,396,446,428,442,486,0
1,1769098674304,-2110,-67,10227,687834,19547,246789,0,0,0,322,427,232,461,333,506,600,380,452,416,389,514,0
1,1769098674320,-2239,-143,10543,861319,124616,301767,0,0,0,342,453,225,470,353,529,588,357,475,394,356,540,0
1,1769098674336,-2412,-291,10887,1062905,326202,368962,0,0,0,373,473,208,501,376,544,570,330,494,382,339,572,0
1,1769098674352,-2172,-512,11280,1329242,630412,428827,0,0,0,405,502,192,531,411,566,547,323,475,375,313,584,0
1,1769098674368,-1474,-679,12385,1661553,850324,420275,0,0,0,421,515,191,527,400,577,538,306,468,361,314,593,0
1,1769098674384,-1273,-703,13984,2070833,656069,354301,0,0,0,437,535,204,513,419,571,510,307,473,349,319,599,0
1,1769098674400,-1670,-775,14931,2601064,207694,349414,0,0,0,453,556,217,500,439,566,482,309,478,337,324,605,0
1,1769098674416,-1938,-775,15850,3263242,39095,381179,0,0,0,472,525,227,505,456,578,433,312,516,297,284,614,0
1,1769098674432,-2766,-722,17195,4072027,102625,474031,0,0,0,464,535,195,520,448,570,406,259,494,287,256,599,0
1,1769098674448,-3752,-670,19277,4945564,169820,678060,0,0,0,464,493,213,509,442,557,355,231,496,254,226,535,0
1,1769098674464,-5139,-827,22895,6006027,262672,1005484,0,0,0,451,461,200,474,402,530,312,226,470,223,210,459,0
1,1769098674480,-7451,-2100,26570,7075041,327423,1397659,0,0,0,419,440,184,439,386,498,269,214,442,202,200,406,0
1,1769098674496,-7963,-2608,29600,7910704,482583,1868025,0,0,0,354,405,187,399,345,451,248,208,400,188,186,361,0
1,1769098674512,-7336,-406,29983,8141611,935845,2160019,0,0,0,288,358,179,358,265,376,282,222,333,189,187,277,0
1,1769098674528,-8102,3244,29025,8197811,1339016,2349387,0,0,0,260,307,163,334,211,315,339,240,291,201,207,182,0
1,1769098674544,-10260,9868,23713,7783644,1511280,2494773,0,0,0,250,271,165,326,194,319,355,244,303,206,216,165,0
1,1769098674560,-12433,16836,16137,6669426,1352455,2535090,0,0,0,245,275,155,321,200,305,345,246,290,203,227,160,0
1,1769098674576,-12060,23058,10863,3541796,618195,2054950,0,0,0,233,278,154,311,199,294,336,247,302,202,222,156,0
1,1769098674592,-6125,20765,10839,-1153313,266337,565661,0,0,0,235,273,139,318,190,284,352,264,273,203,230,142,0
1,1769098674608,-4321,13089,9207,-3857003,802676,-790459,0,0,0,248,264,142,317,199,276,341,277,279,199,256,139,0
1,1769098674624,-8250,7848,5747,-4034154,745255,-955393,0,0,0,234,276,148,307,193,288,332,279,280,193,247,134,0
1,1769098674640,-9265,6298,4613,-4079358,-108734,-536339,0,0,0,225,282,145,303,209,275,331,295,268,187,267,129,0
1,1769098674656,-5972,6336,6384,-4548502,-982271,-98960,0,0,0,224,280,139,310,210,266,340,295,255,193,276,124,0
1,1769098674672,-3374,5470,8676,-5101946,-1109331,-195476,0,0,0,220,286,138,307,218,262,335,308,252,191,313,123,0
1,1769098674688,-2943,4407,10122,-5428148,-1188743,-494800,0,0,0,215,293,136,304,226,262,339,310,253,193,323,121,0
1,1769098674704,-2876,3689,11237,-5641951,-1429424,-761138,0,0,0,216,290,136,307,221,262,345,303,253,210,304,123,0
1,1769098674720,-2191,2986,13017,-5966931,-1676214,-956614,0,0,0,220,280,139,310,212,263,345,308,254,213,301,124,0
1,1769098674736,-1655,2292,15017,-6288246,-1791056,-1048244,0,0,0,222,275,141,310,208,265,346,313,256,204,306,121,0
1,1769098674752,-1679,1478,17037,-6489832,-1859473,-1027475,0,0,0,217,277,144,306,208,266,346,311,257,204,306,121,0
1,1769098674768,-1646,497,19148,-6581462,-1976759,-972497,0,0,0,212,277,143,303,211,266,339,312,259,199,303,123,0
1,1769098674784,-1459,-492,21521,-6548475,-2069611,-1040914,0,0,0,209,301,144,303,223,271,345,318,263,196,289,123,0
1,1769098674800,-1794,-1186,24091,-6482501,-2069611,-1315803,0,0,0,210,304,155,302,223,281,330,324,264,176,294,126,0
1,1769098674816,-2378,-2187,27221,-6489832,-2036624,-1832595,0,0,0,204,316,160,296,239,278,326,343,264,177,310,126,0
1,1769098674832,-2383,-5920,30590,-6630331,-1984090,-2597398,0,0,0,213,284,158,299,217,285,331,337,271,189,304,135,0
1,1769098674848,-2311,-12782,31916,-6636439,-1810604,-3060434,0,0,0,211,281,159,302,214,283,328,331,268,187,307,130,0
1,1769098674864,-5455,-24584,28341,-6235712,-1393994,-2527760,0,0,0,220,289,174,301,206,282,327,309,269,190,311,129,0
1,1769098674880,-7293,-35721,21603,-5385387,-1395216,-1065348,0,0,0,226,293,183,306,200,292,345,292,278,207,303,135,0
1,1769098674896,918,-42421,14323,-3804468,-1843591,900415,0,0,0,231,297,173,310,201,286,354,291,274,210,301,130,0
1,1769098674912,12285,-43890,11648,-1979203,-1304808,1742187,0,0,0,233,297,162,314,201,279,359,296,271,212,304,123,0
1,1769098674928,15257,-43847,11280,-212581,-1221,1771509,0,0,0,217,288,151,311,208,276,377,364,265,257,355,110,0
1,1769098674944,8662,-38224,13285,1364672,1169196,1426981,0,0,0,197,283,131,297,221,260,414,460,248,337,439,98,0
1,1769098674960,1923,-5943,18779,3397632,2257757,838107,0,0,0,205,269,115,293,211,248,473,495,243,409,487,100,0
1,1769098674976,-2254,15998,16702,5464800,2802649,56199,0,0,0,235,208,121,321,170,264,529,530,258,460,523,98,0
1,1769098674992,-555,4455,21995,6866125,1798387,-207694,0,0,0,232,215,133,333,169,280,550,550,262,512,544,110,0
1,1769098675008,531,-7236,27188,5347514,1034805,91629,0,0,0,268,262,151,349,177,293,556,556,273,537,544,125,0
1,1769098675024,-1713,-5312,20689,2276083,719599,291993,0,0,0,279,286,190,355,184,325,579,578,290,567,568,173,0
1,1769098675040,-2833,368,11122,777020,399505,-45204,0,0,0,276,288,225,357,188,358,617,616,321,576,588,236,0
1,1769098675056,-2215,1316,8145,343306,207694,-235793,0,0,0,289,301,279,361,202,383,623,622,336,608,612,296,0
1,1769098675072,-1569,-57,9964,211359,191811,-141720,0,0,0,312,317,303,362,207,384,641,626,329,625,628,317,0
1,1769098675088,-1775,81,10614,28099,162490,-20769,0,0,0,316,338,339,359,233,395,653,630,339,635,639,343,0
1,1769098675104,-2019,775,10035,10995,97738,1221,0,0,0,328,345,371,372,243,403,651,624,341,639,642,359,0
1,1769098675120,-1947,813,9820,105068,50090,0,0,0,0,334,348,374,392,246,413,645,618,349,634,636,366,0
1,1769098675136,-1876,660,10016,177150,2443,14660,0,0,0,333,355,366,398,251,423,638,602,360,612,624,370,0
1,1769098675152,-1899,660,10078,218689,-40317,37873,0,0,0,338,360,357,394,252,423,628,572,356,583,611,371,0
1,1769098675168,-1909,646,9949,273667,-85521,59864,0,0,0,331,372,316,401,261,426,616,554,368,563,597,377,0
1,1769098675184,-1909,583,9820,298102,-111177,62308,0,0,0,323,385,270,413,273,421,606,540,376,537,577,383,0
1,1769098675200,-1923,507,9791,284663,-113620,65973,0,0,0,311,384,277,407,272,422,610,521,381,515,557,397,0
1,1769098675216,-1943,473,9786,268780,-102625,76969,0,0,0,303,366,264,407,271,431,604,499,390,493,528,394,0
1,1769098675232,-1933,449,9767,255341,-83077,85521,0,0,0,293,384,303,406,273,452,587,519,396,469,530,402,0
1,1769098675248,-1914,416,9739,245567,-62308,87964,0,0,0,292,391,270,411,274,446,576,503,388,449,500,398,0
1,1769098675264,-1904,378,9724,232128,-40317,84299,0,0,0,299,396,259,411,286,445,578,495,393,444,487,396,0
1,1769098675280,-1890,368,9753,219911,-18325,78190,0,0,0,298,395,257,414,278,433,586,466,383,449,485,395,0
1,1769098675296,-1880,344,9806,223576,-3665,74525,0,0,0,305,399,275,412,278,432,583,438,371,456,475,408,0
1,1769098675312,-1861,291,9825,238237,-1221,74525,0,0,0,310,403,270,421,282,448,580,428,383,442,462,414,0
1,1769098675328,-1856,239,9839,255341,-9773,78190,0,0,0,307,405,245,441,292,469,586,422,403,422,441,424,0
1,1769098675344,-1890,196,9844,287106,-25656,96516,0,0,0,308,412,239,459,315,483,582,404,418,418,415,452,0
1,1769098675360,-1938,172,9877,338419,-34208,124616,0,0,0,320,420,242,466,331,489,575,393,441,410,404,473,0
1,1769098675376,-1995,157,10011,419053,-28099,160046,0,0,0,338,417,237,466,334,497,599,397,457,397,395,489,0
1,1769098675392,-2033,90,10265,575435,-1221,207694,0,0,0,353,410,242,491,335,527,626,359,486,392,356,517,0
1,1769098675408,-2081,-38,10653,789237,41538,252898,0,0,0,371,442,220,494,352,528,587,356,486,388,345,559,0
1,1769098675424,-2177,-114,11490,1111774,84299,304210,0,0,0,392,477,204,541,419,551,607,343,478,393,321,586,0
1,1769098675440,-1952,-157,12423,1485624,68416,346971,0,0,0,408,477,186,542,416,573,563,321,494,393,302,593,0
1,1769098675456,-1320,-239,13237,1863138,1221,321315,0,0,0,418,476,193,533,406,582,532,323,515,371,291,613,0
1,1769098675472,-1459,-363,13998,2295631,-29321,211359,0,0,0,422,495,195,555,437,573,501,320,520,348,276,615,0
1,1769098675488,-2455,-469,14749,2807536,-19547,201585,0,0,0,444,512,201,542,455,572,463,319,499,313,274,627,0
1,1769098675504,-3072,-531,15702,3500257,-7330,355523,0,0,0,467,520,217,517,469,578,410,308,486,286,264,628,0
1,1769098675520,-3158,-411,17233,4317595,2443,542448,0,0,0,493,533,223,501,455,578,367,278,492,262,240,602,0
1,1769098675536,-3962,-430,19813,5298645,19547,777020,0,0,0,497,539,213,501,424,561,341,248,483,231,210,544,0
1,1769098675552,-5340,-1234,24201,6368880,23212,1050688,0,0,0,468,499,199,496,400,523,312,222,453,210,183,468,0
1,1769098675568,-8260,-2029,27886,7487986,-4886,1352455,0,0,0,429,439,183,461,371,475,290,192,425,207,171,408,0
1,1769098675584,-8518,-1914,29925,8356636,102625,1866804,0,0,0,361,402,163,407,330,420,297,196,378,200,172,351,0
1,1769098675600,-6862,-957,31481,8596095,697608,2267531,0,0,0,286,344,181,339,246,369,279,220,345,172,173,265,0
1,1769098675616,-7566,3972,31083,8376184,1435533,2404365,0,0,0,242,279,134,337,194,284,351,241,287,188,192,138,0
1,1769098675632,-11462,13419,24264,7874052,1501506,2476447,0,0,0,255,259,151,334,191,309,358,236,307,198,193,155,0
1,1769098675648,-13768,19554,15625,6888116,978606,2724458,0,0,0,239,298,143,327,216,296,348,255,299,193,222,154,0
1,1769098675664,-11696,23268,11088,4206418,150272,2662150,0,0,0,242,275,152,323,195,291,342,246,291,198,225,150,0
1,1769098675680,-4010,22158,11275,-911410,81855,1343903,0,0,0,237,266,154,312,180,289,336,234,290,205,218,152,0
1,1769098675696,-1201,14711,10337,-4643797,1226617,-433714,0,0,0,235,268,150,308,186,290,340,251,288,204,235,147,0
1,1769098675712,-7657,7676,6288,-4819726,1635897,-945619,0,0,0,232,266,145,312,187,283,346,255,284,207,237,140,0
1,1769098675728,-10983,5388,4292,-4383568,558330,-474031,0,0,0,231,266,143,313,186,277,349,263,281,204,232,135,0
1,1769098675744,-8049,5594,5589,-4389677,-816115,134390,0,0,0,229,268,143,310,190,275,345,280,277,196,248,130,0
1,1769098675760,-3431,5594,8609,-4977329,-1119105,90408,0,0,0,230,268,145,310,194,278,336,282,275,197,267,130,0
1,1769098675776,-2641,4924,10610,-5575977,-927293,-333532,0,0,0,233,275,152,312,195,282,331,272,277,201,261,134,0
1,1769098675792,-3833,3694,12036,-6113539,-1026253,-788016,0,0,0,228,282,149,306,197,276,338,278,278,198,258,132,0
1,1769098675808,-4039,2340,13462,-6451958,-1345125,-1020144,0,0,0,224,269,151,306,190,282,336,277,282,198,263,137,0
1,1769098675824,-3321,1067,15372,-6609561,-1617571,-1086118,0,0,0,221,269,161,303,189,288,328,273,282,197,268,137,0
1,1769098675840,-2890,263,17630,-6702413,-1747074,-1112996,0,0,0,223,275,157,301,192,287,337,278,287,201,275,137,0
1,1769098675856,-3115,-339,20244,-6822142,-1825265,-1150870,0,0,0,219,274,160,298,193,295,334,284,294,198,265,140,0
1,1769098675872,-3512,-1306,23077,-6951646,-1952325,-1257160,0,0,0,219,274,157,300,197,296,334,283,290,198,259,140,0
1,1769098675888,-3795,-2569,26216,-6971194,-2040289,-1481959,0,0,0,223,269,157,302,192,298,334,277,290,198,253,140,0
1,1769098675904,-3914,-4513,29289,-6903998,-2059837,-1925447,0,0,0,224,274,157,277,215,282,338,287,290,194,254,139,0
1,1769098675920,-3656,-8647,32376,-6851464,-2086715,-2577851,0,0,0,221,276,157,291,211,289,335,290,289,195,260,138,0
1,1769098675936,-3522,-16491,32993,-6770830,-1959655,-3027448,0,0,0,219,276,157,311,199,300,334,288,289,200,270,139,0
1,1769098675952,-5527,-28451,27547,-6354220,-1595580,-2364048,0,0,0,223,280,155,315,198,295,353,281,290,213,275,138,0
1,1769098675968,-3900,-39588,19004,-5314527,-1661553,-735481,0,0,0,232,289,155,321,197,292,375,269,289,226,273,137,0
1,1769098675984,6982,-44900,13055,-3452610,-1690874,877202,0,0,0,237,288,157,320,198,295,370,264,290,231,280,136,0
1,1769098676000,15788,-47058,10543,-1379333,-829554,1728748,0,0,0,230,279,157,317,189,296,368,261,291,240,292,136,0
1,1769098676016,13907,-44455,11351,476474,687834,1700648,0,0,0,217,275,156,312,193,290,376,287,291,260,320,133,0
1,1769098676032,5044,-33548,14505,2014633,1546710,1543045,0,0,0,195,245,108,288,198,228,399,449,273,311,425,99,0
1,1769098676048,-1507,-5570,21416,3320663,2420248,1021366,0,0,0,207,249,102,275,166,233,449,502,232,364,489,93,0
1,1769098676064,-4273,16003,18525,4552167,3224146,-285884,0,0,0,234,203,122,310,159,268,505,508,265,447,501,108,0
1,1769098676080,-402,9183,17377,6172182,1975538,-1310916,0,0,0,243,220,136,324,157,280,542,543,281,496,532,112,0
1,1769098676096,5546,-6810,23641,6208834,8552,-913854,0,0,0,245,253,151,347,172,306,551,551,283,525,539,122,0
1,1769098676112,847,-5302,21684,3758042,147829,324980,0,0,0,260,270,168,367,183,329,574,573,295,553,559,156,0
1,1769098676128,-3895,-392,14601,1561371,405614,432492,0,0,0,272,299,209,368,201,350,598,597,308,573,581,219,0
1,1769098676144,-2933,354,10390,586430,171042,-96516,0,0,0,286,339,240,371,230,377,610,608,335,583,594,288,0
1,1769098676160,-1407,-138,9643,182037,-18325,-215024,0,0,0,302,362,254,375,247,394,621,604,367,591,607,337,0
1,1769098676176,-1426,9,10260,113620,8552,-18325,0,0,0,326,371,263,377,246,396,632,592,367,602,620,366,0
1,1769098676192,-1947,488,10102,118507,73303,39095,0,0,0,349,382,289,382,253,394,641,586,343,608,629,386,0
1,1769098676208,-1928,569,9882,136833,63529,14660,0,0,0,334,387,335,376,282,393,653,583,353,597,635,398,0
1,1769098676224,-1746,483,10007,162490,9773,8552,0,0,0,335,394,291,382,289,393,654,570,383,572,622,403,0
1,1769098676240,-1727,478,10102,206472,-31764,30543,0,0,0,350,405,271,408,300,399,641,568,377,567,600,417,0
1,1769098676256,-1775,478,10050,252898,-64751,47647,0,0,0,346,400,273,412,298,407,632,544,372,536,573,419,0
1,1769098676272,-1804,425,9968,283441,-87964,48869,0,0,0,333,400,265,404,298,413,612,514,357,501,533,419,0
1,1769098676288,-1823,358,9897,305432,-100181,57421,0,0,0,322,400,233,411,304,419,624,482,364,492,506,435,0
1,1769098676304,-1837,291,9858,311541,-106290,75747,0,0,0,329,398,228,415,307,413,605,450,365,471,487,439,0
1,1769098676320,-1847,258,9863,311541,-98960,92851,0,0,0,330,411,234,411,308,418,597,429,365,463,445,440,0
1,1769098676336,-1837,220,9853,318871,-79412,107512,0,0,0,321,415,228,425,321,426,587,414,376,451,420,443,0
1,1769098676352,-1794,167,9825,316428,-52534,109955,0,0,0,310,411,219,426,327,433,581,418,387,438,419,456,0
1,1769098676368,-1756,119,9806,298102,-26878,106290,0,0,0,304,417,229,418,323,442,583,420,395,426,418,463,0
1,1769098676384,-1718,81,9820,271224,-12217,94073,0,0,0,302,431,242,429,330,452,577,401,404,414,406,471,0
1,1769098676400,-1708,47,9853,259006,-9773,84299,0,0,0,297,435,234,442,336,464,566,383,411,407,386,491,0
1,1769098676416,-1780,19,9930,282219,-24434,87964,0,0,0,295,426,227,452,327,471,572,373,414,397,358,497,0
1,1769098676432,-1861,-4,9964,344527,-35430,119729,0,0,0,305,406,217,441,328,477,590,369,415,385,349,515,0
1,1769098676448,-1914,-52,9983,416610,-30543,160046,0,0,0,313,414,211,457,334,480,603,328,424,383,342,514,0
1,1769098676464,-2029,-90,10165,514348,-25656,218689,0,0,0,319,413,189,456,370,494,602,325,434,392,346,532,0
1,1769098676480,-2077,-143,10461,667064,-10995,291993,0,0,0,345,449,205,460,368,509,594,331,458,372,320,564,0
1,1769098676496,-1976,-258,10926,862541,58643,339641,0,0,0,353,469,209,506,396,533,563,314,464,360,308,588,0
1,1769098676512,-1885,-397,11868,1177748,97738,355523,0,0,0,377,494,210,518,425,572,533,306,481,345,294,599,0
1,1769098676528,-1780,-545,12572,1555262,20769,367740,0,0,0,409,493,195,519,440,575,520,320,480,339,293,616,0
1,1769098676544,-1249,-703,13036,2004859,-117286,324980,0,0,0,431,497,205,514,466,585,493,310,485,327,286,627,0
1,1769098676560,-1220,-765,13744,2425134,-196698,226020,0,0,0,442,504,210,522,485,594,461,294,486,342,285,631,0
1,1769098676576,-2311,-842,14754,2971248,-199142,218689,0,0,0,451,508,208,543,480,599,448,276,487,348,281,641,0
1,1769098676592,-2981,-847,16003,3699399,-184481,356745,0,0,0,467,510,206,543,460,599,429,257,489,309,253,649,0
1,1769098676608,-3436,-804,17587,4488637,-155159,546113,0,0,0,493,516,206,517,439,594,386,249,493,254,214,617,0
1,1769098676624,-4757,-1081,20650,5472130,-86742,836885,0,0,0,506,520,212,502,421,586,356,243,494,215,198,535,0
1,1769098676640,-6322,-1756,24603,6526484,37873,1186300,0,0,0,462,491,197,477,412,544,324,217,454,203,188,462,0
1,1769098676656,-8451,-3034,27657,7551516,92851,1590693,0,0,0,385,472,187,457,393,499,343,185,428,223,165,415,0
1,1769098676672,-8260,-3713,30026,8227133,150272,1981646,0,0,0,308,423,178,400,308,443,281,193,380,187,160,382,0
1,1769098676688,-6077,-1478,31505,8328536,524122,2244318,0,0,0,231,340,167,333,268,371,301,224,331,164,168,240,0
1,1769098676704,-6695,4766,30174,8096407,1138652,2300518,0,0,0,231,324,147,328,251,312,332,265,299,171,240,168,0
1,1769098676720,-10543,14070,22976,7629706,1347568,2411695,0,0,0,241,295,143,330,225,298,348,264,291,181,253,149,0
1,1769098676736,-12538,19865,14410,6461732,977384,2579073,0,0,0,245,279,142,331,206,289,359,268,280,185,243,139,0
1,1769098676752,-8222,22756,10892,2477669,371406,2001194,0,0,0,244,274,148,323,197,289,350,270,286,183,246,143,0
1,1769098676768,-2512,20191,11170,-2037846,653625,651182,0,0,0,240,272,152,316,195,288,342,264,286,188,248,143,0
1,1769098676784,-3484,12557,9672,-4367686,1654223,-596204,0,0,0,232,273,145,311,197,277,343,266,271,192,251,131,0
1,1769098676800,-8777,6398,6255,-4728096,1797165,-915076,0,0,0,232,270,137,312,200,267,342,280,263,196,271,124,0
1,1769098676816,-9834,5407,5163,-4476420,474031,-310319,0,0,0,239,266,138,316,202,269,344,286,263,204,290,126,0
1,1769098676832,-6566,5671,6728,-4858822,-438601,-1221,0,0,0,229,276,141,307,208,270,338,289,261,196,293,123,0
1,1769098676848,-3685,5202,9169,-5650503,-492357,-241902,0,0,0,229,284,140,308,210,265,338,290,255,200,302,124,0
1,1769098676864,-4814,3417,10390,-6167295,-387288,-697608,0,0,0,229,283,137,310,207,263,342,296,261,198,294,123,0
1,1769098676880,-5929,1708,11299,-6366437,-708603,-965167,0,0,0,231,272,148,309,200,266,339,297,259,190,300,122,0
1,1769098676896,-5436,813,12634,-6372546,-1185078,-1040914,0,0,0,220,267,148,300,198,270,337,298,265,190,302,127,0
1,1769098676912,-4469,531,14855,-6487388,-1450194,-1123992,0,0,0,227,275,151,299,192,271,333,301,266,190,300,126,0
1,1769098676928,-4245,186,17386,-6725626,-1591914,-1200961,0,0,0,224,278,148,299,193,274,330,300,265,189,298,126,0
1,1769098676944,-4240,-459,19736,-6927211,-1733635,-1203404,0,0,0,222,279,147,298,193,275,329,302,266,186,299,124,0
1,1769098676960,-3914,-1440,22488,-6989520,-1932777,-1180191,0,0,0,223,285,151,299,198,279,332,302,269,190,296,126,0
1,1769098676976,-3469,-2622,25675,-6878342,-2096489,-1298699,0,0,0,225,285,154,302,198,283,336,297,270,197,289,128,0
1,1769098676992,-2766,-4393,28858,-6763499,-2196671,-1607797,0,0,0,226,275,153,304,193,284,337,294,271,200,285,128,0
1,1769098677008,-1210,-8939,32395,-6701191,-2158797,-2206445,0,0,0,226,271,154,306,197,285,336,296,273,199,290,126,0
1,1769098677024,-1172,-17678,31595,-6564357,-1694540,-2430021,0,0,0,231,275,151,313,205,279,346,294,269,204,300,120,0
1,1769098677040,-4852,-28288,26274,-6122091,-1214400,-1756848,0,0,0,221,280,145,322,214,284,368,290,270,213,302,120,0
1,1769098677056,-2885,-38157,17635,-4852713,-1514945,140499,0,0,0,212,289,170,315,215,305,343,292,284,202,310,134,0
1,1769098677072,9619,-43024,11864,-3020117,-1654223,1707979,0,0,0,215,285,170,312,201,301,347,289,283,210,315,132,0
1,1769098677088,19339,-43900,10327,-1172861,-605978,1859473,0,0,0,217,285,173,307,201,300,340,294,284,201,317,132,0
1,1769098677104,14338,-40631,11050,509461,908967,1116661,0,0,0,207,285,155,307,210,288,352,351,273,246,379,117,0
1,1769098677120,5034,-30825,13955,2075720,1736079,659734,0,0,0,192,242,123,289,193,247,398,445,237,323,446,101,0
1,1769098677136,-2292,-2201,18899,3451388,2392148,481361,0,0,0,202,216,117,275,178,240,433,479,245,361,472,98,0
1,1769098677152,-5226,15462,17133,5037194,2922379,175929,0,0,0,228,206,125,280,181,249,478,496,262,411,486,103,0
1,1769098677168,-1440,4020,18530,6299242,1798387,-304210,0,0,0,243,213,123,311,177,261,519,518,258,474,506,104,0
1,1769098677184,2574,-6317,23685,5662720,320093,-315206,0,0,0,244,242,131,343,174,285,535,535,264,512,521,103,0
1,1769098677200,177,-4096,22014,3373197,124616,223576,0,0,0,253,273,165,359,186,317,551,551,299,529,529,117,0
1,1769098677216,-2694,-71,14156,1678657,431270,152716,0,0,0,275,301,200,373,198,338,585,585,314,554,554,166,0
1,1769098677232,-2421,402,9739,838107,400727,-118507,0,0,0,288,354,236,371,237,360,602,598,323,575,576,235,0
1,1769098677248,-1215,-1076,10308,390953,178372,-146607,0,0,0,319,364,264,367,227,375,624,602,361,598,598,296,0
1,1769098677264,-1416,-521,10739,109955,84299,-15882,0,0,0,343,369,271,370,235,383,635,615,363,604,604,329,0
1,1769098677280,-1737,220,10227,35430,51312,19547,0,0,0,320,371,310,361,244,393,644,618,381,600,606,349,0
1,1769098677296,-1765,363,9849,75747,32986,0,0,0,0,321,381,288,371,250,393,655,610,370,607,618,348,0
1,1769098677312,-1670,268,9949,118507,10995,1221,0,0,0,319,409,297,359,263,391,648,577,365,601,609,357,0
1,1769098677328,-1612,263,10126,162490,-14660,24434,0,0,0,327,410,311,360,259,397,637,554,371,584,593,389,0
1,1769098677344,-1617,282,10054,215024,-47647,34208,0,0,0,325,410,311,364,265,401,628,525,376,589,556,390,0
1,1769098677360,-1627,224,9964,256563,-84299,37873,0,0,0,326,412,294,376,266,408,619,504,376,567,536,396,0
1,1769098677376,-1622,167,9920,270002,-112399,41538,0,0,0,324,411,290,377,259,415,609,492,378,527,526,404,0
1,1769098677392,-1631,119,9882,271224,-134390,46425,0,0,0,322,403,295,373,253,417,605,479,380,506,512,403,0
1,1769098677408,-1670,86,9858,263893,-140499,53756,0,0,0,320,392,285,378,251,419,607,471,377,492,494,401,0
1,1769098677424,-1708,43,9820,251676,-130725,63529,0,0,0,306,386,264,380,250,422,605,470,376,469,471,406,0
1,1769098677440,-1708,14,9801,240680,-112399,74525,0,0,0,305,390,247,383,256,416,603,452,370,469,454,409,0
1,1769098677456,-1665,0,9801,227241,-86742,78190,0,0,0,315,388,255,389,260,426,602,457,367,458,439,410,0
1,1769098677472,-1646,-19,9801,210137,-67195,75747,0,0,0,317,383,270,396,250,433,592,447,376,469,450,417,0
1,1769098677488,-1665,-38,9786,191811,-52534,70860,0,0,0,313,379,278,388,244,427,595,436,367,452,445,426,0
1,1769098677504,-1670,-57,9815,190589,-35430,69638,0,0,0,301,394,280,388,266,441,594,446,379,452,443,438,0
1,1769098677520,-1665,-90,9877,202807,-25656,74525,0,0,0,308,406,285,417,286,439,604,443,380,452,446,448,0
1,1769098677536,-1679,-124,9935,234572,-24434,87964,0,0,0,316,402,274,433,275,449,619,422,385,445,425,462,0
1,1769098677552,-1732,-124,9964,289550,-20769,112399,0,0,0,316,412,253,434,297,462,616,406,397,446,412,489,0
1,1769098677568,-1823,-129,10040,372627,-1221,145385,0,0,0,330,444,256,449,328,486,609,402,417,428,401,514,0
1,1769098677584,-1904,-210,10208,522900,42760,200363,0,0,0,348,484,263,471,384,512,605,379,436,396,389,538,0
1,1769098677600,-1995,-325,10643,726929,85521,267558,0,0,0,361,506,254,484,432,527,601,350,450,379,376,567,0
1,1769098677616,-1933,-397,11639,1065348,94073,340862,0,0,0,383,508,238,499,432,544,588,339,465,373,360,601,0
1,1769098677632,-1478,-492,12792,1533271,7330,375071,0,0,0,406,510,212,516,441,567,553,318,459,363,341,627,0
1,1769098677648,-1215,-708,13304,2009746,-167377,333532,0,0,0,423,536,205,522,463,570,527,303,445,356,302,628,0
1,1769098677664,-1497,-784,13984,2570520,-270002,265115,0,0,0,446,535,213,510,484,587,462,309,471,339,300,634,0
1,1769098677680,-2043,-780,15209,3158173,-207694,249233,0,0,0,459,530,207,500,494,565,446,310,475,314,284,644,0
1,1769098677696,-2651,-760,16506,3842342,-106290,329867,0,0,0,475,518,202,524,488,570,385,277,481,285,254,638,0
1,1769098677712,-3493,-741,18037,4607145,-35430,509461,0,0,0,487,522,209,518,469,580,350,249,481,254,230,590,0
1,1769098677728,-5029,-885,21024,5582086,13439,842994,0,0,0,479,491,212,504,436,559,304,235,464,225,196,531,0
1,1769098677744,-6800,-1698,25120,6721961,28099,1266934,0,0,0,449,469,198,484,400,538,266,203,445,206,165,465,0
1,1769098677760,-8107,-2675,28418,7755545,124616,1690874,0,0,0,388,449,184,437,359,484,260,188,419,193,157,412,0
1,1769098677776,-7504,-2397,30255,8302880,386066,2036624,0,0,0,312,407,180,389,301,418,264,198,367,177,158,341,0
1,1769098677792,-6566,-301,31380,8411614,835663,2257757,0,0,0,270,324,160,356,240,334,301,229,303,176,190,218,0
1,1769098677808,-8102,5853,29116,8173376,1244943,2328618,0,0,0,262,279,137,343,217,287,345,259,277,185,235,136,0
1,1769098677824,-11686,14788,21057,7618711,1139874,2542421,0,0,0,251,301,137,342,228,301,350,266,287,185,246,143,0
1,1769098677840,-12825,20775,13223,6093991,505796,2757445,0,0,0,239,301,134,327,228,285,349,263,281,181,246,140,0
1,1769098677856,-7083,23421,11194,1925447,54977,1946216,0,0,0,240,303,153,311,216,285,356,265,277,183,252,137,0
1,1769098677872,-1229,19999,11036,-3034778,659734,172263,0,0,0,218,314,135,320,227,288,338,262,262,196,261,126,0
1,1769098677888,-4580,11653,8724,-4940678,1601688,-1029918,0,0,0,218,315,128,304,224,264,345,274,259,201,278,121,0
1,1769098677904,-9619,6350,5781,-5035973,1296256,-1038470,0,0,0,218,307,132,307,220,265,345,274,259,206,276,122,0
1,1769098677920,-9930,5125,4948,-4664566,-144164,-228463,0,0,0,214,317,131,308,239,267,335,285,259,199,273,123,0
1,1769098677936,-4709,5484,7403,-5032307,-957836,168598,0,0,0,217,305,132,305,224,266,344,292,256,197,289,121,0
1,1769098677952,-2100,5154,9619,-5557651,-935845,-17104,0,0,0,218,313,132,306,231,266,346,294,260,199,286,121,0
1,1769098677968,-2517,4211,11174,-6035348,-819781,-497244,0,0,0,219,307,130,307,225,260,347,300,255,195,290,116,0
1,1769098677984,-3149,3120,12596,-6382320,-1159422,-872315,0,0,0,222,302,136,305,218,255,348,300,253,198,301,114,0
1,1769098678000,-2421,1990,14563,-6692639,-1508837,-1083674,0,0,0,221,302,136,304,219,255,348,297,254,205,309,115,0
1,1769098678016,-1579,1100,16678,-6874677,-1544267,-1105666,0,0,0,219,301,132,302,221,255,345,299,255,204,311,117,0
1,1769098678032,-1507,277,18836,-6969972,-1538158,-1031140,0,0,0,217,301,134,302,222,257,340,301,256,199,313,116,0
1,1769098678048,-1660,-665,21540,-6999293,-1634675,-899193,0,0,0,215,300,141,304,222,262,336,297,257,198,310,118,0
1,1769098678064,-1909,-1421,24144,-6974859,-1715309,-930958,0,0,0,212,297,150,301,219,272,335,296,263,195,302,124,0
1,1769098678080,-2885,-2617,27566,-6891781,-1767844,-1282817,0,0,0,211,297,145,301,222,269,338,298,264,195,297,125,0
1,1769098678096,-4206,-5896,30758,-6852686,-1855808,-1952325,0,0,0,216,301,145,304,223,269,344,298,265,198,298,121,0
1,1769098678112,-5312,-12471,32792,-6800151,-1920560,-2579073,0,0,0,216,301,150,306,220,274,340,296,269,194,298,121,0
1,1769098678128,-6843,-23192,30313,-6475171,-1791056,-2478891,0,0,0,218,296,151,293,235,271,352,287,270,207,303,122,0
1,1769098678144,-6436,-33333,24489,-5745798,-1761735,-1671327,0,0,0,214,295,149,305,217,278,349,287,273,208,307,123,0
1,1769098678160,2033,-41861,15592,-4040262,-1920560,-171042,0,0,0,213,293,151,308,209,282,351,288,275,214,305,123,0
1,1769098678176,11533,-44407,11428,-2054950,-1268156,524122,0,0,0,213,305,151,309,213,281,347,295,272,210,316,123,0
1,1769098678192,13443,-45125,10442,-372627,-141720,707381,0,0,0,214,310,149,309,214,279,343,299,269,217,325,123,0
1,1769098678208,9346,-40516,11773,1307251,1004262,673173,0,0,0,206,310,145,311,224,275,358,349,268,246,363,110,0
1,1769098678224,3139,-26810,15041,2855184,1584584,445931,0,0,0,192,280,127,302,224,260,395,435,256,299,430,96,0
1,1769098678240,-2952,2747,21105,3579670,2065946,-162490,0,0,0,195,226,106,293,198,241,438,484,239,365,477,97,0
1,1769098678256,-4982,23287,15970,4291939,2502104,-1034805,0,0,0,228,218,110,319,179,250,477,504,241,422,505,102,0
1,1769098678272,-244,9188,13802,6017022,1435533,-1444085,0,0,0,238,232,117,324,179,267,521,527,259,474,532,110,0
1,1769098678288,4967,-6231,21445,6062226,-65973,-808785,0,0,0,236,245,130,346,180,292,546,546,295,537,541,120,0
1,1769098678304,1962,-5886,22742,4244291,-318871,228463,0,0,0,260,264,167,372,191,353,585,585,322,571,579,177,0
1,1769098678320,-3455,-961,16826,2037846,30543,420275,0,0,0,234,312,183,372,226,376,617,617,338,591,606,244,0
1,1769098678336,-2857,-268,11600,720820,151494,-51312,0,0,0,265,317,235,376,223,412,614,607,359,610,611,334,0
1,1769098678352,-1057,-449,9786,164933,68416,-200363,0,0,0,307,328,246,373,228,405,633,587,370,612,628,354,0
1,1769098678368,-1052,-86,10145,145385,0,-46425,0,0,0,320,344,262,382,243,413,636,574,385,618,630,370,0
1,1769098678384,-1646,272,10246,172263,9773,41538,0,0,0,314,354,276,403,251,435,637,570,391,619,635,389,0
1,1769098678400,-1718,234,9987,172263,46425,19547,0,0,0,324,364,291,409,249,447,635,555,395,613,634,402,0
1,1769098678416,-1454,167,10026,167377,36651,10995,0,0,0,330,375,294,407,252,453,630,537,399,598,624,413,0
1,1769098678432,-1378,220,10174,185703,4886,25656,0,0,0,321,381,290,409,263,459,626,519,397,570,600,426,0
1,1769098678448,-1421,224,10155,224798,-25656,39095,0,0,0,318,382,287,421,269,462,621,499,393,536,569,432,0
1,1769098678464,-1440,157,10040,250454,-50090,40317,0,0,0,320,382,272,435,268,462,616,488,401,509,546,432,0
1,1769098678480,-1445,86,9954,257785,-70860,39095,0,0,0,314,382,251,418,271,457,604,481,402,492,529,450,0
1,1769098678496,-1474,57,9920,257785,-79412,50090,0,0,0,313,385,243,420,275,451,577,454,404,490,501,442,0
1,1769098678512,-1483,28,9892,262672,-70860,65973,0,0,0,342,381,252,432,275,451,588,432,419,474,484,439,0
1,1769098678528,-1454,-19,9834,257785,-48869,72082,0,0,0,318,384,238,444,280,461,589,441,414,454,449,444,0
1,1769098678544,-1440,-71,9782,230907,-25656,72082,0,0,0,308,382,255,434,278,470,573,415,439,454,456,457,0
1,1769098678560,-1440,-90,9777,199142,-8552,70860,0,0,0,308,387,233,438,289,475,579,403,438,442,444,460,0
1,1769098678576,-1430,-71,9892,202807,-1221,75747,0,0,0,324,389,221,440,292,460,584,385,454,431,419,470,0
1,1769098678592,-1411,-81,10040,241902,1221,84299,0,0,0,327,393,231,443,323,477,571,369,448,430,410,480,0
1,1769098678608,-1459,-134,10107,304210,3665,100181,0,0,0,331,400,215,446,369,483,564,363,453,412,391,487,0
1,1769098678624,-1612,-201,10083,401949,20769,145385,0,0,0,337,427,198,457,382,490,578,363,458,387,369,503,0
1,1769098678640,-1732,-263,10131,515570,69638,213802,0,0,0,347,455,202,475,382,505,576,343,464,377,353,527,0
1,1769098678656,-1852,-363,10327,656069,152716,289550,0,0,0,355,476,201,490,398,532,561,312,482,376,347,552,0
1,1769098678672,-1933,-483,10744,862541,245567,394618,0,0,0,363,498,191,499,423,563,554,308,497,374,355,578,0
1,1769098678688,-1493,-512,11667,1081231,265115,464257,0,0,0,389,507,191,502,454,562,525,320,505,369,356,597,0
1,1769098678704,-770,-512,12888,1418429,205250,423940,0,0,0,393,515,195,514,481,575,510,322,501,356,342,610,0
1,1769098678720,-483,-679,13242,1793500,142942,312763,0,0,0,425,517,197,524,464,568,482,307,485,360,338,633,0
1,1769098678736,-684,-942,13395,2241875,51312,183259,0,0,0,453,546,199,515,486,564,452,310,483,332,303,628,0
1,1769098678752,-1488,-1038,14079,2745228,-25656,131946,0,0,0,447,551,206,497,504,574,396,311,471,316,309,635,0
1,1769098678768,-2316,-957,15381,3309667,-6108,229685,0,0,0,469,555,204,498,479,566,370,288,466,299,293,629,0
1,1769098678784,-3115,-981,17114,4037819,136833,442266,0,0,0,462,546,225,502,474,549,328,273,460,272,260,580,0
1,1769098678800,-4029,-1201,19545,4982216,279776,758694,0,0,0,460,533,219,496,445,545,294,243,468,239,215,525,0
1,1769098678816,-4958,-1943,22828,5926614,301767,1048244,0,0,0,457,492,204,475,417,522,276,213,444,218,185,469,0
1,1769098678832,-6704,-3426,27078,7015176,301767,1413542,0,0,0,420,443,190,445,369,482,279,189,408,205,164,422,0
1,1769098678848,-7140,-3417,29858,7692015,640186,1827708,0,0,0,350,404,184,408,303,433,264,190,368,190,158,363,0
1,1769098678864,-7059,-622,30102,8043873,1053131,2161241,0,0,0,278,349,166,366,249,364,280,224,309,186,190,254,0
1,1769098678880,-7288,4575,29045,8045095,1439198,2283414,0,0,0,240,297,129,338,223,295,355,263,271,197,240,144,0
1,1769098678896,-9715,11083,24445,7679797,1694540,2335948,0,0,0,259,310,134,335,233,293,348,276,293,195,258,143,0
1,1769098678912,-13089,17334,15199,6494719,1279151,2392148,0,0,0,240,316,131,329,239,297,342,280,285,194,257,136,0
1,1769098678928,-9672,21014,11495,3177720,403171,1751961,0,0,0,219,327,143,321,239,288,334,278,277,187,257,139,0
1,1769098678944,-3862,19856,10973,-1176526,321315,243124,0,0,0,246,313,156,311,225,337,334,279,306,202,271,173,0
1,1769098678960,-3594,12620,9590,-4080579,1156978,-1393994,0,0,0,229,317,135,311,226,276,343,278,272,204,266,138,0
1,1769098678976,-8734,6963,5795,-4140444,954171,-1549154,0,0,0,226,297,164,312,213,291,342,288,282,200,273,140,0
1,1769098678992,-9499,5144,4221,-3907094,-59864,-990823,0,0,0,228,303,144,313,228,283,335,305,275,189,290,131,0
1,1769098679008,-5532,5484,5905,-4267504,-769690,-494800,0,0,0,216,312,137,306,236,281,328,302,272,186,291,132,0
1,1769098679024,-3263,5417,8011,-4913799,-788016,-458148,0,0,0,217,318,139,307,235,280,332,298,273,195,297,133,0
1,1769098679040,-3881,4402,9490,-5545434,-747699,-659734,0,0,0,227,316,141,313,229,280,337,303,274,203,308,133,0
1,1769098679056,-4446,2924,10643,-5960823,-1017701,-785572,0,0,0,235,313,143,310,227,277,338,321,272,205,312,135,0
1,1769098679072,-3876,1440,12031,-6130643,-1406211,-827111,0,0,0,244,322,134,306,238,265,343,335,270,205,318,129,0
1,1769098679088,-3096,732,14094,-6219829,-1640784,-900415,0,0,0,228,319,133,302,245,265,340,324,269,199,318,125,0
1,1769098679104,-2914,502,16037,-6388428,-1754404,-989601,0,0,0,219,317,141,296,229,271,333,321,271,193,315,125,0
1,1769098679120,-3058,-253,18353,-6652322,-1879021,-1082453,0,0,0,205,332,141,299,242,270,336,321,267,196,317,123,0
1,1769098679136,-3268,-1234,20354,-6780604,-1998751,-1178969,0,0,0,205,323,142,292,233,269,334,323,274,190,318,125,0
1,1769098679152,-3613,-2033,22569,-6726848,-2122145,-1348790,0,0,0,201,321,140,295,244,275,333,320,276,188,322,125,0
1,1769098679168,-3838,-3034,25479,-6582683,-2257757,-1657888,0,0,0,208,318,144,294,236,271,335,315,276,186,313,124,0
1,1769098679184,-3522,-5226,28537,-6478836,-2365270,-2031737,0,0,0,210,319,149,294,229,274,341,311,278,191,304,128,0
1,1769098679200,-2737,-9887,30959,-6431189,-2334726,-2309070,0,0,0,208,316,145,296,226,277,346,311,280,193,301,129,0
1,1769098679216,-3196,-17429,29873,-6282138,-2002416,-2101376,0,0,0,203,316,143,299,232,282,346,316,286,191,306,130,0
1,1769098679232,-4781,-28556,24292,-5736024,-1671327,-1202182,0,0,0,200,315,144,300,235,288,350,315,296,194,310,131,0
1,1769098679248,-172,-37109,16960,-4436103,-1861917,298102,0,0,0,199,314,146,300,232,291,354,313,302,198,314,132,0
1,1769098679264,9160,-42081,12462,-2783102,-1715309,1456302,0,0,0,199,314,144,298,229,286,352,322,297,199,321,133,0
1,1769098679280,16238,-43905,11471,-951728,-657290,1811826,0,0,0,193,290,136,292,217,270,366,362,280,238,349,125,0
1,1769098679296,13328,-38937,14859,878424,1006705,1442863,0,0,0,191,219,119,277,179,241,420,465,251,352,439,99,0
1,1769098679312,6307,-18511,19215,3275459,3469714,797790,0,0,0,200,173,126,261,139,247,461,510,256,388,484,99,0
1,1769098679328,-1698,6293,18233,5544212,5403713,41538,0,0,0,250,190,150,281,131,255,530,542,247,415,512,89,0
1,1769098679344,-172,4795,20224,6688974,3580892,-576656,0,0,0,226,185,141,298,137,278,564,564,289,466,540,107,0
1,1769098679360,3082,-3546,24249,5535660,2043955,-360410,0,0,0,223,234,126,324,170,278,571,571,283,497,550,109,0
1,1769098679376,1028,-3436,21158,2867401,2278527,54977,0,0,0,241,254,152,342,186,310,590,590,318,524,554,121,0
1,1769098679392,-583,-201,14678,1094670,1843591,-40317,0,0,0,280,256,181,372,176,307,620,619,333,543,574,123,0
1,1769098679408,-521,698,10734,615752,641408,-164933,0,0,0,299,272,203,381,175,317,638,638,324,575,597,156,0
1,1769098679424,-502,-162,10404,364075,37873,-107512,0,0,0,301,304,219,376,196,345,643,643,322,591,603,189,0
1,1769098679440,-540,-62,10720,112399,94073,-31764,0,0,0,302,315,242,372,209,362,649,648,325,587,608,222,0
1,1769098679456,-636,540,10380,3665,134390,-2443,0,0,0,318,311,257,371,204,363,658,649,323,593,620,258,0
1,1769098679472,-722,928,9959,46425,67195,0,0,0,0,333,324,259,376,202,364,661,642,325,600,625,286,0
1,1769098679488,-698,799,10050,133168,-2443,6108,0,0,0,324,344,264,377,212,374,653,632,326,590,619,314,0
1,1769098679504,-665,703,10174,202807,-39095,15882,0,0,0,323,357,252,383,225,375,635,598,327,570,601,318,0
1,1769098679520,-679,689,10112,248011,-64751,23212,0,0,0,327,342,259,392,216,388,630,578,355,544,586,330,0
1,1769098679536,-717,646,10021,280998,-90408,30543,0,0,0,319,336,260,381,221,388,623,571,356,501,580,345,0
1,1769098679552,-760,598,9983,294437,-105068,37873,0,0,0,330,349,255,391,220,398,613,555,364,485,575,359,0
1,1769098679568,-775,559,9964,295658,-101403,46425,0,0,0,323,356,265,390,225,401,604,540,366,486,564,354,0
1,1769098679584,-775,507,9916,285884,-86742,56199,0,0,0,318,347,273,390,217,406,600,531,370,478,546,355,0
1,1769098679600,-760,464,9877,271224,-68416,63529,0,0,0,318,349,259,394,218,407,598,519,372,462,518,356,0
1,1769098679616,-722,435,9873,244346,-53756,68416,0,0,0,317,351,253,395,220,396,596,506,371,447,505,358,0
1,1769098679632,-684,416,9892,216246,-50090,67195,0,0,0,312,352,239,398,225,393,597,496,365,445,487,360,0
1,1769098679648,-679,402,9911,204028,-52534,63529,0,0,0,309,355,230,403,230,399,597,488,355,445,468,367,0
1,1769098679664,-698,382,9954,210137,-53756,62308,0,0,0,303,363,228,406,247,411,598,477,362,434,453,385,0
1,1769098679680,-698,363,10026,238237,-58643,65973,0,0,0,296,370,223,418,265,426,605,458,378,425,436,413,0
1,1769098679696,-689,311,10117,296880,-87964,75747,0,0,0,311,375,224,443,254,438,614,432,363,433,419,437,0
1,1769098679712,-799,272,10174,387288,-127059,96516,0,0,0,320,411,219,455,282,455,620,409,377,414,396,471,0
1,1769098679728,-914,220,10236,519235,-152716,147829,0,0,0,316,419,208,458,323,476,615,407,389,415,394,500,0
1,1769098679744,-842,172,10418,671951,-169820,194255,0,0,0,347,434,205,456,375,471,622,404,405,395,387,516,0
1,1769098679760,-823,90,10787,851546,-210137,212581,0,0,0,337,455,212,479,381,486,617,368,417,383,366,564,0
1,1769098679776,-890,-33,11543,1147204,-266337,216246,0,0,0,403,442,223,515,377,525,593,347,413,396,345,581,0
1,1769098679792,-894,-210,12356,1611462,-290771,211359,0,0,0,411,468,206,518,395,540,575,349,419,368,333,606,0
1,1769098679808,-808,-392,12816,2080607,-384845,204028,0,0,0,402,504,202,536,419,568,540,344,432,343,317,611,0
1,1769098679824,-1134,-588,13371,2472782,-538783,207694,0,0,0,410,524,201,526,430,577,498,347,439,325,324,628,0
1,1769098679840,-1856,-603,14572,2906496,-597426,274889,0,0,0,456,508,206,524,455,580,454,351,436,332,316,639,0
1,1769098679856,-2144,-559,16109,3452610,-299323,411723,0,0,0,485,510,211,530,466,577,419,341,435,318,294,639,0
1,1769098679872,-2287,-655,17913,4186870,31764,565661,0,0,0,489,522,215,514,458,578,391,312,447,270,267,614,0
1,1769098679888,-4044,-856,20287,5125159,133168,786794,0,0,0,486,495,219,488,449,587,346,262,464,239,227,549,0
1,1769098679904,-6259,-1464,23799,6221051,167377,1164309,0,0,0,448,472,204,471,405,553,278,214,463,230,193,488,0
1,1769098679920,-8092,-2517,26939,7276626,356745,1663996,0,0,0,425,464,198,421,377,510,251,212,427,195,185,435,0
1,1769098679936,-9384,-3354,29222,8174598,487470,2195449,0,0,0,363,425,178,390,343,461,241,232,373,186,204,404,0
1,1769098679952,-7451,-2182,31586,8522791,564439,2629163,0,0,0,271,353,183,360,277,387,246,257,345,170,228,316,0
1,1769098679968,-6905,3914,31208,8170933,1178969,2767219,0,0,0,250,295,145,330,215,285,338,249,281,198,218,147,0
1,1769098679984,-10366,12069,25115,7714006,1707979,2889392,0,0,0,242,293,145,324,212,290,348,252,286,207,222,148,0
1,1769098680000,-13524,16458,15807,6860016,1336573,3101973,0,0,0,236,282,150,325,203,291,341,244,284,209,221,150,0
1,1769098680016,-11878,19640,10466,4364021,387288,2800206,0,0,0,235,284,179,318,198,304,332,242,281,207,233,150,0
1,1769098680032,-5254,20181,10131,323758,-67195,1406211,0,0,0,238,296,173,313,202,295,341,249,276,209,232,143,0
1,1769098680048,-2981,14352,8853,-3134960,725707,-748920,0,0,0,241,293,166,312,198,285,345,256,274,211,233,139,0
1,1769098680064,-7303,7446,5585,-4223522,1127657,-1910786,0,0,0,237,282,163,310,192,287,344,260,273,211,237,135,0
1,1769098680080,-9552,4637,3575,-3721391,34208,-1506393,0,0,0,230,277,153,309,194,286,340,266,269,206,243,130,0
1,1769098680096,-6355,4752,4345,-3550348,-990823,-943175,0,0,0,225,284,151,307,203,280,335,275,265,197,257,131,0
1,1769098680112,-2354,5642,6652,-4023158,-1116661,-923628,0,0,0,220,302,159,300,215,281,333,284,268,196,272,133,0
1,1769098680128,-2062,5484,8643,-4789183,-886976,-1363451,0,0,0,223,307,150,300,226,272,337,294,265,196,279,125,0
1,1769098680144,-2488,4737,10552,-5541769,-874759,-1780061,0,0,0,237,287,154,299,217,272,336,288,264,196,275,124,0
1,1769098680160,-2589,3517,12299,-6129421,-971275,-2073276,0,0,0,228,310,165,296,220,272,336,285,260,207,277,123,0
1,1769098680176,-2852,2120,13888,-6544810,-1015258,-2276083,0,0,0,234,308,159,302,218,271,350,287,261,223,281,119,0
1,1769098680192,-3536,904,15367,-6757391,-1043357,-2280970,0,0,0,229,294,162,299,210,270,336,288,258,203,286,121,0
1,1769098680208,-4283,-71,17200,-6895446,-1136209,-2053728,0,0,0,219,288,157,299,208,275,338,294,265,199,290,125,0
1,1769098680224,-4599,-971,19947,-7040832,-1317025,-1609019,0,0,0,222,288,164,300,208,277,335,294,271,196,292,130,0
1,1769098680240,-4618,-1837,22833,-7174001,-1477072,-1282817,0,0,0,220,286,161,302,209,276,333,290,271,196,292,131,0
1,1769098680256,-5020,-3555,26365,-7263187,-1602910,-1282817,0,0,0,221,285,158,302,208,274,341,292,273,196,283,130,0
1,1769098680272,-5814,-6896,29911,-7279070,-1804495,-1550375,0,0,0,220,281,159,299,205,277,347,296,278,195,276,131,0
1,1769098680288,-5647,-13280,32242,-7203322,-2083050,-1674992,0,0,0,216,278,159,298,203,284,354,297,281,197,282,131,0
1,1769098680304,-5766,-22445,31433,-7020063,-2085493,-1296256,0,0,0,215,284,159,302,205,286,364,296,282,201,286,128,0
1,1769098680320,-5561,-32711,24355,-6223495,-2032959,37873,0,0,0,215,283,161,305,202,289,363,287,286,205,279,130,0
1,1769098680336,2201,-38937,17228,-4699997,-2280970,1429424,0,0,0,214,283,154,309,201,290,362,284,286,213,289,131,0
1,1769098680352,15204,-42378,13070,-2583959,-1837482,2034181,0,0,0,209,295,154,308,214,290,356,305,287,205,305,132,0
1,1769098680368,17099,-44584,12098,-808785,-289550,1519832,0,0,0,208,302,155,305,224,290,346,315,286,196,354,126,0
1,1769098680384,11998,-42201,12452,821002,979827,1127657,0,0,0,201,250,123,295,197,249,408,440,248,299,420,91,0
1,1769098680400,5652,-23608,17908,2379930,1885130,977384,0,0,0,213,196,119,283,161,239,478,487,239,360,460,86,0
1,1769098680416,-2019,14840,18951,3947411,3877772,116064,0,0,0,244,187,128,293,147,249,517,526,239,427,508,90,0
1,1769098680432,-1703,16970,15946,5927836,4190535,-718377,0,0,0,243,196,128,313,149,260,553,558,273,483,538,86,0
1,1769098680448,3508,-1325,22756,6480058,2271196,-437379,0,0,0,236,226,130,338,173,282,572,572,281,519,551,90,0
1,1769098680464,1976,-7652,25230,4559498,1089783,334754,0,0,0,251,252,143,363,185,302,585,585,280,540,561,114,0
1,1769098680480,-1871,-2258,17549,2175901,822224,207694,0,0,0,270,265,171,377,183,319,603,603,293,562,573,151,0
1,1769098680496,-2273,904,10155,621860,392175,-233350,0,0,0,281,277,214,373,192,341,620,615,297,587,591,191,0
1,1769098680512,-981,-28,9265,313984,92851,-266337,0,0,0,295,287,271,362,195,358,649,628,318,595,611,225,0
1,1769098680528,-1148,-263,10275,232128,96516,-70860,0,0,0,286,314,325,360,190,383,656,630,360,589,608,257,0
1,1769098680544,-1512,220,10404,169820,134390,12217,0,0,0,297,314,283,375,211,384,649,617,349,600,613,292,0
1,1769098680560,-1488,459,10031,175929,96516,6108,0,0,0,325,322,296,406,221,374,661,605,335,600,628,345,0
1,1769098680576,-1368,363,9949,201585,42760,9773,0,0,0,314,337,317,385,252,404,647,591,359,568,606,337,0
1,1769098680592,-1349,296,10141,230907,0,28099,0,0,0,331,339,305,394,263,400,639,567,363,568,598,339,0
1,1769098680608,-1378,325,10141,277332,-36651,42760,0,0,0,341,342,292,417,265,412,623,557,388,539,570,355,0
1,1769098680624,-1392,277,10016,318871,-65973,50090,0,0,0,333,343,305,419,259,444,610,536,405,515,544,374,0
1,1769098680640,-1421,186,9897,332310,-72082,52534,0,0,0,328,340,308,426,252,447,611,511,403,492,514,376,0
1,1769098680656,-1454,124,9853,328645,-59864,59864,0,0,0,309,344,297,422,256,447,605,492,402,472,489,380,0
1,1769098680672,-1454,90,9853,315206,-42760,73303,0,0,0,298,344,281,418,253,453,601,478,403,468,472,385,0
