foot,step_id,surface,contact_time_sec,stance_duration,time_to_peak_frac,impact_mag,impact_mag_norm,accel_mag_strike,loading_rate,loading_rate_norm,heel_pmax_ratio,fore_pmax_ratio,heel_mean_ratio,fore_mean_ratio,heel_fore_ratio,total_pmax,total_p_mean,midstance_diff,heel_impulse,heel_impulse_norm,rise_slope,fall_slope,slope_asym,heel_skew,heel_kurt,gyro_mag_strike,gyro_x_strike,gyro_y_strike,gyro_z_strike,gyro_x_std,gyro_y_std,gyro_z_std,pressure_01_mean_ratio,pressure_02_mean_ratio,pressure_03_mean_ratio,pressure_04_mean_ratio,pressure_05_mean_ratio,pressure_06_mean_ratio,pressure_07_mean_ratio,pressure_08_mean_ratio,pressure_09_mean_ratio,pressure_10_mean_ratio,pressure_11_mean_ratio,pressure_12_mean_ratio,cop_path_ratio,cop_ml_jitter,cop_speed_cv,cop_anisotropy,accel_spec_centroid,accel_hf_frac,accel_spec_entropy,accel_zcr,accel_jerk_ratio,gyro_hf_frac,heel_ripple_frac,impact_mag_roll3_std,loading_rate_roll3_std,stance_duration_roll3_std,impact_mag_stepwise_ac,loading_rate_stepwise_ac,cop_path_ratio_stepwise_ac,source_user,source_recording
right,0,brick,0.912,1.104,0.9855072463768116,39827.0,3.2717803566769232,40960.10529771622,265.625,0.0842540191167836,0.26265119723525054,0.4403850901012096,0.2030391866813695,0.3728355880691751,0.5445810249301979,4051.0,2655.785714285714,-45.19999999999999,524.4857142857143,0.19748796428283263,0.8529411764705882,-6.0,-5.147058823529412,0.35616789521466724,-1.5907382395217804,8098941.522834821,6921103.0,3580892.0,2206445.0,3829568.9212453654,1162949.9123045977,583022.9248640935,0.038594981307657136,0.037578333019553,0.025964874532691428,0.09340792340173745,0.06803474893090557,0.10235335251875959,0.13615556332535436,0.0986148839461015,0.07146123019821952,0.11979774616067346,0.10442430273526801,0.103612059923079,3.727666337830566,0.025566873264870442,0.9677240204249303,13.814499745187112,3.34471325218672,0.10363042406019667,0.43572231139631423,0.057971014492753624,0.46192360244471564,0.11616995208138958,0.001323015302390894,0.0,0.0,0.0,0.0,0.0,0.0,Amy,REC_20260323_145407.csv
right,1,brick,2.032,1.04,0.03076923076923077,14376.0,0.8296421026865802,32964.02988106885,734.375,0.23293758226404876,0.2857142857142857,0.43726937269372695,0.19337322311762875,0.3926088610659565,0.49253402633965393,3794.0,2628.4545454545455,6.0,492.5,0.1873724622142289,12.5,-0.9682539682539683,11.531746031746032,0.7155046804427523,-1.004034893678809,9693232.856384551,9417098.0,2151467.0,805120.0,4117900.508432502,1342263.8314629728,537112.1410214481,0.033929374329886214,0.03289754320432562,0.021334117294411974,0.09277833500501505,0.07586552761733475,0.11244653500732081,0.11762874831390724,0.09074925927206907,0.07862092023196025,0.12255732715387542,0.10262396384555966,0.11856834872433392,3.303969644281969,0.034516593261649804,0.9036950965575735,9.653940664559192,3.829856554612618,0.1240143090693199,0.46883643776404116,0.06153846153846154,0.4203247616769669,0.13251380925338638,0.0018267395022142322,17996.57468797882,331.45630368119413,0.04525483399593908,0.3707667282737785,0.1877820661788466,0.292901458608761,Amy,REC_20260323_145407.csv
right,2,brick,3.088,1.024,0.984375,37755.0,3.072962610330297,39982.00807863457,2011.71875,0.6381002918403463,0.2957629465522016,0.4937690390473553,0.18586887706052008,0.3948343377025348,0.47075155150353953,3611.0,2624.4307692307693,-5.800000000000011,471.83846153846156,0.17978697211996156,0.8253968253968254,-9.0,-8.174603174603174,0.5847219833190692,-1.282055390510796,7929736.871253043,6718295.0,4036597.0,1204626.0,4315908.06315042,1570542.3213091223,559076.08814685,0.03206556146973996,0.029562454568902854,0.01990761366567402,0.09848289445916476,0.0737214809951462,0.11388843294956268,0.134558116631885,0.08996529650385725,0.07917907472975826,0.11660257462424085,0.09590358055666283,0.1161629188454053,3.103624016898341,0.02654561854641677,1.0157553705625044,11.031161122803654,4.173165641999327,0.19885387185638723,0.5198661626507769,0.046875,0.46142419836917137,0.20647704682375673,0.002840474021016654,14134.026472783095,903.7124360061598,0.04233202097703349,0.37843570681833316,0.4196241192536135,0.2542992591106937,Amy,REC_20260323_145407.csv
right,3,brick,4.128,1.072,0.07462686567164178,45962.0,3.8604612803432135,47857.90084197174,703.125,0.22302534472089774,0.29129852744310575,0.46586345381526106,0.2070625738547363,0.369210475693204,0.5608252947475566,3735.0,2675.6617647058824,-26.400000000000006,538.6985294117648,0.20133282035780045,7.6,-0.8548387096774194,6.745161290322581,0.3852727648257461,-1.6500429802766425,8128332.043306117,6817256.0,4184426.0,1444085.0,4259386.958434135,1369640.8061198613,634307.2765891938,0.027469839786748742,0.02049520459479513,0.015691555140289647,0.09893099563054768,0.06581109676000989,0.10780730440517738,0.14002033581576848,0.10039847206573414,0.07616587430267388,0.12774739619115666,0.10666410178900217,0.11279782351809613,2.639655243703446,0.022307780182818305,1.262648342735191,13.329758992839384,4.065296198743967,0.2583088075617516,0.5660269576357575,0.04477611940298507,0.442357862801036,0.18564020728749317,0.003307121127566113,16389.0608130342,746.6593623939372,0.024440403706431142,0.43409940173434475,0.47818485160759916,0.25113079692666535,Amy,REC_20260323_145407.csv
right,4,brick,5.216,1.056,0.030303030303030304,45374.0,3.8040400280016033,46491.266201298495,4159.226190476191,1.3192716158622417,0.2875605815831987,0.47926763597199784,0.1785413920080011,0.3971280174569259,0.4495814552474763,3714.0,2626.507462686567,-4.400000000000006,453.36567164179104,0.17261160612810839,11.5,-0.40625,11.09375,0.8833830650797662,-0.7041635629456904,8040375.43112192,7115358.0,3270572.0,1822821.0,4428824.5710323425,1332258.0521400266,713682.1560913586,0.03537414192844479,0.03193617311451562,0.02184388780288221,0.09883165886257217,0.07465790789653134,0.11437923353184525,0.12812542619448106,0.08726758194299222,0.07732304405146156,0.11537368732099833,0.09127381006500886,0.12361344728826658,2.711873152628248,0.025641062689455565,1.2563102013570688,11.17531235906148,4.297139253034941,0.2686290491901923,0.5656258970585608,0.06060606060606061,0.45974288316387285,0.1621056896259746,0.003391733503541332,4578.022753693269,1744.9374987971444,0.024440403706431142,0.46309369711814413,0.41309763790221077,0.24344956196668613,Amy,REC_20260323_145407.csv
right,5,brick,6.288,1.056,0.0,20708.0,1.4372260649775257,32107.568718294446,546.875,0.1734641570051427,0.27908217716115263,0.4599786552828175,0.1776124396758516,0.40210617050113706,0.4417053323363053,3748.0,2631.9253731343283,-22.5,452.34328358208955,0.17186782277318122,0.0,-1.0,-1.0,0.9477723435138223,-0.5941112902754218,8635928.717073746,7672467.0,3340211.0,2134363.0,4161905.803311296,1280988.1806898613,597307.2754903043,0.03970760864017603,0.04175480183056499,0.02230363107423769,0.09689291648472545,0.07992559785413324,0.1102592166225282,0.11607755516363369,0.08285745070574291,0.07327363770918514,0.11419481793590755,0.09475498897010871,0.12799777700905643,3.308488106169826,0.031515291433455224,0.970943442546869,9.56828809301782,4.4846194847728595,0.21467114422961492,0.5403416523224214,0.07575757575757576,0.46215655921019,0.24846321445772446,0.002830726499160841,14413.661436290224,2041.9814978204258,0.009237604307034044,0.34208819651031197,0.33791169774288665,0.3224198017726722,Amy,REC_20260323_145407.csv
right,6,brick,7.36,1.056,1.0,46077.0,3.871496049083494,49018.93873800207,2798.6111111111113,0.887695939975524,0.2754747258625301,0.45306231612730674,0.17485557114294867,0.40110903688320876,0.4359302709843962,3739.0,2702.3582089552237,-19.0,457.3880597014925,0.16925515580642667,0.48484848484848486,0.0,0.48484848484848486,0.8300529535076201,-0.8020704691321994,7434874.022668575,6570466.0,3123964.0,1532050.0,4172015.2368381447,1140605.0511072618,674160.0878621773,0.05530824376719063,0.057832296833059016,0.029940681991406072,0.09268300765500559,0.07923427851848579,0.10246992676379944,0.10384517668371461,0.08062057462249667,0.06888952711285887,0.11433905157463356,0.09423499652045202,0.12060223795689778,3.0204666895684134,0.039943351835508546,1.1548880322719908,7.786669992851275,4.596282898204652,0.2148520267681589,0.5382844218357985,0.06060606060606061,0.4541019141345708,0.24341912495572227,0.002852545989860403,14448.136708009557,1824.40264340652,0.0,-0.07917893477705915,0.17827396355531475,0.1191232207042296,Amy,REC_20260323_145407.csv
right,7,brick,8.432,1.0079999999999991,0.015873015873015872,44627.0,3.7323620084451696,45806.60491675846,583.3333333333334,0.1850284341388189,0.27511712649661635,0.43909422175950025,0.18196489574743785,0.38968665331605606,0.4669518296272746,3842.0,2652.8125,-33.5,466.7734375,0.17595417599246083,23.0,-0.8064516129032258,22.193548387096776,0.8508442391704343,-0.8936529588313316,8085426.020794823,7049384.0,3028669.0,2550973.0,4276355.8193510445,1163783.2908669536,722203.5519499229,0.03566969018730121,0.03116385911179173,0.020962421957827777,0.10208505124278477,0.0726587348333137,0.11013075745081871,0.12801861232182823,0.08605253857933796,0.07364825067734715,0.12334786193897986,0.0959123571680999,0.12034986453056898,2.960120570478305,0.025876005045965423,1.1610420413449676,11.611320262956022,4.214090085494879,0.15718284342297828,0.4862899584428318,0.06349206349206349,0.4374235413936,0.21973256835714663,0.0013640804214353505,14246.679273898646,1289.6446769599813,0.027712812921102625,-0.07338416410241781,0.25835864040158757,0.10632838211618403,Amy,REC_20260323_145407.csv
right,8,brick,9.456,0.9920000000000009,1.0,45015.0,3.7695923586297697,46364.18118547981,4734.375,1.5017039877873781,0.2924849437025399,0.4574495941345902,0.1722914646548258,0.3989724002554218,0.43183805331988906,3819.0,2684.6349206349205,50.30000000000001,445.5238095238095,0.1659532199702008,1.4516129032258065,0.0,1.4516129032258065,1.0350358576932246,-0.41914681815263455,8104339.0573294135,7101919.0,3075095.0,2405587.0,4309192.457829277,1096156.4593220411,762967.8139468795,0.038218669441619564,0.037331788189106735,0.025406191613650875,0.09851476952912519,0.07154175436936831,0.11310100986211954,0.13268926045928625,0.08303573540193458,0.07848307830570206,0.11522952486815032,0.08925572925289124,0.11719248870704538,2.7264111240841435,0.0385834419852827,1.2613520661678168,7.476225269592889,4.152692056192382,0.2219933403043241,0.5342255675453578,0.04838709677419355,0.42874123204330494,0.1510541945291474,0.004792746907190731,750.6539371329599,2077.088683094885,0.033306655991457976,-0.08852979568910652,0.01634601668637021,0.2360739854184526,Amy,REC_20260323_145407.csv
right,9,brick,10.464,1.0559999999999992,0.015151515151515152,44551.0,3.7250694656255057,52207.13991400027,3540.6746031746034,1.1230722473493955,0.30800214822771216,0.4701933404940924,0.18524367361986147,0.380358646190416,0.4870236958592623,3724.0,2712.5223880597014,-59.19999999999999,485.6194029850746,0.17902871700625622,25.0,-0.15384615384615385,24.846153846153847,0.8576754699126633,-0.7722913694077667,8247427.826080747,6745173.0,4243069.0,2125811.0,4344284.2869506935,1480252.3466451305,648980.5628028369,0.04239046104578544,0.036700983278217664,0.025151453457980952,0.09655054776355103,0.06871392491430019,0.10367064856745113,0.1343795222819538,0.09052542382207451,0.07472254166689594,0.11996324399275886,0.09471824979778694,0.11251299941124361,2.8791661665850294,0.031395370943791544,1.3887179356124164,9.726638932882715,5.465705326827022,0.2964019642846966,0.6275523131530724,0.07575757575757576,0.452710916789811,0.3123448410198269,0.002161182044670317,248.86944368459302,2137.051510145472,0.03330665599145745,-0.144049263937993,0.13507241685732665,0.16398330586224028,Amy,REC_20260323_145407.csv
right,10,brick,11.536,1.008000000000001,0.0,18884.0,1.262205037305592,34779.49237697411,531.25,0.1685080382335672,0.3087557603686636,0.4768229872594199,0.1824957398005814,0.40278195444387443,0.45308817286113107,3689.0,2649.890625,4.5,466.0859375,0.17588874540812416,0.0,-0.5873015873015873,-0.5873015873015873,1.2038858344438328,-0.06331685340239401,10415006.889768148,10082941.0,1843591.0,1846034.0,4493933.66266898,1339012.9912421836,675321.1861493948,0.04676490185326045,0.047749612307111736,0.02363894736221424,0.09319960139864263,0.08294564044506554,0.10645486547204189,0.11072390959532528,0.08673707051588214,0.07243223482101266,0.11248105759082037,0.09575866928469925,0.12111348935392381,3.3294502403883075,0.026054602267251918,1.0581025449329264,11.271823838703664,4.396906060453487,0.19851862748928636,0.5247552269499103,0.06349206349206349,0.45645121591072824,0.250070205096521,0.002795567355672149,14954.594310779543,2165.9415521969013,0.03330665599145717,-0.07890011686390735,0.23409441513892226,0.29391569397806006,Amy,REC_20260323_145407.csv
right,11,brick,12.56,1.0079999999999991,1.0,45091.0,3.7768849014494337,47155.23985730536,312.5,0.0991223754315101,0.2861104108898412,0.43004789513486263,0.19137607016078514,0.39006635576900767,0.4906243959013309,3967.0,2693.8125,-39.5,497.890625,0.18482749820189787,0.19047619047619047,0.0,0.19047619047619047,0.8459597813022868,-0.8371539237626693,8087677.368191253,6762278.0,4040262.0,1832595.0,4288355.789424647,1721308.9159647587,748139.1182695656,0.057724878773114316,0.05908215586645321,0.03155959258485882,0.08993410825734902,0.0816106354840955,0.0958794459525301,0.10482935430732465,0.0903227303310828,0.06356001020857985,0.11633720795341175,0.10105333982970233,0.10810654045149765,2.9747816368476956,0.024605540212548477,0.8629332503969332,11.226548802660425,4.144015923294911,0.21605661172917734,0.5281525515625478,0.047619047619047616,0.4593730637168708,0.209783059728195,0.0039552788546803296,14977.167834184578,1803.9585764494948,0.02771281292110155,-0.07172102566334533,0.3088042220014042,0.20250357782103778,Amy,REC_20260323_145407.csv
right,12,brick,13.584,1.040000000000001,0.0,44670.0,3.736488052408927,46448.35976651921,328.125,0.10407849420308561,0.297568710359408,0.47674418604651164,0.1672273400688403,0.4004099228052978,0.417640349412625,3784.0,2720.3939393939395,-17.30000000000001,438.20454545454544,0.16108128279103961,0.0,-0.6923076923076923,-0.6923076923076923,1.0476862074918158,-0.44371982319370673,8627784.860380039,7646811.0,3275459.0,2288301.0,4389470.308891977,1287226.7585157054,801724.1616562987,0.053952747485324096,0.05065554231227652,0.033111291813797024,0.0978635001615185,0.07297851247034186,0.10710904169405054,0.12181279449277622,0.0824746861528522,0.07180332616711038,0.10636828445078142,0.0847526539159881,0.11711761888318314,2.754858194562546,0.031433965661312006,0.968361289270812,9.231844099247173,4.2547986022141515,0.23568862578010152,0.5405852931503963,0.046153846153846156,0.44273999908850303,0.21139793901485007,0.0030553054292641233,15010.562314583683,122.03515118604142,0.01847520861406857,-0.08741222438496514,0.46868387035943987,0.21245630214013836,Amy,REC_20260323_145407.csv
right,13,brick,14.64,1.0079999999999991,1.0,45359.0,3.8026007103398274,47350.061816221525,296.875,0.09416625665993461,0.28915046059365407,0.4672466734902764,0.15566296889429201,0.41502916525418776,0.3750651325884887,3908.0,2673.34375,12.599999999999994,398.5,0.14906425707505816,0.031746031746031744,0.0,0.031746031746031744,1.4184956275756724,0.6603734001838628,8136556.261091912,6945537.0,3800803.0,1875356.0,4353903.197876561,1364175.4096359923,753295.9290700824,0.04222824879890587,0.03613218464703613,0.028095666709528094,0.10320642453855775,0.07256829579061802,0.12010356879843828,0.13107414637567652,0.07717979590166808,0.08301869147953757,0.1052637731305598,0.07848317299262393,0.12264603083684991,2.651945529506923,0.029372753261906533,1.143442573403227,9.268772139284392,4.336570349804911,0.24756363730663047,0.5535780079628775,0.047619047619047616,0.4572220129244977,0.1915515315293815,0.0053636786425768825,347.31973741767223,15.624999999998307,0.01847520861406907,-0.07118592522675014,0.22853519880787393,0.23682460217052462,Amy,REC_20260323_145407.csv
right,14,brick,15.664,1.008000000000001,0.0,50849.0,4.329390974549759,54875.264391162615,718.75,0.22798146349247325,0.284569656241923,0.4675626776944947,0.15698693723528004,0.40474534009383817,0.38786595343814273,3869.0,2807.359375,-32.0,423.7109375,0.15092864179528137,0.0,-0.3968253968253968,-0.3968253968253968,1.44745855161023,0.5910980422519292,8312087.285766193,7104362.0,3668856.0,2271196.0,4267401.921154168,1410469.1699586664,657922.4676963985,0.05696523089424559,0.04811572262635595,0.03331645062363987,0.09525187704192663,0.07012261299820227,0.1117709591419873,0.12334767436035865,0.07797029014142516,0.07948416828536603,0.10352254954889771,0.07901664709385488,0.12111581724373995,2.6301019002777446,0.03564254230707285,1.0973991736276703,7.165580713894365,5.016332913281648,0.30993886379675156,0.6342122988148812,0.047619047619047616,0.45307506345540577,0.2608837567078101,0.003982033792851702,3386.1202479140056,235.06841867493247,0.01847520861406857,-0.07748727213726347,0.718616522277425,0.1783472899050548,Amy,REC_20260323_145407.csv
right,15,brick,16.688,1.056000000000001,0.0,44345.0,3.7053028364037854,49970.93150022321,1506.9444444444446,0.47799012152528214,0.27581766675251096,0.48184393510172546,0.15952937577836526,0.40973693985011683,0.38934584671955413,3883.0,2732.4776119402986,33.900000000000006,420.2686567164179,0.1538049771679521,0.0,-0.696969696969697,-0.696969696969697,1.193166092199771,0.054963018236557915,8112601.829591664,7171557.0,3359758.0,1759291.0,4300561.902418678,1332963.4249119568,774111.5092687861,0.043582992855426154,0.04025104328257117,0.02771526579125609,0.09986016736218838,0.07307893989381459,0.11875942231641504,0.12109178701741354,0.07814241080207127,0.0777873669951277,0.10668793288033385,0.081386964976294,0.13165570582708822,2.9828871060988784,0.02934192079539333,1.2023488523651713,9.466879922226855,4.619982744658801,0.2988015387646068,0.6118474148670547,0.06060606060606061,0.4563901076452146,0.24362148141984802,0.003562819646052864,3499.2930714645595,614.206406437903,0.02771281292110264,0.38951469804645783,0.4429467652247635,0.09279163732443577,Amy,REC_20260323_145407.csv
right,16,brick,17.76,1.0239999999999974,1.0,16616.0,1.0445802068450953,36728.803778506044,2107.142857142857,0.6683680171953252,0.2746245864087554,0.4555866632730975,0.1746733085400389,0.40842403357330515,0.42767637107851525,3929.0,2705.4461538461537,-25.099999999999994,456.45384615384614,0.16871666268609187,0.984375,0.0,0.984375,0.9755997173225414,-0.5218859768120176,10893914.058738897,10334618.0,2522873.0,2346944.0,4395908.933553078,1220751.0406685085,697913.0361165268,0.047101572895697566,0.0481422088778191,0.027500085298031326,0.09377096909936652,0.08344422077405121,0.10939188190203238,0.11151864614964686,0.08355226494705836,0.07367475292003593,0.11085900804076108,0.09112104359298055,0.11992334550251914,2.7824115386685855,0.02424479289346203,1.3228508917141808,11.431756297722217,4.162290287517313,0.22552476497426394,0.5464584170663376,0.0625,0.42373944825494064,0.22135763192876537,0.003467430240266273,18180.10701288636,696.3145054049558,0.024440403706431642,0.1615680116383928,0.44643189744756495,0.21147330480387783,Amy,REC_20260323_145407.csv
right,17,brick,18.8,1.0399999999999991,1.0,43814.0,3.654350991176923,46705.70969378369,2340.277777777778,0.7423164560093091,0.2851074462768616,0.424287856071964,0.17430003408335337,0.4064747196504501,0.42880903942337517,4002.0,2711.712121212121,-41.400000000000006,455.9318181818182,0.16813429958708856,1.1538461538461537,0.0,1.1538461538461537,1.4172603457768826,0.465370690569741,7961743.4208727805,6872233.0,3755599.0,1434311.0,4222517.438824996,1570294.980410941,983586.5921526379,0.05165583635520442,0.05061657344962648,0.0297307415084957,0.0916730456549312,0.08213529415051432,0.10825096522939216,0.10594335458421104,0.0837333005537148,0.07379884116598594,0.10766428455688846,0.09056673352963855,0.12423102926139698,2.8057837484742207,0.029870213808324365,1.1049164375570275,9.177516157635056,4.773062102070995,0.30327578163382973,0.5977320003968637,0.06153846153846154,0.45843753605201504,0.26074895030056894,0.003456240888044307,15858.28177956237,429.92915506890847,0.01600000000000196,0.27218339495013455,0.3784658977766006,0.12069572261767124,Amy,REC_20260323_145407.csv
right,18,brick,19.856,1.1039999999999992,0.0,42665.0,3.544099258284899,46607.206577953155,2774.3055555555557,0.8799864218864064,0.2853178607467205,0.4629162462159435,0.17509689217693084,0.3898598310491371,0.44912781013004305,3964.0,2749.7428571428572,21.19999999999999,465.79285714285714,0.16939506031732837,0.0,-0.9710144927536232,-0.9710144927536232,0.8756519910727151,-0.6627289715019349,8073888.521521523,7070154.0,2934596.0,2566855.0,4246847.678569857,1185867.2344523228,681915.9847183416,0.04511590694194782,0.04338587504286115,0.02785195498799888,0.09500628630209577,0.0717521638386966,0.10751654700179758,0.12430253218482767,0.08468324310844651,0.07219895886368595,0.11728369405970428,0.09041364906848433,0.12048918859945344,3.136133665293199,0.029047467639486266,0.9467797983748336,10.291995387280986,4.2826277827529475,0.19134091215673008,0.5120998460494797,0.057971014492753624,0.4174157471503099,0.2389555561185782,0.0017724359535667812,15381.817220341682,338.58481686166573,0.04233202097703425,0.38205813166598956,0.33017448955470724,0.047791590329845625,Amy,REC_20260323_145407.csv
right,19,brick,20.976,0.9440000000000026,1.0,20679.0,1.4344433841647592,34962.81601930829,312.5,0.0991223754315101,0.3132944915254237,0.4629237288135593,0.17871791415532148,0.40352904174128484,0.44288736539000473,3776.0,2596.55,-26.30000000000001,445.175,0.17144865302035392,1.7118644067796611,0.0,1.7118644067796611,1.1430587337186864,-0.08296578383080577,10848772.562550152,10376156.0,2640159.0,1749518.0,4629755.001111716,1326390.4137288136,705567.9985940899,0.04062441829863986,0.043371653411899115,0.025591650459263253,0.0952225067878531,0.07909854743152772,0.11128869718151649,0.11334912351646094,0.08414370350400852,0.07454763692848844,0.11551866900310026,0.09457421065131295,0.12266918282592926,2.8324704929932576,0.029982120823841454,0.9357299073477201,8.90646482330951,4.173591333209326,0.2960788680382856,0.5250991248555078,0.05084745762711865,0.43431732694103586,0.20079722032004862,0.00323535297456536,13037.974165234922,1314.0744157832346,0.08053156730955291,0.37419445189794154,0.42736665132113677,0.1959927736632801,Amy,REC_20260323_145407.csv
right,20,brick,21.936,1.056000000000001,0.9848484848484849,19573.0,1.3283176952364923,37109.56506077645,257.8125,0.08177595973099584,0.31668437832093516,0.4782146652497343,0.17044488206597144,0.4011994808217339,0.42483824185591723,3764.0,2667.820895522388,-6.300000000000011,437.14925373134326,0.163860045651882,0.07692307692307693,-25.0,-24.923076923076923,1.3986114501201277,0.4726578158628083,11169261.540783482,10662041.0,1919338.0,2718350.0,4547164.351947373,1308562.973736628,785606.7953203429,0.04174126124513271,0.04259163943964553,0.028907264020051022,0.09466052007340106,0.07365841650628832,0.11161213802980799,0.13150651210670009,0.08402519804860584,0.07867676677259097,0.10710289576153605,0.08641968401736562,0.11909770397887481,2.5665756184456914,0.03677688154837257,1.0760895115055542,7.720576555569804,4.4904093331642425,0.3273577578140413,0.609029097097065,0.06060606060606061,0.470324649005811,0.2537282741596277,0.003739114244127089,13024.642643850155,1437.3711313064891,0.08210562303114856,0.2689198396596154,0.4305610243414683,0.24642180878860717,Amy,REC_20260323_145407.csv
right,21,brick,23.008,1.024000000000001,1.0,36759.0,2.9773919175883856,44185.642985023995,1117.1875,0.35436249216764865,0.29936788874841974,0.44374209860935526,0.17326945662158863,0.40559192548750567,0.4272014449330174,3955.0,2646.123076923077,-15.699999999999989,440.5692307692308,0.1664961220479308,0.59375,0.0,0.59375,1.5611843176009543,0.872320556838269,8950816.747672193,7944913.0,3017674.0,2808758.0,4650591.357862685,1097818.235447897,862454.3790506249,0.034267840323724694,0.03112826893335969,0.01822695612739683,0.09747206362864684,0.07562878638123699,0.11857696019721159,0.134001558157653,0.0842160955359946,0.08278584634705055,0.11143734229467783,0.08905336108559402,0.12320492098745334,2.6512681869693466,0.029896500093475185,1.0568655808268732,8.409493686033715,4.628008453221819,0.2930391140550387,0.5952505762467785,0.0625,0.4930566454064697,0.2685045237085176,0.004846833095881828,9618.976314210016,481.15106531758613,0.057688820407422944,0.2624214668822609,0.17514118128798292,0.10452306369874768,Amy,REC_20260323_145407.csv
right,22,brick,24.048,1.056000000000001,1.0,21703.0,1.5327008032086518,38220.01649659508,406.25,0.12885908806096313,0.2962121212121212,0.4727272727272727,0.1818621656541221,0.3943645710201501,0.4611523930344645,3960.0,2714.7014925373132,-23.099999999999994,476.34328358208955,0.1754680155043022,0.30303030303030304,0.0,0.30303030303030304,1.158572506850887,-0.2405913256125407,11209023.124679957,10658376.0,1607797.0,3075095.0,4341765.35142318,1029643.8140964514,865724.227109981,0.037100365615636254,0.040190230090441766,0.025532616763339473,0.09393297962998598,0.0718475960084669,0.1098001484454463,0.13507985815212908,0.0912829535145834,0.07859361684580918,0.10900843939852105,0.09057921213953872,0.11705198339610194,2.761672038309851,0.039800620254781593,1.1549421405292994,7.6393410309407255,4.37744738527518,0.1997770676983309,0.523844746045798,0.06060606060606061,0.43025462877455845,0.2286375391646845,0.0017484287900255597,9368.196482425701,459.3457686277823,0.018475208614068088,0.17587964941631537,0.22024312341366165,-0.060562006176947195,Amy,REC_20260323_145407.csv
right,23,brick,25.12,0.9599999999999973,0.016666666666666666,18650.0,1.2397516817818899,38251.195981302335,493.75,0.15661335318178599,0.3,0.4634760705289673,0.17547990076832296,0.401972590862015,0.4365469307045354,3970.0,2722.55737704918,10.699999999999989,458.6393442622951,0.1684590187624943,7.0,-0.7288135593220338,6.271186440677966,1.1711109608490446,-0.16990630413098096,11068043.337374588,10707245.0,2331061.0,1556484.0,4652831.976037098,1192666.5609126575,629699.9443769166,0.061682603145547826,0.06689106192345674,0.04107155760013488,0.0848647607119632,0.07751270502661434,0.10320576121775574,0.09600423902309786,0.0824923528986729,0.06949830198222501,0.10562633974806715,0.09298754786965005,0.11816276885281439,2.7556076002634917,0.01953580072067572,1.354279829213678,15.908070073684037,4.229489547828501,0.287977956728807,0.526133278740164,0.05,0.4279384499390216,0.19336763554851824,0.004965025881650807,9694.842494852608,387.67742074059663,0.04888080741286427,0.18681567844538904,0.2840319446044933,0.0059879190928510745,Amy,REC_20260323_145407.csv
right,24,brick,26.096,1.0399999999999991,0.0,19660.0,1.3366657376747917,37518.26591141973,731.25,0.23194635850973366,0.30052083333333335,0.47317708333333336,0.17954108942960076,0.39596095055176095,0.4534313022009999,3840.0,2666.3939393939395,-26.900000000000006,461.4166666666667,0.17304894818788286,0.0,-0.35384615384615387,-0.35384615384615387,1.2462662340234558,0.03967823904324863,11120577.93254132,10332174.0,1824043.0,3685960.0,4284747.935237671,1326594.447185999,792224.2226337777,0.034094396017774545,0.032008955461354,0.01939402893477742,0.09717471104999376,0.07524064961189213,0.11192053732768124,0.13776977190849066,0.09021377186303144,0.07961609710083985,0.11445488743166915,0.08932731756656931,0.11878487572592653,2.7203599176449753,0.02780790872865693,1.3553933002750975,10.42643928166768,4.009978287517786,0.22491999826396275,0.5457656178241699,0.06153846153846154,0.4862338443211544,0.18146326196261015,0.005551036780591815,1555.3540861595957,168.1703005884156,0.05143280405863079,0.18602845103378882,0.0980110332830606,0.17543435977667415,Amy,REC_20260323_145407.csv
right,25,brick,27.152,1.0079999999999991,0.0,48532.0,4.107064373060796,50253.1962864055,2788.1944444444443,0.8843918607944735,0.2959509856153436,0.4605753862546617,0.1894446269370631,0.4008402344357809,0.47261879088447634,3754.0,2711.296875,7.099999999999994,496.890625,0.18326677155189802,0.0,-1.2380952380952381,-1.2380952380952381,1.0417909973224482,-0.281761549464687,8659450.582454063,7360926.0,3814242.0,2500882.0,4458851.123568651,1259282.376460535,817899.0367588208,0.03870380295407525,0.043296854019351905,0.020412279640162977,0.09483469050212363,0.08557943327397521,0.10750159921163188,0.11830132028607158,0.09191288762872933,0.06962765742869821,0.11244618868968378,0.09753173930833377,0.11985154705716244,3.0935260119567847,0.025823797320401302,1.1536752155965366,11.17488272449299,4.8356706790862525,0.2537884909259215,0.5710693974530443,0.07936507936507936,0.4313341200940793,0.22259291878929505,0.002813399765906822,16968.33525521385,1261.7383515196295,0.040265783654778266,0.2604231882163819,-0.01027114420258205,0.14651056075139532,Amy,REC_20260323_145407.csv
right,26,brick,28.176,0.9760000000000026,0.9836065573770492,49241.0,4.175096121207397,51039.41282969466,2655.2083333333335,0.842209783249731,0.31121399176954734,0.4652777777777778,0.1984444483607376,0.3953380446339931,0.501961425301924,3888.0,2745.6290322580644,-1.5999999999999943,526.9112903225806,0.19190913416632888,2.933333333333333,-19.0,-16.066666666666666,0.8857657170972134,-0.7175884022792451,8475336.513507532,7506312.0,3684739.0,1381777.0,4616320.46357346,1291619.7843863615,498507.3144067742,0.032567893837125286,0.038207355973424034,0.020213947094795834,0.09355045262558084,0.08526749261289206,0.10674444424862979,0.11853444477732936,0.09404390556250697,0.07156829917346634,0.11838170934447129,0.10440054279823062,0.11651951195154764,2.3472985840788567,0.024031112315462205,1.1777562340367358,11.114909956918932,4.340890959303517,0.29148310103152164,0.550885833726316,0.04918032786885246,0.4376928291359619,0.2128397498967814,0.005921367597305976,16877.651031270118,1151.1097125297613,0.03199999999999826,0.3545660045006982,0.052165155010642075,0.18617006183890436,Amy,REC_20260323_145407.csv
right,27,brick,29.168,0.9600000000000009,1.0,22177.0,1.5781832413207662,37643.37850140447,414.0625,0.1313371474467509,0.32463914915168396,0.4634084578374272,0.18296817556173917,0.3968133852121529,0.46109375938452574,3949.0,2751.2622950819673,0.8000000000000114,483.0327868852459,0.17556769768869132,1.3333333333333333,0.0,1.3333333333333333,1.1209727191387395,-0.2840554301650777,11052951.237044612,10685254.0,2403143.0,1489289.0,4803935.084198271,1269333.3354281918,661483.4413727069,0.05165438219118497,0.05520565820755897,0.034154218331972803,0.08856143528752823,0.07591746262520332,0.10640123460468219,0.11177581676369118,0.08713734977089503,0.07072759448718026,0.10743205801211961,0.09583082579084413,0.11520196392713926,2.634251275935585,0.02080234362231163,1.1388853070187428,14.551005171280554,4.717301330171789,0.32877436740442145,0.5987087217917985,0.06666666666666667,0.4509105008981665,0.24413534368657064,0.003493307787130778,15424.811192793682,1333.9741652700386,0.024440403706429907,0.3439220332261648,0.0355420331280782,0.24260824745808438,Amy,REC_20260323_145407.csv
right,28,brick,30.144,1.024000000000001,0.0,19191.0,1.2916630721166027,38227.523553063176,2031.25,0.6442954403048157,0.3071663712332236,0.46214231451000254,0.1806478334628849,0.3972845236001339,0.45470644520887227,3949.0,2711.523076923077,-10.400000000000006,472.8076923076923,0.174369783658347,0.0,-3.328125,-3.328125,1.3381933714244214,0.2529807820436045,11102399.612869687,10712132.0,2570520.0,1380555.0,4559193.133185703,1234770.1220718203,561765.3831983185,0.037781774648366795,0.035773252614199225,0.019381670250611348,0.0990757394368195,0.07831533795936431,0.11026445540116539,0.1336234531827131,0.08759766012856811,0.07385573818858547,0.11519497982967279,0.0930501733343168,0.11608576502561717,2.8818153212146522,0.02556599728596558,1.1139296547328283,10.980472013674824,4.63127147679353,0.29410226702987347,0.6040554909772281,0.0625,0.4176396233721852,0.20345412040262512,0.003495094038001501,16554.852219213553,1156.6729628666094,0.03330665599145778,0.342979003356814,0.10930464275634075,0.11014500537517505,Amy,REC_20260323_145407.csv
right,29,brick,31.184,1.0079999999999991,0.9841269841269841,19870.0,1.3568161849396525,40449.373864127985,234.375,0.07434178157363258,0.30026178010471205,0.468848167539267,0.19389299894312892,0.3899797195006998,0.49718739013196095,3820.0,2735.078125,-11.199999999999989,513.78125,0.18784883887000486,2.629032258064516,-15.0,-12.370967741935484,0.7231004779069516,-0.9435232912710241,11294118.18166009,10776884.0,3094643.0,1356120.0,4540743.738956343,1292045.4487706935,543695.5570525291,0.04151503898997401,0.04253763318003942,0.023759604673084064,0.0917364106372647,0.07789425576280386,0.10746950784084093,0.12190008283584221,0.09486703419120797,0.07034191207975092,0.11395355480019423,0.09902596475192094,0.11499900025707675,2.7609108774576048,0.02646650366962616,1.435237765977479,10.63140254554907,4.317080178766322,0.26477044185533366,0.564998940266307,0.047619047619047616,0.42101883699638215,0.19971332758785357,0.00482632245294598,1565.2202187977493,989.6415827154711,0.03330665599145778,0.21708459237518823,0.01937515739775418,0.0897053502656524,Amy,REC_20260323_145407.csv
right,30,brick,32.208,1.0080000000000027,1.0,21938.0,1.5552501132431389,37935.15115298738,635.4166666666667,0.2015488300440706,0.34009360374414976,0.4924596983879355,0.17626977956778686,0.41358952026327944,0.42619498544213363,3846.0,2673.015625,-25.0,452.1796875,0.16916462562765602,2.9365079365079363,0.0,2.9365079365079363,1.4229788167094641,0.47340215610389524,11339250.123076482,10686476.0,1987755.0,3229033.0,4760593.136264033,1363311.0688576116,888096.2637720497,0.04083052264238074,0.0440104516785232,0.022195203217339966,0.0987707002273883,0.0835549736077581,0.11263612609821538,0.12346191391978863,0.08497541985000555,0.07461726865139444,0.10621196799027316,0.0912943597177813,0.11744109239915124,2.5380827797255705,0.02552492628288335,1.1766809183900386,10.341336401366467,4.63767754120639,0.27036768947282924,0.5858128309607946,0.06349206349206349,0.4989173110099006,0.20194119095805535,0.004678868613486094,1430.8315763918347,943.2165603642516,0.009237604307033732,0.22278248753233926,0.0903091291724723,0.08128977028414872,Amy,REC_20260323_145407.csv
right,31,brick,33.232,1.024000000000001,0.0,20387.0,1.4064246670155243,39412.53417378791,463.5416666666667,0.14703152355674,0.3187084052255361,0.4609317229479911,0.1793586236881064,0.40160041386218165,0.44660965849875256,4057.0,2795.4307692307693,10.099999999999994,482.2307692307692,0.1725067830470603,0.0,-1.5,-1.5,1.3916096025949694,0.4390221973515085,11648984.389551349,11151955.0,2122145.0,2613281.0,4626874.699759801,1375634.720595597,821347.8020994237,0.04980104896451902,0.055931932879479146,0.031810151731121665,0.08891432722629786,0.08163321464147537,0.10610171543672917,0.12238102838147967,0.08695508604701077,0.06901922367820013,0.1039278382855539,0.09240353764109563,0.11112089508703762,2.6289893555421533,0.0315272944588226,1.0491356813850874,8.940376007003444,4.54311634569536,0.29861582766718225,0.5957139525344783,0.0625,0.45107885285629024,0.22965100206648117,0.0036295428868402136,1076.2213217239641,201.20172097461582,0.009237604307033732,0.5096398430245892,0.3251867449808279,0.23140708882282582,Amy,REC_20260323_145407.csv
right,32,brick,34.272,0.9920000000000044,1.0,15261.0,0.9145618447313507,38419.83418756515,239.58333333333331,0.07599382116415775,0.29923019617581326,0.42264713185994535,0.1968119809330128,0.3971387763978441,0.49557482832063665,4027.0,2700.5873015873017,5.0,512.8253968253969,0.1898940265785808,0.9032258064516129,0.0,0.9032258064516129,0.959913975534271,-0.6337395939321477,11028960.280705793,10393261.0,3423288.0,1378111.0,4753176.897721887,1519209.7504651055,642626.069390035,0.04962471420090868,0.05354508425562929,0.0240512057929786,0.08915168364318167,0.08861682056225277,0.10024274555211389,0.10473324438540704,0.09160264962941629,0.06558244238466647,0.111974467634906,0.10520933130359653,0.11566561065494277,2.4455134870420094,0.03161608115036202,1.2570514038351561,8.848482056661771,4.303328452437028,0.2535805195005491,0.5667450200622046,0.06451612903225806,0.4641268547200753,0.25284026722130537,0.004371600382529536,3494.3718081127645,198.48693427705194,0.015999999999998064,0.5550259547507221,0.2689466588494937,0.2963512638357276,Amy,REC_20260323_145407.csv
right,33,brick,35.28,1.024000000000001,0.0,50341.0,4.280646083070954,52512.14298617035,3453.125,1.0953022485181867,0.3023975251353442,0.4614591389533385,0.18122509191334132,0.409724803165364,0.4423093025199036,3879.0,2690.6615384615384,7.800000000000011,469.9846153846154,0.1746725140514486,0.0,-0.84375,-0.84375,1.2355706493732146,0.11076443253069224,8967278.69634339,7696902.0,4081801.0,2123367.0,4561725.8257820895,1362263.275934284,652424.0409222185,0.04252886050327915,0.04344370557998319,0.02352295403475268,0.09474936103789174,0.08436586941730087,0.11308056926234898,0.11691720080277657,0.08865992349608047,0.0740852978678392,0.10370912500786196,0.09256516841726085,0.1223719645726244,2.669904294009097,0.025750723009884263,1.229601921845243,10.761609785229867,4.3653253950520305,0.269044250758038,0.5743191282993393,0.0625,0.4809606827079378,0.24573173873478718,0.003540241810209732,18947.842410153193,1794.1857895907672,0.01847520861406584,0.394501040483518,0.3763957824456897,0.3822991923176297,Amy,REC_20260323_145407.csv
right,34,brick,36.32,1.0720000000000027,0.0,47896.0,4.046037304201503,50218.99052151487,3058.531746031746,0.9701405823979228,0.29448654298406063,0.45884504834073686,0.1991114374092408,0.3849268258449712,0.5172708786195194,3827.0,2724.1617647058824,4.400000000000006,526.4485294117648,0.19325156686082606,0.0,-1.2388059701492538,-1.2388059701492538,0.7237013036513803,-1.0400130057622954,7933889.377587263,7060380.0,3188716.0,1711644.0,4318883.863727679,1286507.149856506,708625.6046111386,0.03721598117067851,0.04134569187499662,0.02315876983205843,0.09138267033032287,0.07900973316130704,0.10525633897097326,0.12579692619964047,0.0973855962168611,0.0679323915073714,0.11799096322128232,0.10172584119237973,0.11179909632212823,2.8800417440271606,0.02782104351389567,1.0969160094295012,10.885193911678444,4.7514889654615775,0.2598329062377046,0.568327415244125,0.05970149253731343,0.4418054418896044,0.29495624147507565,0.0010105628610489804,19585.826720701203,1752.570684876692,0.040265783654776566,0.4188485922135399,0.3683800758622399,0.35898314403611925,Amy,REC_20260323_145407.csv
right,35,brick,37.408,1.0079999999999956,1.0,47245.0,3.983570917680434,49320.64882987652,2848.9583333333335,0.9036656560172672,0.30781627719580984,0.46467902229384905,0.17179658651469776,0.39889512400779226,0.43068108927594084,3723.0,2686.953125,60.400000000000006,444.7890625,0.1655365917483209,2.2063492063492065,0.0,2.2063492063492065,1.3497177273991903,0.5587229788968964,8517379.656027375,7630928.0,3110525.0,2153910.0,4526371.219696552,1332308.088852274,667274.423926988,0.05276655133312011,0.05267350914430262,0.030663216352164686,0.094106358852092,0.07883580961242113,0.10495740412293199,0.11589567644578838,0.08223184950425959,0.06832204227604455,0.10853371325560433,0.08956473701043817,0.12144913209083244,3.4305439197379846,0.027273519822755325,1.1512491183430618,9.93356552006091,4.233268693820789,0.24229752284910477,0.5566354823567633,0.047619047619047616,0.47467931930682344,0.22108101979547473,0.006313022954357457,1632.3317677482112,306.7687001902363,0.03330665599146113,0.44112737318086587,0.2837478803928413,0.2743386156045648,Amy,REC_20260323_145407.csv
right,36,brick,38.432,1.0079999999999956,0.0,42699.0,3.5473617116515905,44982.648176824805,445.8333333333333,0.14141458894895442,0.2909560723514212,0.4790697674418605,0.17534495029501573,0.4023061735197557,0.43584951421642826,3870.0,2722.3125,14.699999999999989,460.0234375,0.1689825975158987,0.0,-0.5555555555555556,-0.5555555555555556,1.258265608009975,0.019200325515396077,8448488.704269066,7483099.0,3555235.0,1655444.0,4466011.690461957,1343237.125922564,596933.911981094,0.046249741717749156,0.047552632183116374,0.028307734692471935,0.09314805886539478,0.07848336662304567,0.11044149046077553,0.12030787244300571,0.08542828936795463,0.07268062538742337,0.1083063571871341,0.08991666092706109,0.11917717014486764,2.7980357899213444,0.0327315588096262,0.946212054724166,8.84233147542404,4.462168394863161,0.26127358454047667,0.5833597725073318,0.06349206349206349,0.4292668070959995,0.27489966157409335,0.0028278672207833963,2831.33437328291,1451.730219235647,0.036950417228140034,0.38585032912307543,0.1783536422436084,0.17834163109129358,Amy,REC_20260323_145407.csv
right,37,brick,39.456,1.0239999999999938,1.0,19272.0,1.2994353874901918,32447.48976423292,671.875,0.21311310717774673,0.2695390781563126,0.46818637274549096,0.1779563908702637,0.39919295148388373,0.44579041340435416,3992.0,2806.0461538461536,-13.699999999999989,482.82307692307694,0.17206526566260769,0.046875,0.0,0.046875,1.0897356516312777,-0.3716105083445682,9729894.258686936,9244834.0,2649933.0,1477072.0,4015285.155815356,1139628.4295815392,738365.1159980317,0.047342825656686384,0.05305028153492733,0.026349695437873168,0.09125898471980834,0.07882977965163136,0.1061773204015505,0.12037742676528157,0.08688929947969494,0.06987658517596619,0.10861710701616839,0.09106709139056873,0.12016360276984314,3.373287339096561,0.028527632071182227,0.8283311136112245,10.644018116483933,4.7540445426156595,0.23407151832571063,0.5675134285123409,0.078125,0.43703664412842613,0.231633335270894,0.0019300677016143625,15010.991384093635,1327.013968839579,0.009237604307032268,0.5398475218083187,0.48631866391921985,0.0856241618700049,Amy,REC_20260323_145407.csv
right,38,brick,40.496,1.0079999999999956,0.0,16793.0,1.0615641552540493,34325.00422432603,637.5,0.20220964588028062,0.28062935259221045,0.4689192674748517,0.17268174279783413,0.39444694614987535,0.4377819234834881,3877.0,2845.28125,25.400000000000006,475.5546875,0.16713802458017113,0.0,-2.492063492063492,-2.492063492063492,0.7780341262515164,-0.8698960785954615,10171461.422999991,9673661.0,2637716.0,1709200.0,4274898.270711012,1186427.1549577175,605112.340869468,0.058051159265889794,0.06212588825797098,0.03803446495842898,0.08625026084855407,0.07389976825665301,0.1031532471526321,0.11124778965172599,0.08348801194960954,0.06901778163406518,0.10750255357005568,0.08919373084822459,0.11803534360619007,2.946066272571555,0.019493353579741923,1.0025798280130163,15.552214308973621,4.735755265402123,0.24216052819103773,0.5823159606442782,0.047619047619047616,0.4680266176070218,0.2600070568000129,0.0019851152607307378,14295.049294540171,121.80078462086564,0.009237604307032268,0.4887682443039417,0.2984024725999626,0.48149069699875496,Amy,REC_20260323_145407.csv
right,39,brick,41.52,1.0399999999999991,0.9846153846153847,1809.0,-0.37621823434916085,32051.436332869704,1884.1145833333333,0.5976253218724796,0.2757988475641697,0.4677841801990571,0.16569296129177635,0.4060983451588614,0.40801190959498,3818.0,2756.8333333333335,0.30000000000001137,441.4469696969697,0.1601282762941671,1.234375,-2.0,-0.765625,1.216784255133456,-0.028203815508424324,9330674.64651067,9057909.0,1963320.0,1077566.0,4021968.0942444485,1150023.9598468607,673551.8732634493,0.05315167270309039,0.05497084379860511,0.030815988920093868,0.08969447818368681,0.07805398156646569,0.10888645844210804,0.11655885375733026,0.07952140961027969,0.07449258316799579,0.10301125028166924,0.08617155168149666,0.1246709278871784,2.9896799266240897,0.02432616092686768,1.0187277831994217,10.93911235789976,4.180884972402586,0.1954234511449077,0.5213888177640098,0.046153846153846156,0.4264201628644943,0.18707798137268675,0.003178006329509404,9448.298488793285,710.0181180087958,0.016000000000001343,0.0,0.0,0.0,Amy,REC_20260323_145407.csv
left,0,brick,0.32,1.0879999999999999,0.0,18420.0,1.2176821443013282,28837.091410196,2083.3333333333335,0.6608158362100675,0.25181046968756465,0.4744465135526588,0.1708887794995301,0.38566936117066497,0.44309659180778077,4833.0,3562.449275362319,30.5,592.7101449275362,0.16637714648365193,0.0,-3.176470588235294,-3.176470588235294,0.39280994119009904,-1.6459271337784132,9049916.688058846,8615643.0,1977981.0,1938886.0,3664613.6022182936,1145784.3250648065,1117731.6232370897,0.08587561887481744,0.06947670752494822,0.04449389566696093,0.08809685568876648,0.07978959273256878,0.0893905430639236,0.11805507528202792,0.08356894987571652,0.05891566216045792,0.09158330248282202,0.08731982962381361,0.10343396702317652,2.9493751449544923,0.01926590913293059,0.8982439999502455,17.71571481838733,4.188855108573112,0.1874438458765802,0.5200557054303394,0.058823529411764705,0.41783585874591406,0.18330815705042258,0.0008473032065274423,0.0,0.0,0.0,0.0,0.0,0.0,Amy,REC_20260323_145407.csv
left,1,brick,1.424,1.088,1.0,7575.0,0.17705547483744555,32311.79210443147,1515.625,0.480743520842824,0.22313564298297123,0.44979448032883146,0.12886434819298614,0.4180068483146979,0.3082828635761582,5109.0,3572.231884057971,-0.09999999999999432,444.6014492753623,0.12446041122344655,1.6029411764705883,0.0,1.6029411764705883,0.8048144516001827,-0.9666834367570654,9739833.289638741,9458637.0,1931555.0,1291369.0,4089848.0489195157,1118642.2786445417,1185350.6085661207,0.09993752129955696,0.0778265526362766,0.04962593920903589,0.09457409000178511,0.08681293714805018,0.099925350124146,0.09759659856217849,0.0633185115463884,0.05886791840444005,0.08442332970902777,0.06554583664659774,0.12154541471251683,2.4180491790122143,0.012404094625448184,0.8031597185232302,22.817824977911545,3.662395568375992,0.15100721329764943,0.471685133014999,0.08823529411764706,0.4159832781395452,0.12640722792722298,0.001527645816984516,7668.573041968108,401.43041223611306,0.0,0.11154369149328291,0.23969837404759997,0.43955671284903436,Amy,REC_20260323_145407.csv
left,2,brick,2.528,1.088,0.029411764705882353,18085.0,1.1855373831883358,31772.025651506705,916.6666666666666,0.29075896793242967,0.23599003735990037,0.4829804898298049,0.1540769287055782,0.3945136873257072,0.39054900667683057,4818.0,3565.1304347826085,-7.199999999999989,533.268115942029,0.14957885151670366,4.0,-0.803030303030303,3.1969696969696972,0.4371923912414025,-1.636148466197742,10671796.077321192,9596692.0,2780658.0,3749490.0,4071559.911711158,1232639.4953619966,1102998.385389712,0.09487223265608104,0.07416034537427742,0.043716513410896204,0.09259575436799272,0.08297356846101939,0.09032334121970455,0.10598632486971228,0.07579859671374098,0.05446067790271308,0.0972056229013716,0.0782783319918372,0.1096286901306536,2.7808766916029937,0.01739168050375862,1.0203175357279026,19.65220854186279,3.5511448866981943,0.10852691052354287,0.4337697578127771,0.058823529411764705,0.4463385333358941,0.14396420879095417,0.0013312137873390632,6166.93265192132,583.4030836275305,0.0,0.370733544703518,0.02821991582140729,0.40747952341072113,Amy,REC_20260323_145407.csv
left,3,brick,3.632,1.1039999999999996,0.9855072463768116,17946.0,1.1721997061892138,32456.688016493612,1375.0,0.4361384518986445,0.24661746617466174,0.5096350963509635,0.12448835282946441,0.4226437965937329,0.2945467408552686,4878.0,3535.5,-13.199999999999989,423.87857142857143,0.11989211467361659,1.6323529411764706,-20.0,-18.36764705882353,0.9863455056120355,-0.7030641336142085,10318287.05924118,9624792.0,1783726.0,3263242.0,4286996.402876247,1367455.2986737574,1187178.7330791475,0.0949350465684789,0.071717477826939,0.04517445501747581,0.0981231185728428,0.08528597692789462,0.1033234337434592,0.10964300866719195,0.0620845707820676,0.06419378952259733,0.08113218982968665,0.062403782047396814,0.12198315049396932,2.6563228388822684,0.030344486808530847,1.177374378037676,10.49490269645629,3.5984982410209336,0.14892432672832256,0.4778330687590702,0.08695652173913043,0.44637636382249885,0.1450712749326719,0.0023288435669817707,6028.22613488689,313.20810976593236,0.009237604307033765,0.38678841952966114,0.20916954744511382,0.3782127711158204,Amy,REC_20260323_145407.csv
left,4,brick,4.752,0.976,0.01639344262295082,39013.0,3.1936733848978913,43533.30405563079,1906.25,0.6046464901322117,0.2442021803766105,0.48245787908820614,0.1275867312379908,0.4205537712940222,0.30337792678764086,5045.0,3500.3387096774195,31.5,427.258064516129,0.12206192027499642,27.0,-0.65,26.35,0.9311344966850079,-0.7889802854951302,9048790.39608107,6838025.0,3841120.0,4513072.0,4576029.145058452,1305063.2631064497,1370580.4199504184,0.09636394634620613,0.07683588224181069,0.04913810184267882,0.09586169080411573,0.08790393556383944,0.10142336455919011,0.10199934568544058,0.06158390201869865,0.05852889812506624,0.08523138313803733,0.06600282921929214,0.11912672045562411,2.8255492369473263,0.017348324430245626,1.1319802564967023,18.119691195373505,4.3690836879981685,0.3160852545387788,0.5316254638151114,0.04918032786885246,0.43441900463831284,0.13109798767280362,0.00505995663724446,12123.111495541618,495.2391981920717,0.06974238309665065,0.09915160454470935,0.06130687898359922,0.4313083326474749,Amy,REC_20260323_145407.csv
left,5,brick,5.744,1.04,0.9846153846153847,12361.0,0.6362937634547016,35315.03012882758,1406.25,0.4460506894417955,0.2671331549701585,0.46820333401934555,0.14281973748669696,0.4062536952886126,0.35155307912986816,4859.0,3587.6969696969695,-13.099999999999994,493.6515151515151,0.13759565518522898,1.65625,-16.0,-14.34375,0.6786421232434159,-1.2516580473436472,10375364.85036189,10068280.0,1938886.0,1587027.0,4538476.750457592,1216495.6192042772,1142959.0319408835,0.10000506782438301,0.0763425511427944,0.04301738263763367,0.0923061979492204,0.08565467844654291,0.09605216480564895,0.10243340034123351,0.07023582276128859,0.05589810294440597,0.08922749463655254,0.0725839147254084,0.11624322178488776,2.452441326667631,0.011321858988128677,1.0513010143362662,27.044865591288385,4.575167735248921,0.2876599704027699,0.5841949053348627,0.046153846153846156,0.4246938671078884,0.17290137512257417,0.004409388995405035,14055.484208426735,298.1060004427956,0.06399999999999977,0.1444246475269321,0.09315964311176486,0.43440250711634903,Amy,REC_20260323_145407.csv
left,6,brick,6.8,1.04,1.0,42340.0,3.5129140422797573,44905.59569808645,3368.3035714285716,1.0683976037582055,0.266498935552545,0.45384168763305593,0.13068337774324454,0.4234805265002597,0.3085935941922902,5167.0,3588.0151515151515,-77.5,448.8636363636364,0.1251008196479019,1.6923076923076923,0.0,1.6923076923076923,1.0720525853453273,-0.35442719539149925,8336293.866422956,7068932.0,3386636.0,2838079.0,4446341.778035912,1227966.2071135514,1097296.2486157436,0.09779189135548058,0.07566013116055556,0.04634536694129024,0.09583672917836739,0.08758957640968038,0.10161775946015565,0.10796886942641537,0.06638683495981994,0.06277633029150075,0.07930441832869528,0.06429654278342462,0.11442554970461427,2.621497219965687,0.01338274417116641,1.041061907760589,22.100230791972336,4.458126095929386,0.2724912113175125,0.5694749410635198,0.046153846153846156,0.43146911046485287,0.17339374267981345,0.004216931555492846,16432.378981754286,1019.5795590080787,0.036950417228135926,0.2821537300489789,0.0597910512187036,0.34803557101656085,Amy,REC_20260323_145407.csv
left,7,brick,7.856,1.040000000000001,0.0,20378.0,1.4055610764184587,31971.31192178388,2437.5,0.7731545283657789,0.2666279969064192,0.45843000773395204,0.12227910817506195,0.4272708505367465,0.28618640382645905,5172.0,3669.6969696969695,-66.30000000000001,429.4848484848485,0.11703550784475641,0.0,-3.353846153846154,-3.353846153846154,1.1333403523868328,-0.3368619152240031,10423608.134825628,9711535.0,2593733.0,2758667.0,4398362.417493123,1398696.2001009441,1013480.9198921925,0.09884805945499588,0.07978943022295625,0.05190751445086706,0.0951362510322048,0.08726259289843105,0.10237819983484724,0.10426094137076797,0.06242774566473989,0.06270437654830718,0.07941783649876136,0.05985136251032205,0.11601568951279935,2.5203611321078454,0.013375750799670662,1.175001023946984,22.986233512472324,5.071066122596623,0.2855205244078135,0.6029854074160779,0.07692307692307693,0.4405064289745469,0.30438016936512063,0.002664102582042048,15520.643103084785,981.4552178814029,0.0,0.2687254570698644,-0.0782985093972593,0.23413308988340686,Amy,REC_20260323_145407.csv
left,8,brick,8.912,1.0239999999999991,0.015625,6786.0,0.10134736582803998,33886.018606499056,937.5,0.2973671262945303,0.2306949806949807,0.43474903474903476,0.11889015388945032,0.42115990602040765,0.2822921939858424,5180.0,3607.9846153846156,2.9000000000000057,411.2,0.11396944384037114,31.0,-0.8095238095238095,30.19047619047619,0.991883317169042,-0.6020833083655854,10340867.725166442,9691987.0,2855184.0,2201558.0,4246091.549881437,1343563.514260041,1059423.4706435378,0.10624725501984914,0.07906395643849752,0.05311296739283384,0.0946533116719754,0.08535342552202592,0.10373573143327405,0.09745479044341823,0.059291571258618704,0.05835348095463481,0.08401451481543074,0.05959858263083161,0.11912041241861,2.799299457395482,0.009488476263542241,0.8601988976132952,31.421312975948446,3.9206911189580884,0.1394610307150272,0.4629846122716471,0.0625,0.49124038924016117,0.1653850091767704,0.004443482000523623,17940.45161081515,1226.4584033885317,0.009237604307034254,0.4568985305505224,-0.013135039028067858,0.25294837309245943,Amy,REC_20260323_145407.csv
left,9,brick,9.952,1.008000000000001,1.0,45120.0,3.7796675822622,47932.520171591226,1687.5,0.5352608273301546,0.23198594024604569,0.47256395235305604,0.13243791374889985,0.41683779980186825,0.31772049898489035,5121.0,3674.953125,21.0,468.4765625,0.12747824164423865,0.6825396825396826,0.0,0.6825396825396826,0.5935717723322994,-1.3546053060965901,8048968.0101544075,7034724.0,2463008.0,3038443.0,4535086.1473793,1223737.3180494714,1139392.073735843,0.09905313418113326,0.07648481910908728,0.051339940560466334,0.09411259497357534,0.08575364481689818,0.10317733644561793,0.09852166481715328,0.06473296853276189,0.0573094044566895,0.08452913940228829,0.06770494521613796,0.11728040748819075,2.35473787479258,0.011494025714748656,1.2183112540034102,26.7453346001987,4.763169643924848,0.26390944989362136,0.5758601862936956,0.047619047619047616,0.44754318567340867,0.1541422866929577,0.0037346776101391706,19435.382613505022,749.9999999999997,0.015999999999999667,0.5559116119523192,-0.08141362708701229,0.15224459822783462,Amy,REC_20260323_145407.csv
left,10,brick,10.976,1.0239999999999991,1.0,1158.0,-0.4386846208702293,30309.746996634596,1484.375,0.47083128329967305,0.26840761829962695,0.4657372864716277,0.12078462469836886,0.4251954740405358,0.2840684627954793,5093.0,3608.5846153846155,-6.099999999999994,416.18461538461537,0.11533181558505784,2.75,0.0,2.75,1.1003041007293057,-0.35779725705776766,7357771.242889045,7252192.0,1116661.0,543670.0,4538373.639156172,1408970.2022508592,1179968.558595174,0.09893501820445262,0.07216978316663682,0.04935239898020958,0.09625337869524808,0.082597907553782,0.10816514465505334,0.1062125359186214,0.06129400830498214,0.06600925996981556,0.07878648351367253,0.05949061639338671,0.12073346464413919,2.504534371004655,0.01922692023400656,1.1931910798150847,15.523394368156655,4.206425986520996,0.20153956869137976,0.5083188410038061,0.046875,0.47760728367877225,0.17801176285444462,0.004324672480804637,23922.887869151582,387.90721211177936,0.009237604307032347,0.49885730601405015,0.14152311858123126,0.10150975452809591,Amy,REC_20260323_145407.csv
left,11,brick,12.016,1.0079999999999991,0.0,21674.0,1.5299181223958853,35212.83842577874,2296.875,0.7285494594215993,0.26053130929791274,0.47058823529411764,0.139722700218424,0.41104907888582304,0.33991731740905173,5270.0,3641.140625,-39.900000000000006,487.75,0.13395527672046448,0.0,-0.9206349206349206,-0.9206349206349206,0.8606460350000765,-0.8612117075878505,11314345.707064947,10156245.0,3503923.0,3547905.0,4623037.517488497,1215199.9744587052,1142876.783260636,0.097153622019199,0.07438431466787966,0.04677019992876545,0.09230881463140414,0.08301399372621045,0.09984422807070244,0.10519540150965744,0.07090841211330584,0.06149772778962636,0.08465324653589835,0.06881428810511817,0.11545575090223273,2.8292653088065274,0.0161249407272474,1.0085573612569154,20.33585272171951,4.661391109333431,0.2858448061239026,0.5775124758440165,0.047619047619047616,0.4194822038832661,0.2167479803312716,0.0038009544966757344,21997.267315131063,422.83840614155736,0.009237604307032844,0.3201851985925164,0.05696097869463439,0.049459433725613726,Amy,REC_20260323_145407.csv
left,12,brick,13.04,1.040000000000001,0.9846153846153847,46594.0,3.921104531159366,50841.18174275653,2720.4861111111113,0.8629153461176464,0.2704558458897578,0.45317566278847987,0.1408194084238863,0.41485013623978206,0.33944645577361265,5243.0,3692.242424242424,11.699999999999989,499.49242424242425,0.13528158957355307,2.0625,-5.0,-2.9375,0.801277478153619,-0.9716400969972696,8916086.490914386,7241196.0,4663345.0,2305405.0,4446717.123861137,1390310.424821176,1281750.1601270468,0.09599569941892913,0.07230967466596633,0.04376497816880602,0.09392748104133154,0.08019680903450314,0.10451068579495093,0.1049210465841568,0.07414398739371655,0.06390548570303012,0.08114063884967664,0.06667542103016973,0.11850809231476314,2.6164239714178588,0.0174288375435896,0.9764508995699762,16.891782121307767,4.649591808586945,0.3002327381931378,0.5902655083337246,0.046153846153846156,0.46362932662986933,0.18859082001004063,0.0025556175867544367,22753.544602984388,628.1684092753484,0.0160000000000005,0.1879262390654058,0.11160114674476782,-0.06132331402829469,Amy,REC_20260323_145407.csv
left,13,brick,14.096,1.0239999999999991,0.0,20713.0,1.4377058375314509,34099.100545322304,1630.2083333333333,0.5170883918343777,0.2678983833718245,0.45111624326404925,0.13848341752227103,0.4143868133537581,0.3341887653262687,5196.0,3645.646153846154,-8.800000000000011,484.1923076923077,0.13281385171774973,0.0,-1.515625,-1.515625,0.9180795145190345,-0.7247622715429127,10836974.888717791,9863030.0,2492330.0,3734830.0,4360787.072855779,1559406.6200264378,1150854.4231275476,0.09373879063329493,0.07303548595374039,0.04228014871268995,0.09527908949347377,0.0814248397456186,0.10175256470310211,0.11189743719589647,0.07172306692493047,0.06289483345782323,0.08418049770643168,0.06676035059734056,0.11503289487565779,3.040455622612632,0.018941957475890947,1.1632591970593429,16.637643160707025,4.780652914183167,0.3035317648912625,0.5986626651060077,0.046875,0.46325381307480634,0.2083570992393545,0.0039322182443092945,14672.855220894578,549.6357052050139,0.0160000000000005,0.2634177116476463,0.30494875636106805,0.16359799709566528,Amy,REC_20260323_145407.csv
left,14,brick,15.136,1.0079999999999991,0.031746031746031744,19497.0,1.3210251524168284,31501.61038740718,1135.4166666666665,0.3601446307344867,0.2541359378114411,0.46481961331472993,0.13505250100459493,0.41562276150042804,0.3249400983645719,5017.0,3577.3125,-40.599999999999994,463.8203125,0.1296560791096668,15.5,-0.7868852459016393,14.71311475409836,0.8755689660293106,-0.8658292066534576,10292891.959625438,9628457.0,1872912.0,3119077.0,4334582.262968103,1479234.0479396537,1061975.8129206174,0.10080454950469102,0.07478117301745374,0.04085643901671995,0.09643237765780877,0.0847921798836417,0.10045949298530671,0.10534269790520118,0.07057497772419938,0.05915753795621713,0.08204046333665287,0.06447752328039555,0.120280587731712,2.711705816657584,0.010891655212182057,1.1289471975960585,28.547048812585036,5.058343225411247,0.32278128739333833,0.6439719725561216,0.031746031746031744,0.4522356274075687,0.264915210272593,0.004703082026215173,15305.512220547645,810.9633746179343,0.0160000000000005,0.28191669722486773,0.17345931275914886,0.039247455865933166,Amy,REC_20260323_145407.csv
left,15,brick,16.16,1.056000000000001,0.0,19937.0,1.363245137162251,34821.83648229943,1203.125,0.3816211454113139,0.24292219362502473,0.43931894674321914,0.14057733216800514,0.40693590145281244,0.3454532560681693,5051.0,3620.3582089552237,23.5,490.73880597014926,0.13554979304430997,0.0,-0.22727272727272727,-0.22727272727272727,0.7494204847820362,-1.1301629572359189,10579247.091470877,9867917.0,2768441.0,2623055.0,4267806.942824343,1311368.6777043059,957299.3465354183,0.1051021586055639,0.07953777147474482,0.042174436437393846,0.0922189607691166,0.0828606058607213,0.09617255652116555,0.10198545538497056,0.07070711234973039,0.0561460068270642,0.08831071387345196,0.06987021981827476,0.11491400207780215,2.6040257960678788,0.012140317963399778,1.0162887244179672,26.6440961982216,4.741411370330963,0.2817161690814634,0.5818951448739974,0.07575757575757576,0.42554337591771835,0.2530169160408208,0.0018860309264038253,615.6882327932132,268.2670887432507,0.024440403706431923,0.1250634126041331,0.2845018315908175,-0.025869748868876708,Amy,REC_20260323_145407.csv
left,16,brick,17.232,1.024000000000001,0.984375,44555.0,3.7254532836686463,47177.711654975385,3441.40625,1.0915851594395052,0.26606405973668695,0.4729809392808017,0.12824653880079942,0.4181350219241242,0.30671082802527455,5089.0,3610.353846153846,-23.900000000000006,443.61538461538464,0.12287310427701527,2.3333333333333335,-39.0,-36.666666666666664,1.129920325518894,-0.2543278219381344,8761891.638270186,7238753.0,3821572.0,3125186.0,4500443.708555507,1445842.8995500328,909834.6143746801,0.10292619943495844,0.07619964802086308,0.04198182151333984,0.09831978966476758,0.08543377380440016,0.09897602195395296,0.1030114244075799,0.06497978037524556,0.05920578848014045,0.08469657779122439,0.06326675842555386,0.12100241612797383,2.5169428484231413,0.018250617260255682,1.0024709755115855,15.907811547515553,4.431465757773682,0.2545512701070821,0.5529286768784788,0.046875,0.4480806128013972,0.23786838258127188,0.005322691916600224,14341.913447421628,1312.25476000573,0.024440403706431735,-0.0010591700989909388,0.4765404795545433,-0.017149450263393255,Amy,REC_20260323_145407.csv
left,17,brick,18.272,1.0400000000000027,1.0,19497.0,1.3210251524168284,34106.76487150313,1203.125,0.3816211454113139,0.2940130409010077,0.4769808338273069,0.13149579917467882,0.42212674999045746,0.31150785676947557,5061.0,3572.530303030303,54.80000000000001,448.52272727272725,0.12554763409348269,2.6307692307692307,0.0,2.6307692307692307,1.1750888778084012,-0.18372042630777896,10360766.944360346,9993755.0,1665218.0,2167349.0,4418382.017101718,1297035.6782990287,924131.5681211536,0.09757535402715162,0.07614075415523332,0.04652504166896394,0.09610792791799379,0.08657814044031266,0.10142204616878793,0.10626540055219329,0.06775606797660601,0.061877881308129795,0.08028856552736155,0.06373973119807284,0.11572308905919326,2.45238116264834,0.010660156005374042,1.363043317095541,27.754431979306748,4.087899282790107,0.2419431299687043,0.5405544433837698,0.046153846153846156,0.44907438450965037,0.22223449940889045,0.005780835748921694,14341.913447421628,1292.2722822095918,0.015999999999999695,0.20784923546000134,0.4316315074232423,0.1219226653470305,Amy,REC_20260323_145407.csv
left,18,brick,19.328,1.0719999999999992,0.0,41402.0,3.422908711163379,44353.085811474266,4204.861111111111,1.3337466294173195,0.27201346045989905,0.43858665171060013,0.1326735419862276,0.42304020756502725,0.3136192248717796,5349.0,3604.823529411765,0.8000000000000114,457.95588235294116,0.1270397506608792,0.0,-2.208955223880597,-2.208955223880597,1.1373307343076762,-0.27649269162830237,8141937.827833187,6906442.0,3414736.0,2632829.0,4391898.973750888,1171893.5882151504,1141086.3853703765,0.09732466303319082,0.07815508632224796,0.042345223719852484,0.09663522730981365,0.08737067980810025,0.10070656962892854,0.10183659149505564,0.06656522306713228,0.06017264449593681,0.08424986129695505,0.06610831891909533,0.11852991090369112,2.892751987392285,0.017077256066874102,1.13588442102478,17.964512728101372,4.499921028134017,0.2134929907893382,0.5433519716335292,0.07462686567164178,0.42340225989745084,0.24621857251526924,0.0018935365835690509,13648.40526703883,1560.0847177746568,0.024440403706429782,0.4326185399992533,0.4172816554657115,0.17247589355156392,Amy,REC_20260323_145407.csv
left,19,brick,20.416,1.0079999999999991,0.015873015873015872,44565.0,3.7264128287764966,46050.62264508483,1145.8333333333333,0.36344870991553707,0.2566473988439306,0.4369942196531792,0.14778776584082437,0.40811225608419205,0.36212528204552297,5190.0,3563.28125,31.19999999999999,507.421875,0.14240298180223634,13.0,-3.1451612903225805,9.85483870967742,0.6714275365409675,-1.2083019858620683,8425151.948542234,7243640.0,3258355.0,2809980.0,4495090.270390371,1351496.6105818301,981051.0357100713,0.09601403201052401,0.07824599868449901,0.04357377768033326,0.09037053277789958,0.08470072352554264,0.09737338303003727,0.10136373602280202,0.07313746985310239,0.05742161806621355,0.0901381276035957,0.07465029598772199,0.11301030475772857,2.7682028620769046,0.01166964315494945,0.9377361693344232,28.860870048180036,4.151474175427102,0.147039053484015,0.47699264537820296,0.06349206349206349,0.4395827355508506,0.1786444664858147,0.0015503753621869585,13651.851022236262,1749.8263228595931,0.03199999999999981,0.15973366797782312,0.441853528127674,0.2587433257559231,Amy,REC_20260323_145407.csv
left,20,brick,21.44,1.0239999999999974,1.0,27106.0,2.0511430249802847,39104.67010473301,3410.15625,1.0816729218963541,0.2538849646821393,0.48496468213925326,0.12343762906542503,0.43452932149083334,0.28407203601782427,4955.0,3538.753846153846,87.1,418.15384615384613,0.11816415165703702,1.40625,0.0,1.40625,1.114638264644763,-0.3878629331286043,9504481.304931585,7518529.0,4439768.0,3754377.0,4803488.753280903,1446421.0703820519,1181007.1338188427,0.10213504101835065,0.08354092488011859,0.04598750537999035,0.09677896173794338,0.09233585051669645,0.10276542372586613,0.09608336702620218,0.0606775961985749,0.059108160630208816,0.0797108064985936,0.06276003286685013,0.11811632952060482,2.57436688458711,0.010571320001386884,1.3208497295012214,27.89522379466422,4.106729070562197,0.20215299283202676,0.5188875600665457,0.0625,0.46138427168011864,0.17264325406170472,0.0043603171178898965,9302.301381916193,1587.2599573075347,0.03330665599145824,0.0960435069093218,0.3825601657716954,0.3765223770746948,Amy,REC_20260323_145407.csv
left,21,brick,22.48,1.0079999999999991,1.0,44335.0,3.7043432912959346,48095.38279294594,3046.875,0.9664431604572236,0.26290706910246225,0.48312152501985706,0.12882930117594188,0.4298246000519899,0.29972528598938886,5036.0,3546.359375,35.400000000000006,436.640625,0.12312362590156278,0.9206349206349206,0.0,0.9206349206349206,1.1783894767092455,-0.25081615594456785,8579151.030209282,7347487.0,3299894.0,2954144.0,4655210.761969195,1210971.8104764556,1120344.6773790119,0.09687751963941894,0.0753854084514489,0.04274630232588879,0.09958716465389242,0.08926848396462922,0.10249507637674199,0.10540739402644438,0.06756488828772465,0.06308846660527742,0.07673802799525922,0.06126441288821723,0.11957685478505686,2.467569104870074,0.01788602054438568,1.0285602368273765,16.220042000344556,4.495582952548205,0.2667311837129132,0.5865235201473923,0.047619047619047616,0.44413004204954026,0.23037540640794454,0.004788484545585162,10014.223401409277,1216.079147365703,0.0092376043070324,0.07645614987253971,0.3637926922896922,0.2934870863650944,Amy,REC_20260323_145407.csv
left,22,brick,23.504,1.0239999999999974,0.0,48824.0,4.13508309021003,52662.57139563164,3923.6111111111113,1.2445364915289603,0.2541446872645064,0.4366993217784476,0.13577694609502214,0.4160905037553602,0.32631589730959487,5308.0,3609.2,-36.599999999999994,469.84615384615387,0.13018013793808986,0.0,-1.125,-1.125,0.9277188372162328,-0.7885461319525189,9587796.364867581,8085412.0,4610810.0,2300518.0,4993561.589312546,1503702.898831604,899680.6774539548,0.10065303199515768,0.07952326959309117,0.04575060315944723,0.09462143752291154,0.08711924227828029,0.09720031713825353,0.10423788779102977,0.06985993060469399,0.05762623722282373,0.08451052438639717,0.06591701549032813,0.11298050281758583,2.484491454621465,0.012070887829006767,1.073307386914046,25.95263359990043,4.65249752124725,0.3068857564305619,0.5998394202915255,0.0625,0.4485263967618204,0.2626949869762833,0.00408617855805368,11464.881784533723,440.50640735529123,0.0092376043070324,0.25810634384550946,0.34825959070371637,0.5097956245094754,Amy,REC_20260323_145407.csv
left,23,brick,24.544,1.024000000000001,1.0,48671.0,4.120402050059917,50606.15838018136,914.0625,0.2899329481371671,0.2771513353115727,0.45440158259149355,0.1403610800989935,0.4137308921726359,0.3392569487905969,5055.0,3624.1692307692306,-15.099999999999994,487.9153846153846,0.1346282012641624,1.578125,0.0,1.578125,0.8643694020871966,-0.8069060164466197,9046473.190130891,7850840.0,3605326.0,2684141.0,4753401.142901618,1340020.7276356078,857106.5362289222,0.094523519448489,0.07608321907195707,0.04234392179003358,0.09594984102457434,0.08464539353315986,0.09831006363262032,0.10941075089887975,0.07062414303967805,0.05874237491032428,0.08965025406353073,0.06973693705931545,0.1099795815274376,2.359217885270752,0.014364251296008618,1.2563070498946236,22.071590169990397,4.449941622277323,0.2734926617987094,0.559107978677394,0.0625,0.45302188852283837,0.2191542860269652,0.0029745612694605014,2548.7064039102174,1547.844641823122,0.00923760430703344,0.10366822994891359,0.20038203464982135,0.18525535494980613,Amy,REC_20260323_145407.csv
left,24,brick,25.584,1.024000000000001,0.984375,19913.0,1.3609422289034099,36191.6876782501,3303.5714285714284,1.0478651117045354,0.2684159378036929,0.45714285714285713,0.13709322920000852,0.4187141241491155,0.32741486683428683,5145.0,3604.846153846154,-6.800000000000011,473.1,0.13123999743934447,0.047619047619047616,-16.0,-15.952380952380953,0.9630244701651235,-0.6039249088679925,11074026.795343282,10323622.0,2585181.0,3061656.0,4651113.762828923,1486802.6063234382,1046755.0620956328,0.09780423788489855,0.07680686255681454,0.04288244457247722,0.09930222136867038,0.08923884514435695,0.09848707935898257,0.10492286025222457,0.06811770479909524,0.05487911572029106,0.08600815142009688,0.0689755244009133,0.11257495252117876,2.421609344191941,0.009392261821085365,1.1262253616162041,32.836272008284915,4.372782343728031,0.25213356597313824,0.552445356366025,0.046875,0.46733735391649844,0.19321874064394193,0.004823839711740905,16647.78210453272,1589.107976732402,0.0,0.17090967565051393,0.13699557384884978,0.04966070643571285,Amy,REC_20260323_145407.csv
left,25,brick,26.624,1.0080000000000027,0.0,24876.0,1.8371644659296198,35624.01712328356,2857.638888888889,0.9064190553348092,0.26630748508755053,0.44390994804695016,0.13800756708579817,0.41346347089817637,0.33378418360854895,5197.0,3576.34375,-57.80000000000001,473.078125,0.13227982489099377,0.0,-2.3174603174603177,-2.3174603174603177,0.9336652987652425,-0.642119874347066,10959074.732855553,10549642.0,2113593.0,2083050.0,4548342.214687948,1309991.114185089,1192080.6884486037,0.09480265284901654,0.07248149733928681,0.04346705346766513,0.0949817813234536,0.08311561213879398,0.0993027096458499,0.1127373452286291,0.07082565119753939,0.0635818704507921,0.08350008301075644,0.06718191588825878,0.11402182745995823,2.648825622681797,0.017857810094002186,0.9557557833030751,17.459941024778463,4.730716676759253,0.29683650751523527,0.5701156142722087,0.047619047619047616,0.4357137104267208,0.22027834178634553,0.003078561694922875,15372.355913565538,1270.5706020732484,0.009237604307032446,0.11061860831161653,0.3014567586192471,0.2384086516657821,Amy,REC_20260323_145407.csv
left,26,brick,27.648,1.0079999999999991,0.06349206349206349,21971.0,1.5584166120990457,38052.49838052687,1765.625,0.5600414211880321,0.24613275895829254,0.47150969257881337,0.14583767090013186,0.4046385939343466,0.36041463440754806,5107.0,3602.25,-21.30000000000001,506.5703125,0.14062608439169963,2.5,-1.7118644067796611,0.7881355932203389,0.6011626730143872,-1.3363193165897325,11226652.769319491,10775662.0,2287079.0,2166128.0,4709892.036455846,1342650.9671205794,847025.2621319896,0.09606409188701506,0.07176070511485877,0.04255153029356652,0.09588191408147685,0.0845825525713096,0.09553490873759456,0.10689499618294122,0.07222048719550281,0.05687851342910681,0.09158772295093344,0.07361718370462905,0.1124253938510653,2.7138426057064744,0.015383292183129714,1.0393530884515836,21.799486842119556,4.526448347613051,0.21724153885327568,0.5411709944946773,0.047619047619047616,0.4111448701569772,0.25074531213110035,0.002681676914493057,2493.5168604470346,791.2679045504068,0.009237604307033489,0.19356293543055567,0.21928791997156383,0.23002861804962071,Amy,REC_20260323_145407.csv
left,27,brick,28.672,0.9600000000000009,1.0,48882.0,4.140648451835563,51506.83143040348,2718.75,0.862364666254138,0.288102261553589,0.4576204523107178,0.1266594888335405,0.4220935551992311,0.30007444386037063,5085.0,3547.655737704918,3.0999999999999943,427.95081967213116,0.12062918482304177,5.333333333333333,0.0,5.333333333333333,1.1476763034461395,-0.1675363380734498,8696924.4284229,7345043.0,3639535.0,2905275.0,4747430.375839452,1571304.1288137545,975362.2680213525,0.09786189910677567,0.07314458404765095,0.04470742628473201,0.09917886205159722,0.08585212123452568,0.10231184758348852,0.10608252043603027,0.06388425513037933,0.0616061402819687,0.08418396817108503,0.06277523370316117,0.11841114196860546,2.440084018882949,0.011079158607631,1.1790119887775532,26.09319438053907,4.44510780253239,0.31193717322983694,0.5479631066247016,0.05,0.43806733919966934,0.198028442557457,0.009201171582445752,14770.065346278374,594.450968346425,0.027712812921101893,0.20262111732729374,0.24407210914022065,0.2708139938347497,Amy,REC_20260323_145407.csv
left,28,brick,29.648,0.9920000000000009,0.0,19037.0,1.2768860774557047,38167.58134857382,1671.875,0.5303047085585791,0.2576785714285714,0.40214285714285714,0.1420859541120408,0.40934966054322003,0.34710167811887455,5600.0,3560.777777777778,44.69999999999999,485.015873015873,0.13621065488634995,0.0,-4.032258064516129,-4.032258064516129,0.9744411705069597,-0.6146674525563154,11296601.338784024,10721906.0,2619390.0,2406809.0,4789846.931338228,1603903.978031665,915906.7807553302,0.10053091664474946,0.07560324345046784,0.04476460912320743,0.0947403144488675,0.08825430506087041,0.09533319365752979,0.09915793321416312,0.06938024062871942,0.05541860392548445,0.08957379563052481,0.07270571348332137,0.11453713073209437,2.6725279186907662,0.010971945211699002,0.9624095022305178,28.241144372455473,4.375712242065312,0.2420961731658825,0.5540799019862357,0.06451612903225806,0.45109975380314143,0.23724926968350818,0.0033773242934319585,16449.59119046225,579.2500314702908,0.02444040370643021,0.08084847020504958,0.1699818591725959,0.13636110995543588,Amy,REC_20260323_145407.csv
left,29,brick,30.656,1.056000000000001,0.045454545454545456,43191.0,3.594571330957836,45342.8675868653,2375.0,0.7533300532794769,0.23768864177918983,0.4700158856235107,0.13560565940962332,0.40943985522052595,0.33119799570194025,5036.0,3579.2985074626868,-0.09999999999999432,467.910447761194,0.1307268580101996,4.0,-0.6666666666666666,3.3333333333333335,0.7237861323236393,-1.1872759144877807,8897087.556530563,7662693.0,2901609.0,3467271.0,4502736.241237591,1224935.793372877,1101726.7590224647,0.09692135121949184,0.07144733604933844,0.04382164436456739,0.097113167342888,0.08371939803096579,0.09820568526310083,0.1103651595201261,0.06789039793505773,0.05895426853423292,0.08931542493526205,0.0677152614745656,0.11453090533040326,2.778676145439291,0.01677621279089441,1.1727610114902922,20.018410220355804,4.504957456275461,0.2004643275120406,0.5196721538966405,0.06060606060606061,0.42552621842896027,0.213458527873822,0.002251008492911291,15845.752438219308,533.6191047538798,0.048880807412862264,0.18129294633648835,0.39386895382415943,0.17491562055057677,Amy,REC_20260323_145407.csv
left,30,brick,31.728,0.9439999999999955,1.0,22091.0,1.5699311533932518,37441.44234668317,4078.125,1.293546999381207,0.2877826259420865,0.49444664815549383,0.12681603527075436,0.42590005986146345,0.29776007853091196,5042.0,3508.1,33.900000000000006,423.2,0.1206351016219606,5.084745762711864,0.0,5.084745762711864,1.1651680867358019,-0.12415689952806774,11371008.950933818,10600955.0,2346944.0,3378084.0,4919122.1309432555,1692192.8376778802,937825.980391286,0.09736039451554973,0.0784042644166358,0.04345657193352527,0.09743165816253813,0.08693689841604668,0.10118012599412787,0.10836350161055842,0.06267400207139667,0.06194711287211501,0.08172515036629514,0.06414203319935768,0.11637828644185362,2.2074850540015363,0.01385410559436533,1.3247565552300076,20.93220134819631,4.725397238372347,0.3343411358445872,0.5816404827994975,0.05084745762711865,0.45555541016197904,0.19065755363428757,0.007036409185209172,13152.646324346044,1237.2724433035476,0.056190153348550466,0.19330785951898644,0.23595372058007763,0.013983752336517009,Amy,REC_20260323_145407.csv
left,31,brick,32.688,1.0399999999999991,0.0,20066.0,1.3756232690535226,36129.998325491244,1953.125,0.6195148464469382,0.27737779461917395,0.47499052671466463,0.1351015853245673,0.42095320095127836,0.3209420548867987,5278.0,3625.1060606060605,-36.599999999999994,468.75,0.12930656156350703,0.0,-2.3846153846153846,-2.3846153846153846,1.1375962847011316,-0.34237865186146266,11052652.419913556,10471451.0,1618792.0,3144734.0,4865278.269496076,1468483.2247681,1040396.5273079559,0.0963482782112958,0.07575953890586273,0.040207810011828285,0.09866795955813205,0.08694834424907108,0.09898143001040723,0.10963106617570229,0.06969075094981547,0.06059592822780525,0.08212507889006382,0.06541083437475184,0.11563298043526418,2.5993235135208623,0.011042027161391162,1.067054612487446,28.148591376063234,4.837131230791308,0.3308716686391109,0.6262144174312587,0.06153846153846154,0.44132024237008505,0.2755355159102818,0.006348089326111843,12806.744642309906,1125.0361684000786,0.06057502235520558,0.36216808057954153,0.3348932047202866,-0.06973007131328898,Amy,REC_20260323_145407.csv
left,32,brick,33.744,0.9919999999999973,0.03225806451612903,50447.0,4.290817261214169,53227.138585499786,2250.0,0.7136811031068728,0.25186317599847124,0.46722721192432637,0.1289998067089564,0.42323270484457637,0.3047964045128426,5233.0,3613.2698412698414,64.80000000000001,445.6111111111111,0.12332627528158989,12.0,-0.48333333333333334,11.516666666666667,1.070190952322715,-0.4961188257719815,9069288.411360066,7755545.0,3299894.0,3348763.0,4842949.942774031,1147511.5382062402,995070.0075904594,0.09707164068952187,0.07334955806638668,0.04211108963432848,0.09920223514734049,0.0855049289216117,0.10241789523625436,0.108937074979353,0.0664921189969952,0.06275808747298318,0.08228926883269781,0.0625076877119612,0.11735841431056598,2.2606082545976043,0.014077995223200548,1.3026842429658219,22.31201339870429,4.867101861986451,0.3170269314076262,0.603797090352604,0.04838709677419355,0.4407809732791351,0.2287797111041841,0.004565365455301836,16986.114535113677,1150.7823991564742,0.04800000000000176,0.6199833054483391,0.3114800660922794,0.000187133631867176,Amy,REC_20260323_145407.csv
left,33,brick,34.752,1.024000000000001,0.984375,1100.0,-0.4442499824957623,14449.234097349243,3390.625,1.0754777734318848,0.2691858200233736,0.4709777950915465,0.12139518533467002,0.4333068600518182,0.2801598509658343,5134.0,3544.9384615384615,-22.80000000000001,410.0153846153846,0.11566220092786682,1.7777777777777777,-10.0,-8.222222222222221,1.3005901565487288,0.09489564577714393,2936487.5268812226,2896722.0,394618.0,276111.0,4717282.4999272255,1490962.0489668164,1081429.0965194032,0.09500002169941107,0.07210280312992305,0.039722941919356304,0.10351487060641174,0.08913250094392439,0.10442624587168704,0.11122684130352703,0.06258110154890396,0.06413043949987197,0.07770993095247394,0.05881408378576605,0.12163821873874343,2.6536710574844133,0.020769136918624392,1.1888253893411178,14.359991479816921,4.293646495535641,0.25624237430462193,0.556520576103481,0.0625,0.4998767721213265,0.24912396398424655,0.006122981174333134,24892.571602789463,758.8990277863044,0.02444040370643221,0.34421306744575264,0.16949181067951757,0.11219211834034155,Amy,REC_20260323_145407.csv
left,34,brick,35.792,1.024000000000001,0.0,19975.0,1.366891408572083,35029.1975928653,3703.125,1.1746001488633948,0.2627535946425054,0.4772503446917471,0.12365301020097044,0.42756091399301355,0.2892055989077362,5077.0,3532.0923076923077,-22.900000000000006,417.5923076923077,0.1182280278414189,0.0,-2.765625,-2.765625,1.2207213238729078,-0.08222542616688111,10894194.35668439,10349278.0,1831373.0,2867401.0,4610049.410416499,1168508.0849426247,967551.69233965,0.09415208244405147,0.07193382871777895,0.044915630744034915,0.09966200029618531,0.08655580044079343,0.10374761527270826,0.11339541609680033,0.06221633723310655,0.06566166926554755,0.08123317623896927,0.06143667296786389,0.11508977028216007,2.7805633275856945,0.02241136859070276,0.914031117939325,13.335982625451003,4.7675357729494845,0.2815562568339295,0.5809067824607883,0.046875,0.4271846816912697,0.17308825564157418,0.006195711471204553,24899.58104734563,764.8805904899987,0.018475208614069916,0.1970552354218687,0.25396079155383844,0.08570468267331255,Amy,REC_20260323_145407.csv
left,35,brick,36.832,1.0559999999999974,0.015151515151515152,45178.0,3.785232943887733,47910.324482307566,2486.1111111111113,0.7885735645440138,0.24496919917864476,0.4989733059548255,0.12550112058312213,0.428159101857864,0.2931179555414484,4870.0,3562.910447761194,-16.099999999999994,430.089552238806,0.1207129841023815,41.0,-0.9076923076923077,40.09230769230769,0.9872635989165977,-0.6502293258238194,8411923.795342596,7191105.0,3848451.0,2058615.0,4344580.288086338,1411476.4150988166,832629.4376772796,0.09679324717759671,0.07259702993108938,0.0405336908028402,0.10082734641727584,0.08909787822298557,0.10326958925915841,0.10728693211570282,0.06365331043294305,0.062367258027354794,0.08211046645581552,0.06184781015017909,0.11961544100705862,2.5064772444937082,0.019517784867474373,1.1135121861129296,16.38724075670648,4.580823161662034,0.2535650100818592,0.5623283016656575,0.06060606060606061,0.44176789926227805,0.2721619706880246,0.002798142617338306,22114.576331762128,632.0501603171132,0.018475208614065847,0.17406080356571552,0.5669107154555009,0.27935701595279605,Amy,REC_20260323_145407.csv
left,36,brick,37.904,1.0239999999999938,0.96875,16252.0,1.0096527649193365,36083.5316869067,1187.5,0.37666502663973844,0.24723172941413327,0.47513589691966984,0.11930169912971404,0.42827047934797624,0.27856624465750635,4967.0,3563.8153846153846,34.19999999999999,407.3538461538462,0.11430273518441775,1.3709677419354838,-27.5,-26.129032258064516,1.1269938957043588,-0.3550225311170183,10883113.660318127,10466565.0,2539977.0,1562593.0,4714243.931666495,1474860.592392711,759615.2931945075,0.1013434175991159,0.07674143528111618,0.045262639867385004,0.09811438043928719,0.08898414836303357,0.10255214808675231,0.10773242160519408,0.06171864207763503,0.06187836717778699,0.07807967260671364,0.057583057052079015,0.12000966984390109,2.535140371180849,0.013702217724532256,0.97960918116546,20.804059818043786,4.426450362307279,0.25622706272780327,0.5582820776469725,0.046875,0.43984024885267853,0.2667593205042067,0.005984374820615557,15736.186609213813,1258.0330390649974,0.01847520861406788,0.06685760075135307,0.5222375759899793,0.16527862746989422,Amy,REC_20260323_145407.csv
left,37,brick,38.944,1.0559999999999974,0.0,59521.0,5.161508492077726,61664.2116385185,1631.9444444444446,0.5176390716978861,0.2328688681046001,0.43710631799961824,0.12793331521246717,0.41642574151408074,0.30721759598057063,5239.0,3624.089552238806,18.0,447.2686567164179,0.12341545380414638,0.0,-3.727272727272727,-3.727272727272727,0.7437308293083357,-0.9914224910151517,9575449.031369599,7338934.0,4502076.0,4190535.0,4198860.52846815,1189070.338875797,1002330.261244479,0.09826451522564596,0.07256583228314678,0.04613407793619807,0.09489979984679632,0.08393255743079064,0.10010543049412307,0.11111797507557225,0.06439496898860857,0.06492212145922394,0.08259408436086882,0.0635383462238586,0.117530290675167,2.6378774775318505,0.01976137053582376,0.7413745641378564,15.641752919106025,4.238895236761958,0.17512258056512875,0.5112611898504176,0.06060606060606061,0.46284255704181737,0.1381707814253879,0.0017223865626334854,22040.27179959447,659.9901989857141,0.018475208614069965,0.033228632486370216,0.5107904807303176,0.16751785461238985,Amy,REC_20260323_145407.csv
left,38,brick,40.016,0.9600000000000009,1.0,21306.0,1.4946068624269864,36843.73680830977,843.75,0.2676304136650773,0.23528192371475953,0.4900497512437811,0.11519341271804734,0.4364681115244759,0.26392171541611575,4824.0,3511.9836065573772,-39.69999999999999,387.1475409836066,0.11023614696285784,2.433333333333333,0.0,2.433333333333333,1.0172790058464058,-0.5010350516711526,10773986.58670833,10308961.0,2249205.0,2178345.0,4630271.603042114,1268049.3521369311,800177.497273274,0.10232879461889267,0.07753779798441869,0.04425596669016155,0.10330437705094034,0.09438876726524172,0.10294495194439647,0.10087242275861104,0.05667713822929454,0.05829221727947869,0.08014713090075666,0.05851627448875279,0.12073416078905479,2.4149983589619213,0.016340182447318708,1.025280174909692,17.85254288600289,4.4111346409877825,0.2677421719520523,0.5228615359660282,0.06666666666666667,0.44426677730140185,0.21202769571770072,0.002840763980958508,23657.752436217033,395.16777216574593,0.04888080741285999,0.2749294057949951,0.24107201593496322,0.21762748421609593,Amy,REC_20260323_145407.csv
left,39,brick,40.992,1.024000000000001,0.984375,18669.0,1.2415748174868058,34032.60673236771,1593.75,0.5055241147007016,0.25020064205457465,0.46569020866773675,0.11915750026024496,0.4281810611055206,0.2782876476425972,4984.0,3546.9538461538464,-45.400000000000006,404.46923076923076,0.11403284291613171,1.7777777777777777,-19.0,-17.22222222222222,1.1016352935634879,-0.29429983774232493,10239505.6637013,9486737.0,2831971.0,2613281.0,4217333.351707246,1612342.733123275,1010260.4089624429,0.10642284603907144,0.0793096568236233,0.041968840001387966,0.0986632083000798,0.08964138242131926,0.10147385405461673,0.10201603109059995,0.05950501405322877,0.05909295950588153,0.08192078142891843,0.0596524862070162,0.12033294007425656,2.4982883698640874,0.010684670389204712,0.8732034184272377,25.549987023141654,4.194669774528421,0.22703606606479695,0.5317396394189101,0.078125,0.4308872581548503,0.2287657084168925,0.005147325191589867,22862.72766607985,444.44896554413674,0.04888080741286078,0.19761930720836565,-0.11358660197900391,-0.009821949737351652,Amy,REC_20260323_145407.csv
left,40,brick,42.032,1.0400000000000063,0.0,20196.0,1.3880973554555793,28924.472977048346,2604.1666666666665,0.8260197952625842,0.24554294975688817,0.47346029173419774,0.11510256769552829,0.4371833904451324,0.26328211503703086,4936.0,3568.2272727272725,6.900000000000006,393.34090909090907,0.11023426453166202,0.0,-2.0153846153846153,-2.0153846153846153,1.1704987854826183,-0.18249443512201813,9627915.606479784,9095783.0,1540602.0,2755002.0,4004714.357528201,1001047.440696097,1085042.6201249307,0.0991155102058148,0.07429629346547603,0.04115021889317759,0.10297957987796334,0.09383319957707545,0.10318339893759317,0.11054636246672017,0.05664471365545238,0.06289091858702438,0.08199470919691045,0.058457854040075925,0.11490724109671639,2.4672452887833622,0.024740289001772404,1.1317582513625049,12.707158165805405,4.896143404050592,0.3037398536174116,0.6131036857945834,0.046153846153846156,0.44864574239774535,0.1864951507251691,0.0030030129942301576,1323.9837612298552,883.4127650345148,0.04233202097703546,0.0,0.0,0.0,Amy,REC_20260323_145407.csv
right,0,brick,0.576,1.008,1.0,43220.0,2.9003402050335336,46485.00431321912,4308.035714285714,1.43028143826161,0.29244249726177435,0.45071193866374587,0.17811497497754394,0.3572244321827281,0.49860804281782584,3652.0,2435.3125,22.599999999999994,418.765625,0.17195560118054665,3.4285714285714284,0.0,3.4285714285714284,0.4943437511528631,-1.207370702361072,9946441.34271313,7990117.0,5584530.0,1975538.0,4810205.059409255,1712262.1815425428,1030597.5792908898,0.06032978313871423,0.038688566662389325,0.030411908122674195,0.0967470807134608,0.058616707301424355,0.0958937508020018,0.12433594251251123,0.08751443603233672,0.06727832670345181,0.12634415501090723,0.09060053894520724,0.12323880405492109,2.9949718015885263,0.029569350034883313,1.3577306387171615,9.716595243673952,4.37593703239357,0.2715087942220043,0.5762171922977177,0.06349206349206349,0.47494058016524254,0.19423066841086775,0.006819817722614334,0.0,0.0,0.0,0.0,0.0,0.0,Amy,REC_20260326_131615.csv
right,1,brick,1.6,0.96,0.0,17018.0,0.8141510159081092,40740.58076414719,479.1666666666667,0.1590848439102724,0.26375908618899274,0.4239356178608515,0.1509918860738533,0.362020202020202,0.4170813817325556,3852.0,2475.0,-9.099999999999994,358.0245901639344,0.14465640006623612,0.0,-1.9833333333333334,-1.9833333333333334,1.1122316263618681,-0.15950469062097694,11095894.839773176,10501995.0,2353052.0,2700024.0,4801016.679216327,1406581.67238807,1031033.4415333039,0.08058287795992713,0.046987911905944695,0.039589335982778605,0.09669812882927636,0.053339956946514326,0.09675774134790528,0.12213942705745984,0.07448915383341613,0.06823646299056135,0.11976817353866535,0.07650273224043716,0.12490809736711377,2.711536765054787,0.02952336405130301,1.1567691722411717,9.222475340399782,4.3272457737396826,0.2047354473834614,0.528154734852684,0.03333333333333333,0.43764491132102734,0.3313294382850394,0.006371254791477373,18527.611880649918,2707.419267846706,0.033941125496954314,0.23521340300122448,-0.024091923843854477,0.28077202711997906,Amy,REC_20260326_131615.csv
right,2,brick,2.576,1.008,1.0,51772.0,3.581245859006537,53257.02628761767,562.5,0.18675177328597192,0.30169584245076586,0.43572210065645517,0.16576892001077295,0.37605324920164673,0.44081235932016555,3656.0,2436.65625,-41.7,388.171875,0.15930514408833826,3.015873015873016,0.0,3.015873015873016,0.9630890975595396,-0.5092398508791431,10124226.02330361,8113512.0,5242445.0,3031113.0,5106433.2210945105,1829639.0044233282,1188177.4685163596,0.07149910866582022,0.048003796185859204,0.025034306747207368,0.10715247585702743,0.0715439959986149,0.09089043643312429,0.10807587241737525,0.07703307555179358,0.05846254472702089,0.13002577815397637,0.08873584445897939,0.1235427648032011,2.53742430111509,0.032870704047348646,1.2071036255801055,7.25326950687549,4.552727593184108,0.3142924425118911,0.6086245318299421,0.07936507936507936,0.5349535159680755,0.3395939026084296,0.009331627134401544,18108.570825256567,2186.939277287225,0.02771281292110206,0.1452251204122198,-0.0005598356158648381,0.3877649480303846,Amy,REC_20260326_131615.csv
right,3,brick,3.6,0.9599999999999995,1.0,60449.0,4.272103945948042,61325.12706061032,416.6666666666667,0.13833464687849772,0.3266538567115015,0.471589349437277,0.17209197886478939,0.38128284834153153,0.4513499089013466,3643.0,2336.245901639344,-43.599999999999994,383.1967213114754,0.16402242633901945,1.3333333333333333,0.0,1.3333333333333333,1.1370225105316387,-0.11014311821524103,10344836.398477165,8688947.0,4293160.0,3617543.0,5428775.882062625,1651315.6904154257,1045637.3666975279,0.05539923233995972,0.03706380560097115,0.023934994491653278,0.1123702731718955,0.06516689939723952,0.10169039582909391,0.12225021226431644,0.08543901874241287,0.06499147434233148,0.12096610086238957,0.08665296012237653,0.12407463283536009,2.858810561426306,0.024827622991430376,1.2985454799937008,11.230612955740833,4.647762660784888,0.37309710855414263,0.5966143842285397,0.05,0.5295766230841839,0.27980910784953555,0.0068361277085871,22983.264222762904,73.16426217258136,0.027712812921102198,0.13736964589541426,0.010117133737978566,0.14606792722771988,Amy,REC_20260326_131615.csv
right,4,brick,4.576,0.976,1.0,52916.0,3.6723305255342633,55522.97709057035,406.25,0.13487628070653526,0.3289110005527916,0.46876727473742397,0.19180818499757982,0.3622982895086683,0.5294206198364259,3618.0,2365.8548387096776,12.400000000000006,434.61290322580646,0.18370226951998528,0.03278688524590164,0.0,0.03278688524590164,0.8722776590386148,-0.8214022529707941,10000637.034772685,8778133.0,3973067.0,2678033.0,5612286.460642399,1895181.1800473195,1049249.7276277263,0.057348158955025465,0.03677999495510727,0.025674413531220387,0.10378844174171513,0.05770266493049638,0.09827314685410034,0.12536558428720437,0.09544391647293823,0.06575404102724923,0.12105015577810652,0.09636426852464157,0.11645521294219506,3.1131441934030173,0.022546361958022624,1.123193441714186,13.288568376858937,4.920548697844365,0.3563960537977165,0.6151398483398663,0.06557377049180328,0.5049549145891817,0.24070245496735765,0.0055193434187777585,4714.254165118104,87.35934462089071,0.02444040370643136,0.18164805553656832,0.002989669599190195,0.16801657949459542,Amy,REC_20260326_131615.csv
right,5,brick,5.568,0.976,1.0,31074.0,1.9332821983501736,43911.97359490917,255.20833333333331,0.08472997121307985,0.3478500551267916,0.47160970231532523,0.1700617680686823,0.37310484334724753,0.4558015557847239,3628.0,2384.048387096774,-6.200000000000003,386.08870967741933,0.16194667514596342,2.0491803278688523,0.0,2.0491803278688523,1.1961189787090543,0.06117902385440521,9941154.89459278,9165422.0,2684141.0,2759889.0,5233326.943137861,1359336.3001336497,932087.3043589927,0.051734985894148613,0.03020072930972661,0.022630250793242723,0.10845606889879644,0.06031350846689353,0.10345644099559573,0.1258093105384579,0.082950524656487,0.07067809567623519,0.1294490937751588,0.08711124341219531,0.12720974758306214,2.7178767952384306,0.023053659867161614,1.1423296701732424,12.002547713126871,5.0550702400080585,0.3798272925053091,0.6326453976072061,0.06557377049180328,0.5077169554442144,0.23466343967415798,0.009159560381708846,15257.291579219866,90.36120610883513,0.009237604307034282,0.21716995295387395,0.04087241342302804,-0.00024240446552808466,Amy,REC_20260326_131615.csv
right,6,brick,6.56,0.976,0.0,14635.0,0.6244178337965954,43325.43901681782,187.5,0.06225059109532397,0.3293067226890756,0.46612394957983194,0.17142271395599526,0.38276315876490463,0.44785583468627516,3808.0,2438.8870967741937,24.700000000000003,398.73387096774195,0.1634900900066794,0.0,-1.7868852459016393,-1.7868852459016393,1.1469937325450386,-0.010906585319488737,11898542.590499183,10818423.0,4162435.0,2685363.0,5111778.468445731,1788775.0584580791,1096273.1771390121,0.05548538135453108,0.03882654039719332,0.02539497787859349,0.1063679229685671,0.06466460773356436,0.10239995767503687,0.1186950684804677,0.0849276838325254,0.07050412999054301,0.1180403542070352,0.08649503012346985,0.1281983453584726,2.7237112435035336,0.030191034264789092,1.1030205338650445,8.772530713773909,4.746698993781505,0.376826277470461,0.6063162989453084,0.06557377049180328,0.5063676961542706,0.24164064361226684,0.006177632055058317,19203.943371089183,111.98925988103781,0.0,0.16974521816060428,0.40481837233367063,0.041523726209400404,Amy,REC_20260326_131615.csv
right,7,brick,7.552,0.9760000000000009,1.0,58324.0,4.102912585483515,63748.38590897812,510.4166666666667,0.1694599424261597,0.3287160362280234,0.46030900372935535,0.17052709919178996,0.3735066393346303,0.4565570761884833,3754.0,2470.6129032258063,-43.599999999999994,402.4516129032258,0.16289545496089516,2.1311475409836067,0.0,2.1311475409836067,0.9617888111685654,-0.5650985935523845,9616230.401607951,7969347.0,4721988.0,2581516.0,5058370.219754933,1753770.766624865,1017802.2411146429,0.05596756714410686,0.033725469714972124,0.03260259306166682,0.1004778754129183,0.05609813419681678,0.10741751426445051,0.12140777396231835,0.0857956103356879,0.07578764574547259,0.11905103866090432,0.08473148885610206,0.12693728864458342,2.386407469735736,0.025417767247436544,1.5057140152951534,10.657350448138185,5.244210787120964,0.40943164738879695,0.6489467933461623,0.06557377049180328,0.502861579764398,0.24692212423593676,0.006441181931421626,22066.308942216267,170.28940337782828,6.376329780385505e-10,0.23960893870727565,0.3901400707837207,0.09712211450287207,Amy,REC_20260326_131615.csv
right,8,brick,8.544,0.9759999999999991,0.0,54639.0,3.809514861572089,56981.96292687713,3399.3055555555557,1.1285801607837438,0.3257931034482759,0.4513103448275862,0.17756656342496893,0.38276802208594013,0.4639012487435632,3625.0,2348.5967741935483,-10.200000000000003,398.5403225806452,0.16969295323906522,0.0,-1.1311475409836065,-1.1311475409836065,1.1124490293256408,-0.21743843449679057,9845592.257505996,8079303.0,4873482.0,2812423.0,4986714.199232483,1821247.3414654029,925484.9001127982,0.051314099702636444,0.03423458070364597,0.024510174228949338,0.1072843770817166,0.06539251303111673,0.1067899157355456,0.12082712395184496,0.08746471812269509,0.06906663553391525,0.12039447027394533,0.09010184530227384,0.1226195463317149,2.782456017269469,0.03221240478193618,1.3937388418803123,9.239752608187995,4.9749414606973055,0.3905893873023676,0.6225822549874734,0.09836065573770492,0.48927074718977853,0.2681596992504818,0.007005284573912978,24230.24268003384,1768.504505349756,6.376329780389565e-10,0.6019937123807314,0.21287688824954437,0.09574453328986314,Amy,REC_20260326_131615.csv
right,9,brick,9.536,0.9920000000000009,0.0,13606.0,0.5424894055998905,42206.32708492887,812.5,0.2697525614130705,0.31265373052746653,0.4766329598250888,0.19860586471435804,0.3702117164479406,0.5364656381480751,3659.0,2445.6190476190477,0.4000000000000057,468.04761904761904,0.19138206316445344,0.0,-1.0,-1.0,1.0579263986494198,-0.44352811610350296,11926778.02895912,11096977.0,3546683.0,2554638.0,5257488.7380554415,1823403.7593993803,1055671.334460052,0.04819761932577852,0.03700170048158677,0.02074976959123538,0.10205485675714267,0.07197839998961537,0.09618754624401261,0.11603515193997689,0.09677817152796707,0.06298921297558316,0.12862001375962198,0.10182769318639096,0.11757986422108856,2.584561772738916,0.024525674176541102,1.3569915391818823,12.457526444051478,4.7187786120280055,0.3005537821324445,0.6055022592059073,0.06451612903225806,0.46582415149747797,0.311160851958488,0.005943844425083105,24822.65711670154,1587.8967396568191,0.009237604307034556,0.3436286552689313,0.17055993282495677,0.280783371182099,Amy,REC_20260326_131615.csv
right,10,brick,10.544,0.9439999999999991,1.0,57267.0,4.018754812301866,60619.52997178384,3757.8125,1.2476055965354513,0.32784673502428496,0.45143011332973554,0.164654301559268,0.36847928420734344,0.4468481909730173,3706.0,2425.2833333333333,27.400000000000006,380.2583333333333,0.15678924111959427,2.389830508474576,0.0,2.389830508474576,1.1001281282942572,-0.24018707856036592,9370481.798487738,8478809.0,3137403.0,2464230.0,5221932.762203473,1436306.8369563932,701753.4415709528,0.07536576482472838,0.04624201983273432,0.03557659929767656,0.0994316815217466,0.05918208869066845,0.09754874000975831,0.11089425977720815,0.07766102929554622,0.0660747541524358,0.11903763821409181,0.08699327226372176,0.12599215211968362,2.6116466676622268,0.024075595622964286,1.6220090998213859,12.202459891633692,4.90382580238123,0.34522454693284793,0.6109318053934905,0.06779661016949153,0.4450128715365539,0.2853121821547245,0.005665717624723588,24484.336469125185,1607.013582919376,0.02444040370643195,0.24721267408110711,0.17174881148863996,0.13077438602750874,Amy,REC_20260326_131615.csv
right,11,brick,11.504,1.008000000000001,1.0,53648.0,3.7306119729978082,58022.46034080251,614.5833333333334,0.20404360414578415,0.3174121809451605,0.44351781652767247,0.16920590666288352,0.35325865706073206,0.4789858741766225,3957.0,2533.15625,-26.900000000000006,409.140625,0.16151416834235946,0.2857142857142857,0.0,0.2857142857142857,1.1869643222050132,-0.1342091923323152,12128447.814197825,9035918.0,7004180.0,4048814.0,5146686.385664286,2066239.9458410172,1163083.9629221458,0.07778093041043165,0.05300329381576837,0.03338226767496083,0.09155450833323053,0.057117479429071936,0.08813116048407989,0.11381552164419388,0.07685570126201256,0.06345221499858132,0.12770629525912586,0.09235020540087095,0.12485042128767225,2.8213393366928834,0.026562354497806025,1.118750176170384,10.136705461242608,4.708755300515026,0.3315464557124988,0.6215629895765501,0.06349206349206349,0.4867658125717078,0.30209935079136224,0.006443836797981752,24230.63434992985,1760.3941946708371,0.033306655991459155,0.23668256028452267,0.34809066297182806,0.06337541687137391,Amy,REC_20260326_131615.csv
right,12,brick,12.528,0.9919999999999991,1.0,13189.0,0.5092880892169692,40830.98212142343,350.44642857142856,0.11634931907102218,0.3329829172141919,0.45519053876478316,0.18136662469390466,0.36466948031814933,0.4973452248745257,3805.0,2508.5555555555557,33.099999999999994,434.968253968254,0.17339390909838712,0.22580645161290322,0.0,0.22580645161290322,1.0384559615667694,-0.32078476439823245,11608967.296153994,11173946.0,2247984.0,2204001.0,5393513.947652384,1795973.8556409725,1021833.371422244,0.050715329760375606,0.03619359778282576,0.02190598523149349,0.09946279083011154,0.06586348939185897,0.09603325761362701,0.12464012047659122,0.086168603952189,0.06711634469972602,0.12924025082416365,0.09519802074171564,0.12746220869532204,2.6307041564417477,0.026419019976872744,1.2238453212801736,10.51082355744927,4.799459831994088,0.3545875848891022,0.6312017131868649,0.06451612903225806,0.4827321306259881,0.2807564610297921,0.007547348961772859,24470.723753089125,1895.6002322643435,0.03330665599145887,-0.05111844135820335,0.37290221012316976,0.1843346909203328,Amy,REC_20260326_131615.csv
right,13,brick,13.536,0.9600000000000009,1.0,13299.0,0.5180462302292507,38645.32376627216,875.0,0.2905027584448452,0.3330773169482847,0.42780337941628266,0.16934437086092716,0.3656622516556291,0.4631169066371774,3906.0,2475.409836065574,-46.599999999999994,398.5081967213115,0.1609867549668874,1.3,0.0,1.3,1.2068581386721315,0.08459400568766196,11370947.004388817,10818423.0,2930931.0,1915673.0,5193962.692571098,1938127.8202907275,961821.7880358192,0.07823841059602649,0.052615894039735094,0.03420529801324503,0.09745033112582781,0.0629933774834437,0.09105298013245033,0.10627152317880795,0.07757615894039735,0.06154966887417218,0.12445033112582782,0.0917682119205298,0.12182781456953641,2.6671764173515116,0.021937062088015914,1.5116393602308442,14.258933738323652,5.051816467068073,0.3706775929017452,0.6263099612730533,0.08333333333333333,0.5338597169236418,0.299173767029645,0.006558021149466285,23327.325114551822,262.2789844273451,0.02444040370643094,0.23389241962651366,0.026051805144912794,0.24770954347962312,Amy,REC_20260326_131615.csv
right,14,brick,14.512,0.9599999999999991,0.0,15496.0,0.6929701920836342,41877.24668599883,406.25,0.13487628070653526,0.3216695826043489,0.44213946513371655,0.1636089306270039,0.37616331627244526,0.43494121715030204,4001.0,2520.7049180327867,-29.299999999999997,391.827868852459,0.15544376735625606,0.0,-1.05,-1.05,1.2179609833859517,0.27252532710186683,11757684.942025876,11028561.0,3656639.0,1800830.0,5146558.154008183,1967486.7640703667,1044385.1203240684,0.0757464409513342,0.05272399732055176,0.034065412355378084,0.0989639900366148,0.06530829913568284,0.09579677815859473,0.11198402736679176,0.07683252798137394,0.06337025162100116,0.11711530082009326,0.08677640264562997,0.12131657160695357,2.468057790927179,0.025269601920619382,1.4754087264016538,11.506790069086508,5.265524910433066,0.3956510626880201,0.6452181122038847,0.05,0.48830970232808213,0.3027837728053181,0.0038346184859461277,1301.355575288158,288.0963526272196,0.01847520861406747,0.26377156606453206,0.00417942401503719,0.10894174371925455,Amy,REC_20260326_131615.csv
right,15,brick,15.488,0.9600000000000009,0.9833333333333333,17965.0,0.8895506480774772,46131.50500471451,1109.375,0.36831599731400017,0.3149100257069409,0.4735218508997429,0.18189713151416612,0.3741633855054294,0.4861435901010496,3890.0,2510.6065573770493,26.400000000000006,436.89344262295083,0.17401907970773178,0.6101694915254238,-1.0,-0.38983050847457623,0.966634755240667,-0.5797586599149755,11894561.819358205,11012678.0,4119675.0,1797165.0,5140910.937441582,1979881.067015096,983625.188449705,0.05811409952529269,0.04607338047758036,0.02481276159506879,0.10155602133897497,0.06741888512344349,0.09586214552031708,0.10790286456802942,0.08418708822242682,0.06325295304511351,0.12762248036200513,0.09771004329173931,0.1254872769300084,2.792481426827542,0.03186250980254398,1.280552063357105,8.534893380364464,4.900485955965926,0.38699102692808085,0.6166526093563421,0.1,0.480741259350707,0.2795058640338937,0.007164399608044689,2334.3209576520476,358.0137261684228,0.0,0.0617338379921268,0.22399275612935587,0.08979472619379532,Amy,REC_20260326_131615.csv
right,16,brick,16.464,0.9600000000000009,1.0,60607.0,4.284683821220228,61771.548515477574,453.125,0.15043892848036627,0.3291790842590084,0.4752099701977784,0.17786768016526736,0.37144105728739035,0.4788584263248385,3691.0,2475.8688524590166,3.0,420.5409836065574,0.16985592075641603,0.16666666666666666,0.0,0.16666666666666666,1.1451158833842985,-0.1677709823381126,10322817.959179413,8273558.0,5060407.0,3535688.0,5162009.91452782,1792662.8852103066,953561.1426918638,0.0471833037582435,0.030769128903249725,0.02087030219561935,0.1041661148926027,0.06391530047408427,0.10098127499536509,0.12315597107821065,0.08656010805943269,0.07160923802208861,0.12688375665439522,0.09130757210583466,0.13259792886087346,2.7875339930785827,0.026356797786605476,1.087867970576967,10.025597824110593,4.974527419597949,0.3823597706619484,0.6249794604900815,0.06666666666666667,0.4800997864786277,0.27113255560500216,0.005503013150842863,25362.17145671877,393.11705079403316,0.0,0.2784752397164619,0.2738527925424532,0.3525418482968366,Amy,REC_20260326_131615.csv
right,17,brick,17.44,0.9759999999999991,0.0,62100.0,4.4035556805960105,63452.28122770686,604.1666666666666,0.20058523797382166,0.3166268894192522,0.4722885176345797,0.1882269260659387,0.37332551798627484,0.5041898209397325,3771.0,2449.0,18.5,442.2983870967742,0.18060366970060196,0.0,-1.1967213114754098,-1.1967213114754098,0.8463307252352674,-0.8167438861718574,10431470.3588475,8808676.0,4481307.0,3337767.0,5190007.721655087,1754658.8943196326,1000528.7171542401,0.052002792449847866,0.0377902764788788,0.02171393195379286,0.10202320894637705,0.06834916160644898,0.09744596214386386,0.1170721426783809,0.08981941279521595,0.06771690881070615,0.12538363255575022,0.09840751327072274,0.12227505631001462,2.666957270805811,0.027786912234660656,1.1184887719774521,10.412142603569253,5.069211472459958,0.4179694900088729,0.6310703994646585,0.06557377049180328,0.5007224999222318,0.23819573301999392,0.0054492180750320965,25061.482524649924,343.6842319239371,0.009237604307032878,0.22859211260864865,0.355634572465978,0.26257521972676046,Amy,REC_20260326_131615.csv
right,18,brick,18.432,0.9760000000000026,1.0,19664.0,1.0248241169853505,36121.29889691123,515.625,0.1711891255121409,0.2778196433057021,0.4762622456669179,0.16620905349794238,0.3869958847736626,0.4294853253929965,3981.0,2449.5967741935483,4.799999999999997,389.61290322580646,0.15905185185185186,0.6229508196721312,0.0,0.6229508196721312,1.1745313080477158,-0.013294969690832215,10703569.961809471,9993755.0,2658485.0,2761110.0,4995950.139252789,1338614.5549949652,1000780.4831584096,0.050693004115226335,0.03541069958847737,0.02340082304526749,0.10506666666666667,0.06927407407407407,0.10550123456790124,0.11825514403292182,0.07842633744855967,0.07174320987654322,0.11795884773662552,0.08778271604938272,0.1364872427983539,3.0098278372555836,0.02555315898406758,1.064967400215992,11.650158182189449,4.9684581838669075,0.3427287630988621,0.6181633630752118,0.04918032786885246,0.4587103383753786,0.25264689241867805,0.0071479492911870526,24081.017399603374,75.8940728971922,0.009237604307033895,0.18359449211898018,0.23708878659308255,0.36200015580264255,Amy,REC_20260326_131615.csv
right,19,brick,19.424,0.9759999999999991,1.0,61823.0,4.381501089137811,63114.40422756124,2276.785714285714,0.7559000347289339,0.2925887802367473,0.4590838908903757,0.16586598592768861,0.3691319936629701,0.4493405848720638,3886.0,2514.6612903225805,-41.900000000000006,399.2741935483871,0.15877851823820305,1.0491803278688525,0.0,1.0491803278688525,1.1431263736850161,-0.2683903897166884,9780818.943056813,8244237.0,4244291.0,3111747.0,5192471.937168875,1552814.366549442,953780.6084776754,0.058771462840503115,0.03609798023205845,0.023860072221616457,0.10377207217030447,0.06061869423830568,0.09907702570088964,0.1220134822236048,0.07894348626442349,0.06956622132141185,0.12429045148131283,0.08692249966326512,0.1360665516423042,2.550306775866861,0.022486681300968273,1.2432361280220732,11.52361305118221,4.9630333164385325,0.38930831035832514,0.6288733611086442,0.06557377049180328,0.4975844401101873,0.31060894253228455,0.007513670075534587,24420.865757244024,992.2349492213289,0.0,0.3572051490380718,0.34685818118344186,0.36057902082148263,Amy,REC_20260326_131615.csv
right,20,brick,20.416,0.9759999999999991,1.0,56424.0,3.9516356043622913,58094.18474339751,475.0,0.1577014974414874,0.3044721788871555,0.47581903276131043,0.17248899942605703,0.3766660289522352,0.4579361720134023,3846.0,2529.1935483870966,-37.0,417.41129032258067,0.16503730629424146,0.08196721311475409,0.0,0.08196721311475409,1.0392575400635775,-0.4142839945592329,10103592.423082544,8026769.0,5205793.0,3248581.0,4872931.278461557,1687808.452227082,926054.0335612595,0.061934825585103,0.04362604425738155,0.02519609718767936,0.10088642305975384,0.06633505516229833,0.09700274217205536,0.11182960270390918,0.08107901281806008,0.06881576430074614,0.12246030227664054,0.09140998660799694,0.12942414386837575,2.9223829178003333,0.03158571475776871,1.2577151743481843,9.258592631429844,4.718073377017719,0.3825813126541253,0.6055793197281168,0.06557377049180328,0.46966387351420696,0.2582788930378078,0.0066200945679412366,22941.33126767786,1028.7345958646185,0.0,0.05413463427583358,0.15597098798193182,0.10713485158192196,Amy,REC_20260326_131615.csv
right,21,brick,21.408,0.9599999999999973,0.0,59669.0,4.210000764224592,61622.85721223903,1774.3055555555557,0.5890750379576027,0.30869565217391304,0.4720108695652174,0.1731722448979592,0.3806367346938776,0.4549541048292399,3680.0,2510.245901639344,-1.4000000000000057,416.9836065573771,0.16611265306122452,0.0,-1.8333333333333333,-1.8333333333333333,0.9295549077370506,-0.6343022767093189,10158741.998976842,7839844.0,5764124.0,2917492.0,4961947.02815478,1840126.076257714,874302.447816256,0.06287673469387756,0.043885714285714285,0.027696326530612245,0.10204734693877551,0.06684081632653062,0.09848816326530613,0.10789224489795919,0.07976489795918368,0.06937469387755102,0.12195265306122449,0.09340734693877552,0.1257730612244898,3.073212594833056,0.02712032215126164,1.126419085388035,11.519395209555716,5.073531148683769,0.38494806026023815,0.6368526533078942,0.05,0.4659760739773615,0.293189668413968,0.006280696113886923,2717.8098412754507,929.7950488162331,0.009237604307034889,0.0291343093599642,0.17179372244984778,0.07341833563219048,Amy,REC_20260326_131615.csv
right,22,brick,22.384,0.9920000000000009,0.9838709677419355,48384.0,3.3114951158282704,50995.77101093776,3914.0625,1.2994810891148878,0.2994246861924686,0.48091004184100417,0.16968649308225664,0.37944314866951806,0.44719872707431246,3824.0,2497.6031746031745,-52.0,407.3015873015873,0.16307698174122492,2.180327868852459,-77.0,-74.81967213114754,0.8505341549438891,-0.7604854604411364,9235836.185604203,7750658.0,3569896.0,3533244.0,4989370.626074451,1932227.1105973653,1124858.2686976176,0.05949195736865186,0.04062942884924595,0.02758835454944105,0.10302575802833193,0.06569472955023548,0.10152590737786704,0.11811959402347648,0.08286039313881881,0.06856732486383771,0.12227595980908683,0.08682609994343785,0.1233944924975691,2.3686258184204787,0.02427840448226639,1.3958065382257603,10.81516568526736,4.776634336599379,0.30395570307077097,0.6109225570131006,0.06451612903225806,0.5383112114472499,0.2797326128009162,0.0059621542814850435,5809.802779211502,1736.5629649253528,0.016000000000001697,0.3662857743298447,0.18000787773841884,0.09614600169562817,Amy,REC_20260326_131615.csv
right,23,brick,23.392,0.9759999999999991,1.0,60598.0,4.283967246046496,63423.067420300635,2825.5208333333335,0.9380818241448127,0.30615989515072084,0.472870249017038,0.17334712356568574,0.37664246871178414,0.46024316949278893,3815.0,2479.548387096774,33.099999999999994,411.741935483871,0.16605521296802228,1.540983606557377,0.0,1.540983606557377,0.8399342802403873,-0.800557577731074,9858500.253611093,8156272.0,4398229.0,3364645.0,5040332.265156805,1706104.169776303,1147626.8159863374,0.05302084146436656,0.03537324694923633,0.026188431816407776,0.10546925818957666,0.062407306221216145,0.10361538261389952,0.13063643223271668,0.08810137121744334,0.0697772747378555,0.11814716519657585,0.0852457523482424,0.12201753701246326,2.7379383389988345,0.029610106433199668,1.2825303712988545,10.180236894269582,5.375426288042001,0.40740293716308673,0.6472389881049655,0.04918032786885246,0.5228029156203408,0.2473103443481811,0.00588195428933238,6799.461522797254,1069.9327316550532,0.016000000000001697,0.5868854536303633,0.31185062093274524,0.05031071786165454,Amy,REC_20260326_131615.csv
right,24,brick,24.384,0.9920000000000009,0.0,16415.0,0.7661404792680577,42649.60118219161,166.66666666666666,0.05533385875139908,0.3101703940362087,0.4792332268370607,0.1965833397628784,0.3682136152045882,0.5338839511771878,3756.0,2468.7619047619046,-12.700000000000003,466.8888888888889,0.1891186379651776,0.0,-0.12903225806451613,-0.12903225806451613,0.7538823917822063,-1.0322781166999935,11810782.636915049,11281459.0,2783102.0,2116037.0,5202233.570539309,1571466.8764057518,1036009.1506172718,0.04781009695753929,0.03373582285317491,0.022246225857058356,0.09936861867654247,0.06483553223773887,0.09922073914049843,0.11975670601548236,0.09792840058637452,0.0710529022966335,0.12589049198878688,0.09865493917650388,0.11949952421366665,2.4574040021559194,0.027128260229221473,1.3623204346759572,10.477667903096936,4.93559593187352,0.35123172387335816,0.6371109667669056,0.06451612903225806,0.49634938059220746,0.29311968109893927,0.0036140575409881804,22815.697249919853,1927.7536137239358,0.00923760430703489,0.4151224820486846,0.013514653313609772,0.1342081177038725,Amy,REC_20260326_131615.csv
right,25,brick,25.392,0.9920000000000009,0.0,11931.0,0.4091268038219695,40052.02708977412,635.4166666666667,0.21096033648970905,0.323408904670855,0.481016115815351,0.17977859234835786,0.3746246937685351,0.47988986134280276,3661.0,2585.190476190476,-33.0,446.12698412698415,0.17257025671253232,0.0,-0.3225806451612903,-0.3225806451612903,0.953226341707857,-0.7094123029162946,11534388.915944962,10863627.0,3185051.0,2208888.0,5121610.355477309,1870802.8375616584,916576.86838938,0.0700080433728134,0.04992417125630116,0.031860352312009184,0.09917908477469348,0.06948000515758257,0.09337680438640117,0.1072715774220683,0.08295111962521567,0.06266462819355671,0.12010413404802692,0.0968274727231422,0.11635260672818926,2.8634335865096245,0.022553458399999175,1.0764206287647118,12.172327651700318,5.149091252553892,0.3781803747178368,0.650464543564632,0.0967741935483871,0.49873440684391335,0.3151614811286714,0.004323846083501936,26897.089786815235,1419.2596839521295,0.00923760430703489,0.39200557437029737,0.31186048584722276,0.140253535944126,Amy,REC_20260326_131615.csv
right,26,brick,26.4,0.9920000000000009,0.9838709677419355,16802.0,0.7969532117385386,43401.380749925454,281.25,0.09337588664298596,0.3059467918622848,0.47078768909754826,0.16300028023335797,0.37661452627824626,0.4328040180605201,3834.0,2492.253968253968,-51.0,387.984126984127,0.15567599928667872,0.5737704918032787,-11.0,-10.426229508196721,1.0934211643664065,-0.27908013604360704,11497003.595926419,10922270.0,3049439.0,1893682.0,5045414.927070476,1716927.6763774345,1027937.0175785193,0.054053193386492754,0.032863730160752044,0.028520113112373575,0.10713193896007948,0.061180037194609335,0.10487733421649302,0.12521335948844675,0.08089827529106056,0.07056148574631238,0.12328357068249561,0.08210200494229741,0.12931495681858712,2.6490653978898426,0.024370706016319073,1.234601604451672,11.943048077728008,4.578749479086955,0.295411294499275,0.6028633142461068,0.0967741935483871,0.5074622284617766,0.2501265167278601,0.006136935227557994,2707.4793320233657,244.36650430434992,0.0,0.42993678264618823,0.17834290394875998,0.07789331309988998,Amy,REC_20260326_131615.csv
right,27,brick,27.408,0.9599999999999973,0.0,16022.0,0.7348500300150888,35906.94222570337,416.6666666666667,0.13833464687849772,0.30433596945732205,0.4638669211889828,0.1622053455629688,0.37536601997566554,0.43212581035786923,3667.0,2452.1639344262294,-35.0,380.24590163934425,0.15506544905135644,0.0,-1.6,-1.6,0.9691631138825261,-0.4735132836252789,10855910.996167848,10464121.0,2103819.0,1981646.0,5006322.2330065165,1700444.380862774,888437.0270537011,0.0650880453530505,0.039229319035712855,0.025885467502774397,0.10917088954553357,0.060154296639970045,0.09997192175529142,0.12232086748405557,0.07898009118744234,0.06683959299915765,0.12544290088379617,0.08322525437552647,0.12369135323768904,2.90927600987539,0.030493021544862168,1.1790645040230345,8.633782058011507,5.016145928936645,0.3641502237032646,0.6265115071085763,0.05,0.45582203051007697,0.2592774886527881,0.004100176680317388,2616.33719794175,178.70985045080735,0.018475208614070038,0.4269424574083585,0.16712067305773318,-0.06991398514193022,Amy,REC_20260326_131615.csv
right,28,brick,28.384,1.0399999999999991,0.9846153846153847,55017.0,3.8396110188688377,61190.87903437897,6056.25,2.0106940923789645,0.27564926716379534,0.4636153252764207,0.16122721884507354,0.3799204666888566,0.4243709749307879,3889.0,2594.681818181818,-77.1,402.45454545454544,0.15510747508014647,0.71875,-2.0,-1.28125,0.836148192754072,-0.6862083701575696,10785993.225290196,8542339.0,5681046.0,3330437.0,4860971.359057172,1829628.0836062117,1072474.0149848121,0.06377263516867253,0.04172287137443138,0.027387021238080223,0.10183417129443093,0.061279189951474175,0.10376702929652144,0.11638608108660489,0.07666030166599513,0.07131720477199867,0.1206955953027463,0.08456691717907842,0.13061098166996596,3.1349526814335262,0.02792358885775056,1.298625782554084,9.7162990284932,4.485371430040416,0.32485412263248054,0.6248507392668444,0.06153846153846154,0.5270998038249247,0.32162384481469614,0.008461682950310627,22292.018938026536,3295.801947104382,0.040265783654778065,0.6684509324934665,0.18773678124734228,0.014566196926310192,Amy,REC_20260326_131615.csv
right,29,brick,29.44,0.9759999999999991,1.0,56195.0,3.9334027471639965,57975.23424704725,4821.428571428572,1.6007294853083307,0.30072276716572016,0.4762519359834796,0.16550101809811685,0.38262783138777523,0.4325378462347654,3874.0,2550.6129032258063,-51.5,404.0483870967742,0.15841227282500095,1.4426229508196722,0.0,1.4426229508196722,0.96923248895466,-0.4879696992488318,10768275.548164247,8538674.0,5825210.0,3018896.0,5000433.412690535,1821846.155829675,925882.2534634549,0.07158937130860388,0.051777561370448595,0.03529828377746019,0.09945111231961958,0.06747271370575067,0.09940052359331723,0.11335668846197625,0.08047401636545296,0.06452592039863916,0.11104857782443184,0.08502700173266388,0.1205782291416358,2.537690386958152,0.02118302946599463,1.5631017447988178,13.2415598236126,4.853028610153294,0.3743541630669884,0.614727142782612,0.06557377049180328,0.47599858873145073,0.2587884067884498,0.0077233833052618665,22861.4217915976,2964.5576278120598,0.04233202097703416,0.5972454176362146,0.07778705136153317,0.15716824066833554,Amy,REC_20260326_131615.csv
