foot,step_id,surface,contact_time_sec,stance_duration,time_to_peak_frac,impact_mag,impact_mag_norm,accel_mag_strike,loading_rate,loading_rate_norm,heel_pmax_ratio,fore_pmax_ratio,heel_mean_ratio,fore_mean_ratio,heel_fore_ratio,total_pmax,total_p_mean,midstance_diff,heel_impulse,heel_impulse_norm,rise_slope,fall_slope,slope_asym,heel_skew,heel_kurt,gyro_mag_strike,gyro_x_strike,gyro_y_strike,gyro_z_strike,gyro_x_std,gyro_y_std,gyro_z_std,pressure_01_mean_ratio,pressure_02_mean_ratio,pressure_03_mean_ratio,pressure_04_mean_ratio,pressure_05_mean_ratio,pressure_06_mean_ratio,pressure_07_mean_ratio,pressure_08_mean_ratio,pressure_09_mean_ratio,pressure_10_mean_ratio,pressure_11_mean_ratio,pressure_12_mean_ratio,cop_path_ratio,cop_ml_jitter,cop_speed_cv,cop_anisotropy,accel_spec_centroid,accel_hf_frac,accel_spec_entropy,accel_zcr,accel_jerk_ratio,gyro_hf_frac,heel_ripple_frac,impact_mag_roll3_std,loading_rate_roll3_std,stance_duration_roll3_std,impact_mag_stepwise_ac,loading_rate_stepwise_ac,cop_path_ratio_stepwise_ac,source_user,source_recording
right,0,concrete,0.128,1.3119999999999998,0.0,19913.0,1.3644984832769105,25026.376845240702,2218.75,0.6963242493147075,0.28695652173913044,0.5155680224403927,0.1823407379781357,0.38377660194401064,0.4751220815816011,3565.0,2584.397590361446,15.699999999999989,459.1927710843373,0.17767884198503528,0.0,-0.5609756097560976,-0.5609756097560976,0.6306289559141008,-1.225186220629635,7016245.402207936,5964488.0,2553416.0,2670702.0,3057946.9665411604,974244.6474441242,988501.1306434496,0.028619379501643314,0.02294585207804014,0.01915573063564952,0.1018064846973264,0.06433882660077854,0.11057551106034824,0.14905480058739887,0.0947623598517517,0.08410992750751731,0.12195986107549939,0.087578378126384,0.11509288827766251,3.643272513005499,0.028555979614034922,0.9433366892439324,11.131679171957774,2.9082246562321616,0.08297987631564588,0.45503805439646067,0.07317073170731707,0.36253380983577405,0.11375347998524755,0.0016956061694545907,0.0,0.0,0.0,0.0,0.0,0.0,Amy,REC_20260323_145055.csv
right,1,concrete,1.456,0.992,0.0,21263.0,1.494513880295927,29322.21727632479,250.0,0.07845907034531915,0.2726500566251416,0.49745186862967156,0.17382585751978893,0.4027875213409902,0.43155720649166623,3532.0,2556.746031746032,-33.69999999999999,429.3174603174603,0.1679155672823219,0.0,-0.3548387096774194,-0.3548387096774194,0.780447386902769,-1.0392273995375363,8406754.970974294,7342600.0,2682920.0,3092199.0,4436439.81143271,940356.667586308,749024.6513336013,0.03205959956541983,0.02966320037249728,0.025056650628589167,0.09850690672047183,0.06836566816700294,0.12020487350613067,0.12315381033679962,0.08674220083811889,0.08604687257488747,0.11634952661803508,0.08708365668167002,0.12676703399037714,3.001512694972333,0.03411257748084496,1.0432412036772052,9.827199240732849,3.6248875324672647,0.10792237975842285,0.45001815033349174,0.04838709677419355,0.3756595679465001,0.1796103030365784,0.003632871164206951,954.5941546018391,1392.1164754610154,0.2262741699796951,0.07392571421010556,0.3794839415588904,0.10351495306242485,Amy,REC_20260323_145055.csv
right,2,concrete,2.464,1.1840000000000002,1.0,37678.0,3.0754048003456718,40533.55641934223,2260.416666666667,0.7094007610389275,0.2565707133917397,0.4896120150187735,0.16959741878712326,0.3845909413116277,0.4409813143506664,3995.0,2727.4,0.0,449.38,0.16476497763437706,0.9864864864864865,0.0,0.9864864864864865,0.5411158549357156,-1.2691489884643996,8371160.718164417,7175223.0,3573561.0,2412917.0,4100014.824956125,1251819.4447156698,816684.868718956,0.04589963579477402,0.03769157439319498,0.033321111681454865,0.0978269902960084,0.05867370633814866,0.11189655593850065,0.1333822199408472,0.08595732199164038,0.07850211434577496,0.11573904328909096,0.08364009679548287,0.117469629195082,2.9262295586800655,0.04139911965927654,1.2298679213712322,8.195397675390378,3.7943095121732826,0.16065285128544032,0.46891448963810195,0.05405405405405406,0.47339819382669585,0.22881674807131883,0.0017238015891228842,9889.97767102299,1148.875381059105,0.16106313461910926,0.0914703846512966,0.5394527043963886,0.033364650588157456,Amy,REC_20260323_145055.csv
right,3,concrete,3.664,1.1039999999999996,0.0,38851.0,3.1883737341999723,40109.5007946995,187.5,0.058844302758989366,0.23841059602649006,0.5245489837862526,0.1610560733980772,0.41480650041481626,0.38826795924578017,4379.0,2927.285714285714,0.4000000000000057,456.70714285714286,0.1560172758772144,0.0,-0.3333333333333333,-0.3333333333333333,0.7532194274792448,-0.9815148211272979,8870822.023529837,7694458.0,3490483.0,2702467.0,4388286.607691429,1044192.6690285971,722980.2388545693,0.06612659216241278,0.07577473036943048,0.04180371870577326,0.08623786052413256,0.07064564930945294,0.10388951246888878,0.10349909716460887,0.08012298082084818,0.07825874774291153,0.09964862622614806,0.08093309257722903,0.11305939192816358,2.754938216358428,0.03574980634450646,1.016721969772573,8.617809576826646,3.4714280092498124,0.12477558201387108,0.4543487135880762,0.057971014492753624,0.448696303710212,0.14163782773991407,0.0012532942164147469,9833.32681920688,1179.1709609266134,0.0964434203734674,0.17189545929105018,0.5585520183704212,0.06079265418861765,Amy,REC_20260323_145055.csv
right,4,concrete,4.784,0.9119999999999999,1.0,42507.0,3.540474690867768,44622.930159280215,4614.583333333334,1.4482236734573495,0.2733265720081136,0.46272819472616633,0.17850480136676944,0.42421564584437943,0.4207878778523245,3944.0,2633.948275862069,-49.0,452.12931034482756,0.17165458960914845,1.105263157894737,0.0,1.105263157894737,0.9801319575812507,-0.4523373987096426,8564307.393231107,7915591.0,2679254.0,1874134.0,4975505.00566504,1375788.61783211,685250.1381838241,0.049656671183289806,0.06119042475894979,0.027499034489981606,0.09266932427390374,0.09351373642558374,0.10739089736792151,0.08965824218264178,0.0840353736687417,0.06945126301802068,0.10589844798355687,0.09446942769802774,0.1245671569493811,2.5831878869660363,0.050189723016779285,1.126639145915171,5.73975783027672,4.261479677721572,0.28085059057285605,0.4926094494247394,0.05263157894736842,0.4097927318664314,0.16019376682586808,0.004682625677778457,2518.647322142054,2215.030136802758,0.13979031916886578,0.26075366618843626,0.5663870616647708,0.12408239692429254,Amy,REC_20260323_145055.csv
right,5,concrete,5.712,1.04,0.9846153846153847,17085.0,1.0921403034474448,38703.58315453493,914.0625,0.2868659759500732,0.29691327780499754,0.4554140127388535,0.19047126405488551,0.3914404726253029,0.48659062456486135,4082.0,2782.651515151515,-2.3000000000000114,513.0227272727273,0.1843647055620593,2.421875,-26.0,-23.578125,0.7013319183884229,-1.1318772530240258,11562708.13671421,10814758.0,3380528.0,2304183.0,4746426.046824887,1375943.9375628866,819746.0834162168,0.05434101984699573,0.05945386730554573,0.031738858185184175,0.08697285671503635,0.07723176608314503,0.09942010835534017,0.101342190520269,0.08941221311698566,0.06836187416623561,0.11678963273529172,0.10105905093789987,0.11387656203207101,3.137194654595788,0.03403970946914513,0.9881724785006586,8.060665822601058,4.218759461008363,0.21073815720545971,0.5453991221155647,0.06153846153846154,0.49322558135857836,0.17638048521691618,0.0043435421111782425,13744.108895571708,2374.1951037708923,0.09776161482572462,0.6103840861419808,0.615977336825334,0.3150713518031837,Amy,REC_20260323_145055.csv
right,6,concrete,6.768,1.056,0.030303030303030304,39760.0,3.2759174348594433,42923.769172802145,2833.3333333333335,0.8892027972469505,0.26649687427645286,0.5283630470016207,0.16536281752859022,0.4302550349154943,0.3843367400940202,4319.0,2949.5522388059703,-33.69999999999999,470.95522388059703,0.15967007387916202,8.0,-0.5625,7.4375,1.0201697785684876,-0.6267211375731372,8811031.86832076,7723780.0,3758042.0,1963320.0,4669533.74902925,1144640.3631860386,722687.7024960335,0.03489019330027325,0.03559862362109098,0.014350774213136321,0.10600141686064163,0.07887865600647707,0.10932091893533043,0.12340856188644873,0.08010828863475355,0.10045541949195426,0.1097560975609756,0.08525452889383665,0.12197652059508148,2.7716591131771717,0.03973881145820986,0.9892848522761175,6.881735622461582,4.963348072569389,0.2435581783172017,0.5685940585305173,0.07575757575757576,0.42318145375215616,0.28533677290706333,0.002520670755807592,13952.178551514218,1850.6893549935235,0.07892612579706021,0.29966398613240375,0.5514347555738273,0.08115504075577921,Amy,REC_20260323_145055.csv
right,7,concrete,7.84,0.9600000000000009,0.016666666666666666,41382.0,3.432128526685254,42749.12810806789,250.0,0.07845907034531915,0.26861702127659576,0.46421663442940037,0.1842130633887684,0.40934562545191616,0.45001839994071613,4136.0,2720.655737704918,-11.199999999999989,483.5163934426229,0.17772053506869123,9.0,-0.9830508474576272,8.016949152542374,0.9027592702173342,-0.6714966082107363,8524642.66625112,7511198.0,2889392.0,2811201.0,4763652.182455293,1163856.691489507,877653.5870437904,0.03819595083152567,0.04247409014220294,0.017733188720173536,0.09651723306820921,0.08775006025548325,0.1093998553868402,0.1079235960472403,0.08792480115690528,0.07320438659918052,0.11320800192817547,0.0962882622318631,0.12938057363220054,2.7000274156937794,0.03236948299065013,0.9898103249480011,8.89662539915677,4.094203228637659,0.2343280023420373,0.5033426073263462,0.05,0.3909106191065345,0.17629435540434774,0.004109997637207616,13583.87964954539,1341.5283974321599,0.0514328040586288,0.14524646160807453,0.47408360244983044,0.09241468314264711,Amy,REC_20260323_145055.csv
right,8,concrete,8.816,1.0239999999999991,1.0,47633.0,4.0341479687340485,49501.57284369861,1864.5833333333335,0.5851738996588387,0.3008192524321557,0.4815668202764977,0.18647316384974677,0.39079774946181556,0.4771602807497553,3906.0,2737.123076923077,5.0,493.60769230769233,0.18033814280013266,2.609375,0.0,2.609375,0.6979677536884046,-1.1109473309808153,8848630.467754714,7524638.0,3750712.0,2758667.0,4585556.664938249,1357131.255005139,853027.8613612456,0.04066032274201435,0.040930117529354236,0.023179868812284656,0.09450686571526531,0.07430598101319184,0.10746263623231578,0.11455037012472388,0.08919528083951145,0.07359214897168842,0.11958091876366539,0.09727788301023534,0.12475760624574933,2.450667393365353,0.03541277336479666,1.2067835557069992,7.753805440355065,4.3681908181995155,0.26486916013761236,0.5741625068437137,0.0625,0.4422951634509825,0.21287232388906968,0.0050518905670953185,4157.122682818009,1305.052170980717,0.048880807412861944,0.14313659300014472,0.43070807008638007,0.12931780977157847,Amy,REC_20260323_145055.csv
right,9,concrete,9.856,1.024000000000001,0.0,21067.0,1.4756375708027956,37424.21774733575,703.125,0.22066613534621013,0.2926028780610957,0.46806362029790455,0.18682932144966935,0.39958820121933736,0.4675546497103473,3961.0,2682.4153846153845,-16.80000000000001,484.03846153846155,0.18044873449302296,0.0,-1.453125,-1.453125,0.9090096924367278,-0.7643701590106522,10964681.964495368,10434800.0,2007303.0,2703689.0,4439299.098920829,1302073.556537919,842705.5420055258,0.028407233434849192,0.025963970474371552,0.015439586595318801,0.102657191853496,0.0774732302115774,0.1170472077404406,0.1277149755960472,0.09112912013856628,0.07644660093945183,0.11562483869302638,0.09570020131110309,0.12639584301175177,2.6921460365915606,0.029375094136283118,0.9930851613137798,10.328663435787385,4.470385560379617,0.2527441409862405,0.5618622909009281,0.0625,0.4320564087394513,0.1929576547293325,0.004498223675778513,13889.603918038843,832.7851929891872,0.03695041722813585,0.13077874465262299,0.09709598857049798,0.11187329833759455,Amy,REC_20260323_145055.csv
right,10,concrete,10.896,1.0239999999999991,0.03125,19870.0,1.360357252112601,35751.088892507876,1710.9375,0.536954262675778,0.27249683143219267,0.5039290240811153,0.17454003553619532,0.40522725970080814,0.43072135784967475,3945.0,2684.153846153846,-15.5,452.82307692307694,0.16870235570585201,9.0,-1.532258064516129,7.467741935483871,1.0003647868793013,-0.5193875201066467,10687802.77707827,10195340.0,2189341.0,2343279.0,4391129.188787836,1279070.2914339302,769181.7386794734,0.038923597180030946,0.037719951854186966,0.020817332492692152,0.09748380810454518,0.07368602051928698,0.1164612827420187,0.12327620794405914,0.0847137043617814,0.07987619648077034,0.1098584283831031,0.08982633117441394,0.12735713876311114,2.5841364886022133,0.03079585729486561,1.097143880459082,8.64556449597647,4.125650630769098,0.22836856586981802,0.5434656202317427,0.046875,0.45969157531872973,0.17067507084573735,0.004410148233003336,15694.846999360438,630.9092033626805,1.041481514324134e-15,0.0806068877592916,0.1175592053476988,0.09373859405657846,Amy,REC_20260323_145055.csv
right,11,concrete,11.936,1.024000000000001,0.984375,18927.0,1.2695390896022807,35457.898414880714,510.41666666666663,0.16018726862169327,0.2782206222679352,0.4934430444844433,0.16519377330955085,0.40935045982070467,0.4035509655510189,3889.0,2656.5538461538463,-13.400000000000006,423.24615384615385,0.15932150385693436,1.380952380952381,-49.0,-47.61904761904762,1.211828513971715,-0.08548889618877986,10614418.178744843,10051176.0,1357342.0,3130073.0,4392323.60826956,1268218.66395649,728709.9863343595,0.03266232713289629,0.02802358173689453,0.019452616460886283,0.10209872825407121,0.07172971345178253,0.12270379207301535,0.13467997868841067,0.08278510041928236,0.08479464430494105,0.10720076907039773,0.08240867289026849,0.1314600755171535,2.6298905907996017,0.03516494018395416,1.012715324907507,7.864583375640145,4.56374269891954,0.25239892078936277,0.5869376979772185,0.0625,0.44879868817358765,0.19297390426945774,0.005072912473582695,1072.5093628184811,644.7315731061682,1.041481514324134e-15,0.03677067634208011,0.17818192251783987,0.16921871769561228,Amy,REC_20260323_145055.csv
right,12,concrete,12.976,1.0879999999999992,0.0,19784.0,1.3520747897839822,33182.23928549729,442.70833333333337,0.138937937069836,0.24685077519379844,0.500968992248062,0.18119984471471648,0.3956583936481938,0.45797043010710214,4128.0,2725.231884057971,-33.599999999999994,479.31159420289856,0.17587919655819742,0.0,-0.5441176470588235,-0.5441176470588235,0.6771509613797637,-1.15093958569152,10962824.286494106,10333396.0,2598620.0,2579073.0,4511806.70780438,1024629.5895247279,933622.2247160885,0.032663089432623735,0.03007322871075989,0.017863125594950038,0.09890396243372457,0.07247355629889227,0.11599597960019357,0.13017373870592053,0.08954430150871352,0.07821166660462346,0.11679899596364622,0.09165554320600296,0.12564281193994925,2.5917125994157186,0.033103487718604226,1.1790151950600638,9.272903506199826,4.681248170627094,0.22635795290380506,0.5399257250503212,0.07352941176470588,0.425380374088216,0.2582467651220543,0.0019599092361107452,521.3914076775453,713.470381171516,0.0369504172281356,0.16239596655757174,0.03204893959972386,0.2511340549522181,Amy,REC_20260323_145055.csv
right,13,concrete,14.08,0.9759999999999991,0.9836065573770492,46135.0,3.8898790318936878,47717.949976921685,3145.8333333333335,0.9872766351785994,0.28878730841624095,0.498252218338263,0.1661118105660743,0.4089027165754685,0.4062379725845222,3719.0,2664.6451612903224,71.30000000000001,425.9758064516129,0.15986211321485644,1.2666666666666666,-7.0,-5.733333333333333,1.1755961333762066,0.1667458840401621,8592825.555678062,7464773.0,3171612.0,2838079.0,4628361.419887798,1272220.873566689,736956.6179798874,0.04332114667570578,0.04610551547140575,0.0300167062127742,0.09472906881022711,0.07854946491695318,0.11484310687133795,0.11138080480364149,0.07946951721466274,0.07467556050554452,0.10764611883201781,0.08664229335141156,0.13262069633431794,2.8988583451179952,0.02799526311811579,1.1651594249099204,10.254288279397215,4.2633241930788905,0.28767658248736283,0.5249418239619584,0.04918032786885246,0.42911699546397836,0.20635349385022392,0.00589450057562146,15467.088252156576,1541.4760345727202,0.05619015334854791,0.25407898755391384,0.11822602149980767,0.2295224026363084,Amy,REC_20260323_145055.csv
right,14,concrete,15.072,1.024000000000001,0.984375,17918.0,1.1723646187932528,33466.428596430786,437.5,0.1373033731043085,0.2913873130479629,0.49432697266632286,0.1712656055456473,0.39237361330775883,0.436486042223119,3878.0,2743.107692307692,-46.80000000000001,452.94615384615383,0.16512153537257016,0.9841269841269841,-7.0,-6.015873015873016,0.9466203024030362,-0.4764925507221709,10650929.29798452,10142806.0,2919935.0,1428202.0,4332186.613421325,1555424.526717214,700993.2171332067,0.04624176958194524,0.04563044721876367,0.03240569371067066,0.09365570773182577,0.06914112012204014,0.10981368689078082,0.1236946304584357,0.08385772453477808,0.07413265134434836,0.11289834101692635,0.0874078810108692,0.12112034637861606,2.6688476746470986,0.03364566850552685,1.3090180854449898,9.84464233805025,4.122308794785089,0.2462220996352976,0.5715006616854811,0.046875,0.4933754222489777,0.19781396370188534,0.005577485887126746,15780.030872382136,1562.1556333480114,0.05619015334854791,0.2712348579304589,0.1449901675707391,0.24254153593438685,Amy,REC_20260323_145055.csv
right,15,concrete,16.112,1.0080000000000027,0.015873015873015872,40808.0,3.376847906026798,42441.994792893514,334.375,0.10493900658686436,0.27851260294484653,0.4564512103818318,0.1650431822192871,0.412892610915964,0.39972423302274274,4007.0,2744.546875,21.5,435.8203125,0.15879499689725649,1.0,-0.5806451612903226,0.4193548387096774,1.1370404930882452,-0.0013130433825989662,8436768.12473331,7232644.0,3560122.0,2488664.0,4529484.276369372,1453211.0797992076,811075.0320555791,0.04678026313542195,0.05569566925323511,0.03587796255073982,0.08950134072678209,0.07788170861537937,0.11500646167684785,0.10654650414742871,0.0791455784481728,0.07480743064371966,0.10229944606065437,0.08589760377111431,0.130560030970504,2.672393955596557,0.028643443817444495,1.195226829374686,10.314289346225552,4.4706879375653035,0.26094135486883796,0.5794408311937422,0.09523809523809523,0.41292841412926806,0.2501606159967133,0.005677987971244734,14991.820647717652,1594.260652577389,0.024440403706432225,0.10477678283438234,-4.557634489264539e-06,0.1476731134284859,Amy,REC_20260323_145055.csv
right,16,concrete,17.136,1.0079999999999991,1.0,17918.0,1.1723646187932528,35336.6971999365,250.0,0.07845907034531915,0.28442437923250563,0.4655129169801856,0.16274487600498244,0.4059279809761069,0.4009205662873888,3987.0,2759.6875,34.599999999999994,431.9453125,0.15651964669912807,1.0952380952380953,0.0,1.0952380952380953,0.9964145171710238,-0.3426665351295579,10918236.16183081,10481225.0,2631607.0,1557706.0,4692775.005435058,1239667.5982725606,720940.7300107855,0.05411618163288416,0.05890612614652927,0.03882912467444231,0.09081644207903974,0.07349677273241989,0.11074057298154229,0.10488053448080625,0.07779979617257389,0.0719680670365757,0.11007247197372891,0.08494507983240857,0.12342883025704904,2.9362343305787975,0.019127798015161377,1.129162967412129,15.779095704147034,4.4535245123535745,0.2660122743092116,0.5753907550056179,0.06349206349206349,0.4243659965325142,0.22533921661062356,0.005640655365850551,13215.54766175053,93.9061200082371,0.009237604307033834,0.03042324230270566,0.009843511217799663,0.1188766086520353,Amy,REC_20260323_145055.csv
right,17,concrete,18.16,0.9920000000000009,1.0,17970.0,1.1773726192710223,36954.6933149228,906.25,0.28441413000178195,0.298492950899368,0.4834710743801653,0.1771655145549787,0.4020918239798143,0.44060959211075956,4114.0,2730.2063492063494,-8.699999999999989,464.87301587301585,0.17027028598338398,1.3548387096774193,0.0,1.3548387096774193,0.9897515831072693,-0.37694417855856344,11192153.935210953,10493443.0,2504547.0,2979800.0,4705258.884694915,1397286.726002913,910769.5084658687,0.03467962768091254,0.03780748010209124,0.020238019104317946,0.1000680220693825,0.07851025854200216,0.1124864101207537,0.1212362575071365,0.08481828805311535,0.07321965314558466,0.11985837456323435,0.09234722650186333,0.12473038260960563,2.531135762869971,0.030957889324362914,1.1203834542484714,9.951111936356618,4.606848127724136,0.28744815958856434,0.5976485200913831,0.06451612903225806,0.4437900429408556,0.18185340247988724,0.003227726357305116,13200.562159746578,357.03039523967885,0.009237604307033988,0.0820611030823981,0.013672291109223283,0.3520667035769001,Amy,REC_20260323_145055.csv
right,18,concrete,19.168,0.9920000000000009,0.0,19066.0,1.2829258601101645,37384.24221513658,437.5,0.1373033731043085,0.29602977667493796,0.4843672456575682,0.16921337847356344,0.4055065779009793,0.41728886211738425,4030.0,2794.3492063492063,-46.30000000000001,453.968253968254,0.16245938515371158,0.0,-0.12903225806451613,-0.12903225806451613,1.1465632656690283,-0.07734284663456004,10956080.979481943,10256427.0,2866179.0,2574186.0,4568336.036999588,1353649.1153597,833825.5274958475,0.0455851946104383,0.04729499443320988,0.03262820658471746,0.09343118765763105,0.07500397627865761,0.11294335507032333,0.11708436527231829,0.08269523528208858,0.07683306446115744,0.10506464293017655,0.08651814319147486,0.12491763422780669,3.23702037583257,0.02532856072499964,0.9697485492324762,11.944116378349214,4.894043493529962,0.3041746886732134,0.6230981468380895,0.06451612903225806,0.4463985869883752,0.23953135093443376,0.0032281726563482796,648.3085685071777,338.0204320747509,0.00923760430703289,0.2499450053880822,0.13592357711827385,0.25584275517138927,Amy,REC_20260323_145055.csv
right,19,concrete,20.176,1.1040000000000028,0.0,49604.0,4.223970448381812,53277.93461649954,2253.4722222222226,0.7072213424182242,0.28904665314401623,0.4571501014198783,0.19816896981740392,0.3773027282958036,0.5252253825788771,3944.0,2818.0857142857144,21.599999999999994,542.9071428571428,0.19265103971287498,0.0,-1.4927536231884058,-1.4927536231884058,0.4875392056478094,-1.4138354257310382,8040325.019495481,7010289.0,3114190.0,2409252.0,4197834.627582205,1251579.508615901,682976.7637373216,0.03462836981537619,0.03117110906086198,0.0233289061470299,0.09248932912919612,0.06853689941500309,0.1090253769022538,0.12499366337838248,0.09731530015309277,0.07608001378848864,0.12138939300234201,0.10085366966431113,0.12018796954366184,2.9593977809458836,0.03271194917121159,1.0547550242592674,10.030073421304794,5.11056143706045,0.26206104623881143,0.5849389108506259,0.07246376811594203,0.4724292276479858,0.2731955816999056,0.0015801584999180236,17955.874693258473,942.7344439123269,0.0646632301492392,0.4305893971339828,0.12242134340359799,0.1764479547526171,Amy,REC_20260323_145055.csv
right,20,concrete,21.296,0.9280000000000008,1.0,48796.0,4.146153825573394,55797.11800801185,2968.75,0.9317014603506649,0.2941813261163735,0.48119079837618406,0.1723351602078232,0.4010183853539084,0.42974378856861883,3695.0,2616.3050847457625,-24.0,432.85593220338984,0.16544551120094325,0.8103448275862069,0.0,0.8103448275862069,0.9230484104533379,-0.49123376573416255,8365358.18502866,7316943.0,3660304.0,1744631.0,4543945.751299842,1555014.63015359,719772.8722553896,0.03824127699822495,0.035326051748487325,0.02623702724763867,0.09878726629610914,0.07134527927857894,0.11741231650276623,0.12161671914072118,0.08671175548386262,0.07814747152796674,0.11176325779660799,0.08562340472396056,0.12878817325507574,2.787561710970266,0.032696310202335564,0.9969064815381506,8.927642435789425,4.672246166590998,0.3083852437147052,0.59128054422744,0.034482758620689655,0.4600467732819421,0.20433197810020196,0.0033010117046586647,17402.563067931507,1304.901271729362,0.08908422980528145,0.5278173861149842,-0.005485761507259267,0.43735829107108143,Amy,REC_20260323_145055.csv
right,21,concrete,22.24,1.120000000000001,0.0,39497.0,3.250588509366109,40576.64159340938,390.625,0.12259229741456118,0.28888295029396044,0.4572421165152325,0.16783447743220517,0.4051735964676053,0.4142285649787511,3742.0,2771.9295774647885,17.599999999999994,451.27464788732397,0.16280162799087433,0.0,-2.585714285714286,-2.585714285714286,0.9862494752268319,-0.2974729759884345,7545787.744987133,6655987.0,2681698.0,2333505.0,3909882.6264173607,1132191.0539037415,769120.9643913981,0.044342934956581835,0.04398725655083407,0.02532430248924073,0.09521510921867618,0.08167900531993273,0.11136798995970673,0.11192691316873893,0.08085078274654865,0.07292423541845565,0.11049911842566576,0.0869836946856565,0.13489865705996232,3.307749761152292,0.025114441281216204,0.8254078728790766,11.20225852496803,4.753487810189905,0.2630500969843429,0.5661494322839548,0.07142857142857142,0.40799028254788205,0.2947628833758414,0.0016255478765332336,5616.578347475786,1330.9489464506623,0.10653324989567088,0.37281494669534837,0.0815689172177358,0.46902111946281333,Amy,REC_20260323_145055.csv
right,22,concrete,23.376,0.9439999999999991,1.0,43929.0,3.677424242394465,44919.30905523815,2329.8611111111113,0.7311949472459605,0.2696384887197608,0.47159554226692035,0.166295274911974,0.4162152512742226,0.3995415218513056,3679.0,2707.5333333333333,-5.900000000000006,434.225,0.16037660355058725,1.0338983050847457,0.0,1.0338983050847457,0.8967554249753518,-0.5072333549984167,7813340.9346262375,6938207.0,3220481.0,1593136.0,4504299.465793314,1420110.7679886213,742568.6214279345,0.058448033880777094,0.06089798832886022,0.03103686011868121,0.09652081845714426,0.08902321916627681,0.10393839411026028,0.09580060571738114,0.07772141924999384,0.06583483121168099,0.11086967227242508,0.08857385566198016,0.12133430182453894,2.552864112007632,0.03334928892565492,1.1798851942781974,7.723888708856498,4.379360192068202,0.3238960088264987,0.546873973937866,0.0847457627118644,0.4705422666748117,0.22200877863923563,0.005031957695060457,4651.195437734309,1342.60593763323,0.10653324989567088,0.03319333132974915,0.22187275300760995,0.5291754901323084,Amy,REC_20260323_145055.csv
right,23,concrete,24.336,1.0400000000000027,1.0,47087.0,3.9815639637174685,49661.54772054532,468.75,0.1471107568974734,0.293825222396651,0.5020931449502878,0.17512008559655792,0.3941084071300112,0.44434496303099974,3822.0,2662.242424242424,3.3000000000000114,450.3560606060606,0.16916418148291484,2.353846153846154,0.0,2.353846153846154,1.0075553963917243,-0.367910174104479,8478443.998443583,7414682.0,3517362.0,2129476.0,4329236.7147674,1272176.8408828757,709534.5543833325,0.034807749220297314,0.03395975140574135,0.020858469733876662,0.1013272019486876,0.07421972818539851,0.111696678580372,0.12780863705693538,0.08427049422906185,0.07290504700981174,0.11779770983677466,0.09084959136749608,0.12949894142554694,2.736093648043358,0.021942949618369924,1.0261896287578633,12.938020784295915,4.342998778874988,0.26070200652418335,0.5823807455176354,0.07692307692307693,0.4235130238565096,0.20316032105944565,0.004179662639727431,3812.7786892676813,1097.7609620012595,0.08812112875657875,0.0862447028334571,0.18166275438594726,0.20311490905579602,Amy,REC_20260323_145055.csv
right,24,concrete,25.392,1.0399999999999991,0.9846153846153847,47542.0,4.025383967897952,49647.97245608324,343.75,0.10788122172481383,0.27851524090462143,0.48426745329400195,0.1758707425955721,0.3937660042149153,0.44663770034199246,4068.0,2674.4848484848485,-31.30000000000001,453.9621212121212,0.1697381540483582,0.546875,-66.0,-65.453125,1.1645266054663217,-0.12819987694266732,9081626.897231685,7770205.0,4116009.0,2271196.0,4491029.083616038,1453937.1341660807,817693.7734201541,0.042103831947245575,0.040545899521856374,0.02599197806431145,0.09600262865689228,0.07368737111649935,0.1115479616578667,0.12019873552539148,0.08552199234063768,0.07198214326180062,0.1137290670534116,0.0903487502549344,0.12833964059915248,3.18093436845413,0.030787218798332763,0.9335771667263342,9.040759003997636,4.5073979206851105,0.26127421182614335,0.582792006904652,0.06153846153846154,0.44006234088210766,0.24003171043577928,0.005255440382140204,1967.8142696912555,1112.3546282234104,0.055425625842205194,0.061400262681679044,0.3575538011106671,0.26667056550824403,Amy,REC_20260323_145055.csv
right,25,concrete,26.448,1.120000000000001,0.0,47269.0,3.9990919653896615,48517.96473472481,1312.5,0.41191011931292554,0.2938062466913711,0.4761778718898888,0.18047044163908976,0.39954855578706544,0.4516858815405293,3778.0,2757.9718309859154,-25.599999999999994,482.76056338028167,0.17504187604690116,0.0,-1.3428571428571427,-1.3428571428571427,0.7955818755766869,-0.8431081305969021,8158174.035671953,7059158.0,3507588.0,2102598.0,4103690.041184522,1304112.27575695,675133.2401067589,0.044521387424929525,0.051078563549454586,0.027372635535400584,0.09314356334518119,0.07894656207868611,0.10668688973321895,0.11062936634391471,0.08640764799607795,0.06969297708052458,0.11346365976222576,0.0940627936430118,0.12399395350737429,2.8463149953905775,0.03313239959816189,1.066348966405948,8.97175643362963,4.040091045003705,0.18820863189367457,0.5040515239359554,0.08571428571428572,0.4445906561699093,0.22515876814092217,0.0026376427155089363,229.01164453776397,526.9433279142394,0.04618802153517013,0.044871085548822465,0.054618149841509804,0.23076835527362105,Amy,REC_20260323_145055.csv
right,26,concrete,27.584,0.9920000000000009,1.0,27494.0,2.0946071683148095,35494.42667518381,399.30555555555554,0.1253165706904403,0.29310800105624507,0.4652759440190124,0.17449811961952746,0.3968820737061616,0.439672464895846,3787.0,2671.6984126984125,-19.30000000000001,449.3968253968254,0.16820642002887412,1.6451612903225807,0.0,1.6451612903225807,0.9852628494603367,-0.38897117600138387,7931996.007793562,6962641.0,3251024.0,1966986.0,4381805.255016777,1720464.6973241358,781905.4690748152,0.05874629419488228,0.06035635140835448,0.037263021560507856,0.09060285057362003,0.07605886511760548,0.10271095611257332,0.1047903657978695,0.08421609225449599,0.06715305049400833,0.10684601080104804,0.09028202736503146,0.12097411432000334,2.890797555126213,0.020876330384190754,0.991443972175553,14.82248735290004,4.291776474845299,0.15348696580096652,0.4884690768346197,0.06451612903225806,0.44389559841977316,0.22849552078112234,0.0027775396709090773,11496.720242457572,543.9802501956123,0.06466323014923835,0.033903939667943334,0.03592553655221931,0.0692102758569411,Amy,REC_20260323_145055.csv
right,27,concrete,28.592,0.9760000000000026,1.0,49614.0,4.224933525396768,51702.4767201727,1152.7777777777778,0.36178349103674945,0.2865211810012837,0.4785622593068036,0.1781879674473257,0.39888216752566097,0.44671830920014816,3895.0,2594.3064516129034,-39.0,444.3225806451613,0.17126834818181252,0.09836065573770492,0.0,0.09836065573770492,1.0502030512886198,-0.3686379608697634,8750541.140004085,7696902.0,3071430.0,2809980.0,4650285.345407828,1142371.788646052,907955.6441423543,0.03288839704812648,0.029083539015337556,0.019024290163944614,0.101332322020305,0.0727710184212326,0.11745323195334695,0.12703376500649685,0.08588907471074995,0.07824205611543888,0.11417682642511205,0.09229889273657574,0.12980658638333323,2.750527517546423,0.03311624456715449,1.1359129715879521,8.683396159854512,4.249696293647838,0.30011429608405776,0.5554627231959884,0.04918032786885246,0.4541035735430294,0.18460899672762987,0.005925245385040363,12150.747919366953,487.7081899552058,0.07892612579705945,0.00460029037690896,0.19779474898212207,0.17890584094766485,Amy,REC_20260323_145055.csv
right,28,concrete,29.584,1.0719999999999992,0.04477611940298507,44728.0,3.754374095889424,46680.39980548582,515.625,0.16182183258722074,0.28907649015093373,0.45535942696341775,0.1769174833675208,0.3883968786290279,0.4555069649165052,3909.0,2709.970588235294,28.19999999999999,463.7279411764706,0.17111917863228385,8.666666666666666,-1.515625,7.151041666666666,0.907475292236682,-0.6610888571692315,8999469.174322728,7380473.0,4592484.0,2329840.0,4312039.290921899,1548080.642102747,758484.6551880231,0.04255526975547814,0.04018385265739806,0.028565536851930234,0.0956435385667307,0.06797338803329753,0.11100619715864074,0.12136011895071576,0.0839383974212874,0.07358990221296086,0.11732816722560478,0.0929790859462334,0.12487654521972238,2.8279767734215797,0.027374124924661188,1.151466478648826,11.39003218299499,4.318707758665264,0.27198222548565665,0.5811482878607008,0.05970149253731343,0.43630135170946505,0.2933634737550605,0.0034856142953262445,11620.227708612269,405.6300171844407,0.05143280405862752,-0.048417708009551724,0.26110611461890737,0.017819915943804554,Amy,REC_20260323_145055.csv
right,29,concrete,30.672,1.0079999999999991,0.0,46915.0,3.9649990390602308,50821.83039796973,2618.0555555555557,0.8216408200051478,0.25793844650708353,0.43478260869565216,0.18888242309708866,0.397855533725506,0.4747512780034121,4094.0,2711.921875,-41.0,496.71875,0.18316115761999965,0.0,-2.0,-2.0,0.7174504296388419,-1.0148166570286858,8094289.1093473425,7011511.0,3490483.0,2042733.0,4475670.322413723,1437622.31837115,732057.9942183436,0.048103570461446275,0.05568583165766897,0.02711407385214591,0.09045130586588156,0.08378513853759154,0.10216463186278181,0.1020205919464402,0.08834256149064029,0.06576862580158213,0.11443107113843388,0.10053986160644839,0.12159273577893906,2.7366197126238894,0.03187958112753028,0.938966897958149,8.86081011034316,4.317521264905121,0.24453589219427485,0.5713056059264998,0.047619047619047616,0.43374179622458764,0.22513934777084788,0.0025418372485196137,2447.4669218058543,1078.0551059827574,0.04888080741286085,0.015527139372917139,0.11432035658444199,0.08964254630442513,Amy,REC_20260323_145055.csv
right,30,concrete,31.696,1.0079999999999991,0.9841269841269841,45551.0,3.833635334220276,47606.28229551222,640.625,0.20105136775988033,0.2843501326259947,0.4708222811671088,0.17651282413456218,0.3990724719564015,0.44230769230727485,3770.0,2654.90625,5.800000000000011,453.0546875,0.1706480925644738,2.274193548387097,-10.0,-7.725806451612903,1.0035756435090708,-0.4012587910316059,8660497.260739535,7378030.0,3406184.0,2994461.0,4638649.96685762,1387770.9618582812,896903.5586787028,0.0429099426768836,0.04312769989524112,0.023258825052673706,0.0950010005061384,0.0796344032863684,0.10929058229457254,0.11334557482020316,0.08334804665889803,0.07201878597408101,0.11504054992525631,0.09316477747566417,0.12985981143401956,2.6374439686443623,0.03258884443413383,1.1476712960927793,8.74838677138391,4.3493908347961145,0.23922357915296805,0.5510990090129768,0.06349206349206349,0.4218960324789027,0.22161461789810513,0.004486287955797652,1104.5960045798568,1179.411636013087,0.036950417228136224,-0.10239258274689436,-0.08772809270310133,0.0870054467752422,Amy,REC_20260323_145055.csv
right,31,concrete,32.72,1.024000000000001,0.03125,44273.0,3.7105540917089406,45639.87698274394,515.625,0.16182183258722074,0.27222659323367426,0.4767899291896145,0.1775799454384329,0.3944071497662888,0.45024524921389164,3813.0,2656.1384615384613,11.0,456.16923076923075,0.17174151023174186,3.0,-0.8709677419354839,2.129032258064516,1.1360036435085388,0.013411282423663629,8202846.552122562,7188662.0,3061656.0,2497217.0,4354927.88716553,1275382.5292616163,770492.6182567157,0.03492056137017881,0.034109667591471715,0.02235749989863828,0.09700606432704505,0.07635144136369167,0.11179908369003007,0.12223065294325482,0.08613429559395074,0.07514089279405035,0.1165370201970472,0.09144564984448217,0.1319671703861592,2.5196870407629715,0.026684665988666704,1.1699508606302162,10.45937947412513,4.405843122696642,0.25521328026103257,0.5834606440760888,0.0625,0.46343802389948147,0.19989362630010432,0.0024258307070186267,1321.2332622719505,1179.411636013087,0.009237604307035078,-0.07360918134728273,-0.06356788345984186,0.2336794910355831,Amy,REC_20260323_145055.csv
right,32,concrete,33.76,1.0720000000000027,1.0,36247.0,2.9375884795055143,41651.335092647394,398.4375,0.1250441433628524,0.27655629139072846,0.4966887417218543,0.17503900844126127,0.3930727624592686,0.4453094316328581,3775.0,2667.220588235294,-22.69999999999999,452.2647058823529,0.16956404276317602,1.5223880597014925,0.0,1.5223880597014925,0.829314833407556,-0.7096264494723168,8750494.569347152,7735997.0,2806314.0,2974913.0,4493971.265781278,1246113.70552476,800072.169171551,0.0437776711822728,0.039912665200059545,0.02744650467825617,0.0968787733430372,0.07303813729868612,0.11032634765205021,0.120476812720887,0.08497499600266857,0.0729168389654355,0.11457178931582225,0.09006401243859272,0.1256154512022319,3.264221664381534,0.02922683940257484,0.8705596294546593,9.431246789324158,4.198433042362685,0.2721420904489823,0.5818649086716862,0.05970149253731343,0.5038246641829328,0.22085917518012826,0.003248127188188971,5043.384710026956,121.11474952326633,0.033306655991459905,-0.11303183072861243,-0.0665395931344692,0.1813891392652578,Amy,REC_20260323_145055.csv
right,33,concrete,34.848,1.1200000000000045,0.9142857142857143,15726.0,0.9612581371149683,36424.94619076327,442.7083333333333,0.138937937069836,0.2752245113576334,0.4923402007395668,0.1960857380588977,0.3865206050056406,0.5073099222119148,3786.0,2759.1408450704225,-26.599999999999994,526.6267605633802,0.19086621167029946,0.09375,-5.5,-5.40625,0.442984971329478,-1.3988323180255355,10471464.375997752,10049954.0,2284635.0,1852143.0,4290814.167062285,1274132.9074456894,767921.3868275787,0.0363248408618727,0.03871382702310885,0.02427781662999811,0.0974226514683587,0.07537047151848657,0.10721341099239914,0.12564127433013952,0.09594229679579784,0.06780024400328741,0.11624867916630509,0.10014344126309987,0.11490104594714623,3.0470876381791308,0.01705480100811675,0.9600220457905568,18.372127425571147,4.527259002799306,0.23798794772376128,0.5513679454203005,0.07142857142857142,0.4477557613672372,0.2758847583958548,0.0021221299166316416,14722.201635625022,59.174399191509345,0.04800000000000187,-0.05035499926975073,0.2532094364595475,0.23379892115097542,Amy,REC_20260323_145055.csv
right,34,concrete,35.984,1.024000000000001,0.984375,52739.0,4.525895092570417,53568.90204213635,2798.6111111111113,0.8783057041434339,0.2737580993520518,0.48785097192224625,0.19018698872525533,0.39653271292410186,0.4796249654224064,3704.0,2664.9076923076923,12.0,491.31538461538463,0.18436487914143368,0.06349206349206349,-7.0,-6.936507936507937,0.6039035108748706,-1.2479047417381206,9325903.182400297,7975456.0,3948632.0,2787988.0,4736154.05968081,1168755.1775475387,764305.2844365293,0.03261189592365733,0.03227705967590161,0.02051737973317015,0.09776063826716469,0.07655049388346544,0.11492388248402312,0.11848584739549357,0.09096577165322511,0.07502063861354702,0.1189476904958463,0.0992212170720302,0.12271748480247548,2.525015504629827,0.025794171525402643,1.245365005860334,12.508233287809656,4.595413837127473,0.21200776348610229,0.541004979782601,0.0625,0.46218656780214057,0.22727896017716182,0.001702748380891383,18543.011594668224,1373.1394180550417,0.04800000000000187,0.20520148583636724,0.24730258174634562,0.2627258007233782,Amy,REC_20260323_145055.csv
right,35,concrete,37.024,1.024000000000001,0.015625,43000.0,3.587954387705083,45197.641022513555,187.5,0.058844302758989366,0.26322418136020154,0.501007556675063,0.1721259779885113,0.4053829851305973,0.4246008942208138,3970.0,2707.6769230769232,4.300000000000011,450.31538461538463,0.16631060403752293,12.0,-0.49206349206349204,11.507936507936508,0.9253032354573665,-0.5479496655799352,8518832.012737192,7297396.0,3543018.0,2601064.0,4508815.13012212,1379742.2628265382,796415.2071788319,0.04198319308632435,0.04209683009562554,0.02625583099903977,0.10079034539968976,0.07560270228808118,0.11306882425468325,0.11647225268325388,0.08365388439707043,0.07382428309251757,0.11310291535747362,0.08847209359144086,0.12467684475479975,3.0501045024555355,0.030212389403482583,1.0507768824898334,9.839596476334027,4.331764463190056,0.19516181410628486,0.5389499713844415,0.09375,0.4216609694652806,0.24545038751339684,0.0034124994274694065,19186.28575311022,1439.5201993668893,0.0554256258422062,0.14780373898104865,0.2506367640135945,0.1950147805286478,Amy,REC_20260323_145055.csv
right,36,concrete,38.064,1.0720000000000027,0.9701492537313433,42928.0,3.581020233197402,45304.88966988,389.5833333333333,0.12226538462145567,0.2807603390701259,0.4978165938864629,0.1673940865684376,0.4150997057504457,0.4032623590172417,3893.0,2688.794117647059,-9.0,435.0,0.16178256161191873,1.1384615384615384,-30.0,-28.861538461538462,1.1213601662208899,-0.14224185041568926,8447827.14964724,7422012.0,3207042.0,2448347.0,4342804.65941948,1296949.884833353,717984.7789578154,0.042376311270086085,0.0470088274866275,0.025503451142541485,0.09995186996138658,0.08180465767510037,0.11409553812664762,0.11359782977280433,0.07962786729235716,0.07223881250068366,0.11196250232446209,0.08776621927608047,0.1240661131712226,2.7509035848509282,0.03008794391172672,1.037272992420994,9.222265377738397,4.0783593879458495,0.20867279308385314,0.5233617466578242,0.08955223880597014,0.4204763640690075,0.23658036003250218,0.004383167112646296,5643.71370051084,1452.7074574900914,0.027712812921103055,0.14915841067288246,0.26306937799334396,0.04749084037158243,Amy,REC_20260323_145055.csv
right,37,concrete,39.152,1.0719999999999956,0.04477611940298507,38477.0,3.1523546538406304,41384.60890234436,4612.5,1.4475698478711383,0.2785714285714286,0.5155612244897959,0.18580329445586516,0.4019775190644041,0.4622230986652017,3920.0,2782.75,36.80000000000001,502.20588235294116,0.18047107442384014,13.666666666666666,-1.953125,11.713541666666666,0.7596417666429063,-0.8664718791175607,7473236.391560152,6699969.0,2751337.0,1841147.0,4363046.182054944,1069716.2394921735,644411.3709018194,0.048603000628874314,0.0538453814730456,0.03217299856785765,0.09378154280308837,0.07893693817478478,0.10710416589598737,0.10663383132428247,0.08821151315615636,0.06830949071749803,0.11148514746838453,0.09759178129970882,0.11332420849033173,2.742045326657312,0.022402740742874894,1.1668095496227155,14.0215769296686,4.3416275421369095,0.23340967251956793,0.5419173986461647,0.04477611940298507,0.4110489300927462,0.2310588163616625,0.003356252107381854,2590.820783715771,2498.48246765986,0.027712812921100973,0.14623315153927696,0.2111444604713928,0.06512572541246846,Amy,REC_20260323_145055.csv
right,38,concrete,40.24,1.088000000000001,0.04411764705882353,46039.0,3.880633492550113,47899.20005595083,2535.218253968254,0.7956434693153298,0.26302150816273645,0.48224928738015027,0.18522860492379836,0.3948699578828535,0.46908761030276874,3859.0,2670.2608695652175,23.5,480.69565217391306,0.18001823629021754,19.666666666666668,-0.7846153846153846,18.882051282051282,0.7221072118776065,-1.010987505146147,8389617.45552853,7303504.0,3744603.0,1738522.0,4163215.917925297,1204972.2701127501,602617.884347082,0.033677434761842734,0.03180495853414962,0.018290564890799357,0.09936064434892102,0.07661955625027136,0.11307585428335722,0.12996070513655508,0.09074182623420607,0.0740089444661543,0.11704333289913595,0.0944867786895923,0.12092939950501498,2.736577970072269,0.0334057449276797,1.2009796840174112,8.957677633214313,4.222752359155633,0.19173769793346546,0.5031193622875042,0.058823529411764705,0.4394114809707155,0.24496295123972778,0.002884732918861844,3800.736025210595,2111.5505297709483,0.009237604307035078,0.17936087105362516,0.35940097391686743,0.16931538853337902,Amy,REC_20260323_145055.csv
right,39,concrete,41.344,1.0559999999999974,0.030303030303030304,44292.0,3.7123839380373562,46606.71896840626,593.75,0.186340292070133,0.2665593993027621,0.4945025475998927,0.18964732524449673,0.38959071078893903,0.48678605519179646,3729.0,2689.044776119403,-33.099999999999994,495.54477611940297,0.1842828280585682,13.5,-0.4375,13.0625,0.6177935519442042,-0.9305025227466808,8484946.023107277,7268074.0,3778812.0,2211332.0,4306616.965616356,1450563.815859218,680004.623605003,0.03655517689242143,0.03393537071367516,0.02109721035045458,0.10103460142313199,0.07561915122720157,0.10785053783732779,0.12550092692294884,0.09214835207530832,0.07115104958760254,0.11910127327020636,0.0974989731691884,0.11850737653053293,3.3281618395134376,0.03011858847706664,1.1351068247540839,10.253911788457332,3.9340352187552416,0.132652000314724,0.4631019316918119,0.06060606060606061,0.486358186104705,0.19253641977624864,0.002584226816815469,3959.168220725195,2009.7574478886436,0.016000000000001846,0.23859634936539914,0.17663842022594037,0.13767338715374805,Amy,REC_20260323_145055.csv
right,40,concrete,42.416,1.0400000000000063,0.9692307692307692,48231.0,4.091739974228398,50549.39024360235,1046.875,0.32854735707102395,0.26246372988657346,0.496702716961224,0.1847320002699116,0.39930610225151264,0.4626325498862073,3791.0,2694.4848484848485,-32.599999999999994,482.8712121212121,0.17920724712656605,0.06349206349206349,-10.5,-10.436507936507937,0.7064455168162463,-1.1170276818543514,8423244.043291932,7342600.0,3358537.0,2399478.0,4483492.80579182,1417633.93638221,814871.7207220498,0.04375379563193054,0.04693088013675521,0.02804269101869138,0.09477833509525631,0.07989383476911312,0.1064182730155874,0.1132729031242268,0.08691153647180548,0.0712847792348006,0.11540970332216201,0.09782046379810612,0.11548280438156504,3.1970529377160433,0.02597246377283738,1.0007803677457194,12.01357816788347,4.22774834912571,0.17255409245669767,0.5060835880557333,0.06153846153846154,0.4486768049476217,0.2111623013528836,0.0012850762865298864,1973.6849630408933,1015.6924475798392,0.024440403706429244,0.10083149517136879,0.12759822149347316,0.12765708071731635,Amy,REC_20260323_145055.csv
right,41,concrete,43.472,1.0399999999999991,1.0,45671.0,3.845192258399744,49620.3603574178,2520.8333333333335,0.7911289593153015,0.2749398234822145,0.49184273870018724,0.19739582460901076,0.40081631741458545,0.4924845023329037,3739.0,2713.590909090909,6.900000000000006,520.3939393939394,0.19177317319664763,0.6461538461538462,0.0,0.6461538461538462,0.5369910232668818,-1.3339148625756774,8222100.604535802,7097032.0,3622430.0,2028072.0,4348892.947660122,1415717.1377396134,684053.2530670943,0.03425518015377142,0.04116205184899803,0.020028252846222998,0.09603175932595186,0.08536714741173777,0.10780750096316521,0.11606001217217486,0.09412217960099835,0.07044785786473252,0.11844977861159038,0.10327364500801242,0.11299463419264422,3.0477027190964763,0.032955816704561054,1.0601772050211502,9.472568725270756,4.107477639697945,0.15979269772085505,0.4883816296276845,0.06153846153846154,0.4524956800502903,0.20909316897987215,0.0012845806354897054,1998.7897171372801,1007.5982671381557,0.009237604307030911,-0.010350833025918235,0.040161765218156356,0.1172438070517687,Amy,REC_20260323_145055.csv
right,42,concrete,44.528,0.9440000000000026,0.01694915254237288,56716.0,4.90891082141829,60798.905294421216,3117.1875,0.9782865333681982,0.27615062761506276,0.488755230125523,0.18806361998962054,0.4114662514882315,0.4570572174734772,3824.0,2729.75,-32.19999999999999,496.1166666666667,0.18174435998412553,7.0,-0.603448275862069,6.396551724137931,0.6699160361999689,-1.0659624505339151,8519235.692785943,7589389.0,3068986.0,2357939.0,4680144.743851057,1350215.0058172855,727301.7914128103,0.039582379338767286,0.04551088317000947,0.0236407485422963,0.09475837225631163,0.08458650059529262,0.1115608877491834,0.10821503800714351,0.09114387764447295,0.07504960771743445,0.11189058827120921,0.0969197423451476,0.11714137436273163,2.5753763278764237,0.03495888779799829,1.1552399802841613,7.97562195453025,4.950821759222996,0.35677038266660527,0.6203658698777631,0.03389830508474576,0.5009505649603491,0.2507391537794239,0.003600899898078669,5781.303918667527,1065.7067536115587,0.05542562584220412,0.23077666503542202,-0.08427782866122893,0.33824791700108425,Amy,REC_20260323_145055.csv
right,43,concrete,45.488,1.0720000000000027,0.9850746268656716,40258.0,3.323878670204236,42591.25778842414,3785.714285714286,1.188094493800547,0.274468085106383,0.4803191489361702,0.18285150023881463,0.4058560564997827,0.4505328855151583,3760.0,2740.25,9.099999999999994,486.49264705882354,0.1775358624427784,0.6212121212121212,-42.0,-41.378787878787875,0.6607584768166918,-1.208182663911577,8163587.730391705,7264409.0,3145955.0,1993864.0,4168951.612814011,1258548.191442286,643904.490733378,0.047537526095193114,0.050199369958730686,0.025808078910790663,0.09516091812146808,0.08602156308194293,0.10597465881708946,0.10600149192055255,0.08535073549536593,0.06849954652055147,0.10991375840546966,0.0975007647434487,0.12203158792939674,2.98887408558788,0.029957781912805577,1.2596622881965358,9.762904949579239,4.293346993078277,0.2537625313686892,0.5843022842927194,0.08955223880597014,0.43997477090082665,0.21872488861280448,0.00557556056036792,8388.070477370451,632.7835568626292,0.06661331198291574,0.22621897754132575,-0.030698564341237973,0.20102385235788187,Amy,REC_20260323_145055.csv
right,44,concrete,46.576,1.0559999999999974,1.0,24388.0,1.7954754474695762,31380.459987068385,484.375,0.15201444879405587,0.2972768532526475,0.4962178517397882,0.17462176240216087,0.4111921872324441,0.4246718878033819,3966.0,2702.044776119403,-31.099999999999994,455.85820895522386,0.1687086065279473,3.287878787878788,0.0,3.287878787878788,1.0729568717196347,-0.267680408380512,7765555.102479024,6856351.0,2442239.0,2707354.0,4057050.9000861025,1045780.6718806374,765049.2177724696,0.04314035252462203,0.05041510851372923,0.025221363588658667,0.09546667255864823,0.08246932947408539,0.10956876218673531,0.12032346978794388,0.08208819191656953,0.073272314499246,0.10692841794771234,0.09253357048559134,0.11857244651645794,2.802325968377406,0.03634660250364142,1.1119135436100684,8.187203954150595,4.0347371022523735,0.21248261655401657,0.5233544475265162,0.06060606060606061,0.4087714943843312,0.16088531054684602,0.005505282672625153,16164.891215223202,1745.349573522653,0.06974238309664962,0.0906772276989206,0.2443767627464852,0.23268879739897289,Amy,REC_20260323_145055.csv
right,45,concrete,47.648,1.0559999999999974,1.0,47992.0,4.068722433570957,51013.54882773791,2375.0,0.745361168280532,0.3170289855072464,0.4865424430641822,0.18137231071716012,0.39847028892741976,0.4551714789205572,3864.0,2763.179104477612,49.5,483.3358208955224,0.1749201925102494,0.9242424242424242,0.0,0.9242424242424242,1.065430271814396,-0.2524841461476335,8853760.678544344,7553959.0,4177096.0,1969429.0,4491207.925273741,1470480.357827298,673825.0579066495,0.04426007248842724,0.045480816494088035,0.02564642716317458,0.09696272409565015,0.07791155547633323,0.10674488070738335,0.11818530461884158,0.08656479395893762,0.07137031215396498,0.11041791576866361,0.09480751675822247,0.12164768031631314,3.2328164522256726,0.028712931027075773,1.1493255598252936,10.495268680108362,4.703414957211706,0.25619136199469,0.5818288642026648,0.07575757575757576,0.49421879423249493,0.25855220016510383,0.0038557602716747705,12033.42893775503,1656.4730989838963,0.009237604307037137,0.03667604589970696,0.19225153018988042,0.24100878571788079,Amy,REC_20260323_145055.csv
right,46,concrete,48.72,0.9920000000000044,0.0,17315.0,1.1142910747914254,35832.33919241109,1156.25,0.3628732003471011,0.2989913544668588,0.4457252641690682,0.1885203398426148,0.4030588114625655,0.46772414963059533,4164.0,2785.6031746031745,-17.19999999999999,506.22222222222223,0.1817280461328942,0.0,-1.7096774193548387,-1.7096774193548387,1.0239216393451227,-0.4938448106400246,10815605.341033852,9943664.0,3325550.0,2653598.0,4499976.666991117,1264342.752135706,904803.2160189381,0.05513610229467843,0.060538027157778375,0.03142575487341376,0.08806049244129395,0.08199757255275139,0.10285310525206134,0.10039716683856337,0.08946795598684848,0.06960961405868041,0.10538881892725066,0.09905238385576634,0.11607300576091353,2.6343799690024468,0.02612269446453902,0.9532532319937727,10.87690863232586,4.42228124674603,0.21859549501631836,0.5563439773175194,0.08064516129032258,0.4602657703913422,0.20174194213698582,0.0028802356392550483,16063.698588224734,958.404096119342,0.03695041722813198,0.09305308109702008,0.02818945245120341,0.1270763824677389,Amy,REC_20260323_145055.csv
right,47,concrete,49.728,1.024000000000001,0.015625,44871.0,3.76814609720329,49597.33047251636,2416.666666666667,0.7584376800047519,0.30628480509148764,0.4839565102094935,0.18635928095612408,0.40441341006500775,0.4608138017134391,3771.0,2681.3384615384616,-6.599999999999994,482.45384615384614,0.17993023002289327,29.0,-0.6349206349206349,28.365079365079364,0.9958429735754023,-0.4832255902997642,8106138.329048981,6679200.0,4080579.0,2108706.0,4253989.098985824,1340205.9415583054,695354.4530888994,0.03800627700287457,0.03942921732544596,0.020971156770154976,0.09612879904984307,0.08090104253329279,0.1118327815614475,0.11551636094487827,0.08969114162272573,0.0761215695949784,0.11131065426566525,0.09666813933339835,0.1234228599952951,2.784658551263677,0.028059218480334304,1.0171688092929785,10.2471991313924,4.325343297419085,0.2520942325054183,0.5788204102260639,0.078125,0.4751699006484422,0.22524649395823892,0.002814650875511334,16882.693831258097,715.976937154429,0.031999999999996476,0.36101164086149823,0.16284840894363173,0.21067755692455015,Amy,REC_20260323_145055.csv
right,48,concrete,50.768,1.0399999999999991,1.0,47657.0,4.036459353569942,52224.34574985119,1515.625,0.4756581139684974,0.32312049433573636,0.463697219361483,0.1962496119905991,0.3901877965500421,0.5029619422381034,3884.0,2733.4545454545455,-32.099999999999994,518.4621212121212,0.18967285264511552,2.1076923076923078,0.0,2.1076923076923078,0.8600717688146452,-0.7453108089488474,8894587.787357096,7055493.0,4410447.0,3143512.0,4346841.74936986,1648195.3908961613,888434.763130088,0.04212673495632123,0.03884528402288147,0.021673096536738948,0.09564431732517405,0.07825041018136668,0.10607068422686355,0.12049909094940357,0.0948516695490222,0.07137710079375637,0.11349829275863599,0.10139794244157688,0.11576537625825906,2.8659077428716184,0.02933416919449621,1.0451286875043262,9.895505665490983,4.267378797072427,0.24856807547813636,0.5696209290355307,0.06153846153846154,0.525471951782063,0.25060955522668343,0.003290290465526667,16771.662092152153,649.3171604726456,0.024440403706428457,0.3627364783215386,0.05792771216831534,0.14738320953416797,Amy,REC_20260323_145055.csv
right,49,concrete,51.824,1.0080000000000027,0.0,50093.0,4.271064914413145,51910.24217820603,1722.2222222222224,0.5404958179344209,0.31612737544940933,0.4658448895737031,0.17987647814681693,0.4065503295297761,0.4424457812017957,3894.0,2638.703125,-39.400000000000006,455.75,0.17271742155533318,0.0,-0.6984126984126984,-0.6984126984126984,1.1360183973124283,-0.08357502148514673,8362277.9355666,7275404.0,3326772.0,2434908.0,4612150.046353877,1250017.5313722475,744140.2751659425,0.04154502981459879,0.04102986197054661,0.023449019108581985,0.09798255535093589,0.08049645600052109,0.1129401872368647,0.11013933217667296,0.08551786211266188,0.07410126897090782,0.1105775209175909,0.09435861603415503,0.12786229030596233,2.6464983725766853,0.02732555368902318,1.040486270154748,10.808916729668447,4.582130166067739,0.2629411415962607,0.5912244830844227,0.047619047619047616,0.4589851702665908,0.22156607270672857,0.004103383980795928,2612.954139156225,472.01899391852453,0.015999999999998238,0.006777439952039771,0.04280798946070317,0.14340360553742332,Amy,REC_20260323_145055.csv
right,50,concrete,52.848,0.9920000000000044,1.0,51414.0,4.39828738808879,54112.78226999606,3652.777777777778,1.146374194489941,0.3216145833333333,0.5072916666666667,0.17672006984097025,0.4114836487187957,0.429470455001189,3840.0,2690.9206349206347,-27.900000000000006,456.43650793650795,0.16962094757208251,1.0161290322580645,0.0,1.0161290322580645,1.2368577807632393,0.16253599021565224,8584458.95041097,7497759.0,3721391.0,1904677.0,4613337.698063521,1433390.7131601423,866392.779622904,0.03832995139445992,0.040359114718512584,0.022698315322542593,0.09798381388325234,0.07919635694398566,0.11561511962625642,0.11333820961729037,0.08393303761030627,0.07832924354678873,0.11188712189136898,0.09278703223066397,0.12554268321457224,2.5154462153921604,0.03384315648661631,1.2897093905540107,8.761797552325206,4.357763439739397,0.24659142459553887,0.5742856109854714,0.04838709677419355,0.47017988393514865,0.20684402188962955,0.004602921942703715,1905.8762639095125,1178.7810908504619,0.024440403706428457,0.40710328649531785,0.1883598167884632,0.29716517860036146,Amy,REC_20260323_145055.csv
right,51,concrete,53.856,1.0399999999999991,1.0,48882.0,4.154436287902012,52715.940283750984,335.9375,0.10542937577652262,0.29719073435189747,0.4613109906357812,0.17697124011567608,0.3985886200633255,0.44399471336487,4058.0,2761.1060606060605,-22.80000000000001,470.59090909090907,0.17043565106210182,0.46153846153846156,0.0,0.46153846153846156,1.106253070474033,-0.3027988134673745,8609159.083680183,7549072.0,3578448.0,2079385.0,4411475.496153439,1290308.565618899,677693.4025913458,0.048931861956945225,0.041940812037336815,0.03089451416593043,0.09299632887567015,0.07087629573128906,0.11455115154774384,0.11112696383201726,0.08439195974384442,0.07822403187128567,0.10905818375376579,0.09257928037183168,0.1244286161123397,2.551413555453259,0.036519237898550695,1.2185075037134405,7.674336422679036,4.383614497863334,0.2688573702784264,0.5884641744791935,0.06153846153846154,0.48961539292076406,0.26431494045505893,0.0036060799087169293,1266.3981732984655,1665.8461069599703,0.024440403706428457,0.6106299165465052,0.31424648665342647,0.35340212340188565,Amy,REC_20260323_145055.csv
right,52,concrete,54.912,1.0399999999999991,0.015384615384615385,40856.0,3.3814706756985857,42811.315350033336,133.1845238095238,0.04179813568991705,0.3062103929024081,0.4697084917617237,0.1721269277953032,0.4064800210304942,0.4234572891400169,3945.0,2766.5454545454545,-23.69999999999999,459.22727272727275,0.16599303364879076,11.0,-2.578125,8.421875,1.1476813965970647,0.003679641541282752,8214317.176865585,7197214.0,3352428.0,2106263.0,4291735.266556396,1294420.131851371,746002.3695870958,0.03735103399929898,0.03651857693655801,0.024382229232386962,0.09845995443392919,0.07456515071854189,0.11837868033648791,0.11943020504731862,0.0818601033999299,0.07855765860497722,0.11208596214511041,0.09026682439537329,0.12814362075008762,2.601335258571109,0.027802741406776715,1.0568995470987936,10.655628796240922,4.213368951158769,0.2420851221243807,0.5612353616181455,0.046153846153846156,0.4594293172150721,0.19296091696326634,0.003381673366912976,5512.093734084507,1976.1104418791099,0.027712812921098985,0.5647767109516346,0.04991065543061259,0.10920887577154917,Amy,REC_20260323_145055.csv
right,53,concrete,55.968,1.0879999999999939,1.0,18798.0,1.2571153961093524,29472.55810071464,1078.125,0.3383547408641889,0.2786967418546366,0.5042606516290726,0.18972049802738214,0.3959098797667256,0.47920122159870115,3990.0,2780.8260869565215,-28.0,511.9492753623188,0.18409970970986622,0.9852941176470589,0.0,0.9852941176470589,0.7282507325990696,-1.0678130521136604,9883071.741555912,9241169.0,2998126.0,1813048.0,3991539.693944896,1372664.896490045,631402.003141697,0.042615842440730266,0.04281388597903866,0.02500039087540456,0.09194953016776372,0.07596012028539116,0.10817346529286992,0.11542290112936934,0.09223617213110481,0.07701287804166211,0.11649650557388327,0.09748432589627731,0.1148339821865049,2.7078585279716045,0.03450614674341057,1.1579779505925165,8.596282777621266,4.7095363423871595,0.2331849554457339,0.5593281138926035,0.058823529411764705,0.4606434169088086,0.26656062513367373,0.001987097419859784,15577.864081231857,497.47086314232723,0.027712812921098985,0.5492474649682617,0.0865997464930424,0.5220784119646669,Amy,REC_20260323_145055.csv
right,54,concrete,57.072,0.9759999999999991,0.0,17736.0,1.1548366171210596,34782.52012146331,562.5,0.1765329082769681,0.3073569482288828,0.48010899182561306,0.18102932375822858,0.41014790117124045,0.4413757165186129,3670.0,2641.2580645161293,29.80000000000001,460.63709677419354,0.17440063996873434,0.0,-1.3934426229508197,-1.3934426229508197,1.0048495473802947,-0.34868121971459143,10233936.164063707,9737191.0,2442239.0,1988977.0,4321679.404058314,1437775.9396004614,668147.9006831604,0.03374491627889935,0.040486571648408014,0.02101882045457321,0.09692961565236506,0.08464319300431124,0.11181133135480403,0.11569511107854272,0.08742778978736916,0.07627718951135211,0.1130570720209089,0.09360153397085944,0.12530685523760668,2.5165164726610154,0.03408819137593746,1.059781917809153,8.578263411417854,4.135914830114429,0.2833961915501718,0.5383558213841172,0.04918032786885246,0.4733594862395125,0.16695857120583463,0.0034383185100077185,13052.570679116568,473.12673113108957,0.05619015334854543,0.4837831673640497,0.1630159175781295,0.1547549871404036,Amy,REC_20260323_145055.csv
right,55,concrete,58.064,1.0559999999999974,0.9848484848484849,38812.0,3.184617733841645,41768.108468064485,0.0,0.0,0.2802398331595412,0.4721063607924922,0.17797062236373934,0.39345794906483206,0.4523243787209585,3836.0,2714.0149253731342,27.0,467.23880597014926,0.17215778793328165,0.4153846153846154,-9.0,-8.584615384615384,0.8777313696326158,-0.6980211510458338,8283008.072560596,6977302.0,3814242.0,2318844.0,4188032.5928490763,1411873.3491534977,715893.2045394132,0.05147960558516051,0.04384098020776621,0.028552730712333437,0.09567804486386308,0.07337259883743312,0.10875554748981242,0.1216900664873872,0.08896331370058129,0.07181077766595725,0.11135125028184273,0.08900730866315808,0.1154977755047047,2.6022360126994504,0.038977384965478784,1.2973062644561981,7.476709382371726,4.49395150782474,0.2770895225873299,0.5937085896180756,0.06060606060606061,0.4890953040901863,0.20954481958423823,0.003500094310122197,11873.540724372555,539.232310210544,0.05768882040742139,0.4158855642387497,0.49101609845429245,0.08795792291899343,Amy,REC_20260323_145055.csv
right,56,concrete,59.136,1.0079999999999956,1.0,47508.0,4.022109506047102,49180.39050271968,3257.3784722222226,1.0222835467736464,0.2935217275393229,0.48467075446547586,0.18692616931260278,0.3993539741706702,0.4680713887989046,3751.0,2670.171875,-45.099999999999994,482.03125,0.18052442785167153,0.2222222222222222,0.0,0.2222222222222222,0.9081781301868953,-0.5129935184420598,8026061.211301468,7017619.0,3382971.0,1930334.0,4347435.3555224985,1355653.4963311786,607837.7893730656,0.03612829230328104,0.03753854796332165,0.019837206172355477,0.09967757225365877,0.08037872093907812,0.10907537553177171,0.11688737265274356,0.09245074345635522,0.07268375748283994,0.11590428986898081,0.09447542585624755,0.12496269551936615,2.5588256616058764,0.028835682316762076,1.2622515238020622,10.59301211383481,4.479009611730248,0.25753435439066574,0.5742367042302111,0.047619047619047616,0.4398626211087497,0.21537594852306913,0.0029849866783494073,15308.98524832177,1741.134244362161,0.040265783654776593,0.43892285807659526,0.43033606055185897,0.04873060503903872,Amy,REC_20260323_145055.csv
right,57,concrete,60.16,1.0400000000000063,0.03076923076923077,46431.0,3.9183861115363756,50327.61170570287,429.6875,0.1348515271560173,0.283285377975412,0.4522626209782893,0.1865503425242633,0.397295077901536,0.4695511042055406,3823.0,2749.1969696969695,4.300000000000011,496.68939393939394,0.18066708184759186,4.0,-0.36507936507936506,3.634920634920635,0.7551685762416263,-0.9680719815941243,8427458.804659208,7088480.0,4040262.0,2109928.0,4288377.039437355,1501107.4760698501,640055.656126219,0.04361604215004933,0.04269015194519612,0.026002083252960922,0.0954438486169515,0.0771189383125651,0.10807563641173457,0.11054467695800979,0.09149228149266729,0.0739665026150887,0.11569218559689608,0.095058061031596,0.12029959161628466,2.731523128052296,0.03022883419137302,1.2244977525907925,9.98610256062506,4.56858135171962,0.25453140483044207,0.5825237678325412,0.09230769230769231,0.4383778569232394,0.27937119117668996,0.0023927179523428018,4740.42026969482,1769.6978128737162,0.024440403706432953,0.5430916013693766,0.26956378378901996,0.04388831720487913,Amy,REC_20260323_145055.csv
right,58,concrete,61.216,1.1039999999999992,0.014492753623188406,39583.0,3.2588709716947277,41721.56241082062,437.5,0.1373033731043085,0.2883660130718954,0.47581699346405226,0.1691802221910302,0.4036557026778334,0.4191201092132326,3825.0,2747.957142857143,-38.0,450.5,0.16393996579277073,25.0,-2.426470588235294,22.573529411764707,0.8624825820646014,-0.6628419395107907,8444066.518600205,7374365.0,3652974.0,1891238.0,4052111.598914054,1247550.4347566643,614400.0263477237,0.046673632880529434,0.042795427252452466,0.029486839574333137,0.09958566623517728,0.07502196436833596,0.11217683785877301,0.11948096508055334,0.08202976756759567,0.07407580696309465,0.11163097781728765,0.08715045462343456,0.1198916597784328,3.2405567554689636,0.035545446650316906,0.8250382755679425,8.428176924478082,3.8973230615285317,0.14827857360889315,0.47586143870768705,0.057971014492753624,0.4196923661741225,0.1910720021782421,0.0018081958878593167,4298.462089321425,1630.3175492137334,0.048880807412863006,0.22100371053501672,0.2331042365158041,0.08552691274440473,Amy,REC_20260323_145055.csv
right,59,concrete,62.336,0.9920000000000044,1.0,44311.0,3.7142137843657723,47723.572906897905,4445.684523809524,1.3952170991466726,0.2878200155159038,0.4600465477114042,0.17532049405842065,0.4079845460399227,0.4297233700638908,3867.0,2711.5873015873017,37.099999999999994,459.1507936507937,0.16932915764210033,2.8870967741935485,0.0,2.8870967741935485,0.9844130303339361,-0.2993922322327798,8072318.962298628,6764721.0,3915646.0,2017077.0,4205806.266951744,1559424.301268076,860330.7749267932,0.06368319381841596,0.062418778903002986,0.03451384417256922,0.09392378387870982,0.08465726160510448,0.10122929227887373,0.09534039688579289,0.08077035649476087,0.06575542937423169,0.11187145115026634,0.09455013756365979,0.11128607387461219,2.6569238438378617,0.04166044811666807,1.1111767342078571,6.374285205924689,4.230577338661684,0.21090156897752463,0.5546019542091385,0.04838709677419355,0.4635379770992832,0.19414282746081074,0.004752376398606342,3505.792539973453,2316.3849819387888,0.056190153348544984,0.22630029336052837,0.13427268720584265,0.3762559302655163,Amy,REC_20260323_145055.csv
right,60,concrete,63.344,1.0080000000000027,1.0,52514.0,4.504225859733914,55251.56517240032,2055.5555555555557,0.6451079117281797,0.32519893899204244,0.4716180371352785,0.18264594072349674,0.40428203643285954,0.4517785215857929,3770.0,2725.046875,-29.19999999999999,479.4453125,0.1759402074505599,1.7936507936507937,0.0,1.7936507936507937,1.0045697318877354,-0.3344975516230515,8244716.256718602,7078706.0,3332880.0,2599842.0,4371709.3227357855,1126886.7034776313,852819.8703723362,0.042430462778736605,0.04599691519067906,0.025630293056885488,0.09644902897312546,0.08062934697224244,0.10842703393863638,0.11424688795490903,0.08757303486751948,0.07277971135817618,0.1098948985969278,0.09507290585597725,0.12086948045618481,2.7122066383956502,0.027226112760393304,0.9756542813844579,10.929025032330815,4.749471024786454,0.30406331097768396,0.6152932250044123,0.047619047619047616,0.4532565037623668,0.2146079021767385,0.0031501590340149515,6542.858116552238,2016.4475132708492,0.0605750223552002,0.2510285804470386,-0.014707618099983315,0.34043366952092563,Amy,REC_20260323_145055.csv
right,61,concrete,64.368,1.0080000000000098,0.0,50179.0,4.279347376741764,53162.59743466265,2736.1111111111113,0.8586909365571042,0.3083522583901085,0.44940701488771134,0.16535089953198304,0.4048374956848497,0.4084377096842689,3963.0,2760.984375,-43.69999999999999,439.109375,0.15904087649898418,0.0,-3.3968253968253967,-3.3968253968253967,1.1680672629300959,0.15068570024813877,8143545.9736202145,6736621.0,4109901.0,2010968.0,3991713.299864841,1353241.8621165585,774704.9736279575,0.05032738549996321,0.044832289208445814,0.030989853030225858,0.10051894987634619,0.07410174133998856,0.11152612009982853,0.11485373762754453,0.08003825628314176,0.07385839516024063,0.10833998290917528,0.08531264324884127,0.12530064571625835,2.860012582335935,0.02749699139948668,1.2618456763752217,10.891572603480187,4.454342588602967,0.25921345273948454,0.6053915324214498,0.06349206349206349,0.47436822859412686,0.23098201254958953,0.004619267713245976,4226.402291942106,1231.4296300431724,0.009237604307034492,0.18582111672855453,-0.03115572754701347,0.21054703608093028,Amy,REC_20260323_145055.csv
right,62,concrete,65.392,1.0400000000000063,0.9846153846153847,43991.0,3.6833953198871905,45735.73958076987,1081.25,0.3393354792435053,0.25938218023997955,0.4756190962471279,0.17550379824092946,0.4009296698745545,0.43774210647888645,3917.0,2780.3939393939395,-5.400000000000006,472.9318181818182,0.17009525574095669,0.015625,-46.0,-45.984375,0.7351488051214299,-0.9926162857867076,7892572.610037934,6923546.0,3240029.0,1964542.0,4247601.680876211,1475329.8921501993,696365.1001536887,0.057300578727671025,0.056799232722635776,0.03087637461445402,0.09616579294409991,0.08073850446306934,0.10007847154861421,0.10655782372238509,0.08422612884592329,0.06714766819613527,0.115380423528386,0.09127766939500616,0.11345133129161988,3.014070763669895,0.025385699206743773,0.8448716737250784,10.926908102456746,4.682417607688725,0.31759833739117,0.6256736829311561,0.09230769230769231,0.43829780178950645,0.29027109086837266,0.004392175288327439,4404.261156350003,831.7644374913532,0.018475208614068074,0.19850846184945253,-0.10287831095391103,0.2382295263903586,Amy,REC_20260323_145055.csv
right,63,concrete,66.448,1.0720000000000027,0.9850746268656716,44331.0,3.7161399383956835,46001.80642105264,411.4583333333333,0.1291305532766711,0.2875408052230686,0.49836779107725787,0.17558985922965958,0.40316581275941926,0.435527650590442,3676.0,2660.779411764706,29.80000000000001,452.45588235294116,0.17004637075602572,1.4242424242424243,-14.0,-12.575757575757576,1.0414915491982317,-0.36144279859691597,8243723.579617951,7139792.0,3704286.0,1805717.0,4186085.0130777834,1308557.5178556636,653709.2396663255,0.03884310766968989,0.03535010197144799,0.022511095267308896,0.10110925038550181,0.07616631570802451,0.11359453499361642,0.1251899874539194,0.08735277699479918,0.07694560970082849,0.11105768433619075,0.08823708223486042,0.12364245328381225,2.789386923118214,0.03198422025808089,1.3036977708637094,9.560022156428271,4.478074199639417,0.24659851851943457,0.5567318217668594,0.05970149253731343,0.4271935206822553,0.2275458479091195,0.0034530811510586254,3478.650312980615,1196.606083264521,0.0319999999999965,0.08378656506984304,0.05199524415369968,0.05434658700879453,Amy,REC_20260323_145055.csv
right,64,concrete,67.536,1.024000000000001,0.015625,46302.0,3.9059624180434476,48432.633678130696,1777.34375,0.5577949532362534,0.2826780021253985,0.4636025504782147,0.18212276303476324,0.39653638642744093,0.4592838621328285,3764.0,2663.2923076923075,-21.69999999999999,468.76153846153846,0.1760082951118916,4.0,-0.1111111111111111,3.888888888888889,0.915478421045969,-0.6233949223831283,8819746.511208698,7230200.0,4654793.0,1960877.0,4203416.349712403,1550486.8397059476,688674.5494432462,0.04654158531372391,0.0417643864736532,0.02641034231777904,0.09657220097739062,0.07666624305371028,0.10855274558961149,0.11179916124634634,0.08630728883856881,0.07298081033307532,0.11455457097635086,0.09581547419619442,0.12203519068359579,2.8029948461907446,0.0276784490375826,1.0549938117213409,10.325396843267061,4.188059696518074,0.22064557721929764,0.5472234085637886,0.046875,0.5118098233690147,0.2030492448134598,0.002913944571449912,1247.742094077725,682.9849140583611,0.02444040370643157,0.2963323488167732,0.2662590338649094,-0.0405006024489278,Amy,REC_20260323_145055.csv
right,65,concrete,68.576,1.024000000000001,0.0,46269.0,3.9027842638940937,48414.31715928667,3763.392857142857,1.1810892196625722,0.2816863587540279,0.492749731471536,0.16553751757637736,0.4169058603418823,0.3970621027981686,3724.0,2647.7846153846153,-44.099999999999994,422.4384615384615,0.15954411815973876,0.0,-0.546875,-0.546875,1.1667115695721946,0.09422425506250454,8010502.190412284,6842912.0,3495370.0,2263866.0,4257701.150468985,1275469.9284400414,680069.5613382299,0.03659953749433489,0.03439159587695955,0.022102657664462597,0.10492952017942432,0.08103145735767493,0.11893251833172579,0.12462668355548324,0.0823271704647136,0.07762076859609776,0.10845060602187023,0.08321034711166374,0.12577713734558935,2.5282798899744567,0.032105313384305244,1.2723862860001212,8.910557987040777,4.531395197342505,0.2920303529870808,0.5976350165453418,0.0625,0.43299022706509815,0.23870052152956073,0.006044421396794006,1128.5517267720318,1685.5018579714758,0.027712812921103117,0.1954361205849409,0.2715553947723184,0.21261000606638492,Amy,REC_20260323_145055.csv
right,66,concrete,69.616,1.024000000000001,0.015625,45771.0,3.8548230285493013,48467.1977836557,2963.541666666667,0.9300668963851376,0.27465535524920465,0.4782608695652174,0.17961944788278306,0.3992112611186275,0.4499358244036105,3772.0,2672.230769230769,-36.80000000000001,464.5615384615385,0.17384783672529436,8.0,-0.9365079365079365,7.063492063492063,0.8897901868642308,-0.558220894051729,8555137.965177301,7244861.0,3632204.0,2740341.0,4276155.267759641,1513765.5143372552,770317.3117858387,0.03958663173954345,0.036264716888799335,0.02209044589654279,0.10017559515242234,0.0776130573706785,0.11098189354903712,0.12562825642649472,0.08890296208871873,0.0741759981576902,0.11432108005411785,0.09071648579406431,0.11954287688189068,2.8533255835778975,0.028148551546228605,1.0014432313302544,10.874277710011329,4.639684405739217,0.27985183563266375,0.5997692131520811,0.0625,0.4489885287741393,0.22856971121008687,0.0033778636836659724,297.50462181306455,999.2679387426122,0.0,0.23733077578903022,0.20120216050336026,0.30084422989537113,Amy,REC_20260323_145055.csv
right,67,concrete,70.656,1.1039999999999992,1.0,30208.0,2.3559862701737804,36305.44902628254,343.75,0.10788122172481383,0.2910096818810512,0.5017980636237898,0.1667072538037206,0.40326320581913666,0.4133956468082424,3615.0,2698.4857142857145,-21.19999999999999,435.15,0.16125710716062974,0.6521739130434783,0.0,0.6521739130434783,1.0646304821768235,-0.3091817857126795,7913124.772254447,6803817.0,3582113.0,1869247.0,4016700.155278946,1295427.5724643718,791990.2150506069,0.039583046576386755,0.031732082543648815,0.02238821773057905,0.10380425000264698,0.07157453386555422,0.1150962973943058,0.13765392230563173,0.08584708884347834,0.08105604201298082,0.11087170582443064,0.08086016496024225,0.11953264794011456,2.932170195892459,0.032872955514409954,1.0777143029630525,9.354242227628632,4.941825505880959,0.29349043968217536,0.6014608518282318,0.08695652173913043,0.45384511263512034,0.3017498539152257,0.0019397511056358791,9132.457628334965,1788.715906921799,0.046188021535169044,0.20859490241400763,0.17050868697960989,0.25632898420468375,Amy,REC_20260323_145055.csv
right,68,concrete,71.776,1.024000000000001,0.015625,39636.0,3.2639752798739927,42499.382019036464,193.45238095238093,0.06071237586244934,0.2917564655172414,0.47898706896551724,0.17049800622871614,0.41891317635416364,0.40700081986539677,3712.0,2642.846153846154,-29.599999999999994,434.6461538461538,0.16446139069185317,40.0,-0.8253968253968254,39.17460317460318,1.078283594786864,-0.2904968539088846,7972524.79701393,7006624.0,3456275.0,1588249.0,4362874.241700808,1518216.9998949817,654551.4644948607,0.04225048752801467,0.04261140378962075,0.02520592601216637,0.09889687691009111,0.08128183485170416,0.11772273481386618,0.1104694822015892,0.08271967866810256,0.07840032598888144,0.10942166079692639,0.08777832756061356,0.1232412608784236,2.6042726045354434,0.03797588481011713,1.20810874067817,7.9850605163989625,4.160220775556131,0.22398683100250738,0.5417999224186896,0.046875,0.4558335417568024,0.22305748937862013,0.004404741641559251,7839.349228943273,1557.7383392735637,0.046188021535169044,0.12857542350213003,0.18953269469514047,0.15663918664236715,Amy,REC_20260323_145055.csv
right,69,concrete,72.816,1.0879999999999939,0.0,38544.0,3.158807269840833,40506.4796915259,1979.1666666666667,0.6211343069004434,0.25608519269776875,0.4622210953346856,0.16926498508272309,0.40878763222131814,0.4140658174093873,3944.0,2671.7391304347825,-20.30000000000001,438.036231884058,0.1639517222674261,0.0,-0.8970588235294118,-0.8970588235294118,0.8820753661014196,-0.6741547490700954,7287846.750453182,6522819.0,2620611.0,1923003.0,3952866.0420090444,979836.055157131,716398.2731939496,0.039435855709248714,0.034917276918904255,0.023341470029834555,0.10164361269324655,0.07834553837808517,0.11652834282614591,0.12342826145918091,0.08304854895579063,0.07735286140493626,0.11379441280173583,0.08621643612693247,0.12194738269595878,2.543628257293177,0.03276646491112783,0.9980986158319787,8.555118180168634,4.564998813764896,0.2714713910225152,0.5814183610294149,0.058823529411764705,0.42656436908539275,0.2469693644698852,0.0015263078815093245,5157.01050351204,990.4504495520005,0.042332020977031405,0.1685807132785524,0.15685948311936654,0.21830971425801074,Amy,REC_20260323_145055.csv
right,70,concrete,73.92,1.2000000000000028,1.0,35534.0,2.8689210883391745,37279.75977658654,197.91666666666669,0.06211343069004434,0.2687964748003305,0.45800055081244834,0.17497032453000155,0.3802307414410314,0.4601688013618251,3631.0,2804.4605263157896,-8.199999999999989,478.23026315789474,0.1705248687476248,0.76,0.0,0.76,0.3005882223380378,-1.4311060849655417,6957882.540917459,5800776.0,2670702.0,2762332.0,3212753.44024465,869613.4651276177,781308.0791420512,0.052754305875508466,0.03953288698924176,0.03323183462435312,0.09656609067322264,0.06568483477918166,0.10626398735097752,0.1274989560803044,0.08495864201295868,0.07218294164840784,0.11746325168082801,0.09001168251704286,0.11385058576797301,2.7276643991792384,0.025827021602051095,0.9975732111836285,12.97146942248496,3.5674933590372135,0.13287116712365077,0.4661762962110905,0.05333333333333334,0.4120057116967507,0.07830259045197621,0.0009785032524653287,2124.4202346366137,1029.6963146603794,0.089084229805282,0.0,0.0,0.0,Amy,REC_20260323_145055.csv
left,0,concrete,0.736,1.2,0.9866666666666667,35022.0,2.819611545173444,37216.36056897558,1390.625,0.4364285787958378,0.2511307767944936,0.5183874139626352,0.1274423471587162,0.42924516136163504,0.2968987390664238,5085.0,3571.1710526315787,58.599999999999994,439.6513157894737,0.12311124538979917,2.6486486486486487,-7.0,-4.351351351351351,0.9454391041133953,-0.7525923996580368,8184362.075674132,6674313.0,3459940.0,3235142.0,3896941.2479860084,1093500.4094537233,991532.45075441,0.0857930282341411,0.0669948306798964,0.04286519606940079,0.09967981901852924,0.08420870346967123,0.10518442645601289,0.12705916163428627,0.06360142810297374,0.07317738173752529,0.0796546908908695,0.06384091905574245,0.10794041465095115,2.8230491981408803,0.037887681026839294,1.1370867170362704,8.243173183596255,3.9325928260154464,0.1319968896272277,0.4705130505489963,0.05333333333333334,0.40555791262738705,0.22430313670827037,0.002128735136431563,0.0,0.0,0.0,0.0,0.0,0.0,Amy,REC_20260323_145055.csv
left,1,concrete,1.952,1.088,0.014705882352941176,36558.0,2.967540174670636,38962.40493090743,610.4166666666666,0.19157089675982092,0.24067233099371999,0.4346139637975619,0.14328284478156597,0.41674966336539,0.34381034317920156,5414.0,3637.8840579710145,-36.19999999999999,503.72463768115944,0.13846638036125475,25.0,-2.4328358208955225,22.567164179104477,0.6020912223769308,-1.276538967978771,8366364.140762103,7235087.0,3402519.0,2464230.0,4359414.633407804,1451198.323917931,978126.4621928139,0.09977929517875497,0.08195957197606507,0.04742364967691045,0.09273187949676114,0.0906443465304724,0.09586317894619424,0.09273586333829985,0.0663468969858255,0.05555068641589712,0.09477160636458525,0.07693594779574048,0.10525707729449353,2.6940821807632127,0.020245282847528478,0.9866277754896469,15.624791960863744,4.021935296643749,0.14955468640938688,0.4679414897825631,0.058823529411764705,0.4545569196169016,0.165011141537276,0.0019522067156881359,1086.116015902537,551.6906032382542,0.07919595949289332,0.3224461838193178,0.4776917414293848,0.03999848954375122,Amy,REC_20260323_145055.csv
left,2,concrete,3.056,1.1360000000000001,1.0,43158.0,3.6031710045413825,44772.93840033285,2205.729166666667,0.6922378394008889,0.25496688741721857,0.48948188546941956,0.14955907615957245,0.4048711586180569,0.3693991853357981,5134.0,3638.1944444444443,-20.900000000000006,526.9513888888889,0.14483870967741935,2.0422535211267605,0.0,2.0422535211267605,0.5189367369941508,-1.3603451903743535,9267126.620886434,7181331.0,5358509.0,2365270.0,4431550.151027515,1461377.3159532885,952191.4874271126,0.08720366482153083,0.06451612903225806,0.04090093529299484,0.09431189158236306,0.08018324107654133,0.10093529299484635,0.11895781637717122,0.07327734300439015,0.0649246039320481,0.08914678373735445,0.07628173315518229,0.10936056499331934,2.692040580877653,0.019138991654183365,1.0840170633941708,16.534725035067705,3.6928512320133295,0.1628251056658963,0.4655004519179911,0.056338028169014086,0.42871620048475034,0.2288968919732677,0.0019681291470754264,4322.688052589499,797.7198566932703,0.05619015334854794,0.13486193063129961,0.47106231905956286,0.15809016051922278,Amy,REC_20260323_145055.csv
left,3,concrete,4.208,0.976,0.0,21761.0,1.5424751156407197,39204.8206857269,1596.875,0.5011573118307261,0.24937894133384292,0.46072998280145233,0.14866462452590545,0.4099297263326287,0.36265880460978306,5233.0,3669.983870967742,9.5,524.9677419354839,0.14304361010639935,0.0,-0.8524590163934426,-0.8524590163934426,0.5635061225282225,-1.4045857326266284,11643924.328521548,11220372.0,2510656.0,1838704.0,5071184.904899384,1114658.5785554606,866824.8932997294,0.09645818958508212,0.07716039887667608,0.043926535670808085,0.09251600824474047,0.08548864150760968,0.0975173486742932,0.09812823296226142,0.07065162455666942,0.05724732902930926,0.09400586273122409,0.07801299996923604,0.10888682819209015,2.7624464140254426,0.01153418826354209,1.1454029820483982,27.37751429048858,4.494920508654962,0.2787548609444882,0.5333256347435654,0.04918032786885246,0.4238954115538087,0.16886096218020802,0.004140802771919671,10957.058744632765,805.0699154241606,0.08210562303115046,0.2679843858934697,0.4919947472281644,0.13513230018678468,Amy,REC_20260323_145055.csv
left,4,concrete,5.2,1.024,0.984375,20397.0,1.4111114108007652,39150.70068338497,713.5416666666667,0.22393526327726512,0.24400749063670413,0.44288389513108617,0.13166663234415865,0.4330196256100826,0.30406620059904155,5340.0,3735.3076923076924,-1.3000000000000114,472.54615384615386,0.12650795938960852,0.6666666666666666,-59.0,-58.333333333333336,1.1015223592334422,-0.41735309127942166,11445482.9290756,11085982.0,2546086.0,1271821.0,4864153.411398901,1359682.1242468224,931311.477261842,0.10148067299573714,0.08503058135464076,0.04087398834407628,0.09600691941761569,0.09709425647150888,0.0988776539879322,0.092135340513602,0.06322205976235096,0.056010214378385055,0.08271999011511769,0.0684445725818077,0.11810375007722564,2.3627096997362402,0.009167777693703291,1.0552793070185866,32.249386623700744,4.677299674526356,0.2661707226912887,0.5624042071300408,0.0625,0.42146861804735514,0.24209605335233628,0.004611410346018164,12765.547553212642,750.2893563154362,0.08210562303115052,0.14992151018406832,0.44145364856327407,0.1574154589251121,Amy,REC_20260323_145055.csv
left,5,concrete,6.24,1.008,0.9841269841269841,24991.0,1.8535489914714036,42038.143786328146,2000.0,0.6276725627625532,0.2532221379833207,0.4687263078089462,0.1365087505609334,0.4079876915186871,0.3345903648531744,5276.0,3656.015625,-0.4000000000000057,479.03125,0.1310254930871637,0.7096774193548387,-62.0,-61.29032258064516,0.8541162979178728,-0.7987614386035382,12079639.052814243,11441505.0,1634675.0,3512475.0,5088912.704806758,1447215.4167925273,1012548.5053930364,0.09388208645853367,0.07051734085518302,0.042878817018184925,0.09406158514434686,0.08174028249674124,0.09977135286449985,0.11022501442400154,0.06752142231339615,0.061897130157916105,0.09286065346069193,0.06898732824753724,0.11565698655896746,2.616776634138872,0.012767383876879876,1.0845828113663207,24.774536889150227,4.54359000960432,0.264150999112378,0.569456141466898,0.047619047619047616,0.4281115146813762,0.17668200230810152,0.006697261187896968,2359.316002573611,657.9972880903531,0.024440403706432273,0.23364047126583093,0.16560587439636854,0.20006413634037995,Amy,REC_20260323_145055.csv
left,6,concrete,7.264,1.024,0.078125,46680.0,3.9423667292087723,48090.70789664049,1343.75,0.42171750310609046,0.2444607214795825,0.43893059879143015,0.1464702785389453,0.4009816642691617,0.3652792423958011,5461.0,3711.123076923077,24.5,524.4846153846154,0.14132773408837465,11.8,-2.2033898305084745,9.596610169491527,0.7165909426115213,-1.1723978426513872,9096621.668408332,7875274.0,3150842.0,3286454.0,4798641.202291154,1204053.9862027424,990733.4829682031,0.09728757208060591,0.07153546718181931,0.04352818761063414,0.09471319069906269,0.08298545329425469,0.09515676365852344,0.10577349589384097,0.06996016134448207,0.05659078943550159,0.09464271649055024,0.07651011719446321,0.11131608511626172,2.5586821540688343,0.01021426500830527,1.1084626559989275,32.654572610667756,4.670918052551726,0.24632376818461085,0.5586314719649978,0.0625,0.4002118867827048,0.21351063215546062,0.002344091316473386,14037.530920120298,643.273095103673,0.009237604307037043,0.0945944696007024,0.1812932146828138,0.18380618837056584,Amy,REC_20260323_145055.csv
left,7,concrete,8.304,1.0559999999999992,0.9545454545454546,20827.0,1.4525237224438594,38116.73418591892,1333.3333333333333,0.41844837517503547,0.2335180584750621,0.48519013949933115,0.13005230333499698,0.4197616526068485,0.30982416456398076,5233.0,3678.313432835821,63.099999999999994,460.410447761194,0.1251689004126648,0.2698412698412698,-6.666666666666667,-6.396825396825397,0.9265955056296954,-0.8054305097355146,11283152.798247173,10732902.0,2048842.0,2813645.0,4597926.291793384,1347600.1838774208,911400.5060942777,0.09514418921715419,0.07266065320332567,0.04141661290257134,0.10004179397598673,0.08482959825033375,0.10232220315118463,0.10778788137003088,0.06198492982263935,0.05990740402601776,0.08853830641070899,0.06806737351235763,0.11729905415768907,2.761254998707681,0.014596931701750247,1.0784555911276217,21.136653363765202,4.343565509776137,0.1875396246740355,0.500956261659446,0.06060606060606061,0.38665150376895824,0.2234064129252543,0.0028447638096918484,13881.217681937467,381.92866129005654,0.02444040370643185,-0.05356380605045167,0.261420440033568,0.1620191252351486,Amy,REC_20260323_145055.csv
left,8,concrete,9.376,0.9920000000000009,0.016129032258064516,39454.0,3.2464472782017997,45417.736865678366,1234.375,0.38739165983001334,0.23325808878856283,0.4541008276899925,0.12669244807508473,0.4163118102024854,0.30432105208204596,5316.0,3653.0158730158732,7.300000000000011,444.03968253968253,0.12155427131311375,62.0,-0.8688524590163934,61.131147540983605,0.9529072247481353,-0.7049669453649838,8985681.138160257,7759210.0,3551570.0,2814867.0,4761692.18439106,1422945.650621436,979416.2109835271,0.09766663769879204,0.07115668723385765,0.04481619883549144,0.09835317632745284,0.08371426088467888,0.1023681237507604,0.1058268879812288,0.059880942035282866,0.06071956200573563,0.0886373511775441,0.06681150603980186,0.12004866602937342,2.600249963728042,0.012978363267892708,1.0448859635304586,23.468804516694057,4.568752539739716,0.20139364225438397,0.5315155747777329,0.06451612903225806,0.4222141415769663,0.21845577638574584,0.004892573753651077,13338.901841356112,60.36575920386651,0.03200000000000005,0.12847950947902254,0.2762307490756645,0.2691010567028423,Amy,REC_20260323_145055.csv
left,9,concrete,10.384,1.0719999999999992,1.0,18530.0,1.2313049321085403,36543.81793135468,3109.375,0.975834687419907,0.23826154443150951,0.4555684904928211,0.13730912540345433,0.4038964745225874,0.33996118823682026,5154.0,3658.6617647058824,61.599999999999994,484.3235294117647,0.13237723532792847,0.029850746268656716,0.0,0.029850746268656716,0.719765926474496,-1.1559242260153437,11041743.559667377,10567968.0,2144136.0,2375044.0,4432134.77310213,1369282.966616221,945375.5964192472,0.10321597819839301,0.0777767505798086,0.04556873495210801,0.09406364429295506,0.08515247860636925,0.09334817857702711,0.10103340581778132,0.06456073218671243,0.053555422466427374,0.09583221123120395,0.0727483932167419,0.11314406987447194,2.7541947512961014,0.010863119383710594,1.0738229557872068,29.908928878064376,3.946265707819169,0.1703255387630471,0.47416841517913155,0.05970149253731343,0.41337535663090313,0.2133484972480707,0.0023023110936399123,11475.009905587594,1055.1257234308005,0.04233202097703315,0.1577469833678283,0.2933391736323197,0.21896097872406833,Amy,REC_20260323_145055.csv
left,10,concrete,11.472,0.9760000000000009,0.0,19171.0,1.2930381687671992,37822.474390235235,1843.75,0.5786356437967287,0.23639132089836315,0.475827940616673,0.13105393724177652,0.4107538878079974,0.31905708291907053,5254.0,3556.4032258064517,24.400000000000006,446.1532258064516,0.12545068640389664,0.0,-0.21311475409836064,-0.21311475409836064,0.8619585357927043,-0.8577625584125395,11226576.999295466,10537425.0,1817934.0,3419623.0,4583278.03944574,1363453.4396291692,1013319.1763001406,0.09646843267708857,0.07235019070554248,0.045007415066871656,0.09785167145131227,0.08275396037134292,0.0979831925150909,0.11006952475543884,0.06166523807580149,0.059814872764708815,0.09329832151911364,0.06938869916597505,0.11334848093171336,2.409988883414822,0.01497547479570814,1.057320170748674,21.578235970844926,4.3023510106839575,0.2449598335350986,0.5031341809904804,0.06557377049180328,0.433183379284558,0.1955193285330889,0.0024591494955063875,11899.753120688403,956.4491214251804,0.051432804058628684,0.10264414445961,0.10442432520112435,0.26307179114042917,Amy,REC_20260323_145055.csv
left,11,concrete,12.464,1.0239999999999991,0.984375,42081.0,3.499447610030656,46097.95103906463,1234.375,0.38739165983001334,0.2535238841033673,0.47043852779953016,0.13996292597044235,0.40707792317719355,0.34382342544629835,5108.0,3635.1384615384613,-50.80000000000001,489.94615384615383,0.1347806030031657,1.2857142857142858,-60.0,-58.714285714285715,0.6851396726785535,-1.2615981958798972,9634052.99115066,7662693.0,5296201.0,2459343.0,4672141.6547833625,1477881.2443423008,1046941.9542994216,0.09878789930761288,0.0726625586159029,0.04705354573310085,0.09547832269641619,0.08210881820182493,0.09799224661847608,0.10447596959591002,0.06542973709603697,0.05883597704457348,0.0903235089976469,0.07453318887440538,0.1123182272180935,2.514964869013675,0.01256726814065743,1.1280798755809407,25.13347510872115,4.166095724567094,0.20996834545024728,0.5170035640641936,0.046875,0.4058818988627608,0.19528653186446915,0.004795016224481161,13415.964259046013,956.4491214251804,0.04799999999999975,0.43205006168298565,0.17703017524605585,0.25676172475062914,Amy,REC_20260323_145055.csv
left,12,concrete,13.504,1.072000000000001,0.029850746268656716,21622.0,1.5290883451328359,37032.77707653046,1390.625,0.4364285787958378,0.24255237363059773,0.46146453968864115,0.14721354692379854,0.3966702687297384,0.3711232187759426,5203.0,3715.1911764705883,38.900000000000006,528.8382352941177,0.14234482431036327,10.5,-0.6615384615384615,9.838461538461539,0.5386323547947285,-1.440704113299288,11016690.017541068,10569190.0,2434908.0,1931555.0,4434418.14536432,1450500.777274161,722049.0941300928,0.08956866284293817,0.06923877719854493,0.044784331421469085,0.09182094184053548,0.07732164839906108,0.09614341752660975,0.11539268424948443,0.07071522722684685,0.06214548376498715,0.09395842981716561,0.0764983196969517,0.11241207601540575,2.521467051585961,0.017162534991206017,1.208073719166721,19.30942649373407,4.635745538596852,0.22139747806980892,0.5340973570786153,0.07462686567164178,0.425502311824291,0.2837044705290287,0.0031904512644258883,12579.389108113852,316.51072092163565,0.048000000000000695,0.4437036129735602,0.16838640998324747,0.3187648559876336,Amy,REC_20260323_145055.csv
left,13,concrete,14.592,0.9759999999999991,0.0,17209.0,1.1040824584328952,36944.51112141017,1817.7083333333335,0.5704628239690914,0.23726515591710245,0.48285880302149914,0.1314747037919942,0.4151210088352844,0.31671416525217333,5163.0,3640.0967741935483,-18.5,459.2016129032258,0.12615093537038186,0.0,-0.7704918032786885,-0.7704918032786885,0.7828043465372562,-1.0315959011374018,10842592.595412731,9875247.0,3229033.0,3100751.0,4572604.089220335,1609101.4123234376,1015063.22262527,0.09823826023767536,0.07901686413867054,0.04929415205196601,0.09333321517506625,0.08541956523665624,0.09906241415063408,0.10056450112102656,0.06406245845998422,0.058288950134257334,0.086527298990633,0.06741224533200996,0.11878007497142047,2.67073451564185,0.013524732283662815,1.0413549990228452,22.4774315078927,4.602874681153716,0.31656703897585103,0.5625786981886136,0.08196721311475409,0.44642913572147463,0.1624707283508055,0.005544815633381558,13270.654555572359,301.96357779509617,0.04800000000000163,-0.012492882586572137,0.23934815961062833,0.30530826478559514,Amy,REC_20260323_145055.csv
left,14,concrete,15.584,1.024000000000001,0.984375,21727.0,1.5392006537898704,36871.81022136017,1111.9791666666667,0.3489794066401175,0.2666276574995124,0.4503608347961771,0.13232038129362653,0.4103723359305018,0.3224398179606993,5127.0,3641.0461538461536,-47.19999999999999,462.5153846153846,0.12702815758784458,3.5873015873015874,-3.0,0.5873015873015874,0.9523770837649874,-0.6375105961415652,11113380.16042806,10531316.0,2437352.0,2580294.0,4570197.880549299,1449772.7418997188,974311.5871397022,0.09771071712272045,0.07336015008366151,0.043419473693105955,0.09537411056839117,0.0827108016292866,0.09823043250460561,0.10830784051920836,0.06330386871059882,0.06069684114455694,0.08914175131407712,0.06901651258302771,0.11872750012675985,2.38731720555034,0.013384401991818468,1.0034472962660073,22.840606085289306,4.259750131898125,0.2356287879608659,0.5281532521008121,0.046875,0.4586465012028209,0.18368892562795944,0.004155902910428486,2578.692110353636,355.4568259599583,0.04800000000000163,-0.015154670924953997,0.1643809708863627,0.19674107941485408,Amy,REC_20260323_145055.csv
left,15,concrete,16.624,1.0080000000000027,0.0,20832.0,1.4530052609513373,39518.390402444275,859.375,0.2697030543120346,0.25545644334788387,0.4473334598595559,0.14539812878181457,0.4041366488496398,0.3597746682850614,5269.0,3630.65625,48.400000000000006,507.6015625,0.13980986564068135,0.0,-1.507936507936508,-1.507936507936508,0.7326533107116939,-1.1366641231869843,11560052.559640635,11308337.0,2072054.0,1209513.0,4995044.437161563,1400172.6300468168,805436.7236820867,0.09560513336948383,0.07370826555116586,0.04313528029540114,0.09477883647067938,0.08193680550176019,0.09628510685912499,0.10977698590991643,0.06998132224718327,0.05742763446690939,0.09284220311410643,0.07541680653463131,0.1091056196796378,2.649522758054856,0.015941010088236424,1.1970020041432392,20.751571850918697,4.761395182831873,0.27165281374312,0.5706636592468782,0.047619047619047616,0.42502671717072155,0.2658497784239153,0.004009105554879681,2392.3307324309117,496.69999320165914,0.02444040370643361,-0.03848144646568678,0.308309979279627,0.1908265005151699,Amy,REC_20260323_145055.csv
left,16,concrete,17.648,1.0079999999999991,0.9841269841269841,20689.0,1.439233259637471,38533.80518453894,1046.875,0.32854735707102395,0.25904184813482295,0.4591933345957205,0.13331013775595676,0.414307375764058,0.32176626715858053,5281.0,3637.546875,-15.900000000000006,464.5859375,0.12771957406047174,1.8870967741935485,-16.0,-14.112903225806452,0.9379414958943686,-0.7006561026985927,11531209.276803887,11123856.0,2227214.0,2065946.0,4930630.073664441,1486603.6824397699,891422.1212563745,0.09601250842987419,0.07252483859744076,0.043603389990678816,0.0982375656671091,0.08541127047331865,0.09837931641774375,0.10880014432803702,0.06495620760900847,0.05975438460844577,0.09033818292719596,0.06835393014694828,0.11362826080419926,2.3723839753409517,0.011370499633774423,1.155989552556458,27.135075459848085,4.700462682194218,0.23642982481037444,0.5484736365564562,0.047619047619047616,0.49510563435317617,0.181580571466122,0.003854078454126068,562.5711806815377,131.1511008561792,0.009237604307037496,0.38742501254380124,0.303690279727943,0.1194097979379564,Amy,REC_20260323_145055.csv
left,17,concrete,18.672,1.024000000000001,0.0,50184.0,4.279828915249242,51929.79296126647,1656.25,0.5197913410377394,0.24280442804428043,0.45018450184501846,0.14026928594165333,0.40594214940946427,0.3455400877824938,5420.0,3721.523076923077,-22.900000000000006,503.2692307692308,0.1352320596612636,0.0,-3.046875,-3.046875,0.6245755308511198,-1.245624531869533,8644797.705814231,7772649.0,2913827.0,2414139.0,4562927.106107972,1359811.5718075568,858906.8848730491,0.09341915427513135,0.07260881607613094,0.04552726551163916,0.09416326648725294,0.08295197582462101,0.09640800499381974,0.11024435818254726,0.06814414280340142,0.05981008602763963,0.09237739717816114,0.07212514313825191,0.11222038950140346,2.50340621460745,0.013253961371307273,1.080063055774095,23.988261136287647,4.752240431373488,0.22866551285851672,0.5509545549054798,0.0625,0.4121716269443019,0.24823893291909752,0.0022840202467391824,16987.816114301844,416.63411331166884,0.009237604307037496,0.14697670855458062,0.3090287815813044,0.10170858615480304,Amy,REC_20260323_145055.csv
left,18,concrete,19.712,0.9920000000000009,0.9838709677419355,21182.0,1.486712956474786,37220.45065552001,1851.5625,0.58108748974502,0.2277115275411698,0.44141586219950785,0.13061321880219517,0.4139085920045118,0.31556053999643763,5283.0,3658.809523809524,-95.6,459.3968253968254,0.12555909850111713,1.098360655737705,-9.0,-7.9016393442622945,0.7374219757987482,-1.0938098266716403,11235463.257292464,10368826.0,3111747.0,3006678.0,4651496.2959822295,1493867.279451362,1022501.7013263111,0.10228411531203227,0.07801999956616994,0.047569467039760525,0.0957376195744127,0.08653608381596928,0.09682653304700549,0.10034055660397823,0.06105290557688553,0.05678835600095442,0.09165527862736166,0.06956031322530964,0.1136287716101603,2.626146191235414,0.011756035289682807,1.2059072310330612,27.433640635942925,4.439094916463557,0.191025838770028,0.5229630532686887,0.06451612903225806,0.4247101643364787,0.1927416007013918,0.0029060582959548613,16888.428375665986,419.72348753623925,0.016000000000001985,0.23437984034868184,0.3143232606513265,0.23219144354425417,Amy,REC_20260323_145055.csv
left,19,concrete,20.72,1.056000000000001,0.0,19459.0,1.3207747867979227,35610.17906441921,2843.75,0.8924719251780053,0.23276190476190475,0.4419047619047619,0.1423002895175247,0.4047988742782279,0.3515333133550739,5250.0,3691.1641791044776,-31.900000000000006,507.3731343283582,0.13745612758180084,0.0,-0.7272727272727273,-0.7272727272727273,0.5091004441475597,-1.457224149236543,10471458.998902159,9709092.0,2465452.0,3050661.0,4074148.4430587036,1323347.034785976,975798.3045034866,0.09757064065861193,0.07550908179274428,0.046338978116356934,0.0946512041664645,0.08524188461351836,0.09458650751289889,0.10344590551053746,0.06529105407022821,0.05481019619260193,0.09423471945913597,0.07700923544729649,0.11131059245960502,2.614941292114952,0.013980028922171362,1.2153567617889376,23.10077287560832,4.223849402671984,0.17446504088196735,0.4979831370226267,0.06060606060606061,0.39977854887081404,0.17539328537861437,0.002378557920923032,17263.209232353063,636.7546960712184,0.032000000000001014,0.26185577263716514,0.16040732508212463,0.46846770774908925,Amy,REC_20260323_145055.csv
left,20,concrete,21.792,0.9599999999999973,1.0,42584.0,3.5478903838829265,45307.530952370376,1546.875,0.48546549776166226,0.2521825396825397,0.4986111111111111,0.11923877629134497,0.4317942063351289,0.2761472352843971,5040.0,3512.032786885246,-42.099999999999994,398.3524590163934,0.11342503990963151,0.85,0.0,0.85,1.2647051239421376,0.08081138631468088,8606848.87662041,7553959.0,3745825.0,1727526.0,4333887.135072664,1561698.84521961,954652.0427724071,0.09638059318315487,0.07129587273728727,0.04247224996965934,0.10493199025364788,0.08498184228460468,0.1047452785272179,0.10830680470886973,0.05819337733506353,0.06583922253237114,0.08234920694194198,0.06104539895628145,0.1194581625699002,2.404984361333633,0.0223405158034224,1.0122954498892642,12.496207604121311,4.065651711255587,0.2574384854337375,0.502888462401441,0.05,0.4241735059453007,0.11867995111001518,0.004798367044938326,12882.67543382714,678.129200255809,0.04888080741286453,0.10351806081082476,0.07493416112092541,0.4873201469841495,Amy,REC_20260323_145055.csv
left,21,concrete,22.768,1.088000000000001,0.0,51514.0,4.407918158238346,53139.206364039725,1937.5,0.6080577951762235,0.256318407960199,0.46228855721393036,0.1497921205240711,0.3987757356325366,0.3756299773013319,5025.0,3778.6666666666665,-37.80000000000001,548.5579710144928,0.1451723635359455,0.0,-2.4558823529411766,-2.4558823529411766,0.29149216656236593,-1.585748882994968,9434102.936105479,7475768.0,3121521.0,4834387.0,4251744.610339593,1198442.2727506831,1147093.1140553565,0.0949341842840048,0.0746563468442208,0.043125402718541934,0.09288990825688073,0.08000291491516062,0.09345754963026602,0.11095854683808413,0.06996179926973704,0.057769015986008414,0.09369534534073824,0.07983032125433402,0.10871866466202326,2.564679482347546,0.010693519044896528,1.0164108819662836,28.890277795571865,4.592133961620866,0.22278890128017292,0.5394325647521847,0.07352941176470588,0.4376715892737983,0.2322096225192741,0.002140285492219732,16543.042596007945,665.3021517513675,0.06661331198291877,0.22982123733886747,0.13175370586606697,0.18437076160332153,Amy,REC_20260323_145055.csv
left,22,concrete,23.872,0.9759999999999991,1.0,43086.0,3.596236850033702,45466.54687789694,2819.0104166666665,0.8847077463417498,0.24649017248295227,0.4675090252707581,0.13203295030646692,0.4190850065200896,0.3150505225723195,4986.0,3549.8225806451615,-63.900000000000006,449.8790322580645,0.1267328217221215,2.0491803278688523,0.0,2.0491803278688523,0.8540334065838916,-0.8673930808639589,8991445.231513953,7624819.0,4451985.0,1699427.0,4556860.386164144,1510818.077877056,935629.9883144883,0.09920532148358165,0.07520139579897223,0.04377320084147776,0.09829205457792076,0.08679216135290724,0.10072288937657038,0.10229043705046595,0.06332892602538064,0.05807650541371899,0.08713747620280886,0.06870402428108628,0.11647560759510923,2.6085107839080544,0.015010494638411498,1.0927419706412886,19.24148235319277,3.940599231136633,0.24478547991116675,0.477448077198551,0.04918032786885246,0.4336041338045418,0.1376527018417569,0.004544292140388963,5017.105540049948,651.6615972080539,0.06974238309665291,0.27869378367194536,0.08622224094676902,0.14810403006728778,Amy,REC_20260323_145055.csv
left,23,concrete,24.864,1.024000000000001,0.0,15812.0,0.9695405994435872,35248.85386789193,1697.9166666666665,0.5328678527619592,0.24203069657615112,0.4573002754820937,0.13271853124656133,0.41390372520970703,0.3206507290535508,5082.0,3635.107692307692,-58.80000000000001,464.1923076923077,0.1276969891908821,0.0,-1.359375,-1.359375,0.7374500615206987,-1.0990127388236839,10580904.534406735,9938777.0,2708576.0,2416582.0,4346263.7324159695,1433104.5929649926,877933.3356565991,0.1008413675184737,0.07346306532025293,0.04380359062476194,0.09743018935001396,0.08258775530933377,0.10015574609999917,0.10845938327930185,0.06540489753768802,0.06026696913010725,0.0882462481272378,0.06731363370887329,0.11202715399395638,2.668118455632576,0.012747000951936994,1.0099431548987436,24.982223737997263,4.75739704710981,0.3045619280700023,0.6099321033528062,0.046875,0.4334517045830252,0.24319148632649082,0.00452983956668313,18661.614185273465,590.3829244075424,0.05619015334854939,0.1208422160023963,0.13250638479665838,0.21260826766800847,Amy,REC_20260323_145055.csv
left,24,concrete,25.904,1.0399999999999991,0.9846153846153847,18927.0,1.2695390896022807,34811.69763168697,1921.875,0.603154103279641,0.23720136518771331,0.4406522563519151,0.1288378658292129,0.41491547507684085,0.31051593292650026,5274.0,3628.121212121212,-47.80000000000001,449.45454545454544,0.1238807964720032,2.0,0.0,2.0,0.7906710353204567,-0.9854001499504119,10235428.814470502,9635788.0,2393370.0,2487443.0,4379273.01718783,1356136.3190810292,950927.9651218087,0.10066567553120408,0.07229303086997195,0.04939529600427636,0.09707002539088601,0.08367299211546171,0.10156772016570895,0.10281638380328745,0.06126386476012295,0.06031170653481224,0.08863423760523854,0.06757400106908994,0.11473506614993986,2.519225258545724,0.01146139303657544,1.1150154657873006,27.198601292281637,4.403313682705711,0.2721223158670292,0.5491652421383131,0.06153846153846154,0.4358345567065942,0.19619201068737516,0.003306031804804811,14928.895817619374,593.2762829121266,0.033306655991459405,0.10641088013576201,0.1306109802396989,0.22578859328817985,Amy,REC_20260323_145055.csv
left,25,concrete,26.96,1.0559999999999974,0.030303030303030304,19794.0,1.353037866798938,34999.49908212973,1171.875,0.36777689224368354,0.24548665620094193,0.472723704866562,0.1325296302776071,0.41990161893408307,0.3156206699415604,5096.0,3668.3432835820895,-22.400000000000006,467.7164179104478,0.12750072219351533,2.5,-0.390625,2.109375,0.7904013905199434,-1.0190619430170236,10639889.934944674,9972985.0,2193006.0,2989574.0,4436251.568291996,1206799.0169955692,993906.3117467113,0.0988855842036952,0.07122658974119025,0.040967698623560186,0.10146106868365483,0.08405925648651837,0.10159533564706505,0.10570878716245083,0.06607155208541007,0.06155936837565455,0.08517001045654837,0.06645807819219705,0.11683667034205526,2.731819806168454,0.01756590353126344,1.0366257523259328,18.275411551545986,4.693483930143246,0.2713786917860567,0.581399961813064,0.06060606060606061,0.4217563154863059,0.23198027139371422,0.0028139278454991337,2094.0884253854333,385.0058809375275,0.016000000000000313,0.08349109379394244,0.25608011576006046,0.24181137315895332,Amy,REC_20260323_145055.csv
left,26,concrete,28.032,1.0079999999999991,1.0,44369.0,3.719799631052515,47388.076158459946,1898.4375,0.5957985654347673,0.26393249607535324,0.4793956043956044,0.12060490501346954,0.42635045306650804,0.282877393810525,5096.0,3572.875,-93.69999999999999,410.8359375,0.11498749256551097,1.9206349206349207,0.0,1.9206349206349207,1.0656129315109089,-0.3228231061083773,9213496.959817482,7539298.0,4844161.0,2140471.0,4683916.71642594,1602242.4043785501,855345.720059642,0.09647780149039639,0.07200958611762236,0.04408214673057412,0.10018629954868279,0.08323129132701255,0.1040391141587657,0.11237886156106777,0.05958086974775216,0.06688416191442466,0.08320067872511633,0.06102403526571738,0.1169051534128678,2.744002317521069,0.02398506263731231,1.1852966153086024,11.880381833420294,4.246731492582864,0.23586077907640232,0.5451214008823981,0.047619047619047616,0.46413715388019183,0.19523918701516554,0.006088141063813241,14445.170346289908,426.4079390310997,0.024440403706431784,-0.032900356051886445,0.06857021367520807,0.1881049243381956,Amy,REC_20260323_145055.csv
left,27,concrete,29.056,1.0879999999999974,0.0,20019.0,1.3747070996354407,37578.7624197498,1187.5,0.372680584140266,0.25048619214313494,0.46363282769350445,0.13822430053938115,0.4213796801564521,0.3280279212513789,5142.0,3675.710144927536,27.099999999999994,489.92028985507244,0.1332858877708734,0.0,-1.0441176470588236,-1.0441176470588236,0.7855180838349664,-1.0441295759593179,11752040.816170866,10971139.0,2813645.0,3134960.0,5105975.372522266,1516885.6196713273,909085.3887810583,0.0987209412358452,0.08214916569409836,0.04303614799861212,0.0967100905277103,0.08999936914487588,0.09628820616345457,0.09980128063590198,0.06591647478156643,0.05623284862631297,0.08919897170614768,0.07230782575781472,0.10963867772765985,2.6997329374488044,0.00951361606364861,1.109153911029415,32.955529744535944,4.962646197575632,0.2641713319718811,0.5947972448411762,0.07352941176470588,0.44340522376066616,0.2986432925352099,0.002269495409753088,14123.879011565248,415.04404102406244,0.040265783654777274,-0.0024697675313317376,0.08533574636424493,0.10917310436210233,Amy,REC_20260323_145055.csv
left,28,concrete,30.16,0.9920000000000009,1.0,44843.0,3.765449481561414,46680.73986131754,1223.9583333333333,0.38412253189895834,0.2470924690181125,0.46005719733079126,0.1295414223162237,0.42541885526005296,0.3045032459526339,5245.0,3632.3492063492063,-18.80000000000001,450.3333333333333,0.12397853503351716,0.7419354838709677,0.0,0.7419354838709677,0.887661811838693,-0.7673809661836501,8948256.348058486,7414682.0,3247359.0,3814242.0,4734851.397078936,1397378.7468099983,1154410.7530442304,0.0999353254267211,0.07926131149546842,0.04380828358926402,0.09903512528513621,0.0883157517545163,0.0988515893339393,0.10290248997107124,0.063809332366128,0.059955077390992755,0.08703973990333774,0.0657320899500957,0.11135388353332926,2.6532693842184973,0.010602113218188488,0.9243642759265106,28.426116746233596,4.031091889239421,0.19682177844820659,0.49064361197655515,0.04838709677419355,0.442186476606901,0.1870302098499419,0.003403932359353674,14197.289365697008,400.3505724659862,0.05143280405862816,-0.0009436891281066122,0.1466058890728541,0.09857856628777974,Amy,REC_20260323_145055.csv
left,29,concrete,31.168,1.024000000000001,0.984375,44421.0,3.7248076315302847,48522.665487378166,1531.25,0.4805618058650798,0.2552062868369352,0.4612966601178782,0.12631823461091754,0.42468165980361106,0.297442170375924,5090.0,3642.6923076923076,3.1999999999999886,440.68461538461537,0.12097772146552634,0.7142857142857143,-24.0,-23.285714285714285,1.0385793714844056,-0.4949058589419697,9033284.628472304,7754323.0,3970624.0,2388483.0,4696296.364131144,1456001.365085141,788839.4152404203,0.09483264702776897,0.0735804033365009,0.04273677541970225,0.1003653257311794,0.0848189209164819,0.10100306197867173,0.11254566571639743,0.06314011192059972,0.06491394784077711,0.08223841199450956,0.06317812269031782,0.11664660542709322,2.7856673316904863,0.021639293766898892,1.1802333900315636,13.892763145658805,4.717452568826543,0.2909503727264711,0.5900154414199603,0.0625,0.434093491628631,0.24957536438287808,0.0067456763338430556,14211.88859136369,188.8215387485516,0.048880807412861105,0.08403040401959659,0.16156428180648055,0.042285813944424606,Amy,REC_20260323_145055.csv
left,30,concrete,32.208,0.9920000000000044,0.016129032258064516,17674.0,1.1488655396283343,36566.233139332246,3694.4444444444443,1.1594507062141608,0.2498566239724718,0.45192123876887785,0.12258994454778677,0.42414331179307246,0.2890295358647897,5231.0,3600.9841269841268,62.099999999999994,422.5079365079365,0.11733124101876913,35.0,-3.1639344262295084,31.83606557377049,1.0848085708607942,-0.32569859104501164,10706637.290333226,10115928.0,2197893.0,2733011.0,4614203.379570839,1265317.3458970014,1006377.8882659699,0.09892357468416924,0.07432712397845387,0.04242226551824457,0.09973023247613087,0.08692068305842318,0.10010490959261578,0.10835662208743642,0.060684468972326794,0.06306036268744876,0.08489742662940467,0.06190547557545997,0.11866685473988592,3.0090627840793074,0.016581430172225447,0.8824611025320217,18.031172671322008,4.337138109293539,0.24558598093317396,0.5726955224695908,0.04838709677419355,0.42246650934691427,0.1714273366972654,0.004948440763213031,15565.638727659076,1346.4236578228874,0.01847520861406889,0.18775518926815038,0.003436222304981284,0.10829512694996561,Amy,REC_20260323_145055.csv
left,31,concrete,33.216,1.088000000000001,0.9852941176470589,18956.0,1.2723320129456521,35320.489648361334,1671.875,0.5246950329343218,0.24551971326164876,0.4715252887295898,0.12780546636635198,0.41709796968099555,0.3064159397947096,5022.0,3629.0434782608695,13.5,447.0869565217391,0.12319691378731969,2.0597014925373136,-20.0,-17.940298507462686,0.8521552718354798,-0.8716018255127063,10801276.313513787,10242988.0,1932777.0,2830749.0,4642564.427537964,1447215.7375286997,892026.3562924977,0.09504241146307567,0.07187984217504513,0.04160876024344659,0.09860066133128864,0.0839802878548266,0.10056548617434226,0.11187920320761649,0.06266273701698057,0.062071692145492886,0.0898188527339819,0.06514272934937142,0.11674733630453188,2.410380869320507,0.01783922406466412,1.1057988872706623,16.44297121575983,4.367898147186452,0.24640271250007,0.5575965616747318,0.058823529411764705,0.46724516798485943,0.20186845288108093,0.003730201421489714,15085.930299454523,1210.369967730295,0.04888080741286146,0.2692166610366372,-0.052382616548315344,0.11208221938749396,Amy,REC_20260323_145055.csv
left,32,concrete,34.32,1.0399999999999991,0.03076923076923077,19205.0,1.2963126306180486,34978.981917717385,606.7708333333334,0.1904267019839517,0.24348502528199145,0.470439517697394,0.14520731566915018,0.4146724560451308,0.3501735250369548,5142.0,3684.909090909091,-28.599999999999994,516.719696969697,0.140225900889788,26.0,-0.4603174603174603,25.53968253968254,0.5276167716286678,-1.3939916030052326,10829320.000845851,10195340.0,2561968.0,2601064.0,4680675.38311256,1617556.1593811563,923932.8344871181,0.0946119307248236,0.07694774756994129,0.04085047943290406,0.09620729922205226,0.08739576651699808,0.09683228894261607,0.10339056923405865,0.0703935790529761,0.05728935379352313,0.08989572539925329,0.07481373661617408,0.11137152349467935,2.7528387377085974,0.009950657794460376,1.0933691005026278,34.083167808783855,4.376840167753763,0.25352682973939383,0.5563988735314341,0.046153846153846156,0.4367892527790251,0.20805068198237492,0.004197918067160816,821.5316995304518,1568.3835825568376,0.047999999999998946,0.32012226342552613,0.11038694552865393,0.07721887273370476,Amy,REC_20260323_145055.csv
left,33,concrete,35.376,1.1200000000000045,1.0,12687.0,0.6685790322699379,37138.6377779261,1875.0,0.5884430275898936,0.23692307692307693,0.48173076923076924,0.15137011618646234,0.4043357480098924,0.37436738386697793,5200.0,3696.0985915492956,9.5,542.4366197183099,0.1467592398532141,0.6285714285714286,0.0,0.6285714285714286,0.46228504442044294,-1.5640747596804845,11217038.81320975,10825753.0,1775174.0,2339613.0,4871481.686988067,1352920.8060013691,807885.6263464001,0.09150112604459214,0.06917457692351661,0.04309454582868117,0.09526985058474295,0.08168872393044817,0.09799064868551918,0.11081726830346426,0.07480670520495536,0.06021194788566551,0.09010262057822675,0.07656341098150696,0.10877857504868095,2.581326304922363,0.016362764418185648,1.0242125651837222,20.069440385594987,4.135053540567191,0.1856617084449381,0.502756834095629,0.07142857142857142,0.46225950145735684,0.23323235297110645,0.0019260733621277583,3693.3879207759082,681.1891404815212,0.04026578365478073,-0.018479097904964707,0.12522145406094962,0.012786743156977861,Amy,REC_20260323_145055.csv
left,34,concrete,36.512,1.0399999999999991,0.0,21416.0,1.5092489586247488,35934.79806538503,1218.75,0.3824879679334309,0.23522791221159256,0.4286250234477584,0.14888014903746635,0.41025874560132475,0.3628932975436038,5331.0,3659.848484848485,58.19999999999999,526.0454545454545,0.14373421651831916,0.0,-0.3384615384615385,-0.3384615384615385,0.49131508968487364,-1.5174405819295587,11270496.535265649,10842857.0,2107485.0,2239431.0,4890362.488907073,1405989.9755725071,794551.1109111517,0.09596356861933346,0.07929207203477541,0.04558890498861519,0.09352515007244877,0.08642931070171807,0.09524322086524528,0.10035189401780169,0.07048644173049058,0.05576899192713723,0.08916994411095011,0.07839370730697579,0.10978679362450838,2.567272389119846,0.013146188938317208,1.279912328806315,25.24879838524011,3.8943717991910303,0.1634736255868267,0.4874030661200506,0.06153846153846154,0.4269300352136693,0.17890510340094037,0.002188569471677934,4538.139964052826,634.2433526281608,0.04618802153517384,0.01405274103419374,0.03754038411874309,0.03101848698061104,Amy,REC_20260323_145055.csv
left,35,concrete,37.568,0.9920000000000044,1.0,32859.0,2.6112979868385304,41457.37699131483,1671.875,0.5246950329343218,0.2599509526504433,0.4670816827013771,0.12444383629365444,0.43216568381651893,0.28795399763024326,5301.0,3596.063492063492,67.19999999999999,426.8492063492063,0.11869901832691832,2.467741935483871,0.0,2.467741935483871,1.049536002795488,-0.41617263763568957,8754451.556654878,7525859.0,3332880.0,2982244.0,4773128.243574615,1303447.4750092537,908775.4327437308,0.09254828913450333,0.07645485363183728,0.04792277269677602,0.10155284438009818,0.0882313994138211,0.10221053003284014,0.10711889544122322,0.060696881952046325,0.06371605635792224,0.08081588332921359,0.06374695434160811,0.11498463928811045,2.847711685525558,0.017079372447281607,0.9170324247198839,17.15672105950233,4.020311586254874,0.17359680707366565,0.4952558223189957,0.04838709677419355,0.4535041123909095,0.2011514149895065,0.004339123864435085,10116.383362315475,335.96777964312736,0.06466323014923904,0.2855276836840807,0.2366653329536262,0.07140262558028318,Amy,REC_20260323_145055.csv
left,36,concrete,38.576,1.088000000000001,0.0,19133.0,1.2893784761103677,36702.168410054466,3625.0,1.1376565200071278,0.2663729220909273,0.49429200881233726,0.13258662369057211,0.42710314262691373,0.3104323299402736,4993.0,3597.1014492753625,73.4,458.1521739130435,0.12736704270749397,0.0,-1.0147058823529411,-1.0147058823529411,0.9600510604457616,-0.7457872846431157,11148462.649685472,10911274.0,1701870.0,1528384.0,4585575.290091011,1105098.4523347646,994324.6499844425,0.09211522965350523,0.07203867848509266,0.0417767929089444,0.10207091055600322,0.08769137792103142,0.10082997582594681,0.11326349717969378,0.06608380338436744,0.06447219983883964,0.08296937953263496,0.06650282030620466,0.11018533440773569,2.799702748909353,0.018129495511770326,1.3006719769270634,17.30470483843442,4.092412239695093,0.17531341253503485,0.5062769060910971,0.04411764705882353,0.40004198390482637,0.18174951561627078,0.008861863929932177,7354.787715042044,1278.6750039102972,0.047999999999998814,0.3622412382229946,0.31702575362517726,0.3064019515606352,Amy,REC_20260323_145055.csv
left,37,concrete,39.68,1.0559999999999974,0.0,20827.0,1.4525237224438594,36206.73303406426,1703.125,0.5345024167274868,0.23898657591227074,0.4560408394781622,0.12665345269589576,0.42277198528990195,0.29957863127795736,5289.0,3644.5671641791046,35.19999999999999,443.2686567164179,0.1216244993570475,0.0,-1.0909090909090908,-1.0909090909090908,1.0188082922880624,-0.5541430221313575,10764545.827595562,10438465.0,1618792.0,2072054.0,4395517.929733799,1330906.8231002523,821267.10241324,0.09502182762320525,0.07579877634262405,0.04277067481346187,0.09853554257819858,0.08452163514697812,0.09891230455472468,0.11125125928595414,0.06339839302826533,0.06500372666737651,0.0853734448330371,0.06325505966763041,0.1161573554585439,2.755841273034802,0.019363222781862914,0.9940604361966733,15.832605176392626,4.174998106787648,0.23741960713490862,0.5443826931440969,0.06060606060606061,0.44278152843537577,0.20819223986355292,0.005216789262525551,7483.779526415782,1118.7252674174888,0.04888080741286054,0.25925030864883364,0.23241350194214774,0.16405759588881055,Amy,REC_20260323_145055.csv
left,38,concrete,40.752,1.0559999999999974,0.09090909090909091,19124.0,1.2885117067969076,32479.583125403566,2875.0,0.9022793089711703,0.2349548163814651,0.4524129975004807,0.14067532636969265,0.4180304475810726,0.33651933055024236,5201.0,3660.805970149254,-5.099999999999994,497.04477611940297,0.1357746846384044,0.16666666666666666,-0.65,-0.4833333333333334,0.6511707790443054,-1.288990121446094,11145381.561339432,10786658.0,2406809.0,1440420.0,4475513.9294776805,1348627.0233872882,818643.6666490528,0.09329973825191418,0.07590286781313958,0.04298458050996029,0.09742573611552793,0.08695173560997088,0.09758066488906283,0.10588158549214348,0.0684255159535866,0.06016944315337133,0.08941836476756607,0.07224981041610606,0.1097099570276507,2.569978484889245,0.0170007617195953,1.1829759848361339,19.475810403403532,4.478090652799264,0.25146940783707983,0.5500372319718888,0.06060606060606061,0.4322003274495396,0.2503024970721895,0.00232365059362093,980.639757165374,968.6239837393031,0.018475208614071436,0.4174541904589822,0.2640288646195951,-0.007582558227551983,Amy,REC_20260323_145055.csv
