foot,step_id,surface,contact_time_sec,cycle_duration,stance_time_sec,stance_frac_true,stance_duration,time_to_peak_frac,impact_mag,impact_mag_norm,accel_mag_strike,loading_rate,loading_rate_norm,heel_pmax_ratio,fore_pmax_ratio,heel_mean_ratio,fore_mean_ratio,heel_fore_ratio,total_pmax,total_p_mean,midstance_diff,heel_impulse,heel_impulse_norm,rise_slope,fall_slope,slope_asym,heel_skew,heel_kurt,gyro_mag_strike,gyro_x_strike,gyro_y_strike,gyro_z_strike,gyro_x_std,gyro_y_std,gyro_z_std,gu_dip_depth,gu_load_first_frac,gu_push_peak,gu_load_slope,gu_unload_slope,gu_fore_early_frac,gu_fore_heel_toff,gu_stance_frac,gu_spatial_entropy_ff,gu_spatial_entropy_stance,gu_participation_ff,gu_active_sensors,gu_cop_wander,gu_press_jitter,orient_range_a,orient_range_b,pressure_01_mean_ratio,pressure_02_mean_ratio,pressure_03_mean_ratio,pressure_04_mean_ratio,pressure_05_mean_ratio,pressure_06_mean_ratio,pressure_07_mean_ratio,pressure_08_mean_ratio,pressure_09_mean_ratio,pressure_10_mean_ratio,pressure_11_mean_ratio,pressure_12_mean_ratio,accel_spec_centroid,accel_hf_frac,accel_spec_entropy,accel_zcr,accel_jerk_ratio,gyro_hf_frac,heel_ripple_frac,impact_mag_roll3_std,loading_rate_roll3_std,stance_duration_roll3_std,orient_rest_a_roll3_std,orient_rest_b_roll3_std,source_user,source_recording
right,0,hard,0.592,0.9600000000000001,0.624,0.6499999999999999,0.9600000000000001,0.06666666666666667,16094.0,0.8579644113927037,35325.681224853965,382.8125,0.12335693804791065,0.25121412803532006,0.5041942604856512,0.15529042661509157,0.4065290572766202,0.38199096432438195,4530.0,3365.032786885246,-25.599999999999994,516.9262295081967,0.15361699639981097,187.25,-15.0,172.25,0.9739230774375095,-0.7608756423354954,11533834.362924153,8894197.0,2613281.0,6862460.0,4665478.9715810865,1666931.5432820877,2239793.6587331328,0.44584386398648246,0.5780996517727177,0.7724338723390621,0.12739057730977366,-0.17193027736990096,0.36885451533165986,0.52,1.0,0.9678666398497723,0.9659460892281718,0.8638406722941304,12.0,0.07070293475956248,0.008425262985856219,1.5407421292879118,1.8412529826953516,0.10719696785162738,0.09969454417904486,0.04496095329497679,0.12752171561916917,0.0952174484939128,0.04786936039402339,0.1286275923553226,0.07152148177739237,0.03622598859046997,0.11836291269419828,0.08376894483769919,0.03903208991216318,4.082132933736624,0.2216632620022394,0.5925709665573082,0.1,0.5353133332100821,0.17907069193104838,0.0029090928188863366,0.0,0.0,0.0,0.0,0.0,Catherine,REC_0811_00000.csv
right,1,hard,1.568,1.024,0.6400000000000001,0.6250000000000001,1.024,0.09375,12462.0,0.5410852443391188,30925.64736590004,275.29761904761904,0.08871150063698141,0.25615530303030304,0.5191761363636364,0.15897157845467982,0.40719783860936937,0.3904037874991421,4224.0,3319.8,-29.0,523.1923076923077,0.15759753831324408,130.83333333333334,-13.551724137931034,117.28160919540231,0.7914506616323795,-1.1138445939454311,10154634.762096075,8268671.0,1793500.0,5615073.0,4376575.729958512,1822353.8747146672,2040005.8633223914,0.4698052752504598,0.5873184514307679,0.7755569243780482,0.13880231290053857,-0.19068643181105505,0.39209926359593733,0.5,1.0,0.947649462951669,0.9614927015902901,0.800827411814475,12.0,0.06750185390362767,0.008761259088408009,1.5008821321388561,1.390932305670617,0.10641512231969488,0.10318045109297594,0.045929550899729825,0.12819122560673257,0.0978742927053066,0.04631882365480775,0.12950733825485317,0.073146204358928,0.031633045549546546,0.11897380287042314,0.08582537409575182,0.033004768591249706,3.2227154136022085,0.12242695495186294,0.5189386992163201,0.09375,0.4636185683847427,0.07601195678897789,0.001351895895458229,2568.2118292695404,76.02450139989296,0.04525483399593904,0.2759932944388862,0.3190592200292928,Catherine,REC_0811_00000.csv
right,2,hard,2.608,1.008,0.6080000000000001,0.6031746031746033,1.008,0.06349206349206349,15668.0,0.8207974165785994,35206.38601163147,364.5833333333333,0.11748279814086728,0.2563986409966025,0.5012457531143828,0.17170999874399775,0.3985826497782673,0.43080148832215187,4415.0,3234.46875,-15.5,549.2109375,0.1697994261035912,178.0,-12.898305084745763,165.10169491525423,0.8042397405876243,-1.1460554115659947,11151270.308940278,8571661.0,2708576.0,6598566.0,4336054.777099083,1582582.0853498105,2249713.980053362,0.4450736130905758,0.5876570300826691,0.7234572910927881,0.10277686913143569,-0.16041495001520056,0.3629962353990087,0.48,1.0,0.9292431439794451,0.95143810063532,0.757109536910706,11.0,0.06257525598248291,0.007702710906795009,1.2649775574900053,0.9406899454417044,0.10191008956262138,0.10295353757862091,0.039742809387167524,0.13230534380645972,0.09928214641121513,0.03877182303894573,0.1359380887510507,0.08006531211655701,0.025269798943025806,0.12285634232824169,0.09164468662744076,0.029260021448653663,3.3546652738955722,0.14180144353365196,0.5292894938988032,0.09523809523809523,0.519999652208785,0.09706622726395915,0.0016917659096550904,1985.4191832792724,57.537945333313104,0.03330665599145813,0.9011944097217952,0.9171155134512333,Catherine,REC_0811_00000.csv
right,3,hard,3.632,1.0079999999999996,0.6080000000000001,0.6031746031746036,1.0079999999999996,0.07936507936507936,12687.0,0.5607156993465683,35808.538953718846,597.65625,0.192587872666636,0.2483556361986845,0.47992742118394194,0.16654843392512345,0.3984224150486007,0.41801973893632893,4409.0,3325.890625,-12.900000000000006,546.8828125,0.16443198955167085,104.0,-13.258620689655173,90.74137931034483,0.7509978523423778,-1.2280904823464882,11956736.885788321,9068905.0,1987755.0,7534411.0,4490366.564514445,1458288.4839016644,2347393.5318271625,0.49238295396342346,0.5748557535737613,0.8006877856962598,0.12267390783480059,-0.16850481107700244,0.36605680249538114,0.48,1.0,0.9734557584296468,0.9659415297718729,0.8857537661523462,12.0,0.0669772879599954,0.00910463188813185,1.181195523682177,1.0539813747980844,0.1024302700874296,0.09676449447281509,0.04470607027253039,0.1255443795599863,0.09255979366429105,0.04776446158688697,0.13140277275353876,0.07889334153915539,0.03578928576462132,0.11911752960908027,0.08765509238596804,0.03737250830369685,3.687943449138875,0.14933612675948038,0.5281294032551923,0.09523809523809523,0.5066077470030125,0.07755924308846841,0.0016359019933801012,1789.5726677990287,166.43818182161533,0.009237604307034403,0.9765460953165147,0.9891876543537421,Catherine,REC_0811_00000.csv
right,4,hard,4.656,0.976,0.6080000000000005,0.6229508196721317,0.976,0.06557377049180328,19215.0,1.1302606339627035,38285.01546297193,0.0,0.0,0.23512991196048957,0.4949538329396607,0.15559134927026655,0.4111453770453162,0.3784339018677624,4657.0,3284.451612903226,-17.400000000000006,504.8467741935484,0.15370808697872676,157.0,-13.947368421052632,143.05263157894737,0.9595273815354636,-0.8243879589216965,11565015.31657637,9265603.0,2922379.0,6273586.0,4775072.315112576,1863987.941253499,2104994.639809826,0.5156516390179482,0.590096954439964,0.7742540611677307,0.1353315098849439,-0.23057929294400226,0.4043002508272537,0.48,1.0,0.940054292006572,0.9587733991938837,0.7837353366836236,12.0,0.07232658043401888,0.009010079226455924,3.3751533079871376,3.5406240389018677,0.10824706829833626,0.10251134377025672,0.04111257341530967,0.13374354239918285,0.10100375179241391,0.04323400577501031,0.1298493390166768,0.07308629122552004,0.030652733308452335,0.1182207468227622,0.08250505804474652,0.035833546131332376,3.5766464410132146,0.18291092507923204,0.5431646053947464,0.09836065573770492,0.5462998515248968,0.1739412700473792,0.0016690403001317503,3268.086953147565,301.2299743252691,0.01847520861406791,1.0380879007473571,0.9988325608918631,Catherine,REC_0811_00000.csv
right,5,hard,5.648,0.96,0.5920000000000005,0.6166666666666673,0.96,0.06666666666666667,11241.0,0.43455730849869273,37315.10411348198,270.8333333333333,0.08727293576178712,0.2288981288981289,0.4814968814968815,0.14599321967277554,0.42042450744362014,0.34725192534654864,4810.0,3336.55737704918,-7.599999999999994,481.75409836065575,0.14438657691740778,192.0,-13.928571428571429,178.07142857142858,1.2655180763334757,-0.10340639518524686,11029055.072775139,8961393.0,1400103.0,6274807.0,4897711.4664450735,1741642.9254062073,2431498.1792030036,0.5382039838405719,0.5990921113039008,0.6959268903845014,0.12639203767780538,-0.2906759972204005,0.4302372495242685,0.48,1.0,0.9408607062528843,0.965496898433826,0.789014122874081,12.0,0.07930634420923069,0.010826790459912462,3.1943322427784837,3.2597806190812264,0.11170343438313764,0.10155750994939321,0.03968456738564339,0.1317938387461308,0.09998526015820763,0.049855058222375084,0.12497420527686337,0.0683928659165725,0.03723284036751339,0.11440573871173783,0.07760035375620303,0.042814327126222185,3.4095904200156015,0.16498244071142806,0.5224331468646114,0.1,0.5048527430700024,0.19758389121185457,0.0022468927778249367,4248.340381843244,299.26490674846747,0.024440403706430927,0.4712796595638262,0.6331162388497286,Catherine,REC_0811_00000.csv
right,6,hard,6.624,0.976,0.6080000000000005,0.6229508196721317,0.976,0.08196721311475409,15056.0,0.7674025789583367,35532.43117209966,346.875,0.11177649080259658,0.2419831223628692,0.4428270042194093,0.15259437240612403,0.4130691634067396,0.369416034708343,4740.0,3248.967741935484,-30.5,490.2983870967742,0.15090897356976907,153.2,-15.160714285714286,138.0392857142857,1.1890295333185468,-0.19128149182515797,11357916.460640613,9066461.0,2456899.0,6384763.0,4610288.978460503,1720654.5800729708,2331462.854521008,0.5200777092307839,0.5935951503413759,0.7270001390017421,0.17579209844737897,-0.15893274047436523,0.40011377075077204,0.5,1.0,0.9392195760784298,0.9503752377585268,0.7831070936966125,12.0,0.06542062616007606,0.009226954628138407,2.8693668487594732,2.957252740401927,0.11287952501042516,0.10638118310530392,0.041427550189638396,0.13663396810897754,0.10387418336345043,0.041025437359756944,0.13141146567644313,0.07070235707619293,0.02515439146925078,0.12056434798149288,0.0818920153299311,0.028053575329136795,3.732987552852892,0.19817046976598268,0.550754960994019,0.09836065573770492,0.4749683321989485,0.20728486006531852,0.0019434992870234866,3988.236494157955,182.32539370536065,0.009237604307034014,0.48994877046372515,0.627121576380488,Catherine,REC_0811_00000.csv
right,7,hard,7.616,0.9920000000000009,0.6240000000000006,0.6290322580645161,0.9920000000000009,0.06451612903225806,14132.0,0.686786843727744,35811.95784929944,0.0,0.0,0.23634361233480175,0.4654185022026432,0.16562765926931647,0.3974346716131068,0.41674184740083653,4540.0,3320.222222222222,-27.0,544.6111111111111,0.16402851214778127,177.5,-13.224137931034482,164.27586206896552,0.650596859987472,-1.4050686432540007,11322720.603002928,8958949.0,2023185.0,6621779.0,4628515.752980171,1620928.4087600347,2329104.7804716295,0.48251004528930663,0.5962651483779231,0.7365071321344739,0.107455310616283,-0.14557668325340645,0.3921397358081426,0.52,1.0,0.9531448635086628,0.963032817697852,0.8164461062418527,12.0,0.06609327288739678,0.007766401960191813,1.5873509402037111,1.1417301914441396,0.10182431850994865,0.09675676709342461,0.047802308126248964,0.12762580435426965,0.0947632114889996,0.046109937181485275,0.1323013376423456,0.07765783510378918,0.032178951494927666,0.12085153986633138,0.08796982416552726,0.03415816497270215,3.5821726091336457,0.151105910905478,0.5525249156222306,0.0967741935483871,0.4944066291563809,0.0840648118233644,0.001556095286710906,1990.22117698846,182.32539370536065,0.016000000000000444,0.3862528076869573,0.5140750671745333,Catherine,REC_0811_00000.csv
right,8,hard,8.624,1.0079999999999991,0.6399999999999988,0.6349206349206343,1.0079999999999991,0.09523809523809523,17707.0,0.9986929621794418,36572.56317241109,750.0,0.24167889903264125,0.25161290322580643,0.4509677419354839,0.18480653547640283,0.38488433876691275,0.48016122471581396,4650.0,3293.5625,-3.0999999999999943,603.0859375,0.1831105186253487,139.0,-13.87719298245614,125.12280701754386,0.5100516919638503,-1.5825540898906518,11921392.37774636,9498954.0,2257757.0,6840468.0,4667298.206009877,1968781.0630994833,2186038.1702211453,0.4713240721720122,0.6005536656364154,0.7001537089395753,0.12938660102631339,-0.1483413260174291,0.3626175551932477,0.48,1.0,0.9331549531384628,0.9570195518108602,0.7645017290620965,12.0,0.069875237032195,0.00946353385361095,2.595260264439311,2.661859643225,0.09445509232024593,0.09156118944152418,0.04070914852837922,0.12692847790196785,0.09264284494373494,0.042701671821925344,0.13821944323206253,0.08587775395183786,0.031050154657760405,0.1264018824601021,0.09892878152456497,0.030523559215894645,3.0916414325920227,0.12259145294082069,0.5077731680113923,0.09523809523809523,0.47934721819259823,0.12426102558082243,0.0011464134636031452,1855.7209739972577,375.35139785939253,0.015999999999999542,0.574819774892878,0.629611789855859,Catherine,REC_0811_00000.csv
right,9,hard,9.648,0.8960000000000008,0.5920000000000005,0.6607142857142857,0.8960000000000008,0.21428571428571427,10184.0,0.34233779319702995,35194.547887421424,341.14583333333337,0.10993033254609726,0.248834628190899,0.4586015538290788,0.19091313417978883,0.3750542712822848,0.5090280228696406,4505.0,3313.438596491228,-7.300000000000011,624.421052631579,0.18845107112979573,42.916666666666664,-18.113636363636363,24.8030303030303,0.3739949835949581,-1.7362245074149365,10594461.775742551,8773246.0,1615127.0,5715255.0,4113712.69169739,1696468.9580052295,2097685.372345103,0.28343867766775155,0.5878141307674946,0.6927201598712645,0.11878035977129109,-0.20444880799835274,0.3483855813263991,0.42,1.0,0.9347769441103392,0.9489770663670876,0.772809876918275,12.0,0.07813945090605892,0.010279709317594263,1.6643080547875382,2.373577477738209,0.09975855897832325,0.09413022989844652,0.041214405980960045,0.12723306471254753,0.0923829593468385,0.03708449376806836,0.1377908146516578,0.08765473933900225,0.02422352355638389,0.12966865396630414,0.1032583948407866,0.025600160960681115,4.811763557175552,0.2500086397553382,0.6356488292122224,0.08928571428571429,0.5300352113291689,0.16063378410646428,0.0012540190857094364,3763.040835990666,375.50903433459246,0.06057502235520234,0.4150735000244151,0.47972695474650956,Catherine,REC_0811_00000.csv
right,10,hard,10.56,1.0239999999999991,0.6559999999999988,0.6406249999999993,1.0239999999999991,0.234375,12447.0,0.5397765473386221,32878.370184667,260.41666666666663,0.08391628438633375,0.21307506053268765,0.49834910851860004,0.1653122507389856,0.39254445643503966,0.421130009681372,4543.0,3278.923076923077,-3.0,536.2461538461539,0.16354337728147142,39.2,-12.122448979591837,27.077551020408166,0.5936466339758264,-1.5043820086847008,10905075.181342768,8567995.0,2547308.0,6246707.0,4330435.351952211,1603312.2841398544,2132824.934693658,0.4464096808257164,0.5817301846745108,0.7124290339227405,0.1449704453638565,-0.18880639104038288,0.367014311767133,0.36,1.0,0.9345859189174096,0.9578467921607676,0.7714607379994525,12.0,0.05989341802631766,0.008840808337087969,3.8188284717937133,6.681719818202183,0.10374419368460562,0.10108384554028058,0.05062168629474968,0.1254774081546474,0.09625580631539436,0.042523342560878336,0.13337399709097733,0.0751466241261202,0.02720405386383897,0.12461877727208746,0.09016562661286537,0.029784638483554636,3.2534486623320844,0.1765070583300568,0.5486739222985876,0.078125,0.4850095005549207,0.224273976741782,0.0006980142723028353,3859.7128131507397,262.4788144559375,0.06974238309664982,1.089871836466978,0.35064474601880513,Catherine,REC_0811_00000.csv
right,11,hard,11.6,0.9440000000000008,0.6080000000000005,0.6440677966101694,0.9440000000000008,0.06779661016949153,11552.0,0.461690959642323,34033.00218905173,343.75,0.11076949538996057,0.2565804531929503,0.5120164797436484,0.17942718995535278,0.3857938039812053,0.4650857222267829,4369.0,3419.4,-27.0,606.45,0.1773556764344622,146.75,-14.636363636363637,132.11363636363637,0.4633618012937534,-1.661754439976011,11119775.603855953,8359079.0,2845410.0,6758613.0,4263192.656268856,1730769.9461542915,2509381.8328866707,0.44494079018641275,0.5589713784773707,0.7717728256416998,0.10038758440730766,-0.1616407222653461,0.31598107384691904,0.48,1.0,0.9756020052121075,0.9694336296649007,0.8963031329538326,12.0,0.05580711336532339,0.007496059166714384,1.5572986308378451,0.548585742127969,0.09590863894250452,0.09060069017956367,0.04403306622994287,0.11842233530248972,0.08835370727807998,0.05079351153223762,0.13162640619211946,0.08314811565381841,0.037623559688834296,0.12190735216704686,0.09627907430153437,0.04130354253182819,3.7020892896158757,0.17875578079212676,0.5596310118745302,0.1016949152542373,0.48652554609308396,0.20472272448649675,0.0020493517605952713,1139.7088809574705,47.378659892344,0.06466323014923718,0.9086758658417151,0.457665121087148,Catherine,REC_0811_00000.csv
right,12,hard,12.56,0.9759999999999991,0.6239999999999988,0.6393442622950813,0.9759999999999991,0.2459016393442623,17808.0,1.0075048553161192,38872.719071348736,359.375,0.1158044724531406,0.2609653956358827,0.4699140401146132,0.1809873933945555,0.3898968550463631,0.4641930065655217,4537.0,3250.983870967742,-11.699999999999989,583.4435483870968,0.17946676192318953,58.0,-19.23913043478261,38.76086956521739,0.6852784170450997,-1.3637734633104555,12295667.380218854,9297368.0,3119077.0,7417125.0,4697050.56284263,1697934.3938134168,2373218.2453995226,0.3928467930019013,0.5807191087882325,0.8149055803127532,0.08895894077335875,-0.1939632596157813,0.36047827860121945,0.36,1.0,0.9476662912284131,0.9608954981427483,0.8044476348846707,12.0,0.06819319963939674,0.00954649046339863,3.9270426853649227,3.6464444213750937,0.09730056905849842,0.09006702685539365,0.04010200385987369,0.12527721136529388,0.09081617971730642,0.04781678995440586,0.1354478296892752,0.0843169065444208,0.03591964715396332,0.12583287441518945,0.09667048685013468,0.030432474536244612,3.268002767203811,0.15111109185041405,0.5156693118555382,0.09836065573770492,0.5194462765611284,0.16508967036638,0.0030635848074030826,3383.2647447891704,53.19983835432106,0.04026578365477656,0.17609757683482738,0.604589334393321,Catherine,REC_0811_00000.csv
right,13,hard,13.552,1.024000000000001,0.6400000000000006,0.625,1.024000000000001,0.09375,17511.0,0.9815926547062859,31901.64964386638,406.25,0.13090940364268067,0.23057644110275688,0.4492481203007519,0.17517618975447105,0.38951197332525006,0.44973249027201806,4788.0,3248.246153846154,-23.400000000000006,564.2923076923076,0.17372215065171262,134.0,-13.620689655172415,120.37931034482759,0.6382777323008418,-1.4626606953853827,11238099.802504826,8442157.0,2985909.0,6790377.0,4598739.773804375,1390088.037472087,1989796.4376318543,0.5075954139730483,0.5969186789458322,0.7263825695477529,0.14558562891657179,-0.1828553488688024,0.35654191374654043,0.48,1.0,0.9432770337262384,0.9609257639863363,0.792057717235288,12.0,0.07052263870984005,0.009590872414277413,2.105210775055154,8.354152717305638,0.09934355107608366,0.09307744771142772,0.043592755380418305,0.12597093816307972,0.09270801758108517,0.04595616095786602,0.13622499242194605,0.08170089421036676,0.03179940891179145,0.12318600333434374,0.09347529554410426,0.03296453470748712,2.7647769397363775,0.07681744617143765,0.4764632011326056,0.09375,0.45606131299640695,0.17587140995376582,0.002705476172851286,3529.2923275542553,32.52603124165809,0.04026578365477751,1.9652240701033317,3.620658006786535,Catherine,REC_0811_00000.csv
right,14,hard,14.592,1.0079999999999991,0.6239999999999988,0.6190476190476184,1.0079999999999991,0.07936507936507936,13926.0,0.6688140715875902,36153.27147022798,614.5833333333333,0.19804243115174766,0.2503867403314917,0.508950276243094,0.18006555596501095,0.38710021528734073,0.4651652178266181,4525.0,3222.4375,-18.19999999999999,573.875,0.17808723986112998,133.4,-13.5,119.9,0.6041922996944553,-1.475924926952468,11223294.715193886,8894197.0,1833817.0,6594901.0,4715280.769869428,1503984.9748600149,2084331.0786603247,0.5187865385007036,0.5966334297203322,0.727399678038526,0.1308237719339157,-0.2983544510726037,0.36656591094172913,0.48,1.0,0.9519854055431158,0.955831052960415,0.8143002827128584,12.0,0.07058501413965766,0.010862215039176086,1.1011583369146294,1.1554199126925084,0.10087957485599022,0.09412032816773018,0.0425240986054811,0.12684012490544813,0.09409123528384956,0.0435956864950833,0.1366832172850521,0.0850288019550418,0.028452840435229543,0.12482786710370643,0.09503675400996917,0.027919470897418492,3.2188883663812895,0.1389097129013217,0.5276296334647477,0.09523809523809523,0.46888376199915194,0.13631117300618456,0.0011309684154606134,2160.646431047894,135.85000110756692,0.02444040370643199,1.6212105475922156,3.4009267280000754,Catherine,REC_0811_00000.csv
right,15,hard,15.616,1.0079999999999991,0.5919999999999987,0.5873015873015865,1.0079999999999991,0.07936507936507936,11481.0,0.4554964605066389,35954.79247610811,601.5625,0.193846616932431,0.26310947562097514,0.5232290708371665,0.178756916392274,0.3898687279657442,0.45850539827815634,4348.0,3222.078125,-12.199999999999989,567.921875,0.17625949867370147,93.6,-13.620689655172415,79.97931034482758,0.7004534091212993,-1.330258912318895,11668438.309667666,8701164.0,1921782.0,7533190.0,4568273.962327678,1577773.6684549933,2401477.6999092633,0.49194425262623864,0.5953099710248008,0.7363482003002929,0.1394397332577325,-0.22767027989776123,0.3750423563840278,0.48,1.0,0.9337089242105178,0.9578643713842324,0.7651879146992426,11.0,0.07760929597413826,0.010606270844673953,1.0300026625278704,2.155824590629976,0.10200132872321338,0.0949697642728635,0.04172384864193819,0.1260832246269634,0.09461091201815598,0.042790706696474036,0.13378884939358818,0.08373380921668372,0.03141412035128726,0.12444414270681285,0.09502310717559029,0.029416186176429226,3.9060923067759323,0.16787587082594427,0.5666112670890602,0.09523809523809523,0.5676516630010177,0.12297928711002191,0.000738481419394812,3032.907021324591,116.70425051865259,0.009237604307035149,0.8603061803722553,2.889549731819522,Catherine,REC_0811_00000.csv
right,16,hard,16.64,1.024000000000001,0.6080000000000005,0.59375,1.024000000000001,0.0625,15893.0,0.8404278715860489,33177.84241025929,500.0,0.16111926602176083,0.24242424242424243,0.46413778068454326,0.18732387451519467,0.37961117384260396,0.49346248852175845,4587.0,3133.6923076923076,-17.19999999999999,579.1846153846154,0.18482497913496002,110.0,-12.766666666666667,97.23333333333333,0.5330822722223386,-1.5949135610026266,12597057.196190227,8648630.0,3997502.0,8240572.0,4637165.534560745,1673571.6854257593,2366988.6040831422,0.5156161744822283,0.5943663955834753,0.733320241543288,0.10392643482840258,-0.16660271060159093,0.3592751049462735,0.48,1.0,0.9297948444686125,0.9470706625559895,0.7545046435869467,11.0,0.05913468564446013,0.008125413604537874,0.8269554491609385,0.7967511239535412,0.1010849820806127,0.09323972703618243,0.03979085865776425,0.13009966124993863,0.0948009229711817,0.037581619127104914,0.14054690951936766,0.08841867543816585,0.023889243458196277,0.12785114634984535,0.09890519907702881,0.02379105503461142,3.5140600800443647,0.1544809444493209,0.5370448768109904,0.09375,0.4639933935773324,0.14980592309409063,0.0009377004201426472,2210.3113656979044,62.734657865120816,0.009237604307035078,0.2062337191375885,0.20346968787333097,Catherine,REC_0811_00000.csv
right,17,hard,17.68,1.0079999999999991,0.6080000000000005,0.6031746031746043,1.0079999999999991,0.07936507936507936,9250.0,0.2608495932994395,33532.72410646054,445.3125,0.14349684630063075,0.248831515691075,0.52103271756065,0.17756287582207284,0.3911658134271087,0.4539325005584095,4493.0,3216.90625,12.699999999999989,563.3515625,0.17512215735226974,103.2,-12.327586206896552,90.87241379310345,0.6528337962607087,-1.4252338815017551,11508318.996128062,8405505.0,2144136.0,7562511.0,4649273.847984984,1508106.146037193,2399340.169945192,0.5155964482707007,0.6029127077207426,0.7274069612688503,0.115461422423627,-0.1897119986898982,0.39100941095785213,0.46,1.0,0.9386441632064851,0.955935348467874,0.7748832964498131,12.0,0.06938160622967647,0.010003618917080738,1.726510271309301,2.270541357264875,0.1017670316006256,0.09479216250085,0.040450355057751526,0.12914193567188972,0.09573930698166912,0.04169378576077559,0.13562623250211286,0.08372271495322564,0.029798622511924305,0.1237213549508942,0.09384016086884721,0.029706336639434238,3.4006735168388165,0.13768122511919972,0.5257167531603519,0.09523809523809523,0.5319222343442895,0.13100018309512118,0.0012176943301294477,3380.6447609886495,79.28821535228323,0.009237604307035078,0.025161889087295313,0.25558063061069286,Catherine,REC_0811_00000.csv
right,18,hard,18.704,0.9759999999999991,0.5760000000000005,0.5901639344262306,0.9759999999999991,0.06557377049180328,14328.0,0.7038871512009001,34471.58274579222,440.625,0.14198635318167674,0.24293059125964012,0.4665809768637532,0.18277742911519643,0.38238250496206383,0.47799631715153534,4668.0,3161.0806451612902,-15.199999999999989,569.508064516129,0.18016245975498374,102.5,-14.614035087719298,87.8859649122807,0.6437455502984241,-1.4302456913208248,11438649.592340741,8776911.0,2664594.0,6834360.0,4648434.031248455,1437149.3589417867,2246511.6043339735,0.5183025623346962,0.5997141995257218,0.724752151928215,0.09773201325407577,-0.22223735580955628,0.3690299041834392,0.5,1.0,0.9492958757219621,0.9476812815578022,0.8093362285102247,12.0,0.06258679156292155,0.009788372690524549,1.672143502367884,2.132572588556229,0.10304254874047769,0.095822682116671,0.04269160709638904,0.13006474919254848,0.09617984866343177,0.03681876859179436,0.13830509166424304,0.0862659258012011,0.02349645639761821,0.12731456678249067,0.09651150331399531,0.023486251639139328,3.863827853191363,0.2071446384714191,0.5630567909978743,0.09836065573770492,0.5117007562796684,0.2498509093686455,0.000807011804676524,3472.865243570502,33.01031641143958,0.02444040370643196,0.24244002336792927,0.46352700724172524,Catherine,REC_0811_00000.csv
right,19,hard,19.696,0.9759999999999991,0.5919999999999987,0.6065573770491796,0.9759999999999991,0.06557377049180328,14926.0,0.7560605382873659,34477.595014733844,218.75,0.07048967888452036,0.2507435369480668,0.5076641500800733,0.17544044571600662,0.38953470862821865,0.4503846302520659,4371.0,3213.3870967741937,-20.400000000000006,556.9354838709677,0.17331727149525672,137.25,-13.982456140350877,123.26754385964912,0.6656011538305554,-1.3633883298598055,11311420.504432412,8703607.0,2483778.0,6784269.0,4584212.381319092,1206123.9743076744,2217776.8433564883,0.4960345293885051,0.5975719462646234,0.6888274960637134,0.12818821851880868,-0.21576190783489324,0.3802951025235827,0.48,1.0,0.9376726293383596,0.9536624804689691,0.7822623516495427,12.0,0.06650516965324005,0.009024568307006334,2.235879451894662,2.78231017524611,0.10427646438789338,0.09632585453997893,0.041800933594338195,0.12990513476886012,0.09569843899011192,0.04007428600110425,0.1354414495808864,0.08161421472669778,0.02753099432816343,0.12517191186066357,0.09382623098930884,0.028334086231993173,3.8912628954762782,0.2108673139647173,0.5656265070604408,0.09836065573770492,0.5794396130815648,0.16325860005191334,0.0010860503555197368,3118.778179565411,129.4739707994751,0.018475208614068074,0.5079914230203548,0.5845400998593596,Catherine,REC_0811_00000.csv
right,20,hard,20.688,0.9920000000000009,0.6080000000000005,0.6129032258064516,0.9920000000000009,0.06451612903225806,12878.0,0.5773797744862255,32264.561580780854,1578.125,0.5085326833811826,0.22141673570836787,0.4703811101905551,0.16807410474420575,0.3940184684120825,0.4265640273701506,4828.0,3296.9206349206347,-9.599999999999994,548.4206349206349,0.16634329292365171,174.25,-12.448275862068966,161.80172413793105,0.6590084660686312,-1.4050658767451942,10846598.453592813,8622973.0,1932777.0,6289468.0,4543198.909951037,1372383.36058263,2203265.9319626708,0.5454199509244537,0.6006843013633393,0.7189268897931849,0.10613490771980805,-0.21049326589362438,0.37634980230765575,0.5,1.0,0.9537762314339416,0.9630550307248165,0.820993787209844,12.0,0.06944103166842407,0.0093175960246469,3.652247666141085,3.952628162154653,0.1017014433863249,0.09635735125610238,0.047639451917614324,0.12494102240667099,0.09454710022820718,0.04660433497347212,0.13227350196912943,0.07829335695646733,0.03156865954762982,0.12232193581312048,0.08978074778773844,0.03397109375752266,3.2820272402460042,0.1016883219552153,0.5174513374810426,0.06451612903225806,0.4897943429967443,0.1327422100244782,0.0030117752498988706,1053.1229747755035,729.2730577145527,0.00923760430703503,0.5394435425786042,1.0460075715688242,Catherine,REC_0811_00000.csv
right,21,hard,21.696,0.9919999999999973,0.607999999999997,0.6129032258064502,0.9919999999999973,0.06451612903225806,12572.0,0.5506823556760941,33306.433372548316,432.29166666666663,0.13930103208131406,0.23365465213746855,0.4631181894383906,0.16931716866302282,0.39406713958987477,0.4296657895380681,4772.0,3275.809523809524,-24.0,548.1984126984127,0.16734746288328098,160.75,-13.344827586206897,147.4051724137931,0.7250483987182123,-1.291358679486164,10760163.341681436,8426275.0,1775174.0,6451958.0,4493614.382267923,1477749.3217447964,2351739.9983682507,0.5375340320942574,0.6030868167081809,0.726537969531119,0.1368784576279216,-0.24028333859411588,0.39435128038257045,0.5,1.0,0.9362935939382087,0.9585084629724869,0.7766712172888296,12.0,0.06272162905134192,0.008888024786507506,2.075482385381318,1.0716789946990133,0.10514788541303252,0.09811218358723883,0.044670891964181884,0.12769411171841685,0.09654223359305346,0.04312032406869016,0.132156839942629,0.07856533705469627,0.02859828662247548,0.12261600186068147,0.09075183160832655,0.03202407256657751,3.3696067975588146,0.10567546283739614,0.52230816936777,0.0967741935483871,0.4783840957656153,0.11723703224837863,0.0015663824664238597,1279.9255186663554,731.0306037603756,0.009237604307033988,0.47588225065468215,1.1099790966690155,Catherine,REC_0811_00000.csv
right,22,hard,22.704,0.9920000000000009,0.5919999999999987,0.5967741935483853,0.9920000000000009,0.04838709677419355,17233.0,0.9573381369637483,37652.26007824763,1244.7916666666667,0.40111983936667545,0.24286662242866622,0.48595443485954437,0.1642162248546715,0.3995385445174694,0.4110147246315605,4521.0,3178.3492063492063,-24.80000000000001,515.1507936507936,0.16208124413192432,186.66666666666666,-13.23728813559322,173.42937853107344,0.8537591355899947,-1.0500485785506581,12668150.961222123,9235060.0,3369532.0,7990117.0,4831925.455629841,1514816.2243141762,2294590.632457456,0.5072540992623524,0.6016404712709019,0.706656145747795,0.15681353146139765,-0.20039924317870095,0.3989855025193169,0.5,1.0,0.9490583113925773,0.9501334525343144,0.8049960339310916,12.0,0.07295201628169544,0.01228736841458804,1.9488108893281737,1.7984608377144866,0.1077728280628858,0.09878842965300945,0.04054216025090394,0.13572983879022754,0.09963742783515453,0.0396631974270361,0.1363241375177291,0.07744361653249165,0.02571965081204179,0.12436824547034499,0.08677260832217983,0.027237859325995324,3.3805901609337288,0.1308037817748586,0.5277702463239984,0.0967741935483871,0.4544336300698456,0.13007130020184354,0.0022715164023577638,2607.188204432764,589.3783997977432,2.059156955057807e-15,0.47575452796751827,1.3810776939765534,Catherine,REC_0811_00000.csv
right,23,hard,23.712,0.9920000000000009,0.5599999999999987,0.5645161290322562,0.9920000000000009,0.06451612903225806,14328.0,0.7038871512009001,35581.98695969633,270.8333333333333,0.08727293576178712,0.24295330248212033,0.44741270509045017,0.16238150446702584,0.4042877602517512,0.4016483317867133,4754.0,3258.4444444444443,17.599999999999994,521.5238095238095,0.16005300026305277,153.75,-12.741379310344827,141.00862068965517,0.9869029775289754,-0.7428630759176507,12097088.314603519,8808676.0,3131295.0,7677354.0,4898713.974522147,1521193.1505866058,2353306.3713023714,0.5119506855016273,0.6136420698189974,0.7199754484073355,0.1340379157868834,-0.20564463936014732,0.4288834649349958,0.48,1.0,0.9361253431934863,0.9572812789018392,0.7741001268136795,11.0,0.0634667931379927,0.008613980188383021,2.7616663209298498,2.1953103018926328,0.10715016416441774,0.10019387963874087,0.03953098664276458,0.1319696807318713,0.0995508617414094,0.04220048518623162,0.13152638809052913,0.0759248253621847,0.030372852953498113,0.12134527138278077,0.08645667910484114,0.0337779250007307,3.7646724133701177,0.16536125915999056,0.5593743122867988,0.0967741935483871,0.5459292506717676,0.14336469887129602,0.0023007597797350438,2353.985344049535,521.9865704645766,2.059156955057807e-15,0.2510613738386065,0.43986060014095685,Catherine,REC_0811_00000.csv
right,24,hard,24.72,0.9600000000000009,0.5920000000000023,0.6166666666666685,0.9600000000000009,0.06666666666666667,15668.0,0.8207974165785994,35083.57082738301,906.25,0.2920286696644415,0.2244940107393639,0.45580338703015283,0.16761876861481373,0.4011181094673112,0.41787883583039587,4842.0,3357.5409836065573,-33.900000000000006,554.4262295081967,0.16512865582735217,89.75,-14.196428571428571,75.55357142857143,0.6063621753849925,-1.4654807656938575,12097589.477499805,8914967.0,3993836.0,7136127.0,4742139.743602025,1509628.2981016678,2322410.042044643,0.49988116493625034,0.6071160810123841,0.678418026064772,0.13091456591421302,-0.16041866578177633,0.4017277313212705,0.5,1.0,0.9496245295769021,0.9647076313176653,0.8078071523067744,12.0,0.06547164161096428,0.008129340762067002,1.6751969258282178,1.4786973485734194,0.10185537815536351,0.09531761144475367,0.04279087935159417,0.12653190762169816,0.09539573263024266,0.04870855915238514,0.13093598945363996,0.07817001122992041,0.03516429861823153,0.11977930765099361,0.08944875738489332,0.035901567306283876,4.461761658055251,0.20372642334635285,0.5865594224523469,0.1,0.6250978526498981,0.20957334841282144,0.0009590718396211829,1453.951512258922,494.46260988010465,0.018475208614068026,0.5230362283044123,0.5178062758864488,Catherine,REC_0811_00000.csv
right,25,hard,25.696,0.9919999999999973,0.6239999999999988,0.6290322580645166,0.9919999999999973,0.06451612903225806,16195.0,0.8667763045293811,36506.1745599289,937.5,0.30209862379080155,0.23959236773634,0.49718126626192544,0.16876025616822296,0.3996940696959576,0.4222235678814751,4612.0,3279.095238095238,-16.900000000000006,547.9047619047619,0.1670902252363457,178.5,-13.89655172413793,164.60344827586206,0.6908258465143835,-1.3278237935711503,12106216.102760639,9017592.0,3949854.0,7045719.0,4634938.796799829,1836540.8742577364,2292576.3136795196,0.49812787413903825,0.5995606503958764,0.6965460441010516,0.09168781001891313,-0.20327906942965934,0.38930243816440246,0.5,1.0,0.945385784648248,0.9602711241707534,0.7980365567187374,12.0,0.07046598869517384,0.007871798444393018,1.6266437895031105,1.6166143875827998,0.10151851798066637,0.09732649830818606,0.0422009555481332,0.12933300416781632,0.09653746920124115,0.044340531408683194,0.13324426501696654,0.07986620389867512,0.032156566610030836,0.12127328967049564,0.08889405226954783,0.03330864591955776,3.8071565655004593,0.15131912553771912,0.5633565632229914,0.0967741935483871,0.5256960619981211,0.09491135298473427,0.0017316518085011333,962.5502584281023,376.2037008550515,0.018475208614066985,0.5187163584993064,0.5114569874599006,Catherine,REC_0811_00000.csv
right,26,hard,26.704,1.0079999999999991,0.6080000000000005,0.6031746031746043,1.0079999999999991,0.07936507936507936,15391.0,0.7966301453027615,36696.34179315426,343.75,0.11076949538996057,0.25498990805113253,0.4967481498093743,0.16339891701173645,0.40206306814005344,0.406401209062781,4459.0,3188.515625,-31.099999999999994,515.9609375,0.1618185382108642,159.0,-14.379310344827585,144.6206896551724,0.945011658488721,-0.7800198658028452,11889809.213324241,9132435.0,2849075.0,7060380.0,4637758.928165903,1571353.5177471351,2454659.1858554557,0.4855072467482945,0.5933012936626445,0.7182025335062555,0.1248229730722662,-0.2775586210275265,0.39354730708036556,0.5,1.0,0.93817150569311,0.946688976280602,0.7819593032109563,12.0,0.0608562969511888,0.007843121512476769,1.4827277083923796,1.3070698750624103,0.10836253154632103,0.10370225173351628,0.04181020753191385,0.13583417048489452,0.10212432313233528,0.037468453678974833,0.13606938965525692,0.07588268443878177,0.022933869110332492,0.12359787322666797,0.0875162325729547,0.024698012888050375,3.2145238762888,0.11539584380959587,0.5092170687096511,0.09523809523809523,0.45939941102966003,0.0900080097867623,0.0009709986233058545,408.42665600244555,334.14614442386335,0.024440403706429976,0.17643335933874452,0.20075677994233762,Catherine,REC_0811_00000.csv
right,27,hard,27.728,0.9919999999999973,0.5919999999999987,0.5967741935483875,0.9919999999999973,0.08064516129032258,16444.0,0.8885006747376253,35158.85086290506,531.25,0.17118922014812088,0.24623893805309735,0.4820796460176991,0.16746178705997408,0.3999165992345001,0.418741776111294,4520.0,3197.4126984126983,-25.5,529.6746031746031,0.16565725263978315,138.0,-14.192982456140351,123.80701754385964,0.8304760242107178,-1.069586155633713,12214212.367756875,9059131.0,3558900.0,7379252.0,4722640.687243404,1569573.2827262608,2339285.5442229034,0.5070865279324493,0.6072238296026818,0.7027557002931722,0.12693936920366033,-0.23531143023086043,0.4007584441913637,0.48,1.0,0.9367578791291852,0.952608229372898,0.7764598473569654,12.0,0.07117803160493887,0.009666427635520492,2.7392435721062016,2.161020034920611,0.10534310975640027,0.09732075040831625,0.0402855483352115,0.13335186683677777,0.09914762431926608,0.041675561093542896,0.13650421719942216,0.07833218326325353,0.02842079657659715,0.12357709854694025,0.08912960379672057,0.026911639867551643,3.3609902185416742,0.14238063701746542,0.5237253306473918,0.0967741935483871,0.5014966906838852,0.08752943109837774,0.0015564077159935382,550.3371693789242,303.5167142569471,0.009237604307034939,0.2136175890303395,0.22765532565429347,Catherine,REC_0811_00000.csv
right,28,hard,28.736,0.9920000000000009,0.5760000000000005,0.5806451612903226,0.9920000000000009,0.06451612903225806,13716.0,0.6504923135806374,35976.244523296205,458.33333333333337,0.14769266051994745,0.23752451514491174,0.4323382000435825,0.16089843906745316,0.4041019622005538,0.39816297399584083,4589.0,3164.5714285714284,-14.599999999999994,502.77777777777777,0.1588770514826853,162.5,-12.482758620689655,150.01724137931035,1.034653727991963,-0.6793373179601274,11284673.166135252,8720712.0,3607770.0,6186843.0,4569924.868857594,1812274.104493479,2027296.559867974,0.506082100820054,0.6017686428370014,0.7317494711858598,0.15966310684615492,-0.1951258835061025,0.4114519433740952,0.48,1.0,0.9348192261816799,0.9447967409980215,0.7688500318862986,11.0,0.06041211166191385,0.008708515003433375,3.389127573055767,3.034131076217207,0.11147726816740902,0.1048663777537017,0.04029232374302797,0.13713334135869348,0.10404377833955299,0.03684643473375868,0.134916335620561,0.07572428875245776,0.02121203001484692,0.1231692147185105,0.08517415031499538,0.025144456482484652,3.343120284113395,0.12773706804066365,0.5115835494270053,0.0967741935483871,0.4888851701312424,0.11516371687589766,0.0032106339378677427,1375.7675433492896,94.51845547788969,0.009237604307033897,0.19314552871266064,0.19728150270091083,Catherine,REC_0811_00000.csv
right,29,hard,29.744,0.9920000000000009,0.5760000000000005,0.5806451612903226,0.9920000000000009,0.04838709677419355,55103.0,4.26136183088425,56674.02206478732,343.75,0.11076949538996057,0.22626387176325524,0.40731607069461573,0.1553784860557769,0.40821591682052283,0.3806281912421716,4866.0,3266.9841269841268,-48.0,500.25396825396825,0.15312408900981442,158.33333333333334,-13.542372881355933,144.7909604519774,0.9850945173822256,-0.7385047698257727,9058310.924732104,7415904.0,3795916.0,3556457.0,4794751.9598264005,1654338.6680481944,2157142.449751857,0.531005487565109,0.6128509396102516,0.6988096394906034,0.14681205491617866,-0.13910351624855166,0.4287995152629302,0.44,1.0,0.9322713521266588,0.9561264830797822,0.760140110466912,11.0,0.07040776561627947,0.009831975423526155,2.0649895563827725,2.5569696510585658,0.10647653289281897,0.10034982023127004,0.04305704013215431,0.13547274317364688,0.0998979690992129,0.04332912253425323,0.1352395296861335,0.0730638421922068,0.029166261782139737,0.11981342920998933,0.08231464386357012,0.03181906520260422,3.8675557873662463,0.17450574242970823,0.5687210154579644,0.0967741935483871,0.49836779670400755,0.16184199918676695,0.002325837770033163,23147.512587749035,94.51845547788969,2.059156955057807e-15,0.18360049421615154,0.1094241843397844,Catherine,REC_0811_00000.csv
right,30,hard,30.752,0.9760000000000026,0.5600000000000023,0.5737704918032794,0.9760000000000026,0.04918032786885246,18028.0,1.0266990779900698,34469.96956772663,337.5,0.10875550456468856,0.23767108407560286,0.407343037149685,0.16123739869539433,0.40551986558608416,0.3976066584610881,4603.0,3263.8709677419356,-28.400000000000006,520.3467741935484,0.15942627001383672,227.33333333333334,-13.327586206896552,214.0057471264368,0.907728993533214,-0.8238815877537102,11231991.54768107,8985827.0,2261423.0,6348111.0,4680896.448024143,1625777.0868491796,2227009.0155043583,0.5056728911003388,0.6033905841355006,0.7414508796202511,0.16582288183107652,-0.1277436453924926,0.41395952239342104,0.5,1.0,0.9490003774304723,0.9450073988082386,0.8069353185678113,12.0,0.061533266812136375,0.008028933163654581,2.665840851158813,2.4940364825166483,0.1059596758252619,0.10457106147459973,0.045404230084997034,0.13925182842458983,0.10383969163866377,0.03638070764973315,0.13659814192528166,0.0752767345325163,0.021476576398497725,0.12237596362917573,0.08596066416287804,0.0229047242538051,4.319442348648339,0.2230787083572218,0.5823194005504151,0.09836065573770492,0.5146725568004537,0.21405156483781768,0.0031118803838005647,22752.40916914075,68.03074944736552,0.009237604307032994,0.16732948440419043,0.11479553646902133,Catherine,REC_0811_00000.csv
right,31,hard,31.744,0.9919999999999973,0.5919999999999987,0.5967741935483875,0.9919999999999973,0.06451612903225806,12907.0,0.5799099220205189,35857.32607152965,304.6875,0.09818205273201051,0.21835051546391754,0.4402061855670103,0.1426852814495767,0.42343680380216847,0.3369694843911934,4850.0,3206.190476190476,-30.80000000000001,451.57142857142856,0.1408436061191148,160.5,-12.620689655172415,147.8793103448276,1.35446728374718,0.21279012771562478,10983853.013995271,8801346.0,1076344.0,6482501.0,4585389.26306653,1852520.6525654895,2274428.9636117984,0.5150492315359094,0.5972572093158672,0.7682013961084787,0.12254354883194063,-0.248524325815202,0.43321532710854094,0.5,1.0,0.94329690933572,0.9506127146100409,0.7934543721587972,12.0,0.06766447838946865,0.00855405012921403,1.7896621271113617,8.945644448639413,0.11789197485024011,0.110475766127036,0.037962275360166345,0.13936333481855537,0.10712411505520075,0.03997227585524036,0.12763998217733552,0.06715678994009605,0.026501311946135947,0.11701569384623002,0.07552849150948067,0.03336798851428289,3.5956705317500512,0.1339919461982388,0.5368253034330082,0.0967741935483871,0.47299197254169983,0.13821461657687173,0.002171296510193869,23026.371410479187,20.982538623416165,0.009237604307031978,0.45154084807088923,0.12134831561099978,Catherine,REC_0811_00000.csv
right,32,hard,32.752,0.9919999999999973,0.5760000000000005,0.5806451612903246,0.9919999999999973,0.04838709677419355,18157.0,1.0379538721943409,36128.547853463475,642.8571428571429,0.20715334202797822,0.23283151165188698,0.4400907403588369,0.15348470379186327,0.4100923141245837,0.37426866709119416,4849.0,3340.904761904762,-18.19999999999999,505.2936507936508,0.1512445540367831,179.0,-13.186440677966102,165.8135593220339,1.034204635934863,-0.5893818379400284,12417140.031529764,9646783.0,3401297.0,7039611.0,4740000.9691152675,1552311.4207120296,2634747.009272696,0.5517658865133024,0.6071897600361994,0.7720626413877998,0.1440157356860412,-0.16769867627201052,0.4288205956599813,0.48,1.0,0.9574729135863281,0.9640795565224568,0.8288965478117944,12.0,0.08428230689002382,0.010595853758920463,2.051489093576847,2.3277133590760144,0.10592131206735177,0.0981532423970315,0.043206621151004626,0.13149655306755606,0.0975641043914537,0.04696000038008903,0.13125424630719745,0.07248297913786304,0.03591841388845337,0.11759004546815091,0.08100172465400018,0.0384507570898483,3.6823392616937882,0.16305883681256544,0.5413197877488101,0.0967741935483871,0.47592328855907495,0.15177183773520547,0.0021690454810732026,2994.5445396587347,186.49323142331218,0.009237604307030935,0.45256403359246655,0.5320715202230246,Catherine,REC_0811_00000.csv
right,33,hard,33.76,0.9759999999999991,0.5600000000000023,0.5737704918032815,0.9759999999999991,0.04918032786885246,17262.0,0.9598682844980417,34979.27686502395,770.8333333333334,0.24839220178354796,0.2405536028119508,0.4802284710017575,0.14949984448524617,0.4182193059025375,0.35746758309616317,4552.0,3215.1290322580644,-27.80000000000001,473.0,0.147116957128094,164.66666666666666,-12.862068965517242,151.80459770114942,1.2748117933105623,0.0010725138930713918,11227042.99277214,9314473.0,1098335.0,6170960.0,4808390.6907527875,1643287.6991575868,2380171.719451813,0.4937912793553224,0.6059776215112123,0.7377619921939332,0.13352052436417527,-0.22986984879126382,0.43322252394258326,0.5,1.0,0.9471668661749487,0.9468224016622058,0.8030833757462462,12.0,0.06955173924172771,0.010763275028876819,1.762775965570249,3.100676235341254,0.11302912640841184,0.10905095867320833,0.038798422779399815,0.14035959024370667,0.10628680933891181,0.03871314049503858,0.13283969940503065,0.0705033661419298,0.023808807151672034,0.1195206132297906,0.07899647834331637,0.028092987789583523,3.6514471743908707,0.16173538187429112,0.5233684881486416,0.09836065573770492,0.5406730878647152,0.2667693509515589,0.0025905058522126437,2808.6043390504965,240.84177053719782,0.009237604307032994,0.15968106360571124,0.5061385964802825,Catherine,REC_0811_00000.csv
right,34,hard,34.752,0.9759999999999991,0.5919999999999987,0.6065573770491796,0.9759999999999991,0.04918032786885246,16252.0,0.8717493531312683,36106.499774971264,251.04166666666666,0.08089529814842575,0.21750347291129193,0.4262750545743203,0.14458013821830917,0.42539998106598503,0.33986869923198987,5039.0,3407.4193548387098,-43.400000000000006,485.4032258064516,0.14245479503928807,168.0,-13.620689655172415,154.3793103448276,1.0841105188988438,-0.48813417283107485,11671185.382974302,9098226.0,2227214.0,6962641.0,4809152.279414338,1612855.0736271692,2278396.4189794906,0.5413411501387073,0.584481757253165,0.7718451197574181,0.15068558522524156,-0.13558049178201836,0.40970310991285247,0.52,1.0,0.9620878127590551,0.965183014035161,0.8438561972606928,12.0,0.06038966329130824,0.007522618054242052,3.053527947109983,3.1932343552999782,0.10671210830256556,0.10461043264224178,0.04256839912903532,0.13243870112657388,0.10071949256839913,0.05150052068541133,0.1268531667140017,0.06773170500804696,0.03613083404335889,0.11410110763987504,0.07684843321026225,0.039785098930228156,3.702226106658372,0.17554249327159532,0.5290656661067449,0.09836065573770492,0.5127743532928568,0.2331189853636495,0.003127623756771836,953.0783458526818,270.82609716916096,0.009237604307032994,0.43944597490087906,0.5566996973644269,Catherine,REC_0811_00000.csv
right,35,hard,35.744,1.024000000000001,0.5919999999999987,0.5781249999999982,1.024000000000001,0.078125,18253.0,1.0463295329975193,37189.72914663402,212.5,0.06847568805924835,0.22931726907630523,0.4528112449799197,0.14921152146040942,0.4156603363125957,0.35897464449936717,4980.0,3323.8307692307694,-22.19999999999999,490.9384615384615,0.14770260450175654,160.2,-14.084745762711865,146.11525423728813,1.1802456671767214,-0.18636141757453073,12196359.609397633,9447641.0,2833192.0,7174001.0,4635600.249674434,1792123.1549963998,2536452.1061804714,0.5612676926008423,0.6092983602596544,0.7598252701742151,0.12837412828019557,-0.1863168606591986,0.4398634493171315,0.46,1.0,0.945596989512003,0.9637614207504346,0.7957420130381463,12.0,0.07447646116499593,0.009153526340060447,3.115154715719285,3.0207238015951674,0.1084105920416202,0.10051886377627298,0.04097218686501673,0.13198394808585087,0.09860726039000411,0.049016658258080346,0.13043800249017584,0.07056269642534795,0.035533605802387416,0.11581631944605159,0.07864882503506149,0.03949104138413045,3.3490251870970886,0.11447368668681368,0.5087714662795597,0.09375,0.4873009073540642,0.1031417801362429,0.0024653801541864367,1000.5150340366127,311.8239214462403,0.027712812921103103,0.45130544544243706,0.13770556008324314,Catherine,REC_0811_00000.csv
right,36,hard,36.784,0.9600000000000009,0.5760000000000005,0.6,0.9600000000000009,0.05,41239.0,3.0517768165585615,45847.641716886596,812.5,0.26181880728536133,0.2237721021611002,0.4157170923379175,0.15364765802813365,0.40822263350423554,0.37638201661943993,5090.0,3392.4754098360654,-48.5,513.844262295082,0.15146587674747877,173.33333333333334,-15.0,158.33333333333334,0.8897885476777626,-0.7864047284992735,9052397.591666475,7487986.0,3263242.0,3902207.0,4938660.03943033,1589228.137282371,2405256.7255959474,0.5678200106555752,0.6211380198886653,0.736630247268328,0.17785459702646866,-0.16910173253556704,0.4487803525964048,0.48,1.0,0.9428021993555796,0.964190981411999,0.7794926260352883,12.0,0.05622996092101461,0.0073015347442745545,3.6991852704634103,4.892952981088271,0.1014540376242504,0.09432640221125829,0.040074224054199026,0.13228891326513356,0.09523487370796507,0.049415050666615126,0.13688925829101048,0.07218965792182314,0.0369573936532635,0.11875365442324141,0.0814580001063105,0.040958534074929574,3.6089254872790693,0.14935370969699688,0.4922980059870751,0.1,0.5038427802640666,0.19167217846701895,0.0023020737142739737,13884.706010571488,335.8374904967402,0.03330665599145845,0.6537100157931555,0.5408034017994142,Catherine,REC_0811_00000.csv
right,37,hard,37.76,0.9920000000000044,0.5760000000000005,0.5806451612903205,0.9920000000000044,0.06451612903225806,18406.0,1.059678242402585,37735.90100951612,781.25,0.2517488531590013,0.23529411764705882,0.414674703803783,0.14279020850052088,0.42271324823175804,0.3377944956722251,4811.0,3184.4920634920636,-24.599999999999994,448.91269841269843,0.14096838348544286,182.75,-13.827586206896552,168.92241379310346,1.4759939407953746,0.5680233601114195,11624303.630595211,9318138.0,2663372.0,6418971.0,4740357.3452200275,1903992.2186568924,2193669.989816455,0.5275667055876664,0.6012337136200424,0.7297867143844625,0.15306961671531205,-0.17267995907029976,0.436440083603762,0.44,1.0,0.9617995446069126,0.949118718243993,0.8410974259871398,12.0,0.08002957961578219,0.010046007290544343,2.496213243340728,5.241651776028164,0.11369085299292703,0.10627395662511277,0.03670566186329583,0.14224690090368503,0.10598485716991571,0.040149932958833234,0.13475025296202328,0.06776391540351803,0.028057600574211333,0.11832142874944547,0.07502629309700283,0.031028346700029408,3.452935715239075,0.14029645850447295,0.5261316832014326,0.0967741935483871,0.429428904508715,0.151349846945448,0.0035089188434383853,13227.02721702802,337.7506785090643,0.03200000000000004,0.6694278775573611,0.5229140623628377,Catherine,REC_0811_00000.csv
right,38,hard,38.768,0.9759999999999991,0.5919999999999987,0.6065573770491796,0.9759999999999991,0.06557377049180328,16807.0,0.9201711421496438,37101.02189967279,250.0,0.08055963301088041,0.21672855188587062,0.4223177643150283,0.13830479707999632,0.428337921956441,0.32288711783488655,5117.0,3345.1129032258063,-28.599999999999994,456.2741935483871,0.13640023722618938,161.25,-13.736842105263158,147.51315789473685,1.4360080454458413,0.4130696906476987,12655114.116252726,9402437.0,1781283.0,8280889.0,4670945.091562427,1789098.926988214,2827561.308927014,0.5510327028744538,0.6046647089957349,0.7392874535309294,0.16518767663668377,-0.18929228996182457,0.4399319009805591,0.52,1.0,0.9520480255911099,0.9610519541195582,0.8136358659926218,12.0,0.07416660718460927,0.010627268075096577,2.055578873065017,4.486614803018341,0.11234492302203022,0.10644801998100262,0.03901695781520466,0.13614468868884314,0.1031066023134375,0.04874226724591002,0.12748979011268244,0.06506362194245818,0.033896343727247744,0.11348283726379842,0.07324117513753815,0.04102277274984691,3.9392626318987887,0.20021291651457562,0.5541582845950159,0.09836065573770492,0.5217584632880442,0.21938320773898526,0.0038905662854278383,13667.63399422153,316.124810531115,0.01600000000000185,0.7784099105167906,0.3173087565353147,Catherine,REC_0811_00000.csv
right,39,hard,39.76,0.9600000000000009,0.5600000000000023,0.5833333333333351,0.9600000000000009,0.06666666666666667,18722.0,1.0872481258797142,36427.23983504652,296.875,0.0956645642004205,0.23738872403560832,0.4383213225943196,0.147441646020479,0.42011825325652447,0.35095272551831397,4718.0,3235.622950819672,-27.900000000000006,470.155737704918,0.14530609556524954,160.0,-13.517857142857142,146.48214285714286,1.330936363403878,0.10291419722743145,11627188.805014994,9133657.0,3028669.0,6526484.0,4781951.638637564,1728655.6402656306,2275515.8154947846,0.5135705175506289,0.600260652219506,0.7890288945294031,0.18018799378814832,-0.163353712234642,0.4318728941545466,0.5,1.0,0.9402438584046218,0.9464800997689531,0.7791624569870373,12.0,0.07553875496302974,0.011900022604967196,2.899065899558649,4.537770469903393,0.11454960911573518,0.10984278498072178,0.038338577211675356,0.1411439254609293,0.10652419530533559,0.03811564905027537,0.13153774832423887,0.06885946912698292,0.024491698459262416,0.11982388675249402,0.07858217689349607,0.028190279318853137,3.852262335338288,0.19161389012202276,0.547250651199208,0.1,0.44968318348974734,0.2331189795254241,0.003979508549025657,1026.6354432481128,294.1209979894894,0.01600000000000185,0.6380783760971118,0.177735733394473,Catherine,REC_0811_00000.csv
right,40,hard,40.736,0.9760000000000062,0.5920000000000059,0.6065573770491824,0.9760000000000062,0.04918032786885246,9394.0,0.2734130845042072,36866.191096992916,3234.375,1.0422402520782654,0.22927350427350426,0.4724358974358974,0.1426896642682337,0.42178715006570044,0.33829779841776814,4680.0,3301.8870967741937,-35.80000000000001,463.88709677419354,0.14049150778880112,162.0,-13.10344827586207,148.89655172413794,1.2105143664661149,-0.14436214040140527,11564884.369605258,8952840.0,1756848.0,7106806.0,4661155.505281662,1721297.6948161228,2321479.4839300676,0.5027798210427893,0.5973990902906454,0.7619885011989856,0.1393080921167702,-0.26914726382345633,0.4176731873705798,0.54,1.0,0.9391375181444707,0.9529436700451916,0.7814808814817934,12.0,0.07254583290661298,0.010693342069634277,2.0645080486779017,2.917006689597443,0.11509547326309003,0.10990782397162911,0.04278589467411109,0.13656901967105808,0.10523796265087902,0.042697968414933785,0.12798643981691799,0.06628662983533365,0.02737437535720043,0.11901307658865652,0.07640303443290006,0.030642301323290197,3.814677886331519,0.1950169036118021,0.5497565086858014,0.09836065573770492,0.5036653179029732,0.23618306994577692,0.003590571522371454,4926.651635069523,1709.6587211219476,0.00923760430703513,0.4992065593527128,0.49519208178226604,Catherine,REC_0811_00000.csv
right,41,hard,41.728,1.0079999999999956,0.607999999999997,0.6031746031746028,1.0079999999999956,0.06349206349206349,18080.0,1.031235894258458,36234.425702638095,206.25,0.06646169723397634,0.23513050919982884,0.46983311938382544,0.15875915061020218,0.4043855101813407,0.39259356879252977,4674.0,3225.109375,-16.69999999999999,506.34375,0.15700048932448996,185.5,-12.372881355932204,173.1271186440678,0.9737649331969,-0.7869772064732774,11588174.902249016,9060353.0,3072652.0,6538701.0,4743025.361585057,1585203.8437153543,2364403.7234473107,0.5256410259694828,0.6005894350476466,0.7308279273471986,0.16805631591946624,-0.20464422233735757,0.4122508677895966,0.5,1.0,0.926273753779965,0.9516900997950971,0.7499073324812775,11.0,0.06692918442686702,0.009714755441968821,2.601702662135651,2.5864535033146865,0.11073267863977482,0.10327169136705636,0.041689477585547,0.134278391721211,0.100805689729515,0.039460870997592136,0.1336146545417549,0.07348587983934654,0.02656886636596627,0.12214217541071766,0.08527327077085564,0.02867635303066272,3.0247417128500533,0.09697012524485886,0.49163627810067395,0.09523809523809523,0.43642578131786786,0.1500499546531967,0.0022817253582047077,5210.091873790059,1722.723626327895,0.024440403706427725,0.31140740164573827,0.4146808284150456,Catherine,REC_0811_00000.csv
right,42,hard,42.752,0.9600000000000009,0.5760000000000005,0.6,0.9600000000000009,0.06666666666666667,13591.0,0.6395865052431654,33421.32687371942,317.70833333333337,0.10237786695132721,0.2639047837033646,0.5049210345616846,0.1576414556098529,0.41713095031379455,0.37791838627929625,4369.0,3304.344262295082,-32.0,513.2622950819672,0.1553295463002009,134.25,-14.946428571428571,119.30357142857143,1.066915055582952,-0.5705062142812425,11326340.053132653,8615643.0,2173458.0,7023728.0,4551107.227691706,1548476.2252560095,2324030.7753877803,0.4501200635775675,0.5883519689807519,0.7686850395651681,0.12368998302564371,-0.16601521664399488,0.3948322453613636,0.5,1.0,0.9383875808018892,0.9521870501992857,0.7799306028398904,12.0,0.0642576808261904,0.008665684324080077,1.258940310035019,1.3921604521125346,0.10887802941979013,0.11126435641108326,0.03915362290080123,0.13405105052960584,0.1056879914667725,0.04034926698583583,0.1287475504179793,0.07291444447200655,0.02577828492049711,0.11779326768040087,0.08472701113784635,0.030655123657380996,4.247735245292204,0.20413425602554322,0.5635319556623966,0.1,0.602512209009823,0.15945370649591925,0.0020405462780651003,4343.81794431272,1717.01817211015,0.024440403706427725,0.4220707323353723,0.21197745287889488,Catherine,REC_0811_00000.csv
right,43,hard,43.728,1.0079999999999956,0.6239999999999952,0.6190476190476171,1.0079999999999956,0.07936507936507936,13122.0,0.5986679123609707,33708.96837638316,112.5,0.036251834854896185,0.26172671651937457,0.4928619986403807,0.15719163465642338,0.4168065632854365,0.37713329995876604,4413.0,3294.84375,-33.099999999999994,512.8203125,0.15564328733342817,160.2,-14.758620689655173,145.44137931034481,0.9716338110953706,-0.7599657648520872,10467708.051374044,8445822.0,954171.0,6109874.0,4528854.010526432,1656758.2773110664,2131704.9619537275,0.4096080914654201,0.5783376813905213,0.7784891165170492,0.10475242024534626,-0.13176432331357946,0.3861385315041002,0.5,1.0,0.9684070368177239,0.9555469333470104,0.8620472113000804,12.0,0.05556497340960017,0.006522825676412203,2.6219859222785686,2.922452009378901,0.10925688813012757,0.10467112438943425,0.038767961303172574,0.13468961919666145,0.10305875657988334,0.04411722862427088,0.13048797837530232,0.0734623227580974,0.03026983449518661,0.11709584103950302,0.08372931189832598,0.030393133210034617,3.4013416905284557,0.14796607431988562,0.5423580252577219,0.09523809523809523,0.49193549820902965,0.11134883689857492,0.0011576550904967013,2737.1775609192523,102.73143193045095,0.027712812921099027,0.44265551675386255,0.5940576211453812,Catherine,REC_0811_00000.csv
right,44,hard,44.752,1.0079999999999956,0.607999999999997,0.6031746031746028,1.0079999999999956,0.06349206349206349,11002.0,0.4137054029574464,31908.58506734512,187.5,0.06041972475816031,0.21910674944922892,0.4410174243941518,0.1374209464425314,0.43586538776618405,0.3152829986035852,4993.0,3337.828125,-35.900000000000006,453.7578125,0.13594403171972794,190.0,-13.508474576271187,176.4915254237288,1.4021791817524578,0.3076922611999158,10219878.682702696,8137946.0,1230282.0,6058561.0,4507977.047100092,1737347.845715428,2053324.4718840367,0.5244938516576939,0.5863901960717259,0.7757824772441798,0.15514793556273587,-0.16075466095824475,0.42666370300802364,0.48,1.0,0.9589743588409292,0.9618247345481504,0.8352258405503621,12.0,0.0681880089104683,0.008859043234750145,3.142797769823701,3.4290893395999262,0.11323324954007331,0.10877207765154175,0.03865724811699224,0.13548293473019973,0.10542502843821534,0.050177651073630404,0.12358335556897496,0.06429143202213265,0.03600769587259679,0.11187102391618801,0.07312951442039875,0.03936878864905604,3.297433579499304,0.1446529833532298,0.5309152163739128,0.09523809523809523,0.4907688355918197,0.12287591650168482,0.003004229764725111,1379.449286249105,103.834539965342,0.027712812921099027,0.3335571128496978,0.4475069946252663,Catherine,REC_0811_00000.csv
right,45,hard,45.776,0.9919999999999973,0.5759999999999934,0.5806451612903175,0.9919999999999973,0.06451612903225806,57008.0,4.427566349947323,58897.923987183116,187.5,0.06041972475816031,0.25397908140063663,0.5061391541609823,0.1595954016639624,0.40547618225665655,0.393599941618322,4398.0,3218.5555555555557,-27.30000000000001,507.3333333333333,0.15762764525149306,168.0,-13.172413793103448,154.82758620689654,0.9836021525831442,-0.7868478629773064,9505074.268401483,6505714.0,4959004.0,4840496.0,4548630.143010663,1930662.8560525037,2330365.0225689686,0.46204077880656325,0.6015021826579304,0.7320053854383751,0.12793798432131664,-0.2621723664436466,0.40406499329000456,0.48,1.0,0.938100408164341,0.9516137682340214,0.7726494465820443,12.0,0.07687893636043953,0.008995135544423204,2.743011969795613,2.797637601046617,0.11017463221695623,0.10283623236293515,0.04288130828676967,0.13476418979232524,0.10165755120358635,0.04048942392574802,0.1328556140238399,0.07470076786885568,0.025728784972061804,0.12158170134488012,0.08489463379510674,0.027435160206934987,3.421670534538057,0.14924814325770622,0.5384868444513393,0.0967741935483871,0.4317137711065297,0.15374596739398227,0.0025057484530844713,25971.225847079306,43.301270189214534,0.009237604307032994,0.37886902178004134,0.5078616358321628,Catherine,REC_0811_00000.csv
right,46,hard,46.784,0.9440000000000026,0.5600000000000023,0.5932203389830516,0.9440000000000026,0.05084745762711865,16343.0,0.8796887816009479,36367.73620944806,354.16666666666663,0.11412614676541391,0.22501019991840066,0.4473684210526316,0.14618488073024358,0.42587119874930657,0.3432607820379817,4902.0,3304.8333333333335,-27.69999999999999,474.5416666666667,0.14359019617731605,136.0,-13.732142857142858,122.26785714285714,1.2698754715958398,-0.0915232516155422,11661002.20003431,8816007.0,3544240.0,6759834.0,4671413.557962929,1884104.5631940165,2261065.997319892,0.5216317062356134,0.5991613002470134,0.701396943869877,0.13892453950661743,-0.13300247730335324,0.4290208594151531,0.52,1.0,0.9381077491255199,0.9565043502087294,0.7761366076676515,12.0,0.06832376744581932,0.00876030023608407,2.697791738630353,3.2961564153493867,0.11135206011397447,0.1086842503404105,0.036865197438095715,0.13642140299561248,0.105431438801755,0.04393564980583992,0.1271067628221292,0.06863684502496344,0.03139845680568864,0.11661707599979826,0.07754803570528015,0.036002824146452166,4.20557087407592,0.19343882013517197,0.551405203392925,0.1016949152542373,0.5678752329559293,0.25716529540792826,0.002027551850334663,25161.877718750115,96.2250448649376,0.03330665599145446,0.3781009238709931,0.3946434562849524,Catherine,REC_0811_00000.csv
right,47,hard,47.744,0.9919999999999973,0.5919999999999987,0.5967741935483875,0.9919999999999973,0.06451612903225806,10461.0,0.3665050644728678,32937.815258453316,289.0625,0.09314707566883049,0.2275904605263158,0.47635690789473684,0.14481531102329834,0.4208935299608712,0.34406637478284924,4864.0,3281.7936507936506,2.8000000000000114,468.64285714285717,0.14280082997586493,164.0,-12.5,151.5,1.268911200862607,0.0010093204986421078,10188214.478454897,8186815.0,1185078.0,5947383.0,4724214.069003331,1633609.538417144,2368779.9340138696,0.5468683124758384,0.5997009020132976,0.7440182246446394,0.1569263807537985,-0.16880390749204832,0.42707831590618717,0.5,1.0,0.9363795679377194,0.9589612253737806,0.7717425686964883,12.0,0.07562456978480432,0.010381472865341763,3.3639217562130757,3.6551067866500233,0.11340101473739198,0.10449666993949303,0.03862579986747472,0.13552886777942763,0.1029489293988479,0.04604044439500274,0.1271033552112908,0.067442794058611,0.03187861844809991,0.11684473744032736,0.07737251696468733,0.03831625175934569,3.3466852433063314,0.12397499138915372,0.5301592491246081,0.0967741935483871,0.4289297041553187,0.19738590047247967,0.0022660801969429166,25347.134479726374,83.99530909658871,0.02771281292109899,0.9564288631355814,1.0450311923065685,Catherine,REC_0811_00000.csv
right,48,hard,48.752,0.9600000000000009,0.5599999999999952,0.5833333333333278,0.9600000000000009,0.05,13184.0,0.6040771932963568,34881.74155629274,200.0,0.06444770640870433,0.2270011947431302,0.43926722421346076,0.14612076243829275,0.4201505805695442,0.3477818886745563,5022.0,3300.8852459016393,-30.30000000000001,474.5163934426229,0.14375428350070024,168.33333333333334,-14.421052631578947,153.91228070175438,1.2661628897573716,-0.09184939677889181,10627839.87009985,8520348.0,1585806.0,6151412.0,4441483.926293977,1585226.290603713,2343259.0371052576,0.5439869647065239,0.6052313139081814,0.7203324310740619,0.13107182740191847,-0.1395729482829393,0.44285972700329335,0.46,1.0,0.9453992280564975,0.9594841524989723,0.7978810813803778,12.0,0.06437264954807922,0.010116496301001626,3.1350310040529363,2.4758607151654815,0.1130248219553622,0.10629041389791113,0.040495843141929146,0.13341180209978445,0.10281394956146885,0.045631077604616745,0.1256443874966477,0.06765199598716688,0.032003337405762985,0.11768328416619485,0.07846876645112587,0.03688032023202916,3.7111588394198036,0.19361941531708307,0.5404010722808918,0.1,0.4582493823033704,0.3081078589035903,0.0025943831878478016,2943.6919562571375,77.39298260040788,0.024440403706428457,0.5971440240905154,0.6451465712057746,Catherine,REC_0811_00000.csv
right,49,hard,49.728,0.8639999999999972,0.5760000000000005,0.6666666666666694,0.8639999999999972,0.07407407407407407,14343.0,0.7051958482013967,33804.66969221856,779.0178571428571,0.25102957072140414,0.2277325927395358,0.4578456655425511,0.14398763393493044,0.42138527362029216,0.3417006785685105,5041.0,3446.3818181818183,-14.400000000000006,489.6272727272727,0.14206994423664343,186.75,-16.44,170.31,1.2885277033897065,-0.05537950813406134,11112746.167910703,8586321.0,1583362.0,6874677.0,4412456.957255259,1423109.3052477217,2107576.730698602,0.4092346568881896,0.572764460228435,0.7449101792536791,0.13176788671054385,-0.19601746296478684,0.3982189467720805,0.52,1.0,0.9661529116402666,0.9639352750064262,0.8611126144503771,12.0,0.07939538361568309,0.009849400868206173,2.276311104207847,6.612530448914697,0.11795242441348239,0.10619833184736562,0.0442466671238875,0.12990171510569715,0.10238405495091031,0.04989158590564017,0.12041086567731112,0.06579759537011147,0.03300958581067892,0.11273483125913342,0.07819003856481897,0.03928230397096295,5.0055767348247455,0.24873302416157922,0.6413676484416551,0.1111111111111111,0.6337209895430688,0.20226489303454573,0.0034858429995823764,1992.8176869279707,311.78252564609323,0.06661331198291687,0.5941572424157279,0.41545957792689775,Catherine,REC_0811_00000.csv
right,50,hard,50.608,1.0080000000000027,0.6400000000000006,0.6349206349206338,1.0080000000000027,0.2222222222222222,13486.0,0.630425626239689,30251.35175492163,160.71428571428572,0.051788335506994555,0.226890756302521,0.49486461251167135,0.1570863327836612,0.4010426642126063,0.39169481654018556,4284.0,3344.796875,-24.099999999999994,519.5,0.15531585905347392,37.857142857142854,-13.387755102040817,24.469387755102037,0.6016976038570856,-1.466981718250969,9947648.492032124,8029212.0,1932777.0,5545434.0,4290141.994613471,1511879.761531097,2501431.8100057184,0.3844789510210679,0.5869103374074675,0.6918207850810995,0.22094017293644463,-0.17925495956200566,0.389149700834811,0.32,1.0,0.940585850359091,0.9582264258290581,0.7843519553736503,12.0,0.05656158199115343,0.008682199458573472,4.228107468913779,4.800934260350445,0.1078120401556522,0.10544829422563963,0.05060098006698837,0.1266706218146655,0.0989643429393601,0.04258479821738054,0.13093097021026126,0.07057603460598784,0.027374607015560548,0.12123774332335203,0.08651029817767335,0.031289269247478595,3.1541028157684186,0.16026398661500585,0.5343815692459295,0.06349206349206349,0.4543269745788308,0.12213467204037821,0.0005790141850152345,601.2395529235,346.19463520746325,0.0733212111192962,0.25216982383473224,0.3316196758481318,Catherine,REC_0811_00000.csv
left,0,hard,0.08,0.9920000000000001,0.608,0.6129032258064515,0.9920000000000001,0.12903225806451613,20406.0,1.2341711758021363,39172.540446082894,0.0,0.0,0.20173482032218093,0.5130111524163569,0.10891258909909426,0.4503242403129857,0.24185371194612099,4035.0,2961.746031746032,-102.80000000000001,320.2936507936508,0.1081435232327563,80.875,-12.851851851851851,68.02314814814815,1.000561073833697,-0.5403139654120324,11988187.04866111,9864251.0,4118453.0,5426926.0,4707546.176374235,1113852.0799093002,1748959.4457431016,0.5472586207604113,0.6147226308705003,0.6553773360995544,0.12211495027290253,-0.18801650677950665,0.43864996829104413,0.42,1.0,0.9498500455945794,0.9859328708347347,0.8045077985447254,12.0,0.03702551671911453,0.00466409694255744,3.4531322949778387,1.342183220235242,0.09712203226325099,0.06913017846615574,0.054086499812422965,0.10998445790235276,0.07886810654375905,0.11138324669060508,0.11930435714668523,0.05699662361326973,0.08095825071011307,0.08391660860710648,0.051915965485824535,0.08633367275845437,3.206774306133248,0.10119301893359352,0.49334555851724904,0.0967741935483871,0.42698631884420335,0.11330058531781502,0.0031948634550935124,0.0,0.0,0.0,0.0,0.0,Catherine,REC_0811_00000.csv
left,1,hard,1.088,0.976,0.5919999999999999,0.6065573770491802,0.976,0.16393442622950818,19037.0,1.1147307628901435,37269.28455175924,156.25,0.05034977063180026,0.19072164948453607,0.5083456062837506,0.1147742736474581,0.44092404946624814,0.26030395435746434,4074.0,2974.983870967742,-105.30000000000001,338.81451612903226,0.11388784975792766,56.8,-12.92156862745098,43.87843137254902,0.7220217227477788,-1.077302189412473,11071055.732641084,9294925.0,2592512.0,5426926.0,4455755.608436677,823815.5111808567,1719508.725857058,0.5527483871648319,0.6117611685603355,0.650855869566514,0.11027327834989897,-0.21433832547698817,0.4245866928223317,0.32,1.0,0.9495493429463717,0.9873141258641474,0.8066086542059009,12.0,0.0372191526199275,0.004937053493364851,1.6810768848408773,1.504616957757861,0.09805962623814714,0.06947177810668533,0.05526188810999246,0.10847442924602464,0.07789687122185536,0.10817624383976059,0.12001691524486444,0.05919793547267809,0.07690472705192221,0.08885925106669053,0.05557633817478002,0.08210399622659922,3.5771005101670004,0.2038408337247763,0.5338974914983844,0.09836065573770492,0.4672591706782207,0.19927003131651896,0.0025112050131916256,968.0291834443835,110.48543456039805,0.011313708498984809,0.5611000505528172,0.5400880157057536,Catherine,REC_0811_00000.csv
left,2,hard,2.08,1.008,0.6240000000000001,0.6190476190476192,1.008,0.1746031746031746,19095.0,1.1197910579587305,36412.36409518064,0.0,0.0,0.1951636541279922,0.5122129946262823,0.11530073461891643,0.4370930378161783,0.26378991345846753,4094.0,2994.75,-104.0,342.7421875,0.11444767927205944,54.45454545454545,-12.923076923076923,41.53146853146853,0.7360902507309048,-1.0859990073429742,11116036.963274367,9123883.0,4086688.0,4860043.0,4643846.829303127,988554.8912308534,1686331.5951450209,0.5554236225927138,0.6086172030475218,0.6462261338292239,0.10742609089712929,-0.17478205907952193,0.41525723878498033,0.32,1.0,0.949184725218617,0.9888991412213008,0.8057995303018068,12.0,0.04020165423243863,0.004830105173120166,2.5249471612050276,2.9497091021538893,0.09553698138408882,0.06869312964354286,0.0626669588446448,0.10674931129476584,0.07695237498956507,0.10782932632106186,0.11888513231488439,0.05899908172635445,0.07686889556724268,0.08803948576675849,0.05630165289256198,0.08247766925452876,3.1657007260325893,0.09718704993747697,0.5051929078217613,0.09523809523809523,0.46137909335181426,0.16086547256029596,0.0028661908070751196,774.1926978041924,90.21097956087903,0.016000000000000028,0.7060729526732694,0.496632441061396,Catherine,REC_0811_00000.csv
left,3,hard,3.104,1.008,0.6240000000000001,0.6190476190476192,1.008,0.14285714285714285,19526.0,1.1573942851063337,37230.22937076805,137.5,0.04430779815598423,0.18111002921129504,0.505111976630964,0.1178913955571386,0.4410543022214307,0.26729451444702557,4108.0,2983.015625,-104.9,349.09375,0.11702712753976942,58.55555555555556,-11.685185185185185,46.870370370370374,0.5272820029269166,-1.4275631566710667,10899067.777213288,9249721.0,2734232.0,5075068.0,4607484.215170383,841618.8857601358,1709001.6574358272,0.5506474522898559,0.6087989688571357,0.651306391617205,0.12197627790066323,-0.16244347649746815,0.4177296126228556,0.36,1.0,0.9525148963224581,0.9880789928204635,0.8136951636828019,12.0,0.037337181265351786,0.004879918035086095,1.2526896554551752,0.9288393938477668,0.09658849842598462,0.07019427697432862,0.05583171392204826,0.10762493910838969,0.07916171240303174,0.10776112679597513,0.11993944885890431,0.06208587157501061,0.07631224693970552,0.08898293987313594,0.055805523982127986,0.07971170114135759,3.4287746595227326,0.11917407418632729,0.5242975357770476,0.09523809523809523,0.48071096607718844,0.13382328413795366,0.002651447039238743,267.1597524578408,85.3149801226803,0.01847520861406806,0.42834891027171595,0.4669195416192608,Catherine,REC_0811_00000.csv
left,4,hard,4.128,1.008,0.6239999999999997,0.6190476190476187,1.008,0.15873015873015872,16429.0,0.8871919777371287,37099.69580737826,109.375,0.03524483944226018,0.19597989949748743,0.49341947834410144,0.12545403890936044,0.43291263003516667,0.289790664917935,4179.0,2972.453125,-105.6,369.8046875,0.12441060361549015,54.2,-13.18867924528302,41.011320754716984,0.5083789573576566,-1.4306212649540584,11050561.11770511,9606466.0,2601064.0,4802622.0,4629561.432373172,918103.2269220173,1661018.266389035,0.5686765162641698,0.6126102607797206,0.6287735824259201,0.13187760530281445,-0.1833983024182002,0.41086778549060077,0.34,1.0,0.9496464735667953,0.9901616184898102,0.8052747191535999,12.0,0.03512680700577448,0.004689800677834891,0.9236139304653506,0.9332669192305332,0.0953810247217944,0.07158964870135673,0.059531006060860925,0.10383889569326682,0.07800795849387869,0.1034183676151327,0.12114362610848572,0.06528698413032165,0.07605775953153172,0.0903084047793016,0.060167054779038776,0.07526926938503026,3.3275336184142437,0.12120639011520834,0.5115980242424332,0.09523809523809523,0.46017616247429877,0.1320125764419437,0.0017452499195066008,1677.5342023338903,72.64084738171309,0.0,0.45404864675238626,0.6703784455079899,Catherine,REC_0811_00000.csv
left,5,hard,5.152,0.944,0.5919999999999996,0.6271186440677963,0.944,0.15254237288135594,24101.0,1.5565468702578071,41471.0905692146,0.0,0.0,0.1798491117060112,0.5079094670236067,0.09851760518196578,0.4618968181792822,0.21328920508747787,4109.0,2987.2833333333333,-98.80000000000001,292.19166666666666,0.09781183572588249,67.33333333333333,-12.38,54.953333333333326,1.0314745031975034,-0.44001430755298854,11962011.812081153,10199006.0,3105638.0,5424483.0,4796495.424490998,914879.4866238836,1792156.0870617344,0.5380276649587521,0.6085966831633297,0.6280841476219154,0.15498348839912945,-0.16552477036156754,0.43906242642214655,0.4,1.0,0.9471186785003726,0.9836712252380395,0.795502997195983,12.0,0.04520791373229918,0.006985009768443243,3.0350784063505047,3.319516727309889,0.10011325786528451,0.07333865217561107,0.05555772524646139,0.11188538080865,0.08277866735104918,0.11359261759569732,0.11824567472117922,0.05468736923737844,0.08030150024827463,0.07788012519736438,0.043830235944587334,0.08778879360846253,3.409749827837104,0.144076380861262,0.5055866422424412,0.1016949152542373,0.4596850812665557,0.22160902746623634,0.0055075037345419875,3859.654950035473,72.64084738171309,0.0369504172281361,0.44774156453880204,0.45179087766656817,Catherine,REC_0811_00000.csv
left,6,hard,6.112,0.992,0.6079999999999997,0.6129032258064513,0.992,0.16129032258064516,23560.0,1.5093465317732284,41571.18902557395,125.0,0.04027981650544021,0.18371351483934265,0.5121412803532008,0.10749712027164983,0.449980073917577,0.23889306772116747,4077.0,2907.5714285714284,-97.0,310.4761904761905,0.10678196498468695,62.0,-11.846153846153847,50.15384615384615,0.8927228818053178,-0.7525960177388815,12556586.422193693,10348057.0,5561317.0,4433659.0,4987240.559978463,1349777.164831694,1536307.1178903019,0.5486065408155794,0.6096901919176663,0.6575934751631405,0.10965038499059188,-0.18087891570909986,0.4321360867095391,0.34,1.0,0.947586710920281,0.9848234553548901,0.7953926068914642,12.0,0.04275899361481863,0.006442982806208951,1.558933166611747,1.7444909309226801,0.10039470020799555,0.06886235717366264,0.056202470834220454,0.11225754325051727,0.0781157022988694,0.11043417022879509,0.12278288213039847,0.0603023305327634,0.0803103009657326,0.08133663069053429,0.04719478973888644,0.08180612194762443,3.066986781276787,0.07562847673843406,0.47089287454321,0.0967741935483871,0.41831833581975725,0.2148594844952796,0.003347792772438433,4281.810870803769,68.10779599282301,0.033306655991458184,0.4049539909719564,0.22424163250944293,Catherine,REC_0811_00000.csv
left,7,hard,7.12,1.008,0.6079999999999997,0.6031746031746028,1.008,0.15873015873015872,18482.0,1.066308973871768,39146.24518392537,281.25,0.09062958713724047,0.2042042042042042,0.527027027027027,0.10819357140896489,0.461387280063682,0.23449621626749076,3996.0,2846.171875,-81.69999999999999,304.75,0.10707364607065412,56.9,-12.358490566037736,44.54150943396226,0.9295975109145939,-0.6408408074874519,11710448.840141866,9606466.0,3630982.0,5627290.0,4572148.861020455,990769.6525912194,1819350.0825776742,0.5617124859941327,0.6200463199817041,0.6468337404955044,0.1236246995297916,-0.20840022429869953,0.43523233607275874,0.34,1.0,0.9451400230332967,0.9830959025586193,0.7875049513721967,12.0,0.03978417042726154,0.006032118734729296,4.24008704853922,2.0186128752368404,0.09797150778183415,0.06894128626719002,0.05321841289012105,0.11458373363344404,0.08023935659191347,0.11451236584227718,0.12388350580549531,0.06328127144464879,0.08311053772885729,0.07177403859350553,0.0449122999643161,0.08357168345639703,3.1627196607663604,0.1097220441963865,0.4834169844860066,0.09523809523809523,0.44857041901080996,0.15606164474102738,0.0023820129925744334,3099.782949390705,140.91405477571544,0.033306655991458184,0.4263149939008477,0.39523313225223483,Catherine,REC_0811_00000.csv
left,8,hard,8.144,0.9919999999999991,0.5920000000000005,0.5967741935483881,0.9919999999999991,0.14516129032258066,21823.0,1.3577994191157183,36788.42241792926,158.85416666666669,0.051188933475663605,0.20096544715447154,0.5355691056910569,0.11944095758988613,0.44839953375773334,0.2663717256546593,3936.0,2832.5079365079364,-76.4,334.27777777777777,0.11801477181027527,50.666666666666664,-11.641509433962264,39.0251572327044,0.7544015723595896,-1.1334148132347144,12419959.60735336,10223440.0,4131892.0,5715255.0,4858694.768198591,1134049.8105918919,1864949.8769890757,0.5450551624873564,0.615610325916539,0.6736079978478748,0.12719671837169388,-0.16452572017772948,0.42564055517173455,0.36,1.0,0.9514127065362368,0.98475091681543,0.8047080337082314,12.0,0.037664426323541896,0.005538715323359514,1.6640639673119275,2.13405516432357,0.09087241101049047,0.06197323590065453,0.05201515287366628,0.11287321796825966,0.07532726620640187,0.11395476553393706,0.1257172957948534,0.06675333990854479,0.08427104814848024,0.0819174213216175,0.052687617681341344,0.0816372276517529,3.4900063912443757,0.11783544826251183,0.496385637742311,0.0967741935483871,0.4565827978572641,0.21767889576818014,0.0025606712208873232,2580.8762723798563,82.19986528583404,0.009237604307034457,0.5666422683232021,0.7474626293367979,Catherine,REC_0811_00000.csv
left,9,hard,9.152,0.9760000000000009,0.5920000000000005,0.6065573770491803,0.9760000000000009,0.19672131147540983,18841.0,1.0976304554169873,37243.169212622066,406.25,0.13090940364268067,0.17855398143624818,0.5190522716170005,0.12453816139316998,0.44382546241410664,0.2806016597508118,4094.0,2802.6129032258063,-88.1,344.85483870967744,0.12304761685523878,30.5,-11.795918367346939,18.70408163265306,0.4465591998746927,-1.540937341477063,11428498.922102587,9805608.0,3452610.0,4747644.0,4654579.916210851,853143.9599280431,1638077.9052670477,0.5744656171932545,0.6037055694115866,0.6704457821615684,0.10358409543991387,-0.1749533551521525,0.39527196672936554,0.32,1.0,0.9541779920144994,0.9851714289501244,0.8130461310740156,12.0,0.03848886338211109,0.005378153548041203,0.9216999769989895,2.0616960040780583,0.09167136658187637,0.060962696101564205,0.054591913076506945,0.1124181351503781,0.07308272234435607,0.11236058516821859,0.12728905054039433,0.07201229267618926,0.08500132364958966,0.08210080454875059,0.0525258687169807,0.07598324144519515,3.8639190551095814,0.1856181783887905,0.5237064150975109,0.09836065573770492,0.5427210760340135,0.22494838202495337,0.00125462150505853,1834.09768914672,123.70020100229932,0.01599999999999967,0.7488992149789705,1.1797904222893238,Catherine,REC_0811_00000.csv
left,10,hard,10.144,0.9439999999999991,0.5760000000000005,0.6101694915254249,0.9439999999999991,0.1694915254237288,37200.0,2.699388337558168,44852.467100484006,270.8333333333333,0.08727293576178712,0.18541409147095178,0.5216316440049443,0.11790349102696052,0.45174551348026176,0.26099537794749894,4045.0,2817.7,-113.69999999999999,329.1166666666667,0.11680330293028594,48.8,-13.061224489795919,35.73877551020408,0.6835725903067111,-1.1934823390017628,7718363.557465986,6991963.0,1370781.0,2967583.0,4458043.155965071,697977.9365193908,1676249.0827454722,0.5619233304323901,0.6019171099330977,0.6685000720660668,0.1270539801965691,-0.1664840262682904,0.4047381159369785,0.34,1.0,0.9421070739872235,0.9850712137566459,0.7826601743296947,11.0,0.041208623134848535,0.006205556825241339,1.719786613196646,1.0063551883261397,0.09546201985070567,0.06670333960322249,0.05479055021234813,0.11309460434633449,0.07773479551880376,0.11218369592220608,0.12536820811299998,0.06941240491653951,0.08202907808969491,0.07695401686955082,0.04849108611042103,0.07777620044717323,3.487790815494205,0.16579862919866517,0.5474901570779694,0.1016949152542373,0.4427207406749439,0.2564753786822049,0.0038589923729601926,9852.219157800608,123.88281137777389,0.024440403706431427,0.6787138589257915,0.8246309585566409,Catherine,REC_0811_00000.csv
left,11,hard,11.104,0.9600000000000009,0.5920000000000005,0.6166666666666667,0.9600000000000009,0.1,48231.0,3.661804111723393,49869.62111345944,4031.25,1.2990240823004466,0.21687047666583478,0.5195907162465685,0.11444623335097219,0.45218928382440693,0.25309364340294005,4007.0,2912.098360655738,-28.30000000000001,331.4016393442623,0.11380166405836589,127.33333333333333,-13.796296296296296,113.53703703703704,1.040998258123168,-0.5213100915644504,8087054.738340405,7601607.0,2646268.0,783129.0,4792394.974204131,1063757.1560009248,1766195.594863965,0.551075145778497,0.6114271258149564,0.6524504891969072,0.14377738170100696,-0.19638689644215868,0.4263764829718483,0.4,1.0,0.9922502077853379,0.9862712216662141,0.9631167445550205,12.0,0.04207478545258068,0.005387520392555442,0.9493657476666755,2.4425496704836576,0.09694997691935284,0.06822864477195194,0.05313052387439624,0.11184543847600176,0.0789527015616028,0.11225638658395164,0.11870770893615104,0.06195746405611411,0.08090611243089879,0.08256116371497088,0.05248876929485808,0.08201510937974982,3.486837003804067,0.17612025675050313,0.5133810000784642,0.1,0.4350077822524502,0.25058993564217114,0.002067744356849367,14846.480738994454,2133.061031341093,0.016000000000001003,0.8892359000147202,0.30633614626424915,Catherine,REC_0811_00000.csv
left,12,hard,12.08,0.9919999999999991,0.6080000000000005,0.6129032258064527,0.9919999999999991,0.12903225806451613,20928.0,1.2797138314194192,37478.18113249361,140.625,0.04531479356862023,0.20845997973657548,0.536727456940223,0.11181849817163264,0.47056071834015045,0.23762820357375836,3948.0,2782.4285714285716,-115.0,309.3095238095238,0.11116530608752202,87.125,-13.333333333333334,73.79166666666667,0.8191648145252542,-0.9103777560563961,11532810.461880226,9657779.0,3309667.0,5364618.0,4684044.9174420955,894410.5526911193,1724800.1343621442,0.5502428268389032,0.5970388203346422,0.6444524310723154,0.10992452636439021,-0.18933687352841677,0.4060439994294516,0.4,1.0,0.939450257227517,0.9813787518741545,0.7762295898919098,11.0,0.04602212359530309,0.0065828622764279995,1.8810700868413552,1.6351580328864088,0.09086500887086192,0.06459470714746168,0.05310537214834591,0.11619973415937886,0.07939849280918233,0.12036989497584046,0.12550415589898056,0.06877057269828231,0.08999788924828715,0.06790345307570753,0.04304792547335033,0.08024279349432094,3.0620392367087197,0.10877804664256983,0.49154522120281796,0.0967741935483871,0.44516280007296993,0.12555153749582817,0.0027147856468255327,13735.081324841143,2209.6248025263963,0.02444040370643103,0.4313182941162211,0.30416679031050586,Catherine,REC_0811_00000.csv
left,13,hard,13.088,0.9600000000000009,0.5920000000000005,0.6166666666666667,0.9600000000000009,0.08333333333333333,17339.0,0.9665862624339244,37172.24132333158,84.375,0.02718887614117214,0.215990159901599,0.5198031980319803,0.1296154488349464,0.43752698882446756,0.2962456080322924,4065.0,2847.2622950819673,-72.0,366.1803278688525,0.12860786605482402,138.8,-12.945454545454545,125.85454545454547,0.7501775460549249,-1.1121600650111203,11360972.094892848,9236282.0,3530801.0,5594303.0,4473803.676630448,836794.9429593435,1933578.7203551366,0.5632959067856784,0.6006890339880268,0.6548073096338947,0.13556882366145062,-0.18658811555223054,0.3931742501772704,0.44,1.0,0.9532197277104774,0.9867757603156276,0.8093164630135922,12.0,0.041950613023813234,0.005378152534005773,1.5618245526745387,1.3736453327626066,0.08934092570948221,0.06000587276820414,0.05259582112238964,0.10908379058399498,0.07247686877817633,0.11174380912351813,0.12409965281576206,0.0699089720928358,0.08421664757057397,0.08787273365844671,0.059706476742110624,0.07894842903450539,3.8372567463038463,0.22179970202011431,0.5612445262546207,0.1,0.4929717645515037,0.21944282716011054,0.0023073837506669393,16895.020933201984,2262.666171383883,0.018475208614067068,0.8615093683298052,0.627564415411468,Catherine,REC_0811_00000.csv
left,14,hard,14.064,1.0239999999999991,0.6240000000000006,0.6093750000000011,1.0239999999999991,0.1875,45795.0,3.449271718842739,48831.97405389219,281.25,0.09062958713724047,0.18891625615763546,0.5147783251231527,0.11794694409706516,0.4395019024558976,0.268365036505861,4060.0,2891.0,-105.80000000000001,337.9230769230769,0.11688795466035175,41.416666666666664,-12.288461538461538,29.128205128205124,0.6603093509355866,-1.2624845063702452,7955341.190695344,6925990.0,1590693.0,3576005.0,4354819.132580713,782347.2071920098,1720735.9731490125,0.5534247129559902,0.6039591469765708,0.6681326283537738,0.1060080898495317,-0.1872101313717509,0.40568058933324447,0.28,1.0,0.9542769188654636,0.9887524251752559,0.8146131540280717,12.0,0.03812497154000429,0.00478591220202112,2.181704636746643,3.4379064681271814,0.09999733922252083,0.07406008035547987,0.057824016177527075,0.10729319107043077,0.08147832796743208,0.10213128276082271,0.12052789825186919,0.06324668068009472,0.07453902030173216,0.0869435649096666,0.05470026341697044,0.07725833488545353,2.835298448695684,0.0701424995670345,0.4813279216946503,0.0625,0.41655323774409514,0.23284598284605262,0.002567268104611004,15497.271512538371,101.4061296224247,0.03199999999999919,1.6327273494719696,0.5774216396914036,Catherine,REC_0811_00000.csv
left,15,hard,15.104,0.9759999999999991,0.5920000000000005,0.6065573770491814,0.9759999999999991,0.16393442622950818,16568.0,0.8993192366083974,35852.961118992665,223.21428571428572,0.07192824375971466,0.18289441894177338,0.5283884996375936,0.1122635096861901,0.4550300215248669,0.24671670961378178,4139.0,2847.4193548387098,-105.5,317.46774193548384,0.1114931460292285,60.4,-12.509803921568627,47.89019607843137,0.7556081814202685,-1.0246037625272317,11508516.555039838,8779355.0,4073249.0,6227160.0,4542686.285529307,989852.8648493219,2070639.6232041968,0.5944468836182772,0.6008537894414112,0.665120698783415,0.10876300219868884,-0.19431845242905077,0.40653319800238014,0.32,1.0,0.9545281374242028,0.9856769684266253,0.8200944709612122,12.0,0.04611500166916131,0.0067940988683079144,2.6918548008384575,2.3242933109944772,0.09653336354367283,0.06973490427098675,0.0573467769344058,0.11230882519542314,0.08022544465843434,0.11143083720403309,0.12240285487708169,0.06528831992749519,0.08133001019598958,0.07524640308145462,0.04697518975869491,0.08117707035232809,3.5688190831759448,0.19493291129932833,0.5334861347261113,0.09836065573770492,0.5284493040736198,0.22737341937477204,0.004590889278227021,16656.109519732792,101.16344614476296,0.03330665599145749,1.6381123061089904,0.28209357253127615,Catherine,REC_0811_00000.csv
left,16,hard,16.096,1.024000000000001,0.6400000000000006,0.625,1.024000000000001,0.078125,41689.0,3.0910377265734605,47160.887205395105,2093.75,0.6746869264661235,0.19593933463796478,0.5244618395303327,0.12753199830879808,0.43885591289211995,0.2906010710172303,4088.0,2801.8307692307694,-108.4,355.46153846153845,0.12686759755983723,135.8,-11.542372881355933,124.25762711864408,0.5157841774851831,-1.4645773547583454,8540305.082397642,7191105.0,2069611.0,4116009.0,4664449.08107574,1086030.0767326402,1819031.458612011,0.5685846567107777,0.5880752052616641,0.6634437608688338,0.11349721885136976,-0.21328619961531337,0.3777886112289121,0.42,1.0,0.9431031000118832,0.9869911539213,0.7832031230489171,11.0,0.04382101009436209,0.005997706716463649,2.682321188962475,1.736124692286765,0.0929611957017115,0.063617744441821,0.05781384699015479,0.10937354147562856,0.07425364734047518,0.10897819557542046,0.12750454373239475,0.0736661194054437,0.08263278405877475,0.07977750811282733,0.0538658789033544,0.07555499426199352,3.1419629847709003,0.11527839577108266,0.5081960557474133,0.09375,0.42346202549135026,0.12903048899565686,0.0016469905039097892,15822.670476250209,1063.5967478757336,0.027712812921102618,0.7264379270834656,0.21926298949133252,Catherine,REC_0811_00000.csv
left,17,hard,17.136,1.024000000000001,0.6400000000000006,0.625,1.024000000000001,0.0625,15970.0,0.8471458495219316,36469.47470145409,179.6875,0.0579022362265703,0.19572088499878434,0.5275954291271578,0.12902330743618204,0.4400067463167287,0.2932302936628246,4113.0,2827.753846153846,-97.1,362.62307692307695,0.12823714391416946,160.75,-11.3,149.45,0.5410885696012472,-1.4961911559682288,11582650.014340155,9166643.0,3954741.0,5872858.0,4490661.672614427,1034195.769090504,1783828.914886591,0.5623517927417676,0.5914479275570547,0.6726763957522918,0.12950352171940804,-0.1998413127736517,0.37393734200920864,0.42,1.0,0.9570278900907648,0.9890992788707857,0.8266111071068609,12.0,0.04334016886336047,0.006515333453300451,1.2057995893919995,2.556719139896032,0.09191856542839111,0.0671965789645492,0.05750146895606189,0.10834911100955365,0.07933450849818284,0.10563970316206393,0.12315292376662097,0.07173402102239342,0.07948684468237906,0.08328436813127027,0.0572892864137886,0.07511261996474505,3.3737700448299957,0.15571331898698518,0.5297972287260077,0.09375,0.4788802863312893,0.09183753176202158,0.0026617215142850574,14679.289299326903,1092.7361448369895,0.02771281292110316,0.7825727270862377,0.4294518366384671,Catherine,REC_0811_00000.csv
left,18,hard,18.176,0.9920000000000009,0.6080000000000005,0.6129032258064516,0.9920000000000009,0.0967741935483871,18827.0,1.0964090048831905,39690.88149688792,93.75,0.030209862379080157,0.19562575941676794,0.5253948967193196,0.12100860407058409,0.45074411277985976,0.26846408114838244,4115.0,2791.222222222222,-99.9,335.1666666666667,0.12007881851837109,100.5,-12.142857142857142,88.35714285714286,0.5619304027339723,-1.3531185078301793,12378931.1781464,9457415.0,4704884.0,6454402.0,4637830.23286193,1137933.727291409,1878503.4090815377,0.5763262236283353,0.5946152871783884,0.6700085870100587,0.1371720058589403,-0.19198670272608376,0.3870983036474559,0.4,1.0,0.9475393265194828,0.9850350115844008,0.79456215483425,12.0,0.044593095830639785,0.006553101505801648,1.3680678013052145,2.230915657811636,0.09445142652419435,0.06515891655814429,0.056731135589461294,0.11452569563313564,0.07697032079023242,0.1104198536227516,0.12712187299186223,0.07250052602546532,0.08366932617559583,0.07564530529380654,0.048508078045118766,0.07429754275023173,3.668366018064204,0.16556751228108801,0.5531886178688842,0.0967741935483871,0.4698066023498297,0.09791913675574522,0.0022211473994492143,14096.692602640283,1130.709254392459,0.018475208614068074,0.39866386864239484,0.44066752149300753,Catherine,REC_0811_00000.csv
left,19,hard,19.184,0.9759999999999991,0.6080000000000005,0.6229508196721323,0.9759999999999991,0.08196721311475409,20512.0,1.2434193012723125,37656.83706845279,93.75,0.030209862379080157,0.19147398843930635,0.5154142581888247,0.12264340712761083,0.4469340545131477,0.27441052184110953,4152.0,2886.548387096774,-108.5,351.2096774193548,0.12167115541499503,112.8,-12.107142857142858,100.69285714285714,0.545788839121031,-1.3912892415623115,11694963.25126723,9186191.0,4189313.0,5902179.0,4616986.672156953,1065252.7956969298,1824844.8707732328,0.5752929373398608,0.6038220380068763,0.6270323379173487,0.1450570818718454,-0.18493240193604632,0.3977459606020944,0.44,1.0,0.9423176914420966,0.9879504070327157,0.7798121022305948,11.0,0.04308736482728665,0.006773745750019353,2.088990605398893,1.6186306778249104,0.09661611702781533,0.07067822938435234,0.05704435479364795,0.10941184359040264,0.07975257870209984,0.10793111540739582,0.12253724171071599,0.06948247153090531,0.07916028742889711,0.07852329492752813,0.05316093559670552,0.07570152989953399,3.891541966169433,0.20396035196709986,0.5710301601439034,0.09836065573770492,0.481179317545797,0.2597783900222889,0.0025970384190857946,2296.0632250295953,49.61603875848102,0.024440403706431982,0.7751287059144034,0.5908513211769408,Catherine,REC_0811_00000.csv
left,20,hard,20.176,0.9920000000000009,0.6240000000000023,0.6290322580645179,0.9920000000000009,0.04838709677419355,36630.0,2.649657851539296,44569.51395292526,218.75,0.07048967888452036,0.17539203860072378,0.5080820265379976,0.11561428305339162,0.4467453352178724,0.25879236768508973,4145.0,2897.4285714285716,-111.69999999999999,332.42857142857144,0.11473227492357756,175.33333333333334,-10.271186440677965,165.0621468926554,0.5900501412297535,-1.318968428168785,7955664.568336011,7153231.0,2094046.0,2781880.0,4473864.266533758,870104.7123778022,1707623.1844625375,0.5603044788019182,0.5931002346409895,0.6668122332255717,0.16360742107704207,-0.19121811035816905,0.3966057353693866,0.3,1.0,0.9548744910138042,0.9875521521195875,0.8205514778713425,12.0,0.041055453060367286,0.005061851634889691,2.447888489591133,1.6635715525093815,0.09872464911415704,0.07245066780615543,0.05798244749038556,0.10907865759458303,0.07982447490385564,0.10627924048691231,0.12204034228489409,0.06541103770173881,0.07911229442636601,0.08040517590857794,0.050203245351652805,0.07848776693072126,3.282444824507161,0.1142968999192612,0.5223981457903876,0.0967741935483871,0.4432700532886282,0.11697174994799309,0.007723512728952752,9828.326052792509,72.16878364870323,0.009237604307035156,0.526774453590778,0.9644407490295009,Catherine,REC_0811_00000.csv
left,21,hard,21.184,0.9759999999999991,0.6239999999999988,0.6393442622950813,0.9759999999999991,0.06557377049180328,20813.0,1.269680487748945,38710.81865577115,0.0,0.0,0.19509232264334306,0.5208940719144801,0.11969731712909884,0.44795863770869504,0.2672061816717259,4116.0,2954.2258064516127,-99.9,350.8709677419355,0.11876917701269915,148.25,-11.807017543859649,136.44298245614036,0.7168225482363342,-1.1801858222263526,11481590.365847189,9302255.0,3573561.0,5703037.0,4549160.952523759,913774.5259595081,1762046.8089838175,0.55083541972136,0.5992135200475801,0.6489009729090083,0.1025994831384559,-0.19225313868457006,0.40353655079754835,0.42,1.0,0.9531696462630642,0.9881986154548624,0.8147493512023907,12.0,0.03752322980167171,0.00467743738366955,1.268548871914652,1.8386735168063382,0.09574038283049978,0.07148316790600671,0.05491313700440048,0.10876164269881308,0.08041515161441784,0.10883261811947893,0.11977375219750822,0.0637413874056846,0.0784660573699785,0.08348893329402388,0.055955929723414254,0.0784278398357738,3.6990400560231507,0.19280880445195506,0.5552500291080403,0.09836065573770492,0.47990905387305766,0.2380006811020549,0.0023204558660005975,9220.068817530591,109.7463932588827,0.009237604307035156,0.5639007432316231,1.2694465293998836,Catherine,REC_0811_00000.csv
left,22,hard,22.176,1.0080000000000027,0.6240000000000023,0.6190476190476197,1.0080000000000027,0.06349206349206349,19090.0,1.1193548256252315,39659.81681752955,93.75,0.030209862379080157,0.18106595278656606,0.5108298856169384,0.12285129203180221,0.44010885895921,0.2791384211675066,4109.0,2922.359375,-98.6,356.1640625,0.12187551796226294,130.0,-10.220338983050848,119.77966101694915,0.5215115153542117,-1.4684861896120462,11832801.637648584,9605245.0,3844785.0,5742133.0,4610228.409346858,1045287.553234563,1804868.4047281349,0.5520011130138216,0.6041766635534844,0.665900305296755,0.1248501967205925,-0.18258241376327877,0.40592453491621194,0.42,1.0,0.9510564975280535,0.988242162180992,0.808624458033559,12.0,0.034145100500279246,0.004240849866316378,2.784292671665705,4.35596086085458,0.09340162860702236,0.0664595708732777,0.057065406269548896,0.10821200763509793,0.07730803984366227,0.10852211665445835,0.12231127460153664,0.0656201378381124,0.07960712395271372,0.08757371772593849,0.057231154193689814,0.07668782180494142,3.074333708949726,0.0876551773923943,0.4873952877731628,0.09523809523809523,0.4346017280251452,0.1444979197373858,0.002768650697296004,9667.79721549847,109.7463932588827,0.01600000000000185,0.03987078909724903,0.2484987799358305,Catherine,REC_0811_00000.csv
left,23,hard,23.2,0.9759999999999991,0.5920000000000023,0.6065573770491832,0.9759999999999991,0.16393442622950818,20406.0,1.2341711758021363,37740.85502476063,0.0,0.0,0.19601083476976114,0.5185914799310515,0.11511704916776591,0.45136589290699003,0.2550415327712871,4061.0,2946.7903225806454,-97.0,336.14516129032256,0.11407162522372619,54.4,-13.058823529411764,41.34117647058824,0.850952917020434,-0.9186637271811211,11728175.66020304,9575923.0,3393967.0,5859419.0,4792069.670661151,1082292.873380731,1915616.5827797798,0.5460798217419469,0.6140018920040381,0.6495964355274828,0.13351780633212496,-0.17867936113744654,0.42853542329370997,0.32,1.0,0.9557641066853384,0.9878569385806102,0.8199236615587763,12.0,0.037407202658770455,0.005086558541647827,4.316550304257487,1.3620839161852274,0.096173529427863,0.07193720888227212,0.05819891516740466,0.10910175642169445,0.0815321207875162,0.10923859201646405,0.11999386976535432,0.06324541190250738,0.07955621479904323,0.07928254360950404,0.05187163726525853,0.07986819995511792,3.3836721947529558,0.17355680207635107,0.5166627888119161,0.09836065573770492,0.45788031560675263,0.2708629455000038,0.00472815597037717,900.5770372377758,54.12658773652741,0.018475208614070135,0.2373472602757641,0.4954787287005196,Catherine,REC_0811_00000.csv
left,24,hard,24.192,0.9920000000000009,0.6080000000000005,0.6129032258064516,0.9920000000000009,0.27419354838709675,42665.0,3.1761902780724416,48840.96221410876,406.25,0.13090940364268067,0.1724053724053724,0.515018315018315,0.1205206746493254,0.44834477223214136,0.26881249010489283,4095.0,2907.095238095238,-109.5,346.86507936507934,0.11931672372465833,22.764705882352942,-12.977777777777778,9.786928104575164,0.47022201180196715,-1.521743645515725,8286718.96255804,7525859.0,2169793.0,2706133.0,4624653.873251362,1120978.4693964024,1751903.2092652177,0.5534423415394547,0.597330707369702,0.6659568543298992,0.09940492765760855,-0.17763716733390755,0.40475679903688455,0.22,1.0,0.9543944688531522,0.9874669979327848,0.8179968618924821,12.0,0.039366776804240125,0.005432727351299122,1.8108733485058222,1.5551014060362718,0.09631607397336565,0.07124877830376691,0.05819369140635664,0.10919097773919312,0.08049817905835203,0.10816447989866064,0.12356740760154412,0.07047890492336757,0.0792423572321687,0.07686721595221326,0.05004176972595784,0.07619016418505353,3.807088272405693,0.17166318066291752,0.5647602988121282,0.0967741935483871,0.5058819405749824,0.1167511115633242,0.003112661783747973,13247.487573121176,212.71435267356392,0.01600000000000185,0.3023468706900544,0.5322480355382377,Catherine,REC_0811_00000.csv
left,25,hard,25.2,0.9920000000000009,0.6080000000000005,0.6129032258064516,0.9920000000000009,0.1774193548387097,17784.0,1.0054109401153246,38116.29184482667,135.41666666666669,0.043636467880893565,0.19306443679291688,0.5120511559272012,0.12369304930984078,0.4404298291618778,0.2808462123129251,4066.0,2844.9841269841268,-80.1,348.54761904761904,0.12251302766216232,47.72727272727273,-12.196078431372548,35.53119429590018,0.6129996293935543,-1.3010057988517747,11721726.748104734,9310807.0,3649308.0,6114761.0,4561150.755857572,924721.8957021454,2015854.5231026663,0.5561679318850744,0.5983513056282527,0.6734659718577813,0.1019050913490227,-0.18792113741168126,0.39792197304771343,0.32,1.0,0.9533522080956781,0.986464148427943,0.8080706637285947,12.0,0.04140623409829405,0.006333321192271157,1.0623625627867663,1.5547585895333924,0.09637122420969237,0.0664996596627872,0.054532064228885145,0.11064864925181607,0.07607931530847943,0.10763582802370088,0.12673934632937947,0.07082919535356015,0.07956637691509424,0.08196547530044523,0.05286385395628062,0.07626901145987927,3.4124638045131164,0.13268861422991626,0.5180286331277515,0.0967741935483871,0.4595713326243717,0.10179862748829831,0.0040499430009317125,13671.15043927662,206.85237511953443,0.009237604307035154,0.19145142352699074,0.034611437934621146,Catherine,REC_0811_00000.csv
left,26,hard,26.208,0.9760000000000026,0.6080000000000005,0.6229508196721301,0.9760000000000026,0.18032786885245902,21909.0,1.365302615251899,39427.39165859187,196.875,0.06344071099606832,0.19121638292622747,0.5183814458425857,0.11703161688418065,0.4497570032217551,0.26021077169617635,4053.0,2953.7096774193546,-109.0,341.96774193548384,0.11577567847976847,39.63636363636363,-13.08,26.556363636363635,0.6891692566013415,-1.2159213516838527,11981693.467572644,9756739.0,4021936.0,5673716.0,4695273.271591515,1039737.813433562,1843165.955258963,0.5465798475403216,0.6046420219900498,0.6547698356356655,0.13858048871266648,-0.1701008651152779,0.41396799421437547,0.3,1.0,0.9534646339441192,0.9873982952162732,0.8162577438766022,12.0,0.036085543522934624,0.005833872483110281,1.9226388350473296,1.303882542591566,0.0965052148746792,0.07049090809807242,0.05490089007808661,0.11024408889859663,0.08054387593512806,0.10929394419265004,0.12023699011631082,0.06330475618413149,0.07918418609730793,0.08331240102659314,0.053726860700049145,0.07825588379839458,3.5657132902523,0.1788729105390322,0.5349196703455734,0.09836065573770492,0.46708248100140304,0.25389672614872,0.003670843104641055,13334.737355243758,141.98926708590542,0.009237604307032994,0.41923838797239954,0.30711221862264504,Catherine,REC_0811_00000.csv
left,27,hard,27.2,0.9920000000000009,0.6240000000000023,0.6290322580645179,0.9920000000000009,0.11290322580645161,22536.0,1.4200061498726584,39613.5893223525,343.75,0.11076949538996057,0.1930933852140078,0.5089980544747081,0.12173765149312281,0.44888598719475065,0.27119949155421685,4112.0,2893.15873015873,-103.0,350.0238095238095,0.1209832719771327,91.57142857142857,-12.218181818181819,79.35324675324675,0.5552446912445952,-1.3005516812539544,12201193.117556864,10008416.0,4565606.0,5277875.0,4813022.598299101,1174701.342071136,1550203.9643969433,0.5497070509624413,0.5907926978926957,0.6584498735383335,0.13300906117562605,-0.17325883329421587,0.4002606675391015,0.4,1.0,0.9504619630435293,0.9862942124208663,0.804711106007946,12.0,0.039678941854184774,0.005459122092430577,1.2782034234797548,1.8129422815429308,0.09466228486467802,0.06735648958407628,0.05532482210359414,0.1112586342164603,0.07755021424378254,0.11084166808398577,0.12446987694012694,0.07148225973698215,0.08187898106644574,0.07786293884313844,0.05025539175614065,0.07705643856058901,3.485684088603087,0.1393316598331845,0.5323793454862814,0.0967741935483871,0.461274278148077,0.11369912372284613,0.004416803416586162,2581.674456626939,107.04529425971111,0.009237604307032994,0.3321782899164798,0.3173775260448835,Catherine,REC_0811_00000.csv
left,28,hard,28.208,0.9760000000000026,0.6240000000000023,0.6393442622950827,0.9760000000000026,0.16393442622950818,22967.0,1.4576093770202616,40290.38845680195,75.33482142857143,0.024275782268903697,0.18264953040039544,0.527681660899654,0.10969285999202234,0.46143575765634004,0.2377207621469938,4046.0,2911.3548387096776,-107.1,317.11290322580646,0.1089227939547046,58.2,-12.117647058823529,46.082352941176474,0.6973554460754166,-1.05457924774386,12220729.716263918,9922894.0,4394564.0,5618738.0,4784479.3422397515,1215866.6429364714,1650603.3128300703,0.5329210312947195,0.5870570826277512,0.6607275139810337,0.10567350194960667,-0.1796204188362679,0.40677982608538577,0.36,1.0,0.9475026374184379,0.9834454736841933,0.7943217706407543,12.0,0.039846407402563865,0.004738391461752641,2.041072243293544,1.7990077819571866,0.09695076009395913,0.06937242387980322,0.05362762044054425,0.11494482116739795,0.08014226831538358,0.11358751052608251,0.12354850862030757,0.06594313699419403,0.08338873376767274,0.07338341532597616,0.043749722997828304,0.0813610778708505,3.6705006918429635,0.18828140045335598,0.5563128301043345,0.09836065573770492,0.4867885839953034,0.21867706406879175,0.006501560770381642,532.0172302974152,134.40671406822565,0.009237604307032994,0.2755750663679706,0.29422774589332035,Catherine,REC_0811_00000.csv
left,29,hard,29.2,1.024000000000001,0.6240000000000023,0.6093750000000018,1.024000000000001,0.046875,19545.0,1.1590519679736295,36381.307686777836,114.58333333333334,0.03692316512998686,0.17619401138332097,0.520415738678545,0.1045269109457526,0.4638873670941285,0.2253282118899886,4041.0,2892.4461538461537,-96.19999999999999,300.1923076923077,0.10378492518975155,189.66666666666666,-9.442622950819672,180.224043715847,0.8514213960519553,-0.7761094912366109,11371508.018118838,9494067.0,3949854.0,4855156.0,4762220.457423802,1087494.8103478663,1671847.155030944,0.5548411214363616,0.6024955270268093,0.6528052662695936,0.11231225252890553,-0.17441631376520572,0.4271746304487003,0.44,1.0,0.951146481453182,0.9828815735138607,0.8044967291585071,12.0,0.040707236630713746,0.0058212574073708955,2.0026868289892477,1.9488704713682807,0.09791552532059636,0.07037429059247165,0.05368360025317937,0.11472323133467016,0.08142163407070939,0.11403177507459751,0.12210053774021457,0.06252360259349286,0.08333643602167982,0.07375178847821115,0.04200330835225973,0.0841342701679175,2.9141552661031795,0.07073725624680613,0.46891931284914296,0.09375,0.418951156843566,0.17275253115017547,0.0061185713098533545,1863.7742173700478,144.9738567727421,0.02444040370643038,0.03168895371710693,0.3052459893703254,Catherine,REC_0811_00000.csv
left,30,hard,30.24,0.9760000000000026,0.6080000000000005,0.6229508196721301,0.9760000000000026,0.04918032786885246,23321.0,1.488494626231982,39895.5461925263,0.0,0.0,0.1906988188976378,0.5182086614173228,0.10495762735380468,0.46644319512506455,0.22501695479893455,4064.0,2906.2419354838707,-101.9,301.9758064516129,0.10390594216008926,173.33333333333334,-11.224137931034482,162.10919540229887,0.9281386265219905,-0.5963124119649081,11138604.049661878,9641896.0,2882062.0,4774522.0,4720943.351972122,899158.4334644274,1697332.122922986,0.550833224703891,0.6042435561739303,0.6649726593560433,0.12847786364342917,-0.17612337658727817,0.42930595986463577,0.44,1.0,0.9543682446353956,0.9834237862578664,0.8162618464830144,12.0,0.04289114012968635,0.00639219196414417,2.7884055347793826,2.041383566575732,0.09787054559984905,0.07291314023764202,0.05398835654070494,0.11379844272894273,0.08211469195890936,0.11423132634429788,0.12081337721367248,0.06271817611703398,0.08338559385527258,0.07278549506901165,0.04223945123677069,0.08314140309789275,3.641405646009852,0.18612947458871493,0.5347316086055435,0.09836065573770492,0.48606531692068106,0.25188999209410207,0.008819280054540572,2085.4086729783535,58.23103594617871,0.02771281292110103,0.2723891802333349,0.15275576118667855,Catherine,REC_0811_00000.csv
left,31,hard,31.232,0.9759999999999991,0.6240000000000023,0.6393442622950849,0.9759999999999991,0.09836065573770492,22234.0,1.393657716929326,37370.23558930289,0.0,0.0,0.18736488109536392,0.5073264472736008,0.1068211748901218,0.4511696540489652,0.2367649817122916,4163.0,3049.564516129032,-108.1,323.69354838709677,0.10614418769469994,108.33333333333333,-11.89090909090909,96.44242424242424,0.8781738467949106,-0.7495708426371674,12091573.748347772,9783617.0,3904650.0,5936388.0,4731630.924692692,1024733.4074694039,1720033.2603281268,0.5575039365983804,0.6038897611234372,0.6445416774017899,0.1345926532856916,-0.17026184789650722,0.42376575804735706,0.4,1.0,0.9428246670245942,0.9849262648502312,0.7791196594347385,12.0,0.03807464152014046,0.004455471519455219,1.9679999152307635,1.8413884724241996,0.09861799410809582,0.06990421688977273,0.054032040534608326,0.11250152057670847,0.07970466433599721,0.11086194221279612,0.12156151327794026,0.05573508644809148,0.0781973100336907,0.08578697116986561,0.051086088442030324,0.08201065197040297,3.4218397574659423,0.16275128559495042,0.5284306594166641,0.09836065573770492,0.42697761955391805,0.18852186549460476,0.0029072869892680076,1943.8135198624384,66.15471834464489,0.027712812921102045,0.2600270958245124,0.13697876153543753,Catherine,REC_0811_00000.csv
left,32,hard,32.224,0.9920000000000044,0.6080000000000041,0.612903225806453,0.9920000000000044,0.16129032258064516,43153.0,3.218766553821932,48144.469765488124,0.0,0.0,0.18290639214747426,0.50993536030644,0.10275224426167824,0.46071063806912865,0.22302989288948208,4177.0,2952.8571428571427,-96.1,301.531746031746,0.10211525022845779,64.8,-12.365384615384615,52.434615384615384,1.0015874146158408,-0.34020322116958157,9380402.108483516,6982189.0,4078136.0,4754975.0,4794039.657260155,1312994.9603483493,1732392.9668991272,0.548094090115026,0.6093077916401021,0.6424286405416306,0.13743866196691723,-0.19711797636319273,0.4327941190421958,0.3,1.0,0.9510091580129367,0.9839217761272572,0.805142858631558,12.0,0.042592999515648385,0.005862084269607721,3.2765450408468637,2.0262202783067806,0.10229532871042306,0.07285384077836908,0.05672740955759824,0.11321292264688491,0.08254582594205236,0.11139601139601141,0.12076009245820567,0.05954953502123314,0.0807020373058109,0.07498790517658442,0.04320270924044509,0.08176638176638178,3.1056627696479455,0.09866489382394365,0.48665227413744844,0.0967741935483871,0.41019779571877507,0.10507553757420643,0.006310020723203207,11776.348854094522,0.0,0.009237604307036072,0.16547170716117238,0.201232940508831,Catherine,REC_0811_00000.csv
left,33,hard,33.232,0.9919999999999973,0.6080000000000041,0.6129032258064574,0.9919999999999973,0.12903225806451613,24398.0,1.5824590708676405,34422.16120466581,0.0,0.0,0.18164110056001948,0.509617725833942,0.11567691346158895,0.4506436415775127,0.25669265643373573,4107.0,3022.2380952380954,-105.80000000000001,347.1587301587302,0.11486809418017763,71.5,-11.333333333333334,60.166666666666664,0.5226474947645093,-1.4211463854972375,12165424.506496515,10432356.0,3982841.0,4827057.0,4869440.797994918,1179880.5126718073,1688664.4889586198,0.5376705343530097,0.6140003405680378,0.6362834228809717,0.19758299588756112,-0.15024680992816952,0.43108546460339286,0.34,1.0,0.9497885095865427,0.9868053217967824,0.7996598751336382,12.0,0.035532003901008004,0.004691594765987847,2.44900312652476,2.4060300323455124,0.09468437665768563,0.06885468038508201,0.05414362319525633,0.11004143885798919,0.07945861628878,0.11174836266616246,0.1202672254872611,0.0622318160093697,0.08054054337949905,0.08626005115519352,0.05344509745221926,0.07832416846550176,3.2927138236698643,0.11848792914872626,0.5002717659834985,0.0967741935483871,0.43977431299161723,0.14299774693946857,0.0023598113948546974,11503.894137783664,0.0,0.009237604307035054,0.16011393391062897,0.19393380392685447,Catherine,REC_0811_00000.csv
left,34,hard,34.24,0.9759999999999991,0.5919999999999987,0.6065573770491796,0.9759999999999991,0.04918032786885246,24828.0,1.619975051548544,39419.94998728436,156.25,0.05034977063180026,0.17675428020255607,0.5126597540390644,0.10018999297733693,0.4639748272914841,0.21593842399195814,4147.0,2962.7580645161293,-106.9,294.36290322580646,0.09935435051254553,182.0,-10.568965517241379,171.43103448275863,0.935721821837709,-0.47056173829969206,13883734.647872992,10222218.0,6894225.0,6382320.0,4795186.380151229,1607850.2646777935,2017539.2626180116,0.5629256666656066,0.6081296800248921,0.6617661714285258,0.13033222717960624,-0.15799536466458564,0.44168458906348684,0.32,1.0,0.9419416478829948,0.981382134084689,0.7775333229312079,12.0,0.03959447552799162,0.0057711112778241905,2.7760457952238227,2.798882967438587,0.10021721260159724,0.06970945773064548,0.0534702298969465,0.11643466473588797,0.08002569532530172,0.11498658072523966,0.1228966035352848,0.05973074347681704,0.08281842877440919,0.07427691068152495,0.04045924950051989,0.08497422301582548,3.564191216414579,0.16782476050134,0.5170902238985897,0.09836065573770492,0.465671816095728,0.2573028848382976,0.010762682421834547,10706.232997651416,90.21097956087903,0.00923760430703503,0.12621859696974147,0.1963858794644824,Catherine,REC_0811_00000.csv
left,35,hard,35.232,0.9759999999999991,0.6080000000000041,0.622950819672136,0.9759999999999991,0.09836065573770492,22957.0,1.4567369123532639,40426.94915523555,218.75,0.07048967888452036,0.17414375301495416,0.49421128798842257,0.10679343857998151,0.45061357822378706,0.23699560719154694,4146.0,2982.2419354838707,-104.4,316.46774193548384,0.10611739382041006,98.66666666666667,-10.945454545454545,87.72121212121212,0.6639432460513265,-1.0251501864788635,12074953.543669889,9853256.0,4162435.0,5602855.0,4862782.919175722,1204988.5323952439,1672050.5423043252,0.5511381379720788,0.6081333704910074,0.6407930816281336,0.14670513444124678,-0.18309742406521146,0.42915699325459744,0.44,1.0,0.9451010293519148,0.9845648445027393,0.7871559944701539,12.0,0.04073028103951683,0.005331635926919235,1.7283872772214925,1.8528736186173518,0.10221255928912541,0.06971373560700707,0.05450002433761135,0.1124776229184582,0.07923785417984955,0.11002763670977128,0.12166101493247665,0.05968663973304345,0.07915672880870098,0.08287227080730562,0.04710679884693806,0.08134711382971244,3.163259941658724,0.1208235473737403,0.48505528587273583,0.09836065573770492,0.4172248405249875,0.20098303280374033,0.003687023605429315,979.9678566157233,112.67347735824967,0.00923760430703297,0.26161765595129793,0.2712104217476402,Catherine,REC_0811_00000.csv
left,36,hard,36.224,1.0080000000000027,0.6240000000000023,0.6190476190476197,1.0080000000000027,0.047619047619047616,27987.0,1.8955866398531351,43104.8797005629,164.0625,0.05286725916339027,0.18426245683275777,0.5111001480019733,0.1000938907702208,0.45587133799622326,0.21956609777247263,4054.0,2962.21875,-98.0,294.484375,0.09941344642423859,202.0,-10.5,191.5,0.963282978522261,-0.4438291967351242,13121789.222345099,10869736.0,4638910.0,5701816.0,4953210.724168515,1532226.1675185238,1720121.1481262485,0.5396752562493852,0.6080603501486632,0.6572775896443647,0.1642108880137252,-0.19227865213237094,0.43753604136475466,0.46,1.0,0.9375856209740615,0.9818892006465139,0.7614291883678548,12.0,0.04265627696896739,0.0068364978833487505,0.9825791892723692,1.6408515252976343,0.10427150256880928,0.06877762656792312,0.05437225053011362,0.11522718401536011,0.07927967845048581,0.11206232659218703,0.12427867624563513,0.057173149349621796,0.08052452237026722,0.07877330126277811,0.042920741420599005,0.08233904062621979,3.174820642389007,0.12313727113747244,0.50441768906648,0.09523809523809523,0.4076294136811647,0.1610884857759274,0.008350423591096069,2542.3356059602656,34.053897996411514,0.018475208614070107,0.19181454657622027,0.09689988074125218,Catherine,REC_0811_00000.csv
left,37,hard,37.248,0.9920000000000044,0.5920000000000059,0.5967741935483903,0.9920000000000044,0.12903225806451613,26001.0,1.7223151569873807,40049.502880809894,290.17857142857144,0.09350671688762906,0.18756169792694966,0.513573543928924,0.11080863402061855,0.4540539089347079,0.24404290292426506,4052.0,2956.190476190476,-107.4,324.74603174603175,0.10985287800687285,65.0,-11.925925925925926,53.074074074074076,0.6433960008256382,-1.1523719109459947,12602119.607637797,10971139.0,3933972.0,4792848.0,4997746.169151021,1140745.389006042,1534494.3225625379,0.5349377395619317,0.6112572832069941,0.6525289948451402,0.15887794550804646,-0.1543492268040717,0.4321230891933474,0.4,1.0,0.94633473190374,0.9832257756498627,0.7915565908895825,12.0,0.03810527181560478,0.005757709361337836,1.3299074443372252,1.5716067321169476,0.09572057560137458,0.06514712199312715,0.05183634020618557,0.11510416666666666,0.07738939003436426,0.11384772336769759,0.1258483676975945,0.06299398625429553,0.08256550687285223,0.08237220790378007,0.04781464776632303,0.07935996563573884,3.157413568275627,0.0998406936127442,0.4753696666619462,0.0967741935483871,0.45006572415456486,0.15645662875856942,0.0027112340843211727,2533.4769257550684,63.2429534219071,0.01600000000000182,0.2197351751157853,0.2034845411240593,Catherine,REC_0811_00000.csv
left,38,hard,38.256,0.9759999999999991,0.5919999999999987,0.6065573770491796,0.9759999999999991,0.08196721311475409,26901.0,1.8008369770171788,38920.488755923914,208.33333333333334,0.06713302750906702,0.20217230313502838,0.5223401629227351,0.10048103487502844,0.4619722429876166,0.2175044851723891,4051.0,2977.451612903226,-104.4,295.60483870967744,0.09928115621715908,98.8,-12.517857142857142,86.28214285714286,1.0773095964519517,-0.08679887990005453,12517402.888149323,10343170.0,4607145.0,5336518.0,4909321.150936445,1391437.8034516387,1704978.1472557334,0.5273053865406625,0.6098690334787237,0.6543947055206922,0.1836319017481891,-0.16813446866048587,0.4368646326798387,0.44,1.0,0.9431993094329402,0.981517609618537,0.7802222571914447,12.0,0.04213821406152083,0.006175795320421093,4.097954271542943,3.954062850140261,0.10247992979491014,0.07029176281947107,0.051608324936891256,0.11541586765040465,0.08241514176444459,0.11397492984908072,0.1229672484588466,0.0583254785971983,0.07987454090421556,0.07623427698508141,0.042155556277830145,0.08425694196162554,3.46896584832398,0.14935241196486748,0.5039183680688331,0.09836065573770492,0.4541523159523574,0.2260788031547658,0.0028230726902876264,994.4506020914365,63.98412974515703,0.01600000000000182,0.13593448136748937,0.22855384980495083,Catherine,REC_0811_00000.csv
left,39,hard,39.248,0.9600000000000009,0.6080000000000041,0.6333333333333371,0.9600000000000009,0.15,26240.0,1.743167062528627,41571.078997302924,93.75,0.030209862379080157,0.18745423480595558,0.5010983646570661,0.11205647589952848,0.44865457347347404,0.24976113590441526,4097.0,3021.1639344262294,-108.19999999999999,336.4754098360656,0.11137277457933378,70.66666666666667,-12.705882352941176,57.9607843137255,0.6287533707877556,-1.1617387711256275,13012520.884438226,10857518.0,4629136.0,5478239.0,5002195.995697885,1225039.8910704306,1743160.1895083406,0.5417690972401686,0.6064493225163502,0.6401506313382691,0.19184388841996947,-0.1752196697790701,0.42475812168845645,0.32,1.0,0.9470546612711063,0.9853615159226694,0.7938543575069673,12.0,0.03878072468056437,0.005655238994635116,3.265217045959448,2.9580068286555843,0.09847469491185137,0.06814223157940431,0.051668285483284594,0.11051543482861345,0.07822411295179905,0.1116712156317997,0.12121047690880185,0.060502140636276326,0.0801015784818575,0.08514251916805488,0.05155433526325214,0.08279297415500486,3.3892849692108697,0.14713731581485875,0.5099354972116977,0.1,0.43477258950408787,0.18347937354415314,0.0036742246450352624,466.1977405922877,98.66793378981964,0.01600000000000182,0.7078013641021046,0.3079678879989059,Catherine,REC_0811_00000.csv
