foot,step_id,surface,contact_time_sec,cycle_duration,stance_time_sec,stance_frac_true,stance_duration,time_to_peak_frac,impact_mag,impact_mag_norm,accel_mag_strike,loading_rate,loading_rate_norm,heel_pmax_ratio,fore_pmax_ratio,heel_mean_ratio,fore_mean_ratio,heel_fore_ratio,total_pmax,total_p_mean,midstance_diff,heel_impulse,heel_impulse_norm,rise_slope,fall_slope,slope_asym,heel_skew,heel_kurt,gyro_mag_strike,gyro_x_strike,gyro_y_strike,gyro_z_strike,gyro_x_std,gyro_y_std,gyro_z_std,gu_dip_depth,gu_load_first_frac,gu_push_peak,gu_load_slope,gu_unload_slope,gu_fore_early_frac,gu_fore_heel_toff,gu_stance_frac,gu_spatial_entropy_ff,gu_spatial_entropy_stance,gu_participation_ff,gu_active_sensors,gu_cop_wander,gu_press_jitter,orient_range_a,orient_range_b,pressure_01_mean_ratio,pressure_02_mean_ratio,pressure_03_mean_ratio,pressure_04_mean_ratio,pressure_05_mean_ratio,pressure_06_mean_ratio,pressure_07_mean_ratio,pressure_08_mean_ratio,pressure_09_mean_ratio,pressure_10_mean_ratio,pressure_11_mean_ratio,pressure_12_mean_ratio,accel_spec_centroid,accel_hf_frac,accel_spec_entropy,accel_zcr,accel_jerk_ratio,gyro_hf_frac,heel_ripple_frac,impact_mag_roll3_std,loading_rate_roll3_std,stance_duration_roll3_std,orient_rest_a_roll3_std,orient_rest_b_roll3_std,source_user,source_recording
right,1,loose,2.24,1.0719999999999996,0.6239999999999997,0.5820895522388059,1.0719999999999996,0.1044776119402985,13749.0,0.6816595853470494,33852.509065060454,1458.3333333333333,0.37722004346434235,0.2360363391655451,0.5072341857335128,0.13985984201921847,0.4381231018225779,0.3192249882221114,5944.0,4488.632352941177,-91.30000000000001,620.2941176470588,0.1381922307004295,106.42857142857143,-17.383333333333333,89.04523809523809,0.9703515884783434,-0.6593945850767575,10356892.633081846,8813563.0,2094046.0,5020090.0,4101297.6696549724,1504339.2458908889,1697130.381891051,0.48252272845178024,0.6043638088664892,0.7133030398317547,0.11907631409554487,-0.1440509682890092,0.40532974654350074,0.38,1.0,0.9910609688792575,0.9944435941461702,0.959100072011009,12.0,0.03379319199631764,0.0035732611686728586,3.1438552533995487,3.299346780743548,0.08206351338511993,0.08776091237013764,0.05862194366815517,0.10206174421004695,0.07738830444226756,0.09140410252041922,0.1094038207629076,0.06879142408764624,0.07950803827970658,0.09450998764853699,0.07106841793157224,0.07741779069348387,3.1055257762117408,0.1078733596329782,0.4860810026406147,0.08955223880597014,0.42628153682897363,0.20729869773933482,0.0005258359568038851,0.0,0.0,0.0,0.0,0.0,Catherine,REC_20260519_154549.csv
right,2,loose,3.328,1.0240000000000005,0.6080000000000001,0.5937499999999998,1.0240000000000005,0.109375,17487.0,1.018095490124028,33182.2850328304,745.8333333333333,0.1929211079431922,0.21702698173286408,0.4928774928774929,0.13588131859247732,0.44819141553988046,0.30317697724917736,5967.0,4567.107692307693,-104.89999999999998,611.3692307692307,0.13386354602475223,73.71428571428571,-15.368421052631579,58.34586466165413,0.8162368496779363,-0.9221640288833535,10441308.741044343,8892976.0,1459967.0,5272988.0,4265952.826007789,1362958.0747654613,1889707.8299032645,0.4666953221785236,0.6012627617611512,0.7227769131783556,0.14663413316897012,-0.1287064737975263,0.40577897776027944,0.4,1.0,0.9890988775667794,0.9946677787653193,0.9493042364391139,12.0,0.03219289691348946,0.003585852185307383,1.6755489733847564,0.9365045489978598,0.08299816076156598,0.09391232289750792,0.058232444704947074,0.09956141237342603,0.08461507367059441,0.09047975153438298,0.10636592086558737,0.0666606032432578,0.07962285506396911,0.09066839137376963,0.06922071534921949,0.07766234816177213,3.0620517671187937,0.09468318899024454,0.4732948497341105,0.09375,0.5204210651496763,0.13128545394118785,0.0006338900839847121,2643.165148075315,503.8135815954151,0.03394112549695368,1.662428943088824,1.2032294517545876,Catherine,REC_20260519_154549.csv
right,3,loose,4.368,1.024,0.6079999999999997,0.5937499999999997,1.024,0.125,14084.0,0.7118110107350344,33606.84410949651,607.8125,0.1572199252581741,0.21878138600602612,0.4998326079678607,0.15285657512470538,0.4379762100531711,0.3490065707132143,5974.0,4490.584615384615,-104.69999999999999,677.7153846153847,0.15091918818176836,75.625,-15.678571428571429,59.94642857142857,0.5370816129867135,-1.531331727092076,9813270.648258356,8170933.0,1718974.0,5155702.0,4154293.446516078,1388346.4438651097,1931257.8957605108,0.47019308385379954,0.597909222338399,0.7348709093897393,0.12876374443871064,-0.13229948697120975,0.38395710369349234,0.34,1.0,0.9885620291150965,0.9950966685568691,0.9468460715205077,12.0,0.03576738218271948,0.004168545302832055,1.4739516553544683,1.4122122048314623,0.07655333552595517,0.08971249246286248,0.05790919804856658,0.10051115496354768,0.07989708381296937,0.09025037000493341,0.10614002631146194,0.0734939428822014,0.0776051088088582,0.09558803376637615,0.07936263224250398,0.07297662116976375,3.2821906758492254,0.1322053274136989,0.5112980007347647,0.09375,0.5153147039487227,0.13965854991386678,0.0007523463197028359,2068.2229892671953,456.45220420982656,0.027712812921101677,1.4973292896892203,0.9532691783508273,Catherine,REC_20260519_154549.csv
right,4,loose,5.408,0.992,0.5759999999999996,0.5806451612903222,0.992,0.16129032258064516,18765.0,1.1331209278728185,33549.76154907811,1385.4166666666667,0.3583590412911252,0.21593220338983052,0.5005084745762712,0.14991009358761984,0.44162808478103893,0.3394487324370917,5900.0,4484.380952380952,-101.89999999999998,662.8095238095239,0.14780401817950134,46.5,-17.173076923076923,29.326923076923077,0.5747823857185463,-1.4922017497674473,10668387.417356618,8427496.0,2552194.0,6023131.0,4188580.920706172,1487424.514184272,2060528.2193958787,0.4600805451252423,0.5997066163120581,0.7240687253109713,0.1310080035921819,-0.12848223008352655,0.39464229565420395,0.32,1.0,0.984539685251035,0.9948516253372229,0.9309801301996924,12.0,0.03537551590250272,0.004393911967872009,1.4319538165774284,1.4247635945727097,0.07795664670319556,0.09091520480255987,0.05635079075167425,0.10134647241218196,0.08219711449970975,0.09140721233487661,0.10522943833269621,0.07235342423084003,0.07576208073171077,0.09432032168089595,0.0775566693567798,0.07460462416287927,3.6744123600887573,0.15602073228729663,0.5322095745534466,0.0967741935483871,0.4948327431544116,0.1577505952842111,0.0009725423934125756,2419.5541600330694,414.8864966729187,0.018475208614068137,2.933915344523239,1.843928377182941,Catherine,REC_20260519_154549.csv
right,5,loose,6.416,1.008,0.5919999999999996,0.587301587301587,1.008,0.1111111111111111,17702.0,1.037446404925272,34949.23693015343,843.75,0.21824873943294093,0.22255994596420128,0.49915569064505233,0.15111194446999554,0.43313828018311884,0.3488769092540854,5922.0,4416.53125,-55.5,658.421875,0.1490812218299146,91.57142857142857,-15.125,76.44642857142857,0.5862985825865942,-1.4673378469458955,11297854.151922125,8965058.0,2834414.0,6263812.0,4397685.506640662,1440253.3697884928,2232413.7036983445,0.4790413378779399,0.5983785747894684,0.7321518281050758,0.12242962974940208,-0.14594517554274866,0.38368115537069586,0.38,1.0,0.9896208796544567,0.9949403435579762,0.951041575627738,12.0,0.03578094845544371,0.003986092568384734,1.2227396563285633,1.2217631724094957,0.08128904895668972,0.08828336717871067,0.05650291164587593,0.09976013415505663,0.07786795349857425,0.08979756454796962,0.1077132081879869,0.07379589468545027,0.07742926080280764,0.09551825881453913,0.07731604978454529,0.07472634774179397,3.084820279318739,0.11071437323235629,0.47988314772476426,0.09523809523809523,0.4466741150774832,0.14618590200504036,0.0007476893726801898,2453.9646153384797,398.6931823055144,0.01599999999999996,2.84970613265794,1.6317001238402544,Catherine,REC_20260519_154549.csv
right,6,loose,7.44,0.96,0.5599999999999996,0.5833333333333329,0.96,0.1,19913.0,1.236445812485973,39492.38506345242,1171.875,0.30312324921241796,0.23378582202111614,0.5114798055974527,0.1434023402340234,0.4545058505850585,0.3155126387248057,5967.0,4553.2786885245905,-95.30000000000001,642.155737704918,0.141031503150315,87.83333333333333,-17.51851851851852,70.31481481481481,0.8685756509180865,-0.9147327583724123,11258684.334195582,9348681.0,1776396.0,6017022.0,4752523.159967458,1428637.2959466209,2051564.9950230082,0.4729006200321849,0.6001816214598387,0.7379297929791357,0.17813582174540077,-0.14546593434850486,0.4062589110698833,0.42,1.0,0.9880730208186225,0.9931048316536565,0.944169177247714,12.0,0.03525788380320534,0.004532949748217183,6.263712015474487,6.151292976204118,0.0792079207920792,0.0915139513951395,0.04767596759675967,0.10310351035103509,0.08529252925292528,0.092993699369937,0.10540414041404139,0.07072907290729072,0.0816021602160216,0.09076867686768676,0.07267326732673267,0.07903510351035103,3.8562437066099826,0.17636041515039338,0.5208034324366302,0.1,0.5353025867202434,0.23215131178192797,0.0005356740658721467,1105.7722791485307,272.84575520659894,0.024440403706431146,0.4631872356073142,0.4721096769615328,Catherine,REC_20260519_154549.csv
right,7,loose,8.416,1.0239999999999991,0.6079999999999988,0.5937499999999993,1.0239999999999991,0.171875,17200.0,0.9922642689707395,34625.921850544284,679.6875,0.17581148454320242,0.21185584371842373,0.49663186257999326,0.1575831519403275,0.4287368114575679,0.36755218523110345,5938.0,4438.584615384615,-80.5,687.1076923076923,0.1548033330098299,34.90909090909091,-9.962264150943396,24.94682675814751,0.5662281994965497,-1.5117488184547025,10411962.209439391,8701164.0,1699427.0,5459913.0,4427369.595833328,1399813.0584467,2074671.9531891344,0.45852350604684633,0.5876197989486865,0.7514484088863101,0.07889534701119238,-0.1480891273696877,0.3746563811016415,0.34,1.0,0.9932048167318982,0.9957705202513699,0.9667170256263128,12.0,0.036627564029696344,0.004034972334234011,1.2108318357167658,1.6711020062272866,0.08217449776089399,0.08690920182455947,0.05801572226766676,0.09887420799423241,0.08004630720811902,0.08680868468118735,0.10437838812095333,0.07521801821786572,0.07609840974946969,0.09542196403565933,0.08236513372246178,0.07368946441693125,3.28529775322173,0.10903165290532287,0.5073750459455868,0.09375,0.39270819039267224,0.24888740626587114,0.0012307881360051154,1443.427287165286,250.60960831789737,0.033306655991457775,0.5749408013551714,0.6222807089052951,Catherine,REC_20260519_154549.csv
right,8,loose,9.456,0.9920000000000009,0.5600000000000005,0.5645161290322581,0.9920000000000009,0.08064516129032258,15194.0,0.8117157336623876,33423.44659067942,500.0,0.12933258633063166,0.2159339733872326,0.4926730672056594,0.14489603224374467,0.44225227066143363,0.3276320820851074,5937.0,4505.3650793650795,-102.30000000000001,641.563492063492,0.14239989007814316,50.2,-15.719298245614034,34.48070175438597,0.6689403526024771,-1.3250357163535296,10065860.655125223,8477587.0,1541823.0,5203350.0,4183127.009441393,1705662.3881292115,1855727.7883235507,0.4569569676958335,0.60406999206539,0.7331440570223037,0.12893018452172567,-0.1294692243965836,0.40123693090620904,0.38,1.0,0.9924030901229939,0.9953257286900177,0.9637715877637473,12.0,0.03144440560212037,0.003911431857055975,1.9360620381193918,1.735871297287261,0.08606670001902493,0.09424742282569634,0.05783228461305392,0.10004650540096816,0.0852281935470233,0.08750413968531345,0.10191024457613146,0.06981094849879156,0.07522600920243237,0.09212649469063339,0.0750850837449531,0.07491597319597798,3.3667607843652814,0.1058279258027542,0.4686069439335626,0.0967741935483871,0.5376205818697887,0.18116017522635428,0.0006601365303283409,2368.3104385475604,347.83907879877904,0.031999999999999564,2.3289710553026346,1.60927036687047,Catherine,REC_20260519_154549.csv
right,9,loose,10.464,0.9439999999999991,0.5919999999999987,0.6271186440677959,0.9439999999999991,0.06779661016949153,17372.0,1.0077450008117348,36129.03213483583,929.6875,0.24047777770851825,0.20096308186195827,0.48154093097913325,0.14170967979958046,0.4420754524723914,0.32055541425558565,6230.0,4743.383333333333,-93.30000000000001,662.8583333333333,0.13974378344571212,127.75,-15.89090909090909,111.85909090909091,0.4418418187357591,-1.4769321402388431,11135709.795955442,9320581.0,1739744.0,5839871.0,4384687.556168889,1576352.8287115812,2057889.373916939,0.4699321560198009,0.5970422680418938,0.7064577674864903,0.18654126654188985,-0.1122207683929266,0.40579667516871193,0.46,1.0,0.9856373433095924,0.9950911153308297,0.9366653642612723,12.0,0.0340000434805774,0.004250134544719392,1.4839784920815102,2.4371685257643634,0.07772230088930897,0.08587752061643764,0.060997248799204505,0.10159766411457365,0.08212141122897511,0.09119018422152965,0.10744089134689375,0.06707237801428656,0.08128867229087536,0.09424707399430084,0.0746373017852939,0.07580735269832012,4.280695794772466,0.21915150448043022,0.5892396160048766,0.13559322033898305,0.587755598811012,0.3044124673367959,0.00111330123713457,1210.8746150338366,215.80042682707983,0.04026578365477747,2.3546539887569105,1.6575880570028618,Catherine,REC_20260519_154549.csv
left,1,loose,1.68,1.0560000000000003,0.6559999999999999,0.621212121212121,1.0560000000000003,0.15151515151515152,18056.0,1.0693079111561579,32545.831130883722,468.75,0.12124929968496719,0.21654611211573238,0.5411392405063291,0.11806515207968796,0.4529187320482769,0.26067623996399636,4424.0,3164.582089552239,-106.6,371.17910447761193,0.1172916656840874,78.8,-14.285714285714286,64.5142857142857,1.0193935825395901,-0.6072588239553567,10738787.894032594,9316916.0,3308446.0,4191757.0,4477482.928924078,819519.9402441108,1134454.7798813658,0.5392066358536207,0.6023896861428187,0.6774986204585011,0.13107446943362622,-0.21212460138156308,0.406400331476472,0.36,1.0,0.9622003297051906,0.9840956737370731,0.8456258430521122,12.0,0.0382840946570529,0.005749069175927241,1.3309780897559125,1.1960652319899339,0.08909714328835479,0.0598603008107458,0.055813646375225796,0.11503251944327846,0.06776023808288567,0.1172916656840874,0.12352672065350168,0.06346833186339475,0.09297400802727954,0.08348936692025072,0.05459682021629321,0.07708923863470218,3.056831388111491,0.11089600443666477,0.48179882922216205,0.09090909090909091,0.4318927155559378,0.19713969066808792,0.0021748649955821158,0.0,0.0,0.0,0.0,0.0,Catherine,REC_20260519_154549.csv
left,2,loose,2.752,1.056,0.6720000000000002,0.6363636363636365,1.056,0.13636363636363635,35572.0,2.6458224398007695,39497.67255168335,208.33333333333334,0.053888577637763196,0.20337103570636506,0.538035041029053,0.11419493631983801,0.45497193372562844,0.25099336432613323,4509.0,3302.417910447761,-115.0,373.82089552238807,0.11319612043640571,71.55555555555556,-13.12280701754386,58.432748538011694,0.9352898220428597,-0.6156826526267283,6986564.246358936,6566801.0,1286482.0,2008524.0,4390242.168808273,885201.0198006335,1169143.5514589408,0.5438027904591718,0.6051924888252308,0.6495240936082856,0.11095766234467219,-0.16912778073233048,0.4104941529961923,0.4,1.0,0.9565931728317201,0.9883724927357255,0.8200345398988405,12.0,0.0359594622580929,0.0044759823983242936,2.127542971617107,2.1111774814996807,0.0985392882645913,0.07445019931122379,0.0582070125010169,0.11127080113169002,0.07766810387685187,0.10904267339172564,0.11405935045330874,0.059454402473086206,0.08254015601413708,0.08408131536368649,0.054740533846751815,0.07594616337193011,2.9643447060644035,0.10312099378689908,0.469494891173874,0.09090909090909091,0.4871126228894266,0.10737213587853975,0.0017008074220335617,12385.682379263566,184.14239093399672,0.0,1.2465062718089686,1.2012174643656157,Catherine,REC_20260519_154549.csv
left,3,loose,3.824,1.024,0.6400000000000006,0.6250000000000006,1.024,0.171875,35041.0,2.5980301804544412,39341.423131351,213.54166666666669,0.055235792078707276,0.19498112369531423,0.524983344437042,0.11437106932986911,0.45237235434536904,0.2528250637581493,4503.0,3280.4153846153845,-121.6,372.0153846153846,0.11340496278613872,57.09090909090909,-13.50943396226415,43.58147512864494,0.8963955909407864,-0.7937073465934072,7258187.468538616,6637661.0,1886351.0,2250427.0,4343304.365625649,778880.9183229494,1423576.5139412994,0.5462425251730924,0.6097631408798434,0.6572338399919208,0.11438322462318218,-0.17061054889949634,0.41909752139661804,0.32,1.0,0.9553867900667437,0.9887733107189198,0.8168597398488876,12.0,0.03477171096068528,0.004761716139840406,1.6701520263149066,2.012137719878737,0.09880549836559162,0.0764255933817012,0.06055049313642269,0.11018304436117378,0.07677733120102051,0.10790847312957552,0.11569829336810067,0.05824778287927889,0.08107791227189802,0.08311330178635913,0.05612328645059022,0.07508898966828778,3.057626219752311,0.09104503444421419,0.4682485709868509,0.09375,0.41595142178202077,0.166615014450049,0.001350638980047441,9963.119006281786,148.87089508287968,0.018475208614068074,0.95316712944716,0.8931150633523859,Catherine,REC_20260519_154549.csv
left,4,loose,4.864,0.992,0.6240000000000006,0.6290322580645167,0.992,0.08064516129032258,20191.0,1.2614669953452562,35493.3303875531,218.75,0.05658300651965135,0.19775533108866442,0.5407407407407407,0.108765313944796,0.45831607315458933,0.23731507646261063,4455.0,3333.6666666666665,-120.4,359.1190476190476,0.10772494179153513,122.0,-12.543859649122806,109.45614035087719,1.0026630234863374,-0.6320379845899078,10459239.356363587,9476963.0,2344500.0,3753156.0,4646809.82854625,638606.3414253413,1208962.2299094626,0.5292558196394721,0.6022205974711333,0.6518348165181527,0.10560168472945453,-0.18085130262478566,0.41513830503558313,0.44,1.0,0.9596125457266718,0.9874903538801888,0.8329077363491985,12.0,0.0380107423062725,0.004895646031478887,2.3814417064406044,2.301345856637653,0.09773784526309273,0.07217373500745164,0.05988448774170202,0.11123649539807924,0.07783031220687456,0.1125887411258874,0.11325534113255341,0.05599440055994401,0.08448678941629648,0.08176801367482299,0.05277091338485199,0.08027292508844354,3.274186883881705,0.10153569117878511,0.49057931345804484,0.0967741935483871,0.4514256915948484,0.13843259425431206,0.002399730083885527,8730.975718669708,5.208333333332599,0.03200000000000001,2.095299499167168,1.7308257237410514,Catherine,REC_20260519_154549.csv
left,5,loose,5.872,1.008,0.6399999999999997,0.6349206349206346,1.008,0.12698412698412698,37104.0,2.783708958291495,43409.743019280824,742.1875,0.19197805783453137,0.20908273381294964,0.5287769784172662,0.11721903218889233,0.45575754687760595,0.25719603107371725,4448.0,3278.984375,-117.4,381.421875,0.1163231755259584,91.0,-13.745454545454546,77.25454545454545,0.9566625132372772,-0.7160209263627539,7600625.280736447,7128797.0,1025031.0,2428800.0,4639930.188387963,589364.4164319489,1245344.2462653343,0.5285714289211587,0.5975564204931529,0.6745991279691064,0.1189392675894898,-0.17792965891409462,0.40911901109702903,0.4,1.0,0.9574191214533512,0.9872855878392899,0.821413981506273,12.0,0.037929860092626055,0.004605605241668385,1.0249476051649216,1.8169634518118443,0.092392366157585,0.06891901551070978,0.05576707726763718,0.11325915513092373,0.07597150413380667,0.1116485192156489,0.11848180886802792,0.061166043220318794,0.08595935288651688,0.08318600938743419,0.05605298896857354,0.07719615925281742,3.024515308336524,0.08316132026724292,0.47558965586253144,0.09523809523809523,0.4529810275031332,0.17038370022263524,0.0023014588307013304,9227.0258660813,303.7214623749463,0.015999999999999976,1.3795092917134277,1.0524934191451978,Catherine,REC_20260519_154549.csv
left,6,loose,6.896,0.992,0.6239999999999997,0.6290322580645158,0.992,0.14516129032258066,20851.0,1.320869803572331,36714.33617811985,187.5,0.04849971987398687,0.20999115826702033,0.5185676392572944,0.11855735839431812,0.45354529223645745,0.26140136481105186,4524.0,3236.126984126984,-112.5,380.03968253968253,0.11743657909709823,73.77777777777777,-14.69811320754717,59.079664570230605,0.9956743429248357,-0.5942293262738785,11418901.013050819,9633344.0,3540574.0,5005429.0,4726733.0634770775,843527.9283226632,1524572.9082722303,0.5494211048866579,0.600477388144328,0.6708636622258517,0.09607100114071976,-0.17913829975077444,0.40772451511118973,0.34,1.0,0.9586652876139385,0.986745904468238,0.8293216600553457,12.0,0.037531359085494376,0.0053828359705889745,1.4637134145343391,1.3893799934576947,0.09175184916321687,0.06600580745158822,0.05683847044281818,0.11405952637877925,0.07388314465655595,0.11352488767682317,0.11944024799387863,0.06391139712374189,0.08607192607271086,0.0831976299319194,0.054645961270576235,0.07666915183739136,3.207226926327048,0.10985459588949094,0.4940704099550387,0.0967741935483871,0.45876032189617105,0.13895719503166787,0.0026427832405561866,9579.884985391702,311.61985429967393,0.009237604307033949,1.4224718408175283,1.1843631625860902,Catherine,REC_20260519_154549.csv
left,7,loose,7.904,0.9920000000000009,0.6080000000000005,0.6129032258064516,0.9920000000000009,0.16129032258064516,41627.0,3.190798203156737,44568.06226436146,179.6875,0.04647889821257075,0.21489266547406083,0.5444991055456172,0.11673149875397067,0.4559358716662087,0.25602613439319866,4472.0,3293.0,-129.1,380.77777777777777,0.11563248641900327,65.8,-15.538461538461538,50.26153846153846,0.9906525641021093,-0.6936977878622539,7164617.728644425,6785491.0,1187522.0,1969429.0,4622921.613710486,742835.2651001823,1426643.1996054882,0.5353632247815374,0.6107917563443009,0.6507743698752958,0.11183896577151597,-0.1897903406731083,0.4147796041661137,0.34,1.0,0.9560842364252115,0.9880088651519789,0.8198940804225604,12.0,0.0361203096058644,0.004431094319429038,1.6190795977468886,1.8923187112246893,0.09608645563701744,0.07274690420757836,0.05615567413320222,0.11226314597101114,0.07675733518430147,0.11021454841679561,0.11578191353472252,0.06106748803378017,0.08395393788652215,0.08304773473312799,0.05566401072019049,0.07626085154175041,3.3595136373250187,0.11608527652448479,0.5020030597774752,0.0967741935483871,0.4319236130403854,0.16607526520364244,0.0027503242534742183,10925.960781551434,322.527907787967,0.009237604307033702,1.0825376897780947,0.6684534845843452,Catherine,REC_20260519_154549.csv
left,8,loose,8.912,0.9759999999999991,0.6079999999999988,0.6229508196721305,0.9759999999999991,0.13114754098360656,25690.0,1.7564003929826573,38948.0037999382,437.5,0.1131660130393027,0.19049685398134086,0.5667172922542851,0.10564794613572986,0.4828664037026869,0.21879332528737008,4609.0,3348.9193548387098,-136.5,351.36290322580646,0.10491829333487451,88.75,-14.018867924528301,74.73113207547169,1.0883878450622562,-0.42024524928035767,7350431.0770252105,7038389.0,1053131.0,1838704.0,4588371.593497306,727769.9816167878,1468300.799070958,0.5565273315124628,0.6020136894427707,0.651041569912653,0.11687595961355723,-0.17740721290316874,0.4205756898462413,0.38,1.0,0.9524236638186588,0.9837979775335974,0.8098361266143043,12.0,0.041085085077990434,0.005012269435149924,8.311285054245012,71.95817498679006,0.09718108393174495,0.07572977320560798,0.05102753415882831,0.12140170396805902,0.08724046755573536,0.11677816146758944,0.11092167430032797,0.05456743388575034,0.08171629750569515,0.07987651288571662,0.05108051224997953,0.0724788448849653,3.2225718729124444,0.14700699985650775,0.48174202245756925,0.09836065573770492,0.5017115600869039,0.23959706175234338,0.0025128501264874837,10870.802377622977,146.64487734688635,0.009237604307034806,0.4608915658508369,3.913945533359915,Catherine,REC_20260519_154549.csv
left,9,loose,9.904,1.008000000000001,0.6400000000000006,0.6349206349206349,1.008000000000001,0.15873015873015872,17362.0,1.0068449582628396,34753.98342636423,687.5,0.17783230620461854,0.219181180728342,0.5462565030536077,0.10861879174596067,0.46951378782790404,0.23134313530682687,4421.0,3349.875,-122.19999999999999,361.4296875,0.10789348483152357,81.1,-15.39622641509434,65.70377358490566,1.0833628348067774,-0.44753694649734754,11236099.018549277,9836152.0,3125186.0,4442212.0,4640317.2832439365,1013575.3172297126,1194185.2297175776,0.49870432792676034,0.5950829993618783,0.6567409231685789,0.11910892197466505,-0.15642374715469853,0.41708323406067266,0.4,1.0,0.9618163362466833,0.9833894762098189,0.8479307170519618,12.0,0.039313306949616746,0.004905782250670529,1.0760896309958188,1.2008231120888126,0.08981678420836599,0.0659259673868428,0.05163438934288593,0.11785421097802157,0.07463431471323557,0.12175827456248367,0.11558733534833389,0.057590768312250455,0.08934102018732042,0.08121571700436583,0.05102802343371021,0.08361319452218366,3.152897118419268,0.0862341060543919,0.484366393125949,0.09523809523809523,0.439166046720674,0.1707684997556782,0.002444383845979485,12329.732208500449,253.91626582809408,0.016000000000000902,2.0224802998600246,3.507361796546402,Catherine,REC_20260519_154549.csv
right,278,loose,286.56,1.024000000000001,0.6240000000000236,0.6093750000000225,1.024000000000001,0.046875,14371.0,0.7639193763289862,36710.45799223976,0.0,0.0,0.23519422627892167,0.48015283379324986,0.1562740122585372,0.40448705348367614,0.3863510856837146,4711.0,3443.753846153846,-43.69999999999999,531.1,0.15422124336591556,159.66666666666666,-13.40983606557377,146.25683060109287,0.730628418643012,-1.174154373435727,11097807.574635496,8808676.0,1944994.0,6464175.0,4536704.397182346,1507972.6995510133,2071672.7229584216,0.48296402021667173,0.5884026005370444,0.7731299932275665,0.22577996191947836,-0.15564410929035333,0.3833336509920532,0.48,1.0,0.9687257531485033,0.967803733394112,0.8624459011395985,12.0,0.0747282455068412,0.009035618887297165,1.6502323518077198,1.351100813518542,0.10205768302925251,0.09449884741159022,0.04914136630867926,0.12757098693733138,0.09382873787101732,0.051379532174192735,0.13292292846804024,0.0731357552581262,0.03720894908954451,0.11751040903486357,0.08313825700041101,0.03760654741695109,3.4468077268919,0.1507410583433865,0.524188857381641,0.09375,0.488096018442909,0.14337313162405416,0.001797303487271837,2039.636242078588,266.71210007928954,0.03330665599146693,0.2999716430611389,0.9768390955103508,Catherine,REC_20260811_193525.csv
right,279,loose,287.6,1.024000000000001,0.6080000000000041,0.5937500000000034,1.024000000000001,0.0625,14970.0,0.8188549642020405,32887.125596500526,367.1875,0.11503163862890675,0.22561228725612287,0.4821502698215027,0.14823493942882202,0.4112673354163241,0.36043450734704574,4818.0,3367.9384615384615,-32.5,493.9846153846154,0.14667269637669242,183.25,-12.616666666666667,170.63333333333333,1.0366823217104293,-0.6285166278538341,10374461.558674455,8225911.0,1075122.0,6229603.0,4495307.4954948835,1460798.0817816646,1987155.3107337884,0.5294379982918517,0.6016958975153812,0.7558248042952265,0.2216216750362262,-0.24485395758910333,0.40590278737164914,0.5,1.0,0.9558010382436847,0.9658535160182738,0.8181855995992139,12.0,0.09396256912682638,0.011550509717318564,6.731261853746922,5.358896176427024,0.10894589705640519,0.09669919055710866,0.045222825193224805,0.13121014453032212,0.09854921522410422,0.0496400445833105,0.13069396480841966,0.07076230152204498,0.03516874052147856,0.11444572347384385,0.07747263790677703,0.0411893146229604,2.9642978033686265,0.09670368749051496,0.4858150354065841,0.09375,0.5002739257994463,0.14528737220429153,0.002806768883015413,874.7291009223416,272.02013606916046,0.027712812921103024,0.6825741896959422,1.3600763110269658,Catherine,REC_20260811_193525.csv
right,280,loose,288.64,1.0080000000000382,0.6080000000000041,0.6031746031745844,1.0080000000000382,0.047619047619047616,11007.0,0.45539964743924566,33339.728418210005,312.5,0.09789926691821851,0.23676820047526465,0.48433786995031325,0.16762328048098815,0.3959290515208115,0.42336696394721146,4629.0,3438.234375,-16.900000000000006,568.4140625,0.16532149949783456,132.66666666666666,-13.016666666666667,119.64999999999999,0.5940189040611362,-1.4853579619537502,10776139.994179595,8425053.0,1123992.0,6624222.0,4436464.320077693,1411187.6587440772,2173935.7632909208,0.5164183789129269,0.5804752696387336,0.7928488004833024,0.1573066533188232,-0.1765025523767464,0.3591458384317201,0.5,1.0,0.9673928251813138,0.9683884250650696,0.8614250037169066,12.0,0.05799330774011297,0.008438694786411466,2.169282344712217,1.9362142443009276,0.10377328479824764,0.09035796897935441,0.045576626811544806,0.12475516594182152,0.09262566633491935,0.05068917094984254,0.13062209437074807,0.07872409076242802,0.03750107931487364,0.11773393865855931,0.08889918971856013,0.038741723359100554,3.797099511930946,0.14654533123862315,0.5317149626987645,0.09523809523809523,0.6112027946918893,0.13401230370263895,0.0010461398926388033,2136.221976605841,198.1050364547841,0.009237604307012452,0.6809943830765349,0.6168496833632192,Catherine,REC_20260811_193525.csv
right,281,loose,289.664,1.024000000000001,0.6240000000000236,0.6093750000000225,1.024000000000001,0.0625,13917.0,0.7222820526322139,32594.710935978554,406.25,0.12726904699368408,0.22346368715083798,0.4858266087316367,0.15952002121453193,0.40575886148678514,0.39313995664790746,4833.0,3480.923076923077,-34.30000000000001,549.7538461538461,0.15793335101210992,166.0,-12.966666666666667,153.03333333333333,0.6651816070126029,-1.3590708909586213,10724623.962353831,8411614.0,1894903.0,6377433.0,4088354.2599537354,1385415.5629575911,2234324.7950340277,0.5158318797574479,0.5855685117556523,0.785711128789662,0.15625107109930458,-0.21031249943620334,0.379367834970701,0.5,1.0,0.9584766842554489,0.9709350190588523,0.83264950564247,12.0,0.07689915163352862,0.00937818564189533,0.917930202381938,0.7425470438426771,0.09962432599664103,0.09297268629010871,0.04693273225492796,0.12609829399805533,0.09273844249977901,0.05475559091310881,0.13061964112083443,0.07521435516662248,0.039193847785733225,0.1161893396976929,0.08430566604790948,0.04135507822858658,3.358047990020963,0.12834340630623667,0.5096417408800368,0.09375,0.4316720773869956,0.08779171710962759,0.0018863668506135113,2052.7330561961626,47.09151385424419,0.009237604307012452,0.4690771550924291,0.4160198053786917,Catherine,REC_20260811_193525.csv
right,282,loose,290.704,1.024000000000001,0.6399999999999864,0.6249999999999861,1.024000000000001,0.09375,15558.0,0.872781718241032,34585.75518909483,0.0,0.0,0.22213230831478858,0.4744082540967024,0.16137012537906328,0.3982026636400716,0.4052462228751089,4943.0,3470.0923076923077,-26.400000000000006,555.0692307692308,0.15995805919594247,132.0,-13.224137931034482,118.77586206896552,0.672646799637959,-1.366186557303434,10648702.45463418,8708494.0,1014036.0,6043900.0,4282763.381651285,1499645.3428429018,2170796.3865014794,0.5400418263977659,0.60118339542946,0.7332746182583071,0.16997136509105826,-0.2301650235010433,0.3880917627258201,0.48,1.0,0.9549074694784355,0.9714067432689576,0.8207106527674188,12.0,0.07869704527225299,0.009955124235835602,1.4715313735926197,1.4118748060365363,0.0983569490503467,0.09264661547464931,0.049703842948092714,0.12353029846246608,0.09237617265778787,0.05187625246058628,0.13318200358225896,0.0774397488871943,0.037773324584582095,0.11560322048626505,0.08393037649186898,0.043581194913901646,2.6221223386398727,0.06373340464538442,0.4377442407626905,0.09375,0.4717303994010938,0.09758261941517005,0.001229099727978923,2304.7986896908005,212.714352673567,0.009237604307012452,0.22838311106618,0.346537879351587,Catherine,REC_20260811_193525.csv
right,283,loose,291.744,1.0399999999999636,0.6239999999999668,0.5999999999999891,1.0399999999999636,0.046153846153846156,11572.0,0.5072170216433787,33061.831301366234,338.54166666666663,0.10605753916140338,0.21640763328742868,0.4538658272673618,0.1673990674196522,0.39587677767535107,0.4228564969193702,5083.0,3385.848484848485,-21.80000000000001,560.1818181818181,0.16544798761332818,185.0,-12.46774193548387,172.53225806451613,0.6300461914602083,-1.4233110283627524,10865344.942492392,8530122.0,763581.0,6686530.0,4246540.195435203,1383441.4093996144,2324609.0862029833,0.5448929012014523,0.6114962547306615,0.6704375609710459,0.18992616691717745,-0.16086764420350796,0.4048370629997089,0.5,1.0,0.96942803271592,0.9640837529879612,0.8699298541160796,12.0,0.07617237061651992,0.011645872190235208,2.486336263780856,2.8712402144349056,0.10013156363831634,0.0934504577877619,0.04594882442966715,0.12822084791422408,0.09512409046566367,0.04671404150967037,0.13445893335003983,0.08000769692033687,0.03236733999803102,0.11874289601102629,0.08739137049931532,0.037441937475947124,3.7472335750734276,0.1699850018655573,0.5507074561915615,0.09230769230769231,0.4575647944944593,0.1513343190541914,0.0017534100875626958,2003.3348031055007,217.65184009185785,0.009237604307012452,0.40569546498987824,0.4651685323670644,Catherine,REC_20260811_193525.csv
right,284,loose,292.8,0.9919999999999618,0.5919999999999845,0.5967741935483944,0.9919999999999618,0.06451612903225806,13491.0,0.6832126696039649,31394.405106642807,283.85416666666663,0.08892516745071515,0.23493596472811254,0.4782699979004829,0.1657269193805716,0.3995890676854758,0.41474337709082354,4763.0,3352.809523809524,-22.30000000000001,548.5714285714286,0.16361544688889204,133.25,-14.017241379310345,119.23275862068965,0.7289593422224202,-1.2408383486158514,10470939.855463883,8162381.0,1817934.0,6301685.0,4086263.903512413,1478292.7218803086,2304878.640866167,0.5262693160068932,0.5978105344384554,0.7205896973396138,0.14031485422922674,-0.2771358369363489,0.385324247552786,0.52,1.0,0.9442624311743587,0.958589547475246,0.7920228659365428,12.0,0.08756028095784262,0.011102638513428754,1.9739298016553457,1.8480558095094608,0.10486822233900021,0.0948458293684046,0.041069560236144054,0.1325304056773045,0.0962613681016158,0.045709118625933236,0.13630833179470428,0.0798998234127266,0.03024234591221766,0.11916563696875873,0.08582709596784502,0.03327226159534529,3.15279299808674,0.09445095302579291,0.471186063649387,0.0967741935483871,0.5423993841138779,0.12167202551958492,0.001256778566064186,1993.4578835114025,181.7389935501507,0.02444040370643622,1.1751688038830441,1.0725160765824189,Catherine,REC_20260811_193525.csv
right,285,loose,293.808,0.9920000000000186,0.6080000000000041,0.6129032258064442,0.9920000000000186,0.04838709677419355,15032.0,0.8245411185394852,32692.190443590654,500.0,0.1566388270691496,0.2131782945736434,0.43676050591595267,0.15427674274423397,0.4125895959429262,0.37392300790219174,4902.0,3558.746031746032,-37.400000000000006,543.6428571428571,0.15276247652775857,219.66666666666666,-12.745762711864407,206.92090395480224,0.5902077244321204,-1.4824857601778865,10763191.39045878,8598539.0,1408655.0,6318790.0,4371505.708972559,1273629.2908941843,2051122.8997130126,0.5105389561439935,0.5980180007661098,0.7581436810207076,0.13949536353535996,-0.17085816489917882,0.3927455561855722,0.52,1.0,0.9598723301932338,0.9700962884909712,0.8363332318872043,12.0,0.08039655733083031,0.010261874461843365,1.3009806741470848,1.047840197374498,0.10245717012858996,0.09683721303651634,0.04611933042225503,0.12579337291091477,0.09730554279418914,0.053576924277768605,0.12853644720585547,0.07221198834973974,0.039076542923537363,0.11518681897047739,0.08206475439449422,0.04083389458566197,3.4359918876739446,0.13148868875230382,0.5301085182262574,0.0967741935483871,0.4709634614931384,0.08425314266984459,0.002799411751038506,1733.4379135118836,112.38218818418666,0.027712812921086693,1.1627521066686546,1.0682027968058627,Catherine,REC_20260811_193525.csv
right,286,loose,294.816,1.0400000000000205,0.6560000000000059,0.6307692307692241,1.0400000000000205,0.07692307692307693,14673.0,0.7916164506823459,31728.068535604245,429.6875,0.13461149201255046,0.2303107705406556,0.4899957428693061,0.15728790148260427,0.40712421407622,0.38633885198742607,4698.0,3378.5757575757575,-20.900000000000006,526.6590909090909,0.1558819836222902,157.6,-12.483333333333333,145.11666666666667,0.7745488207306748,-1.1944936198310319,10079547.588147298,7894822.0,1490511.0,6086661.0,4170157.4215068654,1319106.1978461794,2134466.65547613,0.49436406841975133,0.5990128167663624,0.6795762962695199,0.1955600031263396,-0.18248239982846892,0.39720812444638814,0.48,1.0,0.9623143567323269,0.9613884850850651,0.8455873923829597,12.0,0.07301631698259603,0.010758512440017135,2.751086017096221,0.8588858620626922,0.10526669835774442,0.09618541074327537,0.044473644085278895,0.1331877337590701,0.09823935134941209,0.04739759446781412,0.133138403307831,0.07425129828778489,0.0321141237566484,0.11805673898809792,0.08303660319481941,0.03465239970222346,2.804944553522749,0.09208133960618643,0.4825297853708411,0.09230769230769231,0.42228855364587337,0.1281895579031984,0.001957120382379143,806.2966782355778,110.24989042680025,0.027712812921119528,1.1486176231091811,1.0131253288166402,Catherine,REC_20260811_193525.csv
right,287,loose,295.872,0.9919999999999618,0.6239999999999668,0.6290322580645069,0.9919999999999618,0.06451612903225806,13921.0,0.7226489012991458,35376.52977611004,234.375,0.07342445018866389,0.23567567567567568,0.5111351351351351,0.1600157112953676,0.4027648047823651,0.3972931830071711,4625.0,3313.7619047619046,-39.69999999999999,524.0793650793651,0.15815238998500722,148.0,-13.96551724137931,134.0344827586207,0.7665998695844882,-1.207080253130544,11039599.638296355,8644964.0,2350609.0,6450736.0,4364869.1391719375,1494715.7945739662,2092153.744958199,0.46870441354014725,0.5971583569251824,0.7097673482875899,0.1567242770306001,-0.19349733024302185,0.39476530349780675,0.52,1.0,0.9483562636494013,0.9558548648861814,0.7986461306870375,12.0,0.06729745254350747,0.0093590731400442,3.508161664627858,3.406743286940454,0.10690865893555974,0.09641849526026623,0.043833556069685344,0.1352129407425503,0.09829618665785302,0.043871876302289156,0.1359697653364756,0.07665004526577476,0.028965305819406328,0.12068478255663014,0.0833656660295928,0.029822721023916615,3.4910106394740903,0.13578956009029633,0.5254683792013203,0.0967741935483871,0.5099587908052289,0.0802368324178337,0.0019314701169761929,566.9664893098964,137.62719022629375,0.027712812921119528,0.8181148104922825,0.8387835097222598,Catherine,REC_20260811_193525.csv
right,288,loose,296.88,1.0400000000000205,0.6399999999999864,0.6153846153845901,1.0400000000000205,0.07692307692307693,14027.0,0.7323703909728415,32404.99237771859,0.0,0.0,0.23893805309734514,0.48370386358730844,0.17037033718335856,0.3968960851605272,0.42925678421424646,4633.0,3381.848484848485,-25.400000000000006,571.5075757575758,0.16899266135608104,157.8,-13.5,144.3,0.6028409084412458,-1.4938438658731321,10694165.419315992,8442157.0,1323134.0,6429967.0,4375591.922435365,1331339.1489869624,2287921.178217694,0.507773577265676,0.5935082996572474,0.8031110832337837,0.153442228317344,-0.1805919740679136,0.36533662226266206,0.48,1.0,0.9584460711583846,0.960158254450493,0.8355272834609663,12.0,0.08004215102696323,0.011216887048916276,1.5126200984325169,1.494671084098286,0.10065321995322622,0.09592207955125849,0.04631678927608175,0.12816641427944195,0.09566670549547046,0.046590084318240875,0.1361278124747986,0.08184514475676742,0.030550801516115444,0.11947921613605612,0.08852519242659115,0.03015653981595147,3.1201297758848483,0.12642497794719845,0.5153303877670431,0.09230769230769231,0.48826934494562213,0.09122350353130847,0.0015173058601000433,407.0331681821535,215.13947450336647,0.027712812921135952,0.481023162184209,0.5239693124270223,Catherine,REC_20260811_193525.csv
right,289,loose,297.936,1.0400000000000205,0.6240000000000236,0.600000000000011,1.0400000000000205,0.06153846153846154,15970.0,0.9105671309350193,33003.87693892946,1093.75,0.3426474342137648,0.22593360995850623,0.4713692946058091,0.15979105685045603,0.4103010190545366,0.3894483548165525,4820.0,3483.621212121212,-11.900000000000006,550.6515151515151,0.15806871115479798,165.0,-11.901639344262295,153.0983606557377,0.6589201149623767,-1.4134676199931357,10884326.744147707,8238128.0,2355496.0,6712187.0,4447364.875726267,1522367.8503390872,2066162.8202492814,0.5150159231058118,0.5852833567117213,0.7546744723139462,0.20363515775869434,-0.13843207070880237,0.3871731963360229,0.44,1.0,0.9564663935210118,0.9711034606373462,0.8182184369576104,12.0,0.06668948689601284,0.009758816099792143,2.2266661095182796,1.7482366590818827,0.09563802904501151,0.09427233069037358,0.048573628103810475,0.12596175174735452,0.09549015087922268,0.05534992758319234,0.1321030449854079,0.07730113648719768,0.03922685815439351,0.11391837995120022,0.08248992036325838,0.03967484200957729,3.0137661980198667,0.11138118193816632,0.4979674850325401,0.09230769230769231,0.41773433461255133,0.19052099411496323,0.002568714096607703,1153.6092637170177,575.8683434243753,0.027712812921135952,0.46333370051932216,0.5110261298764316,Catherine,REC_20260811_193525.csv
right,290,loose,298.992,0.9759999999999991,0.6080000000000041,0.622950819672136,0.9759999999999991,0.04918032786885246,14859.0,0.8086749136946799,31070.700088668746,312.5,0.09789926691821851,0.2295695570804741,0.48845913911416095,0.1550479830577772,0.4100311924329638,0.3781370440079833,4809.0,3510.983870967742,-24.900000000000006,535.8387096774194,0.152617821491081,114.0,-13.931034482758621,100.06896551724138,0.7454475389387739,-1.2257727251181076,10116721.927751351,7979121.0,1467298.0,6043900.0,4328729.987270799,1355357.2590795872,1885239.8095749596,0.516369984411029,0.5804576267913675,0.7843955145371041,0.1446132231127163,-0.2259556180739024,0.36962679854947955,0.52,1.0,0.9635766779355998,0.9709801498386408,0.849445911514961,12.0,0.07250603624449732,0.009012922007227737,2.35393746798675,2.2994605732762636,0.10145120612272086,0.09362783155167424,0.04478112467326041,0.12639137085919303,0.09467064190260059,0.054740652606336794,0.13002053463554467,0.07409006757594828,0.04060069551315917,0.11594489183713783,0.08095791548182892,0.042723067240595186,4.408400782936665,0.19072499824099087,0.5782928564424693,0.09836065573770492,0.6474456803041237,0.23004652493383063,0.0009616355294639565,974.8328061777443,563.3673867912491,0.036950417228148354,0.5860994315332572,0.42642565409517963,Catherine,REC_20260811_193525.csv
right,291,loose,299.984,1.0400000000000205,0.6400000000000432,0.6153846153846448,1.0400000000000205,0.07692307692307693,14405.0,0.7670375899979075,33784.095799651055,273.4375,0.0856618585534412,0.21135336868984483,0.42997446474170103,0.15527458656911197,0.413794578867424,0.3752455795675239,5091.0,3541.1363636363635,-19.900000000000006,545.2878787878788,0.15398669319470296,155.0,-12.916666666666666,142.08333333333334,0.6780467074213475,-1.3874171806613975,10791097.415835379,8404283.0,1337794.0,6635218.0,4320569.629362279,1798546.6724982508,1975807.6957809539,0.5462155741439192,0.5878640127581829,0.758381021364111,0.13480049615632184,-0.21502379271450855,0.39205999969655747,0.52,1.0,0.9525171409324236,0.9715156469579237,0.8150454727708331,12.0,0.08875793283946154,0.011020875020961086,2.03171903802219,1.6719262176349048,0.10571850330530776,0.0969856449093982,0.04202126521618211,0.12514815052521233,0.0963181652867809,0.05459213144214107,0.1252208886892155,0.0741629762745224,0.040750486703891496,0.11327899364610744,0.08111161029458958,0.04469118370665126,2.971913502691372,0.1041653078607806,0.4967186441015348,0.09230769230769231,0.4713115828473612,0.11580107052320625,0.0014494510556446697,805.1565065255145,462.7436365603358,0.036950417228148354,0.7153927915411809,0.617346247684167,Catherine,REC_20260811_193525.csv
right,292,loose,301.04,1.024000000000001,0.575999999999965,0.5624999999999654,1.024000000000001,0.0625,13409.0,0.6756922719318607,34173.888350610614,687.5,0.21537838722008074,0.235625,0.46270833333333333,0.15906779584747058,0.4029051506124396,0.39480209077884126,4800.0,3418.8615384615387,-31.0,538.5538461538462,0.15752432208652453,193.75,-13.35,180.4,0.8369069863330074,-1.0347304969175557,10936652.312638497,8765916.0,1442863.0,6378654.0,4397904.456995431,1954157.9295383967,2008717.8122902338,0.5302960383494291,0.5886046285732214,0.8052447802262558,0.138714274510354,-0.23518987932300373,0.3600571517225867,0.38,1.0,0.9522047122923409,0.9667395373784827,0.8125847194439731,12.0,0.07392822511143206,0.009766879971666623,3.85263979032972,6.413308611855655,0.10142377579581147,0.09339141234599012,0.04586772024875577,0.12854481473814944,0.09438139551627621,0.050565640384113465,0.13451621322437518,0.07682719393770304,0.03602188762791032,0.11723200705588005,0.08224060190976752,0.03898733721526734,3.507817737753251,0.15139485066618685,0.5436962891398648,0.09375,0.47645282584454207,0.15327664710345576,0.0012822003261802448,741.6908610288624,228.61854430925834,0.03330665599146693,0.6560732134960285,0.6372420464452493,Catherine,REC_20260811_193525.csv
right,293,loose,302.08,1.0400000000000205,0.6080000000000041,0.5846153846153771,1.0400000000000205,0.06153846153846154,9815.0,0.346078744693535,31414.179314443343,192.70833333333334,0.06037121459956809,0.23269513991163476,0.48222175468125394,0.15704431298135954,0.40965286304275034,0.3833594908010147,4753.0,3393.560606060606,-39.19999999999999,527.2045454545455,0.15535439223127584,160.5,-13.327868852459016,147.172131147541,0.8217773754508684,-1.070952985549363,10118949.954062477,8229576.0,1029918.0,5797111.0,4066414.9542041505,1703827.3511980071,2019726.0128144387,0.48004094203795045,0.5884600570409779,0.8033341913613176,0.13728882824472977,-0.1653912722583799,0.39020105296179947,0.5,1.0,0.9661470581602029,0.962284911895669,0.8536114795332854,12.0,0.07797429776474749,0.008876632083733437,1.5229400373614896,1.389186496015384,0.10503850876213863,0.09724746065409086,0.04511217769840384,0.13206831119544593,0.09826096662573948,0.04914387766491796,0.13266659225359972,0.07499051233396585,0.03293224690255609,0.1169326933809577,0.08205380064739368,0.03355285188079027,3.4859690773474465,0.148792777595151,0.5228079008396489,0.09230769230769231,0.47344388228547607,0.1294457567346102,0.0012461238633598632,2414.4340951867925,265.450480523119,0.009237604307045264,0.42431879333966566,0.49095370388249643,Catherine,REC_20260811_193525.csv
right,294,loose,303.136,1.024000000000001,0.5919999999999845,0.5781249999999843,1.024000000000001,0.0625,14333.0,0.760434313993133,31637.696913650336,250.0,0.0783194135345748,0.2234326824254882,0.4425488180883864,0.1466490009692421,0.41532025004668366,0.35309860511895613,4865.0,3460.276923076923,-29.80000000000001,502.1,0.14510399345539263,168.25,-13.433333333333334,154.81666666666666,0.9183024656839737,-0.9225892081045775,11133021.619787864,8139168.0,2755002.0,7078706.0,3998388.814913863,1530167.8334045454,2239958.279948191,0.5136900523416488,0.5907034761220739,0.7912661503301139,0.14143612610922973,-0.20510332019409416,0.39820641130306966,0.5,1.0,0.9697704869775876,0.9730973737027755,0.8655333619748414,12.0,0.09464491634927848,0.01269551974160478,3.960713768525123,4.201178234002953,0.10354440284903832,0.09184236032687468,0.04509643514525294,0.1284245814030002,0.09262486772957255,0.05899038760792822,0.1313278617096008,0.07138157017224055,0.043438052979308014,0.11160067224499595,0.07526743079700157,0.04646137703518616,3.9651334934398625,0.14145472591119243,0.5395685426793215,0.09375,0.6009603169704091,0.14172907095564866,0.0028998619052310183,2386.871592692088,270.6496439040174,0.009237604307045264,0.17602552977070543,0.29222478379158107,Catherine,REC_20260811_193525.csv
right,295,loose,304.176,1.0080000000000382,0.6080000000000041,0.6031746031745844,1.0080000000000382,0.06349206349206349,15596.0,0.8762667805768852,35994.78799770878,364.58333333333337,0.11421581140458828,0.21416938110749187,0.46763029315960913,0.15198317743455877,0.40345152635776954,0.3767074047445171,4912.0,3447.75,-10.900000000000006,518.9921875,0.15053069030527155,182.0,-12.457627118644067,169.54237288135593,0.8797229002282937,-0.9483516281719138,10596606.49875558,8795237.0,3706730.0,4603480.0,4080439.582013703,1920487.9238511848,1874110.193367976,0.5386395597356042,0.6083408358139146,0.6586904502934787,0.21289246610101853,-0.2579321918020324,0.4158629138812079,0.5,1.0,0.9488274241202777,0.9677224404367116,0.8058043578550643,12.0,0.08137330025437335,0.011602212858155147,10.377950935978845,2.742118362269437,0.1025759553331883,0.0924289391632224,0.05357207599158872,0.13077822492930172,0.09401965049670075,0.05092542237691248,0.13350645348415632,0.07237509970270466,0.035299289391632224,0.11627601334203466,0.0796080777318541,0.03863479805670365,3.0180396106238727,0.07668222923340308,0.4598178042380716,0.09523809523809523,0.4610430917081718,0.1385539489042364,0.001764463980878191,3039.3928670049286,87.51446639673316,0.015999999999991084,1.4805411175513947,0.46263373471755337,Catherine,REC_20260811_193525.csv
right,296,loose,305.2,0.9600000000000364,0.5919999999999845,0.6166666666666272,0.9600000000000364,0.06666666666666667,17161.0,1.019796321513997,38904.571119599816,416.6666666666667,0.13053235589095802,0.19106447791504486,0.42511423252665426,0.1074454882428845,0.4621027196291639,0.23251429536933027,5909.0,3989.2131147540986,-75.6,423.5409836065574,0.10617156101289543,202.25,-14.803571428571429,187.44642857142858,1.732128062221056,1.5949786684946412,10861079.999711677,9316916.0,1356120.0,5414709.0,4241287.1296261,2454189.5437516137,1677653.6864922582,0.5304012236489553,0.6128692603469553,0.7065533366240649,0.2953781853002314,-0.14953079389900037,0.43413175509184293,0.48,1.0,0.9739730253408487,0.9870075593913327,0.8841768267115527,12.0,0.05152328686262511,0.006739048224728416,16.192853557788453,9.739038066685367,0.09717599099210164,0.10538665746151506,0.056262379696065616,0.11342472733847835,0.09216658036837044,0.08215597800626279,0.11156314980562335,0.05364877415324933,0.06896877645453722,0.08919956275529912,0.053796714089635156,0.07625070887886186,2.9374542646226613,0.11896305403286284,0.4613222104325751,0.1,0.4776687194090112,0.27363508607455994,0.0030740074985597414,1416.684980273908,85.26409137367784,0.03330665599144418,4.711021848978825,3.654303477547853,Catherine,REC_20260811_193525.csv
right,297,loose,306.176,1.024000000000001,0.5919999999999845,0.5781249999999843,1.024000000000001,0.0625,11485.0,0.49923806313760954,34412.463585160534,333.33333333333337,0.10442588471276643,0.17885881492318947,0.4423920994879298,0.11992973420236373,0.446975429094819,0.2683139304662881,5468.0,3476.9076923076923,-30.900000000000006,412.18461538461537,0.11854919712034123,169.25,-10.916666666666666,158.33333333333334,1.6400172344185049,1.0495591661636956,9104318.121433752,8549669.0,1634675.0,2668259.0,3952755.8848286234,1636467.9626880386,2266958.301215229,0.584542532523624,0.6220302246282452,0.7023306315873858,0.2961169866111072,-0.1887790545577992,0.4564269488468285,0.48,1.0,0.9453973184688637,0.9706950624346194,0.7876566325591519,12.0,0.07574399559337751,0.012755894104550289,17.56368604448202,20.94324816878789,0.11258014415992991,0.10449161279474688,0.04096035823167359,0.13425723122668684,0.10246063035677148,0.06164629047031182,0.12166425515157146,0.05930999694688914,0.044119664246301975,0.10356240514338559,0.060619737255474586,0.05432767401625671,2.573512914940131,0.045057534054376625,0.42923141587793245,0.0625,0.3293568068612185,0.20589925093850509,0.0055843886815501766,2931.624180097735,42.09845712842276,0.03330665599144418,3.796595453656671,3.4433975569743764,Catherine,REC_20260811_193525.csv
left,278,loose,287.056,1.024000000000001,0.6240000000000236,0.6093750000000225,1.024000000000001,0.171875,39908.0,3.105972978189065,44756.50130427981,0.0,0.0,0.19714686623012162,0.5194106641721234,0.12155147360931565,0.4514625860565794,0.26923930656347805,4276.0,3070.4307692307693,-111.4,370.3076923076923,0.12060447544318512,53.54545454545455,-13.566037735849056,39.97941680960549,0.7233548318813452,-1.137427925690299,7268069.945324549,6657209.0,1734857.0,2344500.0,4382348.811219246,781578.3180487087,1632087.1042174667,0.5637752906806519,0.6181135193015492,0.630663352735291,0.16176683823270022,-0.18259752567707865,0.42574257715907504,0.34,1.0,0.9515562756642784,0.987241219269997,0.8013109941444186,12.0,0.03710665027748651,0.005225114238148275,1.4129125254109365,2.3033010567224323,0.09602260770225175,0.07069917525979817,0.05311206646023108,0.10962631151730151,0.08121135596107787,0.11134994839110522,0.1203138622493461,0.06771788473679463,0.07857579492729659,0.08349617693332934,0.05383358887252102,0.07404122698894668,3.0709350435374727,0.11431475257796779,0.47603758577350236,0.09375,0.4761327649200683,0.11651898674943281,0.0014545560055814167,15215.371843413266,188.36605541692836,0.024440403706436176,2.210900403223943,2.0047882754893958,Catherine,REC_20260811_193525.csv
left,279,loose,288.096,0.9920000000000186,0.6240000000000236,0.6290322580645281,0.9920000000000186,0.11290322580645161,27044.0,1.9261876653360261,38839.751814346084,0.0,0.0,0.1957136128120584,0.5226095148374941,0.11852018902545283,0.4512726415384458,0.2626354405649712,4246.0,3096.9206349206347,-107.0,364.03968253968253,0.11754892212438367,83.42857142857143,-12.709090909090909,70.71948051948053,0.7638200799879342,-1.0822663186851362,7326287.685706179,6884451.0,1102000.0,2250427.0,4313925.669110744,718976.5040564904,1358324.4765624404,0.5555936263617942,0.6105219771138823,0.6264353003713174,0.12949663992170035,-0.1931082151679565,0.4168907402829564,0.4,1.0,0.9487396289424551,0.9871280458660662,0.7930586819981107,12.0,0.03442690987828785,0.003975376180880795,2.301245024557796,2.975696313838739,0.09821840435455599,0.07217615040029522,0.05355550316238353,0.10944307197113365,0.08328805879880681,0.10890490297581829,0.12079074964378338,0.06541059731633062,0.07746045739239184,0.08391848533617624,0.053109591709122224,0.07372402693920228,3.604298910475188,0.14454139021407136,0.5358982151315965,0.0967741935483871,0.5239677672640568,0.13724986730783909,0.0026628998214887948,6450.38812785714,216.50635094610965,0.04026578365477006,2.3157910804743866,1.9391659367525877,Catherine,REC_20260811_193525.csv
left,280,loose,289.104,1.024000000000001,0.6560000000000059,0.6406250000000052,1.024000000000001,0.203125,27705.0,1.986809407546525,39392.974525922764,276.0416666666667,0.08647768577775969,0.19976275207591934,0.5297746144721234,0.1260548732171157,0.4531794770206022,0.27815662360918325,4215.0,3106.4615384615386,-110.1,389.2,0.12528724247226625,51.61538461538461,-13.784313725490197,37.83107088989442,0.5761291040961845,-1.4221631758339472,7493788.306367081,6704856.0,1540602.0,2971248.0,4291844.0055804895,665953.445641224,1424448.1765085626,0.5328970034452016,0.5997562748696794,0.6321123338398301,0.1405299936931531,-0.18687841618416356,0.40310486438981274,0.34,1.0,0.9474982254594886,0.9865686707143205,0.7879434485983546,12.0,0.03522597688021971,0.004344276875806024,3.1422803587683887,4.373517190130357,0.09267531695721076,0.06666006339144215,0.0527040412044374,0.11093997622820918,0.07948692551505547,0.11534270998415214,0.12141937400950871,0.06951763074484944,0.08074980190174326,0.0840729001584786,0.05653724247226624,0.06989401743264659,3.175519252552032,0.09406119656933583,0.4981578449118748,0.09375,0.4315448024550437,0.130886190812664,0.0010811532186984643,7243.763133436479,159.37273055755296,0.018475208614057766,0.6122518229503803,1.6128932363000288,Catherine,REC_20260811_193525.csv
left,281,loose,290.144,1.0400000000000205,0.6719999999999686,0.6461538461538032,1.0400000000000205,0.18461538461538463,16630.0,0.9710971609787853,35673.02850894496,164.0625,0.05139711513206472,0.1959251362236437,0.5174129353233831,0.12788042654515053,0.45504016584607404,0.28103107405318106,4221.0,3098.8939393939395,-94.6,393.9318181818182,0.1271201357278012,55.75,-12.716981132075471,43.033018867924525,0.49264564062756866,-1.5223212033367342,10885832.777504025,9672440.0,2263866.0,4451985.0,4341078.665637952,806052.0151653975,1374422.6560875368,0.5122954193894419,0.599938843590984,0.6281701442939042,0.11862692047141676,-0.17357081640729854,0.4074513722995149,0.36,1.0,0.9478371236298838,0.9868279239620577,0.7886845627178052,12.0,0.03494137212719173,0.004081907412854467,0.6082477235277697,1.667326224542009,0.08897602761493593,0.06878309465253976,0.050316095185476736,0.11049885834144148,0.08150513135185085,0.11411696255262141,0.1212944990148,0.07161401673128731,0.08013611894762061,0.08539703804387684,0.05626640981386321,0.07109574774968586,3.1825438151742462,0.10802702164105671,0.4997039056987593,0.09230769230769231,0.4254475946892042,0.13236492272607583,0.0014931616760646812,6212.137876769917,138.83733852349314,0.024440403706430004,0.5250344787383281,1.3089309993219074,Catherine,REC_20260811_193525.csv
left,282,loose,291.2,1.024000000000001,0.6240000000000236,0.6093750000000225,1.024000000000001,0.1875,43459.0,3.4316428822578726,45645.06066377829,0.0,0.0,0.18870588235294117,0.5089411764705882,0.1282230631428514,0.44332340331313785,0.2892314328196824,4250.0,3057.2923076923075,-101.9,388.87692307692305,0.1271965137577746,46.083333333333336,-12.365384615384615,33.71794871794872,0.4858589667500121,-1.538301098292274,7859820.605076556,6907664.0,1689653.0,3347541.0,4480639.726856351,741382.8567071937,1719956.1432816715,0.5602806569106317,0.6123171323823997,0.6397818079344136,0.12801777380499746,-0.1824209887654068,0.4083205232710757,0.32,1.0,0.9503274364776733,0.9881768314126178,0.7982570523745635,12.0,0.03343323636077865,0.004409611284993616,2.140032899296753,3.611133704250932,0.09547412491697027,0.06894486825949558,0.054804653690545685,0.107812845957207,0.07846561059559994,0.10954389001831687,0.12115295585837645,0.07059539864334453,0.07855618848251847,0.0876039129647149,0.05762766449950686,0.06941788611340352,2.779691558243621,0.07076447037003959,0.46666049285913985,0.0625,0.4067005812142913,0.18505169120114692,0.0023791466916390862,13482.330300557587,138.83733852349314,0.009237604307045375,1.0397388526489224,1.311747677940481,Catherine,REC_20260811_193525.csv
left,283,loose,292.24,1.0079999999999814,0.6399999999999864,0.6349206349206331,1.0079999999999814,0.1746031746031746,31677.0,2.3510901338099166,41055.1096332722,328.125,0.10279423026412944,0.2061465721040189,0.524113475177305,0.14147759616166544,0.44674005855086607,0.31668885172394656,4230.0,3074.25,-90.4,431.0390625,0.14020950231763846,49.0,-13.576923076923077,35.42307692307692,0.3544054865502555,-1.6943036671425333,7344315.937712647,6798930.0,1329242.0,2438574.0,4454651.008850466,800635.6623944964,1471359.0667403196,0.5233029385430057,0.6027356839554596,0.6271448320726593,0.10804028857209058,-0.15195343812074613,0.3980030996980175,0.34,1.0,0.9497396426454147,0.9869974194444133,0.794535312159503,12.0,0.03239467681288872,0.004045311846360194,1.7088273030641274,2.261333629082614,0.08325201268602098,0.06357241603643166,0.05040355371228755,0.10801414979263235,0.07827112303813938,0.11461636984630398,0.12389708872082622,0.07941469464096934,0.0822659998373587,0.08707916565015858,0.06206290152069611,0.06715052451817516,3.6267377531306813,0.15942147591959263,0.5325156441402293,0.09523809523809523,0.5011513243763905,0.09748227967422061,0.0014765752566899795,13447.570871102831,164.0625,0.016000000000019596,0.5504258772372637,0.38851087328679573,Catherine,REC_20260811_193525.csv
left,284,loose,293.264,1.024000000000001,0.6399999999999864,0.6249999999999861,1.024000000000001,0.203125,42191.0,3.3153518548404555,46379.881209420964,0.0,0.0,0.1961253288686917,0.5185362353503946,0.13151583027773942,0.43163907682709174,0.30468935121534757,4181.0,3008.353846153846,-103.80000000000001,392.33846153846156,0.1304163278665051,40.30769230769231,-13.450980392156863,26.856711915535442,0.5028364890654011,-1.5014338986178086,7821807.207844872,6893003.0,1824043.0,3215594.0,4280839.865154558,815283.7380478439,1559642.5994506027,0.5537423477961341,0.6070275556093724,0.6348987179288379,0.14039137693703718,-0.20106595897737845,0.39569949913007557,0.34,1.0,0.9515810706825544,0.989526300658522,0.8039647371703871,12.0,0.03400902475595945,0.004001478827984556,1.0975856502730839,2.464605304302907,0.09792731010570566,0.07126309814209662,0.05513876743222718,0.10423282858501712,0.0774100837156022,0.1023969152564909,0.12228001002337083,0.07248533570621296,0.07633615112788492,0.08871705967485412,0.05903049457152647,0.07278194565901105,3.0012499575632066,0.07742191339402199,0.4786087149271449,0.0625,0.43582187820706275,0.14800342361234514,0.0022617249570785584,6467.451120804915,189.4430570778459,0.009237604307045375,3.380780174625448,1.432048202534208,Catherine,REC_20260811_193525.csv
left,285,loose,294.304,1.0080000000000382,0.6240000000000236,0.6190476190476191,1.0080000000000382,0.1746031746031746,17396.0,1.041348680696247,37910.652513508656,0.0,0.0,0.19867706118592016,0.517363571934798,0.1215157578532079,0.4449233839648991,0.27311614141347224,4233.0,3037.671875,-112.5,366.796875,0.12074934031510563,61.63636363636363,-13.576923076923077,48.05944055944056,0.700301150011224,-1.1884133314905447,10570738.673020018,9244834.0,2017077.0,4712214.0,4308586.656306002,622850.1873075529,1542925.81207745,0.5458760621943466,0.6077698321626125,0.634696596385798,0.1231206053155024,-0.19342820842729636,0.3991030155522058,0.36,1.0,0.9500059674695815,0.9891038683956807,0.7986823799716894,12.0,0.0363955989495414,0.004464696749911509,2.4647720933464274,2.809466601586621,0.09975258601622336,0.0749803251873608,0.05917360643173483,0.10542613329492673,0.08224328870279973,0.10611025096316566,0.11954570471835442,0.06651372607517064,0.07616338581664618,0.08487174079655986,0.05500203177803725,0.07021722021902053,3.2289781163537548,0.12418902137757865,0.49280110525050536,0.09523809523809523,0.49924257491077256,0.1065545393578598,0.0017550133538418,12445.100655813649,189.4430570778459,0.009237604307028949,3.4418757556440904,1.4477506839597307,Catherine,REC_20260811_193525.csv
left,286,loose,295.328,1.0080000000000382,0.6240000000000236,0.6190476190476191,1.0080000000000382,0.15873015873015872,16568.0,0.9654110066413406,37535.8706439587,229.16666666666666,0.07179279574002691,0.1912632821723731,0.5218417945690673,0.1210047731254909,0.45323545405111476,0.2669799373456743,4235.0,3103.3125,-108.19999999999999,372.78125,0.1201236581878235,60.4,-12.566037735849056,47.83396226415094,0.6444006225796057,-1.2831799739147276,10575739.974456161,9266825.0,2173458.0,4609589.0,4323132.02114715,748666.9794415515,1503386.2814941148,0.5495208752847948,0.6089705221738597,0.6293275330793694,0.12691507634407295,-0.20208820643833214,0.4131363691674304,0.36,1.0,0.9516189532478098,0.9880181585845793,0.8053196238344217,12.0,0.03393177076689242,0.004058852350964377,2.020067524724158,2.6341429902449676,0.09742613739351097,0.07479910579421183,0.053949408897750385,0.10782832860048738,0.08290536322075202,0.11048174329849153,0.11838156808249249,0.06611382998006163,0.07722091313717197,0.08381165287092421,0.05489094314542928,0.07219100557871629,3.4855754860180914,0.13512417082654102,0.5265514478824785,0.09523809523809523,0.48124703445487393,0.10784019854859887,0.0018955037693725292,14560.309852472217,132.30943668928924,0.009237604307012572,3.689367731768169,1.5953199953957933,Catherine,REC_20260811_193525.csv
left,287,loose,296.352,1.024000000000001,0.6240000000000236,0.6093750000000225,1.024000000000001,0.078125,32677.0,2.4428023005428954,42045.478770017595,150.0,0.04699164812074489,0.18977429755872868,0.5112851220635651,0.12812283870454125,0.4447628856746227,0.2880699870226571,4342.0,3091.9846153846156,-112.0,393.4846153846154,0.12725956443210484,122.8,-11.64406779661017,111.15593220338982,0.5069794077865678,-1.470934117762938,7683111.528260995,6841690.0,1628566.0,3093421.0,4320774.640032916,1227850.5466563846,1765790.6257021024,0.5658649688935561,0.611135726248712,0.6371840453224293,0.11739372506271861,-0.16791276091282825,0.40753172057110754,0.36,1.0,0.9498991612975748,0.9892176766401353,0.8021168151160293,12.0,0.03271744379377321,0.0038295158543493707,1.8800547738616427,1.6150733937316346,0.09162151269535623,0.06863901203608337,0.05737415351852681,0.10564785375586502,0.0783464939122993,0.112494340204698,0.11920150861532797,0.06988789873568879,0.079635185765677,0.08592937570591952,0.05823493996885247,0.07298772508570547,3.365085140351599,0.1170445122881096,0.5147633885983419,0.09375,0.43737001494510036,0.10105135598258645,0.001060315923498867,9070.964906410594,116.3935294752406,0.009237604307012452,0.6564966924443489,0.42581000360716986,Catherine,REC_20260811_193525.csv
left,288,loose,297.392,1.024000000000001,0.6240000000000236,0.6093750000000225,1.024000000000001,0.1875,37798.0,2.9124603063824797,43976.82505593145,315.10416666666663,0.09871509414253699,0.1969590643274854,0.5225730994152047,0.13057768173480414,0.4449229841445335,0.293483785706809,4275.0,3061.3076923076924,-100.69999999999999,396.8538461538462,0.1296353996532402,52.0,-13.173076923076923,38.82692307692308,0.5384578574738076,-1.478222394901774,7911938.302397775,6879564.0,1480737.0,3616322.0,4499867.139140235,737505.1389295915,1788608.7575225437,0.5631047089779311,0.6101054982691018,0.6356760559839117,0.10222388827377249,-0.1668087995556503,0.4068430940764761,0.34,1.0,0.9508631577046419,0.988300076637456,0.802456625849646,12.0,0.03599305413086005,0.004123933659921899,2.16547435634849,2.2744859773369086,0.09359499459758273,0.06935698670754076,0.05289845968289066,0.1070834485011433,0.07818679799984923,0.1104957660125135,0.12087845817523934,0.0732417016358017,0.0797999849234867,0.08535819282860517,0.05733598009900244,0.07176922883634444,3.2680231349084727,0.11649236204690752,0.5093312420245991,0.09375,0.43762192245738696,0.12209086332356213,0.0019251225554390444,11078.789208813983,82.57521911168381,0.009237604307012452,0.14342313733693715,0.3859571572341745,Catherine,REC_20260811_193525.csv
left,289,loose,298.432,1.024000000000001,0.6239999999999668,0.609374999999967,1.024000000000001,0.171875,40598.0,3.16925437323482,45488.0160481857,218.75,0.06852948684275297,0.2024033930254477,0.5256833176248822,0.1302559391923607,0.45073763583047755,0.2889839428479746,4244.0,3048.2,-109.9,393.4846153846154,0.12908753211226803,48.09090909090909,-13.69811320754717,34.39279588336193,0.5598466347227702,-1.4420430260486308,7801849.216015457,7106806.0,1012814.0,3055547.0,4513726.79799139,720246.3544697237,1529424.50324533,0.5602341828898756,0.6130985601697443,0.6275834918966513,0.1297587468816902,-0.16661556033732772,0.4129787802599128,0.34,1.0,0.9465171491119614,0.9863206922034747,0.7877810350508206,12.0,0.03265868196925571,0.004018605562576543,1.3324018539569629,2.04426617880317,0.08955095819474798,0.06434061968475721,0.049784740553062846,0.11088006541060803,0.07690793557862649,0.11521553703825209,0.12202914204095229,0.07301156294004534,0.08339347811823371,0.08398399055180107,0.05724437625231537,0.07365759363659764,3.3429237182999296,0.12231688795088454,0.5135691855257806,0.09375,0.44039134853872625,0.16497425110927114,0.002428221495532553,4016.774867145762,82.93579221775744,0.0,0.09773761330171338,0.21238043735462608,Catherine,REC_20260811_193525.csv
left,290,loose,299.472,1.0400000000000205,0.6240000000000236,0.600000000000011,1.0400000000000205,0.16923076923076924,18554.0,1.1475513697730364,33951.78001224678,343.75,0.10768919361004037,0.19693450998606596,0.5132373432419879,0.12845050423235185,0.4484243051493198,0.28644857728995066,4306.0,3030.409090909091,-62.900000000000006,385.6969696969697,0.12727554535591254,48.81818181818182,-12.75925925925926,36.05892255892256,0.7222514871672201,-1.2085721267824734,13762345.632164635,8646186.0,2932153.0,10297966.0,4227545.08008939,1208949.1339575916,3074361.0523291603,0.5642110387122038,0.6168031749887584,0.6464945155488853,0.0998383423926773,-0.19781797433001735,0.4227655365189583,0.34,1.0,0.9600014126002406,0.9877201752633845,0.8257904413924431,12.0,0.03808202816012416,0.004373239772382069,1.3899494911140824,1.65010947095395,0.09319173828915989,0.07170749023784168,0.05016324428644997,0.10813621523246686,0.08043218487352943,0.11036113736019239,0.12168574099906503,0.07097751578694746,0.0777872774452894,0.08461703840365588,0.057472988445404403,0.0734674286399976,4.4184623911426035,0.23723567763181205,0.6170095093397553,0.12307692307692308,0.5356115240965951,0.16267462577650837,0.0017940827571674945,12000.76019814301,65.48499726577185,0.009237604307045302,0.0860001219382482,0.3376656908199181,Catherine,REC_20260811_193525.csv
left,291,loose,300.528,0.9919999999999618,0.6080000000000041,0.6129032258064794,0.9919999999999618,0.11290322580645161,20229.0,1.3011692490507758,38054.536562675414,126.48809523809524,0.03962589375261226,0.1953564727954972,0.5227485928705441,0.11547208680930916,0.4660901136108675,0.24774626930970628,4264.0,3112.8253968253966,-98.1,356.3333333333333,0.11447263752626104,84.28571428571429,-12.436363636363636,71.84935064935065,0.9200020209541325,-0.7743750406394585,11141851.561596664,9597914.0,2814867.0,4908913.0,4625693.472735586,1088284.407305656,1613532.506933103,0.5508432305045433,0.6203448058372966,0.645335369140412,0.1436191136661844,-0.16512985556058568,0.4343278389562136,0.34,1.0,0.9563947256817691,0.9870507933896607,0.8175849264497314,12.0,0.036942906084595176,0.004429725292419208,2.542202474449439,3.689974053855323,0.09299977563383442,0.07760009790523589,0.05181838578742325,0.11023517653537848,0.08678381300099947,0.11219328125318703,0.11674179533726316,0.06473473800150938,0.07927774491606666,0.0795633018540804,0.05073734880779978,0.07731454096722215,3.077267992120218,0.06843308412081073,0.4557496622947763,0.0967741935483871,0.42594906757582346,0.13011306886705173,0.0029644491089087822,12272.188897394504,109.04127225586478,0.024440403706461018,0.5825389791516644,0.42522753979703276,Catherine,REC_20260811_193525.csv
left,292,loose,301.536,1.0079999999999814,0.6399999999999864,0.6349206349206331,1.0079999999999814,0.19047619047619047,28542.0,2.063572491102028,40331.52525010677,500.0,0.1566388270691496,0.19333178976614956,0.5082194952535309,0.13541730295441126,0.44196546739152565,0.3063979268641565,4319.0,3069.5625,-96.4,412.65625,0.13443487467676582,50.75,-13.235294117647058,37.51470588235294,0.43483103985550275,-1.6257972534215286,7791390.536160153,6940650.0,1670105.0,3121521.0,4481822.314624063,764050.0879233887,1508101.1610567237,0.5443532374483799,0.6003901887811862,0.6509070918084741,0.11043919125278923,-0.1620054044462539,0.3933360748037166,0.34,1.0,0.9522805701883302,0.9887653203946982,0.8042768885873793,12.0,0.03555613077096849,0.004004541581839824,1.0925494625606555,2.537124660243677,0.09143709404841895,0.07043959847698165,0.05309693971046363,0.10640258180115245,0.0769093722639627,0.10838779956427015,0.12233522692566123,0.07478671634801376,0.07982611528515872,0.08782297965915338,0.060630586606397495,0.06792498931036589,3.534484935625878,0.15498046195440635,0.5411386677832369,0.09523809523809523,0.4519635464167136,0.09851081595389141,0.0016518532271697002,5349.014519828169,187.58462124227083,0.024440403706461018,0.527614890328104,0.42230756084307475,Catherine,REC_20260811_193525.csv
left,293,loose,302.56,1.0400000000000205,0.6399999999999864,0.6153846153845901,1.0400000000000205,0.18461538461538463,38856.0,3.009491778785971,43956.39367600577,0.0,0.0,0.1902519425476807,0.52130915940664,0.12467226841521943,0.45214508561301064,0.2757350956189251,4247.0,3103.287878787879,-115.4,384.27272727272725,0.12382761196580361,49.416666666666664,-12.773584905660377,36.643081761006286,0.5472133102454452,-1.4243543048148821,7461248.806731819,6560692.0,1538158.0,3203377.0,4419863.091099435,795270.7884836516,1455949.0684294389,0.5339308705630521,0.6058236474461675,0.6322326759983705,0.12586387470025184,-0.15451025320457767,0.41262202974094886,0.32,1.0,0.9448468219876456,0.9860589107518671,0.7801252887156673,12.0,0.0338196467977223,0.004164411691916284,2.2064891635530595,0.8921825945264175,0.08874263366810371,0.06727957151994218,0.047769472260603366,0.11289101978839645,0.07872393404844324,0.11251507443229809,0.12183070741198239,0.06915929830043405,0.08073548582393063,0.08360145886327794,0.05551297011478539,0.08123837376780246,2.905011604610413,0.0894298075529464,0.48100558645367114,0.06153846153846154,0.4145378096435033,0.15411451561368386,0.0016397672013507025,9331.39587628774,259.9712744502835,0.024440403706461018,0.4464843276324052,0.2466467577426458,Catherine,REC_20260811_193525.csv
left,294,loose,303.616,1.0400000000000205,0.6399999999999864,0.6153846153845901,1.0400000000000205,0.16923076923076924,38396.0,2.967304182088801,44113.57361402497,125.0,0.0391597067672874,0.19148936170212766,0.5218742529285202,0.11947748873105096,0.46454214901641805,0.2571940758958907,4183.0,3129.409090909091,-111.69999999999999,371.5984848484849,0.11874397819319167,58.18181818181818,-12.203703703703704,45.97811447811448,0.6347435978370078,-1.2556630596360872,6690078.648538147,5958379.0,1679879.0,2536312.0,4130787.741724783,881072.3339324422,1485564.3331415635,0.5329764876160425,0.608417653116918,0.6371809955406333,0.13841695116318287,-0.17185874742065332,0.42801309983487895,0.34,1.0,0.9524700700107596,0.9853314310902804,0.8043623283864733,12.0,0.035138441726423504,0.004010967687420485,2.041403244018721,1.5446840644870008,0.08917841978106042,0.07107547653976692,0.04709476568816845,0.11340605497213628,0.08402690022804188,0.11416619460542943,0.1202231034031984,0.06776378539854072,0.08186752267104351,0.0827680702620787,0.051713703332510255,0.07671600311802498,3.2018947677010225,0.12445238634995127,0.49020224722681766,0.09230769230769231,0.4643609222102455,0.10632951993418752,0.001847962977831876,5826.541455557807,260.2082499332666,0.018475208614090605,1.4285267827791857,1.6240567796981673,Catherine,REC_20260811_193525.csv
left,295,loose,304.672,0.9919999999999618,0.5919999999999845,0.5967741935483944,0.9919999999999618,0.08064516129032258,42976.0,3.3873459057258435,46816.71911828081,203.125,0.06363452349684204,0.17680958967266022,0.4972337482710927,0.09858636579045546,0.46460872984663787,0.2121922371603528,4338.0,3148.4761904761904,-114.5,308.1587301587302,0.09787551549250331,124.8,-11.017543859649123,113.78245614035087,1.02590422176035,-0.2981309761458819,7690511.898381407,7142236.0,2025629.0,2007303.0,4288125.553000372,1003929.4416803597,1169937.193334224,0.5593396566927445,0.6264349516999391,0.6209352974982147,0.1684520748617736,-0.18901919943990253,0.4598719955020091,0.42,1.0,0.9470716897262635,0.9831174212598465,0.787897445567809,12.0,0.039247559928426455,0.0051188385769045785,5.916050992903454,3.6474304504365023,0.09327263377597629,0.07346965526281296,0.053903626848967004,0.11522328765742057,0.08089073071377437,0.11296974096816803,0.12135374129082348,0.05496234005868296,0.08205531524446191,0.08257458886637023,0.043624025731772494,0.08570031358076974,2.886386782214233,0.07622878469283259,0.46176865389158384,0.0967741935483871,0.4613366596927351,0.17536895222694068,0.0032110166562377366,2521.9833464955295,102.45997694221874,0.027712812921135907,1.6330786021564907,2.8487895975013147,Catherine,REC_20260811_193525.csv
left,296,loose,305.68,0.9599999999999795,0.5600000000000023,0.5833333333333481,0.9599999999999795,0.08333333333333333,37367.0,2.8729323625205656,44895.726010389895,125.0,0.0391597067672874,0.16638042078145127,0.44096178617432374,0.09890939597315437,0.4597420302013423,0.21514107798621013,4658.0,3126.55737704918,-105.19999999999999,307.0,0.09819106543624162,125.8,-11.763636363636364,114.03636363636363,1.1127268223187392,-0.10427309991578593,7192134.370100506,6563136.0,1943773.0,2207666.0,4218874.136947526,1097193.126091018,1227833.549880525,0.6084275439439517,0.6457233858702076,0.6073773070467856,0.28160333344738275,-0.18399320298583255,0.48880980361695,0.4,1.0,0.9451428002798419,0.9856708032207696,0.7825911511092359,12.0,0.03658462381134143,0.00579279264438761,18.301880934331926,21.914702529745895,0.10670092281879195,0.09196203859060403,0.05401635906040268,0.10120071308724833,0.09357172818791946,0.10000524328859062,0.11255243288590605,0.054635067114093966,0.07300230704697987,0.0787646812080537,0.0442743288590604,0.08931417785234899,2.882875902677821,0.12464057690496473,0.4330859190120817,0.1,0.4342772725144522,0.2656965105918079,0.0031340803604488635,2985.970584807237,45.10548978043952,0.0402657836548002,1.5216926288633548,3.0882136379627587,Catherine,REC_20260811_193525.csv
right,82,loose,92.656,1.1359999999999957,0.671999999999997,0.5915492957746475,1.1359999999999957,0.15492957746478872,16300.0,1.0387675138811125,30114.87011428075,1218.75,0.509279002280584,0.3032155797101449,0.5210597826086957,0.20408849960657638,0.3692073549509256,0.5527747399113906,4416.0,2683.0,4.900000000000006,542.7291666666666,0.20228444527270467,81.54545454545455,-18.066666666666666,63.478787878787884,0.823991513268492,-0.9058579447483344,9446189.17888849,8467813.0,2535090.0,3331659.0,4073300.10805375,1143144.761129663,1375461.8459622832,0.7370781619754994,0.6679103475254055,0.5087588520311186,0.2070177306851897,-0.3042512569693142,0.37350879597606124,0.34,0.6388888888888888,0.9538979019284876,0.9851389309333785,0.8201716200333458,12.0,0.0692636646997668,0.008715938528625055,6.5119388357540195,3.463295302386328,0.061720917712345225,0.09166252536546983,0.07520085310804654,0.06480101047749202,0.06083053795502547,0.07559945334824202,0.12675487638215927,0.10086139064894188,0.07631382780469624,0.1136942477326376,0.10322710895763448,0.0493332505073094,2.727111509525178,0.08100776461430279,0.4464865962369832,0.056338028169014086,0.43259980435693524,0.16842016846337485,0.0009012826892503572,1551.1093879328148,337.816465543062,0.024440403706431496,2.46914608299483,1.7669212705685564,Kristian,REC_20260514_174713.csv
right,83,loose,93.808,1.1519999999999868,0.6879999999999882,0.5972222222222188,1.1519999999999868,0.16666666666666666,17463.0,1.1535030333457348,31148.51882513838,1016.6666666666666,0.42483444976568374,0.3165618448637317,0.5311844863731656,0.22733965108262544,0.35230021383750687,0.645300917095688,3816.0,2344.6301369863013,0.5999999999999943,528.2876712328767,0.22531812711062296,66.16666666666667,-15.5,50.66666666666667,0.6865631109296187,-1.0955222882290545,9511896.01345121,8458040.0,2324953.0,3678630.0,4093545.5820467495,1171733.0122274884,1401447.0141350208,0.7384598664749065,0.6644941940934836,0.5374504187678693,0.16287325876954573,-0.35530602944489265,0.3567583176405156,0.38,0.6986301369863014,0.9790394153162666,0.9750407149863772,0.9076963501159354,12.0,0.06685301799839334,0.009011308430394152,3.827355631916424,1.7523247837447542,0.051583916615057436,0.0749658210542306,0.04463127636452868,0.06783206160389815,0.04972014162352914,0.07781698781243061,0.13930403486836726,0.11560078991341335,0.08196520174341836,0.11869150141974083,0.11173886116921207,0.06614940581217355,2.707341549322402,0.09367186092169452,0.4591402044676224,0.05555555555555555,0.39665516586746224,0.18660372133079706,0.0011411345318232528,1096.6824213660548,283.73517537051333,0.015999999999998182,0.9746535751331352,1.8998192842463606,Kristian,REC_20260514_174713.csv
right,84,loose,94.976,1.1039999999999992,0.6560000000000059,0.5942028985507304,1.1039999999999992,0.14492753623188406,16755.0,1.0836554428204102,31135.157651760815,937.5,0.3917530786773723,0.2798533119413248,0.48590419436167775,0.19145602795573677,0.4003902154921375,0.4781735930290271,4363.0,2452.8571428571427,20.400000000000006,465.70714285714286,0.18986313337216076,96.1,-15.830508474576272,80.26949152542372,1.1624219444262287,-0.21743014404273442,9017799.09885849,8191702.0,1629788.0,3400075.0,4006761.886699523,1265252.2722681002,1348751.699786094,0.7684292871817671,0.6758563942887468,0.5054663449536171,0.2121224727513904,-0.28951659871857494,0.42333487914523193,0.36,0.6428571428571429,0.9569823904649737,0.9830432732607464,0.8225824724126664,12.0,0.07155610618214062,0.009366744549963462,4.194931064027578,3.4001768188367407,0.057023878858474084,0.08725101921956901,0.05331974373907979,0.08207338380896914,0.05929528246942342,0.08186953989516599,0.13711706464764123,0.09974373907979034,0.0899009900990099,0.10906814210832848,0.09171228887594643,0.05162492719860222,2.781959061522601,0.07933079129235522,0.4443848036962784,0.057971014492753624,0.5382964473476951,0.12369118515054311,0.0006451130130965004,586.0685397914765,145.03252349169958,0.024440403706425272,1.9355824320586485,2.522675620812783,Kristian,REC_20260514_174713.csv
right,85,loose,96.096,1.1359999999999957,0.6559999999999917,0.5774647887323893,1.1359999999999957,0.15492957746478872,16472.0,1.0557361375680558,30622.858700650402,746.5277777777778,0.3119515256134632,0.3424330771269547,0.5507553670818977,0.2339860329754013,0.3626113495357116,0.6452805001132019,3773.0,2352.7638888888887,14.599999999999994,545.625,0.2319080986310427,78.18181818181819,-17.0,61.18181818181819,0.625533827114458,-1.2305317200902892,9484941.021366078,8272337.0,2817310.0,3687182.0,3972660.0742271678,1411542.106811849,1351008.2317312898,0.7394820681761665,0.6703114574980036,0.5852690984005683,0.2423723437153925,-0.2956661551743909,0.3580611678917008,0.34,0.8194444444444444,0.9699113252220979,0.966995518866141,0.8747048196038333,12.0,0.06880794900667185,0.00975753289492863,3.593075016873816,1.8171645029340482,0.05220219717944026,0.07995914969982114,0.03727885052450133,0.07459312038441786,0.05128719768121418,0.073920153011529,0.15041411106322944,0.1243749963104859,0.0828517287587294,0.11803493527116453,0.1096110366649154,0.04547252345055166,2.9398195541876393,0.10726938893289267,0.47800700448751066,0.056338028169014086,0.44270205192288387,0.20275072388470333,0.0006788216516544279,510.46286185511514,138.8721054674219,0.024440403706425272,1.5470296163485948,1.7211416663094354,Kristian,REC_20260514_174713.csv
right,86,loose,97.248,1.1039999999999992,0.6880000000000024,0.6231884057971041,1.1039999999999992,0.17391304347826086,17549.0,1.1619873451892062,32015.02028735887,854.1666666666667,0.3569305827949392,0.3300411522633745,0.5659807956104252,0.21990495505039806,0.3732844991978691,0.589108188319339,3645.0,2359.785714285714,0.5,514.1071428571429,0.21786179132487818,68.33333333333333,-15.982456140350877,52.35087719298245,0.7405624670258983,-1.0791965935136134,9320521.858235676,8332201.0,2229658.0,3532022.0,4101738.384979603,1136238.9123688089,1295469.4296169453,0.7180315541231724,0.6299686193702545,0.6330996847687569,0.20226672259233247,-0.43780350170137083,0.3301008744066481,0.38,0.8714285714285714,0.9770653568794516,0.9740777531368274,0.9009296823413734,12.0,0.07927285925690891,0.00961797470731055,4.047888095621541,3.8373836318401118,0.055386384962314975,0.07658685716015377,0.04083300541816751,0.07618125132427278,0.05218391500438902,0.08269515997215243,0.14563065653661048,0.11804340587825772,0.08563731573690106,0.11232254744680208,0.10186154917214033,0.052637951387837875,3.1350865714899205,0.12775210805344042,0.5005887888900592,0.11594202898550725,0.5165110746093273,0.09099873424251945,0.0007556331384122524,558.3389054448162,95.74355026682218,0.018475208614065847,1.1739632452342195,1.3359748897180206,Kristian,REC_20260514_174713.csv
right,87,loose,98.368,1.13600000000001,0.6880000000000024,0.6056338028168983,1.13600000000001,0.16901408450704225,16822.0,1.0902653136752078,30119.38553490094,1937.5,0.8096230292665695,0.3428019856591285,0.5397131825703254,0.22792999630475475,0.3555976907746082,0.6409771554139427,3626.0,2292.7361111111113,-0.5999999999999943,518.9513888888889,0.22634588707088207,80.91666666666667,-16.8135593220339,64.10310734463278,0.7651295368064525,-0.9808792427652566,8954311.104571976,8126951.0,2035402.0,3160616.0,4006043.627047031,1201684.3649159102,1275856.0369961215,0.7181718832762216,0.6551209076654901,0.597103170035541,0.307208027719274,-0.2955118161925102,0.34457176445140325,0.36,0.8611111111111112,0.9654850371071882,0.973968710703767,0.8539161652813462,12.0,0.0726196253880796,0.009834562049277748,3.4398060447106555,1.8050407505029114,0.05845756828631486,0.08317330700218685,0.04815934382136821,0.0683741526681488,0.057355052490655874,0.07117890439007252,0.14371475129787917,0.11894449257013393,0.07551627422354415,0.11917468817582096,0.1089855037346208,0.0469659613392538,2.5253364188123375,0.08738634333581419,0.4548905380761638,0.056338028169014086,0.4218858771596717,0.1396609089216044,0.0014592411050442465,549.3872344105891,658.7376912976924,0.018475208614069965,1.372587917696719,0.804384016038257,Kristian,REC_20260514_174713.csv
right,88,loose,99.52,1.13600000000001,0.6880000000000024,0.6056338028168983,1.13600000000001,0.18309859154929578,16534.0,1.0618527344784656,30288.230139775416,843.75,0.3525777708096351,0.3375,0.5431818181818182,0.2299110198494182,0.3549810217161346,0.647671300109614,3520.0,2232.0833333333335,14.799999999999997,508.88194444444446,0.22798519071619686,63.69230769230769,-16.017241379310345,47.675066312997345,0.6428144095152816,-1.2258739389928235,9027681.80587896,8115955.0,1368338.0,3709173.0,4096728.4800907583,1273162.2956924867,1365485.178031247,0.7397644876643803,0.654073669296471,0.5425424677988983,0.20564662676709788,-0.32679271447223734,0.34222168526713875,0.34,0.8611111111111112,0.9782958004638849,0.9708146366501491,0.9031957037878894,12.0,0.07313431247664243,0.009520772928124107,3.7592753176749234,4.894655671296121,0.058932238193018474,0.07914877730072802,0.039449940887312546,0.06919917864476385,0.05468234708481115,0.07265882645759442,0.14795594549187976,0.12103167195569658,0.0792918922282372,0.11940762864787505,0.1088793478937216,0.04936220521436127,3.0745186171113477,0.133139522811743,0.5033843846919763,0.056338028169014086,0.4510540594548505,0.1533878011341809,0.0006663529332561527,523.083486007076,628.4914054776399,0.018475208614074035,1.0534613352232198,0.7668592591763344,Kristian,REC_20260514_174713.csv
right,89,loose,100.672,1.13600000000001,0.7040000000000077,0.6197183098591563,1.13600000000001,0.18309859154929578,17118.0,1.1194671311829707,31856.717297926352,758.9285714285714,0.3171334446435871,0.3194483535040811,0.5817618913594146,0.21809774003166837,0.3787546183004655,0.5758285958599272,3553.0,2315.6666666666665,-4.099999999999994,501.15972222222223,0.21642135694064585,64.07692307692308,-15.137931034482758,48.93899204244032,0.7031390438857175,-1.1322418816965385,9244322.984160224,8443379.0,1585806.0,3413514.0,4147987.4701303034,1198630.716623286,1327358.7452846407,0.7161000628537377,0.6381213773663797,0.573370387452272,0.16294509742856578,-0.4044588326188088,0.3509397209729002,0.36,0.8472222222222222,0.9802505921892727,0.9740164725939161,0.9129562632865036,12.0,0.07445443555291326,0.009363534460042672,3.671457842803905,2.4645541665069572,0.055989395902307955,0.07784535291012908,0.03793603953745022,0.0772515714217168,0.05611534955136511,0.08092821841562306,0.14548846024662926,0.11632119380068134,0.08661412600163142,0.11250659757209347,0.101776546230987,0.05122714840938535,2.899360575378175,0.11806435865815397,0.4880565954940968,0.056338028169014086,0.4383666144142828,0.1567785885377631,0.0005631362532272384,292.0091322772527,657.332278923655,0.0,1.1171139225463274,0.8471128947220589,Kristian,REC_20260514_174713.csv
right,90,loose,101.824,1.1359999999999957,0.671999999999997,0.5915492957746475,1.1359999999999957,0.15492957746478872,16893.0,1.0972698036855157,31395.772008345328,1145.8333333333335,0.4788093183834551,0.3192868719611021,0.513776337115073,0.21953117818293244,0.3670231346713651,0.5981398921330617,3702.0,2266.3194444444443,11.0,492.9166666666667,0.21749655278075689,71.63636363636364,-15.2,56.43636363636364,0.7323493244805644,-1.047015914527632,9381728.70440688,8528900.0,2156354.0,3259576.0,4126442.7677163887,1230222.7012440837,1281562.050476271,0.7483764873276098,0.6548022164222327,0.5886195802050413,0.19559718969546402,-0.36765535937048777,0.36387274875379105,0.34,0.875,0.9729931390675297,0.9737367350903695,0.8843617284444765,12.0,0.06823448451654794,0.008903625451240786,4.657456232150711,2.0861891000619295,0.054616209590929984,0.07760992799142026,0.047066033399724226,0.07195342423778153,0.04973801133752107,0.08001838516929677,0.14670139420867168,0.11426382717940861,0.08770338593534549,0.11569787038455645,0.10526735100352383,0.04936417956182013,2.806545652731968,0.0960541703887954,0.4671198644944738,0.056338028169014086,0.4124955378964739,0.19835061333774012,0.0009678813715090659,294.55107084054896,203.36515180304627,8.236627820231227e-15,1.3063459816327063,0.9703649566855891,Kristian,REC_20260514_174713.csv
right,91,loose,102.976,1.152000000000001,0.6880000000000024,0.5972222222222238,1.152000000000001,0.16666666666666666,16333.0,1.0420231219140728,31283.5806933925,1384.375,0.5784887128469198,0.32164242942686055,0.5731394354148845,0.223630427197049,0.36545411494940433,0.6119247753653874,3507.0,2198.4657534246576,27.099999999999994,486.527397260274,0.22130315039130652,63.75,-12.4,51.35,0.8371624412286401,-0.9388760054730314,9217630.19507384,8147720.0,2256536.0,3672521.0,4071611.0013354453,1253924.8642256076,1280621.521370235,0.717951704275728,0.6613357608752818,0.5840436668159449,0.2000560280938145,-0.43825553999058264,0.3660223048126344,0.36,0.7808219178082192,0.9805624693775989,0.9738423082163576,0.9163740185105439,12.0,0.0705611845441031,0.009488707563876195,4.53504623682044,2.3416923899371795,0.052172125018692984,0.0756879018992074,0.046427147201036835,0.0717499127660635,0.05252106076466776,0.07903394646328697,0.14621030855889536,0.11527341608095308,0.08646129305617865,0.11469393350281641,0.1083570111160959,0.05141194357210508,2.599915863468371,0.08260467844022065,0.44547323907632075,0.05555555555555555,0.4153332416986388,0.2248865706030599,0.000753487364205755,404.237966219545,315.64237583417264,0.009237604307032994,1.433119036675922,1.2025483811550437,Kristian,REC_20260514_174713.csv
right,92,loose,104.144,1.1199999999999903,0.6559999999999917,0.5857142857142834,1.1199999999999903,0.17142857142857143,17185.0,1.1260770020377682,30593.681390117144,928.5714285714286,0.388022096975683,0.3272058823529412,0.5407239819004525,0.2227190901168523,0.3707786548945021,0.6006793734659601,3536.0,2214.1830985915494,3.200000000000003,487.66901408450707,0.22024782611461322,52.416666666666664,-15.655172413793103,36.76149425287356,0.7860362517392581,-1.0206354987435984,9088790.907115534,8106181.0,2120924.0,3521027.0,4127703.0604500286,1208950.6911305038,1278447.4716092385,0.7178714043017191,0.6578935114993947,0.5571871118059293,0.20659021908320807,-0.41369659111852897,0.36300696519614034,0.36,0.8591549295774648,0.9777198980206634,0.9729876172116098,0.8976165654875929,12.0,0.06137262462595442,0.008238676623479652,3.77843295920521,3.9255566166905,0.054291475570426254,0.08065162492764316,0.03753649646644233,0.07314559784233526,0.05601531738408595,0.08021907421425255,0.14537520593866685,0.11636250294198096,0.08074704052618523,0.11614622758528564,0.10635658717487134,0.05315284942782446,2.7386231969193826,0.07167810540128718,0.4406674948219857,0.08571428571428572,0.5127686685099805,0.21247205262620708,0.0006317374623005761,432.96805116926737,227.98456004881942,0.016000000000005343,1.493019330417209,1.2113052386881022,Kristian,REC_20260514_174713.csv
right,93,loose,105.28,1.152000000000001,0.671999999999997,0.5833333333333303,1.152000000000001,0.16666666666666666,16477.0,1.0562294115124438,30343.002966087584,372.7678571428571,0.1557684860455266,0.3212297906175457,0.5515504903260006,0.2287983173694557,0.3571287726237923,0.6406605541419025,3773.0,2292.5616438356165,0.7999999999999972,519.2465753424658,0.22649187067167792,66.5,-14.233333333333333,52.266666666666666,0.587680455281378,-1.3012783236196,8867924.972261041,8159937.0,1644449.0,3057991.0,4038916.5628687222,1220041.4472977156,1278492.6668115025,0.754470079261883,0.6714676091560856,0.5656892823392419,0.18394894063068423,-0.3148870439861198,0.370540727315711,0.34,0.863013698630137,0.9454309754772507,0.9704305861232903,0.7742342313058183,12.0,0.07446147193946598,0.008791136974629535,3.5998537989163513,4.843918336973545,0.05343069008168167,0.0740572548504096,0.04887157394073746,0.07163727839289662,0.049188262217893484,0.0752104781992985,0.14912432703741102,0.12087931786540151,0.08703549896329404,0.11791559361126215,0.1079189995040542,0.04473072533565969,3.163180014912676,0.11890858968194626,0.4950253677856541,0.05555555555555555,0.453787136833564,0.2014748712155083,0.0007427274669131443,456.05262854190426,506.6266734028434,0.01847520861407418,0.3374683460119403,0.3970121684331011,Kristian,REC_20260514_174713.csv
right,94,loose,106.448,1.152000000000001,0.6720000000000113,0.5833333333333426,1.152000000000001,0.1527777777777778,16109.0,1.0199244492054955,29200.39982602978,1250.0,0.5223374382364964,0.3202933985330073,0.5452322738386308,0.228812944622681,0.35813084112149535,0.6389087963099953,4090.0,2455.1369863013697,3.5999999999999943,555.6849315068494,0.2263356116613196,71.36363636363636,-15.524590163934427,55.83904619970193,0.7054873903730224,-1.0951795556488109,8867854.896231275,8003556.0,1718974.0,3409849.0,4036075.407221161,1237821.4082016146,1302225.975231196,0.7519033343002911,0.6836304571899059,0.5242070023711075,0.2366134234415358,-0.3247335324140893,0.3625893375575247,0.36,0.684931506849315,0.9741615291422224,0.9786264541774805,0.8917391341821957,12.0,0.06786537005520614,0.009103403340126952,3.5564127788863704,2.4824612024703896,0.05066257497558935,0.08585297810015345,0.06542056074766356,0.0657051192634956,0.06022039336030131,0.07168642767471056,0.13235318733435628,0.11602733993583486,0.07466592272283443,0.11580973636490445,0.11278560468684615,0.04881015483331009,2.5200172613897696,0.056023354268942255,0.4152234574957169,0.05555555555555555,0.43364293285207406,0.24857033324294955,0.0008167303050299598,546.8796333136872,443.8036669904652,0.01847520861407418,1.3571747316485627,1.3900134553290227,Kristian,REC_20260514_174713.csv
right,95,loose,107.616,1.1359999999999957,0.6560000000000059,0.5774647887324018,1.1359999999999957,0.15492957746478872,16453.0,1.053861696579382,31132.224398523147,640.625,0.26769793709620443,0.33125508267823256,0.5440498780157225,0.2350715972837319,0.35644867631138666,0.6594823123374032,3689.0,2258.0,-5.0,524.9305555555555,0.2324758881999803,59.63636363636363,-15.733333333333333,43.9030303030303,0.636266147134475,-1.1828885155418263,9140572.532653138,8005999.0,2318844.0,3751934.0,4060126.8702716357,1283643.9071558367,1367014.4435536796,0.7420454989598396,0.6686943039089497,0.5757307351636068,0.23258798647881096,-0.29981381392224615,0.3604248751979176,0.36,0.8611111111111112,0.9768407411938157,0.9687939983298407,0.9017344264212118,12.0,0.07184319061824673,0.009928182545506321,3.91808581960675,2.0721602097000726,0.05326739494144277,0.07479578781615982,0.041008512941639604,0.07328264934553685,0.04934922743824427,0.07888618246235607,0.14810919200866057,0.12282870780434997,0.08013482924908966,0.11846151953547877,0.11224288947938195,0.04763310697765968,2.871756312605188,0.0771919528280595,0.4404814000066329,0.08450704225352113,0.506193512786024,0.2325335600377161,0.0006243316830043419,205.88670023416302,449.5593346204568,0.009237604307037064,1.3670586976319563,1.3173728498415629,Kristian,REC_20260514_174713.csv
right,96,loose,108.768,1.152000000000001,0.6880000000000024,0.5972222222222238,1.152000000000001,0.16666666666666666,16381.0,1.0467585517801963,29563.03752999681,601.5625,0.2513748921513139,0.32028913260219344,0.503988035892323,0.23075186272296228,0.34776039043368007,0.6635369325267869,4012.0,2366.178082191781,-18.299999999999997,541.1232876712329,0.2286908545657699,71.25,-16.716666666666665,54.53333333333333,0.6479877245543351,-1.2203519093278012,8744274.380138526,7996225.0,1299921.0,3291341.0,3963350.6971404245,1171536.9727524184,1285391.3744290634,0.7666338739585237,0.6756660007445924,0.5119251723126603,0.22887162402683492,-0.2778095798124933,0.3724380452332218,0.36,0.7534246575342466,0.9760103597667581,0.9700221781587722,0.8972184604539395,12.0,0.06995447794799106,0.008762467643020258,2.8634601350986166,3.0263058665319704,0.05335463813675599,0.07397050905743613,0.0508478501253394,0.0693795554938025,0.04738581956915666,0.07610098939970242,0.14836942992282798,0.11868164950124759,0.08092351691358238,0.12268208949175308,0.11207021322171469,0.04623373916668114,2.8330001730395638,0.0824865124021396,0.4520421659814745,0.05555555555555555,0.5498853451753201,0.14094138419933722,0.0005712642812104066,181.4313460604644,363.6241101599059,0.009237604307037066,1.0502648152633076,0.7955578596588844,Kristian,REC_20260514_174713.csv
right,97,loose,109.936,1.1519999999999868,0.7039999999999935,0.6111111111111125,1.1519999999999868,0.18055555555555555,16913.0,1.0992428994630674,33142.970325545655,738.28125,0.3085055494584307,0.3337091319052988,0.5459413754227734,0.2381812911303404,0.3506540764908688,0.679248601680628,3548.0,2221.054794520548,-9.400000000000006,524.3561643835617,0.23608429908040732,61.23076923076923,-15.11864406779661,46.112125162972625,0.5809297750464434,-1.345677317894292,9335310.475183029,8315097.0,2074498.0,3701843.0,4082404.7628908996,1311695.1022499755,1311569.42328697,0.739466158957602,0.6477021921197427,0.5456866723817523,0.2155989775841154,-0.4352317069223828,0.3344020960445131,0.32,0.8493150684931506,0.9753276496815518,0.962796044665465,0.8921668393830263,12.0,0.06837592246069515,0.01015886211015318,3.5779694639704704,1.6351952420249347,0.05237546025891684,0.07122371821360947,0.034859409018299335,0.06950295120792908,0.04516550818135281,0.07975970938157237,0.1547765161560902,0.12524593399409142,0.08500218950640508,0.12156386265935597,0.11293535713624897,0.04758938428612839,2.9877444606758905,0.11195876366678395,0.4861606716915191,0.05555555555555555,0.4713961175881213,0.17275609018733645,0.0014232490175564833,288.61970364705263,70.42092334890717,0.009237604307032946,1.696743786106051,1.611643603547629,Kristian,REC_20260514_174713.csv
right,98,loose,111.104,1.1359999999999957,0.7040000000000077,0.6197183098591641,1.1359999999999957,0.18309859154929578,16898.0,1.0977630776299037,32985.31932542112,1181.25,0.4936088791334891,0.31294868386067537,0.5732517947354427,0.22415473378972228,0.3842276763026516,0.5833903896420702,3761.0,2322.9861111111113,-12.599999999999994,516.0972222222222,0.22216974081492327,59.0,-15.913793103448276,43.08620689655172,0.5794812216850427,-1.2571920590840582,9639003.660681015,8362745.0,2001194.0,4355469.0,4191698.808210824,1298213.9165942888,1413691.555430841,0.7461514654508534,0.6520645789451323,0.5122716809659688,0.1871799079859533,-0.38677346517795896,0.37657981934579315,0.36,0.7083333333333334,0.9774248492577517,0.9702959316008546,0.8996578077838847,12.0,0.07127148534043773,0.008779749661109655,5.2997063035537,2.2355124819096517,0.05577112791844787,0.07924426773489582,0.033057307703805563,0.08590475621057665,0.06255119428417684,0.07880780843622014,0.14683567008460136,0.11961974230964693,0.07771964963678214,0.11285163373292277,0.10453499148007533,0.04310185046784849,2.6685588905636393,0.0925977890902964,0.46432369221601977,0.056338028169014086,0.4656831463911372,0.14883278614828355,0.0007692543956960766,302.9130788416249,303.02665662016585,0.009237604307032994,2.2413545542844515,2.481539850320346,Kristian,REC_20260514_174713.csv
right,99,loose,112.256,1.1200000000000045,0.6880000000000024,0.6142857142857139,1.1200000000000045,0.17142857142857143,18406.0,1.2465344992572898,31631.78814104571,921.875,0.3852238606994161,0.3284794175301036,0.5505460655278633,0.2196113929381887,0.3611493515881846,0.6080902318449632,3571.0,2240.5774647887324,-2.200000000000003,488.5422535211268,0.21804300953602254,73.25,-16.689655172413794,56.560344827586206,0.6883067862247658,-1.1641948112457479,9174615.946398247,8247902.0,1984090.0,3494149.0,4181293.330561654,1300567.026154162,1278519.7558118324,0.7594946863353558,0.6399918651639787,0.5789961448208435,0.21760971724188294,-0.36062131869911784,0.33792397638232763,0.38,0.9014084507042254,0.9552257148015643,0.9686920742215982,0.8049706416762201,12.0,0.07311107443420298,0.00882187730523913,3.1957494989157205,2.5911164690763826,0.056474374689623526,0.07473551209761066,0.04038194378964176,0.07577900566378135,0.047522960001508664,0.07833745073264564,0.1542358924070128,0.11741817061748416,0.08477442309263834,0.12111440083982372,0.10219322232070455,0.04703264374752485,2.8138800534373813,0.10251446195230803,0.4779758552477123,0.05714285714285714,0.48021509595160555,0.14255909045711734,0.0005609265685046867,866.3465434416595,222.5621146034762,0.015999999999991132,1.179972101285555,1.5646958741583317,Kristian,REC_20260514_174713.csv
right,100,loose,113.392,1.13600000000001,0.6880000000000024,0.6056338028168983,1.13600000000001,0.14084507042253522,16056.0,1.0146957453949839,29794.197723717953,937.5,0.3917530786773723,0.3193137797454344,0.5677919203099059,0.21931445378785025,0.3787724524554722,0.5790137386334093,3614.0,2209.9166666666665,-5.700000000000003,481.1736111111111,0.21773382606181732,91.8,-14.540983606557377,77.25901639344262,0.8388271192625125,-0.8582375330298331,8831453.044722991,7871609.0,2185675.0,3354871.0,4020721.594175071,1264935.2745370562,1263873.6241063732,0.7479809074554047,0.6499482305542506,0.5473287923711826,0.22697319057331,-0.38005865644253234,0.3649222784801345,0.38,0.8333333333333334,0.977498624761264,0.9726567574263693,0.8990985185593311,12.0,0.0742607695008217,0.009802173517480042,4.0607237260350235,3.267473145803393,0.05325741292406702,0.08255716027502295,0.035446283796523245,0.07257060975149893,0.05405558278969795,0.08301595082770845,0.14666842641125233,0.11611800344407154,0.08657314881154393,0.1117437811883304,0.10319645034377868,0.05479718943650465,2.7804652884991694,0.09851546214848426,0.4786688542590589,0.056338028169014086,0.4947829147015694,0.13486840814184195,0.0010913542455892938,1190.6250459317482,145.44964406396235,0.009237604307032996,1.4058196870316664,1.9545663741309973,Kristian,REC_20260514_174713.csv
right,101,loose,114.544,1.152000000000001,0.7040000000000077,0.6111111111111173,1.152000000000001,0.16666666666666666,15692.0,0.9787854022435458,31884.074614139266,381.94444444444446,0.15960310612781836,0.3094425483503982,0.5602957906712173,0.21379697961976443,0.3967853477347148,0.5388227686332456,3516.0,2242.301369863014,5.799999999999997,474.66438356164383,0.21168625678119346,62.166666666666664,-12.316666666666666,49.849999999999994,0.9163667015856491,-0.5936985977676779,9211444.15953378,8148942.0,1966986.0,3817907.0,3920803.1063864473,1128915.9280150095,1299526.7155734198,0.7258863189010674,0.6213343449683256,0.6149567519688776,0.1867250687968015,-0.40710724933129805,0.3671696595802618,0.38,0.8904109589041096,0.9813386346666574,0.9753857052225421,0.9185338776370301,12.0,0.06595108463390065,0.00893906053014012,4.0785924428517415,3.882749719917811,0.054371731586921455,0.08372635746053467,0.032274815502663604,0.07584551097209324,0.05808000586481599,0.0886442500366551,0.14249670104100481,0.1157873515468452,0.0904892234006158,0.10123527686818826,0.09800962807291921,0.059039147646742576,3.0641297351419596,0.12676490712143942,0.5048051845190034,0.08333333333333333,0.4990302429951506,0.15524493574501352,0.0009530372920013849,1473.1367893036877,316.33608729645266,0.01599999999999821,0.2962122507656451,0.25090329728416105,Kristian,REC_20260514_174713.csv
right,102,loose,115.712,1.1359999999999957,0.7039999999999935,0.6197183098591516,1.1359999999999957,0.16901408450704225,16544.0,1.0628392823672415,30515.840181781,843.75,0.3525777708096351,0.32,0.5814765100671141,0.20450411075411074,0.3651838026838027,0.5600032346750716,3725.0,2351.5555555555557,-7.5,476.75,0.20273814023814024,74.25,-15.169491525423728,59.08050847457627,0.9151545535414317,-0.7456104082053283,8845288.617672632,7892378.0,2497217.0,3116634.0,3981356.153740917,1166962.509791421,1236444.8088613986,0.7566966366312996,0.6455833461982489,0.5413437913435611,0.25629582772429016,-0.43508325651164326,0.34883042619935134,0.36,0.8333333333333334,0.9745001213001595,0.9796084322391072,0.8886394474370536,12.0,0.08104729551235666,0.010875187872932,4.43624479154014,3.3331839074718914,0.06232871857871858,0.07414123039123038,0.05590861840861841,0.07619070119070118,0.04739770364770365,0.08013608013608013,0.14574867699867697,0.10783642033642034,0.08731808731808732,0.11041745416745416,0.09666769041769042,0.05590861840861841,2.3381619323667096,0.06027354972798073,0.41523233125692866,0.056338028169014086,0.4177383277330305,0.1568030428641387,0.0016561153921749749,427.50126705462617,297.40416073939355,0.0092376043070329,1.2607392224709948,0.9245527893157685,Kristian,REC_20260514_174713.csv
right,103,loose,116.864,1.1039999999999992,0.671999999999997,0.6086956521739108,1.1039999999999992,0.15942028985507245,17243.0,1.1317989797926677,32135.45955794004,867.1875,0.3623715977765694,0.32387312186978295,0.5598219254312743,0.22001677735939498,0.3711265429178729,0.592834928025671,3594.0,2264.957142857143,4.200000000000003,493.4428571428571,0.21785968829432278,70.36363636363636,-15.0,55.36363636363636,0.6734649877849814,-1.1533491954213466,9034027.39066918,8158716.0,2041511.0,3298672.0,4080702.966030819,1247829.7354277219,1302583.4080344848,0.7547036823847738,0.6488080548083389,0.5333434249778467,0.20896912947841306,-0.43887842181073533,0.34825352897455086,0.38,0.8428571428571429,0.9602847876729985,0.9699206012235894,0.8316964915610519,12.0,0.07631887828750755,0.009587555204426716,4.895747871650235,2.3427732099249,0.05286129665020467,0.07259046213425671,0.035415365790585754,0.0748673894807218,0.05012393801207213,0.08140172945561883,0.15392911881019508,0.11992658328445192,0.09214302383520342,0.11022598976959512,0.10009019407494306,0.05642490870215141,3.089621765946921,0.12367309130883153,0.49844156543583795,0.057971014492753624,0.4652298133384491,0.1644890279573676,0.0011444640920952405,776.7567186706385,273.64043028309925,0.02444040370643155,1.2295970346234504,0.729088378521851,Kristian,REC_20260514_174713.csv
right,104,loose,117.984,1.1680000000000064,0.7040000000000077,0.6027397260274006,1.1680000000000064,0.1780821917808219,16922.0,1.1001307925629655,28603.86851459082,1542.96875,0.6447602753231753,0.3299080584099513,0.5473228772309356,0.2384130601613916,0.36366014743843167,0.6555930360817811,3698.0,2324.3783783783783,13.700000000000003,550.1216216216217,0.2366747284946862,71.15384615384616,-15.283333333333333,55.87051282051283,0.6025874976060124,-1.2734556961281995,8814178.86016491,7962017.0,1666440.0,3393967.0,3918875.4091365645,1242707.9190683828,1359889.6218892667,0.7526537857782283,0.6561730467990319,0.5511150903464991,0.24227675768327184,-0.2896012385092799,0.34449040190164476,0.32,0.8243243243243243,0.9677353304746142,0.969985277369169,0.8693157965448628,12.0,0.06522352133869579,0.009033072583309739,11.332992091001513,15.995851148472724,0.056091718797237275,0.09518383293411782,0.03842933885258482,0.06319039092114137,0.06720773935489872,0.07069021650659287,0.14110136973558754,0.12209599776749377,0.06738796772168089,0.11693332713192717,0.1163170623938978,0.04537103788283993,2.795108637549807,0.0931152183550719,0.46718707409692184,0.0547945205479452,0.4286106389320137,0.1503896842133002,0.0007705291740712897,349.8871246559059,397.1012621925243,0.03200000000000362,2.126473741375931,2.488783690394584,Kristian,REC_20260514_174713.csv
right,105,loose,119.168,1.1679999999999922,0.7039999999999935,0.6027397260273958,1.1679999999999922,0.1780821917808219,16482.0,1.0567226854568317,30296.62875634845,1031.25,0.43092838654510957,0.3171180646857744,0.5824349198001578,0.23102885751251614,0.3755695561680823,0.6151426645690778,3803.0,2402.2972972972975,-20.200000000000003,550.6891891891892,0.2292344040051752,64.84615384615384,-15.516666666666667,49.329487179487174,0.5633990010992898,-1.3750170867265306,9224010.554229923,8134281.0,2635272.0,3459940.0,3974596.8427961017,1265431.3770141492,1264402.2198004466,0.7562578443427124,0.6575683782536974,0.5305720645684202,0.18935106472124796,-0.3502769572697969,0.36680290579025704,0.34,0.7702702702702703,0.9775984680536551,0.9727354164842159,0.9024796334265527,12.0,0.06565449322000043,0.008627954046706207,6.418076738443068,4.457111504059455,0.05023907295944197,0.08216234460257636,0.03824042301850706,0.07356696855487427,0.0634977780277887,0.07961410811723012,0.1381335433425212,0.11779827867469202,0.07672835686561286,0.11834392754683017,0.11323057883782413,0.048444619452101025,3.0050901676797546,0.12164465636371155,0.4957850725732119,0.0547945205479452,0.45972916994723206,0.16850039031492242,0.0007739605610481383,382.04755375909735,352.4799949073648,0.036950417228136134,1.6927558942660084,2.080008769769281,Kristian,REC_20260514_174713.csv
right,106,loose,120.352,1.1839999999999975,0.6880000000000024,0.5810810810810844,1.1839999999999975,0.14864864864864866,12677.0,0.6813412137776512,29299.55687378224,687.5,0.287285591030073,0.32917232021709636,0.5435549525101764,0.2461989693888789,0.3319692323744051,0.741631890484615,3685.0,2300.2533333333336,-18.299999999999997,561.6933333333334,0.24418759672847629,78.27272727272727,-13.825396825396826,64.44733044733044,0.5248306976408956,-1.345664771572533,8612015.309678102,7659028.0,1780061.0,3512475.0,3787505.214913336,1125068.720793977,1265466.6314797974,0.7454545456144117,0.6615436367274272,0.5626177110806172,0.21145851903200275,-0.30123567578642163,0.3368507442467656,0.38,0.96,0.9796778926019466,0.9673199969235079,0.9104781641480502,12.0,0.0703997614077487,0.010416677686382946,3.8545568541162893,2.1059537584994104,0.054011442217958595,0.07031689263211588,0.05146679496171436,0.06624197914432613,0.04601232328033434,0.07569021383152,0.14416962769318162,0.12471669787095913,0.07370782348610877,0.12629913226948913,0.12148227151791975,0.04588480109437221,2.6657197049423327,0.08231116603919676,0.45637503206219787,0.05405405405405406,0.4097769128295815,0.20774074029720974,0.0013783069452231085,2334.225424703731,430.4739488494291,0.009237604307032994,1.0497219428581812,1.488974222343786,Kristian,REC_20260514_174713.csv
right,107,loose,121.552,1.1359999999999957,0.671999999999997,0.5915492957746475,1.1359999999999957,0.15492957746478872,14926.0,0.9032158339633218,29529.449994877996,453.125,0.18934732136072996,0.312932138284251,0.4906530089628681,0.22761006098486,0.34996207409205377,0.6503849354964831,3905.0,2288.8194444444443,2.9000000000000057,516.1597222222222,0.22551351679359202,67.72727272727273,-16.8,50.92727272727274,0.7132036158734525,-1.037721454676462,8776642.206674146,7927809.0,1809382.0,3302337.0,3908228.460386692,1215558.7886603216,1335286.8087824848,0.7584345833726397,0.6742145998876232,0.5242253362400348,0.1889397526053498,-0.31400199753421465,0.374834151159187,0.36,0.7916666666666666,0.9741699892184071,0.972916069268121,0.889153450210529,12.0,0.061929211662734025,0.007997064602855809,5.981918089172952,2.3667424044265317,0.05397008404381201,0.07796353044691891,0.05521405382444856,0.06789647744166995,0.04843593555629722,0.0766103340513972,0.1460541885372736,0.11926332716405232,0.07905579659577051,0.11934828119785189,0.10834673382080767,0.04784125731970024,2.569902011900903,0.05721853673051255,0.41295497440423096,0.08450704225352113,0.5180961081088153,0.14056109856309648,0.0004869800584315649,1912.9890224462813,290.78176775433036,0.024440403706431586,0.4041693615743286,0.46409880172515966,Kristian,REC_20260514_174713.csv
right,108,loose,122.704,1.1680000000000064,0.7200000000000131,0.6164383561643914,1.1680000000000064,0.1506849315068493,15884.0,0.9977271217080406,30720.3071110951,789.5833333333333,0.32994314848605355,0.3369311551925321,0.5548424737456242,0.2313282744154482,0.3615275464248257,0.639863481227861,3428.0,2190.4054054054054,-4.599999999999994,502.2162162162162,0.22928002961317787,73.81818181818181,-13.451612903225806,60.366568914956005,0.8425320660412389,-0.8091607577238871,8940921.998380424,8080525.0,2050063.0,3231477.0,4004065.131608087,1354411.472186922,1169822.983273921,0.7120837845990635,0.6369407561782328,0.5519526189151653,0.22487683209494158,-0.40216206415918,0.35805217432455194,0.36,0.9054054054054054,0.9776890255162886,0.9673147649375541,0.8997576114488909,12.0,0.0648053833364893,0.0091756303951478,4.311725539266343,1.9323442194861826,0.05495095317416251,0.07193534456166328,0.03319760626812265,0.07685853538157814,0.05036091060521932,0.08090566968967858,0.1527731507187365,0.1213276574742427,0.08146708618668641,0.11528163366031217,0.1100006169412055,0.05094083533839225,2.5855564376602325,0.08521522748811042,0.45317711198501043,0.0547945205479452,0.43706636364440915,0.21788551594040445,0.0006375356558373885,1646.2388445585025,172.50935126290432,0.024440403706433144,0.39953225302210027,0.4011639151501273,Kristian,REC_20260514_174713.csv
right,109,loose,123.888,1.1359999999999957,0.6559999999999917,0.5774647887323893,1.1359999999999957,0.15492957746478872,16147.0,1.0236733311828434,28681.362397905716,715.7118055555557,0.2990744568236051,0.33620922081423565,0.5144243731464007,0.23829902525230756,0.3487109069525434,0.6833712984045982,3709.0,2255.5694444444443,7.5,532.7638888888889,0.2361992844871645,75.0,-16.45,58.55,0.720170234834867,-0.9098568302410062,8954181.531359134,8112290.0,1985312.0,3229033.0,3976849.7284624744,1213471.395379705,1381915.1341072796,0.7454122228016975,0.6735229484958084,0.5487821842855929,0.22405310915311927,-0.2860493092870764,0.36510436276582076,0.34,0.7916666666666666,0.9789654474263637,0.9707316193775994,0.9046356412501702,12.0,0.07321286685297612,0.009133848747134774,3.6940782421967455,3.897725355609637,0.0541437552724429,0.07498722298508015,0.044211550421487555,0.06482718702471045,0.050387620765881984,0.07715469732329235,0.14323187665100587,0.12269628881595557,0.08135417885357848,0.11969138121070684,0.115602736436352,0.051711504239505914,2.591860497862272,0.07260445406014877,0.43249904318526805,0.056338028169014086,0.4801324753920923,0.15710555741229223,0.0006906053172019732,642.6214541495744,176.82997631318923,0.01847520861407423,0.260333294931204,0.5700919536735837,Kristian,REC_20260514_174713.csv
right,110,loose,125.04,1.1199999999999903,0.671999999999997,0.6000000000000025,1.1199999999999903,0.18571428571428572,17343.0,1.1416644586804254,31398.10288855045,765.625,0.3199316809198541,0.3287207003671279,0.5679186670432081,0.23647838989165146,0.3601412860037769,0.6566267159074869,3541.0,2244.9718309859154,0.4000000000000057,526.5281690140845,0.23453664840990507,59.15384615384615,-16.49122807017544,42.662618083670715,0.5088373113468045,-1.3844929923718088,9384250.16812931,8169711.0,2820975.0,3655417.0,3972317.6793542164,1405682.764546025,1284538.9972179306,0.7185326773932735,0.6491284089501557,0.5384731898064464,0.1785577606472334,-0.298317456134793,0.3419417530628094,0.36,0.8450704225352113,0.9748527991629679,0.9679286961621614,0.8889027014271088,12.0,0.06917051908197626,0.009297223710325401,3.472614004074998,2.098862593988841,0.05122558707095042,0.07490291292591268,0.036011619079884316,0.07303332015835075,0.05347160791251812,0.07919419296957834,0.14663755622894356,0.12340567026155479,0.07953925203741695,0.12013701981893811,0.11307271963009669,0.049368541905855344,3.2572774101815876,0.12262104052412832,0.5053280144165686,0.08571428571428572,0.5549651519416832,0.1042275592098056,0.0007636300299666949,777.6316608780663,37.68804260412693,0.02444040370643937,0.49361273350887064,0.3633943272286925,Kristian,REC_20260514_174713.csv
right,111,loose,126.176,1.152000000000001,0.6880000000000024,0.5972222222222238,1.152000000000001,0.18055555555555555,15319.0,0.9419871659922097,32928.023581745685,1062.5,0.44398682250102195,0.3568855638681075,0.5317262399556664,0.24104114129689577,0.34669933646915746,0.6952454647055154,3609.0,2297.794520547945,1.7000000000000028,549.7808219178082,0.23926457174539018,78.0,-16.372881355932204,61.62711864406779,0.6745769008108321,-1.1550254575197565,9491071.746642157,8102516.0,2243097.0,4404338.0,3853721.083352351,1417313.5815825223,1270847.1748109479,0.7184731787905445,0.6573254866600945,0.5765333193171386,0.25047087853068906,-0.33720000618049417,0.3300893952662268,0.3,0.9315068493150684,0.9732024387359681,0.9626337547060739,0.8755174435333887,12.0,0.07095693706807964,0.01041070286925875,12.299140912786445,13.698022372123248,0.05261745926707564,0.0661921199005598,0.0387029849945451,0.07586190450640579,0.04429500593183458,0.07837771776390703,0.1532142197103834,0.12616028472805968,0.08197258836645026,0.12366831804171959,0.11488085656883612,0.04405654022022309,2.982948934166034,0.11980758191866009,0.489483160158117,0.05555555555555555,0.39884243422401733,0.17647831235215647,0.0009473853500733152,1017.5604814129296,187.47806289923037,0.016000000000005482,0.7551191023459906,0.37060622933187076,Kristian,REC_20260514_174713.csv
right,138,loose,157.424,1.103999999999985,0.6560000000000059,0.594202898550738,1.103999999999985,0.14492753623188406,15783.0,0.9877629880314054,30841.074138233253,679.6875,0.28402098204109494,0.3178381405768692,0.5267432091851022,0.21410369754017372,0.37006604607623905,0.5785553681836618,3571.0,2197.6,21.799999999999997,466.17857142857144,0.21213076603047482,81.2,-14.423728813559322,66.77627118644068,0.910144717709287,-0.7741755343421093,9388315.82311311,8357858.0,1528384.0,3993836.0,4240825.284010725,1314593.8574892916,1396751.5579687725,0.7324068328207411,0.6588740849386912,0.5688023298140841,0.2215682414209671,-0.4245261992672805,0.37326459387567296,0.38,0.8285714285714286,0.9746085772398857,0.9760326749022143,0.8876595680850247,12.0,0.0693392333919058,0.009592396316522553,3.8572219127229967,3.809545627516272,0.05695173956003953,0.07952181600707266,0.04839045192157679,0.07225414738155911,0.04715533829112279,0.08350018201674554,0.14498933901918978,0.1133639294815123,0.08763456237973895,0.1121938218316085,0.10073976805866139,0.053304904051172705,3.0013851862706926,0.09960650809184313,0.47534884810916245,0.08695652173913043,0.5425379479808693,0.1625179338517028,0.0006470303168807781,1203.0105291863883,611.121180801402,0.009237604307045346,0.8765797541851176,0.7012248834952453,Kristian,REC_20260514_174713.csv
right,139,loose,158.544,1.103999999999985,0.6559999999999775,0.5942028985507123,1.103999999999985,0.15942028985507245,17942.0,1.200758677218094,30783.670135316876,736.1111111111111,0.307598713628159,0.3251151449471688,0.5256028176645895,0.22356039928998148,0.3747065447674308,0.596627954359519,3691.0,2245.4142857142856,10.399999999999999,497.5642857142857,0.22159130672672558,77.63636363636364,-15.982758620689655,61.65360501567399,0.8066706228956095,-0.8573413783620496,9352902.077793075,8218580.0,1726305.0,4117231.0,4103992.5380215994,1309377.279812918,1458667.1336984239,0.755188924485775,0.6607290133502932,0.5825114769055068,0.22004029982185214,-0.32692480729417506,0.373430254239275,0.36,0.8857142857142857,0.9746079323751677,0.9712648331347893,0.8836763831790025,12.0,0.07094732190736128,0.009628780299226621,4.445460668551039,2.9956080565447536,0.051826261777972886,0.0742401974818519,0.03824938445975608,0.07231882121657474,0.04814256357401434,0.08688819753274929,0.14615820179540526,0.11651683749101344,0.09311676496224051,0.11159887771267155,0.10704356179896807,0.05390033019678201,3.076123893792868,0.13022386797002086,0.501221505531777,0.057971014492753624,0.46162808526690974,0.13766559185951716,0.0006442855278747111,1079.8936676049707,160.61686466604027,0.0,0.6865377400232233,0.6859182021155472,Kristian,REC_20260514_174713.csv
