foot,step_id,surface,contact_time_sec,stance_duration,time_to_peak_frac,impact_mag,impact_mag_norm,accel_mag_strike,loading_rate,loading_rate_norm,heel_pmax_ratio,fore_pmax_ratio,heel_mean_ratio,fore_mean_ratio,heel_fore_ratio,total_pmax,total_p_mean,midstance_diff,heel_impulse,heel_impulse_norm,rise_slope,fall_slope,slope_asym,heel_skew,heel_kurt,gyro_mag_strike,gyro_x_strike,gyro_y_strike,gyro_z_strike,gyro_x_std,gyro_y_std,gyro_z_std,gu_dip_depth,gu_load_first_frac,gu_push_peak,gu_load_slope,gu_unload_slope,gu_fore_early_frac,gu_fore_heel_toff,gu_stance_frac,gu_spatial_entropy_ff,gu_spatial_entropy_stance,gu_participation_ff,gu_active_sensors,gu_cop_wander,gu_press_jitter,orient_range_a,orient_range_b,pressure_01_mean_ratio,pressure_02_mean_ratio,pressure_03_mean_ratio,pressure_04_mean_ratio,pressure_05_mean_ratio,pressure_06_mean_ratio,pressure_07_mean_ratio,pressure_08_mean_ratio,pressure_09_mean_ratio,pressure_10_mean_ratio,pressure_11_mean_ratio,pressure_12_mean_ratio,accel_spec_centroid,accel_hf_frac,accel_spec_entropy,accel_zcr,accel_jerk_ratio,gyro_hf_frac,heel_ripple_frac,impact_mag_roll3_std,loading_rate_roll3_std,stance_duration_roll3_std,orient_rest_a_roll3_std,orient_rest_b_roll3_std,source_user,source_recording
right,0,modular_paved,0.8,1.008,0.015873015873015872,19880.0,1.0715516324000767,35179.330920300345,718.75,0.21067718693632337,0.23739837398373984,0.4219512195121951,0.14349232012934518,0.38419975912757987,0.3734836285558357,4920.0,3788.3125,-14.300000000000011,525.90625,0.1388233547258839,13.0,-0.9516129032258065,12.048387096774194,1.310299301121127,0.09910393649736937,8992663.641778948,8443379.0,1875356.0,2461786.0,4172497.2053567315,996379.0791613702,928823.1352433135,0.4096252332302045,0.5840267652161395,1.1717618332697812,0.04989028756206104,-0.10532394040879545,0.4837842085365139,0.4,1.0,0.9912318116148627,0.9940162010912392,0.9570967649014356,12.0,0.030080737604857927,0.0037756125789884716,9.244013301511785,5.890538229002459,0.10166548430204742,0.08495289789319123,0.06583983633873922,0.0791785590549882,0.06755563987923383,0.07652236318941481,0.11231089040304885,0.06620279477999769,0.07599029911075182,0.09308234207183277,0.0772895253493475,0.09940936762740667,4.662356054101872,0.25961984437269564,0.5847082682103382,0.09523809523809523,0.4432257741689924,0.22146988648990765,0.002133838470869075,0.0,0.0,0.0,0.0,0.0,Sam,REC_20260831_184100.csv
right,1,modular_paved,1.824,0.9919999999999998,1.0,18956.0,0.9936295937000197,36596.64052887915,789.0625,0.23128691174531155,0.23954612313511242,0.41920571548644675,0.14194457887095757,0.3864035180002946,0.367348050052567,4759.0,3771.9841269841268,4.900000000000006,517.515873015873,0.13719990742104488,0.4032258064516129,0.0,0.4032258064516129,1.2520866517839577,-0.009165786983612367,9244705.078057276,8638856.0,2125811.0,2513099.0,4293757.514044716,1134110.5222874454,970832.9666083421,0.38537560476126864,0.5872404358941951,1.128848864855467,0.02318922477147689,-0.09694459389998322,0.47485646553975214,-0.62,1.0,0.9887060072128208,0.9939299497594855,0.9453822903803492,12.0,0.02804850834269612,0.0032320111194216986,10.717025271203351,3.9769987518223218,0.09824731205420077,0.0833126433395754,0.06568056052349192,0.08106129147642394,0.06827697940118249,0.07766532707724032,0.11584993793001873,0.0664127758958066,0.07608727670587245,0.09269678288130959,0.07553180297515098,0.0991773097397269,4.434848409282073,0.2269003692011264,0.5813279789105134,0.08064516129032258,0.5220892261396926,0.18176494234850618,0.0028909008016246678,653.36666581637,49.71844555217912,0.011313708498984928,2.144993513588703,0.9779516778388473,Sam,REC_20260831_184100.csv
right,2,modular_paved,2.832,0.992,0.0,23531.0,1.379444882718159,37246.75134827197,750.0,0.219837064629207,0.23947151114781173,0.40978530140379854,0.14592278266686176,0.3770772800434792,0.3869837574142205,4844.0,3796.746031746032,-8.900000000000006,535.8174603174604,0.14112544158531742,0.0,-0.4032258064516129,-0.4032258064516129,1.108290057996605,-0.32751696191109625,9791686.002673544,8884424.0,2855184.0,2965139.0,4300852.913690118,1126151.9756595981,1000826.6042365731,0.39849494144984954,0.5841895054299763,1.146508079181955,0.04645761228882561,-0.10947612975662535,0.4724290843094678,0.36,1.0,0.9886718185299669,0.9936318904529103,0.9458081211007915,12.0,0.030629152670019054,0.004344571265469213,21.01670565569801,14.754732189298522,0.09585066577478626,0.07833357720688142,0.06786095027069965,0.07989297435147055,0.06453730220113296,0.07684107109262317,0.11866050711762369,0.0693492756955622,0.07747235519137106,0.09542841614582244,0.07657350697129957,0.09919939798072702,4.9768655584718795,0.3244710668471668,0.6247820066933447,0.0967741935483871,0.47862363092849786,0.21932427127183862,0.0026529477679538044,2419.1665920312307,35.22851369392886,0.009237604307034093,1.6027109312703787,1.824258056994358,Sam,REC_20260831_184100.csv
right,3,modular_paved,3.84,1.008,0.0,18836.0,0.983509848414298,36330.79037125397,520.8333333333334,0.1526646282147271,0.23769633507853402,0.4278534031413613,0.13808638028250886,0.38752377077087885,0.35633009042961894,4775.0,3763.15625,22.19999999999999,502.265625,0.13346924539739746,0.0,-0.7301587301587301,-0.7301587301587301,1.2600444470082866,0.028325509175499697,9101743.983721636,8582656.0,2065946.0,2216219.0,4123887.6210407517,802958.956962093,876832.6050160935,0.3855497387041408,0.5861608886647927,1.0998746065882596,0.03659542058989684,-0.09418385734806445,0.4808342838527693,0.34,1.0,0.988189476532107,0.9934553502000393,0.9436499041599523,12.0,0.028642753211744785,0.003792997554076819,14.093239586734612,9.559476503887595,0.0966318167097101,0.08217420549571919,0.0662342946828211,0.08229046428779034,0.06696506423298262,0.07830029645991979,0.11746290098903016,0.06444058760515192,0.07779374029446691,0.09500004152099717,0.07364579267735694,0.09906079504405378,4.922476987488127,0.23495291480128733,0.5939744346454747,0.06349206349206349,0.5326152371544316,0.17444688314840334,0.0028277311394855477,2676.6910542683104,144.90808918532667,0.009237604307034068,1.298520395720008,1.9060036708290202,Sam,REC_20260831_184100.csv
right,4,modular_paved,4.864,1.024,0.015625,14434.0,0.612283858849741,35288.29813125025,0.0,0.0,0.23508699254349627,0.408036454018227,0.14093645025284884,0.38285074439831673,0.368123746172274,4828.0,3805.8615384615387,19.19999999999999,519.3153846153846,0.13645146555313462,23.0,-0.4444444444444444,22.555555555555557,1.1987368288964884,-0.2543932843319343,8867677.594135119,8236906.0,2514321.0,2113593.0,4166358.8018042715,1154926.4767967116,1000383.0997956102,0.382464170777689,0.579169184150594,1.1663587745215849,0.05493674179684538,-0.1027845257942347,0.4785770717062959,0.32,1.0,0.9873893878834785,0.9937445829998691,0.9401489988093225,12.0,0.027904486469285356,0.0039003546155492418,15.536637280881356,11.84099881457989,0.1000642733273776,0.08136841552099797,0.06789122850986938,0.08189796306102731,0.06596302868854116,0.0779890128991313,0.1153968979024258,0.06599940981724546,0.07563232422861901,0.09385522736184265,0.07493704043560337,0.09900517824731891,4.551026414717771,0.2706460607702655,0.5971190957623201,0.09375,0.4834681840112629,0.20405898416536333,0.0035987074499329997,4549.286354290454,384.33594727838096,0.016,1.3125051891380835,1.6652031676269987,Sam,REC_20260831_184100.csv
right,5,modular_paved,5.904,1.008,0.015873015873015872,17396.0,0.8620729049856378,35705.7095294296,687.5,0.20151730924343975,0.24104509060261273,0.4186683522966709,0.14813483703061098,0.3757632089891354,0.3942238981538766,4746.0,3782.34375,-28.30000000000001,542.640625,0.1434667658115421,13.0,-0.24193548387096775,12.758064516129032,0.9867810430818788,-0.6907729685954078,8734620.284495544,8274780.0,1726305.0,2200336.0,4156897.531138705,1078337.1334754482,787709.346338303,0.37941938253420304,0.5818104431811015,1.1714958483080309,0.031952977001921345,-0.10209089460542975,0.46974752561361305,0.36,1.0,0.9889623151340992,0.9938595542928076,0.9471628376205327,12.0,0.02835902198531012,0.0032966663889566553,16.83901596160908,11.752802924282776,0.09997108274466064,0.08117486677407361,0.06797207419341512,0.07928285206758376,0.06364274796546454,0.07606064361548312,0.11584665592597182,0.07013673730739042,0.07560209856653034,0.09481141818482257,0.07799809972322055,0.09750072293138348,4.053523880600072,0.22285508371537777,0.5403418810872703,0.07936507936507936,0.4462102634524271,0.22597539520849072,0.0023727737507517337,2244.4244993613265,358.6319814909822,0.009237604307034011,1.2019143415675424,0.7333562961806711,Sam,REC_20260831_184100.csv
right,6,modular_paved,6.928,0.976,0.01639344262295082,20617.0,1.1337037346965506,36133.94909223181,417.96875,0.12251336414231849,0.23423609675418647,0.4440769071738681,0.13854747187094646,0.3852465596572544,0.35963324888381865,4837.0,3817.3709677419356,-31.099999999999994,510.7016129032258,0.13378359536414605,6.0,-0.08333333333333333,5.916666666666667,1.2034606119883022,-0.12152308007987234,9205988.965380417,8778133.0,2008524.0,1913229.0,4227602.813327638,885230.8395521838,699225.6577293125,0.38856498788093685,0.5907849697600666,1.07980074109412,0.031237440365846636,-0.09026406694111766,0.46779765742190776,-0.6,1.0,0.9882623036228964,0.9931115517392639,0.9441313769514403,12.0,0.03015909081271492,0.00442483154508776,10.442868024128472,6.442238762746328,0.10134064569011776,0.08275835843787102,0.06564642952209129,0.08152460948888146,0.06480984633065316,0.07895993273533128,0.11571889114700626,0.06450985942867282,0.07719381266451747,0.09274665472352615,0.07403761244227365,0.10075334738905765,4.26074722906542,0.2552403169437414,0.5618130304772274,0.08196721311475409,0.43456542660303604,0.22497753203141704,0.003253756124974802,3092.4039731790112,346.4104551691835,0.024440403706431132,2.3289853756658876,0.9560991165388065,Sam,REC_20260831_184100.csv
right,7,modular_paved,7.92,1.008000000000001,0.0,4795.0,-0.20058468122585318,36593.391397901345,625.0,0.1831975538576725,0.23724963865372703,0.41647739004749124,0.14364293894774866,0.38222411960051067,0.3758081491502454,4843.0,3806.421875,-12.300000000000011,529.0234375,0.13898181937597234,0.0,-0.42857142857142855,-0.42857142857142855,1.1936016166597996,-0.1619878614795458,9061398.212461585,8706051.0,643851.0,2428800.0,4253499.281053079,1109715.3031799863,951612.2518596236,0.39167379742745767,0.5847565854430604,1.1128561518155125,0.07183349098121194,-0.09772957707161689,0.4678850425905153,0.42,1.0,0.9913824322021167,0.994120969798549,0.9581795084273673,12.0,0.029541992332283353,0.003643790923840095,17.899748048789107,8.261358818739282,0.09793892722414012,0.08233618350567093,0.0690609208943767,0.08022626236089503,0.06540755548805267,0.07738977303980527,0.11655056627163798,0.06762830906650356,0.07686434520608676,0.09333732877415224,0.0760146298812451,0.09724519828743365,4.639717231832389,0.328789674407,0.623194480985648,0.1111111111111111,0.46011162724010063,0.2540736945021588,0.002785403107353738,8361.576067544525,141.07638782064447,0.018475208614068223,1.2269537684224736,0.5864558486244369,Sam,REC_20260831_184100.csv
right,8,modular_paved,8.944,1.0079999999999991,0.031746031746031744,14984.0,0.658666024742632,33945.771150468805,407.98611111111114,0.11958729210153622,0.23784686000417274,0.4216565825161694,0.14482119756618117,0.3795190310430244,0.38159139784919976,4793.0,3828.859375,-15.800000000000011,537.1953125,0.14030165641693226,8.0,-0.8032786885245902,7.19672131147541,1.0755485409194292,-0.46834568556259226,9013502.393954251,8553335.0,1424537.0,2460565.0,4169154.9178507244,831308.2820294272,887077.3369374536,0.382979992740477,0.5821965805605184,1.160658975624781,0.048466504093371165,-0.09618679565258736,0.4716328027490216,0.32,1.0,0.9896307435164107,0.9941629771147006,0.9502918474778485,12.0,0.02874580266391809,0.0035183683589370906,9.593165479102552,3.8492806162189908,0.09955641162715724,0.08164964272160034,0.06957032732496216,0.07945414553126542,0.06507323084959211,0.07723824409194971,0.11438213893661216,0.06682391541214543,0.07610376784861679,0.0944757536309361,0.07799728215403576,0.09767513987112676,4.9869446226476235,0.30217472012897445,0.6350402033755004,0.06349206349206349,0.45455937793494083,0.2535429232762885,0.0016661284421844497,8019.58118191551,122.51300579015255,0.018475208614067973,0.4822023537071522,0.3051396841480311,Sam,REC_20260831_184100.csv
right,9,modular_paved,9.968,1.008000000000001,0.9841269841269841,19741.0,1.0598295941107825,35622.34931893179,854.1666666666666,0.2503699902721524,0.23636749416507533,0.4319966051347337,0.14565764348175284,0.38092018456142074,0.3823836314931908,4713.0,3813.09375,-14.300000000000011,538.203125,0.1411460510248404,0.41935483870967744,0.0,0.41935483870967744,1.1225540159672962,-0.31435677557928354,9436093.761610098,8586321.0,2425134.0,3071430.0,4142976.5865437817,1014302.9038175504,1136668.739353518,0.3723439731063982,0.5808642428064578,1.1722764487494775,0.028360922713434045,-0.09620984085614115,0.4729156334131914,-0.64,1.0,0.992869418730501,0.994717030889872,0.9650466842319698,12.0,0.02835267307078408,0.0032803223339645813,5.014679020226238,5.75639689794734,0.09795195830157598,0.08477368278710692,0.07140691203828912,0.07817634958490072,0.06597742974454798,0.07676673304977094,0.11228169383456675,0.06683795146657488,0.0752259893950942,0.09491964366205263,0.07881969201517797,0.09686196412034191,4.542003860292197,0.22734387601123246,0.5697850798018802,0.07936507936507936,0.5126409848141318,0.21029169728243247,0.0019971330132316093,7635.74582692047,223.1178601986159,1.041481514324134e-15,1.1100218042609504,1.0388684557614438,Sam,REC_20260831_184100.csv
right,10,modular_paved,10.992,0.9759999999999991,0.03278688524590164,21512.0,1.2091801682858916,35984.72046577547,887.5,0.26014052647789493,0.22703144140465495,0.4085340955492038,0.14711479886566536,0.37783426110702656,0.3893633108721491,4898.0,3839.1129032258063,-6.199999999999989,547.3387096774194,0.14256905787207227,8.0,-0.7457627118644068,7.254237288135593,1.0410280006004338,-0.47601422787007985,9395871.350995233,8952840.0,1170417.0,2599842.0,4220058.006234428,1039419.015666023,898378.74122827,0.37997592545365066,0.5835572258011494,1.1502657283895754,0.04630108739219718,-0.08910434292399683,0.46575673622591646,0.38,1.0,0.9918174889747028,0.9943157912339697,0.9604535667678551,12.0,0.030517912296554428,0.004138180526699426,13.76567714393822,4.611584568033507,0.09718306900535659,0.0803613065854427,0.06971116479361411,0.0790841298182964,0.06507299653397752,0.07748345761999789,0.1155214788362567,0.06937086440499947,0.07583237054931205,0.09381367503413508,0.0777439344606659,0.0988215523579456,4.398932777710669,0.2938865505924205,0.5660816925918221,0.08196721311475409,0.4390556685146891,0.22254482127349773,0.002859729458663597,3375.901706704941,267.7442090579245,0.01847520861406857,1.6333874181199617,0.9546685961402875,Sam,REC_20260831_184100.csv
right,11,modular_paved,11.984,0.9920000000000009,0.0,20234.0,1.1014048809929557,35294.08638851557,600.0,0.1758696517033656,0.22029753413490932,0.40289382514774813,0.13991090103591958,0.3884368978408735,0.3601895232237743,4907.0,3855.1746031746034,-22.0,522.5396825396825,0.1355424167064675,0.0,-0.6451612903225806,-0.6451612903225806,1.1829258718619484,-0.12925258268974416,9028890.595058786,8652295.0,829554.0,2443460.0,4250827.237633289,496838.0803018076,968799.4045031784,0.38585944480972756,0.5840725388670723,0.9934699188060467,0.04723045034149065,-0.09797592186957016,0.4623210432444381,0.44,1.0,0.9914825807252726,0.9943398340326796,0.9594477408544821,12.0,0.028233793573947837,0.0033729846600277875,9.906314644165585,2.9780024578500672,0.09756418913354964,0.08484576491707702,0.06920403827467514,0.0788468189528813,0.06692715624433868,0.07880564567927666,0.11289711622391672,0.0643332400072465,0.07901151204729985,0.0909970519936099,0.07557766102867305,0.10098980549745548,2.678505514796038,0.06966790525711011,0.4771513933881568,0.03225806451612903,0.4532081524169217,0.2518452413899042,0.0027401911663968073,914.0362866611631,157.2514205317693,0.01600000000000093,0.5476068371006757,0.22721243177546094,Sam,REC_20260831_184100.csv
right,12,modular_paved,12.992,1.0239999999999991,0.015625,17147.0,0.8410744335177653,35363.09898750391,707.8125,0.2074712297438141,0.23318872017353579,0.4303687635574837,0.14905958153005108,0.37649279229442584,0.39591616248891814,4610.0,3782.276923076923,-16.400000000000006,547.5384615384615,0.14476424457388304,8.0,-0.47619047619047616,7.523809523809524,0.8313152729600612,-0.868107025894552,8960668.741480293,8536230.0,981049.0,2542421.0,3889135.0692671705,928815.5709302253,824766.0845450817,0.35552987486801046,0.5812237519175937,1.0861182519277335,0.04568029092472714,-0.09865021958147768,0.44245194347515443,0.38,1.0,0.9901350484301477,0.9937562820284056,0.9523916411687772,12.0,0.027485820201426585,0.0034723315748521545,11.248376215812009,6.7440761262078155,0.09775959129218054,0.08088737756662653,0.06759867885848167,0.0796060980768605,0.0633765578731574,0.07701099866584231,0.11719843155120237,0.068424392307442,0.07561176011193908,0.09479027691907195,0.0806351892226091,0.09710064755458657,4.2496154237629264,0.3173368004520542,0.6198753063774748,0.0625,0.6274834033818408,0.3393360366789659,0.0022801102394711366,2244.106280905607,145.2396770930156,0.024440403706430986,2.2379995822748966,0.3104535187662048,Sam,REC_20260831_184100.csv
right,13,modular_paved,14.032,1.0239999999999991,0.03125,18650.0,0.9678242432214295,33156.9971348432,543.75,0.15938187185617508,0.22716726429023412,0.42206285593756593,0.14436397415120816,0.382451935643425,0.37746958688609106,4741.0,3825.8,-14.900000000000006,536.2384615384616,0.14016374654672528,8.0,-0.7903225806451613,7.209677419354839,1.0227326662921379,-0.5299435695034642,9755311.329849038,9270490.0,1846034.0,2411695.0,4198703.96602886,947505.6756660036,925930.7376580954,0.3718069037088728,0.5833239044664458,1.0627842542733381,0.04279217045173378,-0.09388459236481106,0.4644540604539364,0.34,1.0,0.9921174541691052,0.9942414771116114,0.9612806862937097,12.0,0.02977035358733936,0.0036799297643256815,12.694377350975891,8.013347542808845,0.09779754460605523,0.08225931630186949,0.06886443056655822,0.08020444190656957,0.06665674750781134,0.07714826863763033,0.11566409438749864,0.06673315183953482,0.07618316128954426,0.09185007057347482,0.07763082231167337,0.09900795007177986,4.7827362475723545,0.30486812191284507,0.6341999552619052,0.0625,0.5009282479764645,0.244925429943162,0.003055412768815685,1543.677103542057,83.37075982471377,0.01847520861406703,2.58515575816224,0.5626793049609975,Sam,REC_20260831_184100.csv
right,14,modular_paved,15.072,0.9920000000000009,0.0,21655.0,1.2212395314180433,35701.68213123858,695.3125,0.20380727866666065,0.23067357512953368,0.4192746113989637,0.14416770979319066,0.38694518491410324,0.37257915439649775,4825.0,3816.873015873016,0.5,532.8333333333334,0.13959943941479563,0.0,-0.46774193548387094,-0.46774193548387094,1.2034486258018964,-0.042219473997983314,9491826.423924217,9017592.0,1744631.0,2394591.0,4249524.930194352,966930.1805360104,916333.4353626654,0.3791108009409795,0.5856904638706447,1.0644839330788227,0.03039136998206815,-0.10939609954840235,0.47238821587312285,0.4,1.0,0.9925397161892354,0.9943977408052659,0.9633851608028884,12.0,0.029131735865106187,0.004229926917513436,6.125680002512249,5.395955459052402,0.09720414367283116,0.08468246674124502,0.0665091926824501,0.08071512041353555,0.0680645255195186,0.07741315711772705,0.11443340555511658,0.06687099470604625,0.07606991512207699,0.09241754448709365,0.07729671508714438,0.09832281889521464,4.84346257719291,0.2584076018203745,0.6030083609395239,0.06451612903225806,0.49507160877665746,0.21973556976506228,0.0030851158241025785,2295.324886227073,91.32720050501625,0.018475208614066985,2.5101171712658306,1.2259477541733232,Sam,REC_20260831_184100.csv
right,15,modular_paved,16.08,1.0080000000000027,0.0,19468.0,1.0368071735857656,35797.57638444257,859.375,0.25189663655429967,0.2288473651060256,0.425992021834978,0.14605901366034252,0.38734814463699774,0.37707425653767546,4763.0,3823.796875,-0.6999999999999886,541.625,0.14164586083040825,0.0,-0.31746031746031744,-0.31746031746031744,1.0856654534766437,-0.3313436035832429,8990288.319904596,8647408.0,702495.0,2356718.0,4201780.349750956,977282.7266279929,769695.7801804285,0.3654354359454992,0.5761753454323892,1.153826979891249,0.053536914330532204,-0.09844366312697339,0.4645319255842196,0.4,1.0,0.993954766590078,0.9947242889384267,0.9696459603615711,12.0,0.029271878478885644,0.003486034397541335,18.35100329883158,11.385368193606652,0.09600241906155123,0.08413185519955214,0.0664669851219542,0.0793345946233088,0.06962157214483314,0.07717296698716508,0.11539168774491977,0.06881249412601186,0.07708715568213859,0.09110708842242045,0.07724651953433065,0.0976246613518141,4.610853674246296,0.27991879530895236,0.5980847788292487,0.09523809523809523,0.4443630818851659,0.2383803865286327,0.0021067243148098153,1553.604303976184,157.85374873465454,0.01599999999999907,1.6953182542563758,1.1711450561675358,Sam,REC_20260831_184100.csv
right,16,modular_paved,17.104,0.9759999999999991,0.01639344262295082,21009.0,1.166761569296575,35932.25666445123,578.125,0.16945773731834707,0.22129308586579646,0.4095451764225984,0.14110276536242047,0.3925074140101557,0.35949070087801055,4903.0,3817.967741935484,-3.1999999999999886,521.6129032258065,0.1366205632113014,40.0,-0.13333333333333333,39.86666666666667,1.2008468842155358,-0.1734902568431358,8961861.890029382,8440935.0,1503950.0,2608394.0,4247629.183715739,964041.2391447069,919596.881363068,0.3902839479029643,0.5832959612269327,1.079370041484378,0.06294619202056184,-0.09295467724503848,0.47103257540690446,0.42,1.0,0.9895714483043541,0.9945014536913026,0.9494615882344944,12.0,0.02859169996161261,0.0035743917350143854,11.109328384750597,5.549101300935732,0.09653843879111501,0.08522520847943087,0.06627406912983601,0.08017269785479525,0.06992404336034201,0.07901518287891718,0.11408704174658026,0.06553900487508132,0.0781702814366704,0.08955955287815676,0.07556376048733915,0.09993071808173577,4.508513158926566,0.3081442763328492,0.578480970781122,0.06557377049180328,0.43891143145174555,0.17855583500593797,0.0035304509676924124,1123.6077310758076,141.2745415626967,0.016000000000001735,1.153002124199985,0.7009832273000242,Sam,REC_20260831_184100.csv
right,17,modular_paved,18.096,1.0079999999999991,0.0,18592.0,0.9629330329999973,35402.013021860774,562.5,0.16487779847190526,0.22630718954248366,0.40665849673202614,0.14301121656600518,0.3871628111416804,0.36938262779989656,4896.0,3839.1875,-17.099999999999994,531.921875,0.1385506373418855,0.0,-0.38095238095238093,-0.38095238095238093,1.175582915045921,-0.22552194475670673,9136920.730892656,8602204.0,1447750.0,2718350.0,4189337.994400464,958711.6746336953,984882.8488548894,0.387837364658589,0.5833446132264368,1.0921581714878235,0.05931314521997866,-0.09912811723088011,0.46816016863918675,0.4,1.0,0.9923334045173664,0.9942642805962971,0.9626065578928201,12.0,0.02755045912091866,0.0030020911738570665,9.54418347911908,7.470963276130973,0.09792517948133557,0.08626499747667964,0.06671333452716233,0.07986308952089471,0.0675069594803588,0.0774374460742019,0.11399710225145294,0.06622494994057987,0.07609031858954532,0.09314715027593728,0.0767862666254253,0.09804320575642633,4.461730256255733,0.27632172930932597,0.593743262715377,0.09523809523809523,0.4595223764109244,0.23211836851431517,0.0023092639278436446,1223.6520474928018,167.07307221193201,0.01847520861406902,1.72607852276165,0.27879933514989774,Sam,REC_20260831_184100.csv
right,18,modular_paved,19.12,1.0079999999999991,1.0,17138.0,0.8403154526213362,35251.143045297125,656.25,0.19235743155055612,0.22563251762754044,0.4228535877229365,0.14340225938597098,0.38548281459122363,0.37200688061267206,4822.0,3840.921875,-25.099999999999994,533.8203125,0.13898234066528625,0.047619047619047616,0.0,0.047619047619047616,1.1348827205286232,-0.32439130959866347,9134428.390279766,8615643.0,1458746.0,2660928.0,4175808.067413098,853282.3844621897,977537.6511700181,0.37419144314360486,0.5791010674633683,1.1447772548091348,0.05132696356725708,-0.09194221299873873,0.4667544564001256,-0.56,1.0,0.9925990981780671,0.9942787622116841,0.9630414420889885,12.0,0.028668219580977733,0.003110389181988927,7.599715713638253,5.141562237033298,0.09901594262445132,0.0850625866999703,0.06720798636395071,0.07992872804787263,0.06748054462836477,0.0774309552963766,0.113831721713944,0.06641065173969465,0.07557999991863933,0.09307254524670591,0.07699160764627633,0.09798673007375346,4.179994230044375,0.2448366518438833,0.558831421989527,0.09523809523809523,0.44854464123376636,0.20527829874893824,0.001660785613376584,1955.3621148012437,50.22734771350608,0.018475208614068005,0.7070208311488307,0.4235336381370588,Sam,REC_20260831_184100.csv
right,19,modular_paved,20.144,0.9760000000000026,0.0,18430.0,0.949271376864273,35376.43216888894,1395.8333333333333,0.4091412036154686,0.2229299363057325,0.4129854119580851,0.14222691738854848,0.39030213395309526,0.3644021003624469,4867.0,3816.935483870968,-16.30000000000001,525.6451612903226,0.13771392351574055,0.0,-0.5573770491803278,-0.5573770491803278,1.256139316495493,0.016150158237625778,9234523.433284253,8655960.0,1257160.0,2961474.0,4202027.327100999,987568.7327773771,1054490.0199450392,0.38591529248661227,0.5877286806208293,1.0267399112610873,0.03405873653073255,-0.09272317251428064,0.4749229331460462,0.32,1.0,0.9930195019724352,0.9946674731971149,0.9658414966236167,12.0,0.027732286116323824,0.003580663838844248,6.208035902208884,4.3406178287632144,0.09835622226917388,0.0884512993872808,0.06783012888231565,0.08065497570251426,0.06943587576589902,0.07705049651383901,0.11148109021762095,0.06523557997042045,0.07470948658356223,0.09189942953729135,0.07699133741812804,0.09790407775195437,4.7849275107044935,0.31815276045178775,0.5892704652108989,0.08196721311475409,0.4512382990187547,0.20460641786521647,0.003550557140831344,796.8295509915067,456.47508400219925,0.01847520861406599,0.5273611065512503,0.46825180613504747,Sam,REC_20260831_184100.csv
right,20,modular_paved,21.136,1.0399999999999991,1.0,20861.0,1.1542805501108515,35556.6215211738,1020.8333333333334,0.2992226713008651,0.23578770715334593,0.421019509125236,0.15012391230334365,0.38044244214126793,0.39460348182576255,4767.0,3827.242424242424,8.800000000000011,557.9090909090909,0.1457731256779547,0.7692307692307693,0.0,0.7692307692307693,1.0139058553999964,-0.6181755487017755,9462468.287906386,8901528.0,1461189.0,2857627.0,4181496.758972011,936387.0196848079,926223.7641191942,0.37508731831335407,0.5782378385163495,1.1927647883194692,0.08189409937640169,-0.09196689230009136,0.4672517214849189,-0.6,1.0,0.9924892504729058,0.99439736446828,0.964611154046914,12.0,0.028893972736976702,0.0033958733171801257,10.749010956633079,6.796441379585417,0.0959429607518666,0.0826649458823902,0.06761336194269155,0.07825081750449331,0.06535681200959628,0.07696022929714409,0.117079311791859,0.06997284222361223,0.07720963744764409,0.09286692689569989,0.08015107007973143,0.09593108417327137,4.728028868211011,0.30248985589562666,0.6042474464897757,0.1076923076923077,0.47746620697444614,0.2520717350501624,0.001197780961009684,1890.3154057810893,369.80389259914705,0.03199999999999828,0.46758254626741586,0.4204143365184067,Sam,REC_20260831_184100.csv
right,21,modular_paved,22.192,0.9439999999999991,0.01694915254237288,21138.0,1.1776402954787257,36259.49958286794,729.1666666666666,0.2137304795006179,0.2308790536406282,0.4093412196614318,0.14094418195273398,0.39078325677527836,0.3606709845137756,4903.0,3806.116666666667,-16.69999999999999,518.0666666666667,0.1361142371708697,5.0,-0.9137931034482759,4.086206896551724,1.347858624170716,0.30790373117236536,9267989.68625845,8764694.0,1120326.0,2796541.0,4272506.066215291,791593.7359168036,1038570.2922793124,0.38409277800442576,0.585631751391545,1.0793153126324524,0.027882079892339373,-0.09687414181055665,0.47493723016569367,0.32,1.0,0.990790853746308,0.9941126812213502,0.9548608343213272,12.0,0.028205548459917285,0.004006573066118603,10.739790786538542,7.4721691266294386,0.09819720012085809,0.08765714836206631,0.06564433565269938,0.08033997906877964,0.06828482223788901,0.07818117328685843,0.11345334483528706,0.06516265484943096,0.07632013381968498,0.09116466039313911,0.07578152710330302,0.09981302027000398,4.361448745710849,0.2886148483832625,0.5537505495180437,0.06779661016949153,0.4219602082706359,0.18361355625881837,0.002434108818639029,1489.9526838124723,334.2002615421102,0.04888080741286195,0.44122011619250473,0.39608515069019945,Sam,REC_20260831_184100.csv
right,22,modular_paved,23.152,0.9919999999999973,0.016129032258064516,19741.0,1.0598295941107825,34965.92252465249,958.3333333333334,0.28090291591509786,0.2296280819055579,0.4216464688675303,0.14379788383351064,0.38272429632928406,0.375721858300038,4786.0,3849.4285714285716,15.199999999999989,536.6984126984127,0.13942287867916903,19.0,-0.9344262295081968,18.065573770491802,1.11716752282836,-0.3507483375661429,9536064.508103592,8867319.0,1402546.0,3215594.0,4491535.269367006,574788.6624720898,1179406.6312948565,0.3722673334234776,0.5809826278990435,1.1357529874560992,0.0538484376159587,-0.09598032042919336,0.4542542429639265,0.44,1.0,0.9904686050373739,0.9944993397923494,0.9537965029243112,12.0,0.027930654967198324,0.0032513422341675048,8.644895702749997,4.519737930609168,0.09730984602950757,0.08386319965032946,0.07109280288973008,0.07759964373190827,0.0666765630025483,0.07656465193762009,0.11539539985320435,0.06624772178101057,0.07802023800687795,0.09264207427200079,0.07755016205250005,0.09703769679276247,3.0207664521152,0.1124885333322899,0.4961152840560396,0.06451612903225806,0.45591103473364275,0.26372183385144177,0.001994315337250827,739.6776324859292,153.56489157983376,0.04800000000000005,0.25488359886609363,0.08122889348995486,Sam,REC_20260831_184100.csv
right,23,modular_paved,24.16,0.9759999999999991,0.0,8566.0,0.1174283143779507,30060.441530356802,0.0,0.0,0.21144480519480519,0.40604707792207795,0.13880329032527455,0.3886968140632177,0.35709912019656304,4928.0,3862.7419354838707,-22.19999999999999,519.4112903225806,0.13446699235876236,0.0,-0.11475409836065574,-0.11475409836065574,1.1736433394727068,-0.21752364456630113,8656534.14544522,8151385.0,1110553.0,2693915.0,3833779.206035372,972224.17911553,837150.9527667933,0.3859210836408695,0.5910922834481576,0.9868637521397087,0.04221385409981515,-0.08653575923665457,0.471625618364889,0.38,1.0,0.9919609399607006,0.9939983963515459,0.9606793839848508,12.0,0.025307758127084905,0.002828613273107532,7.57125055246827,4.0330781047007775,0.09978287193619775,0.09052570044678275,0.06920121925758906,0.0785920080170362,0.06814898325608586,0.07657939788717692,0.11166228234999374,0.06219466366027809,0.07485072445613596,0.09299761994237757,0.07660862666499646,0.09885590212534971,4.64480568489967,0.36520092950169686,0.639462920381683,0.06557377049180328,0.6052073891010119,0.41871358985344537,0.00241206636325403,6890.662982132658,500.43383956101354,0.024440403706430438,1.0169899244447922,0.07309308457066929,Sam,REC_20260831_184100.csv
right,24,modular_paved,25.152,1.0239999999999974,1.0,20258.0,1.1034288300501,35123.29298343195,609.375,0.1786176150112307,0.21923707957342084,0.4138638228055783,0.14395041832533564,0.387565294431282,0.3714223651951949,4876.0,3837.646153846154,-20.5,536.0461538461539,0.1396809743151852,0.125,0.0,0.125,1.0906999070313292,-0.45234166597140213,9257617.060525078,8852659.0,974940.0,2526538.0,4156377.643353478,966535.6418259196,1004113.351297274,0.3838056310440674,0.5855205129617604,1.0772228168706377,0.11106404100561407,-0.10997387445516371,0.4634810977384038,-0.6,1.0,0.9930164014306165,0.9942725664523162,0.965589584391367,12.0,0.02953385444212171,0.003951499484324769,4.855458858348325,7.731618579567879,0.09863016993589821,0.08715679082129671,0.06572538455062599,0.07987267836454237,0.0673489759347677,0.07755154401536199,0.11266922432420513,0.06640288317758881,0.07563530529531323,0.09321418978781063,0.07754753514774682,0.09824531864484239,4.464203868348306,0.2826693057589965,0.6068599001477394,0.109375,0.488180838338572,0.2691363526213624,0.0020604128469094737,6606.193785632794,485.0279350727403,0.024440403706430438,0.7552939211429821,0.5019629628861818,Sam,REC_20260831_184100.csv
right,25,modular_paved,26.192,1.024000000000001,0.015625,17803.0,0.8963957077463772,34358.28971296447,895.8333333333333,0.26258316052933056,0.22885467201012444,0.4262813752372917,0.14748446037295104,0.37929489692247387,0.3888385042074402,4741.0,3846.246153846154,-14.199999999999989,550.8692307692307,0.1432225626584962,14.0,-0.3968253968253968,13.603174603174603,0.9962521392031956,-0.6070905509072615,9327321.219567008,8757364.0,1011592.0,3046995.0,4136318.251704557,911694.686904654,1062665.1964208633,0.3609611968886334,0.5775068372897401,1.1806316648397368,0.06300869187301128,-0.10819454618800639,0.46163603245823404,0.32,1.0,0.9920267276214245,0.9948029874888137,0.9631908134183339,12.0,0.030458320886520573,0.004228050855481655,6.959041594965511,5.179289267194818,0.09596969672727855,0.08353399518411558,0.07330224074622209,0.07771813476476563,0.06608641392606578,0.07671815876418966,0.11540123037047112,0.06738238282281225,0.0752381942833372,0.09453773109445374,0.0801020775501388,0.09400974376614962,4.49008514440515,0.25527597513046246,0.582856099768158,0.09375,0.43280470353569706,0.24646062811984143,0.001504930991141579,6165.1177063648465,457.513866542539,0.027712812921102097,0.6333462128117563,0.6120327218532677,Sam,REC_20260831_184100.csv
right,26,modular_paved,27.232,0.9759999999999991,1.0,17745.0,0.8915044975249451,34654.966786883524,647.2222222222222,0.18971124466150086,0.2257528556593977,0.41204569055036344,0.14307840832773672,0.38565312290127607,0.37100285160731616,4815.0,3842.5806451612902,-15.400000000000006,532.3951612903226,0.13855146071188718,0.2786885245901639,0.0,0.2786885245901639,1.1618541960005524,-0.17392546911905216,10118269.280252775,9586919.0,2185675.0,2386039.0,4326462.842159744,887571.0163594972,956212.0961302414,0.37219940106155225,0.5795478177452373,1.0836467427801075,0.026672126204403623,-0.09644347665188502,0.46977029821432276,-0.66,1.0,0.9920461803358828,0.9942883382265587,0.9614222063381889,12.0,0.02798798513186013,0.003415823551343728,9.670060861826629,3.788178543929064,0.09812374076561452,0.0862323707186031,0.06800285426460712,0.07873153122901277,0.06780137676292815,0.07654885829415715,0.11357034922766958,0.06484637340496978,0.07633898589657488,0.09344778374748153,0.07823203492276697,0.09812374076561452,4.1335580506279985,0.28856689256372065,0.5525688192527528,0.04918032786885246,0.4621245696339806,0.212338860109235,0.002408772405964261,1434.4312461738998,155.61612680672096,0.02771281292110206,0.6171569939888588,0.21064907666893795,Sam,REC_20260831_184100.csv
right,27,modular_paved,28.224,0.9920000000000009,0.0,19406.0,1.031578638521476,34424.858300361964,838.5416666666666,0.2457900514257106,0.2253987984255231,0.41661487466335195,0.14760071553991114,0.38602059238131353,0.38236487496504057,4827.0,3851.0158730158732,-20.19999999999999,551.1904761904761,0.1431285910953201,0.0,-0.0967741935483871,-0.0967741935483871,1.0233091665381495,-0.5152046156642314,9467223.327632764,8791572.0,1979203.0,2901609.0,4228991.9447256075,1166490.485421172,1073675.8398568048,0.3778909871344931,0.5875488149733682,1.089582629196713,0.06157929880384505,-0.0900266031049678,0.46162263313797075,0.38,1.0,0.9931292321553227,0.9948909257902272,0.9662394137634892,12.0,0.02736464860329314,0.003162122149208153,5.256418392028275,3.4850674699157906,0.09478430758323922,0.0856999183888811,0.06824832862077208,0.07951313609272342,0.06851624391007938,0.07741515328876322,0.1146883526919304,0.06781966415788042,0.07487614070086639,0.09304079731590097,0.07978105138203072,0.09561690586693265,4.68623403732304,0.27608784437439426,0.6133940700190592,0.04838709677419355,0.42699425770319366,0.25529823389904877,0.0025025056816950246,942.6818127024661,130.18765267866124,0.024440403706431944,0.4126373371655589,0.4323628523176603,Sam,REC_20260831_184100.csv
right,28,modular_paved,29.232,1.0079999999999991,0.0,19334.0,1.025506791350043,34456.88949977929,892.3611111111111,0.2615653963412324,0.22020408163265306,0.41183673469387755,0.14582351315768086,0.38982169270029093,0.3740774715420929,4900.0,3845.1875,0.9000000000000057,544.0703125,0.14149383157518328,0.0,-0.42857142857142855,-0.42857142857142855,1.2064097776420268,0.02035175391777022,9268450.125272617,8830667.0,1342681.0,2474004.0,4061772.4455779647,1007714.4063496254,967190.3080286292,0.39027165873221203,0.5834451004302074,1.0699088145893874,0.0660194445282778,-0.09715298111505155,0.46350676737523333,0.42,1.0,0.9947308949550253,0.9948616857953686,0.9734773806069992,12.0,0.028667142181758247,0.003573826800267966,10.97533191101715,8.299987938648457,0.09625262097101897,0.08919834858508201,0.0668693009118541,0.07874290915592543,0.07102221933260731,0.0753986314061408,0.11329096435479415,0.06718625554670611,0.0754595842205354,0.09167303284950344,0.07863725761097476,0.09626887505485754,4.454049475544858,0.2644948993810873,0.5879655925529796,0.07936507936507936,0.4485698228262968,0.27723116931770453,0.002137409617528819,938.8846219495456,128.83628970423433,0.016000000000000025,2.2059153947857184,0.5797900912349567,Sam,REC_20260831_184100.csv
right,29,modular_paved,30.256,0.9920000000000009,1.0,19401.0,1.0311569824679043,35063.95108940235,866.0714285714286,0.25385946748848903,0.22516278092837638,0.4219701743331233,0.14454706897696343,0.3847092212706632,0.37573071032567923,4761.0,3825.5238095238096,-0.19999999999998863,535.9603174603175,0.14010115846776872,0.016129032258064516,0.0,0.016129032258064516,1.1730923126894688,-0.12231906959058136,10169553.350530641,9690766.0,1968207.0,2373822.0,4386590.3190310765,958671.3055553656,970379.7588823024,0.3713773957099413,0.5838311955883884,1.0510978888664848,0.05467038438556626,-0.10236826756192752,0.4670665663435959,-0.64,1.0,0.992865633070099,0.9940646669737612,0.9648308667488372,12.0,0.02940875469763702,0.003465504891085228,9.150520890364803,8.259632608725141,0.09529559184757352,0.0848104627232291,0.0665289119033393,0.07919654119365332,0.06790231029675363,0.07607631281949147,0.11691313151430657,0.06645837482573193,0.07672359423753568,0.0945321317134701,0.0780886941512315,0.09747394277368386,4.631466528535994,0.25141389194950725,0.6018112927928463,0.04838709677419355,0.49719453973229805,0.2504618494251874,0.002718546828778185,40.203648259109514,26.91210322166217,0.009237604307033038,2.0918888494890657,0.5537058450672663,Sam,REC_20260831_184100.csv
right,30,modular_paved,31.264,1.0079999999999991,0.0,18501.0,0.9552588928249917,36071.39424807419,718.75,0.21067718693632337,0.2305161422989924,0.4100349578449517,0.14150148046478855,0.38955977045668366,0.3632343255023759,4863.0,3836.421875,-18.599999999999994,525.9609375,0.137096741348343,0.0,-1.253968253968254,-1.253968253968254,1.2318474074990187,-0.08773160273624203,9415441.402731419,8869763.0,1765400.0,2619390.0,4221991.429462731,1113384.1852504304,931174.6737876744,0.38619737393082954,0.583699882950547,1.065315581331611,0.07372941560476054,-0.10307223353231176,0.46683006721132875,0.44,1.0,0.9921759311762162,0.9943493166631429,0.96149960624022,12.0,0.02955208659944771,0.003811227726888834,15.1148060665809,9.069943091986502,0.09554801634009555,0.08541487632926188,0.06714834379365538,0.07962741975555021,0.06827243810353886,0.07794942390166619,0.11508933698799745,0.06538074621941832,0.07829561236666653,0.09283552789668108,0.07612073424537023,0.09831752406009832,4.565054302546298,0.30289024230314243,0.6058824953421456,0.07936507936507936,0.42968489456370174,0.27107361242686284,0.0031396935606312283,501.3943890126242,93.57311635436048,0.009237604307033038,1.422621066701963,0.46793381068440365,Sam,REC_20260831_184100.csv
right,31,modular_paved,32.288,1.0080000000000027,1.0,19693.0,1.0557816959964939,34265.40564476072,843.75,0.24731669770785789,0.2245279103548454,0.41502386387217266,0.152136524393198,0.38134457309884856,0.39894765816861255,4819.0,3870.1875,-6.0,572.1171875,0.1478267364307285,0.4603174603174603,0.0,0.4603174603174603,0.8859083988892713,-0.7855964774736064,9608535.302683182,9166643.0,751364.0,2780658.0,4137311.6414898834,1100848.988748467,951676.2051216281,0.37193711115440664,0.578208362830748,1.1536908741498562,0.06895199337424196,-0.08168670307130477,0.4600796161453844,-0.64,1.0,0.9928900133964605,0.9946789570495033,0.9649065464664188,12.0,0.026820005095469994,0.003002959781363237,7.634406353357404,4.510448173268401,0.094569061576474,0.08701532548487638,0.06722461767033251,0.07810506596902606,0.06691374771894126,0.07592090176509536,0.11426691213281011,0.07008704358638955,0.07338953216090952,0.09484763335109733,0.08204948080680846,0.09561067777723947,4.481578789215416,0.28670786697943,0.5918913622724454,0.06349206349206349,0.4288984215946001,0.2782339421033615,0.0014393113244424043,621.3061510506261,79.40072364258582,0.00923760430703408,1.1987304716947427,0.7251165494539755,Sam,REC_20260831_184100.csv
right,32,modular_paved,33.312,1.0080000000000027,0.9841269841269841,21933.0,1.244683607996632,37440.188380936335,1562.5,0.4579938846441813,0.22260412454508693,0.41528507885159727,0.14386049405012744,0.3884454076615897,0.37034932377257584,4946.0,3893.203125,-9.599999999999994,543.03125,0.13948186944394278,0.20967741935483872,-7.0,-6.790322580645161,1.1875718626270853,-0.11275561968724457,9772744.435835054,9154426.0,1555262.0,3046995.0,4261543.093786943,736657.9845431459,1098609.5803194526,0.37946376692192374,0.5782454375439392,1.1458431160071707,0.04377592587813606,-0.10222944635078568,0.4709288485783059,-0.54,1.0,0.9920866916736786,0.9945653254930332,0.9610326527941911,12.0,0.02888067985283962,0.004425170436436926,10.6806466222986,7.555847137092314,0.09408223466377702,0.08660927497842795,0.06866935564786386,0.08061324824915217,0.06819978728954709,0.07729416250275921,0.11644893945778902,0.06644592940421006,0.07572893464170329,0.09243673870728232,0.07741456464591737,0.09605682981157064,4.8810924988879725,0.31078257342604315,0.6156439908026564,0.09523809523809523,0.5020138620771538,0.1746334672258954,0.0024664635575644966,1742.4641555375952,455.3644373832167,2.0350724194510405e-15,0.37371010506348845,0.7166354649283644,Sam,REC_20260831_184100.csv
left,0,modular_paved,0.288,1.008,1.0,24632.0,1.472293545714655,40050.23346998117,757.4404761904763,0.2220179878894174,0.3088823686316351,0.48199519871965857,0.1890463890015584,0.3720192985077813,0.5081628554208745,3749.0,2927.6875,-3.4000000000000057,535.4140625,0.18287951241380782,0.07936507936507936,0.0,0.07936507936507936,0.7750772601110237,-0.9803598004486531,9869461.667911021,9009040.0,3150842.0,2513099.0,4263597.164099593,1125156.5484089693,803138.5810293583,0.4189401190705234,0.5832308584853041,1.2040219456478178,0.04503798402565096,-0.11725490315670561,0.4597318167368457,-0.62,1.0,0.9907396649407099,0.9929184932631947,0.9556362358563701,12.0,0.041019601465724725,0.006052579009381954,4.574052795505593,7.275890190809733,0.09797088145507334,0.07931814785560276,0.07345281045193519,0.0852261810729458,0.06098029588198877,0.08345430480541383,0.1114520846231027,0.08264308434557992,0.06304036889183015,0.09072326708366245,0.10640330465597848,0.06533526887688662,4.5995542745922045,0.2347327651619709,0.5486174971811877,0.09523809523809523,0.5010940142696524,0.23784292159079018,0.001499833678385422,0.0,0.0,0.0,0.0,0.0,Sam,REC_20260831_184100.csv
left,1,modular_paved,1.312,0.9919999999999998,0.016129032258064516,22392.0,1.2833916337145173,35062.8142196259,1208.3333333333335,0.3541819374581669,0.30845771144278605,0.486776643100288,0.18739824074024322,0.3803149902472313,0.4927448182314729,3819.0,2953.9841269841268,-0.9000000000000057,535.1825396825396,0.18117312642059957,11.0,-0.45901639344262296,10.540983606557377,0.8411541561509879,-0.8438986386127634,9960171.838304648,8924741.0,3205820.0,3045774.0,4270237.2163623115,1012686.7099876854,1068868.2480456939,0.4224285396038897,0.5919649623524413,1.1577584215019108,0.049348779119155806,-0.14432255296082408,0.46861332369199166,0.36,1.0,0.9926692417781611,0.9943371245810526,0.9657678435425491,12.0,0.039768263093551935,0.005840636405315768,3.4379112531097307,5.055730450237348,0.09917732843993317,0.08839823536681696,0.07588352561243626,0.08191788329992854,0.06329896131670437,0.08380395591641099,0.10139655348439826,0.0808055840645671,0.06289595434737051,0.08894632484511099,0.1065926566756761,0.0668830366306468,5.178610941540109,0.22129932866005964,0.6016221327423925,0.04838709677419355,0.6293618515192628,0.15378353826148672,0.0022319842443384143,1583.9191898578665,318.8293968742916,0.011313708498984928,0.6092803105071267,0.46000272567539363,Sam,REC_20260831_184100.csv
left,2,modular_paved,2.32,1.008,0.9841269841269841,24599.0,1.4695106157610818,37835.15975914467,966.5178571428571,0.28330193150132926,0.31607558892052806,0.4996117007507119,0.17137908684241285,0.39277783090540097,0.4363257632112656,3863.0,2941.03125,-9.199999999999989,485.6171875,0.16511799645107478,1.3225806451612903,-3.0,-1.6774193548387097,1.1514669678341782,-0.24097819708102008,9203972.527152665,8312654.0,3492927.0,1847256.0,4212478.860898369,1250779.6075600996,774084.1849971754,0.43621918665008463,0.5884260288067092,1.1795182387126355,0.051779699479787,-0.1483444673651687,0.4875472146204827,-0.62,1.0,0.9889108366981799,0.9954047239613293,0.9477245649666918,12.0,0.041134863664971474,0.006271849361260588,4.606019737107627,4.438719530443606,0.10051215028742044,0.08585423905305324,0.07515964850764506,0.08654489815434636,0.06462444083176606,0.08911627511608386,0.10320572078246364,0.0737092643949295,0.06663797775015141,0.08609331335734702,0.09766982244748335,0.07087224931731004,4.724213194176407,0.2442867941478037,0.5712790810218084,0.1111111111111111,0.5280426313477979,0.20694797672096996,0.0037560372306123485,1283.844357129529,225.6444269101215,0.00923760430703415,1.6014595139913312,0.8968045234867569,Sam,REC_20260831_184100.csv
left,3,modular_paved,3.344,0.9920000000000004,0.0,22694.0,1.3088596593502502,37227.58345635666,927.0833333333333,0.2717430382222142,0.3132405976300876,0.49484801648634724,0.1765174129353234,0.3882425709291381,0.45465754183712953,3882.0,2951.190476190476,0.19999999999998863,502.8095238095238,0.17037515127067365,0.0,-2.3870967741935485,-2.3870967741935485,0.9950489667709861,-0.5712925457772644,9188886.343689643,8222246.0,3141069.0,2638937.0,4151669.0697208075,975000.1389869477,751057.8703880919,0.4434359021962244,0.5910172015943401,1.131746672044796,0.04597936956144344,-0.1442586296317151,0.4939167744479843,0.36,1.0,0.9914080363647805,0.9950523780812732,0.9603794511063618,12.0,0.042120763634661884,0.005926082651795506,4.860451549513806,3.273366584115962,0.10332661019228184,0.0881323114158935,0.07773026758101385,0.0854645690466586,0.06448299045313971,0.08671776253865805,0.09859889740486756,0.07532607234099771,0.06344493747478823,0.08595401371520775,0.10119134059432568,0.06963022724216754,4.314068410834365,0.18416265629734516,0.5193533715155226,0.0967741935483871,0.4787149135367072,0.20815164343134943,0.0021210136770035974,1196.5978160323261,152.2779086042528,0.009237604307033957,1.1515571978533983,0.9114107044136384,Sam,REC_20260831_184100.csv
left,4,modular_paved,4.352,1.008,1.0,22081.0,1.2571646271823553,36083.39266199896,843.75,0.24731669770785789,0.31879375336564353,0.47226709746903606,0.17894318211946866,0.3772781504361429,0.47430041181140487,3714.0,2946.640625,-10.5,509.5625,0.1729299785242729,1.5873015873015872,0.0,1.5873015873015872,0.9527206162725002,-0.6489724976500839,8824934.55092212,8205141.0,1869247.0,2657263.0,4039878.3267819253,904689.5342674439,844041.056722974,0.4007633592551525,0.5874935801035728,1.2105310602641914,0.05182657308752536,-0.11679159454429244,0.45657119326432105,-0.58,1.0,0.9927599461523476,0.994307319199883,0.9660817183972372,12.0,0.03858069007851102,0.005957717025221573,8.223346581957792,7.613117760815655,0.10450990269639684,0.08884057586764589,0.08667179256038392,0.07867009571280854,0.05944799427313943,0.08577564493464486,0.09447198875838482,0.07375984304159929,0.06454383964790412,0.08789670440384972,0.10518333907786939,0.07022827902537318,4.06043862850091,0.1793374594468912,0.5277985898788392,0.07936507936507936,0.5701185863548093,0.1697957903927638,0.002684295644612358,1313.082759514165,62.678375936172635,0.009237604307033765,2.564184792879117,2.209225241134427,Sam,REC_20260831_184100.csv
left,5,modular_paved,5.376,1.008,0.0,25575.0,1.5518178774182847,34265.18977037775,370.65972222222223,0.10864632707948078,0.30504587155963303,0.48827726809378186,0.16739050423260948,0.3861401756138598,0.433496732025766,3924.0,2971.71875,-3.6999999999999886,478.8984375,0.16115200588884798,0.0,-0.3333333333333333,-0.3333333333333333,1.21715960055321,-0.03144150880800689,8162870.0313974125,7617489.0,2322509.0,1792278.0,3934410.020927474,964578.9480568058,669880.3659305956,0.4490713663154591,0.6006408808869574,1.1814711604181314,0.0500431898927971,-0.1729158059984549,0.4855496951081672,0.36,1.0,0.9910378645300212,0.9953846345364766,0.9582783407638439,12.0,0.040741148811047144,0.006088916829561178,12.42667644270832,12.508729622456713,0.09988432620011567,0.08186024501813975,0.08178137651821862,0.0848625059151375,0.06104421893895578,0.0901466954098533,0.10497923129502076,0.07175456122824544,0.06822651033177349,0.08565644881434355,0.09563594300436405,0.07416793732583206,4.179230090540916,0.23262669223339297,0.548669815266807,0.09523809523809523,0.4960203107592329,0.20270972198018636,0.003121259858512286,1865.6529688020767,300.10167454109825,0.009237604307033765,2.97941839864314,2.094095042550035,Sam,REC_20260831_184100.csv
left,6,modular_paved,6.4,1.024,0.0,21885.0,1.240635709882343,33717.0894799655,503.90625,0.14770302779774847,0.3001813001813002,0.4693084693084693,0.179595044136522,0.3770018597584934,0.4763770774271724,3861.0,2936.6923076923076,-2.6999999999999886,509.7230769230769,0.17357047436938472,0.0,-0.28125,-0.28125,1.0280289046547653,-0.48835429182914725,9738170.305890014,8764694.0,3755599.0,1976759.0,4041171.3452076563,1087451.2846548595,791036.4121657256,0.41635733575433986,0.5879086154135388,1.160829819000574,0.05795080166333877,-0.1444496178647514,0.46802614100823914,0.34,1.0,0.9929114489362464,0.9950274753214566,0.966746703441717,12.0,0.03758879336468893,0.005306648659807824,7.002097240260511,5.172286800351515,0.10275820520208503,0.08352673075411898,0.08102260523351756,0.08147313827697306,0.06069099195850905,0.08588940985410064,0.09840479870078843,0.07656966236215522,0.06542158891479163,0.08890693349398854,0.10302538177436678,0.07231055347460513,4.369649001291249,0.23833093074351908,0.5588745681786852,0.0625,0.5104635668418505,0.2095876494525837,0.0017726410390806126,2076.1563846043327,243.9476796728998,0.009237604307033988,2.7723273375818134,1.5181195455897654,Sam,REC_20260831_184100.csv
left,7,modular_paved,7.44,0.976,1.0,26637.0,1.6413776231969217,38524.52113913942,937.5,0.2747963307865088,0.30117955439056354,0.5019659239842726,0.17172619379905546,0.3960387196177163,0.43360960757742895,3815.0,2889.2580645161293,-20.400000000000006,477.63709677419354,0.1653147922784061,0.01639344262295082,0.0,0.01639344262295082,1.1561581945032027,-0.23175777991594115,9071534.085393826,8332201.0,2241875.0,2800206.0,4144553.0335275317,911739.5104580378,962965.1195382081,0.459199271012111,0.5911499701614611,1.1812721203117595,0.058690302072330836,-0.1357879849607041,0.47843432762774796,-0.62,1.0,0.992353115020892,0.9958172719253057,0.9634289323410705,12.0,0.04320853606947149,0.006016852675335514,5.749994409267385,4.068858766721661,0.10559134502662809,0.08973170922326303,0.07838824567083857,0.08489733942188528,0.06672658456797703,0.08862080900331595,0.09437627697701162,0.07383857894090456,0.06606227740127502,0.08256389071867987,0.09788761485815087,0.07131532819007,4.453691126948762,0.30488104323349574,0.5505413655863224,0.08196721311475409,0.5207787105932452,0.2047799184937753,0.0033942833366466894,2494.174813440309,296.3854690868756,0.02444040370643112,1.0769274329603769,0.7953019141399814,Sam,REC_20260831_184100.csv
left,8,modular_paved,8.432,1.0079999999999991,0.015873015873015872,27293.0,1.6966988974255335,37908.79299054508,1187.5,0.34807535232957776,0.3042564372044141,0.4926431949553337,0.17850017109315364,0.3889816009054776,0.4588910392611976,3806.0,2968.046875,-14.099999999999994,512.828125,0.17278302755915875,4.0,-2.2580645161290325,1.7419354838709675,0.9175586969849907,-0.7993662779334496,9507107.804337658,8721933.0,3106860.0,2158797.0,4202838.474361345,894810.4177376677,785172.7840106811,0.41540785544356795,0.592014009081389,1.1364375773205615,0.04914246607277506,-0.12750087426717094,0.4798545774898037,0.34,1.0,0.9891680879837716,0.995054727343458,0.9502526205487763,12.0,0.043194572684421714,0.006517986427227773,4.611398034049038,3.5330184933799273,0.1056723960938117,0.08518333289463294,0.07372272380300597,0.08738911847542839,0.06476270695691085,0.08642046800558027,0.09860756494959333,0.07862388460424838,0.06522597457292517,0.08584138348556238,0.09987628648890527,0.06867415966939538,4.822270702947385,0.22391301465869554,0.5539957992174123,0.07936507936507936,0.564562454450628,0.2441222702323293,0.0030623527064759567,2951.223023313103,345.88147176890067,0.02444040370643102,1.2700501140670837,1.3050253068748008,Sam,REC_20260831_184100.csv
left,9,modular_paved,9.456,1.008000000000001,0.9841269841269841,22493.0,1.2919090859966664,37536.498544749746,784.2261904761905,0.2298693116261748,0.28996781115879827,0.47854077253218885,0.1731382921762224,0.38803516737701055,0.4461922700110588,3728.0,2918.1875,1.5,488.9765625,0.1675617356664025,1.2741935483870968,0.0,1.2741935483870968,0.9266376834298026,-0.754443909987256,9028625.401582513,8418944.0,2096489.0,2498438.0,4103544.06595074,702158.0202238773,869629.8091649342,0.4167115285670622,0.5857677250180623,1.1757297980334795,0.05805952202472042,-0.12615462753600704,0.4748651754683804,-0.64,1.0,0.9913160620836081,0.9953819018744117,0.9590873445558236,12.0,0.03692603372086875,0.005157933714032908,9.699519455798589,3.8387835208516066,0.10382086483476473,0.08761859887344456,0.07976912038722667,0.08447559486839006,0.06268874087083164,0.08772568589235613,0.09618020603542439,0.0738150821357435,0.06552654687198818,0.08774710329613844,0.0993232100404789,0.07130924589321283,4.480556409236794,0.19977838109600798,0.5221147819780654,0.09523809523809523,0.5014838509066014,0.2124790512602559,0.00195888837568384,2602.6612021800547,203.56105805293706,0.01847520861406798,1.1629927293403457,1.4333592678381577,Sam,REC_20260831_184100.csv
left,10,modular_paved,10.48,0.9599999999999991,1.0,21081.0,1.1728334164680079,35611.31491534678,2515.625,0.7373701542771318,0.2924754054772667,0.4687583089603829,0.17268635724331927,0.3887763713080169,0.44417914767343764,3761.0,2913.934426229508,6.400000000000006,485.42622950819674,0.16658790436005627,0.5333333333333333,0.0,0.5333333333333333,1.1232647633271455,-0.27539908648233347,9809926.30945967,8936958.0,3169168.0,2514321.0,4298846.180550736,911751.430141796,993197.0756982052,0.422936732137144,0.5922536559414506,1.1129282700418122,0.0382399035563461,-0.1389032980280246,0.4647300975337049,-0.62,1.0,0.9904258434936242,0.9952508179421342,0.955636695282823,12.0,0.038008516638177774,0.0050598754100043076,7.472942999416844,4.877811323633296,0.10436005625879043,0.08815189873417723,0.07984247538677919,0.08329676511954993,0.06362869198312236,0.08733614627285514,0.09794092827004221,0.07230379746835443,0.06636286919831225,0.08563713080168776,0.10038255977496485,0.07075668073136428,4.235059839538105,0.27322240735653675,0.5495157406429616,0.03333333333333333,0.4732732423980125,0.234846185680884,0.0034202295136621305,3256.344781090191,905.9330014496392,0.02771281292110256,1.165496469332941,1.416584550233569,Sam,REC_20260831_184100.csv
left,11,modular_paved,11.456,1.008000000000001,0.015873015873015872,23685.0,1.3924318891681682,37445.63878477706,822.9166666666666,0.24121011257926878,0.28928008407777195,0.4795060430898581,0.17205876906635065,0.39034765172397373,0.4407834101378665,3806.0,2953.296875,-3.5,491.5234375,0.16643211241673764,12.0,-1.0161290322580645,10.983870967741936,0.9603117463027008,-0.6547540478188796,9160511.15597405,8393288.0,2729345.0,2453234.0,4146614.9668229977,883539.0411528384,903647.5933293476,0.43004301606606177,0.5993736798413205,1.091322727248309,0.07362232130100299,-0.1565320839225004,0.46378592850647593,0.38,1.0,0.9922474762805042,0.9955463852658211,0.9634081409354595,12.0,0.037038318934698326,0.005027630832336931,3.251812124814295,3.78105467968372,0.10312627307405389,0.09101057610403628,0.08050854183089873,0.08234441381718524,0.06299633354672479,0.08839697160482723,0.0943913317214342,0.0721069144123887,0.06559935665120019,0.0852807508557703,0.09995185465396193,0.07428668172751851,4.475531109014048,0.2801883156774523,0.5827254970044476,0.09523809523809523,0.48013603272955974,0.25826332485979314,0.0018242878610870287,1303.5479789149767,988.6438769264039,0.027712812921103055,0.7576126695550499,0.7983795745189413,Sam,REC_20260831_184100.csv
left,12,modular_paved,12.48,1.0399999999999991,0.9846153846153847,22828.0,1.3201600415859727,34848.795230251504,1208.3333333333335,0.3541819374581669,0.2861380798274002,0.4773462783171521,0.18570481831772437,0.37914648117419203,0.48979702447044354,3708.0,2949.287878787879,-4.199999999999989,532.0151515151515,0.18038766420245256,0.65625,-10.0,-9.34375,0.6732498560859738,-1.186013271565456,8726641.705889098,8295549.0,1545489.0,2224771.0,4002234.753310926,818905.2992318135,950261.3737820071,0.3926172651000652,0.5832970276050783,1.1067078339400211,0.04812645673927607,-0.13401367184321478,0.44478593078695905,-0.58,1.0,0.9933120610157125,0.995148103974827,0.9685027219563717,12.0,0.03575053558320013,0.005187164893328567,5.2111887093423235,4.347753065323431,0.10026560083841501,0.08592726544158066,0.08469430216847415,0.08038920540654394,0.06161733957349745,0.08704720708131906,0.09497413345799961,0.08043030418231417,0.0641654636712509,0.08573204625667212,0.10527451413541018,0.06948261778652268,4.3798460240751105,0.25921471134962093,0.5659441349244273,0.06153846153846154,0.4523730654152473,0.25144462609914625,0.0017814673212091495,1327.1067528022459,887.2071357558568,0.04026578365477747,0.751242940586285,0.4982710125026072,Sam,REC_20260831_184100.csv
left,13,modular_paved,13.536,1.008000000000001,0.015873015873015872,23129.0,1.3455437360109912,34592.86673578817,1005.2083333333334,0.2946427324544233,0.2861005949161709,0.48620876149269876,0.17333804398837804,0.3953786364762894,0.43841024273102086,3698.0,2963.140625,-21.099999999999994,497.2109375,0.1677986300430814,4.0,-0.1774193548387097,3.8225806451612905,0.8666357964870157,-0.831417854722198,8736302.333755683,8167268.0,2062281.0,2316400.0,3965016.8865281735,753743.5748974872,909393.2358036777,0.4002862784803767,0.5930919831999675,1.0890471997085562,0.0493202569968505,-0.1442967049771,0.47319861223667953,0.4,1.0,0.992788151255734,0.9961759866981237,0.9662104099485567,12.0,0.03503706571220476,0.004943338119006705,4.219417722668285,3.1028610717716134,0.10111737440743299,0.09060804361925955,0.07820566227767202,0.08434884861396007,0.06664170722575814,0.08818768093397525,0.09690415047378995,0.07700339061700792,0.06559235608333641,0.08435412173527876,0.09633465337137012,0.07070201064115882,4.60346397934287,0.22299028288255593,0.5540177091919526,0.07936507936507936,0.5287755318028031,0.21274097922349827,0.0023408116371691425,434.77695431104587,192.8021543385676,0.018475208614066995,1.386720030860427,1.2953388106244745,Sam,REC_20260831_184100.csv
left,14,modular_paved,14.56,1.0079999999999991,0.9841269841269841,23905.0,1.4109847555253248,35356.3289101117,668.75,0.19602138262770957,0.2858636007316436,0.48001045205121506,0.16996076650526193,0.3937659402573675,0.4316289174072009,3827.0,2959.046875,-24.80000000000001,486.109375,0.16427903833054353,0.5483870967741935,-2.0,-1.4516129032258065,0.9374967895179239,-0.7860661649347289,8992789.037005039,8163603.0,2722015.0,2610838.0,4118442.05459529,859285.9441437135,847553.5080810809,0.4386724934689581,0.5915194182553104,1.2142423394353243,0.06923078663871252,-0.1396202475307926,0.47136822310973414,-0.56,1.0,0.9915999694090266,0.995709582965968,0.9609839153675227,12.0,0.037987821090736555,0.005524090913080522,3.677035708185864,2.561247208891089,0.102962841708954,0.08883772751994677,0.07814488406845532,0.08560083219364344,0.06594184149245692,0.08778692463261502,0.09865402182924189,0.07316017087427856,0.06559861441870535,0.08565891677535524,0.09680059563098337,0.07085262885536411,4.559302832152098,0.2379082468108785,0.5621429237661144,0.07936507936507936,0.4645006561380809,0.23686499228223518,0.0018541028977012617,555.6836630074014,272.523439146543,0.01847520861406749,0.9850599267487268,0.9124778216764334,Sam,REC_20260831_184100.csv
left,15,modular_paved,15.584,0.9920000000000009,0.0,24350.0,1.4485121442932092,33984.56136247752,536.4583333333334,0.1572445670611689,0.28159027601924536,0.456571283869334,0.18186668920739407,0.3834653198582047,0.47427154370696595,3949.0,3004.5555555555557,0.09999999999999432,529.3095238095239,0.1761689920596766,0.0,-1.0806451612903225,-1.0806451612903225,0.7848517111676013,-0.9460802388253722,10019766.361579994,9005375.0,3615100.0,2495995.0,4238520.616805401,1005168.4072791508,1077131.5577366715,0.4295596798066482,0.5924492649236128,1.1069856883987292,0.04542082355665489,-0.14319751790360447,0.4711666633332364,0.4,1.0,0.9942914965874975,0.995119206915061,0.9724034547135533,12.0,0.038191330050410296,0.005471962922779086,6.810210790730158,3.9924590657529393,0.09870725406393466,0.0880303454542573,0.07759117107883795,0.07995794745545125,0.0614675070131599,0.08661978899765964,0.09917743954946721,0.07829909079862854,0.06738973093767665,0.0905397623714254,0.10356759840876553,0.06865236387073596,4.269326161917971,0.20067370616576735,0.5257593170710316,0.04838709677419355,0.4917583486403223,0.19951649465903015,0.0017642730353717448,617.9323048144701,241.67190487618075,0.00923760430703354,0.6225281487769093,0.9414130194416568,Sam,REC_20260831_184100.csv
left,16,modular_paved,16.592,0.9760000000000026,0.03278688524590164,24919.0,1.496496603189673,36869.80676651289,979.1666666666667,0.28700950104368694,0.27925600619994834,0.4657711185740119,0.1722506726846628,0.38943017099210137,0.4423146574537177,3871.0,2973.1612903225805,-19.400000000000006,494.8790322580645,0.16644876746810172,4.0,-0.2542372881355932,3.7457627118644066,0.9091039163466628,-0.7269924942061117,9254348.114387367,8465370.0,2582738.0,2703689.0,4235318.998610368,930394.0441001346,1046275.6551104446,0.42956709886355293,0.595132321434071,1.1287648641607175,0.04931190425999499,-0.14120886615208994,0.45879588713251396,0.38,1.0,0.9927468804259814,0.995759306502613,0.9666056116511083,12.0,0.03654502656975626,0.004982100025535785,4.461292283611336,4.623078880606414,0.10081590139744814,0.087855871886121,0.07958836038538322,0.082338772675983,0.06370974741775888,0.08910359343806962,0.09591723808697163,0.07300256054161966,0.0664221855741689,0.08989562537974134,0.09924811214304313,0.07210203107369152,4.365604472165915,0.3042853684683895,0.5598790269609544,0.08196721311475409,0.5148521396669131,0.2130153275783284,0.0024699239032033964,508.2620715077242,227.2481244574853,0.015999999999998266,0.9984217354342391,0.8746718643296029,Sam,REC_20260831_184100.csv
left,17,modular_paved,17.584,1.0079999999999991,0.0,24709.0,1.47878704893966,37533.618117628896,909.375,0.2665524408629135,0.28529568460309,0.486680873734683,0.16453886438371398,0.3942832633479658,0.4173113080845191,3754.0,2950.765625,-21.599999999999994,468.8046875,0.15887560961403024,0.0,-0.047619047619047616,-0.047619047619047616,1.0674699142064128,-0.45633454612598623,9435663.306908317,8554556.0,2924822.0,2701246.0,4234297.924481766,894847.4005992792,942249.2131054323,0.4271492872008711,0.5944307221540673,1.1871495215750363,0.0613400123908312,-0.14131925506616916,0.47741746701420446,0.4,1.0,0.989675835396085,0.9953466892758802,0.9538496467465832,12.0,0.038907921844043986,0.005461667242303302,3.0514938096542457,2.385825922988843,0.09999523428771134,0.08740316337391249,0.08015398545928229,0.08534331661803875,0.06346869721311736,0.09042144782339329,0.10163146217348251,0.06905517106259498,0.06764663831950395,0.08937828635576572,0.09548369332111899,0.07001890399207833,4.879693616785291,0.2702531901318386,0.5909621602335731,0.09523809523809523,0.510248918631535,0.20677879378417327,0.0022588025981899094,287.7330939140013,238.0225428457944,0.015999999999998266,1.0592160215511863,0.8781111525579142,Sam,REC_20260831_184100.csv
left,18,modular_paved,18.608,1.0079999999999991,0.0,25757.0,1.567166157768296,35972.35813788137,1010.4166666666667,0.29616937873657057,0.2812418471171406,0.48578137229324286,0.1709754303982977,0.38181192337580383,0.4478001338629313,3833.0,2995.953125,-21.30000000000001,495.40625,0.16535847836404316,0.0,-0.031746031746031744,-0.031746031746031744,0.8743812782001248,-0.8120549681265361,9933716.487046225,9133657.0,2657263.0,2862514.0,4255569.713601302,905981.7451001906,887836.1670638458,0.4381489509144303,0.5871552639134978,1.2026222873559804,0.054120625516396625,-0.12736228260290328,0.4631951839997951,0.38,1.0,0.9904855097776284,0.9942305393332118,0.9564386341100621,12.0,0.03673424864961193,0.005189279879476561,4.015818477097298,3.0067362879474047,0.10118858251495506,0.08429600346300478,0.07668156523643874,0.0844420337851581,0.060732967909836705,0.08694019536770957,0.10384842052560485,0.07128365868541418,0.06540072285009466,0.09539952331530555,0.09969177171288353,0.07009455463359428,4.646684589048937,0.2197636069302509,0.5422648515660313,0.06349206349206349,0.5103326067328786,0.2207287742248298,0.0016026611950344925,554.4739248452755,51.73145020019278,0.018475208614066017,0.9875933874378781,0.8766606506787317,Sam,REC_20260831_184100.csv
left,19,modular_paved,19.632,1.0079999999999991,0.9841269841269841,25532.0,1.5481916353575678,37510.56257909231,1218.75,0.3572352300224614,0.2821390937829294,0.46522655426765014,0.17096281149631834,0.38484576220425276,0.4442372199110636,3796.0,3025.96875,-24.599999999999994,500.828125,0.16551001228945275,0.41935483870967744,-4.0,-3.5806451612903225,0.8312583305770848,-0.8699460704755424,9631217.965904728,8844106.0,2669481.0,2723237.0,4199293.368214409,861610.6109113322,1057098.5899870165,0.3947905645251555,0.5774138656258377,1.2075471698109217,0.05962671340492598,-0.1272791918762315,0.4567586611335553,-0.62,1.0,0.9914467937194175,0.9943163898461937,0.95893181894404,12.0,0.036310342809250294,0.0047778728594288535,3.9709786172748274,1.7205480862044311,0.1059784573122244,0.08425504229017566,0.07452675279610868,0.08776115087110532,0.06255744544618976,0.08566987844801768,0.10099038531048941,0.07290020757815162,0.06460224514876434,0.09350827730788694,0.09806260391816671,0.06918755357271948,4.510326567851661,0.2034638828043484,0.5306657714377875,0.06349206349206349,0.4681478821739091,0.21757522013664884,0.0013166525907102296,551.703120648528,157.75777149666123,0.0,0.43925150584957934,0.46167418096981955,Sam,REC_20260831_184100.csv
left,20,modular_paved,20.656,0.9920000000000009,1.0,26939.0,1.6668456488326546,38037.922064697486,1213.5416666666665,0.35570858374031405,0.290625,0.4734375,0.1728753778079965,0.3848834306294055,0.44916295181930943,3840.0,2988.2063492063494,-13.099999999999994,499.1190476190476,0.16702964564398665,0.5,0.0,0.5,0.9159446124517396,-0.6529194509387186,9730517.950037295,8994379.0,2811201.0,2425134.0,4265986.147196981,865817.630525004,929387.8102909098,0.41930471048289353,0.5867224499184837,1.1883382822414312,0.04706256416948218,-0.1300350053384033,0.4642160589960676,-0.6,1.0,0.9913220885813825,0.9945160679401952,0.9589724789259368,12.0,0.035942036076893016,0.004925395264614331,2.9049016294855283,1.853947888672593,0.10280627015197309,0.08641378541036987,0.07654961037305386,0.08608976027451834,0.06236155893273557,0.08602070573736965,0.10234944782929717,0.07494010846874219,0.06399762027441211,0.0928039860403597,0.09793526933925432,0.06773187716791407,4.125641330574383,0.1775461994754049,0.5030627428489219,0.04838709677419355,0.49570705335297,0.18187270165423663,0.0020905826546973316,755.7995766074432,118.80633410365076,0.009237604307032994,0.5192719713705858,0.5465816644581343,Sam,REC_20260831_184100.csv
left,21,modular_paved,21.664,0.9759999999999991,1.0,26269.0,1.6103437376540417,36553.57555698211,997.3958333333334,0.2923527630312024,0.29927760577915374,0.4711042311661507,0.1700320774207579,0.3859294296743327,0.4405781584578593,3876.0,2966.6129032258063,-26.5,486.5,0.16399173598651662,1.6065573770491803,0.0,1.6065573770491803,0.9660375385707632,-0.5891685597962613,9763919.929544998,8888089.0,3034778.0,2669481.0,4350864.616365597,894478.9396269623,960799.2559653652,0.4278823297609039,0.5928011927159861,1.1862012722227286,0.04523127143532468,-0.14484325780543839,0.45256631902691713,-0.6,1.0,0.9919479021386265,0.9951038262444704,0.9635254407652422,12.0,0.03850775302588303,0.005042437364609167,3.2904197338420453,4.295513955444505,0.10158756048496712,0.08500516500842713,0.08089490567063556,0.08414070570325669,0.06066982004023269,0.08840863371934975,0.10055455879954331,0.07214157559941282,0.06770510520306638,0.09095307997607785,0.09789050182134507,0.07004838797368565,4.335433872224592,0.2812349272300381,0.5527478965403573,0.04918032786885246,0.5265249059975918,0.21521365069116122,0.0026352623579605897,703.7658227942899,126.32221703786414,0.016,0.49910070060068173,0.6200872949290035,Sam,REC_20260831_184100.csv
left,22,modular_paved,22.656,0.9920000000000009,0.0,26939.0,1.6668456488326546,39560.20260312123,1640.625,0.48089357887639034,0.2838035019455253,0.42971789883268485,0.1688829716698404,0.39009797005203495,0.43292450777728614,4112.0,2992.4920634920636,-14.0,487.6190476190476,0.1629474823234868,0.0,-1.5483870967741935,-1.5483870967741935,1.0414754163137525,-0.5056574830501286,9747059.431951413,9084787.0,2590068.0,2400700.0,4317983.177324629,965146.2350221158,986012.0707353249,0.4520543047891843,0.5942663516302495,1.1692595755511217,0.07053707350744665,-0.12598877462791946,0.4678880077079954,0.38,1.0,0.9889901688350199,0.9948156711290864,0.9503483371010489,12.0,0.039720380539704316,0.0058852917647212385,6.3875098800153935,4.595985887473802,0.10121627140940025,0.08866634487367857,0.07886933967017987,0.08509126013780519,0.06384761864348343,0.08749940326849734,0.10017132824476069,0.07025518891193304,0.06499334312857044,0.09271881481167153,0.09862778275790736,0.06804330414211227,4.813979275670246,0.2639025928125398,0.5868163867187054,0.0967741935483871,0.4865391049904999,0.23373381235070192,0.0024262118315403302,386.82468035703585,327.3283152354242,0.009237604307035005,0.5395530622652553,0.6017204532019341,Sam,REC_20260831_184100.csv
left,23,modular_paved,23.664,0.9919999999999973,0.0,23187.0,1.3504349462324234,36676.090276909286,628.125,0.18411354162696086,0.27559462254395034,0.46975180972078595,0.16886751715277296,0.39748585929128527,0.42483905579363246,3868.0,2977.4444444444443,-24.599999999999994,485.95238095238096,0.1632112336668817,0.0,-0.16129032258064516,-0.16129032258064516,0.9620331303308917,-0.7137517399383921,9047408.722972617,8498357.0,1946216.0,2417804.0,4194414.9480595235,668018.3226938079,916989.7735588226,0.42793274826764005,0.5894778165115974,1.1684516923532293,0.0363823851740821,-0.12691338430356125,0.47259051682339104,0.38,1.0,0.9929577161698455,0.9956794719715676,0.9667149702391153,12.0,0.03567338736772762,0.004644508637723378,3.3782321687969428,2.9771021759755314,0.10244750211910715,0.09116159058316764,0.07708752045804701,0.08461501554011909,0.06684650200715432,0.08891187179801577,0.09490934486269785,0.07090879042963232,0.06595087936282847,0.08882657440331808,0.09795872672314065,0.07037568171277168,4.644069052478178,0.23584127320828216,0.5664108335265102,0.08064516129032258,0.4993243823049222,0.23886438338934024,0.002528787933539446,2001.04672609112,512.3899815572429,0.009237604307033964,0.19534564264836202,0.386927993305947,Sam,REC_20260831_184100.csv
left,24,modular_paved,24.672,0.9920000000000009,0.03225806451612903,26451.0,1.625692018004053,36348.345244316144,1051.3392857142858,0.3081644566677277,0.276694045174538,0.4722792607802875,0.17353106774457416,0.3911699404034717,0.4436206615606438,3896.0,2988.3492063492063,-20.5,502.1587301587302,0.16803883866444289,14.5,-0.9833333333333333,13.516666666666667,0.8212999945843668,-0.9163173197724137,9172168.322855562,8552113.0,1970651.0,2665815.0,4141753.0991374245,714283.5576732728,1032963.7077912607,0.4310864079301381,0.5964060381061056,1.1638532714347076,0.047299337866923086,-0.11771566370374753,0.4679376767309196,0.36,1.0,0.9922313616564001,0.9950887435902607,0.9636709545354462,12.0,0.03497942698942619,0.004893002956756744,2.4598295836820703,4.370822785924034,0.10249859241711196,0.08807750735661246,0.07623787619644547,0.08540575568610372,0.06483379898654032,0.08748791603369702,0.09799432717537951,0.07280124929620856,0.06536496234051821,0.08997376053031349,0.10072981844836561,0.06859443553270374,4.46874822624531,0.24078844682363404,0.5610564577882523,0.08064516129032258,0.47521466434142917,0.2072324046325947,0.002127126091407479,2039.9895424568535,508.5148694472757,2.059156955057807e-15,0.6135059010241795,0.5074562562944904,Sam,REC_20260831_184100.csv
left,25,modular_paved,25.68,1.0079999999999991,0.9841269841269841,26149.0,1.6002239923683201,38682.7704928176,833.3333333333333,0.24426340514356332,0.2651732221932795,0.4746027611357124,0.16732667043811678,0.39293272152031344,0.425840509771146,3839.0,2982.9375,-22.099999999999994,483.3515625,0.16203878307876046,0.0967741935483871,-11.0,-10.903225806451612,0.849675928903931,-0.8350054466179264,9807315.823712165,8906415.0,3246137.0,2514321.0,4340650.785851919,818179.8435221779,955946.874998937,0.4310118762177646,0.5900066599183971,1.1481970373160189,0.038073686951667796,-0.12916318705490326,0.47143512282203454,-0.6,1.0,0.9923683392674533,0.9953155375044483,0.9640791916243683,12.0,0.03676533574047245,0.005048787600201203,5.570855733060332,6.829919470653678,0.10077629015022943,0.08563287028306829,0.07854044880256458,0.08621954030213506,0.06339702893540344,0.09035242106145368,0.10110629203595449,0.07160517107716806,0.06733086093825298,0.09054099356758229,0.09572149936094873,0.06877658348523896,4.622310576996877,0.23663380890382638,0.5507114069706551,0.09523809523809523,0.48283086997077984,0.2034272966480189,0.0019421910532710091,1803.6233901048536,211.63938944016175,0.009237604307034037,1.4590605611754706,1.2063822776354454,Sam,REC_20260831_184100.csv
left,26,modular_paved,26.704,0.9920000000000009,1.0,25092.0,1.511085902643255,36325.193378700686,1171.875,0.34349541348313595,0.2748778606325534,0.4826433530470558,0.16629699986203822,0.3973988899383417,0.4184636748424237,3889.0,2991.3968253968255,-23.400000000000006,480.94444444444446,0.16077587579195365,0.9193548387096774,0.0,0.9193548387096774,0.973268043017717,-0.6185677277057477,9394296.696595972,8690168.0,2051285.0,2919935.0,4221596.562823293,805228.6360112004,1120262.1678108352,0.4297763306985931,0.5951935486215406,1.1539759522011657,0.0682774335471259,-0.13723709564688114,0.4746103657517918,-0.58,1.0,0.9897476696804782,0.9954524549702695,0.9531895587088596,12.0,0.03749210738928429,0.005366526861338549,4.210607911521644,4.952465317028725,0.10429379490390431,0.09219560857060989,0.07663776544375935,0.08413015101508027,0.06803637945855309,0.08809920512793301,0.09508749960203335,0.06978212652155917,0.06493754576616541,0.0900147512973713,0.09651487334047905,0.07027029895255177,4.461823403060533,0.2279785933154934,0.5579691327290652,0.08064516129032258,0.5020587713023895,0.19710153876510939,0.002666473564335996,713.5981595641384,171.59347003957745,0.009237604307033019,1.4329631750761622,1.1848110579827975,Sam,REC_20260831_184100.csv
left,27,modular_paved,27.712,0.9920000000000009,0.016129032258064516,24350.0,1.4485121442932092,37636.66790511615,958.3333333333333,0.2809029159150978,0.2809683234612413,0.47463301570950295,0.16369907807852155,0.39924790616231726,0.4100186264015927,3883.0,3009.5873015873017,-25.30000000000001,476.1984126984127,0.15822714710660113,34.0,-1.1967213114754098,32.80327868852459,1.1039797153690611,-0.32486944906514426,9498220.347264955,8758585.0,2427578.0,2758667.0,4217784.827388792,806437.0892503831,1068816.1273061952,0.42073686439461,0.5917992042207019,1.1167644142524928,0.05395681827084431,-0.1383198666694334,0.45051292456196695,0.4,1.0,0.9927694629788499,0.9953354213438113,0.9659201653425774,12.0,0.038327272792043766,0.004871341225131194,6.029586150474425,6.185487648269429,0.10332060505052636,0.09008776186156411,0.0786270331849539,0.08630619607181284,0.06544165734900108,0.09076812725469927,0.09620050209911182,0.06780447669880382,0.06664416362523998,0.08895909369000654,0.09589460137971771,0.06994578173456256,4.750479699049058,0.26051240261874786,0.5938990789875653,0.08064516129032258,0.502730799060553,0.2060309535595527,0.0023704844069381394,904.0846199333289,171.18971127194172,0.009237604307033019,1.4986674103227946,1.3988520811230925,Sam,REC_20260831_184100.csv
left,28,modular_paved,28.72,1.0080000000000027,1.0,26144.0,1.5998023363147484,41647.39192314448,895.8333333333333,0.26258316052933056,0.2927536231884058,0.4793148880105402,0.16213397428091927,0.39587689994547004,0.40955654220570487,3795.0,2951.359375,-29.5,461.8125,0.1564745059215298,1.3333333333333333,0.0,1.3333333333333333,1.039884657155893,-0.4749537434633755,9802149.655519702,9068905.0,2502104.0,2752558.0,4293027.15192393,699112.1243464644,949207.8578227207,0.42647449314806596,0.5997466989961905,1.1679363852458098,0.05890747983108091,-0.13562757476309661,0.4712863190181487,-0.56,1.0,0.9887529086899804,0.9950539737211018,0.9494401672554269,12.0,0.03632739170543449,0.004955736552028029,3.7361320983886097,4.52513953617931,0.10247396591612976,0.08556967922620402,0.0786131390725672,0.08812676362057738,0.06365710715930689,0.09098032156792156,0.10196043136901957,0.0685012732480266,0.06754302837146019,0.08973089730897309,0.09363270103289269,0.06921069210692107,4.798561253695528,0.2872012459401392,0.5890572358018654,0.09523809523809523,0.5201170746262654,0.2098593479011758,0.0027350320225031314,901.4529013394576,144.74419685482573,0.00923760430703503,1.7241725422573853,1.4594449415027198,Sam,REC_20260831_184100.csv
left,29,modular_paved,29.744,1.0079999999999991,1.0,24852.0,1.4908464120718117,36233.21418257011,833.3333333333333,0.24426340514356332,0.29040468312547724,0.46245864087554084,0.165704796367103,0.39071069059895647,0.4241112422927044,3929.0,3048.53125,-22.099999999999994,487.78125,0.16000533043576312,0.9206349206349206,0.0,0.9206349206349206,1.0158482024271298,-0.5092962328213071,9453687.824874375,8686503.0,3031113.0,2174680.0,4246723.098624831,750961.0231477249,886484.2723265187,0.44191468478049567,0.5977947530470246,1.2609350814424944,0.04536142258199538,-0.12399413652061997,0.4760003648795391,-0.58,1.0,0.9913641127968701,0.9946022521931759,0.9597499938248691,12.0,0.036120343549401406,0.005327988776841442,4.728567185837534,3.6566859221626373,0.10464567978432236,0.0856355007021824,0.07747070823039784,0.08277039147950345,0.05834776993019179,0.09371316105091591,0.09599397250725247,0.0677477883817002,0.07024386743616291,0.0920935286459668,0.0979570079854028,0.07338062386600104,4.725356188792705,0.2618357099232651,0.5786615037835575,0.09523809523809523,0.48217921898618493,0.19712545824571867,0.002525299771314851,925.5362409615984,62.50000000000382,0.009237604307034013,1.5153337117992858,1.0654459439789008,Sam,REC_20260831_184100.csv
left,30,modular_paved,30.768,0.9920000000000009,0.0,23393.0,1.3678071756395789,36587.37970940253,752.2321428571429,0.22049134160727013,0.2751296616448506,0.44381328723141517,0.15395029545587274,0.4067734519758114,0.37846691987386816,4049.0,2989.7301587301586,-38.099999999999994,442.6984126984127,0.14807303308150124,0.0,-0.22580645161290322,-0.22580645161290322,1.3466153198960604,0.26458476435728295,9099679.34108109,8326093.0,2602285.0,2590068.0,4192609.5615818454,850004.2121111548,923728.7522816815,0.4485244542724647,0.5934766156987549,1.190742913571459,0.03606905271332028,-0.14183247109715513,0.47695057782791556,0.36,1.0,0.9919414442722623,0.9954173365429185,0.9622098745611551,12.0,0.036588555283299476,0.006078420650231023,6.292613887381777,5.845898564412039,0.10542969849166194,0.09142408137911262,0.077731705892659,0.08709709959490958,0.06699123454364943,0.09261333772225556,0.09327167605506681,0.06343408387442727,0.06864769873588422,0.0901074047134901,0.09051621158144547,0.07273576741543804,4.639118049019005,0.24896416348533634,0.5873949637058066,0.0967741935483871,0.5236513157073753,0.20024166819455205,0.004902707335284995,1376.34455472942,72.00110531887417,0.009237604307033988,2.083685537153494,1.709148397837825,Sam,REC_20260831_184100.csv
left,31,modular_paved,31.776,1.0079999999999991,0.015873015873015872,26834.0,1.6579908717076481,36406.20500683915,1093.75,0.3205957192509269,0.28256462240243285,0.46857577293461733,0.17321898440367448,0.3861395863380944,0.4485916247184761,3946.0,3022.546875,-3.3000000000000114,506.53125,0.1675842496239202,6.0,-0.7096774193548387,5.290322580645161,0.8706669474781099,-0.8053870131336103,9888976.41170915,9061574.0,2873510.0,2724458.0,4318027.125945462,712577.2387504568,977302.4270041266,0.4394672687260164,0.5954640717454165,1.162926546837702,0.03885086858364528,-0.1403735762693753,0.4633594928531448,0.38,1.0,0.9912768824487077,0.9951062333440915,0.9582982649235244,12.0,0.038121715356680505,0.0049741362522810586,4.459326055391,3.778055418640818,0.10323454454283691,0.08532229132095759,0.07722171388987971,0.08350263385079842,0.06174428643062815,0.08797423530445661,0.09907828145758699,0.07356172102376411,0.06759613943125366,0.09082261958302963,0.09965726337991036,0.07028426978489788,4.832129422488971,0.25806730184620186,0.5807739996567689,0.06349206349206349,0.4681477021735406,0.219345030031313,0.0020501508319204663,1727.1115578715016,178.4323822076984,0.009237604307032948,1.3978613159608675,1.45967798535023,Sam,REC_20260831_184100.csv
left,32,modular_paved,32.8,1.0080000000000027,1.0,20440.0,1.1187771104001112,35533.63264570624,352.86458333333337,0.10343028561547761,0.28906048906048903,0.46924066924066926,0.16106218868876232,0.3985414346062504,0.4041290934975233,3885.0,2973.8125,3.0,461.734375,0.15526680817973562,0.6349206349206349,0.0,0.6349206349206349,1.1746406177199473,-0.159319593217774,9109243.28069478,8361523.0,2841745.0,2233323.0,4237056.757722986,871973.8460287788,983277.9400495109,0.4328980379151979,0.5906354572704279,1.2552909774905932,0.04347473631430043,-0.1603040829622333,0.4723399325998038,-0.58,1.0,0.9908922631201202,0.9953181059727465,0.9566902369916922,12.0,0.03611309937493573,0.005707101097056431,5.242871656008443,4.2026520182197515,0.10528887581177361,0.0897522120174019,0.07852399066854417,0.0863159664571993,0.06539900380403943,0.08992034635673904,0.09627267186482,0.0672011937538093,0.06715390597087073,0.0896103486685862,0.09386099493495302,0.07070048969126332,4.317226324618573,0.20297019963415794,0.5385686864118214,0.07936507936507936,0.4971806690895963,0.16923541065465944,0.0026945906798022893,3200.102237950114,370.81893492125334,0.009237604307033988,1.302084365006339,1.3102501074069204,Sam,REC_20260831_184100.csv
right,17,modular_paved,17.664,1.0079999999999991,1.0,4690.0,-0.20992027678702616,41055.55218237845,257.8125,0.07726257729465316,0.24293059125964012,0.4102399314481577,0.14738030636076385,0.3861536612172002,0.38166233073150085,4668.0,3639.5,-23.099999999999994,518.7734375,0.14253975477400743,0.20634920634920634,0.0,0.20634920634920634,1.1656940611628317,-0.2855156614884864,9808400.390237186,9424428.0,2359161.0,1348790.0,4353377.146219387,1233259.1255117538,850524.4272331047,0.3848861415178425,0.5774017275248348,1.1704904519848411,0.0843914980471967,-0.11127902184362948,0.4750987723683516,-0.58,1.0,0.9899778175404131,0.9928830175163589,0.951808854708665,12.0,0.030793127719005817,0.004022560962104175,7.4640362203905095,6.870884690404168,0.091895349635939,0.08235592114301415,0.05881645830471219,0.08140283692814947,0.06594741722764116,0.07702809451847781,0.12011437010578375,0.06974258139854375,0.07941939139991758,0.09624862618491552,0.07763772496222009,0.09939122819068553,4.174600310046428,0.25579980141461256,0.5725692413592691,0.09523809523809523,0.4820251247818711,0.2354490526158832,0.0030906525083312774,9768.129060026457,466.2075145410925,0.05542562584220414,1.5104640185205258,1.6670069102652525,Sam,REC_20260909_142900.csv
right,18,modular_paved,18.688,0.9600000000000009,0.0,24340.0,1.4977062932232545,42918.784092748945,257.8125,0.07726257729465316,0.23962065331928345,0.4231822971548999,0.13890618211785571,0.38478902509483903,0.36099309766831544,4745.0,3660.2131147540986,-23.80000000000001,489.9836065573771,0.13386750749082962,0.0,-0.4,-0.4,1.2918065304757598,0.014293492697287746,9317801.242666855,8774468.0,2274862.0,2157576.0,4338757.899285297,1329736.6817654236,1084700.9926021525,0.40399268627253615,0.5870846870272659,1.145288503311776,0.0444102611820294,-0.10884835138676452,0.48158176549691545,0.44,1.0,0.9830570652527488,0.9923232406252385,0.9233381055803579,12.0,0.030548419773769302,0.003707031970382688,13.744826233544321,8.081492852683809,0.09546160977816394,0.0795573132443242,0.06382769076422137,0.08300152727826472,0.0629364052079741,0.07835251015572864,0.12168511194815315,0.06596408880608044,0.08094126920854738,0.09512569813636221,0.07294209331177527,0.10020468216040451,4.67893549783789,0.29862561390690096,0.5740581842693561,0.08333333333333333,0.4500920629779037,0.2622148439413158,0.0028031414216518717,10793.269445971104,536.7553283872297,0.048000000000000057,0.8251531401467221,1.2408368732162236,Sam,REC_20260909_142900.csv
right,19,modular_paved,19.664,0.9919999999999973,0.016129032258064516,24891.0,1.5455893588759602,40225.16927248411,1703.125,0.5104012681889208,0.24148211243611584,0.42142248722316866,0.14750021256695858,0.37893886574270896,0.3892454057932492,4696.0,3733.6507936507937,-13.800000000000011,533.0079365079365,0.14275784372077205,1.0,-0.5901639344262295,0.4098360655737705,1.0811264114760069,-0.49717093763141973,10658936.721008621,9475741.0,3922976.0,2904053.0,4375517.07044498,1140878.627137688,797609.268038733,0.3813224669391494,0.5788379601529665,1.1806138933760972,0.04635174365638206,-0.08252031532787774,0.4795039419181794,0.32,1.0,0.9872720908419494,0.9941239768654646,0.9417973274499101,12.0,0.032456200173214385,0.004261779627861467,16.113439060072068,13.203633793438186,0.0906342998044384,0.07815661933509055,0.07052546552163931,0.0799761925006377,0.06408043533713119,0.07802057648159169,0.1199047700025508,0.07013009097865827,0.07870504208825779,0.09524700280588384,0.07737012158830031,0.09724938355582008,4.626817079200584,0.30005497711961016,0.5917200715365822,0.0967741935483871,0.4348903665246247,0.2625161962040568,0.001976875516436627,11507.291181391622,834.451560938131,0.02444040370643006,1.4348664529534152,1.1415220684792162,Sam,REC_20260909_142900.csv
right,20,modular_paved,20.672,0.9600000000000009,0.0,18344.0,0.976641208552433,37491.317154775985,343.75,0.10301676972620422,0.23154574132492114,0.4197686645636172,0.1368929983060418,0.3967214850367024,0.3450607125381283,4755.0,3716.1967213114754,-24.599999999999994,490.9672131147541,0.13211550677583286,0.0,-0.6,-0.6,1.3471914070401863,0.28771522405833716,9515932.174746675,8912523.0,2349387.0,2366491.0,4257279.195450797,949299.1064267686,855210.6245124391,0.3888127044045607,0.5840425656729658,1.1159258540369668,0.030528249201987823,-0.09868548986503334,0.4797774368728848,0.36,1.0,0.9918846303470602,0.9918372409799868,0.9606363855081236,12.0,0.031035557148981912,0.00395812200190135,10.579566147051231,4.809867527969942,0.09699675324675323,0.08379358413325805,0.055185982495765104,0.08629040796160362,0.06973020186335403,0.07702216261998872,0.11920789808018069,0.0643836462450593,0.07988512845849803,0.09423083709768493,0.0725093520609825,0.10076404573687182,4.301735060849505,0.26335386966541685,0.5588525821044208,0.03333333333333333,0.376057856475564,0.26762885823871857,0.0032489269035756102,3631.3180802568213,810.7829412762601,0.01847520861406608,1.7998885031909702,0.2620711048298795,Sam,REC_20260909_142900.csv
right,21,modular_paved,21.648,0.9920000000000009,0.0,12093.0,0.43341608442346274,32018.102848232593,1093.75,0.32778063094701343,0.22160721607216072,0.4073390733907339,0.13900152642060712,0.38695396636800694,0.35921980003253423,4878.0,3753.9841269841268,-6.0,504.9761904761905,0.13451740161775216,0.0,-0.6612903225806451,-0.6612903225806451,1.2101100507268727,-0.12762147042291572,10332383.318826301,9637010.0,3132516.0,2018298.0,4315131.47929512,1259337.8679442985,765268.4929609128,0.4016112262009577,0.5851985768949193,1.0684648267869172,0.0534561315657236,-0.09842060468482283,0.4802924534923645,0.38,1.0,0.9886746800707964,0.9930238166869683,0.9455078654348757,12.0,0.030272701716955844,0.004007802209657293,7.793456927806369,5.034809475173304,0.09929767738825629,0.08275652111407564,0.06318789349727909,0.0818389774250426,0.06634644250975684,0.07766140523718716,0.11572044092836818,0.06436336421410481,0.0783506200819447,0.0938346983733684,0.07463816220650231,0.10200379702411408,4.5828069295209,0.27657714326279587,0.6041416975776563,0.04838709677419355,0.4389870535971334,0.3363264956759659,0.0028519751532573036,6399.570480378614,680.8987052969039,0.018475208614067096,2.0280257654241236,0.21670029076089892,Sam,REC_20260909_142900.csv
right,22,modular_paved,22.656,1.024000000000001,1.0,19262.0,1.0564173506017682,35028.20356512735,1031.25,0.30905030917861265,0.23935357064861323,0.44813278008298757,0.1461731389583282,0.38478990834013976,0.3798777873067679,4579.0,3729.507692307692,-33.900000000000006,528.623076923077,0.14174071232334234,0.671875,0.0,0.671875,0.9211251621568312,-0.7844677662652608,10086253.154256094,9108000.0,2757445.0,3342654.0,4106679.750267548,1291895.8634933617,1107139.2524055322,0.37263677425315156,0.578227539042403,1.1996221402697904,0.040756049468263056,-0.10921176628458529,0.46667049721104764,-0.58,1.0,0.9903513481593297,0.9929696626904037,0.9539476350563415,12.0,0.028731144376820873,0.0032403007027423506,5.0415171783139225,5.418802068985698,0.09599947198640366,0.08306726398204754,0.059632535537790105,0.08100471087130494,0.06650496250278445,0.07753962164525736,0.11871643194812267,0.06869126880017161,0.07667334933874548,0.09577671625044346,0.07748187015815658,0.0989117969787722,4.3896472413963,0.261925387857238,0.5692444994484388,0.09375,0.40557437164414656,0.3054173861992925,0.0012660395667362155,3901.1170622442646,416.14550740496213,0.03200000000000008,1.4949155328573507,1.2912540848863394,Sam,REC_20260909_142900.csv
right,23,modular_paved,23.696,0.9919999999999973,1.0,14113.0,0.6089583577782092,38111.74866101003,443.75,0.13298528455564543,0.2391396933560477,0.43206984667802384,0.14746335771893815,0.3797426310903687,0.3883244746459388,4696.0,3727.5873015873017,7.400000000000006,531.9920634920635,0.14271753293759953,0.27419354838709675,0.0,0.27419354838709675,1.0275423625578732,-0.5272464422790533,10108267.286027908,9522167.0,1859473.0,2836858.0,4241571.389705048,1190774.2018636784,1012465.8262894726,0.3843848818911454,0.5781506381496933,1.2316277604132313,0.015247593173648655,-0.09194545054156467,0.5001201348704797,-0.64,1.0,0.9915489259238063,0.9933183949776311,0.9603054172052405,12.0,0.03423734693799425,0.004978069630140309,11.791115477217467,7.058413030281045,0.09542748618196374,0.08004241221608087,0.06291997036254779,0.08066837564619014,0.06486599272690109,0.07728306321804818,0.11701257888416695,0.06870693840008857,0.07688278728314837,0.09764177858779244,0.07875641931884958,0.09979219717422223,4.009752709935793,0.1936112529985259,0.5311097411198851,0.08064516129032258,0.47821959381116264,0.22735178326086114,0.002756345645723694,3696.556099939505,358.59970719452645,0.018475208614069153,1.525753285671544,1.1786304549453006,Sam,REC_20260909_142900.csv
right,24,modular_paved,24.704,0.9759999999999991,1.0,1426.0,-0.49356878185132924,30518.61820266442,421.875,0.12642967193670518,0.24475671140939598,0.4247063758389262,0.13697725890164508,0.39109857064581954,0.35023717595122217,4768.0,3738.435483870968,40.400000000000006,493.69354838709677,0.132058865404279,0.8852459016393442,0.0,0.8852459016393442,1.246199584041963,-0.07350798559370553,7972974.044374031,7854505.0,318871.0,1331686.0,4177407.268875633,857020.6690063996,1008936.8333847802,0.38315204644122935,0.5804343417357235,1.1783003930397267,0.01715767395734824,-0.1027331422855039,0.4835967572812214,-0.62,1.0,0.9860755898962635,0.9917614646007508,0.9334379843328708,12.0,0.02935231762130973,0.003541821287106361,15.195956023922854,10.974572127559426,0.09695275322176346,0.08362994697626659,0.05814058839517997,0.08493720419530337,0.06669600445244044,0.07800830949638239,0.12107445326016145,0.06451292804045163,0.07782710552542679,0.09556352277777058,0.07246433086119343,0.10019285279765988,4.256470350409819,0.3096621441218431,0.5683529616924738,0.06557377049180328,0.4124535698962149,0.18913827263351923,0.003224500225752007,9179.642930601018,345.6811286552007,0.024440403706432384,0.4207113923706547,1.0995212644311845,Sam,REC_20260909_142900.csv
right,25,modular_paved,25.696,1.0079999999999991,0.0,15539.0,0.7328807745127975,35149.10253477321,500.0,0.14984257414720614,0.24694173750777523,0.41592369894256687,0.1405758397663259,0.38423951596077616,0.3658547180258743,4823.0,3744.53125,7.0,508.5859375,0.1358209889422074,0.0,-1.6349206349206349,-1.6349206349206349,1.365796349613842,0.3330145552168431,10450858.86431431,9318138.0,3426953.0,3263242.0,4264679.044674909,1225899.1081081554,856590.5502897714,0.39251533425948093,0.5844686118591629,1.0586104736070614,0.034679145181952586,-0.09201990998775544,0.4895631337762019,0.34,1.0,0.9872591203257539,0.9921625094847856,0.9388205671738535,12.0,0.02845695815723571,0.0032189910045311155,6.685564070336305,5.059506028506348,0.09825578969330273,0.08303359065303567,0.06051324848737743,0.08124765282703943,0.06486960150219069,0.07649071562695597,0.11888587523471729,0.06446067181306071,0.07859795535155435,0.09632797830168996,0.07611516795326517,0.10120175255581056,4.936653553754886,0.2946915284220388,0.6230623920683874,0.09523809523809523,0.43799801349215234,0.23720377963091016,0.002446808830646808,7769.279396014358,40.30321275448656,0.016000000000000056,3.213443976755331,2.0150583391233794,Sam,REC_20260909_142900.csv
right,26,modular_paved,26.72,1.0080000000000027,0.015873015873015872,20894.0,1.1982416031339198,38511.59474755622,489.5833333333333,0.14672085385247266,0.2378354789439232,0.4422867117608553,0.14590509313446812,0.3880045480386583,0.3760396466276226,4583.0,3737.875,-28.69999999999999,528.5390625,0.14140094639333847,1.0,-0.3870967741935484,0.6129032258064516,1.0034671016289893,-0.6564950218007723,9069295.882988492,8431162.0,2656042.0,2028072.0,4042530.80803308,1121325.8054787507,673473.4257759757,0.35941106796310096,0.5810640402250108,1.1276460555794061,0.04731488957150676,-0.10578967232143022,0.4725433497283525,0.36,1.0,0.9908141469624411,0.9935500470764976,0.9558314267279672,12.0,0.02838223613867593,0.003976611903534425,12.028582720376376,5.793268240831253,0.09454736982911413,0.08391298531919875,0.06018626893622713,0.08234123666521753,0.068688760325051,0.07681921546333144,0.11664799518442966,0.06859261612547236,0.07624235026585961,0.09566347858074441,0.07731247700899575,0.09904524629635822,4.173755488641804,0.2273895294442068,0.55406284532894,0.09523809523809523,0.4707713455688025,0.23214270627077294,0.003281125537095122,10056.9695402409,42.41941570441274,0.0184752086140691,3.3597230335235824,2.657031100617693,Sam,REC_20260909_142900.csv
right,27,modular_paved,27.744,1.0079999999999991,0.9841269841269841,15099.0,0.6946438436830507,33105.31126571687,1416.6666666666667,0.42455396008375074,0.2466725820763088,0.43655723158828746,0.1495970645429733,0.3562216770221151,0.4199549724021149,4508.0,3623.796875,2.9000000000000057,525.1171875,0.1449080082613626,0.7258064516129032,-4.0,-3.274193548387097,1.1719413458314698,-0.10349362314844957,9241534.026842568,8477587.0,2081828.0,3033556.0,4098396.7933991156,865213.8588624798,1118496.4745539734,0.4115035834526013,0.5870297109936072,1.1341695304041748,0.029329931547469767,-0.10963244574396991,0.5179092344510774,-0.66,1.0,0.9832224065254465,0.9904939220776819,0.924501411601221,12.0,0.035717106179361344,0.005066612649869945,5.981875595773049,8.921697696096714,0.10169323439244922,0.07464546422735131,0.0666686788287492,0.07778012530020739,0.05573401516882758,0.07186436877756841,0.12171712163088612,0.06963518064185095,0.07619770354816038,0.09979174122445812,0.07996188390112235,0.10431048235836894,4.5051631714800315,0.22576931814723422,0.5742177353940586,0.06349206349206349,0.5498395905331178,0.18830612101936559,0.004856810924914516,3226.237488675213,532.2702621267175,2.0350724194510405e-15,3.1530545094628026,2.656581355268406,Sam,REC_20260909_142900.csv
right,28,modular_paved,28.768,1.0079999999999991,0.0,19559.0,1.0822272789118472,34458.034810476354,350.8928571428571,0.10515737792830715,0.24069640914036997,0.44374319912948856,0.1473150190663156,0.3765545011992315,0.391218319252723,4595.0,3732.859375,-19.900000000000006,533.1875,0.14283621386085565,0.0,-1.1428571428571428,-1.1428571428571428,1.00843957898847,-0.5619422251326016,9431823.384916248,8773246.0,1208291.0,3244916.0,3997067.3765870146,1027558.6133765066,949897.5949199608,0.36369292076106485,0.583394727509076,1.0777261064111001,0.049674673701985306,-0.11308833650952732,0.46896163099736954,0.36,1.0,0.9890259771702583,0.9928987407644313,0.9477572105126727,12.0,0.029643328636316277,0.0036080462717547946,14.024465478527727,14.340769866968316,0.0963194267129337,0.07936275392104745,0.06354880432644211,0.08108311741585497,0.06433992038609812,0.07459094276756675,0.11902320188528398,0.0683834024687844,0.07717776670866419,0.09800211801442427,0.07893161659753122,0.09923692879536883,4.802933896897036,0.30699497775252627,0.6097434065963115,0.06349206349206349,0.41898083394985475,0.18200656794624276,0.002754566560254533,3034.68422300136,579.4526682133293,2.0350724194510405e-15,2.967173740425158,3.2841195727342005,Sam,REC_20260909_142900.csv
right,29,modular_paved,29.792,1.0399999999999991,0.9846153846153847,16712.0,0.8348169560202815,35383.53716066272,375.0,0.11238193061040459,0.24350506384852488,0.44914134742404227,0.14865396390295726,0.38304955537623725,0.38808024135896246,4542.0,3736.560606060606,9.699999999999989,539.3257575757576,0.14433748423643525,1.234375,-4.0,-2.765625,0.9778243409324199,-0.7075386718282797,8891079.803813484,8365188.0,1627344.0,2535090.0,4058611.0110910465,1288080.9201413987,984982.6863281388,0.3545609936945593,0.575480622240982,1.1802297526891206,0.03575262141285118,-0.1017196488226304,0.46661369944802716,-0.62,1.0,0.988832243576916,0.9936989960683917,0.9458711920052565,12.0,0.030026968275987328,0.0036495346238643893,5.712570982590579,5.727035635068717,0.09443541094751697,0.08202325100461047,0.06283934747965436,0.08179617457311658,0.06686995413867071,0.07571377015810198,0.11917052223524308,0.07077080283683342,0.07664640550173754,0.09551402399711288,0.07788316106612385,0.0963371760612782,4.724024317844952,0.28058313335506524,0.6028456644741722,0.06153846153846154,0.44200968267976964,0.3335930665489248,0.0015114121052518508,2258.272865119126,608.4850603271584,0.018475208614068074,2.8472054739023944,3.1144852724132264,Sam,REC_20260909_142900.csv
right,30,modular_paved,30.848,0.9760000000000026,0.0,21014.0,1.208669856996578,34863.59663029619,515.625,0.15452515458930632,0.23520710059171598,0.42138630600169064,0.15673116579598567,0.3815773645861974,0.41074544860868206,4732.0,3754.3225806451615,13.699999999999989,570.6209677419355,0.151990393868573,0.0,-0.3114754098360656,-0.3114754098360656,0.7215180492614429,-1.1867732299691318,9571116.504491782,8824559.0,2169793.0,3004235.0,4122219.434728568,1149033.4561582918,1080417.4991256357,0.3785671131390588,0.5810328065868205,1.1560008248553424,0.030506332310205053,-0.08781714156652909,0.4758674258100489,0.36,1.0,0.9880387405780615,0.9930703132309038,0.9421138074286235,12.0,0.02951513345559436,0.003986320691997928,14.68198733207132,10.85230022714316,0.09225065301072312,0.08442311657959857,0.05702673907066263,0.08109791723948308,0.06754794473467143,0.07441314957382458,0.11990909403354413,0.075182155622766,0.07409523645861973,0.09776687517184493,0.0815490101732197,0.09473810833104207,4.334180584767534,0.2847995629964371,0.5457267768554858,0.04918032786885246,0.41105420704475226,0.23189573022266216,0.0020372803560380058,2188.2122840346274,88.96930542986993,0.03199999999999825,4.996679612008492,3.3730407941374194,Sam,REC_20260909_142900.csv
right,31,modular_paved,31.84,1.0239999999999974,1.0,24881.0,1.5447203377207386,37705.59259579406,187.5,0.056190965305202296,0.2349320882852292,0.42423599320882854,0.15225058989704354,0.38185729798577717,0.3987106982111641,4712.0,3768.5846153846155,-16.80000000000001,557.0384615384615,0.14781105332342687,0.609375,0.0,0.609375,0.8697355983083231,-0.8219636250679225,9415819.570170777,8896641.0,871093.0,2957809.0,4109289.848862576,1007160.0157694216,1033640.8951912113,0.371648092511496,0.5798534339733669,1.085022738591634,0.03313104403902778,-0.09226113064611219,0.47191528869166527,-0.6,1.0,0.9909321757416193,0.9929300583955913,0.9563054263359682,12.0,0.02651832263112904,0.0029987784100169224,9.931513694689237,5.653677094195814,0.09562863837882411,0.08676997689399815,0.05847533046481437,0.07915642681602561,0.06547653067056393,0.07398411156198205,0.11808554935948203,0.07120812547457116,0.0764702520432074,0.0985352591056426,0.08104246442247241,0.09516733480841613,4.672805102421859,0.2705165809707365,0.576527803257983,0.0625,0.46029596670642675,0.21043645870381486,0.0014984000550656083,4086.429859914405,164.61958988832404,0.03330665599145589,2.3178036369614117,0.5243430686900896,Sam,REC_20260909_142900.csv
right,32,modular_paved,32.88,1.0079999999999956,0.0,4005.0,-0.2694482259197001,34316.427975533814,273.4375,0.08194515773675336,0.23223753976670203,0.4110286320254507,0.13888583811366342,0.3936401192900048,0.35282439799091536,4715.0,3698.96875,13.800000000000011,496.828125,0.13431530747590123,0.0,-0.4126984126984127,-0.4126984126984127,1.2978175002812962,0.10649405391977451,8562333.820569541,8234463.0,498466.0,2293188.0,4117568.6763092624,1294942.8643145568,1074888.4934948226,0.38191702654449033,0.577595429322045,1.1646489308672412,0.044452544085030965,-0.09187888998982507,0.4760583568718064,0.38,1.0,0.9871251662658539,0.9921810542022502,0.9373419426633937,12.0,0.027715787113549835,0.003361784278217192,10.586116570424336,8.577704186556119,0.09904365236932591,0.0847786967651457,0.055877060329314755,0.08437317833517788,0.06930985832199853,0.07706117414482076,0.11733844737131126,0.06553346794292328,0.07811721172286194,0.0946632084956111,0.07335237017074016,0.10055167403076871,4.092093515469946,0.20325253539989613,0.5592748268224463,0.031746031746031744,0.4251799038994898,0.2257001658910208,0.0035818441027231024,11106.058001529314,170.1499606658295,0.024440403706428037,2.536073758587409,0.5432828512606939,Sam,REC_20260909_142900.csv
right,33,modular_paved,33.904,0.9759999999999991,0.0,7676.0,0.04956944016211876,34549.12806425077,1365.451388888889,0.40920550196797784,0.23396804552418474,0.4495513241409499,0.14073649171294728,0.37861879557444444,0.3717102620310232,4569.0,3711.5806451612902,18.599999999999994,505.61290322580646,0.1362257624349247,0.0,-1.0163934426229508,-1.0163934426229508,1.0648797179511191,-0.41311509720019046,9122597.308932254,9011484.0,572991.0,1298699.0,4154867.696395657,1153202.6931888096,770476.5767908938,0.36530551093906927,0.5849685504680652,1.0855213412246443,0.024715802416180432,-0.1020743395003284,0.46034208471945137,0.38,1.0,0.988081629074832,0.992234040150942,0.9428533406319507,12.0,0.029850344610608214,0.0035476118552559073,3.808980722620006,5.150082668238099,0.09627234723055128,0.0780903710270383,0.0652708610365117,0.08086286166227762,0.06190302366611912,0.07809471662364527,0.12152895471019216,0.06632249541539557,0.07966782259536412,0.09748476868389261,0.07441399629755169,0.10008778105146056,4.516507813998065,0.26226104655316673,0.5694439532246802,0.04918032786885246,0.4353408687302826,0.30421856718133156,0.00234684487834292,11145.2205152403,656.689812876895,0.024440403706430004,0.7809816665913857,0.41161067574923027,Sam,REC_20260909_142900.csv
right,34,modular_paved,34.896,0.9919999999999973,1.0,14515.0,0.6438930082181141,35801.483516748296,1031.25,0.30905030917861265,0.2337917485265226,0.4256712508185986,0.13962555822741327,0.3875987633115768,0.36023220774591536,4581.0,3696.5079365079364,-19.599999999999994,499.6031746031746,0.1351554448643078,0.967741935483871,0.0,0.967741935483871,1.1722199342684938,-0.11147491937135001,9324353.842932014,8780576.0,748920.0,3046995.0,4165138.8259349773,796967.9180073116,1010205.4040580216,0.3668669325066011,0.5821300910817278,1.1343138096870857,0.03620074103154547,-0.11978210727778038,0.45536508611258386,-0.62,1.0,0.9926780356685844,0.9940453614024427,0.964453621277868,12.0,0.030179865502001375,0.00435684863797982,12.789338097864334,14.704891383629501,0.09486430779800757,0.08496221229817932,0.07037100652696669,0.07965046375815872,0.06672535211267605,0.0766274476125043,0.11888955685331502,0.06502919958777052,0.0796332875300584,0.09420302301614566,0.07459635863964274,0.09444778426657507,4.0454404267324975,0.208828035445144,0.546291602838905,0.08064516129032258,0.4586182031104658,0.23340888372759983,0.0022571647434634036,5333.983220820992,559.5332410467597,0.015999999999998165,1.5853308680634748,0.5184517899581365,Sam,REC_20260909_142900.csv
right,35,modular_paved,35.904,1.0079999999999956,0.0,3149.0,-0.3438364368066619,31849.82777033496,535.4166666666667,0.16045642314929992,0.23454111520937296,0.43458450857018877,0.1389643839740427,0.3854792985507731,0.36049765706326936,4609.0,3736.90625,-20.5,502.640625,0.13450715414656175,0.0,-0.47619047619047616,-0.47619047619047616,1.3169759621793755,0.18492075550857212,8360901.014405924,8148942.0,555887.0,1786169.0,4118143.937084798,1057188.961639955,1007946.4406267141,0.3657431829674901,0.5827912019118339,1.1137555297243238,0.03799934772245406,-0.092016529142804,0.4547018314259074,0.46,1.0,0.9907540137455212,0.9940521113824248,0.9554973152843793,12.0,0.029067964819193867,0.003653783339831783,15.825891194216577,18.45821554335842,0.09572172836821903,0.08208243784547713,0.07140348383104339,0.07848236760020405,0.06524865990416538,0.07807260350724614,0.11661551584281783,0.06500196519513969,0.08159322969368044,0.09286592351627768,0.073962418778903,0.09894966591682625,4.828498321431387,0.29089147579656033,0.6117371165891075,0.07936507936507936,0.4282127424838731,0.22385483455673216,0.0028828745281356508,5722.056827167415,417.63199567606347,0.015999999999998165,1.7499954355882028,1.371608984584302,Sam,REC_20260909_142900.csv
right,36,modular_paved,36.928,1.024000000000001,0.0,13998.0,0.5989646144931617,39166.33693620071,687.5,0.20603353945240843,0.23198970840480274,0.44189536878216124,0.1483650299796015,0.37871139224857314,0.39176278563628436,4664.0,3733.3076923076924,-26.099999999999994,537.3230769230769,0.14392681268415303,0.0,-0.15625,-0.15625,1.0061799171324928,-0.6662353488261994,10526159.799304113,9649227.0,3280346.0,2632829.0,4351540.848102635,1175201.9936617713,874822.2698887974,0.36409340180920224,0.5743888613119812,1.1571508046068646,0.04982723726375471,-0.08930090487555586,0.48071475742656533,0.36,1.0,0.9882022987117735,0.993810474818943,0.9440618735464849,12.0,0.02870993079229569,0.004286559974836197,10.859506976104505,15.427432239691356,0.09044155523046174,0.080493684709373,0.06925597016463025,0.07842086827519419,0.06340016071538952,0.07620794098860569,0.12047472853522345,0.06872849401438197,0.08018873756001071,0.09637566192075495,0.07963653596521954,0.09637566192075495,4.838322517096135,0.2905666634893279,0.6118245769340206,0.09375,0.4740153607223204,0.2571349883622265,0.0022546850235940787,6418.125972587319,254.0157794384115,0.016000000000001926,2.2101864546997168,1.2451094543847558,Sam,REC_20260909_142900.csv
right,37,modular_paved,37.968,0.9599999999999937,0.016666666666666666,15529.0,0.732011753357576,37220.40115313106,505.2083333333333,0.15140343429457287,0.23318385650224216,0.4456544949818492,0.14563332981678798,0.38347047860182154,0.3797771613285132,4683.0,3729.44262295082,0.09999999999999432,526.155737704918,0.1410816014347505,7.0,-1.7966101694915255,5.203389830508474,1.0771871010040852,-0.3818463069141047,10798552.780223561,9745744.0,3246137.0,3330437.0,4335357.685207691,1070653.5810544286,963967.2437121815,0.37212875183693594,0.5878002884029389,1.0518998136228146,0.03051284866725701,-0.10145412738359871,0.4713792737004995,0.36,1.0,0.9897872740449778,0.9934129807546539,0.9508020641655124,12.0,0.029649474536270537,0.0038616036712800328,4.096832759641472,4.850738817699735,0.09805447128740724,0.08596195097935788,0.06213735626120898,0.07699915602911699,0.0669154622498857,0.07520571790273235,0.11473608327179378,0.06750887927699828,0.07838819144072863,0.09489397615782255,0.07812445053978971,0.10107430460315786,4.197405323726604,0.2681200999163985,0.5420026076788891,0.06666666666666667,0.4460111078315453,0.196443183386312,0.0018567839879061205,6749.18713624092,97.70033727054252,0.03330665599146129,1.206724015174582,0.7247357734596285,Sam,REC_20260909_142900.csv
right,38,modular_paved,38.944,1.0079999999999956,1.0,4192.0,-0.2531975303170577,37254.23114224745,263.0208333333333,0.07882343744201989,0.2395276292335116,0.45766488413547235,0.14362378906791298,0.3765804579601332,0.38138938447787235,4488.0,3720.984375,-22.69999999999999,518.2734375,0.13928395963769669,1.3174603174603174,0.0,1.3174603174603174,0.9537676148409763,-0.6764676873349051,9091321.778217016,8869763.0,880867.0,1789835.0,4235061.524858927,885114.5388741428,766804.3982782422,0.3469530857027615,0.5809933547536696,1.1413646422524573,0.04825911922067139,-0.09456023121759227,0.446653312802891,-0.54,1.0,0.9895842792267193,0.993143639346458,0.9506120425059007,12.0,0.02953809670411933,0.003981102026043663,15.775576592066994,18.24552594163002,0.09491775949744481,0.07743666620475932,0.07041147545802312,0.07849065477465221,0.06064843392415482,0.07744506452005728,0.12001612476537207,0.06754345078377277,0.08255963853650958,0.0967275964441533,0.0760803382841402,0.09772279680696053,4.251124652126843,0.23414523761133132,0.5707071761564568,0.09523809523809523,0.474445911517444,0.1969200723991227,0.0030865201481283812,6151.275829722909,212.94271523361576,0.03330665599146129,1.3118266411108634,0.7730347898673801,Sam,REC_20260909_142900.csv
right,39,modular_paved,39.968,0.9439999999999955,0.0,19617.0,1.087267601612132,37351.086235878065,606.25,0.18168412115348742,0.22341968911917098,0.4261139896373057,0.13884629312541635,0.3944134228067901,0.3520323728772742,4825.0,3727.983333333333,-13.400000000000006,500.15,0.13416100751523388,0.0,-1.0169491525423728,-1.0169491525423728,1.2156415572567867,-0.08956276253496442,9354463.513265686,8550891.0,1605353.0,3436727.0,4342418.235528954,1216786.8357379541,1125149.5229536397,0.3982394460577523,0.5876645129484661,1.0182448955867065,0.04225078011299854,-0.09166744143458982,0.4762684015086603,0.42,1.0,0.9908385080130722,0.9934318609854168,0.9563398449895698,12.0,0.030097258721995805,0.0035248723559824467,13.706105768660489,7.8914180859278105,0.09903924820837003,0.08305205227133527,0.06078800423821638,0.08338735419954489,0.0687100711287157,0.07951126390944166,0.11309510503891738,0.06464174106643895,0.07975268129775259,0.09104117954747652,0.07420455205897737,0.10277674703481328,5.001951592366644,0.3122379721881458,0.6005570491667458,0.0847457627118644,0.41606025066534547,0.30403931616505486,0.0033556108571436384,7991.348843176181,176.38521499345399,0.03330665599145828,1.5351620254551468,0.6998743446140074,Sam,REC_20260909_142900.csv
right,40,modular_paved,40.928,1.0080000000000027,0.015873015873015872,18956.0,1.0298253032519897,39046.423664658454,484.375,0.14515999370510593,0.22165605095541402,0.4505307855626327,0.14002283756779904,0.39127386609796644,0.3578640172524178,4710.0,3721.9375,-27.0,504.96875,0.13567362428842505,9.0,-0.11290322580645161,8.887096774193548,1.1561435983153958,-0.2762756669451347,9181804.573022287,8630304.0,2509434.0,1877799.0,4083663.8280966585,1124015.4430098338,621747.2251663912,0.38303826781268036,0.5858360092109958,1.0811573273325839,0.06709255212217258,-0.12689243553541285,0.464365898629944,0.38,1.0,0.9884265344105985,0.9941846849016137,0.9445853700162004,12.0,0.028420104227248076,0.0036964968896505863,6.8527478360800185,5.968118377693031,0.09682037245386307,0.0829834931403335,0.06676630115363302,0.0827609947775856,0.06768987926315259,0.07779046531544391,0.11581249685143827,0.0650912663095498,0.08004903360145085,0.09143003476012157,0.07493157125824923,0.09787409111517859,4.383172936714051,0.26430747045313485,0.5768482521002085,0.09523809523809523,0.4288051215390302,0.27987459015474814,0.0026688228420476048,8721.07831635515,174.00069136662864,0.03695041722813808,1.8854613263462108,1.6173428199686997,Sam,REC_20260909_142900.csv
right,41,modular_paved,41.952,1.0080000000000027,1.0,19114.0,1.0435558375044898,36771.35186527686,575.8928571428571,0.1725865362945499,0.23189036328040027,0.4400696106156189,0.14712296733641256,0.38372044811887923,0.3834118511472475,4597.0,3768.53125,12.199999999999989,537.90625,0.1427363113945254,0.25396825396825395,0.0,0.25396825396825395,0.9185193594110248,-0.8083569833119246,9090027.648018735,8640077.0,1521054.0,2379930.0,4155268.672909266,1211108.2011709358,917906.4235998786,0.3705280830698192,0.5821960255351738,1.1680943338333287,0.050417520088217316,-0.10394348878337745,0.47416007902666363,-0.62,1.0,0.9897012126753694,0.994516515959884,0.9502604663047313,12.0,0.03063802289613261,0.0036681890571030173,10.870825468880934,10.468367675703774,0.0959425505626363,0.08247576559170101,0.06704369241995804,0.08019536789034189,0.0672302704137056,0.07669599396316536,0.11586908029487615,0.06893020324562786,0.07712305025996534,0.09357922930850049,0.07819276409078471,0.09672203195873724,4.594773209565689,0.28838351983825605,0.6013549879179253,0.06349206349206349,0.4513675934512845,0.35628101025429965,0.001441282284997952,345.1796633639415,63.44366257222398,0.03695041722814013,1.8641700345172116,1.5890608649368196,Sam,REC_20260909_142900.csv
right,42,modular_paved,42.976,0.9920000000000044,1.0,13424.0,0.5490828001834467,35105.45657016869,316.9642857142857,0.09498948896831817,0.23725946288855995,0.4193275533939522,0.1380654461090996,0.39410106489596264,0.3503300508600577,4729.0,3721.9523809523807,22.0,496.484126984127,0.13339346562437362,0.8548387096774194,0.0,0.8548387096774194,1.1614131148311575,-0.2977408465344098,8857624.261943266,8471479.0,948062.0,2406809.0,4278616.527824651,1167354.9323178597,873262.6287698413,0.3922285590794573,0.5801162994235852,1.1601438057340059,0.024630478846769277,-0.10274396986437317,0.47934959663825066,-0.68,1.0,0.9891399457100886,0.9936377679254014,0.9477098630412374,12.0,0.02871219211740498,0.0036903975171617334,14.563958148248084,8.210733163581082,0.09827578118669585,0.08411697223252858,0.06414537514446676,0.0836947667847989,0.06767654798002413,0.07871359544188705,0.11730487924497725,0.06638007872638955,0.07989918245672395,0.08981461342613324,0.07168536738271004,0.09829283999266471,4.116582626259895,0.20198692656874837,0.538547325080714,0.08064516129032258,0.4406701981054556,0.2082128332761041,0.0027212638235424662,3240.4754795142862,131.30490631586835,0.009237604307032994,1.003742718527885,0.759519927790433,Sam,REC_20260909_142900.csv
right,43,modular_paved,43.984,0.9919999999999973,0.0,20861.0,1.1953738333216888,37879.10994202477,625.0,0.18730321768400768,0.23533123028391167,0.4391167192429022,0.1413318094321463,0.3938153100508731,0.3588784027055522,4755.0,3694.222222222222,-27.19999999999999,504.44444444444446,0.1365495668912416,0.0,-0.1935483870967742,-0.1935483870967742,1.1784828393585536,-0.24326844254862312,8920357.805918885,8543561.0,1270599.0,2228436.0,4158388.0573200253,1206215.7923343293,909891.603584818,0.3943802949878319,0.5823130576510095,1.0957651588062483,0.03768709119835578,-0.10442119581227172,0.49155661970361214,0.32,1.0,0.9895588910769109,0.9934004741959306,0.9498799177155767,12.0,0.030034694943015732,0.004550630437638705,9.260858127002058,6.247829610532449,0.09769008662175169,0.0856764746322013,0.060398906915990654,0.08238519180530729,0.06709748384435583,0.07801543379623264,0.1168534304963564,0.06742833081259453,0.08064072597277602,0.09240083184380585,0.07390347861955177,0.09750962463907603,4.2809464376899085,0.2297558888463465,0.5614832204302586,0.06451612903225806,0.416051110878964,0.20104883209312965,0.0037341595225913755,3888.810400795255,165.5000089915116,0.009237604307035054,1.0267846602344197,0.5483753820851557,Sam,REC_20260909_142900.csv
right,96,modular_paved,98.08,0.9920000000000044,0.016129032258064516,22076.0,1.300959903681103,37707.690939647844,485.6150793650794,0.1455316270735266,0.2374637380853709,0.4479900538748446,0.1483336936457519,0.3919062744250245,0.3784927757619519,4826.0,3817.968253968254,-5.699999999999989,548.6507936507936,0.1437022932499626,2.0,-1.0163934426229508,0.9836065573770492,1.1244563337536946,-0.2511043963785595,10502155.94320528,9242391.0,3684739.0,3360980.0,4145219.9185463553,1152742.932688878,1062578.9932461772,0.3807929080156208,0.5807376163993475,1.1369921673620489,0.06204817416629593,-0.08948022359956898,0.4670704927353399,0.36,1.0,0.9914110269921229,0.9935969360711187,0.9583507034479682,12.0,0.030258187667722466,0.0035216570978283067,17.483422523726198,13.325919634957344,0.09420783928957478,0.08575158398882478,0.05723562769194951,0.0824214657509188,0.07064340711423013,0.07657193221691916,0.11669133420916968,0.07056857299652437,0.07651788535413168,0.0931726339946452,0.07776512064922755,0.0984525967438844,4.7251272742745245,0.2964114968931019,0.5974810848640862,0.08064516129032258,0.40558519863260406,0.2530785518980916,0.0020634073465337116,2578.2638215150555,518.3124897010351,0.015999999999998238,2.7474176938838304,2.271573323291325,Sam,REC_20260909_142900.csv
right,97,modular_paved,99.088,0.9920000000000044,1.0,6097.0,-0.08764900024735875,34640.35678222729,437.5,0.13111225237880536,0.2409109903886335,0.4201838696197242,0.1556764306237406,0.3672947402518184,0.4238460657424499,4786.0,3773.190476190476,2.9000000000000057,569.6746031746031,0.15097955079907954,1.1774193548387097,0.0,1.1774193548387097,0.9002668654144068,-0.6672683703782551,10934622.475478932,10396926.0,2455678.0,2332283.0,4370333.452643119,1070442.5515491087,1044927.1447074991,0.3899860946483158,0.5900933411315861,1.1027802667942608,0.045736209094224156,-0.105800140266334,0.4901407055848106,-0.58,1.0,0.9866825934333964,0.993087961302399,0.9376309145877739,12.0,0.03203122327189903,0.004331956516429018,4.643116121743381,2.726963419829346,0.09582644471648345,0.081056408832574,0.06598769093563192,0.07557075608617188,0.06125084661626934,0.07271013962332412,0.11813504633777991,0.07292047906912176,0.07670658909347906,0.09804342247519046,0.08275595155461885,0.09903622465935527,3.93550914054756,0.1815244763271332,0.5143301864473117,0.04838709677419355,0.3994816242823179,0.23465379607232115,0.0017916265428959573,9658.925630386299,428.8195400742292,0.009237604307028765,0.4823447113615731,0.8955403329778374,Sam,REC_20260909_142900.csv
