foot,step_id,surface,contact_time_sec,cycle_duration,stance_time_sec,stance_frac_true,stance_duration,time_to_peak_frac,impact_mag,impact_mag_norm,accel_mag_strike,loading_rate,loading_rate_norm,heel_pmax_ratio,fore_pmax_ratio,heel_mean_ratio,fore_mean_ratio,heel_fore_ratio,total_pmax,total_p_mean,midstance_diff,heel_impulse,heel_impulse_norm,rise_slope,fall_slope,slope_asym,heel_skew,heel_kurt,gyro_mag_strike,gyro_x_strike,gyro_y_strike,gyro_z_strike,gyro_x_std,gyro_y_std,gyro_z_std,gu_dip_depth,gu_load_first_frac,gu_push_peak,gu_load_slope,gu_unload_slope,gu_fore_early_frac,gu_fore_heel_toff,gu_stance_frac,gu_spatial_entropy_ff,gu_spatial_entropy_stance,gu_participation_ff,gu_active_sensors,gu_cop_wander,gu_press_jitter,orient_range_a,orient_range_b,pressure_01_mean_ratio,pressure_02_mean_ratio,pressure_03_mean_ratio,pressure_04_mean_ratio,pressure_05_mean_ratio,pressure_06_mean_ratio,pressure_07_mean_ratio,pressure_08_mean_ratio,pressure_09_mean_ratio,pressure_10_mean_ratio,pressure_11_mean_ratio,pressure_12_mean_ratio,accel_spec_centroid,accel_hf_frac,accel_spec_entropy,accel_zcr,accel_jerk_ratio,gyro_hf_frac,heel_ripple_frac,impact_mag_roll3_std,loading_rate_roll3_std,stance_duration_roll3_std,orient_rest_a_roll3_std,orient_rest_b_roll3_std,source_user,source_recording
right,11,soft,12.496,1.0079999999999991,0.5919999999999987,0.5873015873015865,1.0079999999999991,0.1111111111111111,14568.0,0.755373070101556,34255.16803345153,773.4375,0.20006134448019586,0.22078576225654803,0.4924445936870383,0.13367195622901362,0.4463822461606641,0.2994562561093356,5956.0,4583.515625,-56.19999999999999,604.1484375,0.13180896214355112,104.28571428571429,-14.410714285714286,89.875,0.9794114056964199,-0.6271799776762426,11037062.538782816,8841663.0,2269975.0,6203947.0,4213552.629049264,1444965.180597091,2102042.1038258546,0.4686584374140903,0.6036852962944488,0.7361161771973371,0.17989933841913075,-0.12925200215248256,0.4151813595107101,0.38,1.0,0.9911005953526729,0.9950544895515567,0.9572587624871814,12.0,0.03533013920474049,0.004340354325188477,4.9464719023312975,2.396985764609454,0.08410233683887573,0.09448601476077656,0.06362133324242786,0.10079940002386269,0.08578636076974211,0.08907600265898516,0.10416062997494417,0.06395200190901498,0.07623446794729755,0.09185430124938213,0.06971995431999864,0.07620719630469243,3.080554780377235,0.07032676327614498,0.4515853302202673,0.09523809523809523,0.6650892039791078,0.09663054927623721,0.001751728701194966,1471.845553491719,217.4907954230474,0.033306655991458406,1.2181567869255574,1.2298645330426021,Catherine,REC_20260519_154549.csv
right,12,soft,13.52,1.072000000000001,0.6400000000000006,0.5970149253731343,1.072000000000001,0.208955223880597,15788.0,0.865178261066755,36391.18916715968,520.8333333333333,0.13472144409440795,0.21464393179538616,0.5048478769642261,0.15405717773405797,0.4376700365558304,0.3519938877842927,5982.0,4529.735294117647,-1.8999999999999773,688.8014705882352,0.152062190363026,42.57142857142857,-14.018867924528301,28.552560646900268,0.4300282662383819,-1.6566519433978588,11456882.145677635,9093339.0,1563815.0,6791599.0,4323383.1482822895,1265508.1879995812,2168930.2348438306,0.49092617304838415,0.5975554638105806,0.7181435092297016,0.13942338335490845,-0.15799905095564082,0.3938256525072381,0.36,1.0,0.9903491855269573,0.994702545668705,0.9530309718806733,12.0,0.03401666716153292,0.00367368453855813,1.5377488671094426,1.1979791146029584,0.0768256812825058,0.08843848815993664,0.05297998194934129,0.0994896468434073,0.07956899182525924,0.09047730356922558,0.10576192609618794,0.07417002681626637,0.07969560615800171,0.09550291862269579,0.0798871509177916,0.07720227775938082,2.8060301461882764,0.09015374283673853,0.4651221275075349,0.08955223880597014,0.44941079211281965,0.16273398419659735,0.000723332644151744,1405.9321937182265,206.3107111123312,0.0640000000000009,1.52034274931792,0.8725049764948049,Catherine,REC_20260519_154549.csv
right,13,soft,14.608,1.0559999999999992,0.5919999999999987,0.5606060606060599,1.0559999999999992,0.12121212121212122,10452.0,0.3849155569763435,31430.37136274403,625.0,0.16166573291328956,0.21221916922579603,0.4924842411508001,0.11586696656810855,0.470519332296582,0.24625336009577428,6187.0,4472.44776119403,-122.19999999999999,510.57462686567163,0.11415999786420337,72.875,-17.586206896551722,55.28879310344828,1.3801830023570412,0.23936582841572296,10427679.045894632,7652919.0,2091602.0,6767165.0,3931178.651678133,1357819.4102655514,1937430.9285710992,0.49204488839507265,0.6088373269431884,0.7246591068363893,0.13451977198733533,-0.13759529187605568,0.438074372730768,0.34,1.0,0.9898377845962429,0.9922228595517206,0.9528160103130188,12.0,0.028316162025837973,0.003485408482916652,7.293414227581981,6.92118325349972,0.09076468193316291,0.09853030495171096,0.05873774419830871,0.10302882657998891,0.08639297322912425,0.09526654074365767,0.10113998144526687,0.05844407216322825,0.08730068679210022,0.08039271960327578,0.05742289440488029,0.08257857395529511,4.000531491120018,0.14713861996144986,0.5624474214044844,0.09090909090909091,0.4952570832429315,0.2111546012639616,0.00043797454551010333,2795.912254226399,126.9470039478773,0.03330665599145873,1.5032473877569297,0.964977923056766,Catherine,REC_20260519_154549.csv
left,12,soft,12.976,1.0719999999999992,0.6559999999999988,0.611940298507462,1.0719999999999992,0.19402985074626866,39683.0,3.0158299316515342,43573.74932226971,369.79166666666663,0.09565222530702966,0.2074652777777778,0.521484375,0.1268092258847698,0.4448816971928373,0.2850403302379896,4608.0,3307.1911764705883,-111.4,416.40441176470586,0.1259087816656217,56.07692307692308,-14.407407407407407,41.669515669515675,0.6540414045128877,-1.2871791930022252,6681067.032195531,6174625.0,1222952.0,2239431.0,4213199.889534061,675516.3155086917,1331277.3779623234,0.565697705684128,0.6170252806947879,0.647340125436743,0.14033118016221635,-0.21154889927096898,0.41728802093018685,0.32,1.0,0.9586262563929594,0.9906036837244898,0.8289687755680203,12.0,0.03815033768876341,0.005465812605054698,1.6265675094185386,2.435258212070181,0.09895993134390743,0.07606863830600874,0.058926848356300215,0.10715508539768508,0.07736260999871047,0.10366447447407387,0.11543917221384771,0.06612595547136588,0.08063088901635919,0.08496636118262788,0.06068327041340394,0.07001676382570957,2.9198684353764657,0.08691638477682337,0.4719077037548373,0.08955223880597014,0.43372508694922884,0.16046195824271886,0.00301704110864818,11279.676960504381,167.3434609180683,0.04888080741286214,4.58857380332469,4.518212162971102,Catherine,REC_20260519_154549.csv
left,13,soft,14.064,1.0079999999999991,0.6240000000000006,0.6190476190476202,1.0079999999999991,0.12698412698412698,13194.0,0.6317072238833727,34754.073804375796,156.25,0.04041643322832239,0.19737991266375546,0.5277292576419214,0.1155511139960493,0.45352317886979954,0.25478546495447446,4580.0,3345.921875,-119.69999999999999,383.453125,0.11460313161077618,79.0,-14.0,65.0,0.7911653355259836,-1.0531456425548886,10542966.881560855,9326690.0,2730567.0,4087910.0,4125990.025270095,684979.0255647175,1305296.6153075008,0.5519178555755044,0.6129063996297539,0.6429575449322382,0.1546018507337561,-0.21608394547460374,0.41880356386586204,0.34,1.0,0.956864977411152,0.9889949018267074,0.8232663980223446,12.0,0.03782356987148275,0.004955163732897557,3.972029919230886,2.3817736597617483,0.09964555732491512,0.07652506082497817,0.05920920523585148,0.11113342268339724,0.07831828858825342,0.107299464366603,0.11309476554947955,0.05950340666576383,0.0802469424065677,0.08445915970467781,0.05604770733028547,0.07451701931922723,3.0698978382048576,0.08184307952016652,0.43584940560164387,0.09523809523809523,0.5540102626477583,0.15299733040339555,0.002190812153145007,14243.51540175388,267.32165112844314,0.03695041722813555,4.605154519791893,2.884238704901526,Catherine,REC_20260519_154549.csv
left,14,soft,15.088,1.104000000000001,0.6880000000000006,0.6231884057971014,1.104000000000001,0.11594202898550725,9944.0,0.33919339549247374,32910.03260405556,0.0,0.0,0.1417973717676982,0.5228910555320051,0.07494610474700934,0.4967536035845627,0.15087178876238705,4718.0,3379.5714285714284,-127.30000000000001,251.32142857142858,0.07436488143044342,67.375,-8.59016393442623,58.78483606557377,1.5438681402793972,1.185210968661095,9489448.42724307,7816631.0,2568077.0,4728096.0,3855753.2166280034,795679.111262616,1161096.9544453295,0.5796171447433837,0.6162337203875604,0.6354325811144322,0.2504725270079392,-0.21186722142035785,0.4659623474431626,0.4,1.0,0.9507343324295181,0.9776030114662301,0.8018327196366432,12.0,0.032745625939506105,0.005193476166994931,10.326743289062291,8.014369698266904,0.10523312338842628,0.08469797522931902,0.059069197277761346,0.1178171365769117,0.08816417973538487,0.11756351185695565,0.10459060743120431,0.039730312381113415,0.08851080018599147,0.0684575389948007,0.035215792365895934,0.09094982457623536,2.6254370305994037,0.06391056961421142,0.4275983646786158,0.057971014492753624,0.3683777913043976,0.15337770556223404,0.004532120063092054,16312.764644085726,185.63404080739465,0.04888080741286313,3.3735113258929808,2.22338109024505,Catherine,REC_20260519_154549.csv
right,27,soft,28.096,1.1039999999999992,0.6400000000000006,0.5797101449275371,1.1039999999999992,0.17391304347826086,9662.0,0.34092026743619,34836.1193447261,506.25,0.13317875436657226,0.1987278665979027,0.46948598934158503,0.15781743965966016,0.413513616007557,0.3816499228810979,5817.0,4143.757142857143,-61.30000000000001,646.8928571428571,0.15611263759941804,45.416666666666664,-13.649122807017545,31.76754385964912,0.5044485008000884,-1.579615625169529,11220143.471486183,8605869.0,1325577.0,7076262.0,4224514.916018473,1656747.1861062003,2044879.2596272114,0.5079060755454781,0.5964839164171483,0.7362883235709086,0.08555284295380061,-0.1510115290224766,0.3753783733992656,0.36,1.0,0.9917428345444407,0.9945014156090767,0.9588313779569653,12.0,0.03297897974761801,0.0037500929174912223,7.526756753805043,5.642475000305481,0.084447171821294,0.07766243884949131,0.05801843047889597,0.09945425648910754,0.0751595343080641,0.08695697141655434,0.11528530008998046,0.07781413003382023,0.07428041494433968,0.09425883342584197,0.08000330962583992,0.0766592085167705,2.771061052934195,0.06961631472122874,0.4466703297502192,0.08695652173913043,0.4189853007561844,0.21106388941535142,0.001225932772796238,3823.182051642323,93.80255085792493,0.06974238309664921,1.8305013321742687,0.23687993963020687,Catherine,REC_20260520_190100.csv
right,28,soft,29.216,1.0399999999999991,0.6080000000000005,0.5846153846153856,1.0399999999999991,0.12307692307692308,13740.0,0.7208677230444076,34071.719798096485,335.9375,0.08837479070621307,0.21779359430604983,0.4711743772241993,0.14864591096222443,0.41777065501298744,0.35580744884419524,5620.0,4188.212121212121,-63.30000000000001,614.8787878787879,0.14681175883250971,81.375,-13.736842105263158,67.63815789473685,0.8255839634354624,-1.0912219243131236,11326410.086883707,8741481.0,1464854.0,7051828.0,4344302.125130217,1674075.8378938434,1960473.603872083,0.4838641732555752,0.5994461991769373,0.7443144827804391,0.13042436298593263,-0.14042327178243286,0.3862701573839766,0.4,1.0,0.9881466553106716,0.9954807125065013,0.9435663057256748,12.0,0.03587482508180157,0.0040453082876079636,5.897838573566398,11.175214414501056,0.08949360036465984,0.08376684923775966,0.06509612114809965,0.09822300685184247,0.07635065226356802,0.08622323838189436,0.11268639978004645,0.07278726005889546,0.0732069082779229,0.09180890088343185,0.07585865090332897,0.07449841184855041,2.544299145385931,0.04450147909139256,0.41013762913874086,0.09230769230769231,0.5155205161737384,0.182965480300933,0.0012960242775865518,3474.140037476901,102.79874387315262,0.06399999999999828,1.530553189387132,2.094777539706072,Catherine,REC_20260520_190100.csv
right,29,soft,30.272,1.0080000000000027,0.6080000000000005,0.6031746031746021,1.0080000000000027,0.14285714285714285,13639.0,0.7114575481997705,35069.35695161803,364.5833333333333,0.09591062557263434,0.2233816766890697,0.48001414927484964,0.1494896566781289,0.42956170514709896,0.3480050825919333,5654.0,4293.984375,-66.10000000000002,632.5859375,0.14731910558011754,55.44444444444444,-15.444444444444445,40.0,0.7524828465438231,-1.1695797959913639,12396681.218810016,9110444.0,1023810.0,8344419.0,4584269.7377911005,1281062.8925231933,2348877.624614143,0.4879457054140821,0.6024436027499469,0.7214744464456228,0.1403292084804778,-0.1242602166132255,0.40810158224130016,0.34,1.0,0.9890564572646655,0.9945393891372432,0.9469659532349811,12.0,0.031953311059883124,0.0036875349568252173,2.669771454562162,4.08771729810519,0.08616705783890981,0.08309953969033713,0.05267543620253625,0.10170478321780106,0.0784746101923112,0.08968942743300039,0.10664992813347161,0.07265251168968215,0.07659334461364918,0.09264414242308462,0.07683714498844678,0.08281207357676983,3.008824313962427,0.086133751423332,0.448815703147976,0.09523809523809523,0.6547092359583038,0.1329282372622584,0.00038657567558458334,2325.826519755935,91.19244839719892,0.04888080741286085,1.475543432011305,1.7710750712918641,Catherine,REC_20260520_190100.csv
right,30,soft,31.296,1.024000000000001,0.5920000000000023,0.5781250000000018,1.024000000000001,0.125,14577.0,0.7988510531925385,34564.09561958768,617.1875,0.162362987576531,0.2164509536784741,0.4606607629427793,0.15052951404134246,0.4344298284128629,0.3464990297540223,5872.0,4379.923076923077,-64.80000000000001,651.4846153846154,0.14874339205114245,80.375,-15.75,64.625,0.7007838244710872,-1.2588604148176112,11673494.834734412,8868541.0,1877799.0,7354817.0,4463528.969496033,1377752.758474516,2191395.4763920056,0.5065032276126487,0.6166212454613949,0.7107430759231942,0.18213906683517878,-0.12226941040731487,0.4307800219268356,0.32,1.0,0.9898314265711092,0.9948659417458973,0.9528119249740223,12.0,0.030394883515070532,0.0034236534690691334,2.2592805324097576,2.821064442614343,0.09046523472488101,0.09207748643284919,0.054012188482410996,0.09871265740529339,0.08616589683696586,0.08570224275101425,0.1046066843464058,0.07433218005233672,0.0717715449867402,0.08957656439347372,0.07619733398900577,0.07637998559862309,3.1974611837585476,0.10142199291763393,0.4925315625614937,0.09375,0.45137022362940066,0.16519610388702893,0.0005027493411653406,514.8808923754472,154.7745733234422,0.015999999999998526,2.008987935309149,3.7991267855082627,Catherine,REC_20260520_190100.csv
right,31,soft,32.336,1.024000000000001,0.6080000000000041,0.5937500000000034,1.024000000000001,0.09375,11208.0,0.48496116159271385,31716.725997492238,362.84722222222223,0.09545390830800275,0.20551601423487545,0.49110320284697506,0.1412891935460447,0.4347161508633835,0.32501482465133985,5620.0,4237.3538461538465,-67.89999999999998,592.7076923076924,0.13987684621752328,126.83333333333333,-13.293103448275861,113.54022988505747,0.8091934388505588,-1.0685690002868407,9286403.946328094,7411017.0,1740965.0,5318192.0,4154813.834426821,1484461.9386867103,1670563.7824596136,0.48123125073257633,0.5975245922201408,0.7340834732020531,0.08619164295833792,-0.1320423604909362,0.3982382184335229,0.44,1.0,0.9908970312430019,0.9945451287033736,0.9553232709797325,12.0,0.03434279034063688,0.003629977037340989,2.383466902933076,4.006477070053236,0.09136326008975121,0.09177353065047851,0.056119929709397734,0.09929999854771482,0.08266770263008844,0.08747113583223201,0.10699347923958348,0.06830460229170598,0.07350378320286971,0.09037570617366425,0.07298459125433869,0.07914228037817506,2.7473961887005434,0.05450112890279633,0.4317081588755417,0.09375,0.5484204388180436,0.08836750535316291,0.0009979709418129646,1738.7622992615575,146.34483022370358,0.009237604307033496,2.576421853450336,2.8694477705933354,Catherine,REC_20260520_190100.csv
right,32,soft,33.376,1.0720000000000027,0.6240000000000023,0.5820895522388067,1.0720000000000027,0.08955223880597014,10016.0,0.3739024644164031,30526.987306316358,310.7638888888889,0.08175239036905499,0.20898876404494382,0.481590319792567,0.14628076130022755,0.43408157574964806,0.33698910405843746,5785.0,4272.10294117647,-81.89999999999998,619.3161764705883,0.14496752185003256,133.5,-14.0,119.5,0.7243919327854121,-1.259471871236613,8460836.196411913,7882605.0,879645.0,2945592.0,4016807.899532828,1660944.2386723645,1717192.7165605845,0.4947314437004384,0.6058539239884352,0.7293831733233406,0.10165619140394988,-0.12503042751952842,0.39960391685257274,0.44,1.0,0.9908931976507753,0.995350868450339,0.9559347775890285,12.0,0.03395644506913569,0.0038150060754688236,2.434933003833081,6.3837923708675675,0.08282530645122425,0.08719359180455968,0.05909749641139679,0.10044990929525685,0.08112824996643753,0.08973401307387532,0.10798511547212938,0.07250871763802784,0.07557581160951866,0.09187512693500584,0.07377204366219971,0.0778546176803682,2.605286050438828,0.06130319778118935,0.43485055123528893,0.05970149253731343,0.413290106998736,0.18539749314996432,0.002050224327518117,2365.5072042446495,163.9598934483476,0.027712812921103055,1.5975309671196036,0.7951007735318422,Catherine,REC_20260520_190100.csv
right,33,soft,34.464,0.9920000000000044,0.5919999999999987,0.5967741935483831,0.9920000000000044,0.0967741935483871,14730.0,0.8131060705314441,32407.03375812109,350.0,0.09207420054972897,0.1974264057817733,0.4794641283271638,0.12645513058817526,0.4495433240758964,0.2812968713261577,5673.0,4355.142857142857,-90.69999999999999,544.7142857142857,0.12507380436921867,117.0,-13.928571428571429,103.07142857142857,1.0653306817569854,-0.5178031543092647,10623350.786252847,8098851.0,2306627.0,6476393.0,4173641.048712074,1817046.2917979625,1732767.0344907858,0.4738509050321623,0.6009565252926503,0.728563930984547,0.15769767855967742,-0.11874771557902086,0.4140428401836061,0.44,1.0,0.9896424881942749,0.9938964186976604,0.950360996559073,12.0,0.033872021914706486,0.004091683205764956,7.533653487719242,9.017049411932163,0.08736614985384913,0.09446230327946527,0.06224715169804719,0.10492247807736886,0.08696523723093297,0.0881716197598898,0.10597214021736753,0.0628047847099215,0.07502168572823956,0.08659712654989177,0.06365034587825377,0.08181897701677272,2.8920490329668005,0.06028729445757823,0.4463303662565115,0.0967741935483871,0.5577327714732171,0.1146447406901252,0.001393686452044128,2451.093089487492,27.132996962679627,0.040265783654776656,2.050293828245408,1.8988635624944872,Catherine,REC_20260520_190100.csv
right,34,soft,35.472,1.0559999999999974,0.6400000000000006,0.6060606060606081,1.0559999999999974,0.07575757575757576,13653.0,0.7127619288713043,32719.612314329155,432.29166666666663,0.11372259889326643,0.19903746992093502,0.4635613612925404,0.1327254688578167,0.4456028809480489,0.2978559487213507,5818.0,4347.6567164179105,-79.80000000000001,571.6940298507462,0.1314947492730687,161.4,-12.98360655737705,148.41639344262296,0.9783070905558081,-0.7650671384426917,11858682.49807857,8532565.0,1894903.0,8014551.0,4230794.37084654,1607785.9644935655,2168275.084354682,0.4932869415133444,0.603974790786529,0.7141778209567415,0.14038526465774925,-0.12328010852664861,0.4272362953552937,0.44,1.0,0.9868399537506198,0.9935853767321441,0.9418269526564081,12.0,0.032945591275117224,0.003956268710020346,4.464068893115717,3.1260719377917496,0.08868390246246906,0.08919884789541802,0.05532573731603574,0.10662803431596365,0.08331473808158794,0.09145774186128743,0.10495961111320905,0.06619108595125871,0.07500351879379183,0.08690562423401867,0.066534382906558,0.08579677506840191,2.7173107011514577,0.06326177372790634,0.4523481765081966,0.09090909090909091,0.43902953944665285,0.13492953321004747,0.0009854908505121018,2470.138120294762,62.02202779323003,0.042332020977031454,2.9591788555883185,1.1672031897186685,Catherine,REC_20260520_190100.csv
right,35,soft,36.544,1.0400000000000063,0.6240000000000023,0.5999999999999986,1.0400000000000063,0.1076923076923077,10777.0,0.4448048709190646,33547.8997703284,1125.0,0.2959527874812717,0.1979020979020979,0.4695804195804196,0.14162831661247763,0.4348060682433702,0.3257275529400625,5720.0,4352.515151515152,-72.0,610.0530303030303,0.14016103541665215,97.14285714285714,-12.775862068965518,84.36699507389162,0.6953429892975351,-1.2910746665670993,10264020.761338707,8200254.0,2111150.0,5800776.0,4173090.036724735,1465990.6637465467,1783764.7009688306,0.4792592173320528,0.6035068439926485,0.7287740282523928,0.13117913753260158,-0.1275171685433255,0.41486566253854334,0.32,1.0,0.9906102859024608,0.9950884686821895,0.9538003233381152,12.0,0.03217279253702989,0.0036196059634122685,4.99091762790099,2.071526808766336,0.08879575028022807,0.09146574951438735,0.06149004755174645,0.10098654208990969,0.08250889419562356,0.08665835845522964,0.10783385433709523,0.06970194871652056,0.07318652398821997,0.09049452423885875,0.07192636789595705,0.07495143873622356,2.7311994803111292,0.06951289618385026,0.4487873989785015,0.09230769230769231,0.4450862347560281,0.13715482293132822,0.001235377855722225,2043.5881026599614,425.6841069526052,0.03330665599145559,1.1315411285048935,1.4858421101688768,Catherine,REC_20260520_190100.csv
right,36,soft,37.6,1.0559999999999974,0.6239999999999952,0.5909090909090878,1.0559999999999974,0.06060606060606061,12624.0,0.6168899495135662,32497.51950534071,625.0,0.16441821526737316,0.19488817891373802,0.48260560880369185,0.1359111405142847,0.44232664217691814,0.30726419698647145,5634.0,4286.492537313433,-71.0,575.6417910447761,0.1342920315465102,140.5,-11.35483870967742,129.1451612903226,0.8183923165207837,-1.0782652072113772,11058930.054922944,8217359.0,1704314.0,7202101.0,4291718.793125001,1359049.6554014743,1981016.6412807126,0.494220470429218,0.6082100592652095,0.7201692230016251,0.14351203459496387,-0.12503443759854427,0.42324535071021957,0.44,1.0,0.9904261093512803,0.9940189380106107,0.9541053147482791,12.0,0.030508216934574877,0.0035622646037832373,3.4593282240979883,2.06661861787245,0.08726126847612249,0.08633506850746009,0.056250979299778896,0.10588276258291404,0.08228555511063912,0.09087205557199812,0.10718153171190306,0.06645310677414301,0.07695120040390675,0.08844513309772105,0.06945803374014171,0.08262330472327165,2.9886007055646475,0.09208580120552608,0.48556058413502057,0.09090909090909091,0.5056431971026337,0.16114821920533756,0.0012802912012560472,1457.259185365919,357.53352682080873,0.00923760430702874,1.1274620268371784,1.3774291318179879,Catherine,REC_20260520_190100.csv
right,37,soft,38.672,1.024000000000001,0.6240000000000023,0.6093750000000018,1.024000000000001,0.171875,10849.0,0.4515131143726673,32501.6540502172,218.75,0.057546375343580605,0.2028985507246377,0.4723240789243932,0.14730088123035473,0.4329044117647059,0.3402619082346954,5727.0,4385.476923076923,-67.69999999999999,638.8615384615384,0.14567663897620114,57.0,-14.547169811320755,42.45283018867924,0.6355355441932599,-1.3943784654303875,11279553.413284631,8611978.0,1310916.0,7165449.0,4384040.446269919,1471940.7499811994,2058506.3194612253,0.48108191043110726,0.5997759276526764,0.7246180915112483,0.1939146364652291,-0.12103028234191615,0.4141318485289775,0.32,1.0,0.9935024995836182,0.9944567433477662,0.9675721820919813,12.0,0.032881595959309215,0.003884010951487933,5.688530647623249,5.388062057118731,0.08925965424337673,0.09003494050291873,0.05216518859452177,0.10173790413111808,0.0824364335428828,0.08704605410866637,0.10229568926807364,0.07048790413111809,0.07164907947911989,0.09169075550067356,0.07681297709923664,0.08438341939829366,3.0321054482627394,0.09717144106587959,0.4875587075122584,0.09375,0.5804804460382852,0.10949811467642633,0.0013566912965720579,1046.200904861653,453.9324701979359,0.015999999999998186,1.7850177531518063,1.7699383337388543,Catherine,REC_20260520_190100.csv
right,38,soft,39.712,1.0239999999999938,0.6239999999999952,0.609374999999999,1.0239999999999938,0.203125,13529.0,0.7012088429234331,32535.167250223258,453.125,0.11920320606884555,0.19859278803869834,0.47634124890061563,0.14748458200091366,0.4332243604385565,0.34043464649941396,5685.0,4310.6461538461535,-69.5,629.5384615384615,0.1460427135678392,55.84615384615385,-14.196078431372548,41.6500754147813,0.6228836976742931,-1.4220774841773278,11532974.621989116,8265006.0,1999972.0,7790975.0,4271317.21195974,1276133.5443277713,2315401.1373494253,0.46609271611255176,0.5968630208015723,0.7096383908175603,0.11546164262870118,-0.1278656734507121,0.40072101055157544,0.32,1.0,0.9905019151575877,0.9948436884282956,0.9535133898233791,12.0,0.03282773986292069,0.0034716513258496117,3.934872947712539,3.4695253421463406,0.08691896984924623,0.08781121516674281,0.05572250456829603,0.10305433417085427,0.07970248972133395,0.08839652809502056,0.10559544883508452,0.0706765360895386,0.07425979328460486,0.09171924965737781,0.07680804591137506,0.07933488465052536,2.7169003052503666,0.07519164048967478,0.46853327072883166,0.09375,0.5186799416383353,0.10252277098163248,0.0007630875820420021,1363.3323145880495,203.9247078172068,0.01847520861406798,1.2819067643882838,0.6324318603351925,Catherine,REC_20260520_190100.csv
right,39,soft,40.752,1.0399999999999991,0.6239999999999952,0.5999999999999959,1.0399999999999991,0.16923076923076924,16649.0,0.9918993925795485,36314.09292547454,307.29166666666663,0.0808389558397918,0.20039118065433856,0.4879089615931721,0.14481759170020977,0.4372413402120302,0.3312074554293204,5624.0,4276.121212121212,-70.89999999999998,612.6666666666666,0.14327626282669084,58.63636363636363,-13.685185185185185,44.95117845117845,0.6998458496617176,-1.2893342296829706,12404573.520439992,8697499.0,3650530.0,8056090.0,4315826.010926446,1476966.935440741,2230203.2790882764,0.48371296456843393,0.6003197085089358,0.7111585123871572,0.13607124634532308,-0.14429918744522663,0.40399340411017165,0.36,1.0,0.9910259932614505,0.9940171676146529,0.955792056610215,12.0,0.030950470840323957,0.0037224663265191275,6.3679396542634805,4.050994502190065,0.08980455241226827,0.08654118714212825,0.05154416350133228,0.10402729746584273,0.08076208968762402,0.08970534043880038,0.1052391008560576,0.06979562333465615,0.07620542547763479,0.09028643914054085,0.07502196836555361,0.08106681217756108,2.8721748008607335,0.07071414935093061,0.461251316417767,0.09230769230769231,0.44955846331429733,0.1321429544037092,0.0011877076414250193,2902.7802764476237,118.34879838301472,0.009237604307035078,0.8446962947683887,1.4843621248843812,Catherine,REC_20260520_190100.csv
right,40,soft,41.808,1.024000000000001,0.607999999999997,0.5937499999999966,1.024000000000001,0.078125,13998.0,0.744905595419817,34724.296004382864,300.5952380952381,0.07907733210478422,0.1979686386315039,0.48930862437633643,0.13652555442125155,0.4361845391950303,0.3129995269276005,5612.0,4249.753846153846,-71.89999999999998,574.4769230769231,0.13517887008840332,146.6,-12.627118644067796,133.9728813559322,0.8643157430882905,-0.9422363253954207,10886967.701787584,8166046.0,2442239.0,6773273.0,4210687.7900114395,1481631.025624433,2147588.3291193023,0.4877093063557578,0.5965152097418706,0.7212230447032782,0.1112381354287798,-0.14398913195892415,0.4054533929460579,0.48,1.0,0.9875487197389137,0.9944411606061463,0.9442771642107255,12.0,0.03427225089899481,0.0038432746563627704,3.9486271337986345,3.599651930658169,0.0910532374725776,0.08745845913247464,0.0571110000941231,0.10289826741096317,0.08151784356741024,0.08845399190541352,0.10559525619583397,0.06504992144341391,0.07585597717876873,0.09013372720229951,0.07147563297783763,0.08339668541888398,2.7495397649348683,0.059751274481812805,0.44580781586719703,0.09375,0.5165469231853538,0.12310198117553896,0.0015714287084848675,1682.3674786839363,86.19506127909865,0.009237604307035078,0.5773760262803513,1.1226625975499434,Catherine,REC_20260520_190100.csv
right,41,soft,42.848,1.0399999999999991,0.6240000000000023,0.6000000000000028,1.0399999999999991,0.07692307692307693,15472.0,0.8822382461227383,34462.99804137765,277.77777777777777,0.07307476234105474,0.20540156361051884,0.48880597014925375,0.13320874362934088,0.43811945632286803,0.30404662862336423,5628.0,4248.287878787879,-72.10000000000002,560.3333333333334,0.13189627193842796,154.4,-13.4,141.0,1.0548103125103507,-0.5123165075594889,11679220.7081322,8591208.0,1836260.0,7695680.0,4367411.6825374905,1511823.4894642679,2113767.807705565,0.48824226857863684,0.600169840526052,0.7148762246464807,0.09453027859523999,-0.1416993407726287,0.40210938785711636,0.42,1.0,0.9910873836539918,0.9944785191646481,0.9564976556377441,12.0,0.035075207119766603,0.0037526742569498716,1.7956862681192907,4.657409969210306,0.08769308134827934,0.08842778017525776,0.0618502284342712,0.10353903711655675,0.08046378755077803,0.08962255739388773,0.10922760327689941,0.06567708203304717,0.07606629408638774,0.08924807498207833,0.06753166159629369,0.08065281200626277,2.732374637066218,0.060126217483691624,0.4474452128631546,0.09230769230769231,0.5453971229261385,0.11657363705839026,0.0014536056620538123,1328.2699273867531,15.473354992239804,0.009237604307033043,1.9153644988725276,2.2672915760116803,Catherine,REC_20260520_190100.csv
right,42,soft,43.904,1.0399999999999991,0.6239999999999952,0.5999999999999959,1.0399999999999991,0.1076923076923077,13577.0,0.7056810052258349,34506.43466079914,320.8333333333333,0.08440135050391821,0.20295531422467508,0.4876268470713904,0.1334796467205355,0.44410958612693807,0.30055565313177734,5617.0,4273.378787878788,-82.39999999999998,563.6363636363636,0.13189478200132604,94.57142857142857,-12.482758620689655,82.08866995073892,1.0164666491803784,-0.6411795848395081,11735141.798626976,8360301.0,1102000.0,8161159.0,4330734.9922801275,1199401.6823249143,2387266.6557928165,0.48727167017707707,0.6057007103051206,0.7174650673831743,0.14014146200167232,-0.1380115219078656,0.41868158081639445,0.44,1.0,0.9901053698673337,0.9940944003748502,0.9522024546030807,12.0,0.03337546187143763,0.004172612180203111,2.890873599109364,2.3607884857288184,0.0905606591902653,0.09048265689983442,0.05575390986480785,0.10329276032378042,0.08249096768932396,0.09050393025177011,0.10375368294905386,0.06364986899160766,0.07733927096222916,0.08822413603599451,0.06982977772892786,0.08411837911240486,2.860894476159444,0.09021655910480594,0.46458377437179393,0.09230769230769231,0.4903672945716962,0.16573658180180406,0.0013947436356770487,995.0663294474448,21.540650943433576,0.009237604307033043,2.2648032897399326,2.018882631127492,Catherine,REC_20260520_190100.csv
right,43,soft,44.96,1.0080000000000027,0.607999999999997,0.6031746031745986,1.0080000000000027,0.14285714285714285,11040.0,0.46930859353430765,31826.988107579393,269.8412698412699,0.07098691198845318,0.20134228187919462,0.4722712822324267,0.139795590362502,0.43731827413392554,0.3196655585437893,5662.0,4277.5625,-65.30000000000001,589.0625,0.13770985228152716,49.44444444444444,-12.833333333333334,36.61111111111111,0.864282651617526,-0.99006150083612,10511029.832123682,8036543.0,1872912.0,6510601.0,4282304.321079182,1409698.949211933,1959188.564897077,0.47441590593272276,0.6026777626047544,0.7354655834951013,0.12123059068600595,-0.1311828540536163,0.41132517818362446,0.34,1.0,0.9886537744427462,0.9941186157232581,0.9456867671384449,12.0,0.03368311296295197,0.003458451335840307,4.115262918249537,4.434826249088957,0.09182361450008036,0.0887516254876463,0.054309551292354,0.10395815373825631,0.08320305080288132,0.08755716602621236,0.104655834952733,0.06738285530603001,0.0738482780789293,0.09048669657076898,0.072412735056472,0.08161043818763607,3.4223502155300927,0.11194161338720814,0.5091931093838258,0.09523809523809523,0.5476748748081637,0.11570450244366833,0.0009147354440319662,2223.736270334234,27.437685645843704,0.01847520861406599,2.452313458741719,2.2668197025545256,Catherine,REC_20260520_190100.csv
right,44,soft,45.984,1.0559999999999974,0.6239999999999952,0.5909090909090878,1.0559999999999974,0.06060606060606061,13539.0,0.7021405434031001,33354.89136543545,328.125,0.08631956301537091,0.19509613688481214,0.48385958722878813,0.13138818223263163,0.44744507511823683,0.29364091715132634,5669.0,4288.761194029851,-77.30000000000001,556.4402985074627,0.12974382888980918,137.75,-11.548387096774194,126.20161290322581,0.993069322479045,-0.7353725385572085,10787680.625763075,7765318.0,3143512.0,6796486.0,4138300.9460821636,1432183.8945138436,2206254.1023436137,0.4893841629189881,0.6083519230768353,0.7139590808324155,0.15628412863260666,-0.1391772430729975,0.42504453602349357,0.46,1.0,0.9905110887304307,0.9933499207021156,0.9535356613233769,12.0,0.03077919551811262,0.003800034974635276,4.272903053822397,5.3034824502717015,0.09295381542177228,0.09046553470194572,0.05418883788590101,0.10557270477854301,0.08333478338037285,0.09132512258697671,0.10355423929952286,0.06308052633227422,0.07674692967039849,0.08718726835498543,0.06830765590035741,0.08328258168694991,2.9313470817806224,0.07312232876329582,0.47644659460153377,0.09090909090909091,0.45207782746151237,0.2048954892696536,0.001425019423853229,1453.8921326334168,31.755188928138345,0.024440403706428457,2.4335024031263908,2.1523135162452225,Catherine,REC_20260520_190100.csv
right,45,soft,47.056,1.0560000000000045,0.6240000000000023,0.5909090909090906,1.0560000000000045,0.09090909090909091,16147.0,0.9451280285002632,34498.55778144936,218.75,0.057546375343580605,0.21512546060712406,0.48447095981751187,0.12879681740819243,0.44670446516516826,0.28832668453516086,5699.0,4288.253731343284,-77.69999999999999,545.1044776119403,0.1271157239665452,103.5,-14.416666666666666,89.08333333333333,1.2360950221863352,-0.10948006528852572,12567795.210583994,8539896.0,2422691.0,8896641.0,4284156.431094092,1509732.807302731,2423314.786156917,0.5064464376404166,0.6119129799112328,0.7035497871657489,0.18203975370098058,-0.1378040602380488,0.42382550999333524,0.44,1.0,0.9887311912090307,0.9938955351364742,0.9471481845996444,12.0,0.03206825072710816,0.0036869527231082055,9.167306375598471,7.654930705507411,0.08981494050042983,0.08909447188258102,0.06088829952003563,0.10601678309021867,0.08246755280826137,0.09129764403281439,0.10765262971045514,0.0644593178867646,0.07782801335129284,0.08553041456529986,0.06433749952142784,0.08061243313041873,3.0766800959528644,0.07472280419387088,0.45789737569846856,0.09090909090909091,0.5988283252414123,0.13273354969536688,0.0008676701366275145,2553.693860534842,54.726900271876445,0.027712812921101018,0.6697296023418287,1.3293900776098726,Catherine,REC_20260520_190100.csv
right,46,soft,48.128,1.0559999999999974,0.607999999999997,0.5757575757575744,1.0559999999999974,0.10606060606060606,13031.0,0.6548101590360147,32607.279463334562,304.6875,0.08015387994284441,0.21141685182020167,0.47376516834729104,0.13321997844857747,0.45217753334172994,0.2946187473401699,5851.0,4266.089552238806,-70.0,562.0970149253732,0.1317593097947017,114.71428571428571,-14.169491525423728,100.54479418886199,1.1822990142706467,-0.2409922323788658,11828052.395280171,8707273.0,1855808.0,7787310.0,4231424.186885225,1630435.1107699838,2208083.24511218,0.5108507962445221,0.6132847942424356,0.7161124872299144,0.2251787360058738,-0.12941642083590554,0.43504269194207956,0.4,1.0,0.9895633691106595,0.9920849834762429,0.9502483010901005,12.0,0.03308734032165542,0.00370350134162865,13.346787697107718,6.278813345037193,0.08994570161075892,0.09008564591292664,0.048333263361182245,0.10711686748674026,0.08754215822102801,0.09048448717410469,0.10696992596946414,0.06735519263333192,0.07694837454693032,0.08460682648305973,0.06586478581524553,0.08474677078522748,2.4602241140839656,0.04494026021487065,0.39979793449322726,0.09090909090909091,0.4353372345283519,0.13776501197654745,0.0010304781108303148,1671.784675130146,57.58683434243512,4.118313910115614e-15,1.8071237412173733,1.3569938907786385,Catherine,REC_20260520_190100.csv
right,47,soft,49.2,0.9919999999999973,0.5760000000000005,0.5806451612903246,0.9919999999999973,0.06451612903225806,11107.0,0.47555098674807683,33355.61586899573,734.375,0.19319140293916345,0.20316852367688024,0.4592618384401114,0.13727852770743967,0.44327083850828053,0.30969447069729333,5744.0,4281.412698412699,-58.60000000000002,579.7619047619048,0.13541369300297706,143.0,-13.03448275862069,129.9655172413793,1.0354074343059798,-0.5992131254103836,10631968.166857583,8304102.0,1225395.0,6525262.0,4319052.348324005,1524516.7525137584,2140738.760377068,0.49238051952667206,0.6124398488596978,0.7172866098934663,0.15599466766375092,-0.12290907858307765,0.4404536072422694,0.44,1.0,0.9908924956694893,0.9934225864432396,0.9547451250477358,12.0,0.03130124917800607,0.003762800387960996,2.6927370436885547,2.2310049881469496,0.09493973580890448,0.09341598419154039,0.05297168639634595,0.10507954280036629,0.08517437872827913,0.08667959322134437,0.10307382595123252,0.06567703139076629,0.07292133956675033,0.08802538844543967,0.0716014963166734,0.0804399971823571,2.9069475335339963,0.05889844494461071,0.4340294687651338,0.0967741935483871,0.5898071172759729,0.13570661830896857,0.001497607108957429,2543.3846215885915,276.25041242427704,0.03695041722813813,2.153445078337511,1.3047547915076783,Catherine,REC_20260520_190100.csv
right,48,soft,50.208,1.0399999999999991,0.6080000000000041,0.584615384615389,1.0399999999999991,0.07692307692307693,14309.0,0.773881480337462,34973.07081169739,369.79166666666663,0.09728077736652911,0.20418848167539266,0.4663176265270506,0.13746059488892268,0.44413584724084615,0.30950123873767893,5730.0,4282.439393939394,-76.69999999999999,582.1515151515151,0.135939230331056,136.8,-13.266666666666667,123.53333333333335,0.9504669975735935,-0.7910244462559697,12692862.188199004,8825780.0,2120924.0,8872206.0,4191722.477296651,1617678.300459333,2349702.6838795384,0.4997967468922272,0.6115119641451975,0.7161805965870228,0.16449236209281337,-0.125329102490914,0.4294203328275903,0.38,1.0,0.9877006659541072,0.9932844509061086,0.9428288659275049,12.0,0.032818183826624096,0.0037570942606491423,3.014031893977557,2.9901799041193016,0.08897506023542232,0.0873900106495519,0.05382446283447907,0.10840960794789149,0.08205462052568452,0.09047873450773243,0.10788597549541644,0.06731861265704552,0.07580287360998582,0.0885186508680623,0.07014198223187719,0.07919940843685098,3.034170640547944,0.08945699914713016,0.48424401738289496,0.09230769230769231,0.5364264019545418,0.13371742284550495,0.0015834940072395585,1611.8242253215285,231.58544395753614,0.03330665599145845,2.35993501475251,1.5472546640142266,Catherine,REC_20260520_190100.csv
right,49,soft,51.264,1.0559999999999974,0.6239999999999952,0.5909090909090878,1.0559999999999974,0.12121212121212122,11514.0,0.5134711962705252,31740.114067217844,502.60416666666663,0.1322196481108459,0.20588747604946872,0.4640306566800209,0.14135012372228312,0.44150934292784133,0.3201520556390829,5741.0,4330.835820895522,-73.19999999999999,605.7014925373135,0.13985787445806883,87.0,-13.827586206896552,73.17241379310344,0.852964463593168,-0.997366303984621,10481311.578614624,8136724.0,1739744.0,6373767.0,4007204.3593323245,1666193.0919016716,2069656.1546246305,0.4885595242800226,0.6059137791756688,0.7236431306666279,0.16475586740140846,-0.13365945207715402,0.42025252345267516,0.38,1.0,0.9908970404957497,0.993874933250259,0.9554670974011131,12.0,0.029383197285408717,0.00317934208448595,4.816970143218366,5.356173128501283,0.08948326130559749,0.09025178690818358,0.052287311401060084,0.10416106642404692,0.08410702839064535,0.08859411509274003,0.1047503842628013,0.067323532047173,0.07439534611222542,0.08937987221107918,0.07402659167511011,0.08123970416933755,2.690932934759422,0.06550937933682507,0.4436497481039965,0.09090909090909091,0.539225768446287,0.11966515787030212,0.0005054293707174131,1743.1044145432056,184.5164339043732,0.03330665599145845,2.138862083934348,1.9133729742471366,Catherine,REC_20260520_190100.csv
right,50,soft,52.336,1.0560000000000045,0.6400000000000006,0.606060606060604,1.0560000000000045,0.15151515151515152,14132.0,0.7573903818473554,32965.716388393565,451.7857142857143,0.11885088132184403,0.20992167101827677,0.463881636205396,0.14850053440073768,0.4300843165608344,0.34528237529826744,5745.0,4273.164179104478,-76.39999999999998,628.7388059701492,0.14713659003429944,80.6,-14.732142857142858,65.86785714285713,0.6925540680676996,-1.256184194505014,10189474.639506495,8406727.0,1263269.0,5617516.0,4101454.8002328738,1635118.7009676108,1864588.1190670754,0.48652969700723914,0.5975024070380259,0.7399668881109821,0.13760772662059462,-0.12259710347241382,0.39398337932049077,0.32,1.0,0.9906596702524431,0.9944921739450698,0.9543363839694373,12.0,0.0349714258361777,0.003763254071602354,7.406059640653853,6.425691799452096,0.08369483971470686,0.0862306236072399,0.057893413248946916,0.10269575483230993,0.07839274612122864,0.08846602538578145,0.11188185901600409,0.07299983933049717,0.07429916661427444,0.09271678158028936,0.07550069507024051,0.07522825547848076,2.55802130369066,0.051543584564227606,0.42952298602286104,0.09090909090909091,0.5428606987216575,0.14905264126060772,0.0007935994921264695,1565.1026590397655,67.01330602151438,0.009237604307035185,1.1538672953821802,2.2371406357685437,Catherine,REC_20260520_190100.csv
right,51,soft,53.408,0.9759999999999991,0.5919999999999987,0.6065573770491796,0.9759999999999991,0.09836065573770492,32380.0,2.457557417143764,41116.02278917551,437.5,0.11509275068716121,0.21138211382113822,0.47465836360491265,0.1306401193430137,0.455096441449208,0.2870602963339747,5781.0,4303.129032258064,-134.0,555.5887096774194,0.12911272367444546,123.16666666666667,-16.181818181818183,106.98484848484848,1.2191848003945085,-0.16587783486167718,7382185.427251878,6174625.0,3309667.0,2327396.0,4129717.9799491456,1507912.00347954,1961133.262401963,0.4948447777736996,0.6014990044240381,0.7101808886255161,0.1556959103048341,-0.11994119746593723,0.4241409259680984,0.44,1.0,0.9844328480689218,0.9913674376665433,0.9281203505587837,12.0,0.033551937094685534,0.0036456263079907712,4.886319847512361,3.6542752682404966,0.09143384034123705,0.09215349670532322,0.0471974632113166,0.10922659430122117,0.08366380053524441,0.09289564233078705,0.10505108810542967,0.06439425174479187,0.07715690757663216,0.08620883528115325,0.06624586759822185,0.08437221226864172,3.463074536207947,0.15459199842739704,0.49085291749128074,0.09836065573770492,0.6752904439988843,0.2415117322726133,0.0011512022220259645,11366.862539856811,34.21780543422867,0.046188021535171125,1.1730621243177435,2.299251167073443,Catherine,REC_20260520_190100.csv
right,52,soft,54.4,1.024000000000001,0.6240000000000023,0.6093750000000018,1.024000000000001,0.078125,12514.0,0.6066412442372289,32730.81317352198,250.0,0.06576728610694926,0.18518518518518517,0.4717895465559017,0.12592818924046584,0.4541963035862745,0.2772549847854096,5778.0,4330.184615384615,-84.19999999999999,539.9230769230769,0.12468823500152773,143.2,-12.305084745762711,130.89491525423728,0.9686084335928149,-0.7880036272221989,11969735.936699564,8671842.0,1954768.0,8015773.0,4243734.092666055,1394584.7563906582,2059570.520893213,0.49888259501950727,0.6050866693183279,0.6974298484340857,0.2211245683797165,-0.11960181959529537,0.42534742343301646,0.42,1.0,0.9880310410328987,0.9923110193216399,0.942618238105772,12.0,0.031060263146923697,0.004448546966760105,3.966617910479847,6.1679787269328585,0.09212256006139372,0.09255956399087621,0.053620026859753714,0.10746743787793735,0.08665112874917395,0.09039586160831657,0.10552401389885668,0.06143280442830649,0.07712231135997044,0.08702773376157351,0.06449538481215937,0.081581172591682,2.8601146430075617,0.061740399244752636,0.4657370549919135,0.09375,0.4864559078797668,0.11828325665918102,0.0015413407266337755,11032.266192099125,112.60388249852362,0.04026578365477996,0.6039723904464791,2.320709571200438,Catherine,REC_20260520_190100.csv
right,53,soft,55.44,1.0720000000000027,0.6240000000000023,0.5820895522388067,1.0720000000000027,0.07462686567164178,11366.0,0.49968202917145305,32279.076597697152,242.1875,0.0637120584161071,0.20103368383532347,0.47870254856531813,0.13708445541720832,0.4439004037777878,0.30881804623399045,5611.0,4264.867647058823,-83.39999999999998,578.6617647058823,0.13568106037357203,144.0,-11.64516129032258,132.3548387096774,0.8444588162011124,-1.0037513722185882,11409209.883863693,8476366.0,882089.0,7585724.0,4105951.0252886433,1395098.7736071458,2313846.946299704,0.48324475196983274,0.6046349025918114,0.7278068762907286,0.11306903981612682,-0.13191786743624212,0.4170758061087551,0.48,1.0,0.9893617559122004,0.992980039997795,0.9489384814571564,12.0,0.030150332535633775,0.003484695955010624,2.8896194277634146,2.7512345688513875,0.08894835023499109,0.08954832747723362,0.05149115033567692,0.1062994162290396,0.08191413429145791,0.08967935698990728,0.10818899972759655,0.06701469944243495,0.07645916879014933,0.09004141222229502,0.07006975597477337,0.08034522828444439,2.5452925483697078,0.049173093395461574,0.43256878232284757,0.08955223880597014,0.4383987170541318,0.1855005545086676,0.00119044625520042,11814.99087318028,110.5774674248019,0.04800000000000182,1.0264805962625698,0.39945032305570316,Catherine,REC_20260520_190100.csv
right,54,soft,56.528,1.0080000000000027,0.6080000000000041,0.6031746031746056,1.0080000000000027,0.07936507936507936,13649.0,0.7123892486794375,35899.88526444061,525.0,0.13811130082459344,0.19791666666666666,0.44576719576719576,0.13274386502523505,0.44969480296081915,0.29518656686973926,6048.0,4405.453125,-70.10000000000002,577.28125,0.13103788273765823,123.8,-14.017241379310345,109.78275862068965,1.0280139210813677,-0.6222326628798913,10732338.875503093,8340753.0,1653001.0,6548475.0,4354302.550436629,1408113.477843068,1870043.8062602025,0.5233923670493823,0.6119570637428244,0.7079861960849468,0.20993462343488967,-0.11975418046726138,0.4399736138040003,0.38,1.0,0.987237878267986,0.9930796056514387,0.9428749408747685,12.0,0.030824156552706736,0.0037184750606227717,9.733915611020207,7.025065031921557,0.09372617033576995,0.09505265136602718,0.053023773803063674,0.10612202916130223,0.08624609415177922,0.08858339628798116,0.10189786096067019,0.0638448797477558,0.07369063199372937,0.08619998652238525,0.06889898527747926,0.08271354039205672,3.1309143663557384,0.09712290195064874,0.4688405329057389,0.09523809523809523,0.6070361723545789,0.129916201792633,0.000853066834311661,1141.5061687670964,161.0739712639811,0.03330665599145846,1.1513307043000929,0.3039210816608768,Catherine,REC_20260520_190100.csv
right,55,soft,57.552,1.0720000000000027,0.6559999999999988,0.61194029850746,1.0720000000000027,0.208955223880597,14467.0,0.7886023479162011,32464.53939300541,531.25,0.1397554829772672,0.1994759825327511,0.46655021834061133,0.15510743461248028,0.42642273632182337,0.3637410048776926,5725.0,4284.411764705882,-74.89999999999998,658.1911764705883,0.1536246310153086,47.285714285714285,-14.30188679245283,32.98382749326146,0.401268900298231,-1.7066813948365263,11232564.232229121,9219178.0,1436755.0,6254038.0,4314593.450318782,1141012.6079927383,1992368.261423316,0.49081548534903396,0.5967832084710497,0.7151506830505642,0.12622407650501466,-0.1280198603777042,0.3947834208303353,0.3,1.0,0.9854978551706352,0.9931900036505777,0.9361871443355775,12.0,0.0317427634413839,0.003181270300832916,3.7060532997671096,4.927382878130572,0.08617079700693349,0.08448548088144438,0.04891878904372898,0.10262579803665821,0.07906569643715247,0.0866616324569232,0.1110523786641038,0.07542733575890713,0.07358412850964509,0.09509507791583717,0.07968009885357315,0.07723278643509301,2.9717021291562222,0.10277338979857982,0.4924283984772838,0.08955223880597014,0.4477476638993317,0.16219002009705089,0.0007963577865346073,1607.1410433852207,165.1156673176408,0.03695041722813611,1.1691186119412729,0.30122684410640105,Catherine,REC_20260520_190100.csv
right,56,soft,58.64,1.0559999999999974,0.6240000000000023,0.5909090909090946,1.0559999999999974,0.16666666666666666,14017.0,0.7466758263311845,34587.77210229071,906.25,0.2384064121376911,0.225676664228237,0.48335771762984636,0.15925158635876335,0.4192695506041202,0.3798310326357056,5468.0,4120.955223880597,-50.60000000000002,649.1940298507462,0.15753484194361544,61.81818181818182,-15.272727272727273,46.54545454545455,0.5607876567642721,-1.4557099151086197,11611401.636290126,9064018.0,1886351.0,7007846.0,4475229.115101688,1262949.7990996442,2188298.148906939,0.48118707575532826,0.5940883895633249,0.7209493524177544,0.11281315470003539,-0.15414001053725235,0.38680750827664745,0.36,1.0,0.9865765169265817,0.9916335686375615,0.9406847935460783,12.0,0.03132309983860006,0.0035805336174880476,6.863270693341503,5.301887656469418,0.08414945093153305,0.07374395155448671,0.04586677483846666,0.1031495378553009,0.07452988728884767,0.08942644800509952,0.11595630631935792,0.07772071393387998,0.07841972590038536,0.0969598412192507,0.08153087242488338,0.0785464897285081,2.6535110918929807,0.07759669317126613,0.45569007056776284,0.09090909090909091,0.462948498403231,0.2114568383323315,0.0008884702831021932,409.6844314021911,218.33293575027398,0.03330665599145731,5.193142616565401,4.506167696346423,Catherine,REC_20260520_190100.csv
right,57,soft,59.712,1.0559999999999974,0.607999999999997,0.5757575757575744,1.0559999999999974,0.06060606060606061,13175.0,0.66822664594322,32748.133885765154,791.6666666666666,0.208263072672006,0.19909426366990943,0.46393827574639385,0.11810448892507228,0.46823853906403523,0.2522314569857764,5962.0,4253.253731343284,-93.0,495.47014925373134,0.11649202717498104,161.5,-13.048387096774194,148.4516129032258,1.5837059097731347,0.8870351767605613,11528504.25763876,8124507.0,1434311.0,8052425.0,4196774.627441315,1486226.198629428,2127284.010276455,0.5093654889269587,0.60596446278579,0.7130339446632932,0.24390930539133926,-0.16485818099729732,0.44016543267260066,0.46,1.0,0.9902919770516717,0.9893521903684903,0.95301351956272,12.0,0.03460624035046856,0.004308283295459526,7.019348630495616,9.132073772661826,0.09691263580472192,0.09646346256421773,0.046089385474860335,0.10945790404536648,0.08781687768451193,0.09425268802111114,0.10106748827938575,0.05930490441031975,0.08024760674882793,0.08052483085820161,0.05879958451475253,0.0890626315937228,2.8675012472296553,0.06442341506150062,0.44374868711007104,0.09090909090909091,0.5589640902084331,0.1712052235530025,0.0015492352582786842,655.83636170415,192.16797363919034,0.009237604307037031,4.340950359739275,3.8697376565967576,Catherine,REC_20260520_190100.csv
right,58,soft,60.784,1.088000000000001,0.6240000000000023,0.5735294117647075,1.088000000000001,0.08823529411764706,11241.0,0.4880357731756151,31827.230306767193,292.4107142857143,0.07692423642866388,0.20875021197218924,0.46108190605392574,0.13649563402878492,0.4388445834826617,0.31103410903579226,5897.0,4326.942028985507,54.89999999999998,582.1449275362319,0.1345395717429386,116.66666666666667,-9.580645161290322,107.08602150537635,0.9952467838517952,-0.6055742093640912,11153049.43049281,8746368.0,1303586.0,6796486.0,4159001.056850844,1411679.3122073202,2125541.9832545635,0.5106576030133934,0.6167870681286064,0.7481033899495523,0.23967532209640086,-0.14103375868479562,0.43742841301190066,0.38,1.0,0.9900357369174922,0.9928960986661891,0.9526402854654715,12.0,0.035438878465921586,0.003925169575608546,6.678536432057844,6.549631550244385,0.08864579530344087,0.08774145143840917,0.05047913477738069,0.10479335742684026,0.08171584175992017,0.08875297679855573,0.1086250958771968,0.06732337661902672,0.07584095605893643,0.0887663744854451,0.0691722574097582,0.08814338204508991,2.821692877769333,0.07218703157440014,0.43148537735609754,0.08823529411764706,0.48933221229342283,0.17215723770057434,0.0009371837908835783,1423.3467602801518,326.3904908111891,0.01847520861407006,5.606487905798078,4.341291471365269,Catherine,REC_20260520_190100.csv
right,59,soft,61.888,0.9920000000000044,0.5919999999999987,0.5967741935483831,0.9920000000000044,0.11290322580645161,14122.0,0.7564586813676883,29578.83920981349,260.4166666666667,0.06850758969473882,0.1985411848425547,0.4767834904821206,0.1428935274901722,0.43535057121237286,0.3282263466248893,5621.0,4300.238095238095,-74.89999999999998,604.4126984126984,0.140553310078807,32.714285714285715,-13.363636363636363,19.350649350649352,0.7026842637433396,-1.2781215890608477,10416651.763395425,7825183.0,1747074.0,6649878.0,3820367.1643219995,1230504.6501500697,2310384.107939945,0.4711155491020864,0.6021021774134766,0.7192624993077337,0.12036352994215216,-0.11907266643989445,0.41251590764761137,0.38,1.0,0.9899452439292997,0.9935686393045303,0.9513080790413454,12.0,0.027499504863249192,0.0028813899997876783,2.403384866854138,5.152394612938181,0.08841887676946644,0.09109868408910543,0.05334514515622981,0.10316889061144639,0.08099957551261465,0.08668401528154587,0.10854696122400014,0.06758208294114389,0.07339940571766053,0.0941882140154661,0.07531144454902829,0.07725670413229241,3.035158692673282,0.06738841490051337,0.4148208018038553,0.12903225806451613,0.7272737029882996,0.13597195062667886,0.00013544106451372152,1468.4076409498841,297.91125288438417,0.04888080741286002,3.9341116821499216,2.9743644087737064,Catherine,REC_20260520_190100.csv
right,60,soft,62.896,1.0559999999999974,0.5760000000000005,0.5454545454545473,1.0559999999999974,0.09090909090909091,11060.0,0.4711719944936417,30471.898431177535,392.8571428571429,0.10334859245377742,0.18451400329489293,0.43673805601317955,0.12556122537835906,0.4578554137132308,0.2742377213801779,6070.0,4285.0,-74.5,532.0223880597015,0.12415925042233407,120.66666666666667,-11.85,108.81666666666668,1.3691050033174959,0.24619576717193414,9666118.542286454,7222870.0,1182635.0,6313903.0,3528505.8772568065,1585156.5904128694,2032701.9344291633,0.5108531728115364,0.6125529706094762,0.7325030362201513,0.26461076846134857,-0.12287762246085798,0.450957737274134,0.34,1.0,0.9859716441297227,0.9920319863714359,0.9378006881395465,12.0,0.02862339323819261,0.004280526770097618,17.505170058316217,82.212279854873,0.0958463226458141,0.10202546195510197,0.053316846340061654,0.10475974851529982,0.08956268830874799,0.08754245110503492,0.10086556714676327,0.06111565857991258,0.07396506382904613,0.08368658458001706,0.0644455667984465,0.08286804019575403,2.3007444309460503,0.030445204534388082,0.3995150146748294,0.09090909090909091,0.36045555117554273,0.21716201348189254,0.0012206176005938952,1717.981664628585,69.1056966168062,0.04888080741286002,2.31062682335805,3.433731954438274,Catherine,REC_20260520_190100.csv
left,26,soft,27.52,1.1039999999999992,0.6720000000000006,0.608695652173914,1.1039999999999992,0.15942028985507245,71830.0,6.133115809430223,78068.95099846034,5000.0,1.3153457221389853,0.1835801393728223,0.5185104529616724,0.10945021749127716,0.4749410389796685,0.230450115926694,4592.0,3386.0142857142855,-2.5,368.0285714285714,0.10869079111133613,61.54545454545455,-11.189655172413794,50.35579937304075,1.0138087067414794,-0.7405154344591831,7697867.139018899,7163005.0,2230879.0,1723861.0,4103936.8720585746,812892.3945718617,1049546.7180011556,0.5189517208136081,0.6053840692058479,0.6642871306759887,0.17079258197128788,-0.1828409417609842,0.4353523853321986,0.36,1.0,0.9933474449542362,0.9870800496587775,0.9686431292897315,12.0,0.032780338305113114,0.00478625799940206,14.932695286969084,14.29673374900014,0.0984132207694677,0.08214883913239755,0.057952670860387905,0.10784276498706866,0.09147712649933973,0.11180443926909431,0.1121799334236207,0.06330662683897208,0.08166786909176824,0.07022162593187946,0.04614359065230507,0.07684129254369867,3.521609650959974,0.19290198331690595,0.5871575171230383,0.057971014492753624,0.5667761224250567,0.2671813495952496,0.0037104503343678035,25669.539932249147,2860.072205527919,0.0739008344562722,2.6831503512000148,1.7365067987428906,Catherine,REC_20260520_190100.csv
left,27,soft,28.64,1.0719999999999992,0.6559999999999988,0.611940298507462,1.0719999999999992,0.14925373134328357,34118.0,2.619486960509895,47794.408082954644,0.0,0.0,0.20738377392889698,0.554922515952598,0.12040382852710993,0.46736850454769796,0.2576207582570313,4388.0,3337.176470588235,-140.2,398.6985294117647,0.11947181484876261,64.1,-13.263157894736842,50.83684210526315,0.7835741136174221,-1.1329116715797014,8727219.58486808,7397578.0,3639535.0,2862514.0,4406076.3444189,1160768.720486607,1179092.2450391983,0.4817253965457843,0.6024613853962885,0.6795369420416487,0.12608116644383638,-0.1857246459183839,0.412309096971386,0.36,1.0,0.9581683612913348,0.9870458512678719,0.8287319574606101,12.0,0.032296230400125525,0.004193384471934988,1.6312313949765922,4.049727202532168,0.09214376366072058,0.07264859338644857,0.05161549037580202,0.10854544172601002,0.0820656772192061,0.11470157935556652,0.11587375731509554,0.06971374180356765,0.08940721286046677,0.07284248748501727,0.05069008672354227,0.07975216808855672,3.261879705494961,0.12393025159561108,0.4910683329696952,0.08955223880597014,0.4648030911089137,0.19207384271790093,0.0014935037480808125,23193.95508173053,2886.751345948129,0.06661331198291637,2.326196783591582,1.6858901565634203,Catherine,REC_20260520_190100.csv
left,28,soft,29.728,1.0399999999999991,0.6239999999999988,0.5999999999999993,1.0399999999999991,0.15384615384615385,42110.0,3.3641019838597908,45115.34138184039,4500.0,1.1838111499250867,0.208572691117985,0.5203269995581087,0.12629628956974992,0.45778772633987763,0.27588395735166665,4526.0,3337.030303030303,-121.69999999999999,418.8181818181818,0.12550625669711774,77.1,-13.981818181818182,63.11818181818181,0.7411531596091164,-1.1307150590582906,6951708.3978663115,6454402.0,1285260.0,2239431.0,4362997.859746246,677937.7683045212,1526294.9351123334,0.5264246742196204,0.6143528153333829,0.6743806220112294,0.13747405938270618,-0.180234797102528,0.4255255866860792,0.34,1.0,0.9647622319887236,0.9899314633543487,0.8494881411109011,12.0,0.03322059519306144,0.004219332288207014,3.2954895842035135,7.207123954168225,0.09283794337189663,0.07528014384046784,0.057953905668258844,0.10718112638709795,0.08368445905450318,0.11029585368954432,0.11550825448139336,0.07019033435644104,0.08134614336826429,0.07738689816748698,0.056105955213308877,0.0722289824013367,3.0771137458647027,0.09398613794245028,0.47749221114087903,0.09230769230769231,0.45517513118020697,0.2052803036683907,0.001985317410918638,19871.86204997744,2753.785273643051,0.03200000000000023,1.5569729673517474,0.5956717972371197,Catherine,REC_20260520_190100.csv
left,29,soft,30.784,0.9920000000000009,0.5920000000000023,0.5967741935483889,0.9920000000000009,0.0967741935483871,17362.0,1.0583296367798083,40155.46245531235,218.75,0.057546375343580605,0.20478663355159177,0.5296906750959585,0.10508466514459665,0.46611967275494676,0.22544567690833184,4429.0,3337.1428571428573,-109.1,347.6746031746032,0.10418331430745814,121.83333333333333,-12.571428571428571,109.26190476190476,1.195306206236968,-0.07165167840927289,11640307.435975607,9869138.0,2494773.0,5645616.0,4384474.488291439,810867.390304983,1665193.2436744673,0.5166081422246995,0.6137661471443936,0.664640410958705,0.22920132093926593,-0.18465019569466157,0.43551934097432154,0.42,1.0,0.9658208375125558,0.9873471967356469,0.8545813542648646,12.0,0.03591856051308125,0.00478524784763632,7.046164063852093,13.727040934484492,0.09856830289193302,0.07760654490106544,0.06479261796042618,0.10614535768645357,0.08286719939117199,0.11423611111111111,0.113603500761035,0.058937404870624044,0.08526445966514459,0.0724410197869102,0.0461472602739726,0.07939022070015221,3.021404810843268,0.07071494219517213,0.4407738720413594,0.0967741935483871,0.5696116785935255,0.11725994944358831,0.0012728698362043376,12629.98485087506,2537.287039503677,0.04026578365477659,5.760980472221915,4.4775248163305,Catherine,REC_20260520_190100.csv
left,30,soft,31.792,1.0399999999999991,0.6239999999999952,0.5999999999999959,1.0399999999999991,0.18461538461538463,15467.0,0.8817723958829048,33932.48599793419,126.48809523809524,0.03327511499458743,0.201250837614474,0.5208845208845209,0.1266787265812849,0.4521024401026747,0.2801991658183311,4477.0,3358.651515151515,-108.4,421.1060606060606,0.12537950385932306,41.75,-13.679245283018869,28.07075471698113,0.6349957122263716,-1.3881852927138132,9997101.555894189,9186191.0,1715309.0,3551570.0,4193792.9705248503,755959.5008761396,1005838.1704236479,0.5283988332160721,0.6123887664250974,0.6648076267465187,0.14669395599044377,-0.1678212397688711,0.42314035210077117,0.34,1.0,0.9660956392612061,0.9898910942039553,0.8548083172639256,12.0,0.031731705608035905,0.0036029490731417663,2.5450981065081875,2.14824890591251,0.09501017273346538,0.07450681415250529,0.05598837917454245,0.10414533249725946,0.0814495355729888,0.10931515624506588,0.11619923219546084,0.07190836870858164,0.08268560163485525,0.0775789345471442,0.05477035787270325,0.0764421146654276,3.426532872613481,0.12646908427874526,0.5204038688316663,0.09230769230769231,0.434965284705108,0.15322133199897675,0.0010919884263827456,14865.530476015094,2498.840404489797,0.027712812921101247,6.974355810531711,4.382979344654006,Catherine,REC_20260520_190100.csv
left,31,soft,32.848,1.024000000000001,0.6080000000000041,0.5937500000000034,1.024000000000001,0.109375,17975.0,1.1154428761833977,36844.88125913829,140.625,0.03699409843515896,0.20762124711316396,0.5327944572748268,0.1161246701537248,0.4583055526861929,0.2533782745441868,4330.0,3276.5846153846155,-117.5,377.76153846153846,0.115291250739513,103.14285714285714,-12.649122807017545,90.49373433583959,0.9659149027933722,-0.650699765970955,9784237.555231016,9009040.0,1844813.0,3341432.0,4164900.737677294,684606.9266133101,934156.1091308855,0.5044527913427418,0.6049608043530776,0.6912685817312354,0.13452285289211363,-0.18660545757235514,0.4175715486258022,0.4,1.0,0.964961162140103,0.9889154561313424,0.8519135122025033,12.0,0.03434448934665095,0.00464006917160366,4.320942102241159,6.88890110678534,0.0966062222389167,0.07658537501525979,0.06386575139216256,0.10230164617941759,0.08099428109945626,0.10940097099230905,0.11901229234944453,0.06611480998037356,0.0890232793997502,0.07540684953375465,0.05000986017335123,0.07067866164580379,2.906775992257695,0.05608684695156294,0.43114288587676863,0.09375,0.48591443498553033,0.18170119812719782,0.002667736774204352,1307.4694387761197,49.69176117416843,0.024440403706430646,7.031708192824462,5.067106591860089,Catherine,REC_20260520_190100.csv
left,32,soft,33.888,1.0720000000000027,0.6559999999999988,0.61194029850746,1.0720000000000027,0.07462686567164178,39392.0,3.11086579348629,42051.68111978402,93.75,0.024662732290105974,0.19837874352623283,0.5210538167079487,0.11189865581888929,0.47458878669968163,0.23578023534219641,4441.0,3325.8823529411766,-125.1,369.50735294117646,0.11110054828440041,137.6,-11.5,126.1,0.9653554945718987,-0.6850253828608763,7415176.950548112,6690196.0,1230282.0,2951700.0,4162079.764440604,711084.6968774026,1218486.3436594582,0.5097475617524712,0.6048565962687907,0.6679706619115394,0.16433263790123775,-0.1636822043992201,0.4412826090261424,0.42,1.0,0.9636140585384951,0.9857012121887134,0.8468504340250026,12.0,0.030803327710298662,0.0041989930278732105,5.836528034485646,9.549295761328864,0.09158560311284047,0.07479218252564555,0.05821100106119561,0.1091395472232048,0.08413512557481428,0.11611248673505482,0.1202909444640962,0.0656437920056597,0.09040944464096215,0.07169260700389105,0.046254863813229574,0.07173240183940573,2.719478465648681,0.06199424878471901,0.4378331159211363,0.08955223880597014,0.4419219425279624,0.1499602937764241,0.0012781597458814931,13149.040383237105,24.044751960554308,0.024440403706432523,2.0770307796561998,1.7012966568278705,Catherine,REC_20260520_190100.csv
left,33,soft,34.976,1.0080000000000027,0.5919999999999987,0.5873015873015845,1.0080000000000027,0.06349206349206349,17659.0,1.0860011410259192,35068.42609812992,0.0,0.0,0.2029445073612684,0.535673839184598,0.10597955914451929,0.4711467301188792,0.22493960452131592,4415.0,3335.84375,-109.5,350.7109375,0.10513410212933384,177.25,-12.23728813559322,165.01271186440678,1.1292451939392818,-0.19735849423300156,10059398.978141686,9296147.0,1325577.0,3607770.0,4148636.4731367007,584305.4430166126,1226628.246912266,0.5170692174186051,0.6180781081089426,0.6705949581719256,0.16419062964628417,-0.17819436879452022,0.4459272475504993,0.4,1.0,0.9686107900111477,0.9864346739782885,0.8650887510441594,12.0,0.03262311164936358,0.003974006588053695,8.843795675852249,13.139187067079604,0.09657882657123854,0.07705134570526573,0.05899463216764874,0.10724891566039327,0.08367916662763357,0.11501962584428602,0.113937628223744,0.06120078316018249,0.08814767628130064,0.07205823114466917,0.0447787759843368,0.08130439262930106,2.8698141006603612,0.0547789226725718,0.4163962418350067,0.09523809523809523,0.5049282819477063,0.15078437106264098,0.0025871302724935095,12457.33407809767,71.60274523368713,0.0333066559914586,2.5279800201240925,1.9231005172566389,Catherine,REC_20260520_190100.csv
left,34,soft,36.0,1.0559999999999974,0.6400000000000006,0.6060606060606081,1.0559999999999974,0.07575757575757576,39057.0,3.0796538274174443,42235.43410455254,156.25,0.04110455381684329,0.1994121636898033,0.5347049513904589,0.11624222196578995,0.4656257489547919,0.24964732347094015,4423.0,3362.89552238806,-131.1,388.03731343283584,0.1153878587216063,133.2,-11.688524590163935,121.51147540983605,0.8604452155153323,-0.9264003099440878,7184987.761159026,6581462.0,1415985.0,2510656.0,4246943.465575803,668683.1170125846,1273057.166265493,0.49290201858615124,0.6070629202039458,0.680960792493828,0.1396998257125739,-0.17831450820645367,0.4293727131752029,0.44,1.0,0.9643193365252721,0.9875318978189103,0.8504416597345319,12.0,0.03227495213569046,0.004059615702905735,2.4162025925948853,3.5564701114861066,0.09386012409348732,0.07474014042624959,0.059894192105239795,0.10711717869284641,0.08239168449363998,0.11374348686721641,0.11803527521592089,0.06830023877788331,0.08763325847483955,0.07226803483139085,0.047941983187906656,0.0740744028333792,2.720882955170018,0.058637301385733163,0.4324939506413198,0.09090909090909091,0.44882238768122107,0.1528289837010176,0.0012329495616440244,12451.973859593514,78.6441087007389,0.03330665599145744,3.046719516968952,0.5016263969174205,Catherine,REC_20260520_190100.csv
left,35,soft,37.072,1.0399999999999991,0.607999999999997,0.5846153846153822,1.0399999999999991,0.1076923076923077,38209.0,3.0006456267416795,42770.991548010665,156.25,0.04110455381684329,0.20008863283846665,0.507423000221582,0.11053802865716292,0.4665590426938827,0.23692184384392584,4513.0,3322.4545454545455,-129.6,364.5833333333333,0.10973312903019855,103.71428571428571,-12.53448275862069,91.17980295566502,1.1232499224584018,-0.3435261824093452,6842605.928446487,6256481.0,1578475.0,2277305.0,4125192.55487217,672027.1116117425,1332898.584917206,0.5150956810324665,0.6144762659380087,0.6735983801678,0.17558938643720456,-0.1596250397167711,0.4347341033491688,0.4,1.0,0.9659036349995985,0.988515366701342,0.8548939711388379,12.0,0.03328589955886485,0.004542325982489566,8.740560548473738,67.11417748847862,0.09624136956065706,0.08058116945303309,0.0689386269734862,0.10444997765434462,0.08649136728048815,0.10933409947008874,0.11684497587581287,0.06316523928092593,0.08570242883592817,0.07093605494295017,0.04737278937623699,0.069941901296048,2.6407999253376735,0.04505746828853322,0.40975580166642767,0.09230769230769231,0.45906494929839936,0.15113727099203025,0.00160549750817077,12116.76529991951,90.21097956088066,0.02444040370642868,2.897453058879072,5.001002340102339,Catherine,REC_20260520_190100.csv
left,36,soft,38.128,1.0559999999999974,0.6400000000000006,0.6060606060606081,1.0559999999999974,0.12121212121212122,42311.0,3.382829163501098,44605.714409703156,437.5,0.11509275068716121,0.2124234867377012,0.5499886647018817,0.12315647138627961,0.47629636617655646,0.2585710917234867,4411.0,3322.4328358208954,-105.1,405.9925373134328,0.12219736481538883,88.125,-12.793103448275861,75.33189655172414,0.894686996938698,-0.8381256908330461,7105647.326623733,6593679.0,1198517.0,2361605.0,4403795.166058247,803794.640699099,1415764.212778227,0.5001113124687235,0.607413281058867,0.6773927263387246,0.15100196221932438,-0.17439273926570587,0.43263966873443904,0.38,1.0,0.966398028821796,0.9867837025865733,0.8533587404603514,12.0,0.0334684721902755,0.004254412063675808,6.422492868032935,7.7404151204719795,0.08865109634641044,0.07614452635409226,0.050983140388943554,0.1090236879107649,0.09088377065897585,0.11294097563824387,0.11843506152208191,0.07169265463628073,0.08730340561447959,0.07112213222643002,0.05146381674999888,0.07135573195329803,2.788666055255153,0.06852850450626309,0.43198868918486827,0.09090909090909091,0.47677661526648857,0.14419035569078703,0.0011332305639896306,2165.4108155267463,162.37976320958225,0.00923760430703359,0.7958104470436163,5.444575215953904,Catherine,REC_20260520_190100.csv
left,37,soft,39.2,1.0079999999999956,0.607999999999997,0.6031746031746028,1.0079999999999956,0.12698412698412698,35582.0,2.7558879107331493,42958.43997400278,187.5,0.04932546458021195,0.20607424071991,0.5271091113610799,0.12112865768694844,0.46042266604737575,0.2630814393364521,4445.0,3364.0625,-112.30000000000001,402.5859375,0.11967254993032977,59.5,-13.254545454545454,46.24545454545455,0.7654321340546287,-1.087890987956857,7156820.51213498,6444628.0,1358564.0,2800206.0,4314116.743118928,773104.2934361065,1432430.6107718318,0.5102356125767087,0.609759583226836,0.6588547541634296,0.14026408333882112,-0.15610377546276344,0.42339592519650504,0.4,1.0,0.9649317255818118,0.9881938139894243,0.8506262947156261,12.0,0.03266438321268726,0.004324279816400269,2.2337302122060376,3.7982501467078578,0.09656758012076173,0.07121226196005574,0.055299581978634466,0.10627960984672549,0.08254064096609383,0.11228982814677195,0.11556432884347423,0.06925220622387367,0.08810032512772875,0.07389688806316767,0.05187645146307478,0.07712029725963772,3.2595666292817236,0.09234466196980401,0.46538004634747016,0.09523809523809523,0.592263477884014,0.12927646601170623,0.0014734868748707648,3391.3363639328873,154.15258944738272,0.024440403706432526,0.35121435781972077,5.909444348366779,Catherine,REC_20260520_190100.csv
left,38,soft,40.224,1.0400000000000063,0.6240000000000023,0.5999999999999986,1.0400000000000063,0.2,39798.0,3.1486928329607715,43326.62101987645,145.83333333333334,0.03836425022905374,0.1976142246230025,0.5262210218320954,0.12677790610408812,0.45722464644104205,0.27727706082955783,4443.0,3371.560606060606,-121.69999999999999,423.74242424242425,0.12568139023831246,43.30769230769231,-13.557692307692308,29.75,0.5751873846998632,-1.4551094842716488,6909962.625264264,6388428.0,1167974.0,2360383.0,4213135.49752728,617809.5206254973,1095922.7676272264,0.4775501943624094,0.6041164567918901,0.6813837267175222,0.11943236869709639,-0.1909368323035434,0.4144238867151378,0.3,1.0,0.9632966225277113,0.9893154525035223,0.8449508361412118,12.0,0.0323529174925011,0.004024696184679998,4.42254022465166,3.347692031497786,0.095504734342068,0.07449117619302274,0.05470445751675108,0.10363423106824914,0.0819465852968008,0.11110312192447522,0.11575432651905646,0.07276551187967087,0.08604953195849419,0.07530008133990644,0.05401239422441725,0.07473384773708786,2.9206600341726703,0.07231045776144783,0.46872488993677863,0.09230769230769231,0.4656874690491924,0.18065705912993268,0.0013189926078315053,3400.227100258678,157.7474540500076,0.024440403706433297,0.236299296415966,0.7533341053851711,Catherine,REC_20260520_190100.csv
left,39,soft,41.28,1.024000000000001,0.6240000000000023,0.6093750000000018,1.024000000000001,0.109375,39463.0,3.117480866891926,45425.16072618786,437.5,0.11509275068716121,0.2007370474745285,0.5235204855842185,0.12156822057218128,0.460695242649248,0.2638799130484191,4613.0,3410.4307692307693,-106.80000000000001,411.53846153846155,0.12067052210864407,101.42857142857143,-13.052631578947368,88.37593984962406,0.7526331465058683,-1.011968594157088,7200844.349319738,6555805.0,1321912.0,2669481.0,4258795.02262263,643769.3569109474,1349823.5171543346,0.5183348318867611,0.60423021606017,0.6724807318426983,0.17576330146810115,-0.16453723740865156,0.419156605699355,0.4,1.0,0.9646717821330097,0.9889014842915236,0.8486977470871134,12.0,0.03743431616288048,0.005307723912682317,3.22503215795996,9.382678045808916,0.09540414475049397,0.07600664026200164,0.05510695693754003,0.10558106803561923,0.08574599193424697,0.10932072645909834,0.11666020083183717,0.06873934265015022,0.08404081595828183,0.07453603875892059,0.05282887792203106,0.07602919549977896,2.9508653881562754,0.08448974228856532,0.46081230390816463,0.09375,0.48659780801629965,0.11946477947597106,0.0013151210003141238,2343.3964666697375,157.7474540500076,0.01600000000000563,1.8946861810139304,0.844578495686281,Catherine,REC_20260520_190100.csv
left,40,soft,42.32,1.0399999999999991,0.6240000000000023,0.6000000000000028,1.0399999999999991,0.12307692307692308,38300.0,3.0091241011066496,42024.52638638537,140.625,0.03699409843515896,0.19616063548102383,0.531332744924978,0.11388669018902857,0.4734657919567833,0.24053837072003895,4532.0,3388.1363636363635,-120.1,381.95454545454544,0.11273293175384698,69.75,-12.350877192982455,57.39912280701755,0.9193966290433497,-0.7704946279976794,7218788.682121399,6697526.0,1237612.0,2392148.0,4354047.3077296065,687861.7217487752,1224796.8494293806,0.5108975028624867,0.6167200254240934,0.6652082692772756,0.1507420714700064,-0.16837864084842136,0.4416141927536138,0.38,1.0,0.9642482516602725,0.986560700873456,0.8479558102202701,12.0,0.030450423461900255,0.00410560342491678,2.3654899907978164,8.149027921374298,0.09061922841286664,0.07378240473667029,0.05343064257189749,0.10962493906992761,0.08777955164410578,0.1149599538496626,0.11525510135633696,0.0654333078433214,0.08731894265641701,0.07160010196004776,0.04845338234570717,0.08174244355303935,3.224347046987404,0.09782206256324022,0.4843887681561938,0.09230769230769231,0.4807107086708472,0.1867891766295578,0.001904625432696228,786.214347363497,169.9173018488482,0.009237604307035527,2.66123909972659,1.3294718334099835,Catherine,REC_20260520_190100.csv
left,41,soft,43.376,1.0399999999999991,0.6240000000000023,0.6000000000000028,1.0399999999999991,0.15384615384615385,39463.0,3.117480866891926,42873.67852190899,0.0,0.0,0.2027117137141587,0.5245610135585685,0.1238717596938407,0.46461387103762,0.2666122718573147,4499.0,3357.3333333333335,-129.4,412.1060606060606,0.12274803234890606,58.7,-13.436363636363636,45.263636363636365,0.6878651592501633,-1.2229717437064398,7115308.9082893655,6510601.0,1535715.0,2425134.0,4313214.069443157,643144.4640611061,1280142.8607159285,0.5065620863981826,0.6129295455028928,0.6687948809386736,0.14056953202245737,-0.1643554165112746,0.4272882898685423,0.34,1.0,0.9631082431759117,0.9892504278395029,0.8458424466959609,12.0,0.031033739866197514,0.004088463938484429,4.157951139584848,3.5316046178109133,0.09355368618672827,0.07658043902086793,0.056141237634486245,0.10469167448913279,0.08594934652321468,0.11056755000361036,0.11585222759766046,0.07018557296555708,0.08682486100079427,0.07361091053505668,0.05368618672828363,0.07235630731460756,2.8955718753001913,0.0791893390241999,0.4351344849337358,0.09230769230769231,0.45837084518020244,0.11966578274525687,0.0016875135399478205,671.4583630676902,223.35189210824547,0.009237604307033492,2.2508827405936236,1.088084162397067,Catherine,REC_20260520_190100.csv
left,42,soft,44.432,1.0079999999999956,0.607999999999997,0.6031746031746028,1.0079999999999956,0.12698412698412698,38214.0,3.0011114769815133,44390.08503033082,239.58333333333331,0.06302698251915971,0.20765271872902216,0.5428507496084135,0.11692069064801656,0.47366881217086015,0.24684059335062994,4469.0,3364.59375,-114.5,390.2578125,0.11598957897963164,89.0,-13.50909090909091,75.49090909090908,0.9327763068723187,-0.6987911448710613,7338983.1057561375,6723182.0,1246165.0,2665815.0,4331138.28028467,668690.2313100231,1378977.9048266823,0.5107566413554562,0.6090129029116931,0.6645676019576912,0.1391804625106895,-0.15985797478729324,0.4269799935166548,0.38,1.0,0.9614547106358028,0.9872101703167893,0.8378140390654791,12.0,0.03383396278848907,0.004201568306081053,3.2953057898987357,4.366167867046528,0.09226596821681667,0.07564992058848115,0.054812523800235914,0.10785105928464618,0.08682326060910028,0.11459407246417194,0.11534639211643308,0.06772734449738546,0.0887504992244606,0.07026294036241373,0.04919334615063111,0.07672267268522388,2.953288210926352,0.07724530537398823,0.452885100548157,0.09523809523809523,0.49871526457021215,0.11465508167758229,0.003077044251864489,697.6109230797706,120.39401699712364,0.01847520861407006,2.5877955259083127,1.2640890014931803,Catherine,REC_20260520_190100.csv
left,43,soft,45.456,1.0399999999999991,0.6239999999999952,0.5999999999999959,1.0399999999999991,0.12307692307692308,14539.0,0.7953105913698038,34393.732030705825,114.58333333333334,0.030143339465685082,0.19644464446444646,0.5283528352835284,0.11672446227420048,0.4621971396840507,0.2525425889781914,4444.0,3342.5,-114.69999999999999,386.3333333333333,0.11558214909000249,70.125,-11.947368421052632,58.17763157894737,0.8728235880117992,-0.9118765639520601,9846533.830677371,9071348.0,1198517.0,3637091.0,4214676.891465444,584330.9763772145,1153937.169147742,0.5116676469938828,0.6128278235384702,0.6730206218611086,0.1221009570619207,-0.20979652893312728,0.42781177919692465,0.38,1.0,0.9672856442944886,0.9892237958118968,0.8586589307941468,12.0,0.030427873258374753,0.004303541080567532,4.202772670085369,2.9634140392922887,0.09734593504227013,0.0780308696539063,0.06247365200244781,0.10479816867251424,0.08449491172004261,0.11032841504045691,0.11518324607329843,0.06581899775617053,0.08454477459713061,0.07389225085560165,0.050905464518029964,0.07218331406813082,2.9841252768808397,0.07931770939399943,0.4634643311204318,0.09230769230769231,0.41736287724142085,0.16152597666276672,0.001646003305854147,14043.215455633142,119.82940226900968,0.01847520861407006,2.6121933602437646,1.6463137488134347,Catherine,REC_20260520_190100.csv
left,44,soft,46.512,1.0399999999999991,0.6240000000000023,0.6000000000000028,1.0399999999999991,0.1076923076923077,38482.0,3.0260810498365895,44493.27562677309,93.75,0.024662732290105974,0.2092971030765776,0.5275095441275545,0.10996941676284742,0.4753560185205976,0.23134116846784758,4453.0,3373.8030303030305,-137.9,367.49242424242425,0.10892527540631694,89.42857142857143,-13.327586206896552,76.10098522167488,1.0809429426318555,-0.3842419804228068,7326496.541498194,6580240.0,1643227.0,2770884.0,4230971.210566008,776923.134736575,1303461.5134879046,0.5101785316727989,0.6154974806869261,0.6680887946789474,0.194463525807533,-0.16034106876260612,0.43547356817375643,0.38,1.0,0.9618673341532807,0.9867843679102535,0.8450931984446827,12.0,0.031409383018095226,0.004471864441849225,12.76536304028218,18.6252176174236,0.0974846297901388,0.0789595412065334,0.06010661469163025,0.10505184779338127,0.08502678840082453,0.11694383193141451,0.11371934378522573,0.06307961072613856,0.08937400918844393,0.06712144823528883,0.046889806036708864,0.07624252821427129,2.85028698898949,0.06498093580784184,0.42770422801667674,0.09230769230769231,0.5365501049123534,0.14346831923809175,0.001205385597019174,13746.78567277942,78.87372702500377,0.01847520861407006,2.540298523870213,1.4372773456801509,Catherine,REC_20260520_190100.csv
left,45,soft,47.568,1.0399999999999991,0.6400000000000006,0.6153846153846164,1.0399999999999991,0.13846153846153847,44225.0,3.5611566353093687,47255.62385579096,1916.6666666666667,0.5042158601532777,0.21158577499440842,0.5419369268619996,0.1171679281340481,0.47328748597753745,0.2475618553319124,4471.0,3417.1363636363635,1.3999999999999773,397.7878787878788,0.11640971751111821,87.44444444444444,-13.625,73.81944444444444,0.8809391791877632,-0.8391323306181633,6496623.690413044,6234490.0,1341460.0,1240056.0,4248123.413365091,576129.7026693865,1544665.6601347341,0.5166809320676062,0.6049939256831917,0.6583564827820739,0.1736505927642905,-0.18435295423882625,0.4294438697825203,0.38,1.0,0.9912692227089008,0.9867806480913921,0.9603164022192355,12.0,0.03236228173726035,0.00448041131079329,5.746303406955211,8.28689386880282,0.09264358336547969,0.07414058377783986,0.05221455143638791,0.11119092275563004,0.08845347202823559,0.11433018077337484,0.11413508564232855,0.0669176299488762,0.08517232664245714,0.07081066460929983,0.050250298185171884,0.0797407008349185,3.09703718769426,0.1121220175226529,0.4874984271488644,0.09230769230769231,0.5296556483833202,0.13102107670798335,0.0014887794246380922,15745.411469165663,1046.4992070124938,0.0,2.190254040669151,0.6445311717724612,Catherine,REC_20260520_190100.csv
left,46,soft,48.624,1.024000000000001,0.6400000000000006,0.625,1.024000000000001,0.203125,31457.0,2.3715614628704964,42383.28163321005,312.5,0.08220910763368658,0.19413438389144233,0.5003282994090611,0.13192010435060383,0.45005190910139575,0.29312197478268665,4569.0,3467.6,-108.0,453.4,0.13075325873803206,43.46153846153846,-13.392156862745098,30.069381598793363,0.46774038897106324,-1.6098396295484432,7383947.426893761,7046941.0,1208291.0,1844813.0,4493999.822496785,739029.9679589873,1064927.6753081144,0.5114494952526967,0.6065610031069141,0.6785673088012809,0.1533966914715611,-0.16694484922814246,0.4202991343088049,0.36,1.0,0.9694983565409817,0.9917481073318386,0.8653203170276771,12.0,0.03164490691831795,0.004096397432172331,3.6092256841589645,6.046118444755251,0.09807270823535676,0.08001987630549172,0.05531203137616796,0.10151113161841042,0.08759771777420872,0.1035786223235756,0.11057082264834024,0.07388839099532374,0.07734456107970931,0.07803224575632005,0.05803171335528009,0.0760401785318154,3.1455016582464803,0.10178823090079483,0.5019300946428146,0.09375,0.5032232489645467,0.1575591214488664,0.0019118568860236802,6394.717846264492,995.3414347646036,0.009237604307032994,1.7429421218003402,1.3291325669428573,Catherine,REC_20260520_190100.csv
left,47,soft,49.664,1.024000000000001,0.6400000000000006,0.625,1.024000000000001,0.125,18679.0,1.181034589951957,37805.82513317227,437.5,0.11509275068716121,0.19182597231377718,0.5201054713249835,0.11685421489976489,0.4650882104847538,0.2512517244371694,4551.0,3428.8615384615387,-103.5,397.4923076923077,0.11592544733394353,84.0,-11.785714285714286,72.21428571428571,0.773642563655602,-1.084087173554844,10722357.989103796,9726196.0,1941329.0,4074471.0,4471544.97269976,632144.6276473538,1222410.2214625312,0.5118365148356304,0.6055478957824132,0.6640688095620741,0.1728365658436457,-0.1764553072614954,0.42419771252989513,0.4,1.0,0.9678547238986488,0.9887275373950458,0.858559763064695,12.0,0.03307887319115191,0.003975810289676208,6.665139776651694,11.518993311475597,0.09722895242197453,0.07701591916581417,0.055847197544823125,0.10694736086433711,0.08906746352231733,0.11041117033686892,0.1123135734668605,0.0649329672104668,0.08164629659541628,0.07395143487858719,0.05192124768929808,0.07871641630323586,2.9334126057603775,0.08178994984228359,0.46802745691030306,0.09375,0.5151741224107738,0.13826614407632126,0.0018325216561929176,12773.000326208938,892.2732879395028,0.009237604307032994,2.143483352399379,1.2630856932042989,Catherine,REC_20260520_190100.csv
left,48,soft,50.704,1.0720000000000027,0.6559999999999988,0.61194029850746,1.0720000000000027,0.13432835820895522,40937.0,3.2548135175948474,45545.008046985786,116.66666666666667,0.03069140018324299,0.19217315260166157,0.520113686051596,0.12222293497551692,0.46341651164282505,0.26374315956536887,4574.0,3438.75,-116.30000000000001,415.9779411764706,0.12096777642354653,53.44444444444444,-11.89655172413793,41.547892720306514,0.5863073577795791,-1.3868321254841807,6939566.711189251,6503271.0,984714.0,2212553.0,4073894.0553365857,575035.1979997918,1232537.7108669628,0.5122760722035242,0.611956269280286,0.6655717030539835,0.13708113561669333,-0.1816333949064376,0.4225082146586195,0.38,1.0,0.9649804495949388,0.9898434297888465,0.8503702274280399,12.0,0.030039952312159068,0.003742022258350989,3.5210786108150067,4.363678845126998,0.09403211666345929,0.07835867171295999,0.05726687621613531,0.10270062223362628,0.08711698419825946,0.11045822909316398,0.1134432398913764,0.0698655034532897,0.08478200440481537,0.0725041161502769,0.05235743152222721,0.07711420446041012,3.0854173836124876,0.09587269676081071,0.4931283561318551,0.08955223880597014,0.4452592266385827,0.17622934475759236,0.0011957958481992313,11169.648218871247,161.71462633407833,0.027712812921103055,0.5130633885333261,0.9804224145818347,Catherine,REC_20260520_190100.csv
left,49,soft,51.792,1.0559999999999974,0.6400000000000006,0.6060606060606081,1.0559999999999974,0.12121212121212122,39234.0,3.096144925907551,44283.89446514387,296.875,0.07809865225200226,0.19635405227322644,0.5135075774214803,0.12548233436527015,0.45214799570666975,0.2775249156397768,4553.0,3365.1641791044776,-112.1,418.0820895522388,0.12423824434726301,65.0,-12.189655172413794,52.810344827586206,0.5446845152418135,-1.3968272860295965,7396123.799316031,6762278.0,1058018.0,2802649.0,4224382.720733492,656268.9362517364,1345777.4450171997,0.515596049391057,0.6057089177337288,0.6684454165402745,0.11562040124784823,-0.1696493629429484,0.4100292178456048,0.4,1.0,0.9597143830406197,0.9896950759554135,0.8311108662072216,12.0,0.03008159255955018,0.0038225485163649402,1.5717939176787703,4.27419227469305,0.09200500297162321,0.0720729511323215,0.059552216298688045,0.10292460947548632,0.07742630817950379,0.11131168335802294,0.1184302733006307,0.07103510063601608,0.0884124435613352,0.07489821081670851,0.05444723372925408,0.07748396654040965,3.0184065271979317,0.08895634387276578,0.4647165364490403,0.09090909090909091,0.5018431070545489,0.1447027007041637,0.0014187071378696254,12388.346661278101,160.8231232366565,0.024440403706431496,1.283105129791223,1.305819971359626,Catherine,REC_20260520_190100.csv
left,50,soft,52.864,1.0080000000000027,0.6240000000000023,0.6190476190476197,1.0080000000000027,0.14285714285714285,30260.0,2.2600369154543523,41431.67631173038,0.0,0.0,0.20547640249332147,0.5140249332146037,0.13096827778619052,0.4652514879108676,0.2814999654793122,4492.0,3405.046875,-138.0,441.8359375,0.12975913510735443,62.888888888888886,-13.944444444444445,48.94444444444444,0.5491791479002627,-1.4642466015598772,7860767.443230082,6954089.0,2047620.0,3039665.0,4356126.212192085,876301.6193696078,1338384.2134140455,0.5029265813668378,0.6020456027909523,0.6691747609409222,0.14214194922055456,-0.16433589583734176,0.41279062414113077,0.38,1.0,0.9621854213122402,0.9898036553566965,0.8433780498570517,12.0,0.03222661829746851,0.004778725938013543,1.7771934515400043,5.02216905224391,0.0932806541760163,0.07843596132578938,0.054482546587556156,0.10536749218760755,0.08817793440802485,0.10989661485937693,0.11409075682695263,0.07331488645071883,0.08337348513006888,0.07440242654515586,0.057653391335471704,0.06752385016726091,3.3824181837716396,0.13706795590713025,0.5068507316100151,0.09523809523809523,0.541151477556118,0.09023312910602106,0.0017857587088602675,5736.30563458169,149.56655159654386,0.03330665599145726,1.2127693582119856,1.0461960949244722,Catherine,REC_20260520_190100.csv
left,51,soft,53.888,1.024000000000001,0.6080000000000041,0.5937500000000034,1.024000000000001,0.125,40430.0,3.2075763032757285,44455.43816002717,289.0625,0.07604342456116009,0.19289785181937746,0.5243314335817624,0.11347743165924984,0.47275451820906367,0.24003457881072326,4562.0,3388.0,-114.19999999999999,381.4076923076923,0.11257606030333303,85.125,-12.178571428571429,72.94642857142857,0.9807219554950063,-0.6686329506486404,7295103.127145222,6433632.0,1791056.0,2935818.0,4548597.968250822,854442.5047268869,1548768.713861261,0.5102538738256672,0.6148489824350013,0.657844011276099,0.16901790232026415,-0.15772353805744355,0.4343964075321112,0.4,1.0,0.9666084396500845,0.9876218758015796,0.8568073002193977,12.0,0.03356684624519277,0.00418975205624041,5.385281767870672,9.098340664648049,0.09562255925892289,0.07868041049859233,0.054300245209336115,0.10777404413768049,0.08880664789755698,0.11338661338661338,0.110989010989011,0.06430387794024157,0.08410680228862047,0.07131050767414404,0.049173553719008264,0.08154572700027246,2.99854199577343,0.0822635949978143,0.47062928039582047,0.09375,0.4543602955268223,0.1788276137507088,0.0022280838797358537,5558.656792187628,169.19068615396702,0.024440403706428436,1.9958081873683902,0.8055810774228397,Catherine,REC_20260520_190100.csv
left,52,soft,54.928,1.0080000000000027,0.6240000000000023,0.6190476190476197,1.0080000000000027,0.12698412698412698,16410.0,0.9696317511155064,35843.97720677771,93.75,0.024662732290105974,0.19000226193168968,0.5157204252431576,0.12117928805598828,0.45712757794880143,0.2650885527398252,4421.0,3360.078125,-119.19999999999999,403.1640625,0.11998651445046386,64.5,-11.836363636363636,52.663636363636364,0.5969014845636054,-1.3853504418541227,10620869.676857682,9050579.0,3110525.0,4605923.0,4194192.075284549,798046.1865748083,1310874.0760375678,0.5080177528125853,0.6048040420541276,0.6847629898059164,0.13167210849552502,-0.16300641393989113,0.41726424355089364,0.42,1.0,0.9669158157942681,0.9900446216954638,0.8587205649403461,12.0,0.03194502390461826,0.003976832586705411,3.8022074588626125,2.7985190024183453,0.09879792601548514,0.07876025948057383,0.06164756213815713,0.10354576949010671,0.08556813690157875,0.10763793624590202,0.11486898091097213,0.06765095677648864,0.0816154758306401,0.0777139668441489,0.05352833127949964,0.06866469808644703,3.169429602485809,0.09447707393125913,0.4732222399195706,0.09523809523809523,0.5611121017472017,0.08396764100565073,0.0011459605541098395,12056.891528637621,147.47494932049804,0.009237604307032944,2.2307075301417245,1.7918791959848537,Catherine,REC_20260520_190100.csv
left,53,soft,55.952,1.0560000000000045,0.6559999999999988,0.6212121212121174,1.0560000000000045,0.13636363636363635,14764.0,0.8162738521623121,35728.6699724465,145.83333333333334,0.03836425022905374,0.1959641255605381,0.5266816143497758,0.10852950439361075,0.4729663193474124,0.22946560876319685,4460.0,3364.791044776119,-121.1,362.2313432835821,0.10765344369480263,72.0,-12.368421052631579,59.631578947368425,0.9863742045328711,-0.6284548740909282,10512463.29888923,9173974.0,2430021.0,4521624.0,4119802.3019539667,768565.6685657318,1341909.7932425751,0.5179501738684564,0.6042984280995272,0.6636370491612242,0.1332647874111923,-0.16562874634192826,0.43092914479431704,0.38,1.0,0.9631315809800362,0.985141857501974,0.842596427690325,12.0,0.030753938167437916,0.0038509273504297023,2.730149216655674,5.626752213990784,0.09321285835318333,0.07327859617372173,0.05648040950847451,0.1089198504264974,0.0829396604876664,0.11803975319484922,0.11868293699903745,0.06276143203765065,0.08978845906467768,0.07080344746519046,0.0457680723559601,0.07932452393309114,2.9665833030561948,0.08082645130382617,0.47119174750760273,0.09090909090909091,0.4595444679305593,0.1366455065445432,0.0007636036336378533,14366.70498061404,101.13871699419386,0.02444040370643228,2.7007645108444933,1.5580919351832454,Catherine,REC_20260520_190100.csv
left,54,soft,57.024,1.0399999999999991,0.6400000000000006,0.6153846153846164,1.0399999999999991,0.07692307692307693,31505.0,2.3760336251728984,38289.095693160474,2190.625,0.5762858445121429,0.18903382710590316,0.5069644041565333,0.11480337239589072,0.4632284564633915,0.24783316049343662,4523.0,3437.8939393939395,-105.5,391.68939393939394,0.11393294873094433,135.0,-10.666666666666666,124.33333333333333,0.7455248637030605,-1.107506436005454,6876390.742117262,6378654.0,1477072.0,2101376.0,4124656.354774277,654471.6404428354,1327988.3170810593,0.5056370018614467,0.6060386576997878,0.6877133954579827,0.16954494853409963,-0.15689482125122567,0.425390600921926,0.44,1.0,0.9676748641435059,0.9898062977120636,0.8581763165473436,12.0,0.033555126492903264,0.0037741073249207566,5.432323231873755,7.0876727507180135,0.10103966046866254,0.08451262885575647,0.06343295093454854,0.10159496873085617,0.08744342246177848,0.10721856668767436,0.1122383770895677,0.06419099078452717,0.08245886972732602,0.07418213229558265,0.05061238161136355,0.07107505035235631,3.138343576802741,0.09504080802602663,0.48583120312745176,0.09230769230769231,0.4869086720071915,0.14122788537373707,0.0019739581882759686,9227.038365586235,1195.8797597937091,0.024440403706431493,2.032665224286291,2.1088113247895044,Catherine,REC_20260520_190100.csv
left,55,soft,58.08,1.088000000000001,0.6559999999999988,0.6029411764705866,1.088000000000001,0.19117647058823528,19794.0,1.2849191934348314,37602.538970128066,171.875,0.04521500919852762,0.1897018970189702,0.5239385727190605,0.12783248150398516,0.43879784838628977,0.29132431249152285,4428.0,3243.942028985507,-112.5,411.21014492753625,0.1267624825762179,42.23076923076923,-11.854545454545455,30.376223776223778,0.575827698234406,-1.471704611552669,11125959.089888835,10043846.0,2145358.0,4278500.0,4289752.544380051,876658.9907594976,1239832.9726960042,0.5126123303631087,0.5998045119940808,0.6892911119197335,0.11196380156834296,-0.1913268041409485,0.39536234845716206,0.34,1.0,0.9680927429642457,0.9907592217974086,0.8632857462465727,12.0,0.03176715390420156,0.0038508949743505474,4.769829244812854,10.632140756299549,0.10104900103649167,0.07443082311733801,0.06665713570892455,0.09853372171986134,0.08006451267021696,0.10292094070552915,0.1211176239322349,0.07159387397691125,0.0828478501733443,0.07834000500375282,0.05623860752707388,0.06620590442832125,2.5761891072293386,0.05812904289466173,0.42660797086745345,0.08823529411764706,0.39695458092472136,0.1842375642020399,0.0009750434980545106,8589.814724428014,1173.1157012398098,0.024440403706431493,2.605120254359739,1.1438720808790532,Catherine,REC_20260520_190100.csv
left,56,soft,59.184,1.024000000000001,0.5920000000000059,0.5781250000000052,1.024000000000001,0.078125,44421.0,3.5794179647108426,46095.41915418494,137.5,0.036172007358822096,0.1934726962457338,0.5245307167235495,0.10420367350091088,0.4865957649795336,0.21414833625859953,4688.0,3386.4153846153845,-131.1,349.9153846153846,0.10332913859447475,140.2,-12.338983050847459,127.86101694915253,1.225687835327308,-0.06466702276080794,7633972.267645921,6894225.0,2069611.0,2542421.0,4487246.792568234,1015176.7222817802,1479762.3860958023,0.5317202525328468,0.6225356829766865,0.6658958644718797,0.19691522124637895,-0.1625823669100167,0.4554602290690119,0.4,1.0,0.9647920705725741,0.9839681736565186,0.8516447893050284,12.0,0.03505121789713665,0.004636551505207471,7.177861616088494,7.901325687198096,0.09525843074364998,0.07943957077372489,0.05179972469186842,0.11160882621514921,0.09319134823752823,0.11515239622564363,0.1133397238741215,0.0606359345257295,0.08720362352748766,0.06645556681219533,0.04356773897518138,0.08234711539772031,2.7280052712074476,0.054744307112309674,0.4156029559308,0.09375,0.562903721312439,0.17858828937178153,0.002445585923550716,12318.412411237643,1175.574715387471,0.03330665599145842,2.5114871382092865,1.569486855854349,Catherine,REC_20260520_190100.csv
left,57,soft,60.224,1.0560000000000045,0.6560000000000059,0.6212121212121242,1.0560000000000045,0.12121212121212122,18793.0,1.1916559754201612,36720.8901035909,131.25,0.03452782520614836,0.19314641744548286,0.5291499777481086,0.11727052876968996,0.471330530076908,0.24880741069432113,4494.0,3425.2985074626868,-94.30000000000001,397.75373134328356,0.11612235560687595,71.0,-11.051724137931034,59.94827586206897,0.7433741473901008,-1.1273020589592637,11063037.686735682,9121439.0,3232698.0,5360953.0,4272268.985564926,1044439.5040455288,1611360.1815245007,0.5101842301586408,0.6084688811125317,0.6579197181387029,0.1282712575214684,-0.16547939553166724,0.42912835869746635,0.38,1.0,0.9686240336601982,0.9880129265085396,0.8605439273014758,12.0,0.031060212837436686,0.003896070600956123,3.6833448240945312,3.7052852972398114,0.0954704895531493,0.0787991023769581,0.05455020806553519,0.10531819865356544,0.09079064903374802,0.11192836445238458,0.11378897143728621,0.06766596222139916,0.08449421556025186,0.07253752805072006,0.04960456654829081,0.07505174404671125,3.001131833309322,0.08562455876853305,0.4550400830878386,0.09090909090909091,0.5622599070360411,0.13701035358019825,0.0013526898140590869,14515.99987370259,21.874999999994515,0.032,5.84574692140315,3.2881446910454084,Catherine,REC_20260520_190100.csv
left,58,soft,61.296,1.0080000000000027,0.6720000000000041,0.666666666666669,1.0080000000000027,0.20634920634920634,18162.0,1.1328656751531712,34550.921854561275,109.375,0.028773187671790303,0.19573560767590617,0.5098081023454157,0.14240031180933568,0.4503474636702262,0.3162009854540246,4690.0,3527.796875,-89.30000000000001,497.125,0.140916559998937,39.0,-13.18,25.82,0.2285435464725766,-1.7868220099000627,10014983.571311787,8862432.0,2107485.0,4161214.0,4053994.617673658,735005.6918572386,1223565.5822108164,0.3426344748237581,0.5882012193767365,0.6737916280963104,0.14634791417393267,-0.1643275693740509,0.3950124706079706,0.36,1.0,0.9712554305548139,0.9912751395911041,0.8738376928909718,12.0,0.03248994292715901,0.004086140222461327,3.169402675030558,8.674502887618374,0.09284743045190208,0.07356308602660123,0.05126694688168519,0.1024231660163257,0.08497247308208469,0.10869035649905438,0.11164457279020636,0.07903303673060826,0.08069838204616019,0.07666346294385218,0.06336727507872743,0.07482981145279233,3.9518847019433117,0.1937732284165629,0.5764617974358716,0.09523809523809523,0.5339615813523363,0.1325629003997951,0.0007490948863636131,14981.809114166874,14.768173832030625,0.024440403706432284,4.797200726760899,3.7754289643528223,Catherine,REC_20260520_190100.csv
left,59,soft,62.32,1.024000000000001,0.671999999999997,0.6562499999999966,1.024000000000001,0.0625,16817.0,1.0075519606379548,36813.141050445556,114.58333333333333,0.03014333946568508,0.15332197614991483,0.4942504258943782,0.09313613421732937,0.48721048836677633,0.19116200582931836,4696.0,3499.2615384615383,-118.69999999999999,321.66153846153844,0.09192269138103863,89.0,-8.866666666666667,80.13333333333333,1.0473084718566352,-0.48996633483498586,10052871.128751129,9150761.0,1660331.0,3816686.0,4009733.3889701474,525072.6753086187,1124195.0858856633,0.3934461279885606,0.5915017886242719,0.6515718768380577,0.1359470506806698,-0.16114187088403742,0.4335613673038912,0.48,1.0,0.966622628552409,0.9833322191919024,0.8579646913788598,12.0,0.026388891598162222,0.004020930732656508,14.201841280521748,7.9258275413827874,0.10062342823980445,0.0844749661467035,0.057260432970472896,0.10805356734607742,0.09269648101577477,0.11662240824437685,0.10826020435080809,0.05251657492569861,0.0853630656138438,0.06669099414381936,0.04061955929163077,0.08681831771098958,3.3683616563146566,0.15768522646707825,0.5499087284913485,0.0625,0.5118996135231199,0.20676748844761914,0.0008555487285197678,1009.2705286494144,11.426724077699696,0.024440403706432284,5.048914479105574,4.04531438960933,Catherine,REC_20260520_190100.csv
left,60,soft,63.36,1.1039999999999992,0.6880000000000024,0.6231884057971041,1.1039999999999992,0.15942028985507245,17152.0,1.0387639267068005,35143.29559105122,437.5,0.11509275068716121,0.17767400489215032,0.5203468979319547,0.11041862555022093,0.47249935512859986,0.2336905317470757,4497.0,3433.6857142857143,-113.1,376.37857142857143,0.10961357641518069,54.18181818181818,-10.60344827586207,43.57836990595611,0.7831220792746488,-1.08997138500167,10256225.564836072,9356011.0,2506990.0,3371976.0,3924151.6286889743,796924.741776958,1109833.3194082913,0.514989492974357,0.6051953129113042,0.6616796611718923,0.17352687003785716,-0.1699904784885864,0.43412873752290354,0.36,1.0,0.9673996528391148,0.9873440857952492,0.8594188752053272,12.0,0.030074137295031573,0.004215398679329275,3.2004237479242077,4.5316819217846245,0.09395568277319664,0.07718070544770718,0.06088418109653101,0.1071901080887676,0.08884663709965968,0.11383436374075337,0.11578561978382246,0.06315995307000391,0.08544754075171203,0.07137686284625434,0.04725867248021701,0.07507967282137479,2.558945609268121,0.0723652701142099,0.4497758711155338,0.057971014492753624,0.39087475183047676,0.18966557532799858,0.002195960596176982,700.1606958407964,187.95758208180075,0.05143280405862744,4.616330379182138,2.5280600111204152,Catherine,REC_20260520_190100.csv
right,122,soft,125.424,1.0079999999999956,0.6399999999999864,0.6349206349206242,1.0079999999999956,0.20634920634920634,14821.0,0.8051898513588267,35337.162605393205,619.7916666666667,0.19416687938780008,0.24267599475295146,0.5218627022299956,0.17274957623338388,0.39517352127754485,0.4371486623769277,4574.0,3502.8125,-29.0,598.921875,0.17098313854937996,48.30769230769231,-16.0,32.30769230769231,0.4299007618808432,-1.6524114907198595,12109556.050840262,8976053.0,1654223.0,7958352.0,4508239.367797358,1182170.324758802,2126442.9266872047,0.42532762062023544,0.5980465091091342,0.7142831653133834,0.15159247033629364,-0.2071396709276393,0.38631970657463505,0.38,1.0,0.9416656906369999,0.9620580023401901,0.7817302599778396,12.0,0.06396539606048691,0.00861342344213692,1.9909851842968718,1.7744037614862975,0.10342581853867427,0.09894727451155322,0.048817914176108486,0.12504683736283342,0.09408064947809795,0.04641359621732536,0.13180033901329288,0.08343295566062985,0.030685163707734855,0.11770898385226157,0.08931662057275404,0.03032384690873405,3.628300298191053,0.14847709816185037,0.5318442303703539,0.09523809523809523,0.6768112858849322,0.09438055865156257,0.0018309128293751535,804.6578983232214,749.6487772331626,0.01600000000000534,0.43184948798099587,0.35353076212129186,Catherine,REC_20260811_193525.csv
right,123,soft,126.448,1.088000000000008,0.6560000000000059,0.6029411764705892,1.088000000000008,0.058823529411764705,11409.0,0.49226793846590317,34374.809468562875,414.0625,0.12971652866663955,0.20602313522138013,0.4798564020741923,0.15920338578108464,0.4024454759548107,0.39558995017462845,5014.0,3396.985507246377,-4.900000000000006,535.6086956521739,0.15767176354141776,163.5,-10.84375,152.65625,0.6718962521371059,-1.3751574738429617,10278088.734731374,8754920.0,1494176.0,5172806.0,4366970.545284091,1088291.7109082278,2160448.17037097,0.5613847636294498,0.6054664283403353,0.6773652684389965,0.15699393515550353,-0.25823615906643893,0.4126721919233698,0.46,1.0,0.9579590825281626,0.96583533690945,0.8329823485814368,12.0,0.06322712600965597,0.010446447644312901,1.6004401664140473,1.774139434993515,0.10963684767398203,0.0969273695347964,0.04190416055155466,0.1272014403221953,0.09278047032321922,0.050756851769684974,0.12890371685040444,0.07434980716065394,0.03477934400491484,0.11784531895286528,0.08485357862043072,0.04006109423529813,2.8338711108290715,0.0755517877353118,0.4753105106249728,0.058823529411764705,0.4454869032595153,0.18501174198657236,0.001331189361515177,1713.6421252215926,315.677565983884,0.0514328040586382,0.4339061539451167,0.20371823327513375,Catherine,REC_20260811_193525.csv
right,124,soft,127.552,1.0400000000000063,0.6559999999999917,0.630769230769219,1.0400000000000063,0.13846153846153847,9327.0,0.30132320732784135,32142.101704773446,437.5,0.13705897368550593,0.24967061923583664,0.5278875713658322,0.16623459947805128,0.3996722647545888,0.4159272837708804,4554.0,3495.060606060606,-4.099999999999994,574.5757575757576,0.16439650762548014,72.77777777777777,-13.767857142857142,59.00992063492063,0.8278201484280371,-1.0924092606088753,10409744.51040279,8471479.0,1813048.0,5771454.0,4273383.955252743,1188120.7457734344,1941465.1827995665,0.4301611635365774,0.5725114746248432,0.761611271176191,0.11121818175058973,-0.15125719431234752,0.35104620994346114,0.42,1.0,0.9600066119299212,0.9705037594329325,0.8407417628363616,12.0,0.056257694635949394,0.006833115475133208,2.749082561642739,3.665384635526337,0.11119155171367384,0.09727580915057614,0.0421764047963793,0.12078084222755923,0.09050868324995448,0.053274317868507066,0.1224585345552598,0.07777209395077035,0.037832612257991796,0.11558736571958696,0.08846250552728092,0.042679278982460093,3.130003841196514,0.11088657495554119,0.4794329825624623,0.09230769230769231,0.5819990720199834,0.11910584575405554,0.0017435532105703855,2773.7010172933233,112.62330883652417,0.04026578365478331,3.6358661687973495,3.6318112186228957,Catherine,REC_20260811_193525.csv
right,125,soft,128.608,1.0720000000000027,0.6399999999999864,0.5970149253731201,1.0720000000000027,0.23880597014925373,17047.0,1.0093411345064374,33765.13516928371,1015.625,0.31817261748421016,0.21675845790715972,0.43902439024390244,0.1752792584796116,0.39275710453943574,0.44627902704655836,5084.0,3465.0588235294117,3.5,600.9779411764706,0.17343946287305198,38.125,-14.254901960784315,23.870098039215684,0.4369384468262028,-1.6976915444343859,10722100.591514705,8783020.0,2516764.0,5611408.0,4346991.674142141,1358325.4683415615,1768112.8407752092,0.5622030041025446,0.6167788566707195,0.6686755169250778,0.12993860159073645,-0.2039957122970153,0.4135582174192344,0.3,1.0,0.9353055407476687,0.9714638108183565,0.7642320516224919,11.0,0.06703448186986548,0.009447683209236486,1.0122932978131436,0.935549537939778,0.09921315315927069,0.08905714188707432,0.04235137337452891,0.12350185040573117,0.08585712830611483,0.05464214171731233,0.12781380504532644,0.08342953179642142,0.03969884222320307,0.11885461582860829,0.09184972668319016,0.04373068957321835,3.1211513470854433,0.12742466475204553,0.5130224238874115,0.08955223880597014,0.41539381728433,0.12716533633840874,0.0010919550510226166,3994.1659120940376,340.74801868768554,0.024440403706431697,3.245704557001384,3.316147682259991,Catherine,REC_20260811_193525.csv
right,126,soft,129.696,1.039999999999992,0.6400000000000148,0.6153846153846343,1.039999999999992,0.16923076923076924,9954.0,0.35882673586941904,29645.6760759474,406.25,0.12726904699368408,0.24698658176029112,0.48987946327041165,0.16093834522977057,0.4045800183834039,0.39779113628182305,4397.0,3445.1363636363635,-54.900000000000006,547.280303030303,0.15885591897228857,40.27272727272727,-14.481481481481481,25.791245791245792,0.7431565131913935,-1.2245559114799545,9346163.376633858,7804414.0,978606.0,5048190.0,4083990.7063122173,1288374.5849896949,2032234.4661504333,0.4331848401596349,0.584259955185784,0.7707997373079172,0.15721660796305048,-0.18110121095125786,0.37626886300443446,0.42,1.0,0.9703240368054222,0.9667749527096735,0.8756869080832396,12.0,0.06327479507410234,0.00937155461633277,0.44841839988079,1.3767120545233524,0.10965832376780618,0.09966179814318826,0.04515368613636264,0.12458054613662652,0.09431829676443296,0.05022011707325654,0.12795816676122246,0.07609761675440564,0.03579926026589966,0.11479951974456744,0.08484072847536493,0.03691193997686682,3.2324088760533853,0.1071284985693104,0.49454342968447185,0.09230769230769231,0.6104339506539214,0.1004501772195907,0.0013251629473115833,4287.621290801464,343.1576335422735,0.01847520861407033,3.4680077177424593,3.5928096781956174,Catherine,REC_20260811_193525.csv
right,127,soft,130.752,1.024000000000001,0.6080000000000041,0.5937500000000034,1.024000000000001,0.078125,12830.0,0.622590927393466,35886.09276586126,175.0,0.05482358947420237,0.2043554345712619,0.4452654092941863,0.12500114335891407,0.42747445736185935,0.29241780697323166,5143.0,3363.9076923076923,-27.30000000000001,415.9769230769231,0.12365883999378012,149.2,-13.033898305084746,136.16610169491526,1.7028618759713157,1.3224537522637823,10655186.206527786,8692612.0,1892460.0,5864306.0,4312038.943263489,1669052.4490367922,1996390.686832357,0.5777131513652748,0.5961467911200807,0.7755860857791286,0.22142008723868578,-0.17749037105118215,0.43023565774335915,0.48,1.0,0.9612634859273298,0.9706196410266646,0.8425288507681391,12.0,0.07977583692773102,0.010953506277491198,7.299196856506301,8.541674478065445,0.10613114784088103,0.10004847841795714,0.05894701217448572,0.13160061101100368,0.09870388833499502,0.055635844759300085,0.13151828916918967,0.06064833023864188,0.04148563483860346,0.1084315859760169,0.0643528131202722,0.042496364118653214,2.7728831215664247,0.07966898747346472,0.45513854308465485,0.0625,0.4048604250649203,0.12193988523170882,0.007734252430362079,3567.56485575254,434.2550793696412,0.024440403706433272,1.355279413679669,1.6054156424746202,Catherine,REC_20260811_193525.csv
right,128,soft,131.792,1.0560000000000116,0.6080000000000041,0.5757575757575734,1.0560000000000116,0.07575757575757576,46068.0,3.670919925264214,49040.72977638077,385.4166666666667,0.12074242919913618,0.22162938641493946,0.4754771188179766,0.15030791555327472,0.41485869507512074,0.36231111300668345,4873.0,3373.6716417910447,-11.699999999999989,501.32835820895525,0.1486002229733317,133.8,-11.78688524590164,122.01311475409837,1.1884048798742528,-0.2701118860017404,7458900.0334718255,5633399.0,3777590.0,3103195.0,4013202.713531311,1417475.8675231144,2139374.4396386947,0.544576538980688,0.6144764540830656,0.685603178254588,0.20549887122904786,-0.22015014043268488,0.4318890971463092,0.44,1.0,0.9324955931334246,0.9641168159235144,0.7591058174633106,11.0,0.07638449888401443,0.011467608650534077,7.348424872396822,5.422195259417393,0.11423401582048877,0.1036073899732786,0.04704117928117645,0.13029340459041922,0.09947530481870144,0.049611566299173585,0.12614804721371817,0.07233803464934789,0.03187102939354793,0.1104912491815463,0.0779698809039268,0.03691889787467483,3.009196564465169,0.09506906522054252,0.4805164632921055,0.09090909090909091,0.5240819391631089,0.14466406027969703,0.0020760577839241084,20071.775440486916,127.92300020513011,0.01600000000000557,0.49607453586670297,1.6071831644975045,Catherine,REC_20260811_193525.csv
right,129,soft,132.864,1.024000000000001,0.5919999999999845,0.5781249999999843,1.024000000000001,0.046875,56357.0,4.614546408779832,56804.4253733809,848.9583333333334,0.265959675127827,0.20975710168793743,0.4491560312885961,0.14977887161477427,0.4097903600166255,0.3655012080044701,4858.0,3294.2923076923075,-27.0,486.4384615384615,0.14766098940358383,146.66666666666666,-11.327868852459016,135.33879781420765,0.8770087366993206,-0.9488279385751683,8639016.7431456,6131865.0,3497814.0,4979773.0,4331247.127585344,1458142.5941255488,2067137.4128034094,0.5556178310467526,0.6227547828757724,0.6842137216348815,0.12952520228837716,-0.178143615697559,0.44811448482625105,0.48,1.0,0.9272207092107567,0.9568459956407414,0.7422544246839862,11.0,0.05820107529834419,0.009604392832422932,3.4031147158243753,2.569437068474514,0.11099851024382498,0.10027600184935251,0.0426471893111162,0.13552111110592213,0.09734786040190727,0.046686810287256755,0.13640375661400372,0.07109265909802036,0.029958576372186862,0.11819043660597119,0.07868621251675392,0.03219087559368418,3.051336850207407,0.0952173252290719,0.46963530052093533,0.09375,0.5153273516425395,0.19182992309067354,0.002006822892008082,22749.461143801476,344.81054832488985,0.018475208614074375,0.8837256844105533,1.1293081947874033,Catherine,REC_20260811_193525.csv
right,130,soft,133.904,1.0080000000000098,0.6080000000000041,0.6031746031746014,1.0080000000000098,0.047619047619047616,13204.0,0.6568912777516001,36507.380116902394,1093.75,0.3426474342137648,0.22813001605136438,0.44542536115569825,0.14314678024001243,0.42347330360905927,0.33803023477500305,4984.0,3521.953125,-30.599999999999994,497.5625,0.14127459461857544,201.0,-13.783333333333333,187.21666666666667,1.132084065810987,-0.40063411578916597,9991137.029057754,8976053.0,2083050.0,3861890.0,4391107.901281135,1600244.6567769314,1590357.4163913494,0.5489389847351864,0.6134272883531288,0.7234622124618074,0.2023633649905784,-0.22803905351313514,0.44165570983638974,0.26,1.0,0.9561397256274101,0.9737144349212882,0.8255247625455223,12.0,0.08290893563248879,0.0108644088652434,5.4599421556946615,9.23783054397282,0.10608903972848872,0.09723386792662098,0.04617909984250571,0.12991282358421508,0.09503782081142832,0.058366052217120296,0.12410549899070562,0.06790887513586655,0.04292273906967459,0.10950954947760698,0.07523790510414587,0.047496728111621304,3.7324681134527142,0.1194557094373359,0.5188670854320405,0.09523809523809523,0.7071708406217331,0.15434870932083708,0.0035237560833371057,22539.178578643892,359.7522174860232,0.024440403706433255,1.0402198147432553,0.6269727916484992,Catherine,REC_20260811_193525.csv
right,131,soft,134.928,0.9919999999999902,0.6080000000000041,0.6129032258064617,0.9919999999999902,0.06451612903225806,13151.0,0.6520305329147521,31773.207124871737,237.5,0.07440344285784607,0.2372549019607843,0.5063180827886711,0.15431285635991268,0.4007384402373008,0.3850712606168211,4590.0,3301.6825396825398,-25.400000000000006,503.45238095238096,0.15248358220435948,153.75,-13.827586206896552,139.92241379310346,1.022102090396066,-0.6607652707013143,9656509.32215327,8345640.0,1343903.0,4668232.0,4059209.7810348636,1566843.4385053047,1727177.5790251568,0.5155574649806003,0.5985545044609013,0.7750593732870743,0.15539386913284892,-0.24254176733905586,0.3961265328289039,0.5,1.0,0.9486921033559497,0.957697588150562,0.806036255495539,12.0,0.07131397148409532,0.011472094574786627,3.3782279636988988,11.005421131924365,0.107150755266675,0.10156437795063603,0.04870532580790938,0.1323038758497351,0.09453092699249059,0.04430160668442256,0.13825081968789363,0.07388729171273906,0.028037652760016536,0.11877061238618117,0.08042556464717364,0.03207119025412728,3.528349752676854,0.12252152095056262,0.5331036965030541,0.0967741935483871,0.5728161157409483,0.11187499137198424,0.0027177630379169246,24929.71003307767,441.01555452013656,0.01600000000000554,1.5082922675616055,0.6457106899408245,Catherine,REC_20260811_193525.csv
right,132,soft,135.936,1.0079999999999814,0.6239999999999952,0.6190476190476257,1.0079999999999814,0.07936507936507936,12390.0,0.5822375740309553,36385.54941182007,359.375,0.1125841569559513,0.24213286713286714,0.4750874125874126,0.17115217603321523,0.39977150606298445,0.4281249999996817,4576.0,3364.421875,-1.0,570.4453125,0.16955225405553517,155.2,-12.948275862068966,142.25172413793103,0.6948364037475899,-1.3008193004169413,10583870.904434068,8874650.0,1098335.0,5661499.0,4455109.625889661,1128259.72736888,2170986.221752408,0.4945561274940413,0.6019422093232705,0.696065246828312,0.25901287169235043,-0.17744504767251412,0.4019051053653427,0.5,1.0,0.9433070221849512,0.9542917304812434,0.7932845798223259,12.0,0.07402591757779149,0.0099605148715915,4.143639238608274,0.9413077931499316,0.11085671293823697,0.10216744147164956,0.04049265522029695,0.12976783715627221,0.0981548650167423,0.04237355043353474,0.12856499305694236,0.07941557567003989,0.027307811984785647,0.12142687961806217,0.09173660036317532,0.027735077070261887,3.688881643541435,0.16739272703638056,0.5511260616795397,0.09523809523809523,0.562628398874918,0.09033251068948507,0.0012276394003405693,455.4349569373038,463.1997802874407,0.009237604307037376,3.0903025596602136,2.0633248994491455,Catherine,REC_20260811_193525.csv
right,133,soft,136.96,1.0559999999999832,0.6399999999999864,0.6060606060606027,1.0559999999999832,0.18181818181818182,12620.0,0.6033313723795404,34412.74162283499,208.33333333333334,0.06526617794547901,0.20865818629462454,0.43824374230611407,0.16968166050511563,0.395501409920755,0.4290292177188142,4874.0,3403.3880597014927,-21.099999999999994,571.2910447761194,0.16785950786529666,42.083333333333336,-12.925925925925926,29.157407407407412,0.47914956440853657,-1.6378152338643095,9788562.805764286,8600982.0,2020742.0,4213748.0,4270717.862405667,1394177.5077350466,1591720.7017517844,0.523852783053464,0.6037639982865092,0.6872743229563617,0.15573916551051903,-0.16981877280370594,0.40323676322848084,0.36,1.0,0.9448726170396421,0.9553073479352159,0.7962115115284992,12.0,0.0631907060513716,0.00955882979911026,2.1968124287700923,1.9478528178903218,0.10797844114951298,0.10299218952141631,0.043104544637257866,0.12658150131344095,0.09751476798800142,0.04199941235029185,0.13151512759453923,0.07980195327746274,0.02641353874760445,0.1229678941528854,0.08987970722765286,0.029250922039933867,3.1698826412939054,0.10429290194338108,0.5085416818898413,0.06060606060606061,0.460104871540882,0.1624332988741899,0.0013245640163066128,390.2951874335919,80.12260931315477,0.03330665599145572,3.2827121165711954,2.9561818317314805,Catherine,REC_20260811_193525.csv
right,134,soft,138.032,1.0079999999999814,0.6079999999999757,0.6031746031745902,1.0079999999999814,0.06349206349206349,9686.0,0.3342478751849807,37817.7384437515,125.0,0.0391597067672874,0.23132735808792146,0.4739650021340162,0.15604801477377656,0.3942180464726657,0.395841885397999,4686.0,3282.84375,-18.80000000000001,505.875,0.1540965816603364,133.75,-13.779661016949152,119.97033898305085,0.8895129257877706,-0.9422017111287135,10414535.427065145,9169087.0,2820975.0,4053701.0,4533915.704394284,1528676.166892328,2302507.714166714,0.5348931908378161,0.6082423662601129,0.6587929400275682,0.13585782143906888,-0.24843443388713848,0.3977609395348711,0.52,1.0,0.9481562588928361,0.9599223892572005,0.8037899377356129,12.0,0.07259171202087673,0.010845211759772865,3.087350561851945,3.1976636839723227,0.11119361072241102,0.09459215047929101,0.04632511827588505,0.13112678603725808,0.09300720602374085,0.04496387468943656,0.1379710807131774,0.0753443565506278,0.030528029242939143,0.11901838154801002,0.08070365822314876,0.035225747494074304,3.512227736392017,0.12431809153540005,0.5160252202681792,0.09523809523809523,0.5834731559738986,0.0967008504206349,0.0016056926302333574,1631.6082046048482,118.80633410365151,0.027712812921103284,2.94234318097835,3.0612987593129515,Catherine,REC_20260811_193525.csv
right,135,soft,139.056,1.0079999999999814,0.6079999999999757,0.6031746031745902,1.0079999999999814,0.047619047619047616,48202.0,3.8666336890723905,49297.98030345665,166.66666666666666,0.052212942356383206,0.20942100098135427,0.45691854759568207,0.13809857404352444,0.4192989988926804,0.3293558401239482,5095.0,3457.109375,-43.900000000000006,472.71875,0.13673815281010598,250.0,-13.033333333333333,236.96666666666667,1.1532082694765529,-0.246706256116207,7967671.927615117,6046344.0,4535063.0,2521651.0,4514699.334656891,1471516.580446359,1639468.4745999041,0.521378107118038,0.6187694639488766,0.6525683035409742,0.16053874488707476,-0.26206865381565525,0.45021947343947905,0.5,1.0,0.9326365958564818,0.9716648512216146,0.7565194139088999,11.0,0.07560254476933234,0.011279765550523655,3.6165694268459805,2.1020870719484606,0.10585523490994554,0.09719554360353438,0.04847800049716391,0.12825472870669588,0.09433911098054282,0.05818625567783779,0.1292535761903686,0.0639533569862828,0.04132335992406951,0.11414431312286728,0.07414521705724164,0.04487130234344987,3.309329666526239,0.12479405241323357,0.5063245756668746,0.09523809523809523,0.495432841413289,0.12355292985572588,0.00447379070892874,21440.496480569975,41.66666666667112,0.027712812921103284,1.4211598204151137,1.4600071417775529,Catherine,REC_20260811_193525.csv
right,136,soft,140.08,1.0079999999999814,0.6239999999999952,0.6190476190476257,1.0079999999999814,0.06349206349206349,14998.0,0.8214229048705639,34922.66189739837,500.0,0.1566388270691496,0.23839146856254165,0.5085536547433903,0.1608678340175008,0.3997212768176259,0.40245001541605485,4501.0,3296.28125,0.4000000000000057,523.9453125,0.15895042709113488,163.0,-11.610169491525424,151.38983050847457,0.8085454319929367,-1.069999797639257,10162848.357969236,8250345.0,2106263.0,5547878.0,4291633.290089697,1603691.4212154455,1824336.1361537531,0.4724708972674928,0.5929649549257273,0.7153515799051688,0.10977738712588114,-0.1959784226542578,0.39032800579623844,0.5,1.0,0.9365197032880261,0.9502717543900076,0.7702196208302835,12.0,0.068585392608931,0.010245991337478035,2.4782286943583554,1.4643372486377046,0.1138309268967871,0.1025018723751197,0.04329215688133408,0.1334221328959718,0.09881874460803368,0.0403437585915947,0.13440335226249278,0.07480968136441635,0.024634768346906078,0.12178496601283643,0.08605815265308445,0.02609948711142291,3.9942960486742862,0.17944271384282034,0.5692699657373229,0.09523809523809523,0.5468582032277836,0.09996277483627115,0.002716543478357729,20873.44890844188,205.53678592984437,0.0,2.0240600388021712,2.299462892389983,Catherine,REC_20260811_193525.csv
