sole_id,timestamp,accel_x,accel_y,accel_z,gyro_x,gyro_y,gyro_z,magn_x,magn_y,magn_z,pressure_01,pressure_02,pressure_03,pressure_04,pressure_05,pressure_06,pressure_07,pressure_08,pressure_09,pressure_10,pressure_11,pressure_12,corrupt,asphalt,brick,concrete,dirt,grass
1,1777057746944,-1507,890,9767,21991,-29321,9773,0,0,0,311,305,232,351,193,332,484,418,279,375,423,207,0,,,,,
2,1777057746944,1871,641,9782,31764,-59864,-13439,0,0,0,386,429,307,363,326,391,429,354,299,255,222,347,0,,,,,
1,1777057746960,-1507,890,9767,20769,-29321,9773,0,0,0,312,305,233,351,193,333,482,416,277,377,425,209,0,,,,,
2,1777057746960,1866,646,9772,31764,-54977,-14660,0,0,0,388,430,307,361,324,389,429,355,300,255,221,346,0,,,,,
1,1777057746976,-1507,885,9758,19547,-29321,9773,0,0,0,313,305,233,352,195,333,462,396,281,375,424,208,0,,,,,
2,1777057746976,1861,641,9786,30543,-54977,-15882,0,0,0,388,430,303,360,324,389,430,356,302,254,222,347,0,,,,,
1,1777057746992,-1512,885,9758,19547,-28099,8552,0,0,0,312,304,232,351,197,333,463,397,279,373,424,206,0,,,,,
2,1777057746992,1861,641,9801,30543,-57421,-15882,0,0,0,386,428,300,362,325,390,428,355,300,254,222,347,0,,,,,
1,1777057747008,-1507,890,9772,19547,-28099,8552,0,0,0,312,303,231,351,197,334,480,416,274,376,427,209,0,,,,,
2,1777057747008,1861,636,9801,32986,-58643,-15882,0,0,0,386,431,303,362,325,391,427,355,299,253,220,348,0,,,,,
1,1777057747024,-1502,894,9777,23212,-30543,10995,0,0,0,311,304,231,352,196,335,481,417,277,377,426,211,0,,,,,
2,1777057747024,1861,636,9801,35430,-57421,-15882,0,0,0,384,430,301,363,327,395,430,358,302,253,218,347,0,,,,,
1,1777057747040,-1502,890,9772,24434,-30543,10995,0,0,0,311,304,232,350,192,334,483,418,278,376,424,209,0,,,,,
2,1777057747040,1861,636,9801,36651,-57421,-15882,0,0,0,378,427,298,362,326,394,430,358,303,254,222,347,0,,,,,
1,1777057747056,-1502,880,9767,25656,-31764,9773,0,0,0,312,305,235,352,193,336,482,418,277,378,425,212,0,,,,,
2,1777057747056,1866,636,9801,37873,-58643,-15882,0,0,0,377,427,303,359,324,393,429,355,306,251,223,351,0,,,,,
1,1777057747072,-1512,866,9767,26878,-31764,9773,0,0,0,313,305,234,352,194,335,482,417,277,377,424,211,0,,,,,
2,1777057747072,1866,631,9801,39095,-58643,-15882,0,0,0,385,432,308,359,324,393,431,360,304,250,219,347,0,,,,,
1,1777057747088,-1517,866,9772,25656,-31764,10995,0,0,0,313,305,234,351,194,332,485,420,278,378,424,211,0,,,,,
2,1777057747088,1861,622,9801,39095,-59864,-15882,0,0,0,385,432,309,361,324,393,377,329,308,250,215,346,0,,,,,
1,1777057747104,-1517,871,9772,24434,-31764,10995,0,0,0,314,306,234,350,194,331,483,420,276,377,424,211,0,x,,,,
2,1777057747104,1866,617,9806,41538,-58643,-17104,0,0,0,381,432,303,365,329,398,422,352,304,251,217,350,0,x,,,,
1,1777057747120,-1512,871,9772,24434,-30543,10995,0,0,0,314,307,236,353,196,334,484,419,277,378,425,212,0,,,,,
2,1777057747120,1871,617,9806,43982,-58643,-18325,0,0,0,381,432,299,364,327,396,430,353,304,253,219,353,0,,,,,
1,1777057747136,-1507,875,9777,25656,-30543,10995,0,0,0,314,306,233,353,195,331,483,416,276,377,421,210,0,,,,,
2,1777057747136,1866,603,9810,45204,-59864,-18325,0,0,0,381,431,297,364,327,394,429,354,302,250,217,351,0,,,,,
1,1777057747152,-1497,880,9782,26878,-30543,10995,0,0,0,315,306,232,352,194,329,481,415,275,377,421,208,0,,,,,
2,1777057747152,1861,598,9806,43982,-58643,-17104,0,0,0,381,432,297,366,329,396,428,356,300,249,217,350,0,,,,,
1,1777057747168,-1497,866,9786,26878,-30543,10995,0,0,0,315,307,233,353,195,331,482,416,275,378,422,209,0,,,,,
2,1777057747168,1861,598,9801,41538,-58643,-17104,0,0,0,384,434,298,364,327,398,428,355,300,250,216,350,0,,,,,
1,1777057747184,-1497,856,9777,23212,-31764,9773,0,0,0,313,306,232,353,196,332,482,417,274,376,421,208,0,,,,,
2,1777057747184,1866,593,9791,37873,-58643,-17104,0,0,0,387,436,300,361,322,398,428,353,299,248,213,349,0,,,,,
1,1777057747200,-1502,856,9777,19547,-31764,8552,0,0,0,314,305,232,352,195,331,482,416,275,375,421,208,0,,,,,
2,1777057747200,1861,593,9786,32986,-58643,-17104,0,0,0,384,433,299,361,322,398,428,353,299,249,214,348,0,,,,,
1,1777057747216,-1507,861,9777,17104,-29321,8552,0,0,0,315,306,232,352,195,330,481,413,277,376,421,208,0,,,,,
2,1777057747216,1866,588,9791,30543,-59864,-15882,0,0,0,381,431,295,364,325,399,431,353,299,253,218,351,0,,,,,
1,1777057747232,-1507,866,9777,14660,-28099,8552,0,0,0,314,305,229,352,196,329,476,408,276,375,419,206,0,,,,,
2,1777057747232,1861,588,9791,26878,-59864,-13439,0,0,0,381,431,295,361,325,395,413,346,299,249,214,350,0,,,,,
1,1777057747248,-1512,871,9786,14660,-28099,9773,0,0,0,314,306,232,350,194,328,481,414,273,379,421,208,0,,,,,
2,1777057747248,1866,593,9801,24434,-61086,-13439,0,0,0,381,428,296,353,318,390,375,325,305,244,208,344,0,,,,,
1,1777057747264,-1507,871,9791,15882,-28099,9773,0,0,0,314,304,232,352,193,327,480,413,272,379,421,207,0,,,,,
2,1777057747264,1866,593,9810,20769,-59864,-12217,0,0,0,386,435,301,363,326,395,426,351,299,251,215,352,0,,,,,
1,1777057747280,-1507,861,9786,17104,-26878,8552,0,0,0,314,304,231,352,192,325,479,410,269,378,420,205,0,,,,,
2,1777057747280,1866,598,9825,20769,-59864,-12217,0,0,0,390,436,301,363,326,395,429,353,302,251,215,351,0,,,,,
1,1777057747296,-1507,851,9782,18325,-25656,8552,0,0,0,314,304,230,352,192,325,465,397,270,376,417,204,0,,,,,
2,1777057747296,1866,603,9825,24434,-59864,-13439,0,0,0,390,436,300,363,327,395,427,353,302,251,216,351,0,,,,,
1,1777057747312,-1502,851,9791,14660,-25656,8552,0,0,0,314,302,230,352,194,324,480,413,269,398,407,205,0,,,,,
2,1777057747312,1861,593,9801,25656,-61086,-13439,0,0,0,386,432,299,362,325,392,432,358,307,250,217,352,0,,,,,
1,1777057747328,-1502,856,9801,12217,-26878,8552,0,0,0,312,302,226,353,196,323,478,416,265,378,415,201,0,,,,,
2,1777057747328,1856,588,9782,23212,-59864,-13439,0,0,0,387,433,299,365,328,395,427,352,301,251,217,352,0,,,,,
1,1777057747344,-1497,847,9791,8552,-25656,6108,0,0,0,313,302,226,352,194,323,477,416,265,375,418,201,0,,,,,
2,1777057747344,1856,588,9791,18325,-59864,-12217,0,0,0,388,434,301,366,330,394,430,354,302,254,219,355,0,,,,,
1,1777057747360,-1488,847,9763,1221,-25656,4886,0,0,0,314,303,228,350,194,323,477,415,265,376,420,203,0,,,,,
2,1777057747360,1866,598,9825,18325,-61086,-12217,0,0,0,388,434,300,365,329,393,430,355,301,250,216,354,0,,,,,
1,1777057747376,-1488,885,9753,0,-26878,4886,0,0,0,313,304,232,353,197,329,480,419,272,374,419,202,0,,,,,
2,1777057747376,1880,612,9863,26878,-61086,-14660,0,0,0,387,432,299,363,327,392,427,352,300,250,215,351,0,,,,,
1,1777057747392,-1502,914,9786,19547,-29321,8552,0,0,0,313,306,234,353,197,332,480,418,273,373,419,204,0,,,,,
2,1777057747392,1885,612,9877,36651,-61086,-15882,0,0,0,386,432,297,362,327,392,422,348,299,251,216,351,0,,,,,
1,1777057747408,-1507,904,9834,47647,-30543,12217,0,0,0,311,306,234,352,195,331,479,414,271,374,418,209,0,,,,,
2,1777057747408,1880,603,9868,45204,-61086,-18325,0,0,0,385,432,295,362,328,391,424,344,301,250,215,352,0,,,,,
1,1777057747424,-1497,871,9849,67195,-31764,15882,0,0,0,310,304,233,352,194,333,483,414,275,374,415,212,0,,,,,
2,1777057747424,1871,583,9839,50090,-62308,-18325,0,0,0,386,432,294,363,328,390,431,342,304,252,214,353,0,,,,,
1,1777057747440,-1493,847,9806,74525,-35430,15882,0,0,0,310,303,236,352,192,340,487,416,281,374,411,218,0,,,,,
2,1777057747440,1866,579,9815,51312,-64751,-19547,0,0,0,388,434,296,367,330,392,429,337,300,252,213,356,0,,,,,
1,1777057747456,-1497,851,9786,81855,-37873,17104,0,0,0,309,305,243,351,190,357,482,414,288,375,412,241,0,,,,,
2,1777057747456,1852,579,9820,53756,-67195,-20769,0,0,0,385,432,295,363,326,389,430,336,304,251,211,353,0,,,,,
1,1777057747472,-1517,847,9801,92851,-34208,18325,0,0,0,308,310,253,346,191,359,481,405,291,372,407,240,0,,,,,
2,1777057747472,1852,583,9839,54977,-65973,-20769,0,0,0,383,431,293,363,329,391,429,332,303,250,208,354,0,,,,,
1,1777057747488,-1526,823,9815,100181,-31764,19547,0,0,0,308,306,251,346,187,355,484,404,287,369,402,236,0,,,,,
2,1777057747488,1861,583,9853,59864,-62308,-20769,0,0,0,385,431,298,363,329,390,425,330,303,248,206,355,0,,,,,
1,1777057747504,-1507,799,9806,96516,-30543,19547,0,0,0,308,302,230,357,186,329,480,396,271,369,401,226,0,,,,,
2,1777057747504,1856,564,9839,61086,-59864,-20769,0,0,0,381,429,290,368,333,392,430,335,304,252,206,355,0,,,,,
1,1777057747520,-1507,780,9777,81855,-30543,17104,0,0,0,306,300,238,348,198,333,481,395,272,368,396,227,0,,,,,
2,1777057747520,1856,559,9825,62308,-59864,-21991,0,0,0,388,435,299,366,330,391,425,325,304,252,207,359,0,,,,,
1,1777057747536,-1507,765,9772,68416,-29321,17104,0,0,0,308,300,234,350,194,327,478,391,263,365,396,222,0,,,,,
2,1777057747536,1861,550,9820,62308,-62308,-23212,0,0,0,388,435,296,367,332,391,425,324,303,252,206,357,0,,,,,
1,1777057747552,-1497,765,9786,62308,-29321,15882,0,0,0,308,297,237,348,185,350,477,391,280,362,393,236,0,,,,,
2,1777057747552,1861,536,9820,62308,-65973,-23212,0,0,0,390,435,298,365,330,390,425,324,304,249,200,354,0,,,,,
1,1777057747568,-1488,765,9806,61086,-29321,15882,0,0,0,309,296,242,345,181,357,478,387,287,361,387,244,0,,,,,
2,1777057747568,1866,531,9830,62308,-69638,-21991,0,0,0,398,433,298,371,330,391,425,322,305,250,199,354,0,,,,,
1,1777057747584,-1493,765,9815,63529,-34208,18325,0,0,0,312,299,242,345,181,351,480,387,290,362,383,243,0,,,,,
2,1777057747584,1861,531,9844,62308,-70860,-21991,0,0,0,396,433,300,372,331,394,423,322,303,248,196,354,0,,,,,
1,1777057747600,-1512,765,9810,67195,-34208,18325,0,0,0,313,298,242,348,181,352,481,383,294,363,381,248,0,,,,,
2,1777057747600,1856,526,9853,63529,-72082,-20769,0,0,0,394,435,300,368,329,392,425,316,302,247,193,355,0,,,,,
1,1777057747616,-1526,756,9825,76969,-31764,20769,0,0,0,315,292,244,349,180,360,480,375,297,364,381,264,0,,,,,
2,1777057747616,1861,526,9863,69638,-70860,-20769,0,0,0,393,435,297,367,328,390,423,310,302,245,191,356,0,,,,,
1,1777057747632,-1512,737,9834,85521,-31764,23212,0,0,0,318,294,245,351,193,365,484,375,301,363,385,279,0,,,,,
2,1777057747632,1876,516,9858,75747,-72082,-20769,0,0,0,391,435,297,367,330,391,419,311,302,267,199,351,0,,,,,
1,1777057747648,-1493,713,9810,86742,-35430,24434,0,0,0,316,307,243,361,224,366,490,384,301,363,389,281,0,,,,,
2,1777057747648,1880,502,9844,76969,-75747,-24434,0,0,0,392,435,299,366,329,391,418,311,302,292,207,348,0,,,,,
1,1777057747664,-1478,693,9806,80634,-42760,24434,0,0,0,312,302,243,360,218,368,489,380,306,366,379,291,0,,,,,
2,1777057747664,1866,488,9815,74525,-79412,-26878,0,0,0,393,435,300,367,331,390,414,303,299,245,190,357,0,,,,,
1,1777057747680,-1488,679,9806,72082,-48869,21991,0,0,0,316,284,251,356,178,376,485,376,311,358,375,287,0,,,,,
2,1777057747680,1832,469,9786,64751,-80634,-28099,0,0,0,388,433,297,365,329,389,417,305,301,245,187,356,0,,,,,
1,1777057747696,-1512,674,9806,59864,-50090,19547,0,0,0,317,285,242,370,173,363,509,372,313,366,370,285,0,,,,,
2,1777057747696,1804,459,9772,51312,-79412,-25656,0,0,0,390,435,297,368,330,391,417,307,302,245,187,355,0,,,,,
1,1777057747712,-1521,665,9806,46425,-47647,17104,0,0,0,314,288,246,355,173,367,504,369,309,374,360,289,0,,,,,
2,1777057747712,1794,459,9772,36651,-75747,-20769,0,0,0,393,436,301,363,330,388,418,307,302,246,186,355,0,,,,,
1,1777057747728,-1517,660,9806,31764,-43982,14660,0,0,0,315,285,252,352,172,373,498,367,306,367,358,293,0,,,,,
2,1777057747728,1789,459,9777,24434,-70860,-17104,0,0,0,392,436,298,364,332,386,416,304,300,241,183,353,0,,,,,
1,1777057747744,-1512,665,9806,17104,-41538,10995,0,0,0,315,287,252,351,174,370,492,369,303,365,359,292,0,,,,,
2,1777057747744,1794,449,9786,9773,-63529,-13439,0,0,0,394,436,301,363,326,383,419,307,303,248,190,356,0,,,,,
1,1777057747760,-1512,674,9806,6108,-37873,8552,0,0,0,315,291,252,351,176,365,490,366,303,361,355,290,0,,,,,
2,1777057747760,1823,464,9810,0,-56199,-9773,0,0,0,392,437,300,365,330,388,415,305,297,246,189,357,0,,,,,
1,1777057747776,-1512,679,9796,0,-35430,4886,0,0,0,316,289,249,352,175,364,491,364,302,358,352,288,0,,,,,
2,1777057747776,1842,478,9839,-1221,-54977,-9773,0,0,0,393,437,299,365,329,387,419,307,300,247,189,359,0,,,,,
1,1777057747792,-1512,679,9796,-4886,-35430,1221,0,0,0,317,283,246,353,173,361,492,364,302,357,351,281,0,,,,,
2,1777057747792,1828,483,9844,0,-54977,-10995,0,0,0,394,437,300,368,332,389,419,308,300,246,188,356,0,,,,,
1,1777057747808,-1517,679,9806,-10995,-34208,0,0,0,0,319,280,245,355,173,359,494,362,304,357,353,276,0,,,,,
2,1777057747808,1818,488,9830,-1221,-51312,-10995,0,0,0,395,438,302,370,333,391,419,308,300,245,188,355,0,,,,,
1,1777057747824,-1521,670,9806,-20769,-31764,0,0,0,0,320,281,248,355,172,361,495,358,304,359,359,274,0,,,,,
2,1777057747824,1832,502,9820,-7330,-47647,-9773,0,0,0,395,438,301,371,333,391,421,312,302,246,191,356,0,,,,,
1,1777057747840,-1521,660,9782,-42760,-28099,-1221,0,0,0,320,280,245,351,167,355,494,353,302,361,359,263,0,,,,,
2,1777057747840,1842,502,9820,-8552,-46425,-8552,0,0,0,395,440,302,371,333,392,422,312,304,247,192,357,0,,,,,
1,1777057747856,-1512,660,9758,-79412,-23212,-7330,0,0,0,320,281,241,355,174,351,496,352,305,370,360,251,0,,,,,
2,1777057747856,1832,497,9825,-9773,-47647,-8552,0,0,0,396,440,302,370,334,392,420,309,301,246,191,355,0,,,,,
1,1777057747872,-1512,684,9734,-118507,-17104,-13439,0,0,0,319,284,237,354,176,343,492,361,281,363,368,227,0,,,,,
2,1777057747872,1813,507,9830,-9773,-47647,-8552,0,0,0,394,438,299,369,334,390,417,309,299,244,190,353,0,,,,,
1,1777057747888,-1531,756,9743,-145385,-8552,-17104,0,0,0,319,279,236,352,171,338,500,361,290,364,368,224,0,,,,,
2,1777057747888,1813,521,9839,-7330,-45204,-6108,0,0,0,393,437,297,368,334,389,415,308,300,243,190,353,0,,,,,
1,1777057747904,-1545,842,9801,-140499,0,-15882,0,0,0,319,283,243,349,167,338,501,363,284,370,367,226,0,,,,,
2,1777057747904,1842,536,9863,-3665,-43982,-6108,0,0,0,393,438,297,371,336,391,410,309,302,242,191,352,0,,,,,
1,1777057747920,-1526,861,9873,-108734,1221,-8552,0,0,0,320,287,230,352,170,317,495,361,267,375,374,204,0,,,,,
2,1777057747920,1852,536,9877,1221,-43982,-8552,0,0,0,394,438,300,372,335,393,422,314,302,248,195,356,0,,,,,
1,1777057747936,-1502,847,9897,-83077,0,-4886,0,0,0,318,287,222,352,173,309,494,362,261,374,378,188,0,,,,,
2,1777057747936,1856,540,9882,9773,-46425,-12217,0,0,0,393,438,299,371,336,392,425,317,303,248,195,356,0,,,,,
1,1777057747952,-1497,847,9858,-73303,-7330,-3665,0,0,0,318,289,222,348,182,302,491,365,255,373,385,184,0,,,,,
2,1777057747952,1866,536,9882,21991,-50090,-17104,0,0,0,396,443,304,367,332,389,419,310,296,248,197,356,0,,,,,
1,1777057747968,-1497,861,9825,-69638,-12217,-3665,0,0,0,321,289,224,362,177,309,487,372,265,379,390,183,0,,,,,
2,1777057747968,1871,540,9887,36651,-54977,-20769,0,0,0,397,443,302,369,333,389,422,314,302,245,192,355,0,,,,,
1,1777057747984,-1502,880,9806,-68416,-14660,-2443,0,0,0,325,289,222,376,174,311,488,384,268,384,393,182,0,,,,,
2,1777057747984,1871,550,9906,57421,-62308,-23212,0,0,0,390,441,310,367,335,396,423,315,305,245,195,356,0,,,,,
1,1777057748000,-1502,904,9777,-58643,-13439,0,0,0,0,329,291,221,379,178,304,490,393,259,385,398,182,0,,,,,
2,1777057748000,1856,545,9920,74525,-64751,-23212,0,0,0,393,436,298,365,333,387,424,317,300,250,195,364,0,,,,,
1,1777057748016,-1507,952,9777,-31764,-9773,1221,0,0,0,332,291,225,380,176,303,490,392,259,388,400,182,0,,,,,
2,1777057748016,1856,531,9925,91629,-68416,-23212,0,0,0,395,440,300,369,335,392,426,317,303,249,195,362,0,,,,,
1,1777057748032,-1488,938,9830,2443,-9773,4886,0,0,0,332,290,225,380,177,303,493,391,262,389,398,182,0,,,,,
2,1777057748032,1871,512,9920,108734,-73303,-24434,0,0,0,402,443,302,366,333,391,424,308,302,248,190,363,0,,,,,
1,1777057748048,-1469,904,9853,25656,-18325,7330,0,0,0,332,289,225,379,176,303,494,391,261,390,401,183,0,,,,,
2,1777057748048,1885,492,9911,123394,-80634,-29321,0,0,0,401,442,300,369,334,393,422,306,303,242,184,363,0,,,,,
1,1777057748064,-1469,890,9834,29321,-28099,8552,0,0,0,333,294,227,378,176,301,493,391,261,390,401,182,0,,,,,
2,1777057748064,1890,478,9911,135612,-90408,-36651,0,0,0,399,439,307,367,333,397,419,306,308,240,179,368,0,,,,,
1,1777057748080,-1469,890,9801,26878,-34208,7330,0,0,0,333,295,227,379,174,302,497,390,263,390,402,183,0,,,,,
2,1777057748080,1904,464,9920,149051,-100181,-45204,0,0,0,401,441,316,367,335,404,414,300,310,238,175,373,0,,,,,
1,1777057748096,-1478,885,9782,20769,-37873,7330,0,0,0,333,292,224,379,173,302,492,384,261,390,399,183,0,,,,,
2,1777057748096,1880,449,9954,167377,-116064,-54977,0,0,0,401,444,316,368,338,408,403,289,309,235,174,378,0,,,,,
1,1777057748112,-1478,904,9753,17104,-37873,7330,0,0,0,333,293,226,379,172,303,496,384,265,390,399,185,0,,,,,
2,1777057748112,1847,435,9978,189368,-131946,-58643,0,0,0,398,444,313,366,335,403,396,283,308,239,177,383,0,,,,,
1,1777057748128,-1488,947,9767,32986,-35430,8552,0,0,0,339,295,232,380,171,314,497,384,272,392,396,189,0,,,,,
2,1777057748128,1861,406,9997,212581,-140499,-61086,0,0,0,398,445,313,368,338,408,397,282,310,243,178,382,0,,,,,
1,1777057748144,-1478,918,9806,51312,-35430,9773,0,0,0,346,296,233,384,169,310,498,384,271,401,395,189,0,,,,,
2,1777057748144,1904,378,10045,235793,-147829,-69638,0,0,0,397,441,307,368,342,407,391,276,311,240,177,386,0,,,,,
1,1777057748160,-1469,871,9801,59864,-40317,10995,0,0,0,346,295,233,384,168,312,495,383,271,411,393,195,0,,,,,
2,1777057748160,1938,358,10136,276111,-163711,-85521,0,0,0,400,441,291,368,343,402,382,268,306,237,169,391,0,,,,,
1,1777057748176,-1459,832,9763,53756,-51312,6108,0,0,0,340,292,238,382,167,324,496,382,275,417,392,205,0,,,,,
2,1777057748176,1976,325,10217,331088,-190589,-106290,0,0,0,400,445,296,369,347,408,375,271,304,234,175,390,0,,,,,
1,1777057748192,-1478,832,9753,39095,-57421,0,0,0,0,332,289,240,371,168,328,500,377,276,411,393,216,0,,,,,
2,1777057748192,1981,282,10313,394618,-226020,-128281,0,0,0,399,445,283,369,347,403,369,264,300,231,174,383,0,,,,,
1,1777057748208,-1502,856,9772,28099,-58643,0,0,0,0,327,287,238,358,172,331,501,374,280,397,394,225,0,,,,,
2,1777057748208,1914,311,10586,485026,-270002,-151494,0,0,0,401,443,283,363,339,393,358,259,295,228,163,383,0,,,,,
1,1777057748224,-1512,856,9767,21991,-51312,0,0,0,0,328,286,244,365,173,348,498,381,295,402,388,224,0,,,,,
2,1777057748224,1880,382,11007,612086,-307876,-171042,0,0,0,402,443,274,360,345,392,349,262,294,229,168,387,0,,,,,
1,1777057748240,-1507,851,9734,18325,-47647,0,0,0,0,331,288,247,371,165,347,499,388,304,412,380,226,0,,,,,
2,1777057748240,1957,344,11418,780685,-324980,-194255,0,0,0,404,448,274,356,349,395,339,257,299,228,171,389,0,,,,,
1,1777057748256,-1502,861,9743,18325,-52534,-1221,0,0,0,329,284,248,362,164,347,510,378,299,418,375,235,0,,,,,
2,1777057748256,2038,248,11686,967610,-332310,-224798,0,0,0,404,446,271,351,352,391,334,254,295,228,172,392,0,,,,,
1,1777057748272,-1521,875,9801,29321,-62308,-1221,0,0,0,332,286,249,355,169,351,510,381,301,418,379,231,0,,,,,
2,1777057748272,2225,95,11907,1207069,-349414,-276111,0,0,0,405,439,263,350,353,386,328,257,293,225,165,385,0,,,,,
1,1777057748288,-1560,875,9844,42760,-65973,0,0,0,0,336,286,270,347,167,356,511,377,298,408,381,257,0,,,,,
2,1777057748288,2426,-33,12151,1444085,-379958,-349414,0,0,0,402,435,257,347,354,382,317,257,288,221,165,377,0,,,,,
1,1777057748304,-1579,851,9810,47647,-56199,0,0,0,0,334,286,254,355,175,348,510,367,289,419,366,238,0,,,,,
2,1777057748304,2622,-167,12419,1683544,-430049,-434936,0,0,0,395,433,253,341,351,374,309,252,277,214,168,365,0,,,,,
1,1777057748320,-1579,842,9758,47647,-41538,0,0,0,0,340,283,255,378,177,360,514,373,306,405,383,263,0,,,,,
2,1777057748320,2924,-306,12490,1902234,-500909,-527787,0,0,0,387,430,248,336,347,365,307,251,267,209,165,346,0,,,,,
1,1777057748336,-1555,851,9758,57421,-30543,2443,0,0,0,325,283,267,355,173,364,511,360,304,397,379,286,0,,,,,
2,1777057748336,3383,-574,12270,2081828,-565661,-648738,0,0,0,373,426,242,331,344,357,309,258,260,209,168,332,0,,,,,
1,1777057748352,-1531,832,9777,73303,-31764,4886,0,0,0,332,294,271,350,194,363,518,357,302,397,383,276,0,,,,,
2,1777057748352,3957,-1335,11734,2196671,-544891,-863763,0,0,0,356,418,234,322,336,350,318,269,264,203,171,309,0,,,,,
1,1777057748368,-1526,789,9763,75747,-43982,4886,0,0,0,353,306,274,356,219,364,521,368,300,400,396,272,0,,,,,
2,1777057748368,4259,-1698,11127,2240653,-390953,-1154535,0,0,0,323,403,226,309,322,329,310,266,253,204,190,273,0,,,,,
1,1777057748384,-1550,765,9763,64751,-53756,1221,0,0,0,346,306,274,359,223,366,521,377,300,397,403,283,0,,,,,
2,1777057748384,4225,-1430,10318,2204001,-213802,-1467298,0,0,0,290,391,225,292,302,316,305,269,245,170,161,239,0,,,,,
1,1777057748400,-1588,770,9791,56199,-61086,0,0,0,0,344,302,278,361,214,365,523,373,300,395,401,290,0,,,,,
2,1777057748400,4158,-1392,9404,2083050,-141720,-1729970,0,0,0,256,385,226,293,300,319,321,293,247,165,166,217,0,,,,,
1,1777057748416,-1612,789,9844,57421,-62308,2443,0,0,0,367,300,288,370,205,360,521,363,299,399,399,288,0,,,,,
2,1777057748416,4197,-526,8432,1810604,-146607,-1951103,0,0,0,248,382,233,287,305,320,318,291,258,159,165,215,0,,,,,
1,1777057748432,-1622,775,9858,62308,-62308,7330,0,0,0,364,297,287,381,197,360,516,365,303,401,401,290,0,,,,,
2,1777057748432,4264,3871,7580,1270599,-204028,-2142915,0,0,0,248,381,234,289,307,322,322,293,261,155,165,208,0,,,,,
1,1777057748448,-1636,756,9853,72082,-62308,14660,0,0,0,356,302,285,382,194,364,513,372,309,398,400,297,0,,,,,
2,1777057748448,4379,10256,7049,254119,-342084,-2127032,0,0,0,250,381,235,288,304,321,323,291,264,155,163,209,0,,,,,
1,1777057748464,-1636,765,9853,85521,-62308,20769,0,0,0,355,305,294,375,191,369,515,371,316,390,393,297,0,,,,,
2,1777057748464,4871,11600,6427,-871093,-312763,-1642005,0,0,0,251,382,234,291,307,316,322,292,256,156,165,205,0,,,,,
1,1777057748480,-1636,775,9887,105068,-63529,26878,0,0,0,362,308,300,373,196,378,516,354,322,389,378,307,0,,,,,
2,1777057748480,5470,9652,5910,-1556484,7330,-971275,0,0,0,248,382,230,291,309,310,320,292,243,157,167,198,0,,,,,
1,1777057748496,-1631,756,9897,123394,-69638,29321,0,0,0,357,301,300,356,190,379,515,354,329,386,373,305,0,,,,,
2,1777057748496,5278,8714,6508,-1832595,466701,-444709,0,0,0,245,383,231,287,310,311,317,294,241,155,168,198,0,,,,,
1,1777057748512,-1636,703,9834,131946,-74525,29321,0,0,0,349,300,301,369,191,395,519,358,335,384,370,315,0,,,,,
2,1777057748512,4474,8360,7733,-2245540,830776,54977,0,0,0,246,384,233,287,311,313,315,295,241,155,166,197,0,,,,,
1,1777057748528,-1636,660,9763,133168,-76969,28099,0,0,0,353,304,295,364,190,380,522,362,327,384,363,315,0,,,,,
2,1777057748528,3656,7537,8968,-2718350,1006705,502131,0,0,0,253,383,236,289,309,314,316,293,243,155,163,196,0,,,,,
1,1777057748544,-1627,626,9719,118507,-78190,24434,0,0,0,354,305,293,366,193,376,531,358,324,393,359,322,0,,,,,
2,1777057748544,3297,6240,9810,-2977357,1105666,791681,0,0,0,255,382,240,288,307,315,317,292,249,155,163,199,0,,,,,
1,1777057748560,-1636,612,9700,96516,-76969,20769,0,0,0,359,309,299,371,195,380,535,349,320,397,359,321,0,,,,,
2,1777057748560,3010,5240,10772,-3109304,1197295,979827,0,0,0,245,383,235,283,304,309,304,291,247,168,169,193,0,,,,,
1,1777057748576,-1651,612,9686,73303,-69638,17104,0,0,0,357,312,301,378,198,383,538,348,319,399,362,319,0,,,,,
2,1777057748576,2785,4517,11931,-3189938,1253495,1110553,0,0,0,245,385,234,279,301,305,292,287,242,185,175,187,0,,,,,
1,1777057748592,-1641,598,9676,51312,-64751,15882,0,0,0,354,311,303,375,198,387,539,350,321,398,366,321,0,,,,,
2,1777057748592,2680,3594,13180,-3274237,1280373,1269377,0,0,0,249,390,236,289,312,314,316,299,245,152,168,195,0,,,,,
1,1777057748608,-1627,598,9696,31764,-68416,13439,0,0,0,352,309,313,370,196,387,534,354,322,393,366,322,0,,,,,
2,1777057748608,2699,2584,14218,-3329215,1291369,1442863,0,0,0,253,387,233,289,310,313,319,301,248,158,169,197,0,,,,,
1,1777057748624,-1641,622,9748,18325,-74525,10995,0,0,0,351,310,316,368,195,381,528,358,321,389,365,319,0,,,,,
2,1777057748624,2837,1675,14783,-3340211,1280373,1574810,0,0,0,245,384,233,285,308,312,319,301,245,176,176,193,0,,,,,
1,1777057748640,-1689,646,9801,17104,-72082,12217,0,0,0,354,315,303,365,194,377,535,359,322,386,365,316,0,,,,,
2,1777057748640,2909,708,14984,-3320663,1264491,1632231,0,0,0,252,388,228,292,313,312,320,299,241,158,168,193,0,,,,,
1,1777057748656,-1727,655,9820,20769,-57421,15882,0,0,0,356,319,303,373,198,377,537,359,323,385,365,316,0,,,,,
2,1777057748656,2861,-416,14816,-3209485,1241278,1554041,0,0,0,254,389,234,292,311,312,322,300,242,157,168,196,0,,,,,
1,1777057748672,-1713,646,9801,26878,-39095,21991,0,0,0,364,318,314,369,195,371,520,351,311,385,364,312,0,,,,,
2,1777057748672,2794,-1359,14548,-3005456,1193630,1342681,0,0,0,255,390,234,292,309,311,323,301,243,156,168,194,0,,,,,
1,1777057748688,-1694,641,9796,32986,-30543,26878,0,0,0,358,316,311,367,193,367,518,349,308,385,363,319,0,,,,,
2,1777057748688,2526,-2148,14151,-2724458,1093448,957836,0,0,0,254,387,232,292,306,312,326,301,243,165,171,194,0,,,,,
1,1777057748704,-1675,646,9825,43982,-32986,31764,0,0,0,360,316,315,352,186,358,507,346,309,374,357,325,0,,,,,
2,1777057748704,1832,-2751,13500,-2459343,952949,549778,0,0,0,257,387,235,293,304,314,326,300,248,162,171,198,0,,,,,
1,1777057748720,-1675,650,9849,59864,-34208,35430,0,0,0,354,316,308,355,186,362,508,348,313,363,354,325,0,,,,,
2,1777057748720,885,-3412,12677,-2158797,794124,195476,0,0,0,259,389,238,294,303,317,328,301,252,160,170,201,0,,,,,
1,1777057748736,-1698,646,9849,86742,-29321,37873,0,0,0,363,322,310,365,195,370,507,343,317,366,350,333,0,,,,,
2,1777057748736,138,-4115,11974,-1871691,640186,6108,0,0,0,257,388,240,293,302,321,328,300,259,162,170,205,0,,,,,
1,1777057748752,-1713,646,9863,119729,-24434,42760,0,0,0,357,329,296,377,207,379,518,346,324,372,344,349,0,,,,,
2,1777057748752,-167,-4958,11261,-1574810,467922,-62308,0,0,0,251,387,242,291,301,327,328,298,271,161,171,211,0,,,,,
1,1777057748768,-1713,641,9897,160046,-25656,50090,0,0,0,343,317,305,375,201,393,513,350,326,359,333,360,0,,,,,
2,1777057748768,-215,-5757,10485,-1226617,320093,-103847,0,0,0,248,389,245,289,301,330,329,299,278,159,169,213,0,,,,,
1,1777057748784,-1675,607,9897,199142,-41538,57421,0,0,0,361,314,297,387,207,401,505,325,324,358,321,391,0,,,,,
2,1777057748784,-114,-6039,9863,-768468,226020,-157603,0,0,0,250,390,248,288,300,329,327,298,278,159,168,214,0,,,,,
1,1777057748800,-1641,574,9911,240680,-69638,64751,0,0,0,352,320,290,394,216,408,512,300,325,354,305,414,0,,,,,
2,1777057748800,-43,-5742,9528,-312763,153938,-200363,0,0,0,249,390,247,289,301,330,325,298,275,166,171,213,0,,,,,
1,1777057748816,-1646,545,9949,289550,-109955,70860,0,0,0,329,323,288,390,222,411,516,288,329,343,287,419,0,,,,,
2,1777057748816,76,-4848,9423,120951,63529,-183259,0,0,0,250,387,244,292,301,330,329,299,276,179,174,213,0,,,,,
1,1777057748832,-1698,502,10026,339641,-144164,78190,0,0,0,330,322,280,391,231,403,496,269,336,328,259,415,0,,,,,
2,1777057748832,531,-3967,9303,426383,-46425,-91629,0,0,0,261,390,247,292,297,328,328,297,272,164,171,212,0,,,,,
1,1777057748848,-1804,454,10069,382401,-146607,89186,0,0,0,331,320,277,393,234,399,479,236,340,308,222,405,0,,,,,
2,1777057748848,1086,-3244,9121,726929,-117286,10995,0,0,0,259,388,245,294,299,327,327,298,268,163,171,210,0,,,,,
1,1777057748864,-1866,392,10078,428827,-112399,108734,0,0,0,341,321,269,399,229,402,478,208,338,306,200,416,0,,,,,
2,1777057748864,1363,-2699,9054,1014036,-119729,129503,0,0,0,261,388,245,297,300,327,328,300,266,164,170,208,0,,,,,
1,1777057748880,-1899,320,10136,488692,-84299,131946,0,0,0,357,334,285,393,218,413,469,196,351,303,189,453,0,,,,,
2,1777057748880,1354,-2345,9150,1268156,-105068,305432,0,0,0,254,391,240,288,303,313,326,309,243,157,176,193,0,,,,,
1,1777057748896,-1928,258,10256,579100,-85521,168598,0,0,0,352,329,280,396,235,413,453,185,342,306,183,442,0,,,,,
2,1777057748896,1196,114,10122,1488067,-173485,531452,0,0,0,234,379,222,279,300,305,326,330,236,197,223,196,0,,,,,
1,1777057748912,-1852,186,10409,693942,-78190,206472,0,0,0,346,329,261,396,224,429,438,176,358,305,181,459,0,,,,,
2,1777057748912,1675,8628,10854,1632231,-660956,875980,0,0,0,225,378,228,274,304,314,337,356,248,185,233,201,0,,,,,
1,1777057748928,-1756,95,10562,789237,-73303,228463,0,0,0,358,344,236,421,245,420,460,167,351,317,179,472,0,,,,,
2,1777057748928,1273,10026,8839,1877799,-1324355,973719,0,0,0,227,372,230,277,300,317,350,378,251,181,241,198,0,,,,,
1,1777057748944,-1794,14,10844,888198,-96516,240680,0,0,0,356,353,225,422,252,426,427,163,346,294,163,471,0,,,,,
2,1777057748944,-631,3957,9112,2452013,-1495398,574213,0,0,0,233,367,228,280,298,319,354,393,252,184,249,197,0,,,,,
1,1777057748960,-2115,-62,11136,1054353,-98960,279776,0,0,0,381,343,213,419,257,421,397,160,344,290,159,476,0,,,,,
2,1777057748960,-976,928,11820,2574186,-1078788,19547,0,0,0,231,362,226,277,292,319,352,392,253,214,285,199,0,,,,,
1,1777057748976,-2230,-148,11299,1254717,-69638,349414,0,0,0,371,359,216,406,270,441,379,174,346,279,167,494,0,,,,,
2,1777057748976,617,1225,12768,2388483,-747699,-379958,0,0,0,229,361,228,276,290,319,358,397,255,219,296,201,0,,,,,
1,1777057748992,-2077,-253,11462,1466076,-54977,417831,0,0,0,369,370,222,399,273,460,351,181,366,257,164,507,0,,,,,
2,1777057748992,2895,2177,11983,2173458,-548556,-409279,0,0,0,233,368,235,282,296,321,374,415,255,189,261,203,0,,,,,
1,1777057749008,-2014,-402,11706,1673770,-53756,460592,0,0,0,371,364,227,396,279,464,324,180,382,242,160,510,0,,,,,
2,1777057749008,2943,1617,12132,2012190,-400727,-166155,0,0,0,232,376,241,284,300,320,386,415,248,208,264,201,0,,,,,
1,1777057749024,-2057,-536,12084,1941329,-37873,494800,0,0,0,368,364,232,388,294,456,303,184,384,236,169,509,0,,,,,
2,1777057749024,2100,933,12543,1620014,-342084,32986,0,0,0,239,383,252,284,296,314,377,405,246,230,275,195,0,,,,,
1,1777057749040,-2129,-660,12605,2293188,-29321,543670,0,0,0,377,371,231,377,309,442,275,185,381,232,176,504,0,,,,,
2,1777057749040,1770,923,11624,1105666,-349414,39095,0,0,0,245,385,253,287,295,308,344,381,250,232,280,192,0,,,,,
1,1777057749056,-2316,-827,13108,2608394,-32986,594982,0,0,0,377,368,225,369,325,436,243,182,368,222,171,492,0,,,,,
2,1777057749056,1871,1081,10342,764803,-315206,29321,0,0,0,267,387,265,304,302,327,413,424,257,279,348,215,0,,,,,
1,1777057749072,-2680,-1105,13701,2966361,-15882,668286,0,0,0,384,370,210,353,302,422,225,156,366,204,144,463,0,,,,,
2,1777057749072,1885,856,9911,533896,-270002,46425,0,0,0,288,393,274,323,304,334,432,429,247,221,272,228,0,,,,,
1,1777057749088,-3225,-1363,14515,3373197,34208,780685,0,0,0,361,391,215,350,300,424,225,163,371,189,140,433,0,,,,,
2,1777057749088,1799,564,10122,207694,-241902,57421,0,0,0,300,398,292,326,303,340,441,436,258,221,274,241,0,,,,,
1,1777057749104,-4020,-1478,15458,3789807,92851,937067,0,0,0,361,362,207,328,278,423,206,174,349,170,136,395,0,,,,,
2,1777057749104,1698,689,10189,-70860,-216246,43982,0,0,0,309,403,289,333,307,345,446,441,259,224,273,243,0,,,,,
1,1777057749120,-4800,-1651,16243,4203974,146607,1139874,0,0,0,355,335,204,334,262,382,220,171,323,173,136,356,0,,,,,
2,1777057749120,1655,1028,10112,-169820,-169820,25656,0,0,0,321,412,292,335,307,346,448,451,265,227,291,248,0,,,,,
1,1777057749136,-5010,-1981,16889,4581489,228463,1361007,0,0,0,314,326,215,303,236,404,218,160,320,156,129,336,0,,,,,
2,1777057749136,1698,1215,10040,-130725,-98960,12217,0,0,0,324,417,293,336,310,346,449,455,264,232,306,251,0,,,,,
1,1777057749152,-4321,-1909,17272,4937012,353080,1566258,0,0,0,300,299,225,299,196,362,279,150,309,177,147,284,0,,,,,
2,1777057749152,1761,1292,9987,-65973,-50090,6108,0,0,0,326,421,298,338,314,351,450,453,263,233,301,254,0,,,,,
1,1777057749168,-3618,-1536,17080,5182580,505796,1679879,0,0,0,278,281,211,284,180,311,288,174,265,189,179,221,0,,,,,
2,1777057749168,1746,1330,9925,4886,-29321,0,0,0,0,334,425,298,341,316,352,454,455,266,233,293,261,0,,,,,
1,1777057749184,-4355,-1617,15989,5371948,649960,1727526,0,0,0,256,277,194,257,167,267,290,206,229,192,205,162,0,,,,,
2,1777057749184,1751,1306,9887,62308,-9773,0,0,0,0,341,428,298,342,316,349,455,458,271,232,293,266,0,,,,,
1,1777057749200,-5824,-1119,13400,5461135,662177,1843591,0,0,0,251,261,203,246,145,254,307,220,224,196,219,135,0,,,,,
2,1777057749200,1832,1229,9849,80634,-15882,-1221,0,0,0,343,430,302,342,321,352,454,458,276,230,295,272,0,,,,,
1,1777057749216,-6604,1383,10753,5331631,505796,2069611,0,0,0,255,242,217,249,129,261,312,219,229,200,224,138,0,,,,,
2,1777057749216,1880,1196,9825,83077,-51312,-2443,0,0,0,345,429,299,347,327,360,461,461,277,235,299,284,0,,,,,
1,1777057749232,-6676,7561,9183,4417777,305432,1890017,0,0,0,259,249,207,247,131,250,313,213,228,209,227,137,0,,,,,
2,1777057749232,1871,1234,9863,89186,-100181,-8552,0,0,0,352,430,296,347,326,360,458,460,275,235,297,292,0,,,,,
1,1777057749248,-5202,14223,9289,1707979,290771,560774,0,0,0,264,251,202,253,139,249,324,209,226,230,237,135,0,,,,,
2,1777057749248,1823,1273,9925,124616,-124616,-18325,0,0,0,355,429,294,351,331,364,460,454,282,237,287,294,0,,,,,
1,1777057749264,-4757,12385,9183,-1161865,799011,-1169196,0,0,0,266,251,196,262,149,247,321,209,219,230,244,133,0,,,,,
2,1777057749264,1765,1277,9964,175929,-127059,-29321,0,0,0,366,436,302,357,331,365,469,450,282,253,284,307,0,,,,,
1,1777057749280,-6819,6910,7403,-2734232,1073901,-2043955,0,0,0,264,256,203,256,142,249,323,210,222,232,251,139,0,,,,,
2,1777057749280,1718,1225,9930,223576,-101403,-39095,0,0,0,373,433,298,361,332,366,469,434,281,253,264,310,0,,,,,
1,1777057749296,-7915,4048,5805,-2642603,388510,-1353677,0,0,0,259,257,200,251,147,251,319,220,225,220,251,136,0,,,,,
2,1777057749296,1732,1153,9868,245567,-68416,-45204,0,0,0,373,433,298,364,334,375,470,428,289,253,255,318,0,,,,,
1,1777057749312,-5833,3933,5972,-2673146,-240680,-543670,0,0,0,254,256,215,249,148,261,316,225,235,218,258,141,0,,,,,
2,1777057749312,1785,1100,9839,257785,-56199,-48869,0,0,0,376,434,298,367,337,382,469,418,287,251,244,324,0,,,,,
1,1777057749328,-2914,4771,7288,-3194825,-102625,-277332,0,0,0,253,259,222,245,147,260,307,222,231,212,260,143,0,,,,,
2,1777057749328,1804,1081,9844,267558,-79412,-53756,0,0,0,378,438,297,372,337,387,461,398,278,247,227,327,0,,,,,
1,1777057749344,-3283,4565,8054,-3852116,291993,-493579,0,0,0,253,261,222,245,150,259,306,225,230,211,266,142,0,,,,,
2,1777057749344,1794,1072,9863,278554,-108734,-58643,0,0,0,380,441,298,377,339,393,458,387,276,246,219,336,0,,,,,
1,1777057749360,-4340,3924,8638,-4326147,175929,-654847,0,0,0,250,257,218,247,150,259,307,223,231,212,269,142,0,,,,,
2,1777057749360,1751,1024,9863,294437,-128281,-62308,0,0,0,382,444,299,383,343,400,457,380,281,250,217,342,0,,,,,
1,1777057749376,-4197,3235,9629,-4575380,-333532,-730594,0,0,0,251,256,218,248,146,258,310,216,233,216,256,142,0,,,,,
2,1777057749376,1708,947,9839,296880,-119729,-62308,0,0,0,382,442,297,387,345,406,450,363,283,287,247,346,0,,,,,
1,1777057749392,-3728,2603,10734,-4770857,-664621,-823446,0,0,0,251,257,218,249,148,258,312,214,232,218,248,144,0,,,,,
2,1777057749392,1675,885,9825,293215,-98960,-59864,0,0,0,387,444,295,391,348,411,446,350,286,301,254,353,0,,,,,
1,1777057749408,-3560,1770,11978,-4979773,-845437,-882089,0,0,0,251,257,216,252,150,259,312,214,230,218,247,145,0,,,,,
2,1777057749408,1689,861,9849,290771,-76969,-58643,0,0,0,400,453,298,401,365,415,451,352,294,247,196,363,0,,,,,
1,1777057749424,-3579,904,13304,-5106833,-1009149,-817337,0,0,0,255,254,217,255,145,259,316,211,230,219,244,143,0,,,,,
2,1777057749424,1722,847,9892,296880,-61086,-58643,0,0,0,403,448,300,407,389,412,450,344,294,250,196,375,0,,,,,
1,1777057749440,-3546,205,14702,-5143485,-1213178,-724486,0,0,0,257,255,213,254,144,255,319,214,230,222,246,140,0,,,,,
2,1777057749440,1746,813,9940,313984,-53756,-63529,0,0,0,409,453,308,400,354,419,445,331,299,249,184,384,0,,,,,
1,1777057749456,-3345,-425,16042,-5117828,-1387885,-708603,0,0,0,260,258,207,258,147,251,318,208,221,222,242,132,0,,,,,
2,1777057749456,1737,756,9944,333532,-50090,-68416,0,0,0,408,454,300,407,362,427,444,323,300,253,185,398,0,,,,,
1,1777057749472,-3115,-1162,17176,-5083620,-1466076,-838107,0,0,0,257,254,207,255,146,253,306,207,222,221,254,136,0,,,,,
2,1777057749472,1727,684,9940,354301,-50090,-73303,0,0,0,409,456,306,407,368,440,438,313,307,242,181,408,0,,,,,
1,1777057749488,-3086,-2000,18085,-5015203,-1456302,-1193630,0,0,0,260,256,212,256,145,257,312,213,227,221,258,139,0,,,,,
2,1777057749488,1727,646,9949,365297,-48869,-76969,0,0,0,409,456,314,408,374,448,429,299,316,253,191,432,0,,,,,
1,1777057749504,-3287,-2981,18975,-4866152,-1501506,-1739744,0,0,0,262,253,211,262,145,261,312,212,227,221,244,139,0,,,,,
2,1777057749504,1775,598,9983,376292,-43982,-81855,0,0,0,413,461,308,410,375,445,429,292,316,245,173,429,0,,,,,
1,1777057749520,-3359,-4694,19990,-4667010,-1598023,-2299296,0,0,0,258,254,213,258,145,259,314,217,233,218,245,139,0,,,,,
2,1777057749520,1823,555,10035,397062,-41538,-91629,0,0,0,416,467,307,412,375,442,418,278,313,248,171,433,0,,,,,
1,1777057749536,-2962,-7374,20641,-4505742,-1610240,-2522873,0,0,0,260,258,214,257,145,259,317,219,234,222,246,139,0,,,,,
2,1777057749536,1861,483,10088,436157,-48869,-107512,0,0,0,421,469,310,412,374,445,413,269,320,251,173,445,0,,,,,
1,1777057749552,-2234,-10624,20569,-4397007,-1470963,-2425134,0,0,0,262,257,218,259,148,263,315,213,234,223,243,140,0,,,,,
2,1777057749552,1899,411,10174,491135,-70860,-130725,0,0,0,422,468,307,414,381,451,403,257,320,253,173,459,0,,,,,
1,1777057749568,-2019,-14970,19009,-4196644,-1080009,-1897347,0,0,0,260,255,217,260,147,264,316,211,235,226,242,141,0,,,,,
2,1777057749568,1923,358,10246,579100,-112399,-160046,0,0,0,425,469,307,414,387,456,395,247,321,254,172,465,0,,,,,
1,1777057749584,-2498,-18731,16664,-3772703,-772133,-1142317,0,0,0,260,255,216,260,147,264,316,209,234,230,243,142,0,,,,,
2,1777057749584,1947,311,10342,670730,-142942,-188146,0,0,0,430,477,310,409,394,458,390,242,330,254,171,473,0,,,,,
1,1777057749600,-1986,-21086,14132,-2972470,-741590,-190589,0,0,0,262,256,216,262,149,264,318,211,233,231,245,141,0,,,,,
2,1777057749600,1890,248,10624,785572,-147829,-216246,0,0,0,434,486,304,413,400,455,386,239,337,256,172,485,0,,,,,
1,1777057749616,1789,-21603,12715,-1924225,-799011,472809,0,0,0,259,259,218,262,150,266,320,215,234,230,243,139,0,,,,,
2,1777057749616,1775,167,11002,944397,-124616,-235793,0,0,0,437,490,291,426,396,460,376,232,334,264,172,495,0,,,,,
1,1777057749632,6015,-21440,12141,-918741,-498466,641408,0,0,0,251,260,215,261,153,263,331,222,231,238,247,134,0,,,,,
2,1777057749632,1794,62,11265,1133765,-105068,-250454,0,0,0,438,496,285,423,400,465,348,225,326,254,166,507,0,,,,,
1,1777057749648,7092,-20713,11945,-84299,278554,381179,0,0,0,236,269,197,265,165,254,360,256,219,261,283,119,0,,,,,
2,1777057749648,1938,-43,11462,1347568,-117286,-270002,0,0,0,442,493,285,409,397,458,332,220,324,257,175,506,0,,,,,
1,1777057749664,4254,-19291,12845,906524,1359786,328645,0,0,0,216,288,179,248,173,242,354,329,214,261,341,113,0,,,,,
2,1777057749664,1957,-148,11849,1583362,-167377,-289550,0,0,0,435,509,262,403,409,465,319,236,327,248,175,512,0,,,,,
1,1777057749680,-110,-8628,12744,2365270,2505769,537561,0,0,0,220,250,174,247,152,231,396,369,207,280,365,97,0,,,,,
2,1777057749680,2010,-244,12390,1880243,-233350,-309097,0,0,0,437,506,247,410,407,475,286,222,310,239,167,509,0,,,,,
1,1777057749696,-2665,4163,12754,3119077,2526538,524122,0,0,0,223,253,171,252,151,226,444,425,198,314,393,89,0,,,,,
2,1777057749696,2268,-368,12806,2193006,-311541,-343306,0,0,0,437,492,247,406,407,449,277,222,310,248,172,517,0,,,,,
1,1777057749712,-1655,5632,14127,3270572,1837482,382401,0,0,0,226,255,185,257,157,239,443,449,202,319,411,99,0,,,,,
2,1777057749712,2593,-492,13180,2538755,-404392,-404392,0,0,0,445,492,255,389,408,441,257,221,313,244,173,512,0,,,,,
1,1777057749728,-536,995,16482,2984687,1169196,427605,0,0,0,231,256,190,264,160,255,445,453,219,332,415,109,0,,,,,
2,1777057749728,2847,-631,13687,2949257,-507018,-507018,0,0,0,455,493,257,382,410,442,240,214,316,234,168,503,0,,,,,
1,1777057749744,-1483,-607,16870,2327396,849102,475253,0,0,0,233,263,201,265,162,255,454,455,208,334,416,109,0,,,,,
2,1777057749744,3096,-741,14615,3433062,-572991,-646295,0,0,0,447,487,255,374,407,435,234,207,322,227,165,494,0,,,,,
1,1777057749760,-2507,593,13965,1529606,658512,276111,0,0,0,237,271,198,265,164,247,457,457,213,347,417,108,0,,,,,
2,1777057749760,3421,-909,15884,3966958,-613308,-805120,0,0,0,441,475,247,375,406,432,229,193,318,226,160,464,0,,,,,
1,1777057749776,-2029,1962,10050,1032362,434936,12217,0,0,0,240,276,216,268,167,261,464,462,223,367,425,113,0,,,,,
2,1777057749776,3747,-1253,17721,4634023,-660956,-999375,0,0,0,423,463,244,372,402,424,227,181,308,218,153,423,0,,,,,
1,1777057749792,-1426,1608,8691,799011,316428,-75747,0,0,0,250,283,215,287,172,262,476,474,224,387,432,114,0,,,,,
2,1777057749792,4364,-1378,19037,5154480,-680503,-1142317,0,0,0,384,450,240,357,399,408,227,183,297,204,150,379,0,,,,,
1,1777057749808,-1301,440,9964,447153,267558,-105068,0,0,0,269,291,224,300,172,271,480,475,229,404,438,119,0,,,,,
2,1777057749808,5159,-1344,19602,5657833,-591317,-1347568,0,0,0,339,432,229,337,387,388,239,198,283,191,150,341,0,,,,,
1,1777057749824,-1253,622,10959,-20769,167377,-101403,0,0,0,298,293,235,310,168,285,484,478,237,418,445,124,0,,,,,
2,1777057749824,4642,-1119,19636,5987701,-425162,-1567480,0,0,0,303,411,217,318,357,360,258,220,263,176,144,305,0,,,,,
1,1777057749840,-1244,1368,10543,-167377,61086,-75747,0,0,0,316,288,226,323,168,283,499,498,237,423,453,125,0,,,,,
2,1777057749840,4082,-516,19171,6241821,-207694,-1771509,0,0,0,263,390,215,292,323,327,269,247,242,150,137,250,0,,,,,
1,1777057749856,-1368,1636,9987,-116064,-25656,-50090,0,0,0,304,291,239,325,171,295,509,509,243,420,464,137,0,,,,,
2,1777057749856,4493,-397,17099,6287025,-109955,-1955990,0,0,0,230,374,224,268,298,308,278,276,240,124,138,191,0,,,,,
1,1777057749872,-1521,1612,9935,-41538,-64751,-35430,0,0,0,304,292,252,326,174,316,499,498,261,428,461,157,0,,,,,
2,1777057749872,5719,799,12132,5726250,-390953,-2172236,0,0,0,245,383,227,276,305,313,259,270,246,125,137,194,0,,,,,
1,1777057749888,-1560,1670,10093,41538,-78190,-19547,0,0,0,309,299,242,332,179,314,506,505,266,424,464,166,0,,,,,
2,1777057749888,6752,6905,8791,4130670,-625526,-2212553,0,0,0,244,381,227,277,304,314,286,272,240,135,141,199,0,,,,,
1,1777057749904,-1512,1718,9997,178372,-111177,4886,0,0,0,306,309,244,333,203,313,515,515,275,425,471,182,0,,,,,
2,1777057749904,5010,13285,10050,823446,-745255,-1507615,0,0,0,249,382,226,275,304,306,288,275,234,135,141,193,0,,,,,
1,1777057749920,-1521,1569,9834,288328,-149051,26878,0,0,0,322,296,249,339,178,329,511,507,279,425,469,189,0,,,,,
2,1777057749920,3843,12380,10246,-1962099,-1265712,-563217,0,0,0,247,383,224,273,299,304,285,271,229,134,141,193,0,,,,,
1,1777057749936,-1593,1416,9782,296880,-157603,36651,0,0,0,330,285,260,348,180,350,506,503,289,417,468,211,0,,,,,
2,1777057749936,5546,6527,7260,-3116634,-1706757,37873,0,0,0,247,384,223,274,303,306,287,276,232,133,143,194,0,,,,,
1,1777057749952,-1631,1344,9810,274889,-152716,45204,0,0,0,319,285,264,354,171,344,515,503,280,426,481,225,0,,,,,
2,1777057749952,6733,4268,5163,-3104417,-1075122,-57421,0,0,0,240,385,222,272,305,307,285,278,229,133,147,198,0,,,,,
1,1777057749968,-1627,1325,9820,243124,-147829,51312,0,0,0,314,288,257,354,176,344,518,491,278,416,478,234,0,,,,,
2,1777057749968,5331,4694,5939,-3375641,-315206,-131946,0,0,0,240,386,222,273,304,307,289,281,231,134,146,197,0,,,,,
1,1777057749984,-1641,1311,9772,210137,-146607,54977,0,0,0,319,294,256,369,181,347,513,488,280,412,470,232,0,,,,,
2,1777057749984,4096,5183,7681,-3981619,-263893,130725,0,0,0,237,388,226,275,306,309,290,284,233,132,145,193,0,,,,,
1,1777057750000,-1665,1311,9734,182037,-138055,61086,0,0,0,333,289,259,365,179,350,513,488,291,405,468,233,0,,,,,
2,1777057750000,5661,4364,7877,-4470311,-290771,488692,0,0,0,234,390,226,273,307,308,288,285,231,130,147,193,0,,,,,
1,1777057750016,-1665,1306,9724,168598,-128281,70860,0,0,0,327,288,262,357,180,352,511,474,296,400,468,236,0,,,,,
2,1777057750016,6953,3541,7858,-4713436,175929,670730,0,0,0,237,390,223,271,308,306,286,288,229,131,151,193,0,,,,,
1,1777057750032,-1631,1287,9724,162490,-128281,76969,0,0,0,316,293,259,350,199,345,506,451,294,406,465,236,0,,,,,
2,1777057750032,6527,3010,8585,-4781853,945619,773355,0,0,0,240,392,224,273,313,306,288,295,230,132,155,191,0,,,,,
1,1777057750048,-1646,1258,9719,153938,-136833,76969,0,0,0,320,294,249,354,207,340,505,435,296,413,456,234,0,,,,,
2,1777057750048,5273,2622,9968,-4803844,1378111,960280,0,0,0,239,391,226,276,314,307,294,294,232,135,152,190,0,,,,,
1,1777057750064,-1713,1239,9686,145385,-128281,74525,0,0,0,322,291,242,375,180,348,507,424,301,416,443,240,0,,,,,
2,1777057750064,4623,2268,11409,-4862487,1600466,1150870,0,0,0,241,391,228,279,306,307,297,283,229,136,142,190,0,,,,,
1,1777057750080,-1770,1220,9629,134390,-94073,69638,0,0,0,318,292,242,363,177,345,512,408,303,414,435,251,0,,,,,
2,1777057750080,4072,2134,12969,-4972443,1781283,1252273,0,0,0,240,391,229,277,306,309,293,283,231,134,145,192,0,,,,,
1,1777057750096,-1737,1206,9609,119729,-54977,63529,0,0,0,314,288,243,352,174,349,514,402,307,408,422,246,0,,,,,
2,1777057750096,3259,2139,14472,-5111720,1948660,1226617,0,0,0,235,394,230,275,307,310,293,284,233,133,146,192,0,,,,,
1,1777057750112,-1670,1206,9633,105068,-31764,54977,0,0,0,312,291,240,352,181,352,522,406,304,402,421,266,0,,,,,
2,1777057750112,2239,2220,16099,-5268101,2109928,1128878,0,0,0,234,393,228,277,308,311,296,283,235,135,147,194,0,,,,,
1,1777057750128,-1636,1201,9681,97738,-35430,46425,0,0,0,312,291,240,354,176,353,522,384,299,408,418,270,0,,,,,
2,1777057750128,1009,2474,17889,-5453804,2230879,1025031,0,0,0,234,393,229,274,304,309,296,283,235,135,146,194,0,,,,,
1,1777057750144,-1675,1182,9681,97738,-42760,40317,0,0,0,318,291,254,363,176,369,514,383,316,401,416,273,0,,,,,
2,1777057750144,-282,2603,19578,-5633399,2195449,985936,0,0,0,232,392,230,278,309,313,296,284,236,130,142,192,0,,,,,
1,1777057750160,-1722,1162,9672,96516,-36651,45204,0,0,0,310,292,247,358,189,373,524,379,315,393,402,272,0,,,,,
2,1777057750160,-995,2134,21019,-5695707,1973094,1012814,0,0,0,233,393,230,260,339,306,301,287,238,131,145,193,0,,,,,
1,1777057750176,-1742,1153,9672,100181,-18325,54977,0,0,0,310,304,259,357,225,377,519,374,317,389,402,290,0,,,,,
2,1777057750176,-1239,1301,22321,-5656612,1739744,1037249,0,0,0,227,390,227,274,320,314,301,291,238,131,147,194,0,,,,,
1,1777057750192,-1751,1143,9705,116064,-1221,68416,0,0,0,305,310,249,357,235,371,515,372,316,390,407,310,0,,,,,
2,1777057750192,-1220,-583,23661,-5572312,1510058,1018923,0,0,0,229,393,230,278,310,314,299,288,237,131,144,192,0,,,,,
1,1777057750208,-1727,1134,9753,145385,0,85521,0,0,0,306,309,265,355,224,384,516,353,326,383,397,335,0,,,,,
2,1777057750208,-1383,-3656,24426,-5461135,1317025,896750,0,0,0,230,393,230,278,308,315,300,286,238,131,142,193,0,,,,,
1,1777057750224,-1727,1143,9796,189368,0,103847,0,0,0,319,307,288,370,223,397,516,334,339,378,382,347,0,,,,,
2,1777057750224,-1636,-8571,24015,-5170363,1051909,605978,0,0,0,228,392,227,281,308,316,299,285,240,131,143,193,0,,,,,
1,1777057750240,-1775,1162,9877,267558,-2443,123394,0,0,0,327,301,272,393,224,392,520,319,332,375,355,341,0,,,,,
2,1777057750240,296,-15027,21325,-4520402,623082,46425,0,0,0,228,392,226,283,309,315,300,286,241,132,143,193,0,,,,,
1,1777057750256,-1818,1153,10016,361632,0,139277,0,0,0,323,300,239,393,211,385,522,293,317,364,313,344,0,,,,,
2,1777057750256,1617,-19961,17712,-3606548,537561,-729373,0,0,0,230,394,226,284,311,315,305,288,243,134,145,195,0,,,,,
1,1777057750272,-1828,1124,10160,458148,4886,155159,0,0,0,328,318,257,381,224,389,503,263,339,352,287,374,0,,,,,
2,1777057750272,-1933,-21804,15084,-2421469,862541,-1474628,0,0,0,231,394,228,286,312,316,305,288,244,135,147,196,0,,,,,
1,1777057750288,-1809,1072,10313,590095,-12217,171042,0,0,0,326,324,267,380,239,422,506,219,354,341,248,420,0,,,,,
2,1777057750288,-7298,-21741,14539,-1286482,673173,-1406211,0,0,0,233,393,230,286,312,316,305,290,245,135,148,196,0,,,,,
1,1777057750304,-1837,990,10480,741590,-64751,189368,0,0,0,340,334,285,407,233,453,480,178,346,329,206,447,0,,,,,
2,1777057750304,-8049,-21875,13859,-202807,1221,-853989,0,0,0,232,392,228,286,312,316,303,289,242,136,148,196,0,,,,,
1,1777057750320,-2024,885,10796,913854,-142942,224798,0,0,0,360,337,242,413,261,469,447,177,353,315,187,468,0,,,,,
2,1777057750320,-4651,-20856,13093,616973,-465479,-529009,0,0,0,234,394,230,286,313,318,304,288,241,145,154,195,0,,,,,
1,1777057750336,-2110,780,11476,1163087,-167377,295658,0,0,0,378,337,228,421,255,449,442,166,346,304,169,478,0,,,,,
2,1777057750336,-2239,-18071,12849,1392772,-701273,-456927,0,0,0,234,392,231,287,313,319,309,293,245,219,186,194,0,,,,,
1,1777057750352,-2024,655,12199,1456302,-178372,367740,0,0,0,399,368,213,419,340,456,420,170,368,293,177,491,0,,,,,
2,1777057750352,-1641,-13749,13175,2059837,-805120,-377514,0,0,0,234,394,234,285,310,316,304,289,245,139,151,196,0,,,,,
1,1777057750368,-1919,497,12773,1816713,-251676,437379,0,0,0,399,393,209,423,315,461,380,164,366,272,160,520,0,,,,,
2,1777057750368,-995,-9437,13361,2461786,-878424,62308,0,0,0,222,390,233,284,318,321,317,327,239,139,182,179,0,,,,,
1,1777057750384,-2043,421,12998,2205223,-329867,502131,0,0,0,384,381,205,411,301,453,336,159,372,250,147,533,0,,,,,
2,1777057750384,2450,2392,13294,2608394,-905302,576656,0,0,0,215,382,211,279,317,308,338,380,227,161,227,175,0,,,,,
1,1777057750400,-2316,358,13122,2583959,-321315,572991,0,0,0,385,388,212,415,334,460,300,157,374,235,149,538,0,,,,,
2,1777057750400,7719,24790,10155,2249205,-1003040,821002,0,0,0,214,359,204,276,304,304,350,421,226,204,327,172,0,,,,,
1,1777057750416,-2560,215,13524,3015230,-227241,668286,0,0,0,390,385,222,431,333,464,274,155,386,230,148,538,0,,,,,
2,1777057750416,5283,19076,5857,2717128,-1628566,612086,0,0,0,217,357,200,284,302,311,373,443,229,213,351,170,0,,,,,
1,1777057750432,-2938,90,14362,3474601,-135612,774577,0,0,0,394,381,219,420,316,455,242,162,389,210,141,515,0,,,,,
2,1777057750432,90,1761,10236,4199087,-1780061,351858,0,0,0,221,363,208,285,297,317,385,460,232,212,363,174,0,,,,,
1,1777057750448,-3785,-90,15544,3986506,-58643,938289,0,0,0,403,385,207,383,316,446,213,164,373,183,134,479,0,,,,,
2,1777057750448,-2828,-6010,19358,4605923,-1114218,64751,0,0,0,231,371,231,286,294,318,403,471,235,211,378,179,0,,,,,
1,1777057750464,-4637,-349,17396,4620584,42760,1185078,0,0,0,395,363,205,364,293,437,212,150,368,179,123,456,0,,,,,
2,1777057750464,153,-19,20095,3511253,-626747,-294437,0,0,0,244,379,254,294,294,320,423,481,239,229,396,189,0,,,,,
1,1777057750480,-5407,-421,19483,5171585,151494,1402546,0,0,0,364,345,207,356,288,418,209,161,350,169,118,413,0,,,,,
2,1777057750480,2809,1430,16233,2350609,-348193,-217468,0,0,0,258,383,266,306,295,328,432,490,244,256,408,208,0,,,,,
1,1777057750496,-6724,-440,21339,5788559,334754,1688431,0,0,0,320,332,208,338,289,370,182,151,318,163,119,325,0,,,,,
2,1777057750496,2828,-210,12677,1303586,-167377,46425,0,0,0,275,390,274,318,298,337,443,487,252,266,405,224,0,,,,,
1,1777057750512,-7379,-382,22541,6293133,604756,1999972,0,0,0,290,308,210,305,220,356,192,149,280,147,119,273,0,,,,,
2,1777057750512,1809,-440,10466,504574,-74525,162490,0,0,0,294,400,278,324,300,340,448,483,258,285,416,235,0,,,,,
1,1777057750528,-6848,737,23373,6735400,831998,2262644,0,0,0,245,289,199,264,211,304,251,171,253,185,181,211,0,,,,,
2,1777057750528,1761,626,9906,255341,-116064,92851,0,0,0,307,412,283,329,314,350,458,491,269,239,356,259,0,,,,,
1,1777057750544,-7150,1732,22713,7165449,1182635,2411695,0,0,0,243,248,198,233,135,256,298,216,230,173,192,138,0,,,,,
2,1777057750544,1938,1019,10016,190589,-182037,31764,0,0,0,319,418,289,337,321,358,463,492,268,247,360,283,0,,,,,
1,1777057750560,-9365,3977,17894,7148345,1544267,2505769,0,0,0,244,251,209,235,142,255,294,229,229,177,241,135,0,,,,,
2,1777057750560,1895,947,10174,180816,-202807,1221,0,0,0,326,419,284,341,323,351,462,489,287,253,356,265,0,,,,,
1,1777057750576,-10983,9016,12289,6030461,1331686,2461786,0,0,0,244,257,212,238,141,259,295,214,231,182,230,143,0,,,,,
2,1777057750576,1770,981,10021,185703,-152716,-10995,0,0,0,327,416,287,345,328,360,464,485,272,256,353,280,0,,,,,
1,1777057750592,-8695,14290,10763,3466049,902858,1620014,0,0,0,266,254,206,259,139,257,300,203,228,188,217,140,0,,,,,
2,1777057750592,1737,1105,9987,218689,-105068,-19547,0,0,0,333,421,295,346,325,364,464,471,271,271,348,291,0,,,,,
1,1777057750608,-4206,15218,11146,-274889,1237612,-386066,0,0,0,277,256,195,265,143,251,305,206,223,195,219,135,0,,,,,
2,1777057750608,1732,1177,10112,291993,-54977,-26878,0,0,0,335,420,313,348,325,375,468,460,285,295,326,303,0,,,,,
1,1777057750624,-6125,8997,7997,-2230879,2097711,-1848478,0,0,0,264,261,199,251,146,254,303,216,228,194,224,139,0,,,,,
2,1777057750624,1756,1129,10083,392175,9773,-32986,0,0,0,344,421,299,355,330,378,469,446,288,274,291,319,0,,,,,
1,1777057750640,-9710,4259,4106,-2287079,1633453,-1646892,0,0,0,249,265,212,244,150,264,300,221,234,187,226,144,0,,,,,
2,1777057750640,1852,995,9930,464257,46425,-35430,0,0,0,351,425,291,361,334,390,470,426,291,261,275,334,0,,,,,
1,1777057750656,-7604,4369,3469,-2031737,348193,-654847,0,0,0,246,274,212,247,156,264,304,222,230,187,226,140,0,,,,,
2,1777057750656,1976,827,9786,466701,8552,-43982,0,0,0,359,432,297,361,334,394,466,410,294,253,263,345,0,,,,,
1,1777057750672,-4120,5589,4651,-2449569,116064,-405614,0,0,0,239,286,211,243,161,263,304,225,233,189,230,141,0,,,,,
2,1777057750672,2005,732,9753,441044,-53756,-59864,0,0,0,367,432,298,367,356,390,465,397,300,247,241,354,0,,,,,
1,1777057750688,-4072,5800,5833,-3310889,602313,-869872,0,0,0,237,293,209,242,163,259,306,225,230,188,231,141,0,,,,,
2,1777057750688,1938,703,9820,419053,-100181,-80634,0,0,0,375,432,296,376,361,399,465,377,302,247,224,358,0,,,,,
1,1777057750704,-5934,5168,6623,-4057366,574213,-1318247,0,0,0,232,294,209,240,167,259,304,231,236,187,233,142,0,,,,,
2,1777057750704,1890,674,9868,421497,-100181,-94073,0,0,0,383,437,295,380,340,410,460,357,303,248,212,364,0,,,,,
1,1777057750720,-6613,4197,7508,-4579045,50090,-1535715,0,0,0,240,280,222,242,159,265,300,227,234,183,229,142,0,,,,,
2,1777057750720,1880,622,9906,430049,-91629,-102625,0,0,0,388,439,294,386,343,405,459,345,309,249,194,378,0,,,,,
1,1777057750736,-6010,2627,8753,-5038416,-386066,-1678657,0,0,0,238,284,219,238,162,264,277,218,242,186,247,143,0,,,,,
2,1777057750736,1885,564,9964,448375,-91629,-108734,0,0,0,399,445,299,391,355,417,457,330,314,247,182,387,0,,,,,
1,1777057750752,-5685,1086,9916,-5324301,-581543,-1731192,0,0,0,235,285,218,241,166,264,296,233,237,194,250,143,0,,,,,
2,1777057750752,1876,507,9964,467922,-94073,-112399,0,0,0,400,443,296,391,352,427,446,315,317,241,178,394,0,,,,,
1,1777057750768,-5680,177,11098,-5461135,-728151,-1629788,0,0,0,240,284,215,247,165,264,310,232,234,210,247,139,0,,,,,
2,1777057750768,1842,406,9920,474031,-81855,-113620,0,0,0,405,442,293,396,366,423,448,292,319,255,192,407,0,,,,,
1,1777057750784,-5393,-358,12596,-5556430,-911410,-1353677,0,0,0,243,284,214,256,161,265,319,223,233,224,231,135,0,,,,,
2,1777057750784,1847,287,9882,465479,-57421,-114842,0,0,0,406,447,298,396,366,428,433,283,320,247,176,422,0,,,,,
1,1777057750800,-5111,-942,13941,-5595525,-1054353,-1058018,0,0,0,246,286,214,261,162,266,324,228,231,234,236,133,0,,,,,
2,1777057750800,1890,196,9882,448375,-40317,-119729,0,0,0,421,448,304,397,367,431,428,270,325,250,170,441,0,,,,,
1,1777057750816,-4680,-1378,15300,-5544212,-1215621,-864985,0,0,0,250,289,215,261,166,266,324,236,230,247,242,133,0,,,,,
2,1777057750816,1957,162,9968,454483,-47647,-134390,0,0,0,422,452,304,402,373,433,420,263,323,251,169,449,0,,,,,
1,1777057750832,-3981,-1536,16817,-5444031,-1404990,-906524,0,0,0,251,291,218,260,169,267,324,240,232,255,238,134,0,,,,,
2,1777057750832,2014,157,10145,509461,-86742,-157603,0,0,0,416,456,311,408,376,441,408,256,329,248,165,452,0,,,,,
1,1777057750848,-3326,-1675,18324,-5356066,-1550375,-1296256,0,0,0,252,290,220,261,170,267,327,243,235,256,240,134,0,,,,,
2,1777057750848,2024,110,10222,587652,-136833,-180816,0,0,0,419,460,301,412,385,441,405,247,331,255,168,460,0,,,,,
1,1777057750864,-3149,-2120,19832,-5320636,-1639562,-1853365,0,0,0,252,289,221,262,168,266,326,245,235,261,245,135,0,,,,,
2,1777057750864,1914,19,10212,664621,-127059,-205250,0,0,0,428,469,297,406,386,439,395,240,331,255,167,476,0,,,,,
1,1777057750880,-3536,-3536,21091,-5334075,-1689653,-2431243,0,0,0,246,292,220,256,168,268,325,242,236,258,240,133,0,,,,,
2,1777057750880,1852,-38,10356,746477,-80634,-221133,0,0,0,434,474,298,405,390,444,387,233,337,254,166,488,0,,,,,
1,1777057750896,-3742,-6307,21804,-5283984,-1701870,-2682920,0,0,0,254,291,220,266,168,265,330,240,233,264,236,130,0,,,,,
2,1777057750896,1861,-129,10619,871093,-28099,-237015,0,0,0,437,479,296,407,393,450,380,227,342,267,171,492,0,,,,,
1,1777057750912,-3412,-11462,22340,-5039638,-1565036,-2422691,0,0,0,254,291,218,265,166,267,332,231,238,262,226,132,0,,,,,
2,1777057750912,1847,-244,10753,1022588,3665,-252898,0,0,0,438,483,288,407,396,454,370,224,344,272,176,501,0,,,,,
1,1777057750928,-3441,-17544,21952,-4673119,-1259604,-1811826,0,0,0,249,293,219,265,171,267,331,239,236,256,237,129,0,,,,,
2,1777057750928,1828,-349,11122,1219287,45204,-265115,0,0,0,434,480,275,409,410,458,360,225,348,257,176,513,0,,,,,
1,1777057750944,-3943,-24144,19655,-4090353,-995710,-1038470,0,0,0,244,294,220,260,173,268,321,242,236,243,248,133,0,,,,,
2,1777057750944,1928,-392,11820,1478293,64751,-270002,0,0,0,436,482,263,410,420,461,343,225,349,255,176,522,0,,,,,
1,1777057750960,-3369,-28978,15721,-3101973,-1062905,-208915,0,0,0,243,289,219,261,163,269,325,219,240,246,234,133,0,,,,,
2,1777057750960,2053,-421,12400,1781283,56199,-282219,0,0,0,443,479,259,405,420,461,317,219,354,253,177,535,0,,,,,
1,1777057750976,1225,-30088,13385,-1808161,-1222952,566882,0,0,0,242,289,218,262,162,270,326,212,239,250,235,134,0,,,,,
2,1777057750976,2172,-540,12821,2169793,34208,-310319,0,0,0,439,478,245,407,426,460,293,216,346,250,178,534,0,,,,,
1,1777057750992,7145,-29164,12983,-621860,-902858,923628,0,0,0,240,290,218,261,161,269,329,211,240,252,233,136,0,,,,,
2,1777057750992,2426,-670,13299,2629163,7330,-361632,0,0,0,447,478,236,400,423,452,271,215,351,244,169,536,0,,,,,
1,1777057751008,7982,-26814,13237,357967,6108,522900,0,0,0,221,291,216,248,167,269,319,229,240,233,259,133,0,,,,,
2,1777057751008,2919,-741,13955,3114190,-31764,-444709,0,0,0,444,478,229,400,418,452,248,202,337,237,171,546,0,,,,,
1,1777057751024,4556,-22837,13165,1238834,698829,-65973,0,0,0,205,289,187,246,172,252,353,294,222,248,324,112,0,,,,,
2,1777057751024,3871,-871,14898,3710395,-106290,-626747,0,0,0,446,464,229,398,427,448,239,191,364,233,167,520,0,,,,,
1,1777057751040,-938,-9901,14099,1880243,1034805,-574213,0,0,0,211,273,139,260,162,221,432,389,195,315,390,80,0,,,,,
2,1777057751040,4618,-1110,16176,4373795,-162490,-894306,0,0,0,447,452,237,398,418,458,229,175,352,227,155,489,0,,,,,
1,1777057751056,-4747,14161,11146,2232101,2101376,-792903,0,0,0,219,249,127,261,151,219,462,458,193,372,435,75,0,,,,,
2,1777057751056,4532,-1421,18659,5145928,-127059,-1181413,0,0,0,433,453,238,396,407,456,229,167,348,212,144,440,0,,,,,
1,1777057751072,-1655,17018,9834,3371976,3221703,-526565,0,0,0,232,247,158,272,150,260,484,483,225,436,468,96,0,,,,,
2,1777057751072,4709,-1139,22158,5949827,84299,-1339016,0,0,0,393,433,228,388,394,435,227,160,332,192,135,387,0,,,,,
1,1777057751088,2981,2129,21119,5049412,2026850,158824,0,0,0,235,253,191,273,154,279,488,488,239,474,475,117,0,,,,,
2,1777057751088,5441,-722,25254,6643770,235793,-1457524,0,0,0,343,411,218,361,374,407,241,174,308,178,131,342,0,,,,,
1,1777057751104,1220,-4273,27193,4798957,357967,634078,0,0,0,250,263,203,285,178,312,484,484,262,474,473,134,0,,,,,
2,1777057751104,6613,-234,28312,7376808,164933,-1644449,0,0,0,296,397,212,323,350,368,258,208,273,165,135,299,0,,,,,
1,1777057751120,-3105,-1665,20588,2755002,-254119,399505,0,0,0,260,274,234,319,159,339,494,494,306,465,468,194,0,,,,,
2,1777057751120,8303,971,28140,7920478,217468,-1995085,0,0,0,254,380,218,287,314,328,271,242,247,137,131,232,0,,,,,
1,1777057751136,-2646,1038,11581,1282817,-189368,-62308,0,0,0,276,291,237,327,175,348,515,502,309,471,483,220,0,,x,,,
2,1777057751136,9619,2900,24771,8186815,522900,-2438574,0,0,0,235,367,226,271,289,311,280,265,242,117,125,185,0,,x,,,
1,1777057751152,-1746,957,8293,801455,-197920,-196698,0,0,0,297,288,256,336,173,364,508,493,324,479,486,270,0,,,,,
2,1777057751152,9987,7398,17094,7637037,511905,-3066543,0,0,0,243,370,225,279,295,317,282,274,241,125,132,194,0,,,,,
1,1777057751168,-2062,291,9571,676838,-101403,-75747,0,0,0,300,290,261,342,182,373,514,482,328,473,493,291,0,,,,,
2,1777057751168,8480,14950,11500,5160589,-75747,-3211929,0,0,0,245,375,226,274,293,311,285,272,236,121,128,187,0,,,,,
1,1777057751184,-2297,598,10313,493579,74525,15882,0,0,0,308,296,262,350,192,375,522,464,331,466,488,308,0,,,,,
2,1777057751184,4785,20813,10796,0,-789237,-1984090,0,0,0,244,380,223,270,293,307,285,276,235,128,132,187,0,,,,,
1,1777057751200,-1995,1177,10088,354301,197920,35430,0,0,0,312,296,272,358,200,382,525,443,322,464,471,321,0,,,,,
2,1777057751200,3450,14568,10978,-4006054,-1506393,-113620,0,0,0,250,381,228,274,293,306,289,276,233,130,135,187,0,,,,,
1,1777057751216,-1770,1177,9973,366519,138055,24434,0,0,0,318,310,277,360,203,384,524,423,323,459,445,333,0,,,,,
2,1777057751216,5049,6307,7997,-5149593,-2012190,789237,0,0,0,241,382,225,274,297,308,289,276,234,130,135,187,0,,,,,
1,1777057751232,-1722,1158,10265,415388,47647,39095,0,0,0,322,321,270,362,202,382,520,399,332,444,416,343,0,,,,,
2,1777057751232,7207,3058,4216,-4531398,-1761735,497244,0,0,0,233,383,223,268,295,306,289,281,235,128,138,189,0,,,,,
1,1777057751248,-1670,1158,10380,481361,-73303,58643,0,0,0,319,316,267,366,203,387,511,371,333,420,387,354,0,,,,,
2,1777057751248,6867,4422,3823,-4547280,-737925,-95294,0,0,0,242,383,231,272,297,311,289,280,237,127,134,187,0,,,,,
1,1777057751264,-1775,1038,10102,527787,-186924,69638,0,0,0,316,319,272,364,206,393,496,342,334,391,364,369,0,,,,,
2,1777057751264,4862,5623,5704,-5090950,61086,-392175,0,0,0,239,381,227,274,298,310,290,278,234,130,136,187,0,,,,,
1,1777057751280,-1990,808,9662,511905,-218689,78190,0,0,0,307,320,257,367,211,395,482,304,334,367,349,371,0,,,,,
2,1777057751280,3058,5269,7829,-5637064,272445,-312763,0,0,0,237,384,226,273,299,310,290,278,232,131,139,189,0,,,,,
1,1777057751296,-2033,641,9518,438601,-172263,90408,0,0,0,312,330,248,372,224,401,478,313,336,337,342,385,0,,,,,
2,1777057751296,2890,4168,8734,-5842315,337197,-109955,0,0,0,237,384,225,273,300,309,289,279,232,130,138,189,0,,,,,
1,1777057751312,-2048,617,9590,397062,-136833,108734,0,0,0,320,314,247,372,216,398,478,326,332,337,342,377,0,,,,,
2,1777057751312,3756,3062,9203,-5806884,684169,90408,0,0,0,237,383,225,273,299,309,291,280,233,130,139,188,0,,,,,
1,1777057751328,-2057,617,9619,398284,-101403,127059,0,0,0,327,320,238,374,221,397,480,289,334,348,323,386,0,,,,,
2,1777057751328,3752,2948,10567,-5782450,1218065,193033,0,0,0,237,384,227,275,299,310,296,283,234,131,143,185,0,,,,,
1,1777057751344,-2029,574,9576,390953,-59864,138055,0,0,0,307,316,237,372,238,403,474,285,334,339,289,391,0,,,,,
2,1777057751344,3220,3082,12840,-5886297,1657888,338419,0,0,0,237,384,226,278,303,312,295,286,233,128,143,184,0,,,,,
1,1777057751360,-1966,521,9571,366519,-24434,146607,0,0,0,305,309,230,381,231,405,480,242,340,318,250,404,0,,,,,
2,1777057751360,3196,2790,14658,-6111095,1754404,422718,0,0,0,233,385,228,275,304,314,290,283,235,124,141,186,0,,,,,
1,1777057751376,-1919,488,9691,349414,-25656,153938,0,0,0,309,337,226,394,239,410,483,253,336,309,243,410,0,,,,,
2,1777057751376,3531,2282,16324,-6342002,1869247,371406,0,0,0,223,384,228,271,299,314,291,277,236,124,136,187,0,,,,,
1,1777057751392,-1933,430,9810,359188,-56199,172263,0,0,0,321,343,224,398,235,409,486,258,337,309,235,422,0,,,,,
2,1777057751392,3756,1990,18147,-6516710,2085493,184481,0,0,0,226,384,229,277,303,317,294,279,237,126,136,186,0,,,,,
1,1777057751408,-2005,339,9801,381179,-86742,204028,0,0,0,328,333,224,383,220,398,479,234,340,307,213,434,0,,,,,
2,1777057751408,3397,2144,20756,-6604674,2310292,151494,0,0,0,230,384,232,278,302,317,295,281,239,125,133,186,0,,,,,
1,1777057751424,-2067,277,9772,401949,-94073,241902,0,0,0,325,334,221,377,215,395,464,202,338,304,193,443,0,,,,,
2,1777057751424,3034,2072,23924,-6636439,2448347,415388,0,0,0,226,384,228,278,304,318,295,283,240,124,137,186,0,,,,,
1,1777057751440,-2139,239,9777,423940,-74525,277332,0,0,0,318,342,215,386,227,404,458,188,341,299,188,454,0,,,,,
2,1777057751440,2794,756,26915,-6565579,2528982,995710,0,0,0,229,383,231,280,303,320,296,277,241,125,133,186,0,,,,,
1,1777057751456,-2215,205,9849,454483,-36651,322536,0,0,0,315,338,215,386,239,411,447,190,352,299,185,462,0,,,,,
2,1777057751456,2057,-3259,29743,-6279694,2742784,1672549,0,0,0,228,382,231,281,302,320,300,274,243,123,129,184,0,,,,,
1,1777057751472,-2196,172,10021,494800,9773,372627,0,0,0,329,329,215,411,250,418,435,176,356,315,173,463,0,,,,,
2,1777057751472,248,-8743,31945,-5885075,2812423,2040289,0,0,0,226,379,225,285,302,320,303,272,242,127,129,186,0,,,,,
1,1777057751488,-1981,95,10342,571769,68416,405614,0,0,0,332,338,214,433,277,434,423,165,362,283,165,476,0,,,,,
2,1777057751488,-952,-17726,30533,-5316971,2074498,1855808,0,0,0,224,380,224,288,304,324,307,274,246,128,131,188,0,,,,,
1,1777057751504,-1899,23,10696,686612,106290,408057,0,0,0,350,344,222,444,276,454,428,164,372,287,146,492,0,,,,,
2,1777057751504,564,-27896,24771,-4460537,1112996,1026253,0,0,0,224,382,226,289,306,325,309,278,249,128,132,190,0,,,,,
1,1777057751520,-2005,4,11275,899193,116064,412944,0,0,0,350,351,245,461,275,470,425,146,371,291,145,533,0,,,,,
2,1777057751520,-1081,-35654,17764,-2951700,1014036,-596204,0,0,0,226,382,227,289,307,325,308,278,248,129,133,191,0,,,,,
1,1777057751536,-1895,-4,11825,1155757,95294,430049,0,0,0,354,362,248,455,301,474,409,153,378,287,154,524,0,,,,,
2,1777057751536,-9150,-37946,15611,-1313360,1192408,-1781283,0,0,0,227,384,229,287,306,324,306,277,245,130,136,191,0,,,,,
1,1777057751552,-1507,-76,12232,1455080,35430,420275,0,0,0,366,358,226,463,283,476,369,146,376,275,144,536,0,,,,,
2,1777057751552,-15190,-35544,17386,112399,290771,-1637118,0,0,0,225,383,231,286,306,324,310,301,243,140,157,188,0,,,,,
1,1777057751568,-1306,-229,12471,1782504,-72082,370184,0,0,0,380,356,222,467,275,480,331,141,375,256,127,552,0,,,,,
2,1777057751568,-9217,-26819,18994,1386664,-1264491,-772133,0,0,0,222,377,227,287,308,322,327,369,236,158,207,178,0,,,,,
1,1777057751584,-2029,-440,12840,2186897,-180816,340862,0,0,0,382,373,216,465,300,479,298,160,379,239,132,564,0,,,,,
2,1777057751584,-138,-2833,18846,2648711,-2612059,100181,0,0,0,224,358,198,281,295,305,349,413,222,181,252,166,0,,,,,
1,1777057751600,-3053,-507,13452,2623055,-205250,428827,0,0,0,414,367,208,444,321,485,274,148,386,228,128,553,0,,,,,
2,1777057751600,5053,16860,12983,3530801,-3260798,812450,0,0,0,216,345,191,278,282,301,352,420,220,264,379,166,0,,,,,
1,1777057751616,-3622,-473,14654,3247359,-153938,662177,0,0,0,413,378,218,422,339,480,245,144,384,211,126,532,0,,,,,
2,1777057751616,650,7815,11615,4599815,-2576629,1028697,0,0,0,228,360,192,286,299,308,384,450,232,193,321,166,0,,,,,
1,1777057751632,-4278,-588,16152,3882659,-119729,897971,0,0,0,386,398,227,403,333,472,212,152,386,188,123,504,0,,,,,
2,1777057751632,-4441,-2962,17185,4877148,-1314581,616973,0,0,0,226,366,198,269,329,305,412,448,235,201,334,174,0,,,,,
1,1777057751648,-5240,-799,18353,4594928,-125838,1191187,0,0,0,379,397,214,379,312,465,190,146,386,168,111,451,0,,,,,
2,1777057751648,-3072,-2019,19736,4147774,-614530,-188146,0,0,0,219,369,213,283,301,320,393,483,236,271,429,174,0,,,,,
1,1777057751664,-6637,-823,21560,5485569,-134390,1568701,0,0,0,369,387,194,359,313,441,181,139,356,155,107,377,0,,,,,
2,1777057751664,2172,1852,16295,3424510,-458148,-425162,0,0,0,241,377,240,298,297,325,424,484,242,273,432,184,0,,,,,
1,1777057751680,-8322,-703,23967,6258925,-39095,1952325,0,0,0,327,364,196,342,301,401,174,145,316,151,116,323,0,,,,,
2,1777057751680,3828,1861,13649,2772106,-301767,-140499,0,0,0,248,380,261,304,293,330,436,499,241,307,446,196,0,,,,,
1,1777057751696,-9078,-818,26039,6951646,273667,2442239,0,0,0,295,328,209,306,232,364,204,175,300,176,127,278,0,,,,,
2,1777057751696,2555,38,12830,1718974,-230907,106290,0,0,0,260,388,271,316,300,336,440,506,244,329,463,210,0,,,,,
1,1777057751712,-8279,-4,27279,7475768,494800,2841745,0,0,0,253,296,192,268,200,310,223,161,250,191,158,206,0,,,,,
2,1777057751712,1890,-344,12079,751364,-243124,127059,0,0,0,275,394,278,320,302,339,444,506,249,344,475,221,0,,,,,
1,1777057751728,-8308,2325,25785,7847174,403171,3014009,0,0,0,257,243,191,282,138,252,299,185,225,201,179,135,0,,,,,
2,1777057751728,1928,531,10681,322536,-251676,68416,0,0,0,289,399,284,322,301,344,448,504,253,357,487,227,0,,,,,
1,1777057751744,-9030,7307,19463,7812966,323758,3171612,0,0,0,255,238,203,258,137,264,296,203,240,182,200,135,0,,,,,
2,1777057751744,1861,947,9987,219911,-221133,32986,0,0,0,301,405,294,328,304,350,452,502,260,358,488,235,0,,,,,
1,1777057751760,-8394,12088,13070,6786712,697608,3176499,0,0,0,255,241,205,255,144,269,295,206,243,183,206,139,0,,,,,
2,1777057751760,1799,995,10074,164933,-175929,6108,0,0,0,311,409,299,332,303,354,457,500,262,351,474,241,0,,,,,
1,1777057751776,-6800,15936,11442,3561344,1237612,1893682,0,0,0,264,240,200,272,141,264,314,202,233,204,205,141,0,,,,,
2,1777057751776,1799,1119,10155,118507,-144164,-13439,0,0,0,319,410,290,338,306,355,458,496,256,346,463,241,0,,,,,
1,1777057751792,-5398,16199,11083,-802676,1446528,-471587,0,0,0,261,244,200,262,144,263,296,196,234,191,204,137,0,,,,,
2,1777057751792,1804,1277,10078,130725,-123394,-24434,0,0,0,322,411,297,338,310,358,451,487,259,346,460,248,0,,,,,
1,1777057751808,-6379,10653,8513,-2863736,1354899,-1902234,0,0,0,257,248,199,255,149,264,296,203,236,180,206,134,0,,,,,
2,1777057751808,1794,1368,9978,217468,-111177,-26878,0,0,0,321,414,315,339,312,365,453,475,265,347,452,250,0,,,,,
1,1777057751824,-7662,5987,5235,-3211929,961501,-2003637,0,0,0,252,249,196,254,147,261,318,211,238,187,207,133,0,,,,,
2,1777057751824,1775,1311,9930,301767,-101403,-24434,0,0,0,326,415,315,339,310,363,454,463,269,347,426,254,0,,,,,
1,1777057751840,-6427,5135,4517,-3163060,447153,-1368338,0,0,0,247,250,198,248,142,259,319,210,238,192,208,132,0,,,,,
2,1777057751840,1770,1139,9863,345749,-84299,-23212,0,0,0,326,410,299,340,310,363,452,448,270,321,385,264,0,,,,,
1,1777057751856,-4522,5503,5474,-3621209,318871,-1007927,0,0,0,250,254,202,252,151,263,303,214,233,190,214,137,0,,,,,
2,1777057751856,1780,1048,9753,333532,-70860,-25656,0,0,0,333,418,311,349,317,370,471,456,278,258,299,278,0,,,,,
1,1777057751872,-4111,5565,6819,-4408003,504574,-1011592,0,0,0,249,259,202,251,152,263,299,213,232,185,218,137,0,,,,,
2,1777057751872,1799,1024,9719,310319,-70860,-32986,0,0,0,329,417,317,353,320,373,477,449,288,251,274,291,0,,,,,
1,1777057751888,-4690,4915,7834,-5059185,389732,-1104444,0,0,0,245,267,202,247,158,263,299,218,234,183,220,136,0,,,,,
2,1777057751888,1823,1000,9758,296880,-86742,-41538,0,0,0,339,423,317,352,321,374,474,435,288,249,264,297,0,,,,,
1,1777057751904,-4618,4192,8949,-5605299,136833,-1235169,0,0,0,246,268,203,249,158,266,294,216,234,185,222,142,0,,,,,
2,1777057751904,1832,957,9786,294437,-107512,-52534,0,0,0,337,417,308,346,318,364,460,414,280,252,248,325,0,,,,,
1,1777057751920,-4493,3005,10217,-6090326,-91629,-1418429,0,0,0,261,264,202,259,158,266,296,216,234,185,221,140,0,,,,,
2,1777057751920,1818,928,9796,298102,-128281,-62308,0,0,0,343,421,303,346,318,361,458,402,279,254,235,337,0,,,,,
1,1777057751936,-4915,1387,11471,-6329785,-338419,-1455080,0,0,0,248,261,202,249,151,265,302,231,235,179,211,135,0,,,,,
2,1777057751936,1770,899,9796,307876,-142942,-68416,0,0,0,353,425,295,355,322,369,456,392,279,251,226,339,0,,,,,
1,1777057751952,-5020,33,13113,-6374989,-665843,-1317025,0,0,0,242,261,202,245,150,263,301,235,233,176,210,135,0,,,,,
2,1777057751952,1727,875,9810,329867,-145385,-68416,0,0,0,359,426,288,365,330,378,453,380,280,255,223,344,0,,,,,
1,1777057751968,-4776,-655,15008,-6283359,-901637,-1132544,0,0,0,245,261,203,252,149,262,310,238,233,177,211,135,0,,,,,
2,1777057751968,1708,847,9887,370184,-142942,-65973,0,0,0,368,432,294,373,336,389,432,359,294,260,217,346,0,,,,,
1,1777057751984,-4618,-1225,16946,-6207612,-1077566,-1049466,0,0,0,242,261,203,244,147,259,313,244,238,175,213,132,0,,,,,
2,1777057751984,1713,794,9983,417831,-139277,-69638,0,0,0,380,439,301,379,338,401,409,333,310,251,203,351,0,,,,,
1,1777057752000,-4680,-1694,18612,-6173404,-1176526,-1182635,0,0,0,242,262,203,244,150,260,310,248,237,180,214,133,0,,,,,
2,1777057752000,1756,741,10064,475253,-138055,-79412,0,0,0,389,442,301,386,345,407,449,327,298,245,190,369,0,,,,,
1,1777057752016,-5106,-2273,20124,-6113539,-1255938,-1500285,0,0,0,248,266,203,252,173,258,313,249,231,187,214,134,0,,,,,
2,1777057752016,1837,689,10155,553443,-138055,-102625,0,0,0,404,445,313,393,349,424,443,303,307,251,183,397,0,,,,,
1,1777057752032,-5972,-3129,21579,-5960823,-1395216,-1999972,0,0,0,249,267,205,251,179,257,316,250,234,183,214,134,0,,,,,
2,1777057752032,1962,612,10270,653625,-138055,-145385,0,0,0,404,452,316,393,367,428,440,287,316,252,180,433,0,,,,,
1,1777057752048,-6637,-4637,23096,-5745798,-1662775,-2520429,0,0,0,246,266,205,250,155,266,310,252,240,180,216,137,0,,,,,
2,1777057752048,2100,516,10370,748920,-140499,-201585,0,0,0,410,456,324,399,373,448,432,271,329,248,169,449,0,,,,,
1,1777057752064,-6604,-7709,24536,-5556430,-1938886,-2882062,0,0,0,242,269,207,248,159,270,306,252,243,180,217,135,0,,,,,
2,1777057752064,2249,392,10452,844215,-151494,-277332,0,0,0,409,453,307,401,388,438,416,242,322,249,165,458,0,,,,,
1,1777057752080,-6226,-13012,24690,-5401270,-1904677,-2665815,0,0,0,241,273,204,249,160,269,310,253,244,185,215,131,0,,,,,
2,1777057752080,2110,277,10653,976162,-199142,-353080,0,0,0,421,461,327,397,386,445,396,228,327,249,165,472,0,,,,,
1,1777057752096,-5814,-19818,23268,-5132489,-1698205,-1953547,0,0,0,237,273,203,255,160,265,329,251,240,206,212,127,0,,,,,
2,1777057752096,1832,124,11146,1180191,-222354,-393397,0,0,0,427,470,314,407,396,451,379,219,332,252,168,485,0,,,,,
1,1777057752112,-3541,-26455,19870,-4497189,-1534493,-751364,0,0,0,242,270,201,260,153,265,335,244,237,232,210,127,0,,,,,
2,1777057752112,1727,57,11844,1455080,-204028,-398284,0,0,0,438,485,308,410,401,457,360,212,345,252,164,505,0,,,,,
1,1777057752128,2172,-30112,16252,-3236364,-1406211,376292,0,0,0,242,270,204,260,155,265,338,239,239,233,205,127,0,,,,,
2,1777057752128,1550,28,12462,1764178,-215024,-389732,0,0,0,443,490,286,417,411,459,344,211,337,258,169,513,0,,,,,
1,1777057752144,7398,-32141,13960,-1831373,-926071,1053131,0,0,0,250,274,206,268,156,262,339,241,240,240,206,124,0,,,,,
2,1777057752144,1531,-43,12897,2158797,-221133,-362853,0,0,0,441,488,261,414,423,451,319,213,327,254,175,517,0,,,,,
1,1777057752160,8231,-32251,13338,-566882,1221,1094670,0,0,0,223,266,195,254,160,259,343,270,234,249,286,117,0,,,,,
2,1777057752160,1799,-162,13381,2577851,-211359,-359188,0,0,0,442,488,254,408,434,447,289,216,325,249,176,527,0,,,,,
1,1777057752176,6044,-29576,14960,675616,989601,932180,0,0,0,206,264,160,243,172,234,379,352,211,275,361,98,0,,,,,
2,1777057752176,2306,-258,14022,3071430,-226020,-412944,0,0,0,444,483,249,402,435,449,264,216,322,250,178,536,0,,,,,
1,1777057752192,1086,-15348,16396,2565634,2601064,659734,0,0,0,210,254,129,247,169,213,426,430,192,312,403,80,0,,,,,
2,1777057752192,2900,-282,14955,3652974,-299323,-541226,0,0,0,450,472,242,395,427,454,249,206,327,249,178,536,0,,,,,
1,1777057752208,-3187,4355,14362,3995058,3602883,273667,0,0,0,226,248,126,260,157,219,453,457,204,353,422,76,0,,,,,
2,1777057752208,3900,-272,16448,4389677,-379958,-747699,0,0,0,459,466,239,395,428,460,237,189,336,243,168,522,0,,,,,
1,1777057752224,-1617,7666,15075,4726875,3114190,-43982,0,0,0,236,247,137,270,151,238,464,464,219,379,431,85,0,,,,,
2,1777057752224,5034,-239,18884,5254662,-416610,-1078788,0,0,0,438,456,237,387,423,452,217,172,326,220,159,469,0,,,,,
1,1777057752240,1770,1095,20186,4742757,1562593,95294,0,0,0,240,251,148,276,152,250,471,471,218,395,437,91,0,,,,,
2,1777057752240,5642,-234,22282,6151412,-431270,-1415985,0,0,0,406,432,233,386,405,437,218,163,316,201,140,403,0,,,,,
1,1777057752256,574,-1923,22349,3789807,538783,425162,0,0,0,249,261,174,280,157,253,478,478,221,415,442,91,0,,,,,
2,1777057752256,6221,-14,25905,6966307,-365297,-1668883,0,0,0,346,433,222,359,384,403,228,172,297,185,142,347,0,,,,,
1,1777057752272,-2292,-258,16764,2272418,344527,224798,0,0,0,259,266,224,289,165,280,481,481,243,416,443,110,0,x,,,,
2,1777057752272,6398,617,28355,7638258,-160046,-1893682,0,0,0,294,413,211,324,359,366,249,213,270,167,140,306,0,x,,,,
1,1777057752288,-2541,1072,10787,1171639,241902,-120951,0,0,0,265,269,236,314,164,309,488,487,252,432,452,132,0,,,,,
2,1777057752288,6652,1842,27638,8114733,207694,-2188119,0,0,0,257,382,222,289,314,328,265,241,243,135,124,228,0,,,,,
1,1777057752304,-1574,665,9078,609643,215024,-223576,0,0,0,295,283,222,322,162,297,503,503,253,465,473,150,0,,,,,
2,1777057752304,8107,3019,24077,8340753,684169,-2550973,0,0,0,249,378,226,284,301,314,280,260,244,125,126,204,0,,,,,
1,1777057752320,-1220,440,10303,223576,254119,-122173,0,0,0,300,277,246,334,164,319,510,510,269,476,480,172,0,,,,,
2,1777057752320,9375,6882,17066,7748214,685390,-3141069,0,0,0,246,380,225,284,302,314,280,271,242,124,130,193,0,,,,,
1,1777057752336,-1263,918,10820,17104,234572,-41538,0,0,0,305,289,253,335,169,326,510,510,268,471,479,177,0,,,,,
2,1777057752336,7475,13342,12792,5544212,-100181,-3270572,0,0,0,243,381,222,279,300,310,280,269,236,124,127,189,0,,,,,
1,1777057752352,-1426,1550,10260,3665,146607,-14660,0,0,0,299,319,251,333,180,321,511,511,270,463,480,185,0,,,,,
2,1777057752352,4642,18095,11730,575435,-1221730,-1729970,0,0,0,245,380,223,278,299,309,282,269,233,126,128,190,0,,,,,
1,1777057752368,-1416,1646,9997,108734,74525,-1221,0,0,0,299,311,267,331,180,336,509,508,284,458,475,200,0,,,,,
2,1777057752368,4871,14907,11036,-3452610,-1766622,152716,0,0,0,241,377,222,279,299,310,286,272,234,170,152,189,0,,,,,
1,1777057752384,-1320,1603,10174,219911,14660,24434,0,0,0,311,305,289,331,176,355,500,500,312,452,465,222,0,,,,,
2,1777057752384,7269,7556,8408,-4921130,-1496619,1160643,0,0,0,237,379,222,279,300,312,287,273,234,165,151,189,0,,,,,
1,1777057752400,-1234,1560,10227,312763,-78190,50090,0,0,0,313,309,293,332,178,358,497,496,302,434,456,228,0,,,,,
2,1777057752400,7547,4814,5991,-4664566,-602313,830776,0,0,0,240,380,223,280,302,312,286,274,233,128,133,190,0,,,,,
1,1777057752416,-1249,1493,10088,378736,-179594,65973,0,0,0,306,309,279,342,183,358,499,488,291,423,451,228,0,,,,,
2,1777057752416,5848,4948,6202,-4729318,39095,397062,0,0,0,241,380,223,281,302,312,287,277,235,130,136,190,0,,,,,
1,1777057752432,-1407,1387,9839,388510,-243124,73303,0,0,0,305,312,269,348,185,354,499,468,290,420,437,231,0,,,,,
2,1777057752432,3943,5317,7829,-5203350,224798,197920,0,0,0,238,384,226,279,304,312,285,279,234,126,134,189,0,,,,,
1,1777057752448,-1517,1296,9739,356745,-229685,75747,0,0,0,308,317,267,349,186,350,495,434,291,411,412,235,0,,,,,
2,1777057752448,3637,4800,8633,-5601634,245567,195476,0,0,0,236,383,224,279,302,312,285,277,232,128,134,187,0,,,,,
1,1777057752464,-1588,1225,9696,337197,-200363,81855,0,0,0,305,316,278,349,185,361,488,399,301,402,394,247,0,,,,,
2,1777057752464,3780,4297,9021,-5781228,555887,194255,0,0,0,238,382,223,281,302,313,288,281,235,130,133,189,0,,,,,
1,1777057752480,-1631,1196,9657,332310,-158824,85521,0,0,0,304,320,293,342,182,371,484,376,311,407,384,262,0,,,,,
2,1777057752480,3153,3948,10098,-5854532,1120326,223576,0,0,0,221,382,220,267,298,306,295,283,237,117,133,185,0,,,,,
1,1777057752496,-1651,1186,9633,337197,-86742,85521,0,0,0,308,329,275,354,194,361,484,364,308,414,373,264,0,,,,,
2,1777057752496,2206,3723,11519,-5900958,1474628,323758,0,0,0,240,383,223,278,301,310,292,283,238,130,136,190,0,,,,,
1,1777057752512,-1612,1143,9629,344527,-32986,87964,0,0,0,307,313,285,363,191,366,481,349,308,399,368,274,0,,,,,
2,1777057752512,1698,3613,12993,-5971818,1577254,488692,0,0,0,239,385,225,282,304,314,286,283,238,128,133,187,0,,,,,
1,1777057752528,-1497,1067,9629,344527,-17104,86742,0,0,0,304,316,269,353,195,355,493,342,318,386,358,289,0,,,,,
2,1777057752528,1923,3637,14323,-6133086,1649336,597426,0,0,0,236,387,225,284,306,315,286,282,238,131,138,189,0,,,,,
1,1777057752544,-1426,1019,9676,348193,-30543,80634,0,0,0,312,337,249,361,224,352,495,341,322,371,353,303,0,,,,,
2,1777057752544,1995,3699,15975,-6355441,1811826,638965,0,0,0,225,391,228,280,306,317,289,282,238,129,140,192,0,,,,,
1,1777057752560,-1440,1014,9767,367740,-52534,78190,0,0,0,302,329,244,363,220,380,498,327,313,364,336,336,0,,,,,
2,1777057752560,1785,3685,18200,-6563136,1980425,692721,0,0,0,222,389,227,279,308,316,289,286,240,126,143,190,0,,,,,
1,1777057752576,-1526,947,9853,410501,-65973,94073,0,0,0,296,321,232,369,221,384,498,293,332,360,305,352,0,,,,,
2,1777057752576,1794,3632,20760,-6698748,2098932,833220,0,0,0,224,388,225,283,311,318,291,287,240,128,141,190,0,,,,,
1,1777057752592,-1660,847,9901,455705,-69638,125838,0,0,0,310,314,233,370,230,387,489,270,337,341,275,362,0,,,,,
2,1777057752592,2134,3388,24321,-6805038,2182010,1141096,0,0,0,225,386,225,283,309,318,295,284,240,128,138,189,0,,,,,
1,1777057752608,-1756,770,9901,488692,-59864,168598,0,0,0,303,322,242,381,237,401,476,264,341,326,266,376,0,,,,,
2,1777057752608,2311,1177,27676,-6867347,2241875,1649336,0,0,0,226,387,225,284,306,319,297,280,241,127,135,189,0,,,,,
1,1777057752624,-1832,722,9920,531452,-48869,219911,0,0,0,307,341,257,386,238,408,472,252,353,310,247,403,0,,,,,
2,1777057752624,1866,-3771,30332,-6728069,2415361,2107485,0,0,0,228,387,226,287,306,321,299,278,244,129,134,190,0,,,,,
1,1777057752640,-1976,693,10064,608421,-41538,296880,0,0,0,319,352,274,384,243,414,475,236,368,296,228,433,0,,,,,
2,1777057752640,23,-12529,32045,-6205169,2476447,2239431,0,0,0,229,385,225,290,308,322,304,279,246,131,135,191,0,,,,,
1,1777057752656,-2043,636,10356,719599,-21991,382401,0,0,0,321,356,277,395,258,428,466,216,381,293,220,459,0,,,,,
2,1777057752656,0,-24651,29451,-5246110,1587027,1639562,0,0,0,232,387,226,293,309,322,305,280,247,132,134,191,0,,,,,
1,1777057752672,-1962,521,10720,853989,17104,449596,0,0,0,349,363,265,423,272,436,447,178,390,295,191,487,0,,,,,
2,1777057752672,1158,-35568,22560,-3887546,706160,262672,0,0,0,231,386,226,293,310,324,307,280,249,131,136,192,0,,,,,
1,1777057752688,-1780,402,11337,1039692,31764,489913,0,0,0,383,374,259,434,279,450,432,154,394,299,169,494,0,,,,,
2,1777057752688,-4575,-39334,17635,-2214997,724486,-1494176,0,0,0,233,388,228,290,308,324,302,281,251,130,135,192,0,,,,,
1,1777057752704,-1517,354,12041,1287703,10995,504574,0,0,0,367,401,234,422,293,448,410,158,390,285,162,507,0,,,,,
2,1777057752704,-12830,-39013,17138,-601091,313984,-2494773,0,0,0,234,387,235,281,297,318,283,270,245,127,134,189,0,,,,,
1,1777057752720,-1273,301,12605,1622458,-17104,483805,0,0,0,393,401,222,435,325,465,380,159,394,290,170,520,0,,,,,
2,1777057752720,-10964,-35429,17836,678060,-946841,-2182010,0,0,0,234,388,227,293,314,325,306,289,248,134,144,192,0,,,,,
1,1777057752736,-1402,172,13180,2003637,-31764,454483,0,0,0,385,401,216,423,334,467,323,197,381,254,176,537,0,,,,,
2,1777057752736,-4288,-28245,17827,1844813,-1784948,-1770287,0,0,0,216,386,230,286,314,324,318,339,240,142,182,179,0,,,,,
1,1777057752752,-2086,134,13902,2486221,-17104,488692,0,0,0,391,406,194,438,334,462,298,163,379,246,148,544,0,,,,,
2,1777057752752,2976,-5331,18755,2759889,-2135584,-1262047,0,0,0,211,360,194,287,303,303,362,393,220,196,251,167,0,,,,,
1,1777057752768,-2785,134,14630,3071430,20769,629191,0,0,0,408,410,198,422,345,480,219,162,392,223,143,540,0,,,,,
2,1777057752768,7906,23278,13055,2680476,-2880840,-138055,0,0,0,215,335,193,283,278,305,364,403,232,259,344,162,0,,,,,
1,1777057752784,-2924,119,15458,3684739,43982,823446,0,0,0,406,422,195,414,376,453,194,152,388,202,157,533,0,,,,,
2,1777057752784,6173,20502,7130,3265685,-3386636,883311,0,0,0,218,333,190,282,279,308,377,454,229,244,387,161,0,,,,,
1,1777057752800,-3551,67,17190,4401894,35430,1017701,0,0,0,396,393,202,390,368,445,188,148,379,183,149,498,0,,,,,
2,1777057752800,-2163,-1895,12658,4972443,-2455678,1354899,0,0,0,222,338,193,291,284,313,401,484,228,279,430,165,0,,,,,
1,1777057752816,-5446,-220,19631,5182580,67195,1282817,0,0,0,387,373,204,359,344,433,174,163,365,171,145,437,0,,,,,
2,1777057752816,-5130,-4498,22225,4710992,-1032362,684169,0,0,0,236,353,225,298,286,319,419,493,233,301,446,170,0,,,,,
1,1777057752832,-7915,-430,22565,5992587,199142,1710422,0,0,0,358,362,191,334,306,407,162,171,335,164,163,362,0,,,,,
2,1777057752832,-1722,406,22139,3435506,-487470,-64751,0,0,0,247,371,248,304,292,324,426,492,238,306,449,178,0,,,,,
1,1777057752848,-9078,-100,25192,6748839,443488,2234545,0,0,0,309,350,186,307,275,382,164,190,306,151,181,302,0,,,,,
2,1777057752848,2665,2756,15314,1998751,-375071,-188146,0,0,0,256,382,257,314,299,328,436,496,250,312,453,190,0,,,,,
1,1777057752864,-9183,1048,27451,7461108,735481,2740341,0,0,0,262,331,196,273,245,338,195,209,278,150,180,257,0,,,,,
2,1777057752864,2124,784,11304,1114218,-199142,114842,0,0,0,270,389,271,326,307,338,451,504,260,318,456,207,0,,,,,
1,1777057752880,-8786,3149,28068,7979121,981049,3099530,0,0,0,234,278,192,252,171,275,252,183,231,172,182,180,0,,,,,
2,1777057752880,1186,0,10457,561996,-63529,191811,0,0,0,288,399,285,333,314,350,459,503,257,319,449,226,0,,,,,
1,1777057752896,-10035,5355,24340,8223467,1440420,3319441,0,0,0,240,260,183,246,157,243,291,211,219,178,208,124,0,,,,,
2,1777057752896,1210,784,10509,282219,-91629,79412,0,0,0,299,408,288,337,318,351,465,501,262,317,436,236,0,,,,,
1,1777057752912,-12830,8222,16625,7671245,1594358,3451388,0,0,0,243,267,188,246,158,253,291,222,228,183,228,133,0,,,,,
2,1777057752912,1426,1536,10275,175929,-149051,0,0,0,0,306,411,287,345,324,358,466,495,257,345,456,245,0,,,,,
1,1777057752928,-12218,12773,11950,5731137,1075122,2933374,0,0,0,241,276,189,247,174,254,291,236,225,178,240,133,0,,,,,
2,1777057752928,1445,1689,10064,204028,-135612,-10995,0,0,0,316,414,285,349,325,360,465,494,265,352,450,259,0,,,,,
1,1777057752944,-6642,17228,11629,1883908,691499,829554,0,0,0,243,273,183,247,160,254,306,223,224,180,224,127,0,,,,,
2,1777057752944,1407,1541,10102,272445,-122173,-10995,0,0,0,319,410,282,350,325,369,461,476,271,340,432,292,0,,,,,
1,1777057752960,-4733,14721,10586,-1976759,1583362,-2158797,0,0,0,239,274,190,247,165,263,302,220,224,179,221,129,0,,,,,
2,1777057752960,1306,1560,10184,321315,-122173,-20769,0,0,0,325,422,288,353,337,369,423,444,288,262,327,292,0,,,,,
1,1777057752976,-8303,9026,7083,-3477044,1948660,-3424510,0,0,0,239,276,189,248,166,265,301,222,224,182,223,130,0,,,,,
2,1777057752976,1191,1636,10189,390953,-50090,-26878,0,0,0,337,420,289,354,331,370,469,469,275,245,287,310,0,,,,,
1,1777057752992,-10725,4647,3823,-3367089,935845,-2825862,0,0,0,239,277,182,249,167,258,303,223,221,190,224,128,0,,,,,
2,1777057752992,1210,1574,10045,472809,51312,-29321,0,0,0,339,424,291,369,334,375,476,451,278,244,262,319,0,,,,,
1,1777057753008,-7327,4594,4278,-3308446,29321,-1833817,0,0,0,244,279,182,259,167,251,306,223,221,199,223,128,0,,,,,
2,1777057753008,1340,1407,9844,519235,114842,-32986,0,0,0,334,421,286,365,330,381,480,439,287,242,244,328,0,,,,,
1,1777057753024,-4876,5379,5656,-3754377,94073,-1452637,0,0,0,246,283,185,257,167,248,305,224,223,199,224,129,0,,,,,
2,1777057753024,1440,1234,9753,507018,113620,-48869,0,0,0,334,427,284,363,333,388,471,414,290,234,224,339,0,,,,,
1,1777057753040,-5561,5379,6944,-4561941,430049,-1544267,0,0,0,250,284,187,260,166,246,308,224,222,201,226,128,0,,,,,
2,1777057753040,1517,1153,9758,476474,92851,-68416,0,0,0,343,431,286,367,337,393,468,394,295,234,208,346,0,,,,,
1,1777057753056,-6580,4589,8135,-5231449,284663,-1661553,0,0,0,255,283,188,274,165,244,311,225,221,203,227,127,0,,,,,
2,1777057753056,1631,1115,9801,452040,48869,-83077,0,0,0,353,435,296,370,337,398,466,384,301,232,200,351,0,,,,,
1,1777057753072,-6566,3364,9729,-5773898,-138055,-1811826,0,0,0,257,285,190,274,167,243,310,229,224,197,230,125,0,,,,,
2,1777057753072,1675,1038,9782,432492,-29321,-90408,0,0,0,361,434,295,375,338,404,464,373,305,230,193,358,0,,,,,
1,1777057753088,-6609,1861,11471,-6223495,-449596,-1996307,0,0,0,256,285,188,273,170,244,311,227,222,198,229,124,0,,,,,
2,1777057753088,1612,990,9801,416610,-91629,-95294,0,0,0,371,434,288,383,343,411,462,356,307,238,201,367,0,,,,,
1,1777057753104,-7159,177,13036,-6448293,-690277,-2046398,0,0,0,248,286,191,257,170,248,303,227,224,192,233,130,0,,,,,
2,1777057753104,1512,952,9897,416610,-118507,-101403,0,0,0,380,438,292,384,347,413,452,332,306,248,211,378,0,,,,,
1,1777057753120,-7446,-1052,14639,-6448293,-996932,-1791056,0,0,0,245,291,191,248,170,249,292,224,227,190,226,129,0,,,,,
2,1777057753120,1488,894,9997,434936,-111177,-111177,0,0,0,384,437,292,383,345,411,442,305,310,247,184,397,0,,,,,
1,1777057753136,-7336,-1775,16405,-6422637,-1309695,-1365894,0,0,0,244,289,191,249,171,251,306,229,227,190,229,129,0,,,,,
2,1777057753136,1598,823,10059,469144,-74525,-134390,0,0,0,393,440,290,392,357,418,443,292,316,237,167,412,0,,,,,
1,1777057753152,-6537,-2282,18478,-6428745,-1569923,-886976,0,0,0,243,289,191,246,169,251,305,232,226,187,233,129,0,,,,,
2,1777057753152,1679,741,10059,513126,-39095,-175929,0,0,0,403,439,285,397,368,424,429,271,325,236,160,421,0,,,,,
1,1777057753168,-5838,-2981,20387,-6405532,-1665218,-810007,0,0,0,242,292,192,246,173,252,299,234,227,186,234,129,0,,,,,
2,1777057753168,1698,684,10136,568104,-17104,-222354,0,0,0,405,445,292,403,373,433,425,251,325,242,162,438,0,,,,,
1,1777057753184,-5948,-4087,22364,-6260146,-1820378,-1241278,0,0,0,242,296,196,244,172,255,295,231,228,184,235,129,0,,,,,
2,1777057753184,1770,684,10375,651182,-41538,-260228,0,0,0,403,440,311,396,372,436,415,239,345,276,175,454,0,,,,,
1,1777057753200,-6025,-6082,24378,-6036570,-2245540,-2056172,0,0,0,240,299,192,244,177,252,296,232,230,185,237,128,0,,,,,
2,1777057753200,1928,622,10634,799011,-100181,-309097,0,0,0,412,452,283,409,387,447,404,224,326,260,170,463,0,,,,,
1,1777057753216,-4484,-9920,26274,-5842315,-2645046,-2708576,0,0,0,240,300,191,246,180,248,300,236,229,186,237,124,0,,,,,
2,1777057753216,1789,483,10863,951728,-107512,-357967,0,0,0,419,455,278,408,393,459,378,204,331,276,187,475,0,,,,,
1,1777057753232,-2124,-16692,26403,-5591860,-2404365,-2651155,0,0,0,241,301,192,248,181,248,303,236,226,188,236,122,0,,,,,
2,1777057753232,1507,330,11203,1145983,-53756,-382401,0,0,0,429,465,279,405,401,459,359,202,347,285,198,490,0,,,,,
1,1777057753248,-1426,-24211,23976,-5138598,-1699427,-1958433,0,0,0,239,301,190,249,180,249,300,234,224,191,236,124,0,,,,,
2,1777057753248,1579,234,11615,1362229,-9773,-388510,0,0,0,434,472,277,405,407,459,346,204,357,263,179,508,0,,,,,
1,1777057753264,-1598,-29767,19583,-4393342,-1175304,-800233,0,0,0,235,302,191,249,179,251,300,234,227,192,237,124,0,,,,,
2,1777057753264,1636,258,12208,1673770,-12217,-406836,0,0,0,437,471,263,410,414,460,336,202,356,251,168,523,0,,,,,
1,1777057753280,1923,-32859,15826,-3240029,-1152091,383623,0,0,0,230,301,191,250,182,259,302,233,235,192,235,125,0,,,,,
2,1777057753280,1387,239,12802,2048842,-42760,-408057,0,0,0,438,470,246,410,419,461,314,201,346,249,170,535,0,,,,,
1,1777057753296,7939,-34879,14008,-1866804,-951728,1178969,0,0,0,226,302,190,248,180,257,309,240,234,200,252,127,0,,,,,
2,1777057753296,1320,86,13357,2492330,-50090,-377514,0,0,0,440,479,242,407,419,463,284,200,343,249,171,544,0,,,,,
1,1777057753312,12629,-34797,14300,-439822,-183259,1288925,0,0,0,211,284,167,253,173,245,359,292,218,248,339,105,0,,,,,
2,1777057753312,1933,-67,14099,3017674,-43982,-384845,0,0,0,446,485,254,401,422,466,262,199,343,249,170,545,0,,,,,
1,1777057753328,10428,-26848,17516,1134987,1447750,813672,0,0,0,203,264,146,248,169,226,405,400,205,311,397,92,0,,,,,
2,1777057753328,2727,-76,15166,3626096,-79412,-472809,0,0,0,454,475,260,388,426,466,238,192,332,239,166,537,0,,,,,
1,1777057753344,2455,-5699,17042,2820975,3200933,370184,0,0,0,219,254,123,265,166,208,455,451,190,365,423,72,0,,,,,
2,1777057753344,3316,0,16635,4296826,-141720,-635299,0,0,0,444,466,228,395,431,467,223,180,331,231,163,518,0,,,,,
1,1777057753360,-2364,8657,15257,4130670,3488040,239459,0,0,0,235,258,139,280,162,224,461,460,202,409,437,76,0,,,,,
2,1777057753360,4096,-138,18975,5180137,-166155,-874759,0,0,0,440,443,226,405,410,455,223,162,343,221,147,462,0,,,,,
1,1777057753376,-880,4986,20157,4934569,2268753,389732,0,0,0,245,260,164,280,156,241,467,467,215,434,442,90,0,,,,,
2,1777057753376,4570,-382,22163,6030461,-81855,-1105666,0,0,0,422,433,241,396,399,453,226,152,335,204,136,406,0,,,,,
1,1777057753392,23,-2723,25709,4260174,857654,525344,0,0,0,240,262,224,280,162,268,463,464,231,443,445,108,0,,,,,
2,1777057753392,5211,57,26489,6976081,131946,-1317025,0,0,0,367,420,223,380,383,423,224,159,309,184,130,348,0,,,,,
1,1777057753408,-2330,-1627,18932,2152689,271224,212581,0,0,0,249,275,229,282,168,282,475,474,233,435,449,113,0,,,,,
2,1777057753408,6389,698,29289,7775092,238237,-1533271,0,0,0,314,401,211,345,354,382,241,190,280,169,130,310,0,,,,,
1,1777057753424,-2957,1832,9810,982271,144164,-111177,0,0,0,268,288,219,303,175,288,485,484,233,448,458,120,0,,,,,
2,1777057753424,7633,1713,29514,8372518,350636,-1883908,0,0,0,255,378,209,298,326,341,260,231,251,139,126,244,0,,,,,
1,1777057753440,-2531,1636,7729,654847,201585,-168598,0,0,0,287,301,227,320,177,294,490,489,243,461,467,130,0,,,,,
2,1777057753440,8710,3785,26235,8602204,756251,-2343279,0,0,0,239,375,219,283,311,323,273,260,244,124,131,202,0,,,,,
1,1777057753456,-2110,507,9858,250454,328645,-113620,0,0,0,300,314,236,322,178,294,497,495,248,458,471,132,0,,,,,
2,1777057753456,9724,7619,18573,8218580,930958,-2897944,0,0,0,238,378,224,280,306,320,277,273,242,122,133,194,0,,,,,
1,1777057753472,-1866,1105,10887,-68416,328645,-57421,0,0,0,310,321,233,327,185,289,502,501,241,456,472,131,0,,,,,
2,1777057753472,7312,14276,12797,5811771,157603,-3131295,0,0,0,241,377,221,278,304,316,279,274,238,122,134,190,0,,,,,
1,1777057753488,-1823,1952,10294,-134390,197920,-30543,0,0,0,317,324,227,336,189,287,503,501,237,463,479,134,0,,,,,
2,1777057753488,3469,19885,12165,1235169,-999375,-2076941,0,0,0,245,377,221,276,301,311,281,275,237,122,133,187,0,,,,,
1,1777057753504,-1952,2148,9724,-9773,69638,-17104,0,0,0,308,325,232,340,188,289,500,494,240,473,481,141,0,,,,,
2,1777057753504,2660,17147,13333,-3488040,-2127032,-87964,0,0,0,248,377,222,277,299,311,283,278,237,122,133,186,0,,,,,
1,1777057753520,-1966,2100,9968,138055,2443,8552,0,0,0,307,322,240,336,182,304,498,490,271,456,472,167,0,,,,,
2,1777057753520,6278,8126,10155,-5012760,-2506990,1007927,0,0,0,245,377,223,278,301,314,283,281,237,121,134,186,0,,,,,
1,1777057753536,-1890,2048,10150,282219,-81855,41538,0,0,0,315,332,235,339,182,304,498,482,260,441,469,167,0,,,,,
2,1777057753536,8734,3914,6298,-4670675,-1979203,836885,0,0,0,235,381,224,274,303,314,282,281,237,119,135,187,0,,,,,
1,1777057753552,-1895,1919,9911,377514,-182037,62308,0,0,0,331,320,235,339,181,312,498,456,267,429,469,189,0,,,,,
2,1777057753552,8059,4848,5403,-4489859,-1004262,229685,0,0,0,229,382,223,269,304,312,282,281,237,117,135,186,0,,,,,
1,1777057753568,-2010,1751,9566,386066,-223576,69638,0,0,0,319,344,235,339,194,320,489,452,272,420,456,189,0,,,,,
2,1777057753568,5623,6384,7528,-5318192,-416610,25656,0,0,0,232,383,223,275,308,315,283,285,238,117,135,186,0,,,,,
1,1777057753584,-2120,1651,9456,339641,-193033,72082,0,0,0,320,333,234,352,184,321,488,442,269,412,457,194,0,,,,,
2,1777057753584,4699,6025,9011,-6082996,-243124,116064,0,0,0,228,384,224,271,308,313,281,285,235,116,137,187,0,,,,,
1,1777057753600,-2172,1617,9471,288328,-128281,78190,0,0,0,326,328,252,368,171,321,489,434,279,410,454,196,0,,,,,
2,1777057753600,5187,4804,9370,-6339559,109955,217468,0,0,0,230,388,224,275,310,317,281,286,237,121,139,188,0,,,,,
1,1777057753616,-2158,1617,9475,263893,-81855,83077,0,0,0,317,331,248,365,182,324,489,429,284,398,450,196,0,,,,,
2,1777057753616,4972,4221,10160,-6415306,686612,267558,0,0,0,223,387,227,272,309,317,280,286,240,118,138,185,0,,,,,
1,1777057753632,-2120,1641,9475,273667,-58643,85521,0,0,0,314,335,239,355,187,323,488,402,284,399,430,201,0,,,,,
2,1777057753632,3900,3938,11811,-6511823,1226617,368962,0,0,0,218,386,227,271,311,317,281,288,240,118,142,188,0,,,,,
1,1777057753648,-2077,1636,9509,295658,-43982,86742,0,0,0,316,336,241,353,186,324,485,377,285,394,415,211,0,,,,,
2,1777057753648,3220,3302,13543,-6614448,1401324,505796,0,0,0,216,386,227,270,308,318,259,280,245,115,137,186,0,,,,,
1,1777057753664,-2057,1579,9566,318871,-37873,81855,0,0,0,313,337,239,356,196,332,487,372,288,383,411,227,0,,,,,
2,1777057753664,3110,2732,14989,-6646213,1483180,568104,0,0,0,216,387,229,270,308,318,279,287,243,117,137,187,0,,,,,
1,1777057753680,-2057,1502,9581,329867,-35430,74525,0,0,0,312,342,237,364,205,336,491,354,294,395,387,247,0,,,,,
2,1777057753680,3077,2742,16625,-6653544,1618792,552222,0,0,0,216,387,229,272,309,320,286,290,244,117,138,188,0,,,,,
1,1777057753696,-2048,1421,9566,342084,-35430,72082,0,0,0,316,342,249,374,221,347,487,343,304,382,373,271,0,,,,,
2,1777057753696,2790,3455,19387,-6805038,1821600,615752,0,0,0,217,386,228,275,311,322,288,289,244,120,140,188,0,,,,,
1,1777057753712,-2029,1344,9557,354301,-39095,83077,0,0,0,334,351,252,378,225,350,488,341,310,361,361,294,0,,,,,
2,1777057753712,2660,3843,22636,-7061602,1977981,871093,0,0,0,215,387,229,274,310,322,290,289,245,120,140,190,0,,,,,
1,1777057753728,-2053,1296,9605,368962,-42760,98960,0,0,0,342,343,252,379,231,343,485,293,304,367,329,318,0,,,,,
2,1777057753728,2632,2120,26604,-7316943,2127032,1479515,0,0,0,213,386,227,276,309,322,292,291,247,119,139,190,0,,,,,
1,1777057753744,-2139,1277,9700,399505,-39095,119729,0,0,0,303,351,267,371,252,380,490,277,319,358,313,357,0,,,,,
2,1777057753744,2493,-2115,29633,-7268074,2254092,2140471,0,0,0,215,385,226,282,310,322,294,289,246,122,139,188,0,,,,,
1,1777057753760,-2263,1277,9834,477696,-26878,152716,0,0,0,307,372,298,391,280,399,480,262,338,350,294,384,0,,,,,
2,1777057753760,2029,-9734,31720,-6769608,2334726,2601064,0,0,0,220,387,227,284,311,323,295,287,243,123,140,188,0,,,,,
1,1777057753776,-2345,1225,9978,577878,-20769,199142,0,0,0,321,362,274,376,272,393,465,233,329,334,270,398,0,,,,,
2,1777057753776,1675,-19664,30811,-5855754,1965764,2316400,0,0,0,222,385,224,287,311,325,298,289,245,122,138,188,0,,,,,
1,1777057753792,-2412,1129,10107,685390,-31764,255341,0,0,0,327,363,277,382,279,419,466,230,336,316,223,434,0,,,,,
2,1777057753792,1990,-28987,26149,-4674340,1307251,1412320,0,0,0,222,384,223,287,311,324,299,288,245,127,141,191,0,,,,,
1,1777057753808,-2517,1024,10346,784350,-43982,315206,0,0,0,343,364,280,394,305,438,460,206,338,293,198,446,0,,,,,
2,1777057753808,-469,-34027,19511,-3089756,1029918,-45204,0,0,0,222,384,226,289,311,324,303,290,249,127,140,191,0,,,,,
1,1777057753824,-2646,918,10763,934623,-37873,387288,0,0,0,355,374,262,402,314,437,431,186,340,285,198,466,0,,,,,
2,1777057753824,-5312,-35343,16314,-1637118,856433,-1165530,0,0,0,223,387,227,289,316,327,303,290,249,127,139,191,0,,,,,
1,1777057753840,-2378,842,11289,1126435,-31764,443488,0,0,0,359,385,246,413,311,446,401,191,344,280,196,488,0,,,,,
2,1777057753840,-8461,-34821,16027,-371406,229685,-1673770,0,0,0,220,387,223,287,313,325,301,289,246,125,140,189,0,,,,,
1,1777057753856,-1866,775,12041,1412320,-26878,452040,0,0,0,362,388,228,429,320,469,378,211,361,265,190,502,0,,,,,
2,1777057753856,-6331,-31686,16405,739146,-582765,-1556484,0,0,0,226,387,226,290,315,325,316,314,248,139,173,178,0,,,,,
1,1777057753872,-2067,670,12701,1762957,-46425,425162,0,0,0,369,394,203,441,331,478,347,224,390,257,189,527,0,,,,,
2,1777057753872,-3196,-22330,17999,1843591,-1214400,-1164309,0,0,0,219,373,207,293,310,312,339,368,231,162,230,170,0,,,,,
1,1777057753888,-2512,559,13333,2182010,-68416,449596,0,0,0,386,407,217,447,337,475,314,205,392,252,185,542,0,,,,,
2,1777057753888,1454,1718,18291,2781880,-1966986,-251676,0,0,0,218,364,202,286,300,305,354,402,225,206,280,170,0,,,,,
1,1777057753904,-2684,550,13955,2702467,-73303,536339,0,0,0,376,433,225,438,362,478,256,190,390,227,170,554,0,,,,,
2,1777057753904,4627,16089,11648,3501479,-2379930,872315,0,0,0,228,358,196,294,294,305,375,425,221,248,324,164,0,,,,,
1,1777057753920,-2699,540,14553,3255911,-46425,615752,0,0,0,373,419,214,421,361,501,201,190,383,204,164,553,0,,,,,
2,1777057753920,1469,8346,10366,4594928,-1844813,1303586,0,0,0,228,365,199,297,301,311,389,439,226,242,333,164,0,,,,,
1,1777057753936,-3512,507,15180,3854559,13439,718377,0,0,0,403,414,212,405,354,474,175,191,391,192,160,536,0,,,,,
2,1777057753936,-3785,-1818,17262,4853935,-670730,789237,0,0,0,225,374,213,294,308,319,397,447,235,212,328,169,0,,,,,
1,1777057753952,-4723,282,16372,4482529,120951,968832,0,0,0,410,406,223,382,365,467,166,214,383,169,164,505,0,,,,,
2,1777057753952,-3421,-1402,19818,4015828,-56199,-129503,0,0,0,232,379,233,295,306,321,406,459,236,202,338,172,0,,,,,
1,1777057753968,-5479,-124,18382,5084842,243124,1258382,0,0,0,395,424,224,366,373,459,157,188,380,155,154,441,0,,,,,
2,1777057753968,1794,3048,16204,3021339,35430,-629191,0,0,0,241,387,253,297,305,322,418,473,235,203,350,177,0,,,,,
1,1777057753984,-6829,-268,20799,5720142,373849,1557706,0,0,0,362,385,204,347,340,420,154,163,363,158,138,374,0,,,,,
2,1777057753984,3709,2110,12835,2222327,-26878,-232128,0,0,0,249,393,263,305,308,328,434,482,238,219,368,187,0,,,,,
1,1777057754000,-8662,-258,22737,6401867,579100,1981646,0,0,0,319,348,203,324,274,380,161,156,323,151,128,314,0,,,,,
2,1777057754000,2684,626,11452,1413542,-162490,85521,0,0,0,266,397,272,320,310,336,438,486,242,257,401,213,0,,,,,
1,1777057754016,-9317,-47,24331,6938207,896750,2399478,0,0,0,280,321,210,293,219,347,181,171,299,148,149,271,0,,,,,
2,1777057754016,1555,363,11136,568104,-257785,123394,0,0,0,295,416,282,334,321,345,466,491,249,242,368,234,0,,,,,
1,1777057754032,-8762,1804,24637,7386582,1265712,2733011,0,0,0,240,295,210,256,196,310,219,207,266,155,203,204,0,,,,,
2,1777057754032,1435,938,10763,139277,-237015,32986,0,0,0,305,416,286,336,322,345,466,504,249,292,407,236,0,,,,,
1,1777057754048,-8518,3804,22828,7795862,1539380,2952922,0,0,0,222,273,208,238,183,276,259,235,236,169,253,148,0,,,,,
2,1777057754048,1574,1579,10222,32986,-151494,-26878,0,0,0,316,419,288,340,319,347,480,500,252,252,359,240,0,,,,,
1,1777057754064,-11222,5781,18071,7933917,1436755,3138625,0,0,0,234,265,213,242,166,262,279,239,241,181,270,145,0,,,,,
2,1777057754064,1622,1756,10011,51312,-79412,-19547,0,0,0,324,419,292,341,317,344,470,505,246,282,387,240,0,,,,,
1,1777057754080,-12342,11165,12873,6555805,395840,3159395,0,0,0,234,274,209,239,166,261,285,253,240,181,277,141,0,,,,,
2,1777057754080,1660,1785,9964,64751,-73303,-15882,0,0,0,331,422,291,344,319,349,466,503,256,261,361,245,0,,,,,
1,1777057754096,-7221,18162,11567,2687807,-98960,1880243,0,0,0,236,280,189,238,170,248,290,254,226,186,279,128,0,,,,,
2,1777057754096,1636,1823,9968,84299,-109955,-24434,0,0,0,334,424,290,346,322,349,471,499,252,253,350,249,0,,,,,
1,1777057754112,-4541,16707,12227,-1863138,1120326,-700051,0,0,0,235,279,194,238,173,258,288,259,229,186,280,142,0,,,,,
2,1777057754112,1550,1899,9978,144164,-120951,-35430,0,0,0,333,425,291,342,324,355,474,497,257,251,340,252,0,,,,,
1,1777057754128,-8202,10375,9863,-3857003,1690874,-2042733,0,0,0,241,278,190,247,173,250,299,259,222,204,280,128,0,,,,,
2,1777057754128,1483,1899,9925,212581,-91629,-37873,0,0,0,333,425,291,343,324,356,468,490,260,250,329,252,0,,,,,
1,1777057754144,-10246,5910,6599,-3652974,467922,-1441641,0,0,0,244,277,182,253,171,245,313,252,214,213,281,125,0,,,,,
2,1777057754144,1483,1832,9844,273667,-47647,-32986,0,0,0,336,425,290,347,323,356,461,484,261,275,348,249,0,,,,,
1,1777057754160,-7016,5173,6006,-3600439,-723264,-514348,0,0,0,240,280,182,249,172,240,305,257,216,209,286,125,0,,,,,
2,1777057754160,1517,1765,9796,306654,-28099,-31764,0,0,0,342,423,292,349,323,359,457,476,263,310,373,246,0,,,,,
1,1777057754176,-3239,6154,7820,-4397007,-546113,-348193,0,0,0,242,281,185,249,173,240,303,261,217,206,279,124,0,,,,,
2,1777057754176,1550,1679,9763,318871,-26878,-37873,0,0,0,348,424,291,352,326,357,455,458,262,289,335,252,0,,,,,
1,1777057754192,-4063,5336,8777,-5181358,-211359,-667064,0,0,0,238,281,190,246,174,244,296,257,220,198,280,127,0,,,,,
2,1777057754192,1584,1622,9729,313984,-41538,-45204,0,0,0,352,423,287,353,333,356,459,448,263,252,287,277,0,,,,,
1,1777057754208,-4670,4115,9279,-5503895,-554665,-821002,0,0,0,233,279,196,240,170,246,294,251,226,190,275,129,0,,,,,
2,1777057754208,1622,1636,9753,328645,-68416,-52534,0,0,0,360,430,287,358,336,363,459,426,276,258,286,293,0,,,,,
1,1777057754224,-3546,3244,10198,-5523443,-1194852,-874759,0,0,0,232,278,201,235,185,245,293,248,228,185,271,131,0,,,,,
2,1777057754224,1617,1612,9815,368962,-102625,-61086,0,0,0,362,435,308,364,344,379,449,405,283,254,269,308,0,,,,,
1,1777057754240,-2211,2814,11835,-5582086,-1437976,-979827,0,0,0,236,279,202,238,194,246,292,247,227,185,273,134,0,,,,,
2,1777057754240,1555,1517,9834,393397,-118507,-68416,0,0,0,366,435,300,366,339,385,451,389,280,255,257,313,0,,,,,
1,1777057754256,-1866,2359,13529,-5750685,-1490511,-1037249,0,0,0,239,279,198,248,172,253,293,250,226,188,278,132,0,,,,,
2,1777057754256,1483,1426,9801,390953,-102625,-70860,0,0,0,379,440,294,372,348,394,396,347,293,256,249,325,0,,,,,
1,1777057754272,-1866,1804,15137,-5925392,-1567480,-954171,0,0,0,237,281,199,249,177,255,295,255,227,192,283,129,0,,,,,
2,1777057754272,1517,1435,9853,404392,-86742,-69638,0,0,0,375,436,294,374,356,402,437,369,293,254,250,340,0,,,,,
1,1777057754288,-1722,1043,16855,-6057339,-1677435,-803898,0,0,0,239,281,202,249,175,255,294,252,227,189,277,127,0,,,,,
2,1777057754288,1564,1397,9949,443488,-94073,-69638,0,0,0,385,437,294,380,363,401,437,343,291,256,243,347,0,,,,,
1,1777057754304,-1593,114,18468,-6107430,-1744631,-706160,0,0,0,238,280,203,248,169,251,296,249,229,186,271,130,0,,,,,
2,1777057754304,1569,1287,9978,482583,-106290,-73303,0,0,0,393,441,306,387,365,409,432,318,297,262,237,362,0,,,,,
1,1777057754320,-2249,-631,19885,-6051231,-1765400,-907745,0,0,0,238,279,204,248,168,253,298,245,228,194,272,130,0,,,,,
2,1777057754320,1541,1182,10002,519235,-92851,-86742,0,0,0,403,450,313,391,369,418,429,295,301,266,224,384,0,,,,,
1,1777057754336,-3211,-1249,21454,-5954714,-1881464,-1392772,0,0,0,238,280,205,250,168,253,298,244,227,200,270,135,0,,,,,
2,1777057754336,1617,1153,10126,568104,-53756,-107512,0,0,0,410,462,308,392,378,423,423,285,304,254,193,409,0,,,,,
1,1777057754352,-3579,-2479,23383,-5854532,-2052507,-2182010,0,0,0,238,279,207,248,166,253,298,242,230,188,269,132,0,,,,,
2,1777057754352,1813,1100,10370,658512,-29321,-149051,0,0,0,413,467,303,396,384,429,413,274,311,244,168,429,0,,,,,
1,1777057754368,-3589,-5269,25269,-5709146,-2136806,-2985909,0,0,0,236,280,203,250,171,257,299,245,230,186,268,128,0,,,,,
2,1777057754368,1928,1009,10600,794124,-58643,-207694,0,0,0,421,465,305,399,384,434,401,253,316,248,166,446,0,,,,,
1,1777057754384,-3780,-11040,26058,-5480682,-1982868,-3259576,0,0,0,236,281,203,248,170,255,301,243,230,186,266,128,0,,,,,
2,1777057754384,1899,918,10686,956614,-125838,-265115,0,0,0,436,472,308,402,392,441,389,241,322,249,167,469,0,,,,,
1,1777057754400,-4838,-18530,24862,-5208237,-1615127,-2855184,0,0,0,237,282,204,249,172,256,298,243,229,186,267,129,0,,,,,
2,1777057754400,1943,775,11012,1149648,-177150,-316428,0,0,0,442,481,304,412,403,455,374,233,327,256,171,484,0,,,,,
1,1777057754416,-5762,-27580,20732,-4692666,-1269377,-1543045,0,0,0,236,283,201,247,172,254,301,246,230,187,270,126,0,,,,,
2,1777057754416,2024,655,11725,1372003,-212581,-368962,0,0,0,434,483,292,409,412,455,358,226,325,253,171,491,0,,,,,
1,1777057754432,-1373,-32093,16865,-3695734,-1356120,-130725,0,0,0,235,283,199,247,171,255,303,249,235,186,264,127,0,,,,,
2,1777057754432,1727,670,12514,1715309,-248011,-414166,0,0,0,440,503,274,415,422,457,341,224,329,258,176,516,0,,,,,
1,1777057754448,6815,-34831,14137,-2129476,-1172861,1100779,0,0,0,225,280,185,245,173,250,308,273,229,197,291,122,0,,,,,
2,1777057754448,1201,670,12993,2089159,-273667,-400727,0,0,0,444,499,258,406,418,444,309,222,322,257,176,526,0,,,,,
1,1777057754464,12481,-37094,15194,-680503,-204028,1315803,0,0,0,207,273,157,241,174,225,346,338,207,231,369,99,0,,,,,
2,1777057754464,933,607,13448,2502104,-267558,-329867,0,0,0,452,503,257,406,425,448,276,225,313,247,176,531,0,,,,,
1,1777057754480,12423,-37195,17793,1775174,2494773,960280,0,0,0,208,269,147,248,164,213,412,417,198,277,404,83,0,,,,,
2,1777057754480,1541,540,14343,3025004,-263893,-270002,0,0,0,461,497,246,404,426,455,256,226,315,246,173,536,0,,,,,
1,1777057754496,3383,-13764,18210,4378682,4294382,561996,0,0,0,215,264,134,251,167,215,456,457,202,341,419,76,0,,,,,
2,1777057754496,2440,469,15328,3582113,-334754,-296880,0,0,0,461,489,240,405,435,449,237,217,312,243,175,529,0,,,,,
1,1777057754512,-2043,6436,19377,4742757,3079982,211359,0,0,0,224,267,156,262,171,239,462,464,213,374,431,93,0,,,,,
2,1777057754512,3493,392,16463,4201531,-499687,-423940,0,0,0,463,484,244,400,429,448,225,204,310,236,167,504,0,,,,,
1,1777057754528,-1028,6307,22330,4312708,1415985,217468,0,0,0,231,271,173,262,170,230,469,469,201,384,433,89,0,,,,,
2,1777057754528,5168,172,18597,5020090,-758694,-753807,0,0,0,455,480,252,393,421,441,219,188,302,223,155,460,0,,,,,
1,1777057754544,-464,-1048,21392,3020117,536339,329867,0,0,0,225,281,177,264,186,242,472,473,204,378,437,97,0,,,,,
2,1777057754544,5920,-19,21751,5833763,-1012814,-1149648,0,0,0,427,467,251,377,412,420,217,179,292,207,147,404,0,,,,,
1,1777057754560,-1794,-732,14271,1718974,195476,152716,0,0,0,248,283,210,288,174,267,473,474,219,406,438,107,0,,,,,
2,1777057754560,6700,181,25221,6676757,-1139874,-1492954,0,0,0,370,446,235,355,396,395,225,185,281,190,143,358,0,,,,,
1,1777057754576,-2613,2397,7379,940732,91629,-112399,0,0,0,278,290,232,303,171,300,474,474,242,425,444,125,0,,,,,
2,1777057754576,7561,674,26312,7324274,-1020144,-1781283,0,0,0,309,422,216,335,368,374,240,210,264,190,150,319,0,,,,,
1,1777057754592,-2234,1325,8375,445931,182037,-163711,0,0,0,296,294,238,316,172,294,484,483,243,442,453,127,0,,,,,
2,1777057754592,7102,2110,26125,7885048,-621860,-2135584,0,0,0,267,392,211,307,330,342,259,248,246,188,162,256,0,,,,,
1,1777057754608,-1861,713,10447,-91629,349414,-117286,0,0,0,301,309,258,328,178,300,491,490,244,445,459,132,0,,,,,
2,1777057754608,6724,3551,24881,8155050,-295658,-2474004,0,0,0,216,377,220,263,308,308,267,283,233,109,136,181,0,,,,,
1,1777057754624,-1574,1746,10710,-268780,362853,-64751,0,0,0,306,311,275,334,176,304,495,494,253,451,461,138,0,,,,,
2,1777057754624,8236,5580,19277,7832514,-400727,-2801427,0,0,0,229,387,225,269,318,322,268,300,245,118,147,197,0,,,,,
1,1777057754640,-1531,2450,10203,-174707,228463,-39095,0,0,0,312,312,273,339,174,299,501,501,251,459,469,139,0,,,,,
2,1777057754640,7834,12553,12792,5457470,-774577,-2613281,0,0,0,238,388,228,274,315,315,270,290,236,127,141,195,0,,,,,
1,1777057754656,-1655,2459,9853,35430,48869,-19547,0,0,0,318,320,269,350,179,300,503,503,245,460,475,147,0,,,,,
2,1777057754656,5498,18679,11768,1274264,-1017701,-1247386,0,0,0,243,386,226,281,317,314,279,293,236,128,141,192,0,,,,,
1,1777057754672,-1665,2340,10054,179594,-56199,14660,0,0,0,325,325,265,362,183,307,501,500,247,452,473,157,0,,,,,
2,1777057754672,4694,15864,12203,-2809980,-1373225,814894,0,0,0,244,388,232,277,315,314,276,294,238,121,138,191,0,,,,,
1,1777057754688,-1684,2254,10059,315206,-164933,56199,0,0,0,327,329,251,365,183,303,508,503,244,441,471,161,0,,,,,
2,1777057754688,7317,8327,8140,-3491705,-1262047,1391551,0,0,0,235,389,227,277,318,317,279,297,239,123,141,194,0,,,,,
1,1777057754704,-1794,2086,9743,368962,-219911,78190,0,0,0,319,337,248,371,189,304,511,499,246,439,473,177,0,,,,,
2,1777057754704,7633,4584,4804,-3351206,-415388,940732,0,0,0,240,389,226,284,314,314,287,291,234,140,164,193,0,,,,,
1,1777057754720,-1909,1938,9490,355523,-210137,90408,0,0,0,316,337,255,364,199,336,495,476,274,440,462,195,0,,,,,
2,1777057754720,3804,5867,6135,-3832568,197920,356745,0,0,0,239,388,222,284,314,310,285,290,230,142,170,192,0,,,,,
1,1777057754736,-1952,1890,9322,290771,-136833,91629,0,0,0,308,339,280,348,195,357,495,477,285,416,458,226,0,,,,,
2,1777057754736,1986,6403,7805,-4680449,92851,252898,0,0,0,234,389,222,279,316,311,276,294,230,134,168,189,0,,,,,
1,1777057754752,-1928,1962,9418,273667,-78190,91629,0,0,0,314,340,268,361,200,335,495,439,275,417,455,208,0,,,,,
2,1777057754752,3134,5379,8044,-5236336,31764,263893,0,0,0,230,390,223,276,318,314,271,296,231,132,175,188,0,,,,,
1,1777057754768,-1871,1981,9581,299323,-51312,91629,0,0,0,312,337,261,364,203,336,499,417,279,406,451,211,0,,,,,
2,1777057754768,3326,4441,8499,-5406157,569326,91629,0,0,0,223,391,223,274,321,314,271,297,231,132,179,187,0,,,,,
1,1777057754784,-1832,1923,9648,322536,-47647,89186,0,0,0,316,344,258,372,213,336,500,402,277,413,408,224,0,,,,,
2,1777057754784,2134,4048,9839,-5538104,1106887,-30543,0,0,0,225,391,222,272,320,311,272,300,230,130,175,184,0,,,,,
1,1777057754800,-1847,1847,9605,323758,-46425,79412,0,0,0,304,369,265,370,247,351,493,382,286,394,396,251,0,,,,,
2,1777057754800,961,3833,11567,-5725029,1364672,14660,0,0,0,231,391,223,273,323,311,274,300,230,131,174,185,0,,,,,
1,1777057754816,-1880,1837,9600,350636,-37873,78190,0,0,0,306,383,273,369,269,350,491,355,300,386,384,276,0,,,,,
2,1777057754816,880,3254,13165,-5925392,1528384,134390,0,0,0,229,392,225,274,328,313,275,301,230,133,176,186,0,,,,,
1,1777057754832,-1899,1818,9657,397062,-29321,84299,0,0,0,321,371,298,368,269,363,486,333,308,372,370,292,0,,,,,
2,1777057754832,713,2723,14773,-6040235,1710422,195476,0,0,0,239,392,224,280,318,311,277,300,232,138,179,183,0,,,,,
1,1777057754848,-1880,1718,9705,443488,-29321,92851,0,0,0,327,362,294,368,265,369,480,315,308,359,351,310,0,,,,,
2,1777057754848,497,2081,16549,-6111095,1799608,219911,0,0,0,223,391,224,279,322,316,273,298,230,133,180,183,0,,,,,
1,1777057754864,-1847,1588,9681,455705,-34208,94073,0,0,0,325,363,281,370,266,371,470,296,311,351,329,328,0,,,,,
2,1777057754864,871,1569,18114,-6178291,1821600,268780,0,0,0,218,390,225,278,322,316,274,301,231,133,179,183,0,,,,,
1,1777057754880,-1828,1512,9686,455705,-35430,94073,0,0,0,329,359,298,375,265,390,460,280,319,345,314,339,0,,,,,
2,1777057754880,1871,1698,19803,-6288246,1936442,436157,0,0,0,213,390,225,277,329,317,284,307,235,127,167,183,0,,,,,
1,1777057754896,-1847,1474,9767,469144,-46425,100181,0,0,0,331,360,287,380,264,397,464,273,318,352,291,360,0,,,,,
2,1777057754896,2837,1885,21962,-6427524,2123367,729373,0,0,0,218,390,223,278,321,315,281,303,232,129,171,183,0,,,,,
1,1777057754912,-1909,1397,9868,494800,-63529,118507,0,0,0,323,368,318,372,264,420,457,252,329,323,276,396,0,,,,,
2,1777057754912,3627,1340,24235,-6516710,2265088,1114218,0,0,0,230,390,225,290,321,321,300,303,235,141,171,188,0,,,,,
1,1777057754928,-2048,1301,9949,524122,-70860,149051,0,0,0,331,371,331,387,275,425,443,233,328,312,244,399,0,,,,,
2,1777057754928,4221,-478,26039,-6460510,2366491,1541823,0,0,0,234,388,223,296,319,320,309,302,237,202,193,184,0,,,,,
1,1777057754944,-2211,1229,10026,568104,-40317,205250,0,0,0,328,391,315,389,301,436,435,234,334,296,250,403,0,,,,,
2,1777057754944,3072,-4737,27623,-6108652,2629163,1937664,0,0,0,227,388,222,287,320,318,293,299,237,164,185,184,0,,,,,
1,1777057754960,-2239,1182,10083,624304,4886,270002,0,0,0,325,424,271,403,319,424,432,214,350,296,219,419,0,,,,,
2,1777057754960,-28,-9992,28609,-5615073,2678033,2087937,0,0,0,229,388,222,286,322,321,291,301,238,136,173,185,0,,,,,
1,1777057754976,-2067,1119,10141,693942,37873,328645,0,0,0,337,425,241,408,324,409,426,200,339,300,213,428,0,,,,,
2,1777057754976,-1698,-17779,26388,-4840496,1921782,1942551,0,0,0,234,388,222,289,320,323,295,302,241,140,174,187,0,,,,,
1,1777057754992,-1880,1005,10308,781907,36651,357967,0,0,0,352,414,236,403,312,411,408,213,351,295,226,452,0,,,,,
2,1777057754992,-196,-25819,20593,-3755599,1067792,1243721,0,0,0,232,388,222,288,320,322,294,300,241,144,178,189,0,,,,,
1,1777057755008,-1890,890,10624,889419,21991,373849,0,0,0,363,408,234,418,315,421,396,220,343,289,215,460,0,,,,,
2,1777057755008,-574,-30471,15060,-2577851,974940,-109955,0,0,0,227,388,221,285,321,321,294,302,239,142,176,189,0,,,,,
1,1777057755024,-1832,804,10959,1039692,21991,386066,0,0,0,366,415,237,427,323,439,381,198,354,288,201,470,0,,,,,
2,1777057755024,-7930,-31643,14477,-1511280,963945,-1263269,0,0,0,227,390,223,284,320,320,295,303,241,141,175,189,0,,,,,
1,1777057755040,-1550,717,11174,1213178,18325,376292,0,0,0,383,420,232,425,325,452,360,183,357,280,191,488,0,,,,,
2,1777057755040,-12237,-31323,15305,-355523,75747,-1503950,0,0,0,226,391,223,285,322,322,292,301,240,143,177,189,0,,,,,
1,1777057755056,-1335,559,11490,1441641,-17104,311541,0,0,0,394,438,229,421,337,453,350,176,357,274,185,510,0,,,,,
2,1777057755056,-6623,-27465,14965,999375,-1088561,-1086118,0,0,0,223,387,221,285,320,322,292,300,236,149,190,186,0,,,,,
1,1777057755072,-1727,464,12031,1712866,-52534,255341,0,0,0,388,465,222,416,364,456,324,177,364,261,188,525,0,,,,,
2,1777057755072,-81,-21186,14831,2073276,-1514945,-828333,0,0,0,208,382,222,276,315,316,298,311,231,174,242,171,0,,,,,
1,1777057755088,-2450,421,12596,2035402,-42760,290771,0,0,0,380,473,204,406,391,468,260,189,371,237,196,533,0,,,,,
2,1777057755088,3847,-3546,16812,2791654,-1483180,-532674,0,0,0,201,378,198,284,318,307,338,383,216,208,274,167,0,,,,,
1,1777057755104,-2828,277,13098,2464230,14660,433714,0,0,0,388,457,203,394,407,467,223,183,374,226,191,543,0,,,,,
2,1777057755104,6570,24809,13098,2623055,-1787391,233350,0,0,0,211,360,208,277,302,306,344,421,220,228,321,174,0,,,,,
1,1777057755120,-2732,129,13653,2928487,79412,581543,0,0,0,429,437,206,395,381,474,187,187,367,195,165,534,0,,,,,
2,1777057755120,5307,22024,6235,3170390,-2080607,847880,0,0,0,210,361,192,279,306,304,353,445,220,225,358,161,0,,,,,
1,1777057755136,-2866,19,14438,3380528,140499,681725,0,0,0,410,428,238,389,359,476,166,175,363,185,159,523,0,,,,,
2,1777057755136,-239,1909,11208,4835609,-1238834,906524,0,0,0,214,368,194,285,314,310,371,456,224,214,368,161,0,,,,,
1,1777057755152,-3795,-330,15319,3843564,234572,833220,0,0,0,410,428,229,369,324,459,177,154,376,192,150,494,0,,,,,
2,1777057755152,-3809,-5302,19095,4984660,-266337,421497,0,0,0,218,372,205,289,313,319,391,464,234,214,378,172,0,,,,,
1,1777057755168,-4096,-784,16616,4332256,348193,1048244,0,0,0,408,428,239,387,323,454,209,157,370,185,138,464,0,,,,,
2,1777057755168,-1751,459,19621,3831346,-43982,-423940,0,0,0,220,374,220,290,308,323,416,472,239,244,408,177,0,,,,,
1,1777057755184,-4326,-952,18592,4842939,461814,1222952,0,0,0,402,394,229,374,303,430,215,154,342,174,126,394,0,,,,,
2,1777057755184,2809,3177,15812,2955366,-65973,-629191,0,0,0,230,382,240,293,300,324,429,491,238,268,438,183,0,,,,,
1,1777057755200,-6178,-894,20516,5459913,627969,1437976,0,0,0,363,357,211,337,274,404,177,142,316,159,116,340,0,,,,,
2,1777057755200,4158,1454,13247,2191784,-8552,-232128,0,0,0,245,386,255,300,297,328,438,502,243,258,436,192,0,,,,,
1,1777057755216,-8006,-1191,21976,6030461,941954,1789835,0,0,0,319,338,215,308,239,371,171,147,299,152,126,303,0,,,,,
2,1777057755216,2804,425,11591,1258382,-46425,87964,0,0,0,255,386,267,306,297,331,437,498,250,267,446,198,0,,,,,
1,1777057755232,-8236,-263,22703,6455623,1280373,2167349,0,0,0,272,311,213,273,202,343,202,163,268,162,158,255,0,,,,,
2,1777057755232,2105,861,10610,614530,-128281,130725,0,0,0,264,396,281,315,300,335,441,494,250,279,445,209,0,,,,,
1,1777057755248,-6805,1478,22646,6929655,1563815,2489886,0,0,0,237,291,194,244,181,287,245,206,227,176,221,174,0,,,,,
2,1777057755248,2100,1340,10241,322536,-180816,68416,0,0,0,276,401,288,328,306,344,462,498,251,275,424,227,0,,,,,
