sole_id,timestamp,accel_x,accel_y,accel_z,gyro_x,gyro_y,gyro_z,magn_x,magn_y,magn_z,pressure_01,pressure_02,pressure_03,pressure_04,pressure_05,pressure_06,pressure_07,pressure_08,pressure_09,pressure_10,pressure_11,pressure_12,corrupt
1,1774291562208,-545,-516,9968,0,-41538,2443,0,0,0,281,234,190,264,169,273,448,365,208,452,413,316,0
2,1774291562208,229,-871,9983,14660,-47647,-10995,0,0,0,404,265,170,346,292,357,611,334,286,435,350,488,0
1,1774291562224,-545,-521,9973,0,-41538,0,0,0,0,280,233,188,265,173,276,447,363,205,453,414,318,0
2,1774291562224,224,-871,9983,12217,-45204,-10995,0,0,0,406,268,173,341,284,351,614,333,282,435,352,487,0
1,1774291562240,-545,-521,9968,0,-42760,0,0,0,0,278,231,182,264,172,275,447,364,204,450,411,317,0
2,1774291562240,229,-880,9992,12217,-45204,-10995,0,0,0,403,267,171,339,285,352,633,344,294,424,342,473,0
1,1774291562256,-540,-516,9964,-1221,-43982,0,0,0,0,278,230,182,266,169,276,449,369,209,452,413,317,0
2,1774291562256,234,-885,9992,12217,-46425,-12217,0,0,0,397,264,165,337,288,353,643,358,303,417,334,466,0
1,1774291562272,-545,-516,9964,-3665,-43982,0,0,0,0,280,233,189,263,168,276,447,364,209,449,410,314,0
2,1774291562272,229,-875,9992,10995,-47647,-12217,0,0,0,396,263,163,339,277,343,634,349,273,423,325,464,0
1,1774291562288,-550,-516,9973,-7330,-42760,0,0,0,0,278,233,187,259,168,275,448,366,205,447,410,314,0
2,1774291562288,220,-875,10002,10995,-46425,-12217,0,0,0,403,266,170,371,287,346,626,338,264,434,327,463,0
1,1774291562304,-555,-516,9978,-10995,-42760,0,0,0,0,275,234,186,252,168,273,451,373,211,447,407,317,0
2,1774291562304,224,-885,10007,10995,-45204,-12217,0,0,0,407,270,177,346,288,344,610,340,240,420,344,469,0
1,1774291562320,-559,-512,9983,-15882,-43982,0,0,0,0,271,237,185,251,170,273,452,368,211,454,403,325,0
2,1774291562320,229,-875,9992,10995,-45204,-12217,0,0,0,402,261,167,332,279,340,619,326,253,413,333,466,0
1,1774291562336,-550,-507,9983,-20769,-45204,0,0,0,0,270,234,185,252,172,278,452,370,215,447,386,322,0
2,1774291562336,234,-871,10002,9773,-46425,-12217,0,0,0,398,266,168,371,311,382,624,359,270,431,350,473,0
1,1774291562352,-550,-502,9987,-21991,-46425,0,0,0,0,269,236,186,253,177,279,453,374,215,445,398,322,0
2,1774291562352,224,-871,10011,9773,-46425,-12217,0,0,0,401,273,174,343,284,345,619,342,266,447,359,489,0
1,1774291562368,-545,-492,9992,-19547,-45204,0,0,0,0,271,237,186,255,175,277,450,373,212,444,399,319,0
2,1774291562368,215,-875,10016,10995,-46425,-12217,0,0,0,402,273,170,336,276,342,628,350,278,424,333,465,0
1,1774291562384,-545,-488,10007,-13439,-45204,0,0,0,0,271,233,184,250,170,274,449,371,209,446,399,321,0
2,1774291562384,215,-875,10016,12217,-45204,-12217,0,0,0,403,271,169,348,294,361,636,349,295,425,340,464,0
1,1774291562400,-555,-478,10016,-4886,-46425,0,0,0,0,272,231,185,250,169,275,447,370,210,446,398,322,0
2,1774291562400,215,-875,10021,14660,-42760,-10995,0,0,0,401,273,166,366,318,357,620,343,262,430,350,469,0
1,1774291562416,-564,-478,10002,1221,-46425,0,0,0,0,275,232,187,254,171,276,446,369,209,447,397,322,0
2,1774291562416,224,-875,10007,15882,-42760,-10995,0,0,0,398,277,168,355,313,351,608,332,275,434,357,480,0
1,1774291562432,-569,-483,9978,7330,-46425,0,0,0,0,275,232,189,254,171,275,446,369,209,447,395,321,0
2,1774291562432,229,-875,9983,17104,-42760,-10995,0,0,0,402,282,171,360,310,360,610,326,279,439,360,486,0
1,1774291562448,-555,-483,9964,7330,-45204,0,0,0,0,273,229,188,252,166,277,446,370,210,442,391,316,0
2,1774291562448,229,-875,9983,14660,-46425,-12217,0,0,0,406,287,171,367,315,371,623,335,290,441,357,483,0
1,1774291562464,-555,-483,9973,2443,-43982,0,0,0,0,274,226,187,253,168,276,439,365,205,445,397,320,0
2,1774291562464,224,-880,10002,13439,-47647,-12217,0,0,0,403,288,168,367,321,369,632,349,312,442,354,481,0
1,1774291562480,-555,-488,10002,0,-43982,0,0,0,0,278,230,186,255,168,275,448,374,206,447,396,319,0
2,1774291562480,220,-890,10031,13439,-46425,-12217,0,0,0,399,278,167,367,311,359,634,357,322,437,352,479,0
1,1774291562496,-555,-492,10016,0,-43982,0,0,0,0,280,230,186,257,170,276,449,375,211,447,395,317,0
2,1774291562496,220,-894,10031,15882,-43982,-10995,0,0,0,401,267,168,358,286,356,641,360,317,429,351,471,0
1,1774291562512,-545,-492,9997,1221,-43982,0,0,0,0,280,231,186,257,168,276,452,376,211,451,398,322,0
2,1774291562512,239,-894,9992,14660,-42760,-10995,0,0,0,397,266,165,358,292,343,630,357,286,445,367,477,0
1,1774291562528,-545,-492,9973,0,-42760,0,0,0,0,277,229,186,261,174,279,452,374,211,448,394,317,0
2,1774291562528,244,-890,9973,10995,-42760,-10995,0,0,0,396,266,169,322,250,328,609,327,286,430,351,468,0
1,1774291562544,-555,-497,9978,-2443,-42760,0,0,0,0,281,219,188,262,168,280,451,378,206,452,396,318,0
2,1774291562544,244,-890,9987,8552,-45204,-12217,0,0,0,396,269,165,345,298,362,611,350,273,425,335,459,0
1,1774291562560,-559,-492,9992,-6108,-42760,0,0,0,0,286,227,192,263,170,279,453,389,208,453,410,320,0
2,1774291562560,229,-890,9997,4886,-45204,-12217,0,0,0,391,256,165,336,269,348,619,339,279,434,349,467,0
1,1774291562576,-564,-488,9997,-12217,-42760,0,0,0,0,286,225,189,262,168,277,454,397,205,453,405,319,0
2,1774291562576,224,-885,10002,2443,-45204,-12217,0,0,0,394,249,163,337,269,350,600,323,245,442,352,474,0
1,1774291562592,-564,-488,9987,-18325,-41538,0,0,0,0,275,203,180,267,164,280,460,401,206,462,385,319,0
2,1774291562592,229,-880,10011,0,-42760,-12217,0,0,0,391,248,164,330,278,344,602,320,242,432,343,464,0
1,1774291562608,-559,-492,9987,-24434,-42760,-1221,0,0,0,217,145,141,280,163,286,468,384,213,476,374,318,0
2,1774291562608,220,-866,10026,0,-39095,-10995,0,0,0,391,254,169,343,279,346,619,331,245,430,342,457,0
1,1774291562624,-555,-492,9997,-32986,-48869,-1221,0,0,0,157,97,102,288,166,288,478,367,220,486,373,319,0
2,1774291562624,210,-861,10031,0,-36651,-9773,0,0,0,386,252,162,343,278,349,631,336,239,435,351,454,0
1,1774291562640,-555,-478,10002,-40317,-53756,-1221,0,0,0,122,79,82,293,176,292,481,367,219,487,374,319,0
2,1774291562640,220,-866,10016,-1221,-35430,-9773,0,0,0,383,245,155,339,268,357,633,343,255,435,350,455,0
1,1774291562656,-564,-464,10011,-45204,-54977,-2443,0,0,0,93,64,62,300,189,306,476,370,213,484,378,312,0
2,1774291562656,244,-866,10002,-7330,-37873,-9773,0,0,0,383,245,157,347,272,361,613,333,247,435,325,435,0
1,1774291562672,-574,-445,10016,-45204,-52534,-2443,0,0,0,111,74,76,285,177,293,483,376,219,485,374,306,0
2,1774291562672,268,-861,10007,-18325,-43982,-8552,0,0,0,381,247,158,348,284,351,595,318,219,439,319,416,0
1,1774291562688,-579,-435,10021,-42760,-48869,-1221,0,0,0,196,132,131,239,131,249,464,361,206,473,365,292,0
2,1774291562688,253,-861,10021,-30543,-52534,-7330,0,0,0,381,247,159,334,267,341,615,342,255,434,354,441,0
1,1774291562704,-579,-421,10021,-37873,-45204,-1221,0,0,0,222,150,145,258,147,268,466,363,205,481,370,295,0
2,1774291562704,239,-851,10031,-39095,-59864,-6108,0,0,0,378,252,166,328,279,343,613,343,263,427,351,436,0
1,1774291562720,-559,-421,10011,-30543,-43982,0,0,0,0,189,131,129,266,153,278,467,363,205,474,373,290,0
2,1774291562720,234,-832,10021,-42760,-65973,-4886,0,0,0,385,255,168,337,294,350,609,321,252,435,358,434,0
1,1774291562736,-555,-416,9997,-25656,-43982,0,0,0,0,195,139,131,265,157,274,459,361,201,473,374,286,0
2,1774291562736,229,-818,10021,-42760,-68416,-3665,0,0,0,385,253,173,318,265,348,636,342,292,436,369,430,0
1,1774291562752,-564,-406,9997,-19547,-43982,0,0,0,0,139,99,90,281,172,279,463,370,208,482,382,296,0
2,1774291562752,229,-813,10026,-39095,-68416,-3665,0,0,0,385,263,175,345,289,352,599,333,215,464,374,435,0
1,1774291562768,-569,-402,9997,-8552,-43982,0,0,0,0,160,120,105,269,169,273,460,370,205,478,382,296,0
2,1774291562768,229,-804,10045,-26878,-64751,-3665,0,0,0,380,265,168,342,299,352,594,363,225,443,370,427,0
1,1774291562784,-559,-406,9997,0,-43982,0,0,0,0,167,130,113,262,170,274,455,370,204,472,380,289,0
2,1774291562784,224,-789,10054,-9773,-63529,-4886,0,0,0,382,262,171,324,283,352,590,365,238,436,369,419,0
1,1774291562800,-559,-416,9978,6108,-45204,0,0,0,0,165,137,116,264,176,280,412,348,215,470,379,288,0
2,1774291562800,215,-784,10050,3665,-62308,-7330,0,0,0,381,261,173,315,281,343,608,393,258,433,393,425,0
1,1774291562816,-569,-411,9978,8552,-43982,0,0,0,0,167,144,119,266,184,286,420,353,217,472,380,291,0
2,1774291562816,201,-784,10054,21991,-57421,-9773,0,0,0,380,267,174,305,265,328,603,390,262,432,416,426,0
1,1774291562832,-569,-411,9983,8552,-41538,-1221,0,0,0,167,145,119,266,186,285,458,372,203,477,386,296,0
2,1774291562832,201,-789,10078,45204,-51312,-12217,0,0,0,382,267,181,309,261,332,605,412,275,434,426,435,0
1,1774291562848,-559,-406,9997,14660,-41538,-4886,0,0,0,166,144,117,268,188,282,455,372,197,479,391,296,0
2,1774291562848,205,-794,10088,72082,-46425,-13439,0,0,0,386,263,190,328,281,355,607,415,273,430,413,442,0
1,1774291562864,-559,-411,9983,21991,-41538,-7330,0,0,0,165,141,115,269,193,284,461,377,203,477,389,292,0
2,1774291562864,205,-799,10093,97738,-39095,-14660,0,0,0,385,258,191,331,276,356,584,333,254,418,362,438,0
1,1774291562880,-555,-425,9959,24434,-41538,-9773,0,0,0,173,147,117,273,187,282,470,377,205,477,383,295,0
2,1774291562880,205,-804,10102,118507,-29321,-15882,0,0,0,382,249,182,311,238,326,568,260,268,408,297,440,0
1,1774291562896,-545,-430,9935,21991,-41538,-10995,0,0,0,183,155,118,277,189,280,464,380,201,474,380,296,0
2,1774291562896,205,-818,10136,142942,-12217,-14660,0,0,0,394,250,175,315,260,328,557,234,258,389,266,433,0
1,1774291562912,-540,-435,9911,20769,-42760,-15882,0,0,0,170,139,113,274,175,282,471,363,200,475,370,306,0
2,1774291562912,205,-847,10189,169820,3665,-13439,0,0,0,393,250,173,345,268,331,522,157,234,396,210,441,0
1,1774291562928,-540,-445,9887,18325,-46425,-21991,0,0,0,106,91,71,310,196,306,487,406,216,493,395,336,0
2,1774291562928,220,-871,10289,210137,35430,-7330,0,0,0,391,253,163,307,257,313,546,168,274,306,171,432,0
1,1774291562944,-555,-445,9868,9773,-46425,-26878,0,0,0,209,168,140,273,171,286,444,399,217,484,375,336,0
2,1774291562944,272,-880,10423,268780,81855,0,0,0,0,376,240,146,288,263,317,482,156,275,287,123,427,0
1,1774291562960,-569,-435,9868,4886,-42760,-30543,0,0,0,197,157,121,282,190,265,441,422,186,494,431,318,0
2,1774291562960,378,-875,10581,366519,125838,-2443,0,0,0,380,254,168,287,250,311,382,153,228,236,154,401,0
1,1774291562976,-559,-445,9868,13439,-42760,-32986,0,0,0,127,100,68,294,198,268,473,428,210,493,451,294,0
2,1774291562976,622,-894,10873,532674,136833,-29321,0,0,0,354,231,143,292,252,312,365,79,228,202,96,375,0
1,1774291562992,-569,-454,9901,24434,-50090,-31764,0,0,0,211,145,118,284,177,263,480,430,204,491,438,283,0
2,1774291562992,1105,-885,11557,740368,116064,-97738,0,0,0,353,229,148,280,228,295,313,74,192,187,89,355,0
1,1774291563008,-607,-445,9997,41538,-65973,-26878,0,0,0,260,183,151,283,170,263,482,430,192,491,417,287,0
2,1774291563008,1483,-799,12744,999375,75747,-216246,0,0,0,338,229,153,291,237,301,270,72,154,193,97,344,0
1,1774291563024,-641,-430,10117,68416,-75747,-18325,0,0,0,182,140,108,311,192,279,509,429,207,490,416,303,0
2,1774291563024,1780,-794,13572,1392772,-40317,-375071,0,0,0,315,229,161,294,227,309,271,74,166,201,80,363,0
1,1774291563040,-665,-435,10208,106290,-85521,-6108,0,0,0,101,87,61,336,216,307,532,440,234,493,436,315,0
2,1774291563040,2890,-569,13266,1657888,-160046,-571769,0,0,0,298,237,178,285,215,320,283,102,199,204,72,384,0
1,1774291563056,-670,-440,10208,140499,-94073,0,0,0,0,95,81,63,329,214,327,539,451,249,503,437,326,0
2,1774291563056,4163,-81,12347,1712866,-61086,-949284,0,0,0,283,237,179,278,225,325,270,127,201,199,88,368,0
1,1774291563072,-684,-454,10150,171042,-96516,7330,0,0,0,102,83,87,316,207,335,549,436,268,502,406,357,0
2,1774291563072,4240,1239,11308,1642005,279776,-1428202,0,0,0,271,216,156,265,207,291,249,98,174,183,89,336,0
1,1774291563088,-693,-492,10098,188146,-86742,13439,0,0,0,148,107,120,309,209,354,522,415,283,476,380,365,0
2,1774291563088,2325,5092,10461,1193630,409279,-1764178,0,0,0,273,217,160,293,231,307,255,56,160,191,84,321,0
1,1774291563104,-693,-555,10064,199142,-69638,17104,0,0,0,224,158,131,315,200,347,523,394,233,457,346,364,0
2,1774291563104,804,8700,9806,458148,103847,-1813048,0,0,0,270,217,170,293,243,325,218,94,154,177,92,334,0
1,1774291563120,-703,-583,10059,205250,-50090,18325,0,0,0,198,139,100,324,205,337,526,399,224,460,359,364,0
2,1774291563120,813,9748,9064,-183259,-207694,-1617571,0,0,0,272,212,161,268,232,293,220,104,136,186,101,323,0
1,1774291563136,-713,-603,10045,206472,-25656,20769,0,0,0,110,93,51,340,229,337,539,350,239,471,344,369,0
2,1774291563136,784,9270,8475,-464257,-125838,-1337794,0,0,0,266,211,151,289,236,307,212,90,165,186,103,302,0
1,1774291563152,-698,-650,9992,195476,7330,24434,0,0,0,100,97,60,330,233,370,492,352,260,443,355,377,0
2,1774291563152,248,8882,8322,-616973,-20769,-989601,0,0,0,268,214,161,269,225,323,216,91,177,172,95,310,0
1,1774291563168,-665,-708,9954,178372,35430,25656,0,0,0,106,92,59,336,230,366,484,327,238,435,345,378,0
2,1774291563168,52,8437,8533,-779464,-39095,-590095,0,0,0,267,211,163,262,223,313,216,104,184,171,104,323,0
1,1774291563184,-626,-741,9949,152716,54977,23212,0,0,0,156,115,80,338,235,355,474,305,228,431,317,378,0
2,1774291563184,397,7647,8935,-1021366,9773,-237015,0,0,0,267,210,168,258,223,307,217,96,168,180,106,325,0
1,1774291563200,-603,-760,9940,123394,64751,20769,0,0,0,297,199,153,343,236,353,456,282,222,426,297,377,0
2,1774291563200,804,6700,9480,-1345125,233350,-43982,0,0,0,265,209,167,262,214,308,201,81,155,175,105,322,0
1,1774291563216,-574,-780,9911,86742,68416,18325,0,0,0,339,280,183,344,257,366,456,279,229,428,303,381,0
2,1774291563216,741,5527,10107,-1727526,497244,81855,0,0,0,267,209,168,251,203,303,189,74,150,167,101,313,0
1,1774291563232,-564,-794,9920,52534,74525,17104,0,0,0,333,320,205,317,251,378,449,282,238,421,313,392,0
2,1774291563232,531,4249,10691,-2019520,638965,208915,0,0,0,273,212,171,245,208,299,193,75,150,169,99,305,0
1,1774291563248,-521,-789,9959,37873,74525,17104,0,0,0,382,305,241,309,209,375,449,281,238,421,308,398,0
2,1774291563248,354,3149,11117,-2138028,651182,323758,0,0,0,280,215,172,267,233,310,192,88,155,169,104,310,0
1,1774291563264,-478,-780,9997,29321,69638,17104,0,0,0,424,287,247,337,183,363,460,285,233,437,306,399,0
2,1774291563264,38,2196,11452,-2124589,631634,433714,0,0,0,282,215,179,278,256,326,186,112,154,160,107,320,0
1,1774291563280,-449,-794,9973,7330,59864,14660,0,0,0,394,312,237,336,193,364,438,291,231,439,325,412,0
2,1774291563280,-406,1354,11758,-2050063,543670,548556,0,0,0,281,216,160,272,244,288,205,100,163,142,102,293,0
1,1774291563296,-440,-818,9906,-25656,48869,12217,0,0,0,362,255,212,357,199,380,467,299,237,452,341,424,0
2,1774291563296,-579,856,12074,-1987755,357967,636521,0,0,0,278,213,169,268,239,302,190,88,166,128,73,309,0
1,1774291563312,-445,-813,9849,-74525,41538,8552,0,0,0,331,232,181,349,193,379,463,306,236,444,344,430,0
2,1774291563312,-172,507,12500,-2095267,156381,712268,0,0,0,271,203,172,273,246,338,199,112,158,143,70,307,0
1,1774291563328,-478,-780,9868,-113620,47647,7330,0,0,0,309,269,171,341,230,376,456,319,257,457,336,413,0
2,1774291563328,430,-229,12845,-2377487,103847,752585,0,0,0,273,203,163,287,249,314,206,96,158,158,86,300,0
1,1774291563344,-440,-741,9935,-127059,57421,4886,0,0,0,318,261,170,329,241,349,458,319,218,457,338,394,0
2,1774291563344,918,-2014,12892,-2579073,109955,762359,0,0,0,271,202,172,277,245,320,181,78,128,154,75,300,0
1,1774291563360,-397,-698,10002,-118507,54977,2443,0,0,0,301,264,160,320,244,336,454,323,210,462,344,383,0
2,1774291563360,1392,-4312,12730,-2515543,47647,757472,0,0,0,272,211,181,288,237,320,191,82,147,157,79,306,0
1,1774291563376,-354,-670,10031,-89186,43982,0,0,0,0,302,277,153,313,254,334,460,330,217,467,349,384,0
2,1774291563376,1847,-6269,12323,-2214997,-3665,723264,0,0,0,265,212,181,269,227,315,190,83,157,157,86,309,0
1,1774291563392,-325,-655,10059,-53756,26878,0,0,0,0,294,275,154,317,253,341,459,324,213,462,342,385,0
2,1774291563392,2048,-7824,11557,-1767844,113620,625526,0,0,0,267,212,182,281,229,321,214,113,184,171,87,315,0
1,1774291563408,-339,-626,10102,-1221,1221,-1221,0,0,0,290,273,157,315,251,349,458,322,212,451,337,385,0
2,1774291563408,1612,-8609,10705,-1361007,384845,496022,0,0,0,267,210,185,275,232,331,211,107,183,161,82,319,0
1,1774291563424,-363,-626,10093,37873,-8552,0,0,0,0,280,278,180,304,257,356,443,326,215,444,352,393,0
2,1774291563424,536,-8662,10007,-1117883,638965,378736,0,0,0,263,212,186,264,241,338,194,107,180,159,87,323,0
1,1774291563440,-363,-655,10064,69638,-12217,1221,0,0,0,290,301,207,299,265,368,418,342,221,435,368,402,0
2,1774291563440,-698,-8705,9265,-952949,739146,268780,0,0,0,262,215,186,272,247,338,180,106,178,169,98,324,0
1,1774291563456,-344,-679,10064,103847,-18325,4886,0,0,0,325,319,194,310,267,371,401,334,225,432,354,406,0
2,1774291563456,-1325,-9116,8734,-790459,593761,201585,0,0,0,264,213,182,262,234,328,169,78,157,160,95,319,0
1,1774291563472,-397,-679,10122,141720,-15882,9773,0,0,0,342,316,180,316,267,362,389,272,226,432,319,413,0
2,1774291563472,-1311,-9696,8360,-350636,290771,139277,0,0,0,263,217,180,252,235,325,200,107,174,157,89,318,0
1,1774291563488,-459,-684,10179,193033,3665,19547,0,0,0,359,378,265,299,266,387,365,238,241,384,295,422,0
2,1774291563488,-928,-9581,8207,194255,17104,84299,0,0,0,259,220,183,283,250,352,175,64,160,157,89,324,0
1,1774291563504,-445,-727,10198,260228,37873,34208,0,0,0,449,424,275,306,238,374,323,212,224,326,259,437,0
2,1774291563504,-344,-8408,8389,747699,-144164,31764,0,0,0,265,223,177,286,245,351,215,136,195,161,90,319,0
1,1774291563520,-416,-780,10203,327423,67195,48869,0,0,0,449,426,233,300,258,363,292,212,219,305,241,425,0
2,1774291563520,76,-7111,8829,1104444,-201585,6108,0,0,0,258,224,176,257,237,329,171,77,163,166,105,330,0
1,1774291563536,-416,-851,10236,384845,97738,67195,0,0,0,449,441,224,337,280,344,285,171,214,309,209,423,0
2,1774291563536,258,-6226,9442,1262047,-239459,34208,0,0,0,245,205,166,260,239,315,196,112,171,203,124,297,0
1,1774291563552,-411,-928,10323,449596,142942,89186,0,0,0,405,446,232,332,277,391,303,160,230,307,197,452,0
2,1774291563552,861,-2498,11452,1457524,-372627,133168,0,0,0,228,192,151,251,220,257,247,148,156,218,192,259,0
1,1774291563568,-387,-1000,10466,538783,197920,112399,0,0,0,417,461,228,323,277,373,268,151,235,286,186,464,0
2,1774291563568,3010,10083,13519,1811826,-704938,241902,0,0,0,222,187,146,244,208,258,268,205,159,252,230,265,0
1,1774291563584,-368,-1043,10753,670730,272445,138055,0,0,0,373,401,164,350,341,387,278,156,254,304,198,483,0
2,1774291563584,3665,14812,11940,2125811,-1114218,377514,0,0,0,227,186,141,261,236,278,302,278,172,295,286,273,0
1,1774291563600,-320,-1100,11131,836885,357967,156381,0,0,0,319,346,112,381,349,393,283,147,256,318,203,499,0
2,1774291563600,1407,5470,10222,2744006,-1165530,597426,0,0,0,237,190,136,281,253,294,390,349,195,349,337,280,0
1,1774291563616,-210,-1249,11725,1161865,485026,173485,0,0,0,288,331,99,374,355,383,242,144,251,303,218,516,0
2,1774291563616,-2048,-4737,12534,3015230,-770911,674395,0,0,0,254,203,139,286,245,293,469,386,204,389,376,299,0
1,1774291563632,-43,-1287,12194,1535715,571769,183259,0,0,0,305,345,104,359,348,378,182,136,242,281,215,504,0
2,1774291563632,-2148,-2976,14548,2087937,-509461,194255,0,0,0,275,219,148,274,233,269,480,396,199,393,421,317,0
1,1774291563648,57,-1325,12639,1920560,620639,184481,0,0,0,295,317,95,352,329,402,149,123,247,260,199,477,0
2,1774291563648,-296,-90,13859,1181413,-348193,-194255,0,0,0,298,222,153,250,207,260,487,425,227,402,432,317,0
1,1774291563664,-191,-1497,13098,2305405,657290,196698,0,0,0,237,258,76,344,332,415,154,125,255,242,191,454,0
2,1774291563664,545,-277,12261,748920,-164933,-106290,0,0,0,333,221,159,285,242,306,538,451,250,426,427,332,0
1,1774291563680,-445,-1713,14218,2690250,685390,265115,0,0,0,245,273,92,342,334,375,164,128,234,234,182,418,0
2,1774291563680,406,-746,11146,503352,-30543,30543,0,0,0,331,221,164,301,243,320,536,411,178,421,417,348,0
1,1774291563696,-660,-1837,16396,3244916,729373,356745,0,0,0,306,316,146,328,309,372,152,109,240,220,177,404,0
2,1774291563696,196,-454,10279,356745,0,64751,0,0,0,339,273,184,279,226,286,539,477,203,417,407,353,0
1,1774291563712,-1115,-1966,19100,3991393,829554,464257,0,0,0,138,199,80,285,309,375,144,121,238,199,180,380,0
2,1774291563712,291,-86,9825,291993,-37873,34208,0,0,0,355,283,177,268,226,273,549,460,238,447,430,374,0
1,1774291563728,-2029,-2426,21445,4824613,960280,612086,0,0,0,148,149,90,285,248,356,152,97,222,211,154,388,0
2,1774291563728,287,-119,9767,246789,-52534,26878,0,0,0,378,264,196,284,234,294,557,428,236,490,419,370,0
1,1774291563744,-3527,-3182,23349,5679824,895528,900415,0,0,0,206,209,125,260,217,274,159,105,168,214,148,311,0
2,1774291563744,162,-296,10002,191811,-9773,29321,0,0,0,394,257,198,306,265,304,611,459,256,500,418,352,0
1,1774291563760,-4288,-2569,23924,6254038,603534,1257160,0,0,0,94,80,50,254,170,225,176,103,140,240,148,280,0
2,1774291563760,119,-325,10203,142942,46425,20769,0,0,0,418,254,181,319,261,307,619,464,235,506,459,352,0
1,1774291563776,-3957,827,20579,6748839,467922,1688431,0,0,0,43,35,23,219,158,211,163,114,135,222,162,265,0
2,1774291563776,205,-291,10332,103847,106290,2443,0,0,0,427,253,171,318,257,297,655,501,246,529,481,367,0
1,1774291563792,-3900,5484,13687,6845355,533896,2098932,0,0,0,34,30,23,209,161,214,160,114,132,211,156,258,0
2,1774291563792,354,-335,10361,69638,129503,-7330,0,0,0,423,252,176,338,279,317,666,518,280,543,481,384,0
1,1774291563808,-3991,9485,10959,5457470,-54977,2593733,0,0,0,39,32,22,210,155,205,165,113,128,217,153,253,0
2,1774291563808,469,-330,10351,37873,119729,-13439,0,0,0,421,256,190,335,279,334,657,504,282,555,488,403,0
1,1774291563824,-1172,11806,11950,2858849,-838107,2895501,0,0,0,38,32,21,210,153,200,169,115,131,221,156,254,0
2,1774291563824,492,-282,10332,24434,81855,-15882,0,0,0,419,255,190,330,270,344,655,497,271,564,485,403,0
1,1774291563840,2933,10997,11476,-124616,-493579,2535090,0,0,0,36,31,24,210,156,213,171,115,143,220,154,262,0
2,1774291563840,497,-258,10294,18325,24434,-15882,0,0,0,417,249,178,350,285,360,653,503,271,577,471,391,0
1,1774291563856,2675,8126,8116,-1598023,757472,1673770,0,0,0,33,27,29,205,154,234,169,115,162,215,151,277,0
2,1774291563856,488,-224,10246,14660,-29321,-14660,0,0,0,425,253,181,343,284,350,654,498,252,606,477,400,0
1,1774291563872,-693,6336,5455,-1827708,891863,825889,0,0,0,27,23,29,197,150,245,164,117,178,207,152,287,0
2,1774291563872,459,-210,10179,17104,-72082,-13439,0,0,0,435,259,178,372,282,368,660,491,261,594,468,377,0
1,1774291563888,-1277,6250,5111,-1970651,86742,355523,0,0,0,30,27,29,198,151,241,165,117,178,206,151,280,0
2,1774291563888,421,-210,10112,19547,-94073,-10995,0,0,0,426,255,186,371,293,364,674,493,320,592,457,392,0
1,1774291563904,4,6173,5532,-2494773,-568104,-196698,0,0,0,22,22,28,203,153,255,162,119,178,207,151,286,0
2,1774291563904,425,-201,10069,26878,-114842,-10995,0,0,0,418,253,190,371,287,361,646,476,306,594,456,396,0
1,1774291563920,421,5618,6025,-3075095,-652404,-658512,0,0,0,17,18,26,212,162,271,162,115,182,200,142,282,0
2,1774291563920,430,-220,10011,43982,-142942,-17104,0,0,0,419,262,188,335,289,340,654,472,315,588,455,402,0
1,1774291563936,28,4977,6738,-3605326,-671951,-908967,0,0,0,13,19,34,208,160,288,161,116,190,192,142,286,0
2,1774291563936,392,-244,9968,64751,-168598,-24434,0,0,0,407,254,209,354,309,371,643,465,311,561,452,417,0
1,1774291563952,-296,4302,7977,-4183205,-873537,-919963,0,0,0,22,30,24,224,169,224,168,113,133,204,142,242,0
2,1774291563952,363,-244,9983,84299,-182037,-28099,0,0,0,407,258,213,351,293,373,635,442,322,538,453,421,0
1,1774291563968,-416,3474,9327,-4669453,-1112996,-778242,0,0,0,36,31,23,223,168,232,169,112,140,210,145,250,0
2,1774291563968,330,-272,10016,107512,-189368,-30543,0,0,0,421,269,221,347,292,358,633,421,281,521,433,406,0
1,1774291563984,-425,2613,10567,-4987103,-1330464,-592539,0,0,0,32,33,24,223,171,225,166,116,133,203,145,240,0
2,1774291563984,282,-296,10026,129503,-184481,-31764,0,0,0,433,270,197,354,296,348,650,411,266,520,414,405,0
1,1774291564000,-291,1971,12141,-5213123,-1510058,-503352,0,0,0,34,37,23,228,173,223,169,118,128,204,148,237,0
2,1774291564000,220,-301,10050,161268,-150272,-31764,0,0,0,438,272,180,372,300,345,653,383,265,515,401,408,0
1,1774291564016,-191,1584,13917,-5424483,-1585806,-585208,0,0,0,39,36,21,227,171,225,169,112,129,206,145,242,0
2,1774291564016,186,-306,10107,201585,-101403,-37873,0,0,0,451,296,182,398,318,352,653,357,263,508,381,414,0
1,1774291564032,-435,1019,16027,-5679824,-1610240,-821002,0,0,0,40,35,21,227,173,227,170,103,132,200,134,242,0
2,1774291564032,201,-325,10145,230907,-68416,-45204,0,0,0,464,310,175,409,327,361,671,341,274,520,358,434,0
1,1774291564048,-976,-181,18272,-5850867,-1720196,-1051909,0,0,0,39,35,22,230,176,234,170,100,136,191,125,239,0
2,1774291564048,258,-363,10131,260228,-58643,-47647,0,0,0,457,291,176,396,326,362,672,294,257,531,333,453,0
1,1774291564064,-1426,-2579,20669,-5723807,-2020742,-1220508,0,0,0,34,29,22,230,173,242,168,103,141,188,125,243,0
2,1774291564064,306,-411,10117,294437,-65973,-47647,0,0,0,448,307,182,412,356,388,646,249,251,519,308,481,0
1,1774291564080,-732,-5963,23278,-5233893,-2417804,-1431868,0,0,0,24,22,23,229,170,247,167,104,147,187,127,253,0
2,1774291564080,320,-435,10179,326202,-80634,-48869,0,0,0,476,354,194,454,365,433,637,232,275,487,275,503,0
1,1774291564096,832,-9466,25096,-4792848,-2504547,-1683544,0,0,0,20,23,27,228,163,259,172,97,159,188,118,263,0
2,1774291564096,291,-492,10241,355523,-96516,-53756,0,0,0,458,348,210,423,333,417,675,228,364,434,230,535,0
1,1774291564112,2292,-13352,24752,-4719544,-2041511,-1831373,0,0,0,27,24,27,227,156,240,184,97,158,197,121,256,0
2,1774291564112,239,-574,10251,378736,-97738,-57421,0,0,0,461,370,213,467,383,488,631,183,347,379,199,538,0
1,1774291564128,1899,-18162,21483,-4927239,-1452637,-1544267,0,0,0,32,26,21,236,158,240,201,97,159,211,126,256,0
2,1774291564128,244,-631,10289,404392,-79412,-57421,0,0,0,492,393,225,438,349,451,647,183,360,382,217,563,0
1,1774291564144,890,-22861,16980,-4706105,-1249830,-882089,0,0,0,33,23,29,235,150,244,193,92,161,201,114,256,0
2,1774291564144,287,-674,10356,447153,-74525,-62308,0,0,0,519,388,249,450,393,449,609,188,375,344,166,581,0
1,1774291564160,1488,-25580,12562,-3477044,-1474628,24434,0,0,0,42,35,34,231,154,241,192,100,155,198,123,252,0
2,1774291564160,244,-756,10447,524122,-73303,-68416,0,0,0,545,393,235,481,428,461,581,109,357,322,134,603,0
1,1774291564176,3881,-27039,9911,-2177123,-1679879,752585,0,0,0,42,39,30,234,161,243,197,103,158,204,128,255,0
2,1774291564176,215,-818,10610,618195,-48869,-70860,0,0,0,535,411,213,502,447,478,549,97,355,293,118,601,0
1,1774291564192,8025,-27757,8269,-973719,-1716531,1276708,0,0,0,42,34,32,237,151,242,200,106,159,218,125,258,0
2,1774291564192,315,-861,10921,761138,-6108,-79412,0,0,0,517,413,199,514,466,490,509,109,359,260,107,605,0
1,1774291564208,11179,-26494,7968,15882,-1111774,1271821,0,0,0,38,32,30,228,152,234,193,122,156,219,139,247,0
2,1774291564208,488,-933,11332,984714,14660,-116064,0,0,0,512,414,192,514,474,491,493,121,368,237,95,629,0
1,1774291564224,8159,-20952,10514,1200961,328645,766025,0,0,0,28,29,23,229,155,211,204,196,147,239,193,243,0
2,1774291564224,593,-1076,11720,1296256,4886,-172263,0,0,0,520,436,191,500,474,490,471,138,364,195,74,645,0
1,1774291564240,588,-4283,14003,2261423,750142,669508,0,0,0,17,18,17,218,163,204,227,284,149,263,265,239,0
2,1774291564240,526,-1277,11974,1624901,-52534,-217468,0,0,0,548,455,187,490,475,490,367,103,321,135,56,642,0
1,1774291564256,-4034,14936,13280,2530203,502131,1053131,0,0,0,6,10,10,205,181,209,253,362,152,270,333,213,0
2,1774291564256,459,-1488,12285,1952325,-138055,-245567,0,0,0,559,449,185,501,404,453,287,100,328,181,65,641,0
1,1774291564272,-5020,15831,9088,2805093,736703,1222952,0,0,0,1,8,2,222,197,201,299,446,143,305,395,181,0
2,1774291564272,507,-1660,12658,2301740,-254119,-260228,0,0,0,543,472,198,502,448,490,257,105,324,146,46,639,0
1,1774291564288,-4144,1770,9992,3942524,1066570,526565,0,0,0,11,10,3,239,188,199,363,488,145,383,451,180,0
2,1774291564288,603,-1789,13251,2689028,-394618,-287106,0,0,0,528,433,206,409,382,478,208,75,319,98,30,637,0
1,1774291564304,-885,-4216,14443,3931528,441044,-377514,0,0,0,32,20,15,238,157,205,415,458,156,429,491,206,0
2,1774291564304,756,-1876,14658,3171612,-500909,-335975,0,0,0,513,452,187,454,437,462,200,133,286,137,72,577,0
1,1774291564320,856,-2407,15984,3092199,-23212,-543670,0,0,0,52,22,23,277,155,249,481,495,184,491,525,253,0
2,1774291564320,1593,-1957,17563,3949854,-625526,-448375,0,0,0,470,445,247,432,449,466,182,113,258,123,78,544,0
1,1774291564336,-287,-866,15501,2114815,208915,-177150,0,0,0,45,24,23,297,178,244,552,511,167,519,529,238,0
2,1774291564336,2914,-2163,21732,5031086,-834441,-660956,0,0,0,434,431,197,401,460,450,153,71,190,132,92,512,0
1,1774291564352,-1072,-1464,14347,1259604,388510,-12217,0,0,0,57,32,30,308,178,250,545,524,177,539,545,240,0
2,1774291564352,3766,-2727,26231,6173404,-1040914,-916297,0,0,0,374,361,132,375,427,386,147,76,142,125,80,434,0
1,1774291564368,-765,-1584,12577,670730,166155,-69638,0,0,0,62,53,42,315,193,297,579,532,222,557,557,311,0
2,1774291564368,3948,-3139,29164,7224092,-1078788,-1130100,0,0,0,321,287,118,324,367,321,164,112,139,115,72,360,0
1,1774291564384,-684,-622,10935,371406,-164933,-92851,0,0,0,63,46,46,312,186,318,583,536,251,560,554,326,0
2,1774291564384,4077,-1340,29011,8036543,-956614,-1332907,0,0,0,263,223,134,262,277,283,181,109,142,144,83,310,0
1,1774291564400,-1009,-201,10284,243124,-244346,-56199,0,0,0,65,51,42,306,193,299,569,540,227,570,560,347,0
2,1774291564400,4637,3350,25216,8580213,-656069,-1588249,0,0,0,231,193,139,248,227,271,176,92,144,154,78,287,0
1,1774291564416,-1220,-244,10303,163711,-146607,-9773,0,0,0,67,53,41,309,194,294,559,553,218,581,566,321,0
2,1774291564416,5508,8006,17224,8839220,-25656,-1995085,0,0,0,234,190,135,271,235,277,170,87,152,131,64,276,0
1,1774291564432,-1100,-177,10351,97738,-83077,0,0,0,0,138,117,89,302,194,289,558,563,213,573,568,292,0
2,1774291564432,5518,12443,9179,7329161,766025,-2592512,0,0,0,235,186,129,291,248,289,189,71,143,133,67,265,0
1,1774291564448,-1043,-57,10241,54977,-57421,0,0,0,0,156,131,99,306,199,289,557,566,207,562,567,289,0
2,1774291564448,2349,16319,8777,2317622,1517389,-2807536,0,0,0,226,183,125,282,243,272,202,85,115,148,68,270,0
1,1774291564464,-1038,-43,10074,35430,-26878,1221,0,0,0,78,57,45,323,204,298,554,557,208,562,569,293,0
2,1774291564464,-1206,14654,9667,-2199114,1751961,-2340835,0,0,0,223,184,138,246,235,291,184,84,131,132,72,283,0
1,1774291564480,-1014,-81,10011,15882,14660,3665,0,0,0,109,82,61,313,200,288,553,535,202,556,568,283,0
2,1774291564480,-2737,8236,8250,-4153883,1387885,-1340238,0,0,0,230,203,144,262,232,251,176,112,125,137,84,257,0
1,1774291564496,-985,-86,10016,0,42760,4886,0,0,0,198,145,113,311,188,282,541,508,193,553,564,270,0
2,1774291564496,-2316,4905,5345,-3577226,948062,-460592,0,0,0,226,192,123,266,243,267,173,111,109,140,95,261,0
1,1774291564512,-942,-62,10007,-4886,52534,7330,0,0,0,70,60,38,317,211,279,538,484,203,554,561,269,0
2,1774291564512,-2196,4943,4603,-3265685,581543,92851,0,0,0,222,193,117,266,236,260,197,111,132,126,94,277,0
1,1774291564528,-904,-43,9987,-3665,54977,10995,0,0,0,66,57,37,303,210,274,549,481,215,561,550,275,0
2,1774291564528,-1856,5632,5489,-3632204,149051,449596,0,0,0,224,192,131,271,245,285,188,127,143,121,80,288,0
1,1774291564544,-885,-57,9978,0,53756,14660,0,0,0,61,60,44,299,212,272,548,494,230,566,549,266,0
2,1774291564544,-378,5044,6637,-4304156,-34208,552222,0,0,0,225,191,127,275,239,266,181,98,131,132,85,274,0
1,1774291564560,-827,-52,9978,12217,41538,17104,0,0,0,61,59,43,273,208,272,540,483,234,537,541,271,0
2,1774291564560,1115,3799,7762,-4861265,243124,410501,0,0,0,223,192,132,268,233,277,165,90,126,127,87,274,0
1,1774291564576,-756,-23,9973,47647,9773,21991,0,0,0,64,63,46,276,202,276,556,461,231,543,502,274,0
2,1774291564576,1306,2488,9270,-5261993,923628,111177,0,0,0,219,190,139,254,218,285,179,96,142,138,88,284,0
1,1774291564592,-732,0,9978,119729,-39095,28099,0,0,0,105,83,60,288,195,273,554,447,224,511,478,282,0
2,1774291564592,650,1411,10868,-5551543,1393994,-73303,0,0,0,216,185,137,251,205,274,193,103,147,142,79,275,0
1,1774291564608,-789,-14,9964,212581,-83077,36651,0,0,0,86,61,41,300,200,268,533,406,201,495,427,291,0
2,1774291564608,-62,148,12749,-5794667,1499063,-97738,0,0,0,216,184,138,251,208,277,182,93,137,122,64,269,0
1,1774291564624,-880,-52,9964,305432,-97738,48869,0,0,0,72,50,37,300,195,263,551,377,196,478,387,300,0
2,1774291564624,52,-780,14314,-5940053,1328021,45204,0,0,0,219,188,155,255,220,301,171,70,138,112,62,285,0
1,1774291564640,-938,-100,10002,372627,-80634,62308,0,0,0,86,70,49,296,196,276,569,376,207,456,362,305,0
2,1774291564640,1225,-1191,15573,-6043900,1089783,357967,0,0,0,222,187,166,275,229,313,182,78,156,122,65,289,0
1,1774291564656,-904,-196,10050,415388,-50090,76969,0,0,0,87,84,50,302,224,308,576,361,242,446,344,328,0
2,1774291564656,3182,-1794,16826,-6128200,1122770,703716,0,0,0,228,180,161,247,210,312,184,79,177,105,55,277,0
1,1774291564672,-851,-282,10102,436157,-35430,90408,0,0,0,105,114,66,317,245,325,590,310,269,437,314,361,0
2,1774291564672,4862,-3125,18305,-6047565,1497841,960280,0,0,0,237,194,174,230,209,306,183,49,154,119,61,296,0
1,1774291564688,-871,-335,10122,442266,-29321,98960,0,0,0,156,165,104,334,229,321,596,271,249,412,266,386,0
2,1774291564688,5345,-5575,20674,-5524665,2169793,1214400,0,0,0,230,195,180,238,208,312,162,42,138,119,48,301,0
1,1774291564704,-976,-397,10093,448375,-2443,109955,0,0,0,121,115,75,345,240,346,587,260,267,402,246,434,0
2,1774291564704,4718,-8399,23426,-4819726,2565634,1602910,0,0,0,228,196,175,236,212,303,188,74,169,119,43,296,0
1,1774291564720,-1062,-464,10083,461814,56199,122173,0,0,0,217,188,131,364,243,370,595,226,283,414,226,447,0
2,1774291564720,3579,-12036,25034,-4378682,2394591,2112371,0,0,0,231,196,168,237,209,292,186,88,159,115,54,289,0
1,1774291564736,-1038,-516,10227,492357,140499,128281,0,0,0,202,129,123,373,204,397,559,170,325,394,173,466,0
2,1774291564736,2421,-17745,22493,-4262617,2207666,2502104,0,0,0,230,194,164,241,217,301,172,99,146,116,57,288,0
1,1774291564752,-914,-598,10418,542448,204028,133168,0,0,0,292,207,181,382,228,403,560,146,311,339,171,465,0
2,1774291564752,650,-23230,18736,-4175874,2472782,2431243,0,0,0,230,190,156,246,216,288,180,104,138,118,53,276,0
1,1774291564768,-751,-684,10619,614530,205250,136833,0,0,0,258,242,158,362,282,422,548,153,328,334,185,483,0
2,1774291564768,-2440,-28422,15778,-3794694,2790432,1816713,0,0,0,233,190,148,252,221,285,191,109,145,132,69,280,0
1,1774291564784,-717,-737,10921,731816,144164,141720,0,0,0,172,200,97,367,312,453,498,158,307,286,167,482,0
2,1774291564784,-5283,-32806,13596,-2353052,2138028,607200,0,0,0,235,195,148,246,215,291,186,99,151,143,82,289,0
1,1774291564800,-765,-861,11232,917519,72082,157603,0,0,0,199,211,95,367,284,437,409,137,311,272,166,503,0
2,1774291564800,-7116,-32476,9332,-651182,1103222,-757472,0,0,0,231,195,143,244,209,284,214,99,149,170,106,277,0
1,1774291564816,-842,-1043,11567,1191187,9773,186924,0,0,0,204,206,86,365,279,449,344,129,310,274,172,520,0
2,1774291564816,-12634,-28140,11284,404392,73303,-1408655,0,0,0,221,181,125,265,231,284,285,177,153,243,204,246,0
1,1774291564832,-957,-1201,11921,1583362,17104,234572,0,0,0,201,216,79,357,296,452,284,141,313,263,179,530,0
2,1774291564832,-13673,-19918,14596,1417207,-1584584,-679282,0,0,0,205,169,110,269,235,308,310,313,162,307,347,223,0
1,1774291564848,-1014,-1359,12179,1951103,160046,279776,0,0,0,210,236,84,347,314,438,240,145,306,254,188,523,0
2,1774291564848,-3464,842,14400,2494773,-3051882,864985,0,0,0,213,176,111,267,228,271,397,377,183,376,426,244,0
1,1774291564864,-1100,-1545,12299,2212553,399505,307876,0,0,0,213,243,87,350,326,428,218,132,287,253,196,499,0
2,1774291564864,933,10313,13759,2930931,-2623055,990823,0,0,0,244,195,133,258,229,278,499,442,219,483,526,269,0
1,1774291564880,-1225,-1708,13376,2505769,722042,343306,0,0,0,202,244,87,357,333,431,183,117,270,243,194,466,0
2,1774291564880,-1378,4503,15812,3287676,-1832595,348193,0,0,0,286,223,163,283,235,326,611,479,243,552,566,286,0
1,1774291564896,-1564,-1679,15730,3000570,984714,405614,0,0,0,176,246,87,324,341,433,142,115,244,216,194,434,0
2,1774291564896,-2866,-3259,17099,2820975,-1062905,-135612,0,0,0,316,222,159,260,227,304,601,478,230,638,566,298,0
1,1774291564912,-2038,-1622,19176,4008497,1270599,551000,0,0,0,150,254,87,284,326,406,146,124,247,198,198,416,0
2,1774291564912,-808,-2033,14352,1536936,-313984,18325,0,0,0,354,226,166,277,226,286,627,474,236,652,556,309,0
1,1774291564928,-2560,-1981,23335,5222897,1563815,730594,0,0,0,191,277,119,286,285,388,132,108,226,178,153,362,0
2,1774291564928,392,689,11361,762359,92851,169820,0,0,0,367,238,177,294,233,312,674,514,274,667,584,326,0
1,1774291564944,-3388,-3053,27858,6400645,1744631,907745,0,0,0,166,221,100,272,274,332,142,135,195,194,185,353,0
2,1774291564944,402,1019,10203,596204,185703,125838,0,0,0,370,253,175,294,252,305,670,505,252,669,600,335,0
1,1774291564960,-4355,-3196,29930,7414682,1574810,1128878,0,0,0,86,104,59,245,227,279,136,111,159,219,182,297,0
2,1774291564960,291,478,10275,544891,196698,48869,0,0,0,382,269,174,314,269,312,679,503,253,674,589,346,0
1,1774291564976,-4737,-1244,29758,8151385,1175304,1373225,0,0,0,26,27,22,203,160,238,146,107,151,215,156,252,0
2,1774291564976,358,320,10605,459370,217468,14660,0,0,0,389,279,174,327,270,311,691,516,249,684,587,365,0
1,1774291564992,-4570,4752,22746,8622973,416610,1692096,0,0,0,23,21,17,234,170,225,191,103,138,249,136,244,0
2,1774291564992,464,540,10557,370184,252898,7330,0,0,0,398,293,180,338,272,306,692,514,237,670,581,370,0
1,1774291565008,-2569,10308,12050,7723780,179594,1965764,0,0,0,28,22,18,230,169,230,178,98,139,223,128,243,0
2,1774291565008,569,708,10380,317649,261450,-3665,0,0,0,401,304,187,360,286,329,702,490,246,638,551,361,0
1,1774291565024,-19,12739,9566,3977954,508239,1925447,0,0,0,30,19,19,217,163,229,157,94,139,207,137,250,0
2,1774291565024,693,641,10361,288328,201585,-21991,0,0,0,376,290,189,349,289,337,716,473,246,630,543,370,0
1,1774291565040,-239,10442,12548,-612086,296880,1395216,0,0,0,34,23,22,219,164,233,154,94,136,207,141,245,0
2,1774291565040,760,555,10327,259006,123394,-26878,0,0,0,388,298,233,322,281,309,716,486,259,602,537,374,0
1,1774291565056,-550,6384,11131,-2547308,-310319,858876,0,0,0,98,87,73,214,155,231,154,87,134,201,127,237,0
2,1774291565056,794,483,10193,218689,43982,-23212,0,0,0,397,299,248,331,296,332,700,458,283,575,567,373,0
1,1774291565072,837,4570,7054,-2190562,-524122,410501,0,0,0,168,150,133,197,130,212,144,73,129,193,110,233,0
2,1774291565072,794,435,10016,158824,-17104,-24434,0,0,0,410,283,194,329,279,319,701,450,262,563,571,373,0
1,1774291565088,2010,4934,4742,-1991420,-91629,1221,0,0,0,168,144,138,187,114,202,136,66,126,185,103,226,0
2,1774291565088,741,425,9930,100181,-67195,-35430,0,0,0,409,287,186,335,276,323,682,413,238,563,560,397,0
1,1774291565104,1249,5757,4704,-2498438,564439,-288328,0,0,0,156,132,136,186,118,215,136,69,129,177,102,225,0
2,1774291565104,674,449,9964,63529,-102625,-50090,0,0,0,413,280,188,336,295,348,687,427,236,559,537,407,0
1,1774291565120,-760,5709,5025,-3159395,723264,-351858,0,0,0,139,119,123,182,123,226,134,72,125,174,105,218,0
2,1774291565120,646,488,10011,53756,-134390,-63529,0,0,0,408,272,186,329,276,342,690,407,271,576,509,430,0
1,1774291565136,-1828,5187,5293,-3621209,166155,-133168,0,0,0,135,118,125,172,121,212,134,72,136,174,110,243,0
2,1774291565136,626,521,10031,72082,-161268,-80634,0,0,0,418,261,182,334,268,335,665,386,261,572,505,407,0
1,1774291565152,-1622,4804,5953,-4084244,-375071,91629,0,0,0,121,111,129,174,124,230,144,82,140,181,119,233,0
2,1774291565152,588,497,9997,106290,-172263,-95294,0,0,0,420,266,184,341,287,347,662,361,230,562,494,409,0
1,1774291565168,-990,4235,7178,-4680449,-648738,213802,0,0,0,60,67,102,182,124,237,148,83,154,186,113,251,0
2,1774291565168,559,449,9964,133168,-173485,-103847,0,0,0,419,279,186,353,295,356,669,347,221,551,479,413,0
1,1774291565184,-985,3393,8456,-5120272,-717155,232128,0,0,0,106,98,119,178,125,232,142,79,151,185,116,255,0
2,1774291565184,521,411,9959,149051,-164933,-108734,0,0,0,423,283,187,364,296,363,667,346,245,540,469,413,0
1,1774291565200,-1493,2522,9782,-5331631,-780685,191811,0,0,0,115,99,111,186,131,227,154,78,144,194,113,245,0
2,1774291565200,483,387,9983,156381,-150272,-109955,0,0,0,435,278,204,361,326,381,663,345,275,536,463,440,0
1,1774291565216,-1933,1981,11409,-5453804,-968832,101403,0,0,0,109,93,96,186,131,220,157,84,142,191,113,237,0
2,1774291565216,459,378,10011,162490,-131946,-106290,0,0,0,450,286,225,363,348,381,654,338,278,526,456,445,0
1,1774291565232,-2139,1588,13385,-5689598,-1172861,-61086,0,0,0,91,79,77,188,131,222,153,84,143,187,116,239,0
2,1774291565232,478,378,10045,189368,-113620,-101403,0,0,0,414,308,226,361,327,383,674,318,281,517,432,445,0
1,1774291565248,-2373,1028,15544,-6054896,-1302364,-316428,0,0,0,89,80,77,196,141,231,160,88,153,190,119,244,0
2,1774291565248,492,358,10083,233350,-100181,-101403,0,0,0,415,309,246,374,315,387,662,313,288,499,423,459,0
1,1774291565264,-3297,-923,18190,-6334672,-1541823,-656069,0,0,0,64,60,57,210,150,236,174,94,158,194,119,246,0
2,1774291565264,473,325,10136,282219,-83077,-103847,0,0,0,432,338,246,415,372,397,646,295,271,482,383,446,0
1,1774291565280,-4005,-4694,20612,-6109874,-2059837,-992045,0,0,0,33,28,30,223,152,239,190,99,160,194,117,243,0
2,1774291565280,459,282,10212,331088,-54977,-103847,0,0,0,439,325,199,400,362,399,633,264,276,477,333,502,0
1,1774291565296,-2885,-9758,22852,-5266880,-2845410,-1458746,0,0,0,31,24,30,227,153,246,197,103,168,188,115,242,0
2,1774291565296,502,244,10294,389732,-31764,-106290,0,0,0,448,397,193,416,392,389,509,250,287,451,284,506,0
1,1774291565312,124,-14859,24321,-4418999,-3331659,-1899790,0,0,0,34,28,31,223,153,253,190,101,173,187,115,247,0
2,1774291565312,521,167,10303,471587,-15882,-118507,0,0,0,464,428,224,436,409,407,605,221,304,462,237,506,0
1,1774291565328,3503,-20770,23488,-4020715,-2959031,-1872912,0,0,0,49,36,43,219,147,254,187,98,174,190,115,248,0
2,1774291565328,502,67,10327,561996,2443,-129503,0,0,0,487,427,289,434,392,436,613,167,318,410,199,526,0
1,1774291565344,4594,-26786,19195,-3971845,-2252871,-938289,0,0,0,137,114,109,207,138,236,177,94,158,181,108,232,0
2,1774291565344,550,-14,10480,651182,29321,-134390,0,0,0,502,438,269,470,454,479,606,161,337,368,167,548,0
1,1774291565360,5848,-31868,14223,-3573561,-1670105,120951,0,0,0,158,134,128,188,120,215,172,91,151,194,114,230,0
2,1774291565360,679,-81,10758,764803,45204,-142942,0,0,0,522,459,262,511,478,498,547,133,327,339,127,573,0
1,1774291565376,7566,-35907,11241,-2401922,-1127657,608421,0,0,0,153,142,121,173,147,206,179,163,147,193,178,215,0
2,1774291565376,794,-191,11083,938289,57421,-168598,0,0,0,552,479,236,499,460,498,502,116,317,303,106,591,0
1,1774291565392,11624,-40703,9916,-129503,-188146,263893,0,0,0,58,53,41,210,171,214,258,297,159,262,248,207,0
2,1774291565392,904,-358,11552,1215621,61086,-211359,0,0,0,559,498,188,461,463,499,479,136,344,248,102,597,0
1,1774291565408,13156,-36161,8801,2229658,1200961,-309097,0,0,0,9,8,6,218,167,216,296,345,170,292,310,197,0
2,1774291565408,952,-502,12175,1584584,32986,-260228,0,0,0,532,520,184,450,478,503,402,138,355,189,89,602,0
1,1774291565424,7987,-9777,12309,3766595,1997529,-294437,0,0,0,0,0,1,219,171,217,318,361,169,338,352,213,0
2,1774291565424,732,-545,13046,2034181,-37873,-293215,0,0,0,519,534,176,433,468,502,299,111,286,160,85,611,0
1,1774291565440,1722,8178,17841,3765373,1374446,568104,0,0,0,15,6,15,228,162,230,377,394,173,410,382,231,0
2,1774291565440,454,-569,13984,2535090,-127059,-267558,0,0,0,526,538,167,434,472,509,206,84,251,150,91,607,0
1,1774291565456,-1952,5642,19339,3397632,483805,878424,0,0,0,34,32,25,244,170,235,428,427,182,457,395,234,0
2,1774291565456,660,-708,14702,3065321,-210137,-244346,0,0,0,543,536,169,407,465,485,186,101,242,149,101,614,0
1,1774291565472,-1076,-2780,16621,2329840,-52534,223576,0,0,0,53,48,27,252,182,228,446,443,184,475,400,240,0
2,1774291565472,1909,-985,16558,3689626,-405614,-306654,0,0,0,514,504,182,412,461,493,154,100,210,150,72,603,0
1,1774291565488,291,-3560,13065,1121548,-332310,-246789,0,0,0,87,60,38,257,181,224,457,463,179,498,418,253,0
2,1774291565488,4268,-1512,20109,4575380,-835663,-560774,0,0,0,488,515,175,432,497,482,164,90,219,138,93,588,0
1,1774291565504,378,181,10390,571769,-422718,-184481,0,0,0,116,84,50,271,191,238,477,476,186,527,457,267,0
2,1774291565504,6743,-2464,24067,5670051,-1407433,-1058018,0,0,0,474,457,153,386,456,386,117,71,146,122,51,496,0
1,1774291565520,-574,325,9691,459370,-452040,-46425,0,0,0,88,70,46,283,193,258,516,432,212,550,490,290,0
2,1774291565520,8040,-3584,27685,6808703,-1743409,-1740965,0,0,0,398,366,128,364,425,363,130,61,130,118,58,412,0
1,1774291565536,-1100,-655,10174,282219,-343306,-31764,0,0,0,78,70,46,282,202,253,537,453,203,567,511,279,0
2,1774291565536,7437,-3584,29504,7635815,-1705535,-2291966,0,0,0,323,286,124,319,334,321,147,87,144,117,63,346,0
1,1774291565552,-837,-689,10662,42760,-173485,-54977,0,0,0,97,75,49,290,195,263,551,490,206,606,550,280,0
2,1774291565552,6173,-1483,29164,8385957,-1429424,-2714685,0,0,0,257,225,133,275,264,292,159,115,142,146,91,304,0
1,1774291565568,-574,-57,10514,-45204,-141720,-37873,0,0,0,113,107,58,293,236,270,562,483,207,599,593,280,0
2,1774291565568,5250,5058,24417,8951619,-1202182,-3012787,0,0,0,224,202,142,261,255,296,148,104,114,150,109,294,0
1,1774291565584,-655,215,10404,-67195,-139277,-14660,0,0,0,115,115,52,304,254,262,560,503,200,597,598,259,0
2,1774291565584,4058,12414,13630,8328536,-1495398,-3077539,0,0,0,222,204,151,266,260,302,148,108,112,120,95,302,0
1,1774291565600,-751,177,10370,-59864,-109955,0,0,0,0,118,117,56,310,260,261,568,494,200,601,615,264,0
2,1774291565600,4316,14453,9499,4833165,-1244943,-2729345,0,0,0,223,203,153,260,254,295,166,140,140,110,84,311,0
1,1774291565616,-631,181,10279,-40317,-92851,7330,0,0,0,120,114,52,311,257,245,572,495,187,603,602,261,0
2,1774291565616,3732,14008,10011,-102625,401949,-2123367,0,0,0,218,200,147,247,245,282,169,148,145,118,87,305,0
1,1774291565632,-603,229,10217,-20769,-98960,13439,0,0,0,124,115,53,311,254,243,573,488,182,602,589,257,0
2,1774291565632,588,10399,9600,-2410474,1914451,-1387885,0,0,0,221,208,148,265,259,298,177,126,114,116,87,291,0
1,1774291565648,-646,215,10160,-12217,-87964,15882,0,0,0,123,114,54,296,254,250,563,480,186,600,580,265,0
2,1774291565648,-3153,7628,5585,-2222327,1737300,-454483,0,0,0,221,212,144,253,246,284,157,102,100,117,92,273,0
1,1774291565664,-655,201,10093,-3665,-68416,20769,0,0,0,106,99,42,312,254,243,549,480,182,590,574,256,0
2,1774291565664,-4355,7111,3383,-2074498,778242,366519,0,0,0,221,210,146,270,267,313,174,134,143,133,94,276,0
1,1774291565680,-641,229,10045,7330,-53756,26878,0,0,0,95,83,38,323,235,244,543,473,183,579,560,255,0
2,1774291565680,-2938,7341,3665,-2579073,79412,875980,0,0,0,223,207,139,257,242,276,188,123,124,120,94,269,0
1,1774291565696,-650,234,10002,30543,-31764,34208,0,0,0,97,77,45,315,215,261,541,458,191,573,539,266,0
2,1774291565696,-1177,7231,4201,-3196046,-149051,1170417,0,0,0,220,205,132,270,245,294,198,127,132,123,93,263,0
1,1774291565712,-636,186,9973,46425,-7330,42760,0,0,0,94,74,43,318,223,267,528,456,190,562,526,259,0
2,1774291565712,81,6551,4867,-3780034,142942,1131322,0,0,0,220,205,133,278,250,291,192,115,142,119,87,249,0
1,1774291565728,-574,167,9968,52534,0,48869,0,0,0,90,70,42,307,219,255,514,457,189,548,516,254,0
2,1774291565728,392,5168,6159,-4359134,673173,729373,0,0,0,225,204,132,270,246,275,184,115,135,134,97,251,0
1,1774291565744,-531,201,9964,65973,-13439,54977,0,0,0,90,74,54,285,202,263,512,418,212,549,489,265,0
2,1774291565744,90,3919,7829,-4840496,1048244,261450,0,0,0,227,203,152,257,231,273,179,106,131,133,86,262,0
1,1774291565760,-531,205,9954,95294,-31764,57421,0,0,0,96,68,52,299,192,289,498,369,207,538,446,268,0
2,1774291565760,-301,2948,9696,-5199684,1143539,-135612,0,0,0,219,197,141,258,229,275,181,86,124,122,68,255,0
1,1774291565776,-564,157,9954,120951,-36651,62308,0,0,0,224,153,104,320,205,288,510,362,197,534,422,259,0
2,1774291565776,-57,2091,11533,-5477017,1014036,-383623,0,0,0,213,190,123,266,240,273,180,83,122,123,65,245,0
1,1774291565792,-612,114,9959,134390,-21991,69638,0,0,0,112,79,57,311,191,285,502,336,204,519,406,281,0
2,1774291565792,583,1368,13060,-5711589,963945,-466701,0,0,0,212,187,128,264,237,271,173,94,125,124,64,246,0
1,1774291565808,-626,90,9949,140499,2443,76969,0,0,0,105,65,59,310,191,284,502,347,208,517,403,303,0
2,1774291565808,1335,655,14826,-5936388,1097113,-324980,0,0,0,211,189,128,259,225,271,169,83,117,116,61,248,0
1,1774291565824,-569,76,9954,155159,20769,81855,0,0,0,98,89,57,299,216,283,485,363,212,496,406,312,0
2,1774291565824,1971,0,16721,-6081774,1286482,25656,0,0,0,215,194,130,255,227,274,151,44,109,119,64,245,0
1,1774291565840,-516,95,10016,195476,13439,81855,0,0,0,193,153,106,315,212,283,479,317,204,479,374,313,0
2,1774291565840,2857,-1129,18640,-6048787,1532050,554665,0,0,0,214,204,124,254,215,271,170,76,116,111,62,249,0
1,1774291565856,-512,100,10117,266337,0,81855,0,0,0,175,163,102,325,234,315,459,298,210,439,338,329,0
2,1774291565856,3603,-3024,21033,-5759237,1940107,1115439,0,0,0,218,188,124,277,222,287,155,74,100,118,68,252,0
1,1774291565872,-536,33,10193,332310,-14660,81855,0,0,0,205,183,101,334,253,325,441,292,200,396,302,342,0
2,1774291565872,3230,-5240,24034,-5259549,2345722,1726305,0,0,0,222,197,128,307,256,288,161,64,112,135,79,260,0
1,1774291565888,-579,-28,10251,382401,-20769,84299,0,0,0,252,209,108,348,254,313,431,266,193,373,269,367,0
2,1774291565888,2038,-8202,26164,-4996877,2338392,2492330,0,0,0,228,195,131,284,242,282,171,90,121,138,81,257,0
1,1774291565904,-603,-81,10323,422718,-20769,87964,0,0,0,226,211,97,363,269,326,417,246,212,355,254,407,0
2,1774291565904,1009,-13500,26125,-4994434,2236988,3216816,0,0,0,232,197,134,260,215,267,220,124,172,151,89,264,0
1,1774291565920,-593,-138,10394,476474,-25656,95294,0,0,0,205,214,90,381,309,369,398,253,234,326,246,436,0
2,1774291565920,315,-21866,23450,-5023755,2260201,3370754,0,0,0,231,198,136,249,214,263,191,80,162,150,80,271,0
1,1774291565936,-569,-215,10485,538783,-39095,100181,0,0,0,231,230,105,397,322,410,375,223,246,310,209,463,0
2,1774291565936,-559,-30801,18722,-4234517,2288301,2659707,0,0,0,226,201,132,246,230,260,175,61,143,158,91,271,0
1,1774291565952,-603,-311,10677,627969,-62308,106290,0,0,0,282,279,129,397,309,436,339,159,263,302,186,492,0
2,1774291565952,-2617,-34879,12471,-2811201,2070833,1437976,0,0,0,223,202,126,249,229,257,203,93,143,172,112,253,0
1,1774291565968,-660,-392,10959,750142,-85521,123394,0,0,0,227,291,84,406,363,446,325,168,247,297,205,487,0
2,1774291565968,-6278,-34343,10605,-1302364,1874134,142942,0,0,0,217,197,126,252,223,270,225,144,125,194,168,242,0
1,1774291565984,-693,-464,11433,976162,-91629,151494,0,0,0,270,315,91,379,395,442,295,164,258,297,226,510,0
2,1774291565984,-11969,-32959,11696,346971,1213178,-630412,0,0,0,204,184,123,254,235,286,243,246,95,257,296,251,0
1,1774291566000,-737,-593,12045,1376890,-34208,183259,0,0,0,370,385,153,357,360,454,198,134,308,236,194,517,0
2,1774291566000,-11624,-22110,12993,2304183,-855211,-697608,0,0,0,201,170,105,283,246,275,308,391,118,349,396,231,0
1,1774291566016,-760,-746,12672,1843591,106290,206472,0,0,0,351,357,127,356,360,425,224,180,281,241,198,510,0
2,1774291566016,157,4833,14003,4108679,-2642603,-714712,0,0,0,225,186,114,348,284,285,421,458,149,380,463,233,0
1,1774291566032,-842,-904,13194,2367713,348193,221133,0,0,0,320,379,115,368,384,411,176,139,258,257,195,490,0
2,1774291566032,5652,9495,15601,4726875,-2590068,-614530,0,0,0,243,198,119,270,233,288,470,506,209,428,507,276,0
1,1774291566048,-1110,-1119,13438,2861292,646295,250454,0,0,0,358,421,150,341,366,399,135,126,260,242,203,483,0
2,1774291566048,2881,598,17051,4503298,-2065946,-182037,0,0,0,293,221,138,279,235,271,523,518,203,476,523,300,0
1,1774291566064,-1732,-1296,15137,3354871,1017701,345749,0,0,0,320,395,124,341,372,399,127,122,243,236,222,449,0
2,1774291566064,-1631,-3689,16592,3238807,-1299921,182037,0,0,0,312,214,170,283,232,291,548,514,220,526,545,365,0
1,1774291566080,-2388,-1378,18640,4090353,1403768,518013,0,0,0,223,339,80,346,388,379,135,131,217,229,226,420,0
2,1774291566080,-2479,-2402,14606,1805717,-560774,193033,0,0,0,342,218,165,278,235,270,576,515,237,545,536,371,0
1,1774291566096,-3082,-1464,23311,5111720,1892460,737925,0,0,0,155,275,66,333,375,363,136,129,215,210,211,411,0
2,1774291566096,-536,-129,11950,840550,-136833,64751,0,0,0,375,241,172,314,265,303,589,499,206,597,563,394,0
1,1774291566112,-4182,-1737,30571,6576575,2630385,1014036,0,0,0,143,212,78,292,326,350,136,117,218,190,193,390,0
2,1774291566112,483,545,10074,443488,-36651,51312,0,0,0,388,287,174,314,263,317,640,534,233,625,567,403,0
1,1774291566128,-5599,-1785,34012,7720114,3006678,1211956,0,0,0,129,147,82,236,248,291,151,111,183,184,175,332,0
2,1774291566128,224,177,9753,335975,-97738,78190,0,0,0,393,294,177,328,269,329,654,536,215,633,583,417,0
1,1774291566144,-5896,-985,34271,8764694,2926044,1423316,0,0,0,76,62,52,226,167,225,165,98,141,197,158,271,0
2,1774291566144,-124,-9,10256,190589,-109955,67195,0,0,0,401,282,181,336,261,329,669,538,201,639,609,423,0
1,1774291566160,-4245,2392,29571,9567371,2365270,1568701,0,0,0,57,34,24,250,148,195,170,109,127,228,136,244,0
2,1774291566160,-186,157,10519,79412,-56199,34208,0,0,0,405,272,180,328,259,324,694,563,229,650,618,423,0
1,1774291566176,-1866,6259,16319,8790350,2145358,982271,0,0,0,44,43,31,205,162,209,165,113,139,198,138,248,0
2,1774291566176,-52,354,10437,68416,17104,8552,0,0,0,399,258,175,329,273,327,698,571,242,658,613,426,0
1,1774291566192,-449,7193,10662,5562538,1699427,-500909,0,0,0,36,36,40,205,157,260,160,99,164,192,131,296,0
2,1774291566192,38,406,10375,91629,69638,-4886,0,0,0,395,253,171,331,259,322,702,564,240,661,612,422,0
1,1774291566208,-741,4800,12490,656069,627969,-2197893,0,0,0,34,29,26,217,158,222,173,100,138,203,134,247,0
2,1774291566208,47,392,10370,109955,91629,-13439,0,0,0,401,259,172,336,280,328,691,543,229,663,609,431,0
1,1774291566224,-1550,-100,10921,-1375668,-408057,-2204001,0,0,0,29,28,24,212,160,227,168,102,145,196,132,245,0
2,1774291566224,124,368,10279,109955,95294,-18325,0,0,0,396,273,182,329,312,329,691,532,212,648,595,420,0
1,1774291566240,-9,-2665,6695,-1214400,-1180191,-1183856,0,0,0,37,23,24,218,153,232,167,103,157,205,134,255,0
2,1774291566240,205,358,10174,100181,72082,-21991,0,0,0,384,247,155,316,259,309,693,532,199,632,599,420,0
1,1774291566256,4407,-655,3527,-641408,-1203404,-39095,0,0,0,39,27,23,211,154,226,165,105,149,204,136,247,0
2,1774291566256,215,358,10093,83077,26878,-28099,0,0,0,368,247,163,319,265,324,706,521,248,610,567,419,0
1,1774291566272,6465,2818,2871,-1334129,45204,351858,0,0,0,41,29,21,218,151,214,180,105,138,217,135,239,0
2,1774291566272,157,373,10045,84299,0,-39095,0,0,0,364,251,159,331,275,330,666,473,206,618,558,433,0
1,1774291566288,4580,4527,2536,-2296853,1247386,592539,0,0,0,42,28,22,231,149,208,201,103,135,233,135,235,0
2,1774291566288,105,378,10064,114842,3665,-54977,0,0,0,361,250,161,338,276,333,685,480,253,600,512,405,0
1,1774291566304,1588,4498,2297,-2968805,1097113,1006705,0,0,0,40,28,22,231,151,206,204,101,132,231,134,232,0
2,1774291566304,114,354,10102,161268,28099,-64751,0,0,0,361,249,160,348,288,347,691,470,270,579,485,416,0
1,1774291566320,808,4355,2493,-3521027,305432,1408655,0,0,0,37,27,17,225,153,201,198,100,129,226,133,234,0
2,1774291566320,153,330,10102,197920,40317,-70860,0,0,0,367,250,157,347,282,348,698,469,255,567,456,422,0
1,1774291566336,1895,4187,3316,-4146553,-301767,1511280,0,0,0,34,21,19,233,153,212,207,98,141,238,132,248,0
2,1774291566336,191,291,10064,222354,36651,-73303,0,0,0,360,248,143,343,271,336,699,430,244,554,422,419,0
1,1774291566352,2201,3397,4297,-4769635,-252898,1229060,0,0,0,31,21,35,223,130,255,209,85,177,238,119,281,0
2,1774291566352,229,248,10040,239459,21991,-73303,0,0,0,352,248,138,352,270,329,690,398,242,538,399,430,0
1,1774291566368,1708,2167,5206,-5200906,-119729,813672,0,0,0,36,20,27,255,143,222,231,93,134,265,124,235,0
2,1774291566368,248,205,10045,252898,0,-69638,0,0,0,362,248,150,376,278,349,690,434,255,525,395,448,0
1,1774291566384,765,1158,5943,-5292536,-78190,345749,0,0,0,42,30,27,232,145,213,215,93,133,242,124,234,0
2,1774291566384,239,153,10054,263893,-26878,-69638,0,0,0,365,241,144,385,284,379,681,415,285,516,383,459,0
1,1774291566400,-47,909,6618,-5308418,-218689,-4886,0,0,0,36,31,28,245,146,214,211,88,127,238,119,221,0
2,1774291566400,210,86,10059,266337,-51312,-69638,0,0,0,369,248,140,355,274,380,647,328,299,499,339,476,0
1,1774291566416,-559,655,7346,-5423261,-469144,-235793,0,0,0,8,7,10,238,149,216,198,89,124,226,121,224,0
2,1774291566416,210,62,10088,262672,-64751,-68416,0,0,0,386,248,137,376,278,398,665,351,281,472,317,478,0
1,1774291566432,-545,282,7930,-5527108,-698829,-410501,0,0,0,30,27,18,236,154,213,200,102,130,223,125,226,0
2,1774291566432,239,38,10107,261450,-84299,-67195,0,0,0,385,248,155,417,299,405,641,304,269,480,323,498,0
1,1774291566448,-593,191,8365,-5541769,-730594,-696386,0,0,0,16,16,14,239,149,212,199,92,122,227,122,227,0
2,1774291566448,234,0,10112,262672,-103847,-67195,0,0,0,382,232,187,417,299,430,689,336,346,464,288,527,0
1,1774291566464,-1129,205,8858,-5577199,-709825,-979827,0,0,0,29,24,17,249,147,221,203,87,121,225,119,218,0
2,1774291566464,196,-23,10155,268780,-114842,-68416,0,0,0,401,240,179,407,296,448,639,251,347,428,256,505,0
1,1774291566480,-2010,-248,9614,-5629734,-795346,-1147204,0,0,0,35,31,22,246,154,228,199,89,124,214,118,210,0
2,1774291566480,167,-52,10198,282219,-114842,-68416,0,0,0,432,265,157,434,325,447,642,261,330,418,243,520,0
1,1774291566496,-2598,-1880,10993,-5486791,-1095892,-1036027,0,0,0,19,23,21,239,155,230,195,90,125,207,116,210,0
2,1774291566496,177,-86,10241,301767,-109955,-69638,0,0,0,453,270,149,443,319,447,639,222,299,398,241,535,0
1,1774291566512,-2546,-4331,13184,-5141041,-1481959,-766025,0,0,0,17,20,19,239,147,232,197,87,126,212,118,211,0
2,1774291566512,234,-114,10260,322536,-123394,-73303,0,0,0,481,282,158,449,344,449,616,174,299,363,242,545,0
1,1774291566528,-1679,-7824,16367,-4769635,-1797165,-493579,0,0,0,26,23,20,239,149,232,196,90,127,215,126,212,0
2,1774291566528,301,-177,10275,355523,-152716,-85521,0,0,0,500,313,174,461,380,473,603,147,322,336,175,564,0
1,1774291566544,-708,-12529,19301,-4520402,-1936442,-315206,0,0,0,23,15,16,235,158,230,201,108,135,212,133,216,0
2,1774291566544,306,-253,10318,400727,-179594,-105068,0,0,0,508,355,180,474,397,497,569,118,333,326,115,599,0
1,1774291566560,-9,-17946,20296,-4271169,-1841147,-239459,0,0,0,20,16,14,235,168,231,202,117,134,217,142,218,0
2,1774291566560,296,-320,10490,482583,-191811,-131946,0,0,0,528,394,174,485,407,489,511,97,328,319,118,635,0
1,1774291566576,86,-22627,18947,-3755599,-1617571,-204028,0,0,0,28,15,9,234,161,229,201,108,132,217,130,219,0
2,1774291566576,373,-382,10796,643851,-193033,-166155,0,0,0,552,414,177,494,420,478,486,117,332,299,98,650,0
1,1774291566592,229,-25407,16956,-3117856,-1583362,-73303,0,0,0,43,33,22,234,161,229,196,108,129,215,136,217,0
2,1774291566592,492,-521,11083,851546,-201585,-219911,0,0,0,528,437,193,504,442,506,452,125,341,268,95,656,0
1,1774291566608,1651,-26709,14993,-2251649,-1781283,228463,0,0,0,44,32,21,238,158,232,200,102,129,218,128,218,0
2,1774291566608,550,-746,11347,1083674,-224798,-293215,0,0,0,540,464,179,499,472,539,414,144,362,203,95,642,0
1,1774291566624,4723,-26623,13673,-1097113,-1832595,529009,0,0,0,42,26,18,241,151,233,205,105,133,223,130,218,0
2,1774291566624,507,-890,11768,1347568,-241902,-364075,0,0,0,557,493,194,501,496,542,372,98,322,163,87,646,0
1,1774291566640,8212,-25010,12639,249233,-1387885,775798,0,0,0,11,9,8,230,153,215,242,211,145,245,175,181,0
2,1774291566640,311,-875,12313,1671327,-245567,-426383,0,0,0,582,509,192,478,535,530,330,127,323,159,83,658,0
1,1774291566656,9930,-16209,16262,1244943,-450818,850324,0,0,0,1,12,6,209,177,191,281,390,139,283,358,162,0
2,1774291566656,-119,-794,12845,2047620,-273667,-447153,0,0,0,571,516,200,462,518,519,295,153,362,125,82,644,0
1,1774291566672,8671,8662,18037,2138028,345749,670730,0,0,0,2,15,5,222,191,192,329,507,137,356,455,157,0
2,1774291566672,-588,-851,13213,2450791,-361632,-384845,0,0,0,566,498,194,470,530,528,239,139,363,115,80,639,0
1,1774291566688,1914,25532,14390,3384193,574213,388510,0,0,0,48,50,36,243,194,215,380,543,147,441,488,173,0
2,1774291566688,-622,-1033,14027,2945592,-466701,-271224,0,0,0,561,511,198,438,519,497,195,115,307,120,83,638,0
1,1774291566704,-2459,8260,17956,4930904,551000,129503,0,0,0,103,83,69,253,180,244,424,541,167,510,515,211,0
2,1774291566704,459,-1296,16286,3595552,-582765,-252898,0,0,0,523,500,180,429,545,483,200,116,281,140,101,625,0
1,1774291566720,-545,-7432,22191,4631580,111177,-197920,0,0,0,90,61,49,264,175,255,441,544,177,535,526,233,0
2,1774291566720,1765,-1603,20066,4575380,-758694,-376292,0,0,0,471,472,155,422,546,458,203,126,261,152,128,583,0
1,1774291566736,2067,-4852,18573,2582738,-659734,-129503,0,0,0,127,82,56,271,189,247,452,567,173,543,552,237,0
2,1774291566736,3393,-2373,26211,5968153,-1061683,-665843,0,0,0,430,424,142,393,469,419,156,95,188,148,118,510,0
1,1774291566752,914,660,12644,1277930,-1114218,56199,0,0,0,240,156,108,280,180,247,507,572,185,581,562,254,0
2,1774291566752,4455,-3852,32854,7368256,-1428202,-994488,0,0,0,373,343,134,349,372,396,114,55,120,138,76,416,0
1,1774291566768,-1617,1679,9006,970053,-1070235,81855,0,0,0,104,66,41,313,196,257,554,552,178,596,572,271,0
2,1774291566768,5326,-4886,36688,8525235,-1617571,-1275486,0,0,0,281,264,134,287,301,353,145,85,126,126,74,319,0
1,1774291566784,-2254,-492,9681,879645,-706160,-9773,0,0,0,101,81,45,314,225,275,596,573,193,607,615,293,0
2,1774291566784,6465,-2211,34563,9385333,-1203404,-1555262,0,0,0,239,207,140,283,250,311,172,84,94,124,61,278,0
1,1774291566800,-1402,-837,11021,527787,-351858,-21991,0,0,0,114,87,46,311,225,262,604,575,191,637,617,288,0
2,1774291566800,5470,3656,26814,10414030,-709825,-1810604,0,0,0,232,201,133,262,239,310,172,126,157,139,72,291,0
1,1774291566816,-933,-81,10801,262672,-208915,8552,0,0,0,119,104,54,316,248,281,615,577,206,637,609,285,0
2,1774291566816,3608,5187,16865,10991909,-921184,-1403768,0,0,0,232,200,135,268,241,310,156,91,115,144,81,290,0
1,1774291566832,-1048,306,10289,141720,-157603,25656,0,0,0,138,109,56,325,249,279,617,579,209,638,618,295,0
2,1774291566832,2770,7001,11672,8721933,-849102,-232128,0,0,0,230,200,135,259,251,294,150,69,107,140,76,273,0
1,1774291566848,-1076,224,10337,67195,-85521,20769,0,0,0,151,116,57,332,245,266,624,581,209,640,611,292,0
2,1774291566848,1890,11849,7843,2539977,25656,933402,0,0,0,235,218,123,286,307,284,163,69,107,142,90,263,0
1,1774291566864,-933,244,10356,6108,-43982,20769,0,0,0,154,115,59,315,239,268,594,571,208,636,607,285,0
2,1774291566864,1196,10088,6451,-2817310,560774,1171639,0,0,0,232,194,115,274,260,289,148,56,100,144,68,258,0
1,1774291566880,-885,320,10212,-36651,-30543,24434,0,0,0,152,113,61,304,242,261,561,577,201,629,602,276,0
2,1774291566880,851,3780,5494,-4322482,778242,518013,0,0,0,243,202,135,262,242,273,171,94,131,141,65,254,0
1,1774291566896,-961,315,10054,-73303,3665,26878,0,0,0,150,112,61,299,247,258,536,571,192,622,603,276,0
2,1774291566896,-306,1134,3426,-4029267,1167974,-322536,0,0,0,244,208,135,276,252,278,156,77,113,146,77,265,0
1,1774291566912,-928,315,10007,-97738,48869,32986,0,0,0,148,106,65,298,227,269,515,562,191,614,605,275,0
2,1774291566912,-3330,3153,2077,-3629761,1433089,-852767,0,0,0,237,198,125,327,283,299,166,69,113,161,89,277,0
1,1774291566928,-842,339,9992,-113620,81855,42760,0,0,0,148,100,68,301,203,272,506,562,192,606,599,268,0
2,1774291566928,-6255,5470,1904,-3887546,1009149,-1000597,0,0,0,234,190,125,332,277,303,175,83,129,162,89,272,0
1,1774291566944,-804,368,9978,-118507,95294,52534,0,0,0,145,102,65,297,205,256,501,564,183,601,592,263,0
2,1774291566944,-6034,6010,2531,-4577824,-80634,-737925,0,0,0,236,196,128,278,239,292,153,85,123,150,82,264,0
1,1774291566960,-789,363,9949,-131946,117286,62308,0,0,0,136,107,64,291,214,248,480,562,174,599,596,256,0
2,1774291566960,-3340,5350,2747,-4922352,-444709,-453262,0,0,0,232,200,125,272,254,290,165,101,131,149,87,270,0
1,1774291566976,-727,397,9944,-146607,138055,75747,0,0,0,139,125,73,298,228,247,482,558,184,603,597,266,0
2,1774291566976,-1775,4900,3201,-5033529,40317,-226020,0,0,0,222,192,121,281,256,300,148,82,115,150,90,271,0
1,1774291566992,-650,473,9930,-150272,142942,90408,0,0,0,132,107,63,301,228,256,474,557,193,600,609,276,0
2,1774291566992,-2359,4694,4489,-5095837,741590,32986,0,0,0,235,185,130,280,243,295,171,78,118,159,89,276,0
1,1774291567008,-636,502,9906,-134390,131946,98960,0,0,0,117,97,54,290,244,264,440,556,167,585,618,250,0
2,1774291567008,-3110,4436,6039,-5220454,989601,353080,0,0,0,230,184,126,262,221,292,141,54,100,174,98,275,0
1,1774291567024,-650,521,9882,-116064,124616,102625,0,0,0,123,108,54,288,230,253,447,556,167,584,621,241,0
2,1774291567024,-2943,4144,7494,-5406157,797790,645073,0,0,0,241,184,132,285,216,285,173,93,135,190,92,286,0
1,1774291567040,-655,550,9892,-94073,124616,103847,0,0,0,122,101,51,305,239,277,440,554,155,584,615,232,0
2,1774291567040,-1919,3948,8892,-5646838,662177,737925,0,0,0,242,187,133,282,231,295,171,94,127,179,89,287,0
1,1774291567056,-579,593,9940,-63529,117286,96516,0,0,0,128,108,59,291,231,277,428,554,154,584,617,241,0
2,1774291567056,-1086,3747,10442,-5921727,665843,682947,0,0,0,231,181,127,271,232,284,195,101,134,168,79,266,0
1,1774291567072,-497,636,9973,-28099,91629,84299,0,0,0,118,87,53,303,233,285,439,554,166,581,614,253,0
2,1774291567072,-421,3378,12428,-6233268,695164,530231,0,0,0,239,182,126,289,231,272,201,77,118,183,83,255,0
1,1774291567088,-459,674,9987,25656,39095,65973,0,0,0,114,85,53,297,233,277,431,559,179,573,600,255,0
2,1774291567088,655,2890,15080,-6564357,689055,398284,0,0,0,241,179,124,299,231,283,216,86,131,185,73,263,0
1,1774291567104,-440,670,9978,96516,-12217,51312,0,0,0,189,135,92,277,212,262,431,546,191,560,573,256,0
2,1774291567104,2163,1828,18190,-6853907,836885,313984,0,0,0,233,174,119,289,221,277,209,86,141,182,63,263,0
1,1774291567120,-440,631,9954,195476,-63529,48869,0,0,0,192,140,90,288,215,267,452,520,198,552,547,269,0
2,1774291567120,3747,-2029,22373,-6690196,1406211,301767,0,0,0,230,173,118,285,213,264,193,55,108,182,66,255,0
1,1774291567136,-473,555,9964,307876,-111177,51312,0,0,0,128,107,55,313,235,272,478,465,195,554,509,276,0
2,1774291567136,4479,-7532,27427,-5883853,2141693,437379,0,0,0,236,174,123,293,216,265,185,31,87,179,69,253,0
1,1774291567152,-526,478,10035,409279,-151494,52534,0,0,0,130,119,59,322,245,272,503,396,191,550,460,277,0
2,1774291567152,4982,-14022,30610,-4867374,2250427,810007,0,0,0,240,176,136,291,217,275,166,36,114,172,67,260,0
1,1774291567168,-617,425,10136,494800,-173485,53756,0,0,0,133,150,68,332,274,297,510,370,203,528,423,312,0
2,1774291567168,6982,-21818,29786,-4142888,2026850,1114218,0,0,0,237,176,156,283,207,289,158,56,120,167,69,273,0
1,1774291567184,-674,358,10208,564439,-168598,58643,0,0,0,147,184,74,323,274,301,476,335,213,505,367,347,0
2,1774291567184,8791,-30097,23651,-3599217,2295631,1062905,0,0,0,244,179,131,294,244,287,201,94,165,172,74,268,0
1,1774291567200,-655,239,10299,632856,-166155,61086,0,0,0,183,246,107,304,308,308,454,304,234,436,335,377,0
2,1774291567200,3871,-33433,16420,-2873510,3549127,558330,0,0,0,236,181,131,303,238,297,199,124,145,176,60,265,0
1,1774291567216,-670,153,10437,689055,-178372,63529,0,0,0,187,259,111,298,320,333,411,271,245,357,286,428,0
2,1774291567216,-5384,-32931,12902,-1886351,4240626,97738,0,0,0,236,179,135,295,222,288,200,107,129,167,73,262,0
1,1774291567232,-732,47,10648,747699,-196698,63529,0,0,0,194,235,122,327,307,375,385,247,274,342,276,509,0
2,1774291567232,-14591,-31318,11706,-632856,3105638,-207694,0,0,0,236,179,130,280,206,290,193,79,127,192,93,265,0
1,1774291567248,-894,-14,10897,828333,-215024,69638,0,0,0,272,288,174,340,329,403,370,186,293,333,230,524,0
2,1774291567248,-14501,-27365,13917,814894,-208915,-389732,0,0,0,214,170,117,295,234,270,256,151,162,241,182,245,0
1,1774291567264,-1191,-90,11275,973719,-234572,105068,0,0,0,317,349,150,345,384,403,300,165,293,290,224,564,0
2,1774291567264,-5068,-9930,16161,2431243,-3483153,-447153,0,0,0,210,166,106,302,236,275,308,326,151,268,343,241,0
1,1774291567280,-1584,-277,12165,1317025,-222354,211359,0,0,0,341,353,140,343,400,419,240,157,301,263,213,561,0
2,1774291567280,7006,18257,14079,3307224,-4999321,-65973,0,0,0,219,178,110,223,197,271,308,390,195,303,423,260,0
1,1774291567296,-1785,-425,13448,1863138,-95294,346971,0,0,0,375,410,147,314,379,419,171,137,290,245,217,556,0
2,1774291567296,4536,15209,10409,3788586,-3787364,1037249,0,0,0,235,181,116,238,209,277,372,401,184,356,462,279,0
1,1774291567312,-1780,-516,14501,2532647,183259,452040,0,0,0,397,458,157,308,370,409,133,121,269,256,221,539,0
2,1774291567312,-4125,-1210,13275,4663345,-2405587,1624901,0,0,0,252,186,120,278,239,292,479,446,190,445,493,300,0
1,1774291567328,-1536,-703,14496,3336545,737925,521678,0,0,0,398,469,162,334,370,407,125,109,267,265,207,507,0
2,1774291567328,-6652,-5144,17181,3966958,-1590693,858876,0,0,0,274,198,131,286,247,314,558,487,238,513,502,330,0
1,1774291567344,-1325,-909,14505,3847229,1246165,540004,0,0,0,351,447,145,350,365,413,123,110,277,251,205,481,0
2,1774291567344,-4000,-2584,17023,2412917,-708603,4886,0,0,0,299,203,147,292,235,329,547,459,231,508,504,345,0
1,1774291567360,-2019,-952,17453,4384790,1604132,593761,0,0,0,255,387,114,341,369,416,127,128,264,245,234,463,0
2,1774291567360,-421,-153,13720,1007927,69638,-188146,0,0,0,319,205,155,266,211,329,513,433,221,503,500,346,0
1,1774291567376,-3249,-976,21588,5264436,2025629,762359,0,0,0,200,348,112,327,353,399,126,125,241,227,221,439,0
2,1774291567376,-43,-282,11194,522900,331088,72082,0,0,0,346,209,159,288,220,350,626,498,253,523,470,375,0
1,1774291567392,-4599,-1560,26891,6459289,2712241,1071457,0,0,0,148,250,86,282,347,353,132,138,216,206,204,380,0
2,1774291567392,-272,134,9705,414166,296880,156381,0,0,0,377,224,170,267,197,294,623,489,235,536,483,393,0
1,1774291567408,-5312,-2866,31361,7508755,3456275,1368338,0,0,0,102,185,91,233,291,323,137,127,197,187,185,351,0
2,1774291567408,-138,253,9566,338419,239459,85521,0,0,0,387,212,151,292,230,318,674,541,259,561,541,388,0
1,1774291567424,-5752,-2167,31040,8159937,3601661,1524719,0,0,0,60,82,45,249,199,245,148,98,143,187,154,274,0
2,1774291567424,38,-33,10064,190589,201585,37873,0,0,0,387,205,149,300,237,310,687,489,238,615,581,404,0
1,1774291567440,-6369,2100,26680,8608312,2917492,1640784,0,0,0,28,46,24,222,198,227,138,127,133,202,176,254,0
2,1774291567440,-47,-201,10562,45204,160046,21991,0,0,0,401,215,168,349,245,335,692,507,254,640,568,402,0
1,1774291567456,-5254,8772,15979,8721933,1816713,1837482,0,0,0,40,50,36,224,183,227,142,118,133,198,165,245,0
2,1774291567456,-143,76,10557,6108,153938,4886,0,0,0,391,213,162,328,245,332,708,534,257,626,571,398,0
1,1774291567472,-2751,11562,7915,7064045,1251052,1745852,0,0,0,31,37,27,214,180,220,139,116,127,193,165,257,0
2,1774291567472,-67,287,10500,14660,160046,-4886,0,0,0,372,216,159,319,243,322,712,539,246,630,585,419,0
1,1774291567488,-1153,12222,8580,2351831,548556,1153313,0,0,0,28,28,22,209,174,230,147,108,141,189,150,257,0
2,1774291567488,14,325,10471,40317,150272,-10995,0,0,0,360,221,158,309,236,304,724,549,269,615,574,399,0
1,1774291567504,-1162,10160,9676,-1473406,-222354,557109,0,0,0,36,48,34,202,177,241,152,107,154,181,146,258,0
2,1774291567504,47,291,10370,62308,133168,-12217,0,0,0,353,226,157,296,237,294,729,556,278,610,572,392,0
1,1774291567520,-1507,6283,7398,-2838079,-860098,134390,0,0,0,55,80,52,204,182,242,156,114,155,184,154,258,0
2,1774291567520,100,244,10227,75747,106290,-12217,0,0,0,346,224,157,289,230,293,714,542,258,603,567,389,0
1,1774291567536,-536,4761,4446,-2378709,-1040914,3665,0,0,0,65,84,59,211,176,247,161,110,162,194,149,258,0
2,1774291567536,148,244,10174,69638,59864,-14660,0,0,0,340,215,159,289,221,293,699,520,231,580,549,375,0
1,1774291567552,641,5034,3646,-2359161,-874759,-42760,0,0,0,55,67,60,201,165,261,154,100,178,184,137,273,0
2,1774291567552,148,258,10145,67195,9773,-20769,0,0,0,334,215,159,295,234,299,700,513,218,576,539,389,0
1,1774291567568,880,5723,4441,-2999348,-485026,-46425,0,0,0,59,58,67,200,150,269,150,93,184,179,127,281,0
2,1774291567568,90,244,10112,67195,-12217,-28099,0,0,0,338,223,165,313,224,307,694,492,249,569,508,382,0
1,1774291567584,-502,5398,5599,-3924198,-339641,83077,0,0,0,56,58,61,205,153,260,156,95,173,178,123,270,0
2,1774291567584,33,244,10083,72082,-10995,-34208,0,0,0,341,207,169,353,237,314,702,500,256,558,505,366,0
1,1774291567600,-1689,4503,6532,-4502076,-713490,331088,0,0,0,48,49,48,218,159,248,160,93,147,181,116,241,0
2,1774291567600,0,253,10040,83077,8552,-39095,0,0,0,340,203,141,345,217,309,678,454,224,546,504,345,0
1,1774291567616,-1574,3546,7753,-4884478,-1364672,610865,0,0,0,56,47,47,242,165,242,190,90,138,212,117,238,0
2,1774291567616,23,248,10002,101403,40317,-43982,0,0,0,328,232,145,325,257,315,694,485,254,518,496,337,0
1,1774291567632,-789,2708,9289,-5218010,-1805717,767246,0,0,0,46,38,35,226,162,247,170,83,148,192,113,247,0
2,1774291567632,86,234,9959,120951,65973,-51312,0,0,0,328,237,145,336,280,330,700,479,269,522,484,348,0
1,1774291567648,-14,1880,11256,-5542991,-1923003,737925,0,0,0,55,38,34,230,156,245,162,85,145,183,114,244,0
2,1774291567648,167,220,9925,142942,72082,-58643,0,0,0,327,237,149,343,294,345,707,465,281,508,465,348,0
1,1774291567664,-162,909,13496,-5849645,-1870469,511905,0,0,0,105,100,92,206,155,235,145,86,138,165,113,232,0
2,1774291567664,205,191,9916,164933,58643,-63529,0,0,0,327,241,180,331,291,341,709,441,254,475,482,348,0
1,1774291567680,-794,-71,15539,-6065891,-1954768,210137,0,0,0,64,60,55,208,162,239,155,91,143,170,117,240,0
2,1774291567680,162,148,9935,185703,57421,-67195,0,0,0,314,222,167,336,263,361,744,452,301,469,468,365,0
1,1774291567696,-1387,-1167,17721,-6168517,-2230879,-152716,0,0,0,41,34,29,219,163,241,166,100,149,185,126,247,0
2,1774291567696,105,119,9983,213802,81855,-74525,0,0,0,296,200,142,336,238,362,771,444,332,469,439,378,0
1,1774291567712,-1789,-3517,20401,-6101322,-2613281,-612086,0,0,0,42,33,27,223,160,241,175,97,151,194,126,249,0
2,1774291567712,110,90,10035,256563,112399,-79412,0,0,0,299,194,137,335,237,344,765,398,293,467,419,385,0
1,1774291567728,-1804,-7461,22900,-5706703,-3082425,-1231504,0,0,0,35,28,23,228,164,243,179,90,149,194,121,247,0
2,1774291567728,191,47,10074,318871,119729,-80634,0,0,0,320,201,139,343,250,340,754,355,267,493,406,405,0
1,1774291567744,-397,-12055,24594,-4885700,-3505144,-2085493,0,0,0,34,29,25,229,167,244,177,93,148,194,123,248,0
2,1774291567744,287,14,10141,378736,103847,-81855,0,0,0,333,207,137,347,259,355,765,322,284,514,382,435,0
1,1774291567760,1990,-15754,24584,-4326147,-3266907,-2781880,0,0,0,75,66,56,224,156,239,178,96,149,194,122,248,0
2,1774291567760,344,-19,10212,426383,63529,-81855,0,0,0,343,212,138,377,281,392,779,292,300,466,313,455,0
1,1774291567776,3302,-19636,22435,-4382347,-2724458,-2889392,0,0,0,156,143,122,214,136,227,169,81,141,181,102,235,0
2,1774291567776,291,-67,10279,489913,47647,-76969,0,0,0,349,226,144,396,290,400,793,305,362,430,258,460,0
1,1774291567792,3058,-24192,17721,-4725653,-2521651,-2113593,0,0,0,152,138,115,197,131,207,171,85,138,171,103,231,0
2,1774291567792,239,-100,10433,594982,96516,-62308,0,0,0,363,243,145,420,304,408,781,236,417,365,199,500,0
1,1774291567808,2593,-29360,13247,-4438546,-2447126,-989601,0,0,0,146,136,107,190,128,194,193,97,143,168,101,215,0
2,1774291567808,196,-205,10705,726929,213802,-45204,0,0,0,402,297,148,492,355,493,763,104,437,369,175,535,0
1,1774291567824,3527,-34984,9820,-2996904,-1993864,298102,0,0,0,134,128,112,161,119,186,198,156,151,174,145,203,0
2,1774291567824,191,-306,11050,868650,382401,-12217,0,0,0,454,273,174,484,328,469,715,81,429,314,98,547,0
1,1774291567840,12672,-39042,8949,-728151,-943175,874759,0,0,0,137,118,104,177,124,177,214,196,143,197,202,186,0
2,1774291567840,397,-296,11337,1021366,508239,21991,0,0,0,459,275,160,505,369,493,691,68,445,233,68,550,0
1,1774291567856,19640,-34467,7537,1958433,1982868,80634,0,0,0,92,105,74,179,151,183,294,308,152,240,221,170,0
2,1774291567856,756,-387,11586,1215621,467922,30543,0,0,0,513,313,168,538,431,533,599,104,465,196,51,576,0
1,1774291567872,9992,-9428,10705,3993836,4921130,-1480737,0,0,0,15,18,18,211,164,215,311,356,164,302,283,193,0
2,1774291567872,990,-545,12103,1508837,306654,14660,0,0,0,549,352,178,548,474,540,509,102,412,189,77,620,0
1,1774291567888,1899,12557,17324,3907094,3869220,-1846034,0,0,0,41,38,34,231,179,233,347,371,177,355,324,227,0
2,1774291567888,981,-775,13065,1991420,81855,-18325,0,0,0,552,354,173,545,473,535,434,109,402,190,79,635,0
1,1774291567904,3546,10524,18009,3452610,1668883,-1609019,0,0,0,47,42,34,241,180,236,417,401,177,400,390,256,0
2,1774291567904,933,-1110,14491,2663372,-58643,-69638,0,0,0,534,366,172,519,471,541,361,111,418,172,65,644,0
1,1774291567920,7805,-4015,15051,2598620,-680503,-875980,0,0,0,42,42,29,248,183,248,469,413,181,422,429,276,0
2,1774291567920,890,-1100,16688,3488040,-98960,-129503,0,0,0,504,405,172,485,492,537,298,112,387,142,57,625,0
1,1774291567936,4249,-5178,13749,1516167,-1437976,-130725,0,0,0,53,44,32,256,183,255,486,416,192,430,441,275,0
2,1774291567936,1124,-526,19722,4484972,-124616,-178372,0,0,0,485,437,162,475,500,518,258,135,340,138,56,564,0
1,1774291567952,-325,-952,12988,838107,-1527163,135612,0,0,0,71,43,36,276,176,247,512,422,190,456,441,265,0
2,1774291567952,1837,-33,24656,5918062,-310319,-278554,0,0,0,490,434,161,478,465,500,230,122,293,164,79,531,0
1,1774291567968,-1517,818,11155,641408,-1222952,-19547,0,0,0,81,55,38,297,176,243,552,435,176,503,438,265,0
2,1774291567968,2148,38,29643,7408573,-648738,-379958,0,0,0,458,365,154,438,414,439,173,86,210,158,68,483,0
1,1774291567984,-1139,239,9791,485026,-874759,-106290,0,0,0,82,71,39,287,196,256,538,471,186,510,465,270,0
2,1774291567984,2627,201,30921,8558221,-635299,-388510,0,0,0,349,291,138,365,333,333,167,101,165,146,86,369,0
1,1774291568000,-899,-545,9973,280998,-566882,-65973,0,0,0,84,84,55,280,203,285,530,476,218,508,506,292,0
2,1774291568000,3474,961,30849,9424428,-28099,-445931,0,0,0,290,203,136,281,253,301,197,108,190,132,61,289,0
1,1774291568016,-1095,-272,10466,54977,-252898,-14660,0,0,0,92,85,53,290,209,271,531,533,204,524,522,281,0
2,1774291568016,2799,4642,28068,9970542,640186,-619417,0,0,0,253,198,139,269,244,298,184,109,185,147,72,287,0
1,1774291568032,-985,114,10413,-78190,-19547,3665,0,0,0,84,116,48,276,229,259,518,519,205,542,522,272,0
2,1774291568032,1837,11342,15242,9688322,95294,-861319,0,0,0,238,195,136,276,247,296,176,109,164,143,100,277,0
1,1774291568048,-650,291,10227,-119729,92851,12217,0,0,0,93,84,54,281,200,264,528,526,210,536,522,273,0
2,1774291568048,961,14965,8408,7202101,-1412320,-1244943,0,0,0,231,199,134,272,252,299,158,129,144,132,121,268,0
1,1774291568064,-392,349,10308,-97738,83077,19547,0,0,0,102,71,49,298,189,257,529,514,193,544,513,276,0
2,1774291568064,1899,16506,9992,1425759,-2682920,-1966986,0,0,0,229,199,136,266,248,289,174,114,121,129,96,266,0
1,1774291568080,-315,382,10327,-59864,18325,23212,0,0,0,108,77,52,296,192,247,522,517,186,545,513,268,0
2,1774291568080,3866,13735,11806,-3503923,-1955990,-2698802,0,0,0,229,197,150,260,240,301,176,84,120,115,59,281,0
1,1774291568096,-430,325,10160,-29321,-30543,24434,0,0,0,104,74,45,288,191,230,479,499,190,539,522,251,0
2,1774291568096,3905,8312,9830,-5181358,163711,-3189938,0,0,0,229,194,153,258,234,300,167,73,130,115,55,285,0
1,1774291568112,-555,253,10016,-30543,-13439,29321,0,0,0,102,76,52,282,194,248,484,507,189,542,531,258,0
2,1774291568112,1172,6020,6862,-4659680,1183856,-3240029,0,0,0,230,193,138,266,235,274,178,89,139,137,86,271,0
1,1774291568128,-555,268,9987,-43982,24434,39095,0,0,0,105,84,63,278,199,257,495,510,192,536,527,264,0
2,1774291568128,-1301,5661,5642,-4379903,1155757,-2968805,0,0,0,226,194,137,267,242,281,177,106,151,140,106,275,0
1,1774291568144,-488,296,10021,-40317,52534,50090,0,0,0,114,99,65,271,200,247,488,501,189,530,519,262,0
2,1774291568144,-1651,5546,6374,-4714657,515570,-2368935,0,0,0,224,192,139,249,237,272,165,69,123,136,78,274,0
1,1774291568160,-425,301,10035,-28099,63529,58643,0,0,0,109,101,54,273,203,239,480,486,180,527,505,257,0
2,1774291568160,-330,4977,7351,-5087285,106290,-1762957,0,0,0,228,196,139,246,204,264,163,63,120,141,83,271,0
1,1774291568176,-339,315,10002,-9773,53756,61086,0,0,0,94,83,47,286,205,252,477,465,192,524,492,267,0
2,1774291568176,1708,4288,8341,-5378057,232128,-1188743,0,0,0,226,190,128,249,228,269,173,80,122,142,79,268,0
1,1774291568192,-234,368,9973,19547,6108,58643,0,0,0,98,77,50,281,200,269,481,445,210,524,497,293,0
2,1774291568192,2574,3613,9715,-5662720,923628,-714712,0,0,0,233,195,138,281,249,277,179,96,141,141,85,273,0
1,1774291568208,-201,392,9949,75747,-72082,48869,0,0,0,91,70,41,284,200,251,498,439,193,510,484,266,0
2,1774291568208,2522,2632,11629,-5987701,1530828,-277332,0,0,0,231,191,130,254,227,254,162,99,109,138,62,259,0
1,1774291568224,-253,339,9920,141720,-144164,42760,0,0,0,113,79,56,262,183,242,480,450,197,485,466,252,0
2,1774291568224,2378,1282,14075,-6343224,1762957,191811,0,0,0,240,187,132,260,230,260,149,54,108,131,63,259,0
1,1774291568240,-253,272,9906,226020,-232128,45204,0,0,0,207,151,102,252,161,222,501,437,175,460,415,235,0
2,1774291568240,2770,76,16386,-6623000,1792278,603534,0,0,0,232,186,134,260,234,269,174,81,129,125,66,260,0
1,1774291568256,-263,248,9964,315206,-323758,51312,0,0,0,95,64,53,287,189,261,539,466,203,474,396,275,0
2,1774291568256,3584,-1239,19181,-6836803,1885130,985936,0,0,0,224,186,133,247,224,264,186,100,137,123,66,265,0
1,1774291568272,-368,210,10040,388510,-393397,54977,0,0,0,86,63,37,278,192,240,509,446,187,450,399,273,0
2,1774291568272,4168,-3445,22340,-6893003,2144136,1337794,0,0,0,222,186,132,244,224,265,173,82,123,126,66,269,0
1,1774291568288,-536,138,10021,433714,-416610,53756,0,0,0,214,154,87,282,172,219,551,423,158,419,370,261,0
2,1774291568288,4891,-7341,25393,-6633996,2470339,1776396,0,0,0,224,186,132,274,236,269,172,61,109,124,61,266,0
1,1774291568304,-646,62,10011,456927,-410501,52534,0,0,0,161,111,64,286,184,257,574,429,194,419,323,308,0
2,1774291568304,4977,-12969,27303,-5849645,3061656,2360383,0,0,0,226,187,135,291,233,266,181,50,113,123,58,263,0
1,1774291568320,-665,14,10102,481361,-404392,52534,0,0,0,109,102,45,314,233,297,584,387,220,439,311,351,0
2,1774291568320,2019,-19052,26556,-5072624,3803246,2983465,0,0,0,230,188,143,241,219,288,161,36,126,137,64,277,0
1,1774291568336,-655,-19,10251,530231,-426383,48869,0,0,0,94,120,37,318,267,303,569,329,222,412,301,378,0
2,1774291568336,-1091,-25565,23565,-4878369,3791029,3330437,0,0,0,236,187,155,239,211,326,162,61,149,118,56,300,0
1,1774291568352,-717,-86,10390,583987,-469144,40317,0,0,0,143,168,58,313,271,318,557,279,240,378,261,401,0
2,1774291568352,-1344,-33299,17262,-4493524,2726902,2855184,0,0,0,237,187,152,247,207,300,198,91,174,127,54,288,0
1,1774291568368,-880,-167,10538,635299,-500909,32986,0,0,0,252,258,118,313,269,360,560,231,300,363,217,452,0
2,1774291568368,-684,-37884,11184,-3163060,1833817,1386664,0,0,0,235,187,156,250,220,320,196,88,174,136,75,304,0
1,1774291568384,-1024,-301,10653,692721,-522900,30543,0,0,0,328,336,162,317,273,398,529,189,354,331,195,517,0
2,1774291568384,-4871,-37070,8887,-1187522,1695761,-588874,0,0,0,226,187,140,240,199,259,185,81,135,128,55,264,0
1,1774291568400,-1139,-416,10782,764803,-561996,37873,0,0,0,340,367,163,346,287,419,464,159,339,289,179,538,0
2,1774291568400,-11572,-33601,10600,525344,1083674,-1836260,0,0,0,202,179,153,246,219,253,272,182,171,238,176,244,0
1,1774291568416,-1402,-507,11088,939510,-652404,67195,0,0,0,356,379,167,380,332,428,423,143,290,284,179,520,0
2,1774291568416,-12821,-22368,15596,2101376,-1100779,-1696983,0,0,0,187,160,120,240,217,254,296,285,179,257,288,229,0
1,1774291568432,-1732,-650,11533,1248608,-736703,124616,0,0,0,329,370,142,359,377,476,281,147,331,246,194,534,0
2,1774291568432,-1095,5465,14438,3585778,-3552792,-679282,0,0,0,193,152,103,249,201,251,333,355,185,300,371,239,0
1,1774291568448,-2129,-909,12299,1711644,-687834,212581,0,0,0,337,373,147,376,348,483,202,118,271,257,181,528,0
2,1774291568448,5015,15922,11605,4451985,-3762929,260228,0,0,0,208,160,101,259,223,261,395,411,185,370,455,239,0
1,1774291568464,-2383,-1019,13692,2268753,-174707,327423,0,0,0,391,405,150,338,380,432,154,125,258,243,199,500,0
2,1774291568464,689,3742,12873,5145928,-2345722,879645,0,0,0,257,191,125,272,245,278,501,462,197,482,538,283,0
1,1774291568480,-2273,-847,14874,2733011,458148,401949,0,0,0,273,319,100,358,356,429,149,122,252,265,216,477,0
2,1774291568480,-4489,-4848,17468,4620584,-810007,703716,0,0,0,322,216,147,298,256,295,611,490,208,587,584,361,0
1,1774291568496,-1761,-737,16386,3419623,927293,447153,0,0,0,192,307,75,334,369,442,129,130,233,249,230,426,0
2,1774291568496,-3833,-4623,19200,3199712,223576,243124,0,0,0,354,218,140,322,279,324,656,491,201,610,586,406,0
1,1774291568512,-1359,-780,18999,4342030,1148426,456927,0,0,0,145,284,64,313,380,425,116,132,212,208,218,368,0
2,1774291568512,-492,-2421,16487,1540602,521678,40317,0,0,0,364,230,146,330,293,357,657,489,212,588,574,439,0
1,1774291568528,-1919,-894,25101,5638286,1380555,459370,0,0,0,118,240,62,280,363,387,120,134,202,176,203,327,0
2,1774291568528,938,-1000,12366,502131,493579,87964,0,0,0,361,242,141,345,299,325,693,511,238,600,583,442,0
1,1774291568544,-3354,-770,31050,6988298,1695761,496022,0,0,0,152,240,93,253,312,346,127,131,190,170,177,307,0
2,1774291568544,449,-124,9600,368962,438601,153938,0,0,0,373,288,142,361,320,347,717,532,255,605,582,451,0
1,1774291568560,-5072,-114,32691,8251567,1951103,616973,0,0,0,139,189,89,232,249,291,133,124,165,173,157,286,0
2,1774291568560,612,-181,9605,360410,456927,100181,0,0,0,384,271,153,361,300,362,733,554,281,619,581,470,0
1,1774291568576,-6307,1617,30701,9073792,1740965,841772,0,0,0,38,57,30,208,194,238,140,117,142,177,148,260,0
2,1774291568576,952,-416,10265,216246,387288,43982,0,0,0,366,287,146,348,300,347,730,553,276,618,595,470,0
1,1774291568592,-6810,6259,26475,9475741,755029,1241278,0,0,0,14,17,15,199,159,229,146,101,143,191,130,246,0
2,1774291568592,938,-330,10519,76969,271224,15882,0,0,0,365,270,149,351,300,351,713,523,251,605,575,455,0
1,1774291568608,-6355,12132,15065,9144652,-367740,1853365,0,0,0,29,29,30,205,154,236,151,97,141,186,133,249,0
2,1774291568608,851,-81,10323,37873,197920,2443,0,0,0,356,262,150,335,281,343,713,501,230,615,561,466,0
1,1774291568624,-3441,16463,6786,6192951,-840550,2568077,0,0,0,28,19,20,211,159,236,154,104,145,191,133,246,0
2,1774291568624,866,43,10241,39095,136833,-8552,0,0,0,359,266,160,334,286,352,735,533,294,604,541,469,0
1,1774291568640,320,16013,9475,163711,-362853,2742784,0,0,0,35,29,23,204,158,229,155,107,144,186,139,251,0
2,1774291568640,851,38,10279,65973,87964,-14660,0,0,0,358,253,162,349,296,366,740,540,310,584,567,472,0
1,1774291568656,550,9877,10897,-3530801,87964,2249205,0,0,0,29,36,31,196,166,233,153,123,143,194,155,251,0
2,1774291568656,851,19,10208,98960,56199,-17104,0,0,0,357,233,158,345,284,371,741,524,311,584,569,481,0
1,1774291568672,-521,5154,6862,-3318219,-86742,1613905,0,0,0,31,25,31,195,149,256,146,104,159,191,136,291,0
2,1774291568672,894,-4,10050,122173,31764,-18325,0,0,0,360,222,152,344,279,370,736,503,315,583,530,476,0
1,1774291568688,-205,4417,3933,-2757445,-262672,1174082,0,0,0,23,17,21,204,156,230,151,106,140,192,139,253,0
2,1774291568688,947,-23,9973,117286,-4886,-24434,0,0,0,362,221,150,345,273,358,732,478,309,565,501,459,0
1,1774291568704,502,5608,3776,-3001791,-105068,830776,0,0,0,25,28,26,199,158,227,153,114,139,199,153,256,0
2,1774291568704,961,-47,9954,101403,-47647,-31764,0,0,0,363,226,155,331,249,342,743,468,325,548,486,453,0
1,1774291568720,-363,5786,5106,-3874107,123394,561996,0,0,0,30,28,24,198,158,231,154,119,146,198,156,260,0
2,1774291568720,894,-62,9964,89186,-85521,-42760,0,0,0,358,228,152,342,265,348,734,468,336,515,475,446,0
1,1774291568736,-1847,5302,6197,-4576602,-6108,416610,0,0,0,34,29,26,200,155,238,155,112,151,193,146,258,0
2,1774291568736,808,-57,10016,97738,-95294,-51312,0,0,0,349,223,144,339,272,355,719,446,321,481,453,450,0
1,1774291568752,-2646,4522,7303,-5050633,-504574,423940,0,0,0,87,78,76,191,136,230,151,95,148,185,123,247,0
2,1774291568752,770,-71,10054,125838,-68416,-53756,0,0,0,356,217,142,375,287,369,727,427,298,487,448,457,0
1,1774291568768,-2751,3632,8686,-5467243,-949284,444709,0,0,0,140,126,137,180,122,224,143,93,140,177,121,233,0
2,1774291568768,770,-95,10050,163711,-23212,-53756,0,0,0,345,228,143,380,263,374,728,380,270,496,406,469,0
1,1774291568784,-2613,2665,10409,-5823989,-1225395,422718,0,0,0,143,129,144,179,131,223,140,102,136,175,133,226,0
2,1774291568784,784,-119,10031,199142,12217,-58643,0,0,0,346,235,148,333,239,358,705,333,287,457,380,493,0
1,1774291568800,-2833,1742,12677,-6120869,-1398881,345749,0,0,0,144,127,121,183,137,212,145,91,136,170,112,226,0
2,1774291568800,813,-157,10016,224798,35430,-67195,0,0,0,343,246,156,345,253,361,704,363,289,460,363,504,0
1,1774291568816,-3273,918,15242,-6367659,-1623679,234572,0,0,0,138,113,119,189,124,216,148,81,141,161,96,227,0
2,1774291568816,842,-186,10016,244346,46425,-72082,0,0,0,335,260,141,363,272,394,700,345,284,427,332,490,0
1,1774291568832,-3761,-311,17812,-6550918,-2001194,65973,0,0,0,125,107,116,184,126,219,149,84,146,152,95,228,0
2,1774291568832,885,-220,10002,254119,41538,-74525,0,0,0,330,255,150,473,349,429,729,360,332,424,333,509,0
1,1774291568848,-4029,-3905,21167,-6335894,-2734232,-254119,0,0,0,116,98,99,182,122,214,157,83,154,155,93,216,0
2,1774291568848,914,-291,9944,250454,21991,-76969,0,0,0,348,254,149,468,356,441,743,344,346,425,320,514,0
1,1774291568864,-3086,-8547,24824,-5564982,-3461162,-803898,0,0,0,120,102,101,197,134,220,164,84,149,158,101,221,0
2,1774291568864,914,-358,9916,235793,6108,-84299,0,0,0,362,266,140,401,299,431,746,298,333,419,285,522,0
1,1774291568880,-559,-12519,27087,-4780631,-3518583,-1560149,0,0,0,118,102,104,195,135,223,166,103,144,158,103,243,0
2,1774291568880,909,-378,9987,224798,-2443,-89186,0,0,0,360,272,141,396,277,433,751,262,353,411,256,537,0
1,1774291568896,1986,-16223,27350,-4509407,-3057991,-1964542,0,0,0,113,106,122,193,141,248,164,109,166,153,112,252,0
2,1774291568896,909,-368,10098,232128,-9773,-91629,0,0,0,363,266,141,397,302,462,747,221,381,393,231,541,0
1,1774291568912,4082,-19550,24728,-4812396,-2559525,-1501506,0,0,0,115,97,102,189,127,221,159,85,144,160,98,228,0
2,1774291568912,918,-368,10212,263893,-14660,-86742,0,0,0,380,259,140,412,327,485,762,176,388,392,200,562,0
1,1774291568928,6393,-22938,20038,-5164254,-2397035,-503352,0,0,0,122,96,101,195,126,218,167,86,143,164,99,224,0
2,1774291568928,918,-406,10251,298102,-1221,-76969,0,0,0,416,260,133,432,343,501,757,134,412,392,178,538,0
1,1774291568944,8379,-26843,15027,-4709770,-2078163,97738,0,0,0,123,100,102,200,137,223,167,100,142,167,110,226,0
2,1774291568944,938,-454,10246,328645,17104,-69638,0,0,0,405,313,141,454,385,493,733,138,438,364,156,546,0
1,1774291568960,9150,-31662,10480,-3348763,-1314581,206472,0,0,0,123,103,105,202,145,231,164,105,144,170,118,232,0
2,1774291568960,1000,-483,10299,360410,34208,-68416,0,0,0,429,297,166,460,417,529,679,93,450,344,132,584,0
1,1774291568976,9920,-35659,7781,-1585806,-758694,73303,0,0,0,119,102,107,202,147,237,162,107,150,170,122,238,0
2,1774291568976,1110,-483,10480,410501,47647,-72082,0,0,0,439,303,190,496,420,534,612,112,417,325,105,578,0
1,1774291568992,13505,-34759,7154,282219,-379958,-14660,0,0,0,111,101,97,195,148,224,164,133,145,169,135,223,0
2,1774291568992,1258,-488,10792,505796,74525,-90408,0,0,0,479,346,209,508,445,556,588,118,462,264,146,617,0
1,1774291569008,14122,-27642,9581,1837482,750142,-344527,0,0,0,100,99,82,180,148,197,186,199,135,188,183,187,0
2,1774291569008,1507,-569,11275,728151,102625,-147829,0,0,0,499,347,196,504,436,548,584,103,417,192,82,654,0
1,1774291569024,4934,-7887,16956,2851518,1425759,-536339,0,0,0,83,92,69,172,154,178,216,273,135,230,269,179,0
2,1774291569024,1646,-717,12036,1088561,123394,-246789,0,0,0,509,376,189,521,452,537,547,115,422,162,72,659,0
1,1774291569040,-2383,18956,17937,3015230,944397,-58643,0,0,0,90,97,72,189,171,190,242,337,142,246,321,180,0
2,1774291569040,1359,-837,13146,1562593,108734,-332310,0,0,0,547,376,180,516,460,527,430,102,405,159,58,674,0
1,1774291569056,-4709,21110,11538,2982244,698829,289550,0,0,0,93,109,91,191,187,218,258,423,164,274,410,206,0
2,1774291569056,1225,-933,14022,2133141,3665,-338419,0,0,0,556,370,183,522,453,550,340,93,391,178,62,677,0
1,1774291569072,-3311,2866,10413,3667634,533896,-311541,0,0,0,117,103,65,225,190,199,359,514,157,369,465,193,0
2,1774291569072,1349,-990,14668,2759889,-164933,-343306,0,0,0,545,383,188,509,462,550,277,102,362,173,71,659,0
1,1774291569088,832,-8336,16348,3422067,368962,-933402,0,0,0,40,32,26,246,180,212,448,526,164,406,498,193,0
2,1774291569088,1340,-890,15874,3426953,-316428,-361632,0,0,0,522,408,175,463,492,513,221,99,305,147,72,617,0
1,1774291569104,1292,-3866,17659,1824043,464257,-420275,0,0,0,72,37,31,265,175,219,478,514,173,445,491,208,0
2,1774291569104,2215,-760,19200,4448320,-485026,-411723,0,0,0,484,414,154,446,515,492,208,89,262,151,96,555,0
1,1774291569120,-134,239,14687,647517,317649,12217,0,0,0,101,69,60,260,174,239,499,529,186,454,503,224,0
2,1774291569120,3680,-698,24197,5759237,-786794,-593761,0,0,0,478,362,145,455,492,457,200,104,218,159,102,517,0
1,1774291569136,-981,703,11179,377514,-80634,2443,0,0,0,123,94,68,262,168,218,536,542,192,461,519,210,0
2,1774291569136,3565,-847,29045,7098254,-1242499,-814894,0,0,0,392,319,142,391,373,365,146,64,168,157,56,456,0
1,1774291569152,-1005,248,9944,417831,-272445,-84299,0,0,0,187,141,91,270,153,201,575,536,192,477,520,207,0
2,1774291569152,3000,-1296,31107,8227133,-1595580,-889419,0,0,0,307,258,140,309,287,319,167,65,159,134,63,370,0
1,1774291569168,-971,114,9959,371406,-256563,-70860,0,0,0,232,165,131,264,143,222,586,528,207,483,510,223,0
2,1774291569168,3737,-497,29437,8829446,-1397659,-833220,0,0,0,231,173,132,279,252,308,164,48,112,134,57,299,0
1,1774291569184,-1024,315,10385,261450,-196698,-7330,0,0,0,237,147,138,267,140,243,589,526,219,497,504,239,0
2,1774291569184,5728,4527,23416,8969945,-403171,-995710,0,0,0,232,182,133,259,230,298,184,53,142,134,67,283,0
1,1774291569200,-1086,430,10366,230907,-213802,7330,0,0,0,204,110,96,299,148,244,611,525,211,523,506,248,0
2,1774291569200,6293,11495,12361,8258898,842994,-1660331,0,0,0,236,187,131,248,213,276,176,69,135,140,67,286,0
1,1774291569216,-1129,406,10236,229685,-226020,7330,0,0,0,120,70,59,322,173,255,631,519,211,518,506,254,0
2,1774291569216,3077,17453,7135,4823391,1269377,-2850297,0,0,0,238,195,136,260,220,279,170,81,139,122,59,281,0
1,1774291569232,-1196,330,10141,207694,-197920,10995,0,0,0,89,59,45,310,186,267,626,517,222,500,500,254,0
2,1774291569232,-1287,16903,10619,-665843,389732,-3651752,0,0,0,238,205,138,266,244,286,191,92,157,126,69,286,0
1,1774291569248,-1234,306,10074,146607,-128281,19547,0,0,0,87,61,45,307,196,275,619,513,227,494,508,264,0
2,1774291569248,-2211,10940,10595,-3324328,-359188,-3503923,0,0,0,239,200,139,270,252,288,200,101,159,128,63,282,0
1,1774291569264,-1253,291,10011,92851,-69638,25656,0,0,0,71,68,40,306,246,280,607,535,227,486,518,284,0
2,1774291569264,-1507,7494,6326,-2992017,-375071,-2818532,0,0,0,235,195,140,269,243,286,186,104,139,118,48,272,0
1,1774291569280,-1253,272,9949,37873,-17104,30543,0,0,0,67,64,40,304,242,278,604,522,237,497,510,275,0
2,1774291569280,-1541,7011,3651,-2784323,-346971,-2031737,0,0,0,231,196,137,269,241,284,178,93,130,122,53,278,0
1,1774291569296,-1201,272,9916,-13439,21991,31764,0,0,0,74,54,42,319,197,278,596,498,225,504,503,281,0
2,1774291569296,-1320,7552,4513,-3445279,-601091,-1279151,0,0,0,232,196,135,272,244,278,189,93,150,136,68,289,0
1,1774291569312,-1139,311,9930,-52534,51312,35430,0,0,0,100,71,56,317,195,297,594,481,246,498,486,282,0
2,1774291569312,105,7274,5920,-4313930,-723264,-511905,0,0,0,236,194,136,263,236,267,191,121,159,127,68,274,0
1,1774291569328,-1076,378,9968,-42760,58643,39095,0,0,0,148,102,72,310,181,266,591,467,218,490,456,268,0
2,1774291569328,1770,6226,7016,-4948008,-307876,31764,0,0,0,248,188,139,282,248,274,171,101,142,138,69,269,0
1,1774291569344,-1024,416,9987,2443,46425,40317,0,0,0,132,90,61,305,173,251,598,464,208,482,440,267,0
2,1774291569344,2416,4197,8700,-5480682,476474,338419,0,0,0,239,188,136,279,252,283,184,99,129,140,56,282,0
1,1774291569360,-1009,392,9987,64751,21991,40317,0,0,0,97,57,39,324,175,254,606,451,209,490,442,274,0
2,1774291569360,2297,2407,10758,-5874080,1003040,428827,0,0,0,228,198,141,253,237,275,172,91,114,129,81,295,0
1,1774291569376,-1009,330,9983,92851,2443,40317,0,0,0,81,45,29,340,186,253,612,444,202,493,456,280,0
2,1774291569376,2211,1081,12950,-6175847,1216843,367740,0,0,0,229,184,143,262,223,278,180,55,135,145,94,280,0
1,1774291569392,-1033,287,9968,95294,0,40317,0,0,0,72,51,33,336,203,264,604,436,203,484,460,292,0
2,1774291569392,2258,-52,14926,-6473949,1301142,206472,0,0,0,234,187,144,244,218,258,175,69,132,119,68,269,0
1,1774291569408,-1043,268,9959,84299,2443,43982,0,0,0,58,47,35,323,216,284,589,417,213,471,445,303,0
2,1774291569408,2306,-1263,16549,-6702413,1391551,95294,0,0,0,234,195,139,241,231,254,197,99,155,115,67,264,0
1,1774291569424,-1009,258,9978,80634,3665,42760,0,0,0,57,41,21,325,216,270,592,412,209,462,426,293,0
2,1774291569424,2909,-2598,17664,-6609561,1550375,172263,0,0,0,227,195,134,240,241,252,192,105,158,126,76,268,0
1,1774291569440,-985,268,10002,97738,-2443,40317,0,0,0,75,56,31,339,226,281,575,406,214,468,407,290,0
2,1774291569440,3847,-4211,19033,-6174625,1981646,423940,0,0,0,228,188,132,246,218,264,178,102,156,133,71,270,0
1,1774291569456,-961,272,10007,151494,-18325,37873,0,0,0,71,70,37,333,244,291,558,393,220,417,390,303,0
2,1774291569456,3646,-5853,21229,-5475796,2653598,935845,0,0,0,230,189,134,254,220,275,186,96,149,137,69,272,0
1,1774291569472,-938,248,10021,200363,-37873,36651,0,0,0,68,84,33,320,271,306,553,368,245,386,369,322,0
2,1774291569472,2459,-7331,23321,-4924795,3009122,1605353,0,0,0,232,193,138,259,231,277,186,85,139,145,76,277,0
1,1774291569488,-952,224,10064,239459,-59864,35430,0,0,0,69,68,28,368,228,308,554,298,221,383,307,336,0
2,1774291569488,215,-10007,24690,-4660901,2915048,2517986,0,0,0,237,192,143,260,223,274,172,79,140,146,76,278,0
1,1774291569504,-1033,215,10102,268780,-51312,36651,0,0,0,81,69,41,380,239,338,574,251,242,382,255,365,0
2,1774291569504,-2153,-15702,23618,-4753753,2670702,2877175,0,0,0,233,193,143,257,238,267,186,82,152,138,73,274,0
1,1774291569520,-1100,181,10107,300545,-13439,42760,0,0,0,89,94,48,367,277,358,566,249,253,375,244,390,0
2,1774291569520,-4235,-23627,20564,-4630358,2338392,2696359,0,0,0,224,190,134,254,225,260,203,87,155,134,77,270,0
1,1774291569536,-1148,134,10165,340862,37873,54977,0,0,0,193,189,104,368,318,385,551,207,270,370,217,430,0
2,1774291569536,-4560,-30916,15927,-3770260,1604132,1880243,0,0,0,229,195,134,259,236,269,168,91,143,128,66,266,0
1,1774291569552,-1182,95,10323,395840,105068,72082,0,0,0,205,218,119,355,319,406,528,188,306,352,201,458,0
2,1774291569552,-3522,-35391,11447,-2332283,697608,717155,0,0,0,229,193,134,264,229,273,183,94,145,137,72,271,0
1,1774291569568,-1134,33,10495,470366,162490,91629,0,0,0,215,258,136,352,310,431,485,187,320,309,195,472,0
2,1774291569568,-3632,-35783,8671,-670730,332310,-442266,0,0,0,227,185,132,252,221,259,200,63,146,129,74,268,0
1,1774291569584,-1081,-19,10768,596204,175929,118507,0,0,0,266,299,144,352,335,436,427,183,299,272,190,483,0
2,1774291569584,-6982,-33117,8585,790459,510683,-1075122,0,0,0,216,181,127,265,228,275,188,66,129,136,68,254,0
1,1774291569600,-1124,-90,11136,792903,149051,158824,0,0,0,278,283,109,385,344,429,374,158,267,283,187,498,0
2,1774291569600,-8633,-26901,11974,1999972,-150272,-900415,0,0,0,194,180,117,261,239,264,261,151,126,209,183,238,0
1,1774291569616,-1210,-244,11572,1119105,124616,218689,0,0,0,243,270,71,406,337,428,317,138,259,298,192,506,0
2,1774291569616,-1292,-7877,18473,3141069,-1499063,-602313,0,0,0,189,170,110,265,238,256,321,258,117,272,281,231,0
1,1774291569632,-1268,-521,12165,1556484,207694,285884,0,0,0,272,338,92,353,368,433,240,144,280,261,208,505,0
2,1774291569632,7690,23259,15821,3324328,-2443460,-393397,0,0,0,189,162,105,264,224,254,361,331,163,311,363,235,0
1,1774291569648,-1239,-703,13003,2007303,382401,342084,0,0,0,332,375,116,349,367,457,173,130,273,261,226,511,0
2,1774291569648,7580,24225,9303,3324328,-2783102,362853,0,0,0,207,169,114,272,228,271,436,396,190,379,457,258,0
1,1774291569664,-1258,-660,13730,2465452,653625,381179,0,0,0,322,382,109,324,364,436,129,124,244,258,232,508,0
2,1774291569664,-981,1722,12787,3764151,-2079385,1106887,0,0,0,250,185,127,293,232,286,544,447,175,477,510,287,0
1,1774291569680,-1287,-622,14721,2896722,930958,420275,0,0,0,345,403,106,326,350,413,140,135,240,272,240,484,0
2,1774291569680,-6590,-8341,18233,2988352,-860098,1010371,0,0,0,292,197,138,300,213,281,638,462,176,553,524,318,0
1,1774291569696,-1182,-636,17051,3556457,1185078,467922,0,0,0,294,353,100,350,318,418,124,103,216,273,211,427,0
2,1774291569696,-3656,-2043,16515,1466076,-17104,248011,0,0,0,311,202,157,298,212,290,685,470,214,567,561,361,0
1,1774291569712,-2010,-612,20751,4627915,1470963,547335,0,0,0,166,293,86,310,337,430,122,108,251,225,211,427,0
2,1774291569712,-650,971,13175,581543,272445,-75747,0,0,0,342,204,158,318,253,331,706,495,259,560,544,357,0
1,1774291569728,-3555,-593,25527,5861862,1859473,723264,0,0,0,146,260,85,311,333,394,131,122,234,203,210,378,0
2,1774291569728,320,641,10299,306654,218689,3665,0,0,0,323,205,160,322,241,309,711,479,226,590,574,356,0
1,1774291569744,-4761,-507,30480,7119023,2323731,996932,0,0,0,107,178,65,278,318,320,144,127,183,217,200,328,0
2,1774291569744,-186,220,9820,329867,208915,78190,0,0,0,337,204,161,321,227,305,740,546,276,597,583,356,0
1,1774291569760,-5235,0,32577,8137946,2651155,1226617,0,0,0,97,157,73,230,225,257,146,112,147,211,169,276,0
2,1774291569760,-181,306,10088,293215,235793,52534,0,0,0,342,215,165,316,231,323,727,545,248,595,599,374,0
1,1774291569776,-5637,3402,29466,8905193,2267531,1470963,0,0,0,56,84,41,217,183,231,147,103,131,193,146,236,0
2,1774291569776,81,507,10409,230907,210137,7330,0,0,0,345,213,157,327,249,334,737,504,254,608,600,390,0
1,1774291569792,-5082,9361,21808,9287595,1722639,1799608,0,0,0,37,33,18,232,179,234,162,97,128,204,141,227,0
2,1774291569792,-38,526,10342,245567,175929,-2443,0,0,0,352,212,155,344,257,340,747,474,238,597,586,400,0
1,1774291569808,-4053,13740,11280,7650476,1381777,2353052,0,0,0,42,31,24,226,169,239,159,94,131,210,142,235,0
2,1774291569808,-143,483,10251,283441,191811,-7330,0,0,0,345,233,151,355,270,361,772,476,262,594,561,408,0
1,1774291569824,-2837,15276,8346,3334102,509461,2835636,0,0,0,38,31,29,205,163,241,140,96,135,192,144,240,0
2,1774291569824,-57,421,10308,312763,233350,-14660,0,0,0,338,228,144,364,273,369,780,472,269,584,528,407,0
1,1774291569840,-1139,11988,10514,-1385442,-894306,2686585,0,0,0,40,35,36,203,158,252,142,98,143,191,143,253,0
2,1774291569840,52,387,10375,327423,244346,-19547,0,0,0,343,206,142,360,259,354,770,450,258,549,507,409,0
1,1774291569856,536,7173,8255,-2431243,-1373225,1718974,0,0,0,63,55,57,199,144,256,146,95,155,198,140,276,0
2,1774291569856,124,349,10284,342084,221133,-21991,0,0,0,341,202,141,361,253,346,770,424,262,514,509,416,0
1,1774291569872,1598,4580,4718,-2256536,-1001818,533896,0,0,0,155,157,139,177,134,218,127,91,129,179,138,234,0
2,1774291569872,167,272,10165,351858,194255,-28099,0,0,0,328,197,127,390,262,355,777,397,261,499,506,417,0
1,1774291569888,1177,4953,3675,-2289522,-234572,-317649,0,0,0,152,155,127,175,140,212,123,104,127,180,154,238,0
2,1774291569888,205,205,10136,353080,173485,-39095,0,0,0,333,192,126,399,263,367,785,372,278,502,460,424,0
1,1774291569904,-478,5532,4781,-3070208,169820,-831998,0,0,0,134,173,124,174,148,217,130,107,128,179,152,233,0
2,1774291569904,234,177,10160,348193,151494,-48869,0,0,0,344,196,166,392,271,405,774,328,317,510,367,425,0
1,1774291569920,-2306,5427,5929,-3854559,112399,-1099557,0,0,0,134,144,116,173,147,207,121,106,119,178,160,240,0
2,1774291569920,263,153,10131,346971,129503,-48869,0,0,0,331,202,137,405,297,392,755,280,296,451,341,443,0
1,1774291569936,-3536,4766,6872,-4448320,-349414,-1094670,0,0,0,140,146,131,166,137,209,119,104,121,173,154,229,0
2,1774291569936,306,95,10064,339641,106290,-48869,0,0,0,315,197,123,419,281,399,755,223,276,454,290,439,0
1,1774291569952,-3862,3704,8107,-4977329,-935845,-912632,0,0,0,142,136,125,168,126,206,124,85,120,176,134,228,0
2,1774291569952,335,28,10026,321315,95294,-47647,0,0,0,318,199,132,407,294,407,744,196,324,457,277,451,0
1,1774291569968,-3747,2656,9447,-5381722,-1319468,-704938,0,0,0,138,131,121,170,125,198,131,82,120,176,121,224,0
2,1774291569968,344,-23,10021,304210,90408,-47647,0,0,0,316,188,119,394,265,377,754,215,335,439,279,474,0
1,1774291569984,-3651,1756,10873,-5650503,-1478293,-508239,0,0,0,131,125,116,171,125,199,132,78,124,180,118,227,0
2,1774291569984,330,-62,10045,305432,94073,-50090,0,0,0,317,217,132,393,270,398,760,200,420,415,245,493,0
1,1774291570000,-3680,827,12601,-5903401,-1611462,-305432,0,0,0,135,128,123,173,122,207,133,75,129,181,114,237,0
2,1774291570000,335,-76,10102,307876,102625,-51312,0,0,0,324,247,137,394,285,442,772,219,444,387,215,493,0
1,1774291570016,-3756,-38,14505,-6073222,-1786169,-147829,0,0,0,135,128,123,175,123,212,133,75,129,180,115,240,0
2,1774291570016,402,-110,10112,301767,102625,-50090,0,0,0,337,229,132,422,290,462,774,217,443,390,189,500,0
1,1774291570032,-3680,-976,16740,-6101322,-2101376,-63529,0,0,0,126,116,112,177,126,214,132,76,125,177,115,232,0
2,1774291570032,478,-167,10088,283441,75747,-53756,0,0,0,349,212,137,443,299,457,765,166,450,401,184,512,0
1,1774291570048,-3326,-2737,19215,-6007248,-2517986,-59864,0,0,0,111,102,100,177,127,215,132,76,125,172,110,225,0
2,1774291570048,531,-205,10074,265115,35430,-59864,0,0,0,364,232,149,428,297,453,760,136,425,388,190,517,0
1,1774291570064,-2234,-6283,21880,-5638286,-3109304,-215024,0,0,0,89,82,82,184,132,220,135,80,131,174,117,229,0
2,1774291570064,555,-263,10045,250454,-12217,-70860,0,0,0,391,245,155,434,296,468,762,115,403,385,172,534,0
1,1774291570080,1296,-10839,24656,-4828278,-3685960,-560774,0,0,0,131,124,111,193,144,226,139,85,134,186,124,237,0
2,1774291570080,478,-296,10112,254119,-25656,-75747,0,0,0,418,257,153,471,364,499,768,71,420,393,168,557,0
1,1774291570096,5991,-14371,25776,-4383568,-3532022,-866206,0,0,0,136,126,110,190,132,217,138,80,129,180,111,225,0
2,1774291570096,421,-296,10251,278554,-1221,-73303,0,0,0,412,274,170,474,421,494,749,81,411,369,141,561,0
1,1774291570112,8997,-18822,23249,-4796513,-2678033,-927293,0,0,0,138,132,117,178,126,209,137,77,129,178,111,227,0
2,1774291570112,440,-291,10423,328645,58643,-63529,0,0,0,436,308,168,497,473,499,729,37,414,368,142,585,0
1,1774291570128,9212,-24728,18616,-5177693,-2108706,-756251,0,0,0,141,129,118,186,128,216,142,77,130,179,114,228,0
2,1774291570128,550,-272,10600,398284,125838,-63529,0,0,0,468,335,176,521,466,533,692,97,504,313,133,587,0
1,1774291570144,7604,-31356,13534,-4621806,-1606575,-560774,0,0,0,136,129,118,182,129,215,136,77,125,175,113,225,0
2,1774291570144,784,-287,10854,543670,173485,-81855,0,0,0,507,339,191,524,433,565,620,108,516,255,108,639,0
1,1774291570160,5522,-36128,9753,-2676811,-946841,-437379,0,0,0,134,131,118,176,125,208,132,73,120,174,116,223,0
2,1774291570160,952,-425,11237,790459,146607,-127059,0,0,0,517,342,197,564,463,600,593,114,492,206,77,650,0
1,1774291570176,6800,-37133,8341,-737925,-1037249,-263893,0,0,0,44,52,39,185,157,203,183,155,143,189,183,218,0
2,1774291570176,1072,-607,11935,1105666,94073,-184481,0,0,0,540,390,198,640,530,591,521,139,468,163,79,659,0
1,1774291570192,12294,-31002,12380,1056796,-1152091,-288328,0,0,0,32,34,23,192,162,192,258,250,146,234,232,196,0
2,1774291570192,1110,-722,12806,1468520,50090,-249233,0,0,0,566,410,195,596,504,586,515,115,442,158,80,686,0
1,1774291570208,8356,-2938,14673,2825862,1056796,-747699,0,0,0,76,64,45,219,165,186,286,360,131,282,289,180,0
2,1774291570208,713,-732,13759,1981646,-75747,-287106,0,0,0,553,408,194,535,496,587,426,103,439,139,73,681,0
1,1774291570224,626,16085,11849,3907094,2786767,-827111,0,0,0,59,51,31,233,191,192,293,437,128,312,374,179,0
2,1774291570224,425,-727,14711,2598620,-277332,-265115,0,0,0,547,399,197,541,497,576,348,132,429,151,73,661,0
1,1774291570240,-191,6815,12074,4751309,2175901,-670730,0,0,0,8,15,7,217,206,212,334,476,150,351,457,199,0
2,1774291570240,636,-612,16022,3393967,-405614,-235793,0,0,0,538,403,190,562,511,555,293,143,391,180,99,643,0
1,1774291570256,2163,-4335,16439,4674340,684169,-552222,0,0,0,31,35,25,228,195,238,399,544,183,435,511,244,0
2,1774291570256,1196,-402,18334,4509407,-434936,-270002,0,0,0,490,419,170,531,542,515,206,122,341,174,111,605,0
1,1774291570272,2574,-5106,19564,3232698,-219911,-280998,0,0,0,39,41,25,246,196,226,471,534,198,502,527,239,0
2,1774291570272,2163,-287,22378,5718920,-493579,-409279,0,0,0,445,401,152,491,507,447,225,138,287,179,68,549,0
1,1774291570288,9,-1947,16362,1404990,-184481,-42760,0,0,0,56,49,26,274,181,215,519,536,172,516,546,235,0
2,1774291570288,2550,-387,29561,7236309,-775798,-613308,0,0,0,399,385,136,517,484,432,211,149,261,174,91,484,0
1,1774291570304,-1009,-588,12194,494800,-127059,-34208,0,0,0,72,39,28,288,169,226,526,530,187,531,549,258,0
2,1774291570304,2187,-689,34706,8690168,-976162,-693942,0,0,0,342,263,120,365,337,349,121,72,143,112,54,365,0
1,1774291570320,-813,-162,9743,316428,-243124,-79412,0,0,0,80,44,41,292,168,254,546,554,222,547,565,267,0
2,1774291570320,2421,775,33103,9558819,-700051,-640186,0,0,0,256,218,129,285,254,291,173,48,120,151,69,292,0
1,1774291570336,-971,-148,9949,256563,-234572,-45204,0,0,0,92,45,39,312,168,249,579,541,202,598,581,268,0
2,1774291570336,2373,5532,28982,10069502,-251676,-654847,0,0,0,230,200,125,270,243,285,167,94,140,143,83,286,0
1,1774291570352,-1158,-119,10404,100181,-84299,-6108,0,0,0,79,46,35,299,177,249,595,549,188,614,583,303,0
2,1774291570352,2014,12395,18769,10016968,-257785,-835663,0,0,0,239,200,130,278,239,292,192,82,126,154,81,285,0
1,1774291570368,-1024,28,10466,-36651,59864,8552,0,0,0,88,46,40,314,177,259,588,545,188,611,585,283,0
2,1774291570368,1804,15587,9614,7064045,-1342681,-1347568,0,0,0,244,200,138,284,239,299,210,76,145,154,71,273,0
1,1774291570384,-813,205,10251,-75747,84299,8552,0,0,0,92,55,48,307,179,262,566,548,201,604,597,273,0
2,1774291570384,2512,16611,8423,2108706,-2014633,-1965764,0,0,0,244,198,137,344,268,299,224,110,154,156,86,276,0
1,1774291570400,-737,268,10169,-76969,67195,9773,0,0,0,99,61,57,302,181,266,549,548,201,601,600,278,0
2,1774291570400,3536,13084,9700,-2320066,-968832,-2433687,0,0,0,239,198,131,308,253,277,209,106,130,156,79,275,0
1,1774291570416,-703,268,10155,-73303,47647,15882,0,0,0,103,66,57,304,181,255,531,545,183,597,593,276,0
2,1774291570416,2517,8437,7647,-4111123,693942,-2590068,0,0,0,235,199,131,261,225,267,203,93,116,150,58,268,0
1,1774291570432,-689,258,10098,-75747,31764,19547,0,0,0,102,68,52,301,181,237,503,540,164,591,585,258,0
2,1774291570432,-421,6479,4541,-4043927,1387885,-2412917,0,0,0,237,210,143,269,238,287,217,101,133,147,64,284,0
1,1774291570448,-689,258,10059,-79412,19547,20769,0,0,0,101,68,47,287,184,229,475,535,155,579,583,244,0
2,1774291570448,-2206,6451,4283,-4394564,957836,-1998751,0,0,0,237,222,152,265,255,300,213,97,149,149,85,312,0
1,1774291570464,-689,282,10050,-83077,13439,24434,0,0,0,104,73,46,278,188,225,461,527,155,567,584,247,0
2,1774291570464,-2239,5977,5264,-4952895,399505,-1489289,0,0,0,232,194,140,255,216,275,202,79,137,146,63,287,0
1,1774291570480,-689,306,10016,-75747,9773,31764,0,0,0,124,87,58,278,185,226,461,504,163,584,587,243,0
2,1774291570480,-607,4838,6384,-5327966,155159,-1056796,0,0,0,232,195,134,246,184,268,210,87,146,137,71,277,0
1,1774291570496,-689,330,9968,-59864,13439,42760,0,0,0,191,137,90,253,164,209,432,492,150,582,587,229,0
2,1774291570496,780,3804,7499,-5569869,327423,-786794,0,0,0,228,205,143,247,214,274,177,73,142,131,45,271,0
1,1774291570512,-660,354,9944,-39095,18325,47647,0,0,0,167,125,84,243,176,226,410,486,161,563,587,245,0
2,1774291570512,1024,3043,9064,-5799554,866206,-620639,0,0,0,231,201,154,264,223,334,200,113,163,130,76,302,0
1,1774291570528,-622,397,9920,-15882,17104,48869,0,0,0,195,162,98,230,170,210,401,483,146,562,581,257,0
2,1774291570528,210,2292,11103,-6092769,1287703,-469144,0,0,0,230,194,145,255,217,274,164,53,104,141,61,274,0
1,1774291570544,-588,411,9897,6108,4886,43982,0,0,0,188,148,103,253,191,239,418,509,173,555,575,248,0
2,1774291570544,-397,1258,13194,-6403089,1485624,-322536,0,0,0,230,198,142,242,203,244,142,56,112,136,68,280,0
1,1774291570560,-579,387,9897,32986,-18325,35430,0,0,0,130,107,74,280,203,265,439,493,192,517,548,254,0
2,1774291570560,-402,47,15070,-6624222,1566258,-155159,0,0,0,231,195,140,263,212,268,179,53,136,150,65,280,0
1,1774291570576,-593,368,9930,70860,-41538,29321,0,0,0,111,108,68,266,193,261,444,482,199,544,547,265,0
2,1774291570576,-28,-1000,16855,-6604674,1712866,162490,0,0,0,236,192,141,284,231,290,165,85,129,133,46,267,0
1,1774291570592,-612,349,9954,123394,-52534,32986,0,0,0,111,100,68,284,193,266,469,471,202,550,535,267,0
2,1774291570592,382,-2450,18674,-6429967,1904677,637743,0,0,0,237,198,143,269,210,280,174,87,144,108,32,263,0
1,1774291570608,-598,325,9940,184481,-58643,39095,0,0,0,128,104,70,308,198,260,506,438,192,543,509,287,0
2,1774291570608,985,-5963,21153,-5843536,2236988,1420872,0,0,0,235,200,142,262,200,273,184,71,140,121,45,271,0
1,1774291570624,-569,291,9940,273667,-78190,46425,0,0,0,145,124,65,320,210,261,522,420,196,536,485,281,0
2,1774291570624,961,-10222,23493,-4983438,2547308,2199114,0,0,0,234,203,144,252,204,267,184,78,132,133,62,276,0
1,1774291570640,-588,248,10050,355523,-112399,51312,0,0,0,186,149,103,324,209,291,525,386,215,518,435,286,0
2,1774291570640,454,-15568,24685,-4150218,2574186,2791654,0,0,0,237,207,145,241,210,263,177,88,133,129,65,275,0
1,1774291570656,-631,196,10141,420275,-142942,58643,0,0,0,196,163,124,323,219,316,518,334,227,482,371,325,0
2,1774291570656,832,-22636,22435,-3721391,2365270,2823419,0,0,0,238,209,140,296,251,271,188,85,142,133,62,274,0
1,1774291570672,-689,129,10179,464257,-153938,67195,0,0,0,143,163,73,326,260,323,490,323,230,426,349,373,0
2,1774291570672,1100,-30346,17439,-3326772,2287079,2415361,0,0,0,233,208,137,351,290,269,221,104,161,126,60,266,0
1,1774291570688,-756,76,10275,503352,-150272,75747,0,0,0,170,177,96,347,258,362,465,316,243,368,322,421,0
2,1774291570688,-325,-34299,12304,-2685363,2134363,1546710,0,0,0,226,205,133,243,220,255,191,75,136,125,68,266,0
1,1774291570704,-804,19,10466,532674,-130725,79412,0,0,0,215,187,99,371,256,378,454,195,241,359,207,438,0
2,1774291570704,-2354,-35486,9265,-1743409,1857030,494800,0,0,0,228,210,145,259,219,272,201,78,145,124,62,279,0
1,1774291570720,-894,0,10725,583987,-127059,90408,0,0,0,209,204,96,406,273,402,458,184,267,351,187,469,0
2,1774291570720,-5570,-34438,8145,-266337,1489289,-816115,0,0,0,237,204,138,236,215,258,193,87,150,126,45,262,0
1,1774291570736,-1052,-14,11189,742812,-140499,128281,0,0,0,251,235,104,438,296,443,381,145,267,373,187,482,0
2,1774291570736,-8394,-30193,10648,1147204,791681,-1428202,0,0,0,211,193,125,236,218,240,231,219,149,197,222,244,0
1,1774291570752,-1158,-148,11864,1065348,-146607,185703,0,0,0,264,326,108,396,354,404,380,175,262,321,216,494,0
2,1774291570752,-7398,-17492,15984,2588846,-561996,-1336573,0,0,0,204,186,125,262,227,266,286,263,132,258,302,233,0
1,1774291570768,-1186,-411,12849,1554041,-127059,251676,0,0,0,284,327,99,398,416,422,253,163,251,286,219,529,0
2,1774291570768,-258,8456,16166,3630982,-1882686,-877202,0,0,0,213,192,125,260,223,263,368,345,144,357,364,247,0
1,1774291570784,-1340,-626,14175,2255314,2443,323758,0,0,0,296,334,111,374,369,440,181,132,269,278,198,523,0
2,1774291570784,4522,15764,12892,3881437,-1594358,-279776,0,0,0,257,206,134,289,240,301,465,394,181,454,448,298,0
1,1774291570800,-1655,-603,15017,2949257,316428,397062,0,0,0,293,324,94,352,353,416,143,118,242,274,199,503,0
2,1774291570800,2421,2670,15305,4085466,-426383,398284,0,0,0,308,204,151,296,249,319,524,430,245,497,489,367,0
1,1774291570816,-1919,-507,15635,3569896,795346,477696,0,0,0,279,331,87,326,375,399,121,126,236,243,221,460,0
2,1774291570816,-1354,-6436,18320,3100751,357967,478918,0,0,0,338,205,149,291,247,313,555,480,255,503,507,400,0
1,1774291570832,-2215,-464,18143,4295604,1230282,577878,0,0,0,214,316,84,306,399,404,117,136,237,207,225,428,0
2,1774291570832,-856,-4958,16089,1463633,449596,117286,0,0,0,349,208,147,295,245,312,579,491,250,514,508,412,0
1,1774291570848,-3177,-339,22660,5324301,1629788,723264,0,0,0,161,277,87,302,372,396,133,131,233,204,209,411,0
2,1774291570848,1057,-899,11658,510683,360410,8552,0,0,0,353,218,152,313,254,321,616,482,259,535,495,427,0
1,1774291570864,-5317,-579,28906,6713408,2277305,1020144,0,0,0,161,255,98,290,314,346,144,118,204,214,189,370,0
2,1774291570864,1502,387,9145,285884,398284,107512,0,0,0,355,244,145,344,269,333,667,499,262,556,497,450,0
1,1774291570880,-6934,-1100,34252,8045095,2855184,1418429,0,0,0,158,235,100,242,260,262,128,108,142,195,170,300,0
2,1774291570880,1277,-607,9413,331088,444709,167377,0,0,0,358,254,134,361,267,352,685,487,278,576,509,470,0
1,1774291570896,-7298,507,33984,8951619,2946813,1743409,0,0,0,103,142,79,198,172,202,133,100,117,182,149,266,0
2,1774291570896,1440,-871,10236,162490,338419,96516,0,0,0,370,243,131,347,257,342,682,498,258,575,518,455,0
1,1774291570912,-7647,6580,28064,9585697,2317622,2050063,0,0,0,29,45,12,238,190,190,188,119,113,231,175,241,0
2,1774291570912,1502,-540,10370,24434,213802,30543,0,0,0,360,233,124,341,252,325,690,521,267,583,519,459,0
1,1774291570928,-7188,13299,15496,9656557,1357342,2423913,0,0,0,36,55,23,198,199,200,142,126,117,193,183,249,0
2,1774291570928,1497,-248,10141,-8552,125838,2443,0,0,0,361,238,138,376,284,371,718,551,283,572,511,453,0
1,1774291570944,-4211,15118,8997,6779382,442266,2450791,0,0,0,35,46,24,192,158,190,139,104,116,199,158,255,0
2,1774291570944,1459,-239,10169,21991,52534,-7330,0,0,0,368,242,146,363,269,366,723,503,291,574,521,463,0
1,1774291570960,-277,15281,9370,2028072,-318871,1964542,0,0,0,20,30,18,192,166,184,134,110,110,200,165,270,0
2,1774291570960,1387,-248,10270,53756,-7330,-17104,0,0,0,367,244,140,357,253,344,729,485,281,578,508,468,0
1,1774291570976,1871,11725,10112,-2021963,-322536,1056796,0,0,0,31,41,24,192,177,206,148,124,132,186,162,261,0
2,1774291570976,1344,-268,10160,81855,-42760,-21991,0,0,0,364,240,138,372,268,377,761,504,335,548,496,467,0
1,1774291570992,746,6872,7188,-3189938,139277,296880,0,0,0,25,37,22,201,175,205,145,115,125,187,152,247,0
2,1774291570992,1373,-296,9992,95294,-63529,-24434,0,0,0,370,240,145,376,270,372,738,476,308,530,488,461,0
1,1774291571008,-1019,5192,4096,-2714685,36651,100181,0,0,0,31,36,28,199,167,211,144,111,130,189,146,258,0
2,1774291571008,1392,-320,9935,94073,-87964,-34208,0,0,0,374,236,152,330,228,362,709,448,288,528,495,472,0
1,1774291571024,-1019,5599,3795,-2846632,-430049,200363,0,0,0,30,30,29,201,155,213,149,103,132,189,136,253,0
2,1774291571024,1368,-335,9968,89186,-119729,-48869,0,0,0,368,226,147,315,225,363,701,447,304,530,492,477,0
1,1774291571040,-306,5896,4934,-3689626,-728151,332310,0,0,0,31,30,28,207,152,216,150,101,133,190,135,249,0
