sole_id,timestamp,accel_x,accel_y,accel_z,gyro_x,gyro_y,gyro_z,magn_x,magn_y,magn_z,pressure_01,pressure_02,pressure_03,pressure_04,pressure_05,pressure_06,pressure_07,pressure_08,pressure_09,pressure_10,pressure_11,pressure_12,corrupt
1,1768494663264,-1588,162,9777,24434,-31764,8552,0,0,0,331,418,244,377,239,381,608,516,396,531,532,289,0
1,1768494663280,-1588,167,9782,24434,-31764,8552,0,0,0,329,414,244,372,238,381,600,516,396,525,532,291,0
1,1768494663296,-1588,157,9791,29321,-31764,9773,0,0,0,330,423,244,373,259,389,601,520,403,522,532,297,0
1,1768494663312,-1584,148,9796,31764,-32986,10995,0,0,0,315,424,228,371,259,390,554,466,419,519,531,300,0
1,1768494663328,-1584,153,9796,32986,-31764,10995,0,0,0,322,419,234,375,251,396,589,511,417,517,540,305,0
1,1768494663344,-1579,153,9791,28099,-31764,9773,0,0,0,324,418,232,383,252,401,594,521,414,514,542,303,0
1,1768494663360,-1569,153,9791,21991,-31764,8552,0,0,0,322,419,234,380,251,401,592,519,410,517,542,303,0
1,1768494663376,-1569,148,9791,15882,-34208,7330,0,0,0,321,420,237,377,250,402,594,520,412,520,544,305,0
1,1768494663392,-1579,148,9791,12217,-35430,7330,0,0,0,321,422,238,378,251,403,595,520,411,518,544,306,0
1,1768494663408,-1574,148,9796,12217,-35430,7330,0,0,0,320,423,239,377,252,403,593,519,405,516,543,305,0
1,1768494663424,-1569,148,9801,12217,-35430,7330,0,0,0,320,425,240,376,251,402,594,520,404,518,545,307,0
1,1768494663440,-1569,148,9801,12217,-36651,7330,0,0,0,322,428,240,378,254,404,593,518,404,519,546,309,0
1,1768494663456,-1574,157,9801,8552,-36651,7330,0,0,0,323,430,243,377,255,405,592,521,404,519,542,308,0
1,1768494663472,-1579,167,9806,8552,-37873,6108,0,0,0,321,430,238,380,261,405,591,525,409,524,537,309,0
1,1768494663488,-1584,167,9806,9773,-37873,6108,0,0,0,324,430,243,375,250,403,592,521,404,521,543,308,0
1,1768494663504,-1584,153,9806,9773,-36651,6108,0,0,0,328,428,244,378,252,405,589,518,399,518,543,308,0
1,1768494663520,-1588,153,9806,9773,-36651,6108,0,0,0,323,427,242,379,250,405,591,520,403,522,546,312,0
1,1768494663536,-1584,157,9806,8552,-37873,7330,0,0,0,323,428,242,380,252,405,590,519,400,523,546,310,0
1,1768494663552,-1579,157,9806,8552,-36651,7330,0,0,0,324,428,240,383,251,405,594,522,400,521,545,310,0
1,1768494663568,-1579,157,9806,9773,-36651,6108,0,0,0,321,427,238,383,249,404,598,524,402,525,545,308,0
1,1768494663584,-1584,157,9806,9773,-36651,6108,0,0,0,321,425,237,386,249,406,597,521,400,529,544,306,0
1,1768494663600,-1584,162,9806,9773,-35430,6108,0,0,0,323,424,237,388,248,406,597,519,399,529,543,303,0
1,1768494663616,-1579,167,9806,9773,-35430,6108,0,0,0,322,424,238,387,251,404,597,521,400,530,544,303,0
1,1768494663632,-1574,162,9810,8552,-36651,6108,0,0,0,322,425,238,386,255,408,594,524,401,531,546,306,0
1,1768494663648,-1579,167,9815,8552,-36651,7330,0,0,0,324,426,238,384,247,407,597,522,399,528,544,305,0
1,1768494663664,-1579,177,9810,8552,-35430,6108,0,0,0,322,426,237,385,249,409,596,522,401,525,541,303,0
1,1768494663680,-1588,177,9806,9773,-36651,7330,0,0,0,323,428,238,387,250,409,595,521,399,524,543,303,0
1,1768494663696,-1588,172,9806,13439,-36651,7330,0,0,0,323,428,238,387,248,409,600,526,400,524,544,305,0
1,1768494663712,-1579,172,9810,14660,-37873,7330,0,0,0,321,424,238,384,245,408,601,527,401,522,542,301,0
1,1768494663728,-1579,177,9820,15882,-35430,7330,0,0,0,321,426,239,384,247,408,600,526,401,524,545,306,0
1,1768494663744,-1579,177,9820,14660,-34208,7330,0,0,0,321,426,239,387,250,410,597,514,398,525,547,308,0
1,1768494663760,-1584,177,9820,14660,-34208,7330,0,0,0,320,427,238,384,249,409,595,517,393,523,544,303,0
1,1768494663776,-1584,177,9825,15882,-35430,8552,0,0,0,318,428,236,386,251,408,593,511,394,520,543,301,0
1,1768494663792,-1579,177,9820,15882,-35430,8552,0,0,0,319,429,238,387,254,408,594,512,394,519,544,301,0
1,1768494663808,-1579,177,9810,15882,-34208,7330,0,0,0,320,429,240,386,253,407,595,525,392,520,545,302,0
1,1768494663824,-1579,177,9810,15882,-34208,7330,0,0,0,318,425,238,387,255,408,595,528,396,520,546,303,0
1,1768494663840,-1588,181,9825,18325,-34208,7330,0,0,0,317,425,237,386,255,407,598,527,397,527,540,308,0
1,1768494663856,-1588,172,9825,18325,-34208,7330,0,0,0,320,429,239,386,253,407,602,521,398,544,522,314,0
1,1768494663872,-1593,172,9820,19547,-34208,8552,0,0,0,320,428,238,388,257,409,597,527,392,520,548,308,0
1,1768494663888,-1588,172,9815,20769,-34208,8552,0,0,0,320,428,237,385,254,406,597,526,392,520,548,305,0
1,1768494663904,-1588,172,9815,20769,-32986,8552,0,0,0,320,428,238,383,248,405,558,469,411,519,546,302,0
1,1768494663920,-1598,181,9825,23212,-32986,8552,0,0,0,323,426,239,386,254,409,591,521,400,518,545,304,0
1,1768494663936,-1593,177,9825,24434,-32986,8552,0,0,0,323,426,239,387,253,409,600,532,396,519,545,306,0
1,1768494663952,-1579,172,9825,25656,-32986,8552,0,0,0,326,428,241,386,251,409,597,528,393,521,547,308,0
1,1768494663968,-1569,162,9820,29321,-32986,9773,0,0,0,326,428,240,386,250,408,597,527,392,520,546,307,0
1,1768494663984,-1569,157,9820,26878,-32986,9773,0,0,0,325,426,238,384,251,406,599,530,397,520,547,308,0
1,1768494664000,-1574,157,9820,24434,-32986,9773,0,0,0,326,427,239,382,253,407,599,531,399,522,547,310,0
1,1768494664016,-1574,157,9820,24434,-34208,9773,0,0,0,328,428,240,382,252,409,597,528,397,522,546,309,0
1,1768494664032,-1574,162,9820,26878,-32986,9773,0,0,0,327,427,239,379,247,409,595,525,395,518,545,307,0
1,1768494664048,-1579,157,9820,31764,-31764,9773,0,0,0,325,427,237,379,246,406,594,522,396,515,543,306,0
1,1768494664064,-1579,153,9810,31764,-31764,9773,0,0,0,327,426,238,379,247,410,592,524,399,516,544,305,0
1,1768494664080,-1579,153,9801,29321,-31764,10995,0,0,0,328,426,239,382,251,412,598,520,398,515,543,304,0
1,1768494664096,-1569,153,9815,29321,-31764,10995,0,0,0,328,434,239,382,267,412,597,521,394,512,540,301,0
1,1768494664112,-1569,148,9830,29321,-31764,10995,0,0,0,324,434,233,382,273,411,591,518,393,510,527,301,0
1,1768494664128,-1579,143,9825,30543,-31764,10995,0,0,0,324,434,234,381,279,410,590,519,393,510,528,303,0
1,1768494664144,-1584,143,9815,30543,-32986,10995,0,0,0,327,426,239,384,256,411,593,517,392,513,530,307,0
1,1768494664160,-1579,143,9810,29321,-32986,9773,0,0,0,324,419,233,393,252,416,590,516,395,511,529,309,0
1,1768494664176,-1569,138,9815,29321,-31764,9773,0,0,0,321,416,232,389,255,422,588,515,397,514,529,313,0
1,1768494664192,-1569,134,9830,28099,-31764,10995,0,0,0,323,417,235,385,252,424,587,511,393,522,528,317,0
1,1768494664208,-1574,129,9834,26878,-31764,9773,0,0,0,327,418,237,382,246,421,590,509,391,524,527,317,0
1,1768494664224,-1579,129,9825,24434,-32986,9773,0,0,0,327,417,237,382,244,421,592,510,396,523,528,319,0
1,1768494664240,-1574,134,9830,23212,-32986,8552,0,0,0,323,416,236,385,247,427,591,511,403,521,529,323,0
1,1768494664256,-1569,134,9830,21991,-32986,8552,0,0,0,322,418,238,383,247,426,590,514,402,518,528,322,0
1,1768494664272,-1569,124,9830,20769,-31764,9773,0,0,0,322,420,236,387,249,424,590,511,396,518,525,320,0
1,1768494664288,-1569,119,9825,20769,-31764,9773,0,0,0,325,420,237,387,250,424,584,504,399,520,526,330,0
1,1768494664304,-1569,119,9825,19547,-31764,8552,0,0,0,327,420,237,379,242,414,543,443,410,518,522,340,0
1,1768494664320,-1574,124,9830,18325,-32986,8552,0,0,0,322,419,231,387,252,419,583,500,389,521,527,344,0
1,1768494664336,-1569,129,9834,18325,-34208,8552,0,0,0,326,420,234,383,249,416,596,507,389,517,524,341,0
1,1768494664352,-1564,134,9830,19547,-34208,8552,0,0,0,325,418,233,386,250,417,595,512,389,521,526,342,0
1,1768494664368,-1574,134,9825,19547,-32986,8552,0,0,0,322,415,232,390,248,418,593,514,389,523,528,343,0
1,1768494664384,-1579,134,9825,19547,-32986,8552,0,0,0,324,417,232,391,250,418,589,510,385,525,530,343,0
1,1768494664400,-1574,138,9834,20769,-32986,8552,0,0,0,326,418,231,391,251,416,588,509,385,525,530,340,0
1,1768494664416,-1569,134,9839,20769,-32986,8552,0,0,0,325,417,230,393,251,414,590,508,384,522,527,335,0
1,1768494664432,-1569,124,9839,19547,-32986,8552,0,0,0,323,415,231,395,252,415,590,510,387,525,522,332,0
1,1768494664448,-1574,124,9849,19547,-34208,8552,0,0,0,323,414,231,395,252,417,593,515,395,529,521,331,0
1,1768494664464,-1569,124,9834,19547,-34208,8552,0,0,0,323,415,231,394,251,418,594,508,388,520,530,329,0
1,1768494664480,-1564,129,9825,19547,-34208,7330,0,0,0,324,415,231,392,251,416,594,508,389,519,528,325,0
1,1768494664496,-1564,124,9830,17104,-34208,7330,0,0,0,323,412,228,391,248,415,595,508,392,519,528,323,0
1,1768494664512,-1569,124,9839,15882,-32986,7330,0,0,0,326,412,231,393,248,417,593,504,391,518,527,321,0
1,1768494664528,-1574,129,9839,15882,-32986,7330,0,0,0,327,413,232,395,257,419,561,457,407,521,531,330,0
1,1768494664544,-1579,134,9834,15882,-32986,7330,0,0,0,328,415,234,395,252,420,591,502,393,518,530,325,0
1,1768494664560,-1579,129,9834,17104,-32986,8552,0,0,0,326,415,235,395,252,422,596,509,392,521,532,327,0
1,1768494664576,-1574,124,9839,17104,-34208,8552,0,0,0,327,415,237,391,249,420,596,509,391,518,530,323,0
1,1768494664592,-1569,124,9839,15882,-34208,7330,0,0,0,328,416,238,391,249,421,595,510,391,518,529,323,0
1,1768494664608,-1564,129,9839,15882,-34208,7330,0,0,0,327,416,237,393,252,422,595,510,391,520,530,322,0
1,1768494664624,-1564,134,9839,15882,-34208,7330,0,0,0,327,416,237,392,253,422,596,513,394,520,531,320,0
1,1768494664640,-1574,129,9839,17104,-32986,7330,0,0,0,327,416,237,391,253,422,596,514,394,522,532,320,0
1,1768494664656,-1574,119,9839,17104,-32986,7330,0,0,0,325,413,235,392,252,422,596,512,393,522,532,321,0
1,1768494664672,-1564,124,9834,17104,-32986,8552,0,0,0,328,416,238,392,249,423,590,514,395,524,533,321,0
1,1768494664688,-1564,129,9839,17104,-32986,7330,0,0,0,327,416,239,388,246,420,573,520,399,527,536,323,0
1,1768494664704,-1564,134,9844,17104,-32986,7330,0,0,0,326,415,238,391,250,423,591,509,390,520,532,318,0
1,1768494664720,-1569,129,9839,17104,-34208,8552,0,0,0,330,418,241,392,251,424,592,509,389,520,532,315,0
1,1768494664736,-1569,129,9834,17104,-34208,8552,0,0,0,325,416,235,392,251,424,592,509,389,518,532,315,0
1,1768494664752,-1574,119,9834,18325,-32986,8552,0,0,0,326,413,235,395,248,424,594,511,390,518,530,314,0
1,1768494664768,-1569,119,9834,15882,-32986,8552,0,0,0,328,414,237,393,249,421,590,509,388,519,531,314,0
1,1768494664784,-1560,119,9834,14660,-32986,8552,0,0,0,328,415,237,395,250,423,589,510,388,520,533,314,0
1,1768494664800,-1560,124,9844,14660,-35430,7330,0,0,0,328,413,235,397,248,423,591,511,389,520,534,313,0
1,1768494664816,-1560,124,9844,14660,-35430,7330,0,0,0,329,413,235,399,247,423,592,512,391,522,534,313,0
1,1768494664832,-1564,129,9834,15882,-34208,7330,0,0,0,331,414,236,399,247,422,594,510,396,522,533,313,0
1,1768494664848,-1564,129,9834,15882,-32986,7330,0,0,0,331,413,236,398,246,421,594,504,394,520,531,311,0
1,1768494664864,-1564,124,9844,15882,-32986,7330,0,0,0,332,416,237,402,250,424,588,509,386,521,534,310,0
1,1768494664880,-1569,124,9849,14660,-32986,7330,0,0,0,329,413,235,402,250,423,590,509,388,525,537,314,0
1,1768494664896,-1560,124,9844,12217,-34208,7330,0,0,0,330,417,235,400,249,421,591,510,387,524,537,315,0
1,1768494664912,-1560,124,9839,12217,-35430,7330,0,0,0,330,416,234,400,251,421,591,510,386,522,537,311,0
1,1768494664928,-1564,129,9839,12217,-35430,7330,0,0,0,330,416,234,397,249,418,593,513,390,522,536,311,0
1,1768494664944,-1569,134,9844,13439,-35430,7330,0,0,0,332,416,237,401,253,421,592,513,390,522,536,313,0
1,1768494664960,-1569,134,9844,14660,-35430,7330,0,0,0,328,414,234,401,255,422,583,513,385,542,518,321,0
1,1768494664976,-1564,134,9839,14660,-35430,7330,0,0,0,330,416,237,404,255,425,590,514,390,527,530,313,0
1,1768494664992,-1564,134,9839,14660,-35430,7330,0,0,0,331,416,237,400,250,421,592,514,389,522,536,308,0
1,1768494665008,-1569,134,9839,14660,-35430,7330,0,0,0,331,415,237,400,248,419,591,512,387,524,537,311,0
1,1768494665024,-1574,134,9844,15882,-35430,7330,0,0,0,330,414,236,402,250,421,592,512,389,526,540,315,0
1,1768494665040,-1569,138,9834,18325,-34208,8552,0,0,0,330,415,236,404,254,424,591,513,388,525,539,314,0
1,1768494665056,-1564,138,9834,18325,-32986,8552,0,0,0,329,416,235,404,255,424,591,514,389,523,536,309,0
1,1768494665072,-1569,134,9839,18325,-32986,8552,0,0,0,329,413,234,402,253,423,595,517,395,523,534,308,0
1,1768494665088,-1574,134,9844,18325,-34208,8552,0,0,0,332,414,236,403,253,423,594,515,394,523,536,311,0
1,1768494665104,-1574,134,9844,20769,-34208,8552,0,0,0,331,418,239,403,256,423,593,513,391,522,535,310,0
1,1768494665120,-1569,138,9844,23212,-34208,8552,0,0,0,330,418,238,402,251,422,593,513,392,519,532,307,0
1,1768494665136,-1564,129,9839,21991,-34208,8552,0,0,0,331,418,238,403,253,422,593,513,391,521,534,307,0
1,1768494665152,-1564,119,9839,19547,-35430,8552,0,0,0,332,418,237,403,254,422,592,511,391,522,535,308,0
1,1768494665168,-1564,124,9839,17104,-34208,7330,0,0,0,330,416,235,401,250,419,592,511,389,522,534,309,0
1,1768494665184,-1564,134,9839,17104,-34208,7330,0,0,0,330,416,235,401,250,420,594,513,390,522,535,310,0
1,1768494665200,-1569,129,9839,17104,-34208,7330,0,0,0,327,416,233,401,251,420,593,513,389,522,536,311,0
1,1768494665216,-1569,114,9839,17104,-34208,7330,0,0,0,327,416,234,399,249,421,593,511,387,523,536,312,0
1,1768494665232,-1560,119,9839,17104,-34208,7330,0,0,0,327,415,234,396,253,421,570,479,398,522,534,310,0
1,1768494665248,-1560,134,9844,18325,-32986,7330,0,0,0,326,414,235,396,256,420,565,473,400,519,532,308,0
1,1768494665264,-1564,134,9839,19547,-32986,7330,0,0,0,328,416,238,400,252,423,591,512,388,521,534,310,0
1,1768494665280,-1574,124,9844,19547,-32986,8552,0,0,0,330,417,238,403,253,424,591,511,389,524,537,312,0
1,1768494665296,-1569,119,9853,18325,-32986,8552,0,0,0,330,418,238,399,250,420,590,508,389,523,536,310,0
1,1768494665312,-1574,119,9863,19547,-32986,7330,0,0,0,330,418,237,397,249,420,594,512,393,520,532,307,0
1,1768494665328,-1564,119,9844,20769,-32986,7330,0,0,0,330,417,238,399,247,423,591,506,389,523,533,312,0
1,1768494665344,-1555,124,9830,21991,-34208,8552,0,0,0,330,417,238,401,251,424,591,510,394,523,533,315,0
1,1768494665360,-1555,129,9834,20769,-34208,8552,0,0,0,328,417,237,402,256,425,588,508,389,522,531,311,0
1,1768494665376,-1555,129,9839,18325,-34208,8552,0,0,0,328,417,234,400,252,422,591,510,390,522,529,311,0
1,1768494665392,-1560,124,9844,15882,-34208,7330,0,0,0,328,417,234,402,253,423,589,509,389,525,531,313,0
1,1768494665408,-1564,119,9849,15882,-35430,7330,0,0,0,325,417,232,398,252,420,556,465,406,525,531,313,0
1,1768494665424,-1564,114,9839,15882,-35430,7330,0,0,0,325,419,233,398,255,421,567,482,402,522,530,311,0
1,1768494665440,-1564,119,9834,15882,-35430,7330,0,0,0,327,420,235,401,258,424,591,508,394,523,531,312,0
1,1768494665456,-1560,119,9834,14660,-35430,7330,0,0,0,329,420,235,403,259,425,590,506,393,526,532,313,0
1,1768494665472,-1555,119,9839,13439,-36651,7330,0,0,0,328,418,234,404,260,425,590,513,387,525,530,312,0
1,1768494665488,-1560,119,9853,12217,-36651,7330,0,0,0,326,416,234,400,257,422,592,514,389,525,530,311,0
1,1768494665504,-1564,119,9844,12217,-35430,7330,0,0,0,328,418,234,399,255,423,589,513,389,527,533,313,0
1,1768494665520,-1574,124,9839,10995,-35430,7330,0,0,0,330,417,235,401,250,425,593,517,395,524,530,308,0
1,1768494665536,-1574,124,9839,8552,-35430,6108,0,0,0,332,419,234,415,252,420,592,519,394,526,534,311,0
1,1768494665552,-1564,129,9844,7330,-35430,6108,0,0,0,332,419,234,412,252,420,588,519,391,526,534,310,0
1,1768494665568,-1564,124,9839,4886,-35430,6108,0,0,0,327,417,239,397,253,423,589,520,392,525,536,311,0
1,1768494665584,-1555,124,9834,2443,-36651,4886,0,0,0,326,420,241,393,255,421,590,520,394,525,536,312,0
1,1768494665600,-1555,129,9830,0,-37873,4886,0,0,0,326,418,239,393,253,418,589,518,392,525,536,312,0
1,1768494665616,-1564,134,9830,0,-37873,4886,0,0,0,325,416,239,392,252,417,587,519,393,525,537,315,0
1,1768494665632,-1574,143,9839,3665,-37873,4886,0,0,0,325,415,240,390,250,414,588,522,395,527,539,319,0
1,1768494665648,-1564,143,9844,3665,-37873,4886,0,0,0,326,413,239,389,250,413,588,521,395,527,539,319,0
1,1768494665664,-1564,143,9849,4886,-37873,6108,0,0,0,326,412,240,390,249,414,589,521,396,525,539,317,0
1,1768494665680,-1569,148,9844,8552,-36651,6108,0,0,0,326,414,242,384,273,411,589,525,400,525,540,319,0
1,1768494665696,-1569,148,9834,10995,-36651,6108,0,0,0,325,415,240,381,295,410,585,524,398,525,541,319,0
1,1768494665712,-1569,153,9839,12217,-36651,7330,0,0,0,327,415,241,389,250,417,590,520,394,523,540,318,0
1,1768494665728,-1569,153,9844,13439,-36651,7330,0,0,0,327,416,244,390,250,416,593,523,398,528,543,322,0
1,1768494665744,-1569,153,9839,15882,-36651,7330,0,0,0,327,415,241,389,249,415,593,521,398,527,542,319,0
1,1768494665760,-1569,148,9834,17104,-35430,7330,0,0,0,330,415,245,390,250,416,593,522,398,528,543,321,0
1,1768494665776,-1569,143,9834,15882,-35430,7330,0,0,0,328,414,244,392,253,418,592,523,398,528,543,322,0
1,1768494665792,-1569,143,9844,14660,-35430,7330,0,0,0,329,415,244,393,251,418,592,519,398,544,521,325,0
1,1768494665808,-1574,143,9844,14660,-36651,7330,0,0,0,330,415,242,391,250,416,594,521,400,532,535,319,0
1,1768494665824,-1574,148,9834,14660,-36651,7330,0,0,0,328,413,241,391,249,416,594,524,400,526,541,316,0
1,1768494665840,-1569,143,9834,14660,-35430,7330,0,0,0,328,415,243,391,247,417,591,522,397,525,540,316,0
1,1768494665856,-1569,143,9834,13439,-35430,7330,0,0,0,328,416,243,390,249,416,588,520,394,525,539,315,0
1,1768494665872,-1579,148,9834,13439,-36651,7330,0,0,0,326,415,242,390,250,415,588,520,395,525,540,315,0
1,1768494665888,-1574,148,9834,14660,-35430,7330,0,0,0,327,416,241,390,249,417,589,519,397,527,543,317,0
1,1768494665904,-1569,153,9839,17104,-35430,7330,0,0,0,328,416,241,392,253,418,589,519,397,527,543,318,0
1,1768494665920,-1574,148,9839,18325,-35430,8552,0,0,0,331,417,244,390,249,417,590,519,398,529,545,321,0
1,1768494665936,-1574,148,9839,17104,-35430,8552,0,0,0,328,415,240,389,247,416,592,522,400,530,546,321,0
1,1768494665952,-1579,148,9849,15882,-35430,7330,0,0,0,330,415,243,390,249,417,590,508,401,527,545,321,0
1,1768494665968,-1579,148,9849,15882,-35430,7330,0,0,0,329,414,242,390,249,417,590,519,400,527,545,319,0
1,1768494665984,-1574,143,9844,15882,-35430,7330,0,0,0,330,415,244,390,248,418,591,522,399,525,543,319,0
1,1768494666000,-1569,143,9839,18325,-34208,7330,0,0,0,328,416,242,391,252,419,591,522,399,529,531,322,0
1,1768494666016,-1569,148,9839,19547,-34208,7330,0,0,0,327,413,241,391,250,419,590,522,401,532,537,322,0
1,1768494666032,-1574,148,9839,18325,-34208,7330,0,0,0,327,415,242,392,252,419,591,523,401,529,542,320,0
1,1768494666048,-1584,143,9844,17104,-35430,8552,0,0,0,328,417,242,391,250,418,590,521,399,527,543,319,0
1,1768494666064,-1584,143,9844,17104,-35430,8552,0,0,0,328,417,243,383,243,413,565,485,406,523,539,316,0
1,1768494666080,-1579,148,9839,18325,-35430,8552,0,0,0,330,416,245,382,243,413,559,476,409,524,540,315,0
1,1768494666096,-1574,153,9834,18325,-35430,8552,0,0,0,329,414,244,392,250,421,590,521,401,528,545,318,0
1,1768494666112,-1574,153,9834,17104,-35430,7330,0,0,0,327,415,243,394,252,423,594,524,405,526,543,316,0
1,1768494666128,-1564,148,9834,15882,-35430,7330,0,0,0,329,418,246,392,252,421,590,522,402,527,543,320,0
1,1768494666144,-1564,143,9834,15882,-35430,7330,0,0,0,327,415,244,392,252,421,587,517,397,527,542,321,0
1,1768494666160,-1579,148,9839,17104,-35430,7330,0,0,0,331,420,250,390,252,421,586,516,398,527,544,322,0
1,1768494666176,-1584,148,9839,17104,-34208,7330,0,0,0,327,414,246,391,252,422,588,518,399,527,544,322,0
1,1768494666192,-1584,148,9834,18325,-32986,8552,0,0,0,329,417,248,392,254,423,588,519,400,526,544,320,0
1,1768494666208,-1579,138,9834,18325,-32986,8552,0,0,0,326,414,244,388,252,420,591,522,403,526,544,319,0
1,1768494666224,-1579,143,9839,18325,-34208,8552,0,0,0,326,414,244,389,255,421,589,523,404,529,545,323,0
1,1768494666240,-1579,148,9844,18325,-34208,8552,0,0,0,327,416,246,390,253,422,592,523,405,530,546,324,0
1,1768494666256,-1564,148,9844,18325,-34208,8552,0,0,0,328,416,247,391,254,423,592,521,402,528,545,322,0
1,1768494666272,-1564,143,9839,18325,-35430,7330,0,0,0,329,417,247,391,255,424,590,520,399,528,544,322,0
1,1768494666288,-1574,143,9839,18325,-34208,7330,0,0,0,329,418,247,390,254,424,590,520,399,528,543,322,0
1,1768494666304,-1579,143,9834,18325,-32986,8552,0,0,0,329,417,247,391,252,422,590,520,399,528,543,322,0
1,1768494666320,-1569,143,9834,17104,-32986,8552,0,0,0,330,418,246,389,251,419,591,520,401,532,544,325,0
1,1768494666336,-1569,138,9834,17104,-32986,8552,0,0,0,330,417,244,386,262,416,590,522,401,531,534,321,0
1,1768494666352,-1579,138,9834,15882,-34208,7330,0,0,0,330,416,244,367,350,395,582,520,402,527,543,322,0
1,1768494666368,-1579,143,9834,15882,-34208,7330,0,0,0,330,416,245,392,254,423,590,518,397,526,542,316,0
1,1768494666384,-1579,148,9844,17104,-34208,7330,0,0,0,329,416,243,390,249,423,592,517,396,527,543,318,0
1,1768494666400,-1584,148,9849,19547,-34208,8552,0,0,0,329,417,243,392,249,424,594,520,398,528,546,320,0
1,1768494666416,-1579,143,9834,19547,-32986,7330,0,0,0,330,421,244,394,253,425,593,519,396,525,543,318,0
1,1768494666432,-1579,134,9830,18325,-34208,7330,0,0,0,330,420,245,394,254,426,593,519,394,526,544,321,0
1,1768494666448,-1574,134,9839,17104,-34208,7330,0,0,0,328,419,243,394,255,426,593,520,395,528,546,323,0
1,1768494666464,-1574,134,9844,17104,-35430,8552,0,0,0,328,418,242,393,256,425,593,521,396,529,546,322,0
1,1768494666480,-1574,138,9844,17104,-34208,8552,0,0,0,330,418,244,392,254,424,594,520,398,529,545,322,0
1,1768494666496,-1574,138,9839,18325,-32986,8552,0,0,0,331,420,245,394,254,426,593,519,399,527,544,321,0
1,1768494666512,-1574,138,9844,17104,-32986,8552,0,0,0,330,420,245,394,255,426,592,520,399,524,540,316,0
1,1768494666528,-1574,143,9844,17104,-32986,8552,0,0,0,333,421,246,396,254,428,593,521,398,524,542,318,0
1,1768494666544,-1574,148,9839,17104,-34208,8552,0,0,0,333,425,247,396,257,427,591,521,396,528,544,321,0
1,1768494666560,-1574,143,9839,18325,-35430,8552,0,0,0,333,421,247,394,255,425,594,522,399,524,540,317,0
1,1768494666576,-1569,143,9839,18325,-34208,7330,0,0,0,332,420,244,394,254,424,595,523,400,523,540,317,0
1,1768494666592,-1574,138,9839,18325,-34208,7330,0,0,0,332,422,247,390,250,422,592,520,399,527,544,321,0
1,1768494666608,-1579,134,9839,17104,-34208,7330,0,0,0,332,422,248,392,253,424,590,520,399,526,544,320,0
1,1768494666624,-1579,138,9839,15882,-34208,7330,0,0,0,332,420,247,393,256,427,594,523,402,528,546,323,0
1,1768494666640,-1579,138,9839,15882,-34208,7330,0,0,0,331,419,245,393,255,427,593,521,401,527,544,322,0
1,1768494666656,-1579,138,9839,15882,-32986,7330,0,0,0,329,420,244,391,255,426,592,521,400,526,544,321,0
1,1768494666672,-1579,143,9849,17104,-32986,7330,0,0,0,330,422,244,390,255,425,594,523,402,525,545,320,0
1,1768494666688,-1574,143,9849,17104,-32986,7330,0,0,0,331,422,244,390,256,425,596,525,404,525,544,319,0
1,1768494666704,-1569,143,9853,17104,-34208,7330,0,0,0,329,422,244,391,259,425,596,526,406,528,546,323,0
1,1768494666720,-1569,143,9844,17104,-34208,7330,0,0,0,328,424,246,388,254,422,593,522,403,525,542,321,0
1,1768494666736,-1569,143,9844,18325,-32986,8552,0,0,0,330,429,247,389,258,424,594,525,407,526,544,323,0
1,1768494666752,-1574,143,9844,19547,-34208,8552,0,0,0,331,419,245,393,256,427,590,521,401,523,544,321,0
1,1768494666768,-1574,138,9839,19547,-34208,8552,0,0,0,334,421,249,393,262,427,585,524,406,532,546,328,0
1,1768494666784,-1579,138,9839,19547,-32986,8552,0,0,0,334,417,245,394,258,429,588,523,404,525,540,321,0
1,1768494666800,-1574,134,9844,20769,-32986,8552,0,0,0,330,413,245,392,258,427,587,519,400,524,541,318,0
1,1768494666816,-1569,134,9844,21991,-32986,8552,0,0,0,329,416,246,388,259,425,591,522,404,518,542,319,0
1,1768494666832,-1569,134,9830,21991,-32986,8552,0,0,0,328,417,247,387,258,424,594,523,407,515,542,319,0
1,1768494666848,-1564,134,9830,21991,-32986,8552,0,0,0,325,419,240,385,267,418,592,521,401,517,544,330,0
1,1768494666864,-1564,129,9834,20769,-32986,8552,0,0,0,323,425,232,384,283,412,588,521,395,525,544,342,0
1,1768494666880,-1564,129,9839,20769,-32986,8552,0,0,0,325,422,233,389,275,414,588,523,397,527,540,333,0
1,1768494666896,-1569,129,9839,23212,-32986,8552,0,0,0,326,414,237,393,257,418,589,523,400,519,544,319,0
1,1768494666912,-1574,134,9844,25656,-32986,8552,0,0,0,323,417,238,395,265,417,589,521,394,519,547,320,0
1,1768494666928,-1574,134,9849,28099,-31764,9773,0,0,0,323,420,237,394,261,414,591,522,394,520,548,327,0
1,1768494666944,-1574,129,9844,29321,-31764,9773,0,0,0,323,417,236,395,261,422,590,523,396,520,548,317,0
1,1768494666960,-1574,129,9839,29321,-31764,9773,0,0,0,325,416,239,391,260,416,585,518,398,520,547,344,0
1,1768494666976,-1574,129,9839,28099,-31764,9773,0,0,0,325,416,240,391,260,414,585,518,394,526,528,330,0
1,1768494666992,-1569,129,9844,26878,-31764,9773,0,0,0,327,415,254,391,278,424,584,523,403,519,542,335,0
1,1768494667008,-1564,124,9844,26878,-31764,9773,0,0,0,324,412,266,390,260,430,586,521,406,519,545,336,0
1,1768494667024,-1564,119,9844,26878,-31764,9773,0,0,0,325,410,244,393,258,424,588,515,397,514,541,327,0
1,1768494667040,-1574,119,9839,26878,-31764,9773,0,0,0,330,415,245,386,254,411,610,507,390,513,536,322,0
1,1768494667056,-1574,119,9844,28099,-30543,9773,0,0,0,331,416,242,387,253,408,602,514,394,518,536,325,0
1,1768494667072,-1564,119,9849,29321,-30543,9773,0,0,0,332,416,234,398,259,412,588,522,400,519,539,326,0
1,1768494667088,-1564,114,9844,31764,-30543,10995,0,0,0,334,420,241,404,263,416,588,520,404,516,540,325,0
1,1768494667104,-1574,114,9844,32986,-30543,10995,0,0,0,335,422,251,404,261,420,586,515,400,515,539,329,0
1,1768494667120,-1569,105,9844,32986,-29321,10995,0,0,0,342,417,253,402,252,417,589,512,391,515,537,334,0
1,1768494667136,-1550,95,9849,31764,-29321,10995,0,0,0,345,416,248,412,249,405,587,508,393,519,533,331,0
1,1768494667152,-1555,95,9849,31764,-30543,12217,0,0,0,344,416,243,415,253,411,582,509,403,524,533,346,0
1,1768494667168,-1569,95,9849,31764,-30543,12217,0,0,0,350,415,246,417,256,414,585,506,399,522,530,342,0
1,1768494667184,-1564,95,9849,32986,-30543,12217,0,0,0,356,414,278,412,253,419,588,501,392,522,528,348,0
1,1768494667200,-1550,100,9849,32986,-30543,10995,0,0,0,357,414,284,416,253,424,592,508,405,519,520,346,0
1,1768494667216,-1555,95,9839,30543,-30543,10995,0,0,0,351,417,282,418,260,430,564,461,418,521,523,345,0
1,1768494667232,-1564,90,9839,28099,-31764,10995,0,0,0,354,418,281,418,262,428,574,482,404,525,525,341,0
1,1768494667248,-1560,90,9844,25656,-32986,10995,0,0,0,349,422,281,418,265,429,587,505,392,523,527,345,0
1,1768494667264,-1560,86,9849,25656,-31764,9773,0,0,0,340,426,278,418,269,429,587,503,391,521,526,349,0
1,1768494667280,-1560,86,9839,25656,-30543,9773,0,0,0,340,426,275,418,268,426,587,500,389,523,525,345,0
1,1768494667296,-1564,86,9839,26878,-29321,9773,0,0,0,342,428,275,420,265,427,588,498,388,523,525,342,0
1,1768494667312,-1560,81,9839,24434,-30543,9773,0,0,0,341,437,271,421,271,428,586,499,392,521,523,342,0
1,1768494667328,-1560,81,9844,21991,-31764,9773,0,0,0,334,441,263,423,276,432,588,505,397,522,520,343,0
1,1768494667344,-1564,76,9853,21991,-34208,9773,0,0,0,333,439,262,420,276,431,587,503,396,525,521,343,0
1,1768494667360,-1560,71,9849,24434,-31764,9773,0,0,0,334,450,278,420,291,454,581,504,408,523,520,347,0
1,1768494667376,-1555,67,9849,25656,-31764,9773,0,0,0,329,457,284,413,290,461,587,505,421,523,519,347,0
1,1768494667392,-1545,71,9844,25656,-31764,9773,0,0,0,329,449,286,412,280,470,585,497,422,518,512,348,0
1,1768494667408,-1550,71,9844,21991,-31764,9773,0,0,0,332,441,293,413,274,468,588,496,429,523,514,352,0
1,1768494667424,-1560,71,9849,21991,-32986,8552,0,0,0,331,439,297,414,277,471,589,497,440,527,519,351,0
1,1768494667440,-1564,71,9853,24434,-32986,8552,0,0,0,332,437,299,413,279,471,589,498,445,528,518,345,0
1,1768494667456,-1564,71,9853,26878,-31764,9773,0,0,0,329,436,307,410,279,468,587,499,441,527,517,339,0
1,1768494667472,-1560,76,9849,30543,-30543,9773,0,0,0,331,436,311,407,276,464,586,496,428,526,520,335,0
1,1768494667488,-1555,76,9844,31764,-30543,10995,0,0,0,334,436,304,407,272,461,588,489,416,526,525,333,0
1,1768494667504,-1550,71,9844,31764,-30543,10995,0,0,0,324,431,297,410,273,461,585,485,419,524,524,333,0
1,1768494667520,-1541,62,9844,31764,-30543,10995,0,0,0,319,427,289,412,275,459,588,494,420,529,520,332,0
1,1768494667536,-1541,52,9849,31764,-29321,10995,0,0,0,323,434,282,409,289,450,589,493,411,535,523,333,0
1,1768494667552,-1550,52,9853,34208,-29321,12217,0,0,0,328,438,258,407,293,452,591,491,437,521,528,333,0
1,1768494667568,-1536,57,9858,36651,-28099,12217,0,0,0,334,424,253,415,273,452,590,477,429,521,524,338,0
1,1768494667584,-1536,62,9863,41538,-28099,13439,0,0,0,332,417,255,415,266,451,592,483,419,522,522,334,0
1,1768494667600,-1536,52,9858,43982,-25656,13439,0,0,0,330,421,251,418,280,451,591,479,420,523,519,347,0
1,1768494667616,-1541,43,9849,43982,-25656,14660,0,0,0,337,424,252,414,289,441,596,474,416,517,511,344,0
1,1768494667632,-1536,38,9844,41538,-26878,13439,0,0,0,331,429,255,410,297,446,589,473,420,516,513,348,0
1,1768494667648,-1531,33,9849,36651,-26878,13439,0,0,0,322,433,246,413,301,444,588,474,422,511,513,355,0
1,1768494667664,-1531,33,9853,36651,-26878,13439,0,0,0,325,436,245,412,301,438,592,477,422,509,518,354,0
1,1768494667680,-1536,28,9858,39095,-26878,13439,0,0,0,330,437,251,412,298,436,592,476,420,509,519,350,0
1,1768494667696,-1531,23,9858,39095,-28099,13439,0,0,0,330,435,252,417,297,437,589,475,417,507,515,349,0
1,1768494667712,-1521,28,9849,36651,-29321,13439,0,0,0,333,436,251,423,302,437,589,480,424,508,519,353,0
1,1768494667728,-1517,28,9849,29321,-29321,10995,0,0,0,338,438,253,429,302,431,590,481,432,512,524,354,0
1,1768494667744,-1517,14,9853,25656,-31764,9773,0,0,0,341,443,250,431,310,432,584,484,419,512,522,354,0
1,1768494667760,-1521,9,9853,24434,-32986,9773,0,0,0,345,445,253,430,337,428,581,493,413,505,514,355,0
1,1768494667776,-1526,14,9863,24434,-32986,9773,0,0,0,345,445,248,432,301,422,587,483,410,505,520,360,0
1,1768494667792,-1531,19,9877,24434,-31764,10995,0,0,0,344,449,253,434,302,424,588,481,412,505,516,361,0
1,1768494667808,-1521,9,9858,23212,-31764,9773,0,0,0,342,452,249,436,303,426,588,490,417,501,513,358,0
1,1768494667824,-1517,9,9844,19547,-32986,9773,0,0,0,341,454,245,441,307,430,584,486,412,504,518,363,0
1,1768494667840,-1512,9,9844,14660,-35430,7330,0,0,0,343,455,246,443,309,430,581,481,408,503,520,363,0
1,1768494667856,-1512,14,9844,9773,-36651,7330,0,0,0,343,452,247,442,307,428,582,480,409,500,519,358,0
1,1768494667872,-1517,14,9844,6108,-36651,7330,0,0,0,343,445,244,441,309,429,569,459,417,499,518,355,0
1,1768494667888,-1521,14,9849,4886,-36651,6108,0,0,0,345,440,245,445,308,432,568,455,417,501,519,352,0
1,1768494667904,-1521,19,9853,2443,-36651,4886,0,0,0,346,438,247,448,303,434,588,485,408,503,521,353,0
1,1768494667920,-1521,19,9853,0,-36651,4886,0,0,0,343,437,243,447,302,433,587,487,409,506,525,356,0
1,1768494667936,-1526,23,9858,0,-37873,3665,0,0,0,345,437,246,444,298,430,584,485,407,506,524,355,0
1,1768494667952,-1531,28,9863,0,-37873,3665,0,0,0,344,437,246,441,295,428,583,485,410,506,523,354,0
1,1768494667968,-1531,33,9858,2443,-37873,4886,0,0,0,342,438,246,443,301,428,583,487,409,508,527,357,0
1,1768494667984,-1531,33,9863,4886,-37873,6108,0,0,0,342,440,247,447,301,433,584,491,409,507,527,351,0
1,1768494668000,-1531,33,9863,4886,-36651,6108,0,0,0,344,440,252,445,301,433,554,440,418,506,525,351,0
1,1768494668016,-1526,28,9868,4886,-36651,6108,0,0,0,345,442,253,444,299,433,581,488,408,506,525,354,0
1,1768494668032,-1526,33,9868,7330,-36651,6108,0,0,0,342,441,253,443,296,434,582,491,406,506,525,352,0
1,1768494668048,-1526,38,9858,8552,-36651,6108,0,0,0,341,440,253,443,294,435,582,492,407,506,524,352,0
1,1768494668064,-1526,47,9858,9773,-35430,6108,0,0,0,341,441,256,444,294,437,582,493,407,507,525,356,0
1,1768494668080,-1526,38,9858,9773,-35430,6108,0,0,0,342,442,256,446,295,436,583,494,407,506,525,357,0
1,1768494668096,-1531,33,9863,10995,-36651,6108,0,0,0,342,443,255,445,294,434,586,497,409,506,525,356,0
1,1768494668112,-1536,33,9863,10995,-36651,6108,0,0,0,343,445,255,444,291,433,590,500,412,507,525,358,0
1,1768494668128,-1531,38,9863,12217,-36651,6108,0,0,0,343,447,256,443,289,433,590,499,411,507,527,360,0
1,1768494668144,-1526,38,9853,12217,-35430,7330,0,0,0,343,447,254,443,288,432,588,498,409,507,527,360,0
1,1768494668160,-1531,38,9849,12217,-35430,7330,0,0,0,340,446,253,445,289,435,588,498,409,505,524,356,0
1,1768494668176,-1536,47,9849,13439,-35430,7330,0,0,0,339,442,253,444,289,435,589,498,409,506,528,361,0
1,1768494668192,-1536,43,9849,13439,-34208,7330,0,0,0,342,444,259,440,282,431,589,498,409,506,528,361,0
1,1768494668208,-1531,33,9844,13439,-34208,7330,0,0,0,342,444,258,445,289,436,588,498,408,507,528,362,0
1,1768494668224,-1531,38,9853,12217,-35430,7330,0,0,0,342,443,258,442,285,434,593,502,413,504,523,357,0
1,1768494668240,-1536,47,9863,12217,-35430,7330,0,0,0,344,444,261,444,290,436,587,500,409,506,526,361,0
1,1768494668256,-1541,52,9863,13439,-35430,8552,0,0,0,342,444,261,441,285,433,587,499,409,506,527,362,0
1,1768494668272,-1536,43,9853,15882,-35430,7330,0,0,0,341,442,258,442,286,435,588,499,408,508,528,363,0
1,1768494668288,-1526,43,9849,14660,-34208,7330,0,0,0,344,443,258,442,283,434,587,496,405,508,527,362,0
1,1768494668304,-1531,43,9853,13439,-32986,7330,0,0,0,344,441,257,443,284,435,586,497,404,505,524,359,0
1,1768494668320,-1531,43,9849,12217,-32986,7330,0,0,0,343,440,255,445,286,437,589,500,407,504,525,358,0
1,1768494668336,-1531,43,9844,12217,-35430,7330,0,0,0,343,441,258,444,286,437,590,499,407,505,527,360,0
1,1768494668352,-1531,43,9849,12217,-36651,7330,0,0,0,345,441,261,442,284,435,587,496,404,505,527,358,0
1,1768494668368,-1531,43,9849,12217,-35430,7330,0,0,0,345,443,260,443,284,436,592,501,411,505,527,358,0
1,1768494668384,-1536,52,9858,12217,-35430,6108,0,0,0,342,439,257,443,284,437,589,499,407,505,528,360,0
1,1768494668400,-1531,47,9849,12217,-35430,6108,0,0,0,340,437,252,443,284,434,592,504,410,506,528,361,0
1,1768494668416,-1531,47,9849,12217,-35430,7330,0,0,0,342,437,257,443,284,436,592,504,411,508,531,364,0
1,1768494668432,-1536,52,9853,12217,-36651,7330,0,0,0,344,437,260,442,282,436,592,504,412,505,528,361,0
1,1768494668448,-1536,57,9853,12217,-36651,7330,0,0,0,345,437,256,414,359,423,581,505,412,505,528,360,0
1,1768494668464,-1536,57,9858,12217,-36651,7330,0,0,0,346,437,256,438,303,433,589,505,410,506,529,361,0
1,1768494668480,-1531,43,9858,12217,-35430,7330,0,0,0,347,436,258,446,282,438,591,503,411,508,530,361,0
1,1768494668496,-1531,43,9853,13439,-34208,7330,0,0,0,342,434,256,444,282,438,590,503,412,508,531,360,0
1,1768494668512,-1536,47,9849,13439,-34208,7330,0,0,0,340,434,255,443,282,437,592,504,413,508,530,360,0
1,1768494668528,-1536,52,9849,12217,-35430,7330,0,0,0,342,435,258,443,282,437,592,501,410,510,531,361,0
1,1768494668544,-1541,57,9858,12217,-35430,6108,0,0,0,342,435,261,442,281,437,590,499,407,516,528,362,0
1,1768494668560,-1545,52,9863,12217,-35430,6108,0,0,0,343,436,263,441,281,437,593,504,412,518,521,360,0
1,1768494668576,-1545,52,9853,12217,-36651,7330,0,0,0,341,435,257,441,281,440,595,506,411,507,527,356,0
1,1768494668592,-1541,52,9839,12217,-36651,7330,0,0,0,345,436,260,441,278,440,593,502,408,506,527,356,0
1,1768494668608,-1536,57,9839,12217,-35430,7330,0,0,0,345,438,260,444,282,442,589,503,407,508,528,358,0
1,1768494668624,-1541,57,9858,13439,-35430,7330,0,0,0,345,435,258,441,278,439,591,505,410,507,528,357,0
1,1768494668640,-1545,57,9858,13439,-35430,7330,0,0,0,345,434,258,442,281,440,592,504,411,506,528,357,0
1,1768494668656,-1545,62,9853,14660,-35430,7330,0,0,0,343,434,257,442,281,439,595,507,412,506,527,356,0
1,1768494668672,-1545,57,9844,15882,-34208,7330,0,0,0,346,434,257,443,280,441,595,506,411,506,528,356,0
1,1768494668688,-1541,52,9844,14660,-34208,7330,0,0,0,346,435,257,442,281,441,594,505,409,507,530,357,0
1,1768494668704,-1536,47,9853,13439,-36651,7330,0,0,0,346,436,258,443,283,441,595,504,409,507,531,357,0
1,1768494668720,-1536,47,9853,12217,-36651,7330,0,0,0,343,434,257,444,283,443,595,503,408,507,532,358,0
1,1768494668736,-1536,52,9853,12217,-35430,7330,0,0,0,342,433,255,444,282,443,594,503,408,506,531,356,0
1,1768494668752,-1545,52,9853,13439,-35430,7330,0,0,0,344,434,257,444,293,443,593,504,410,505,530,353,0
1,1768494668768,-1550,52,9853,13439,-35430,7330,0,0,0,344,434,255,442,305,443,589,505,411,507,532,355,0
1,1768494668784,-1555,52,9853,12217,-35430,7330,0,0,0,344,432,255,445,283,444,591,501,407,507,531,353,0
1,1768494668800,-1545,57,9853,12217,-35430,7330,0,0,0,349,435,264,439,278,442,592,504,410,506,531,353,0
1,1768494668816,-1541,57,9849,10995,-36651,7330,0,0,0,349,435,260,439,278,442,592,504,408,505,531,353,0
1,1768494668832,-1541,57,9853,9773,-36651,7330,0,0,0,347,436,259,409,362,427,586,511,415,511,538,358,0
1,1768494668848,-1541,57,9858,9773,-36651,7330,0,0,0,343,436,256,438,306,446,588,505,409,506,533,352,0
1,1768494668864,-1541,62,9853,8552,-36651,6108,0,0,0,347,438,255,445,284,447,590,506,408,515,525,351,0
1,1768494668880,-1541,62,9853,8552,-36651,6108,0,0,0,345,437,252,420,347,432,581,508,408,513,531,353,0
1,1768494668896,-1545,62,9853,8552,-37873,7330,0,0,0,347,439,253,429,329,438,583,507,407,507,533,352,0
1,1768494668912,-1550,62,9858,10995,-37873,7330,0,0,0,350,440,253,445,286,446,589,507,407,507,532,350,0
1,1768494668928,-1545,62,9853,12217,-36651,7330,0,0,0,349,438,251,444,285,446,588,505,407,508,533,349,0
1,1768494668944,-1545,67,9844,12217,-35430,7330,0,0,0,349,439,252,446,287,448,585,504,406,509,534,350,0
1,1768494668960,-1545,62,9844,10995,-35430,7330,0,0,0,350,439,254,445,285,448,588,506,406,511,537,354,0
1,1768494668976,-1550,62,9853,10995,-36651,7330,0,0,0,350,437,252,445,283,447,591,508,408,509,535,352,0
1,1768494668992,-1550,71,9853,12217,-36651,7330,0,0,0,351,442,257,444,286,447,592,510,410,511,538,354,0
1,1768494669008,-1550,76,9853,13439,-36651,7330,0,0,0,351,439,253,447,286,450,590,510,410,511,538,352,0
1,1768494669024,-1550,67,9858,13439,-36651,7330,0,0,0,351,439,254,447,286,450,588,507,407,511,537,352,0
1,1768494669040,-1555,67,9858,13439,-35430,7330,0,0,0,350,439,255,447,285,450,589,507,406,509,536,352,0
1,1768494669056,-1560,67,9853,14660,-35430,7330,0,0,0,350,439,255,445,281,448,593,509,411,506,532,348,0
1,1768494669072,-1555,71,9839,14660,-35430,7330,0,0,0,353,440,257,445,281,446,593,507,410,508,535,350,0
1,1768494669088,-1550,71,9839,14660,-35430,7330,0,0,0,353,439,256,443,280,445,593,506,407,510,536,351,0
1,1768494669104,-1550,76,9849,14660,-36651,7330,0,0,0,350,437,254,444,282,446,592,506,405,509,535,351,0
1,1768494669120,-1550,71,9853,15882,-36651,8552,0,0,0,351,437,254,446,284,447,592,506,405,509,536,351,0
1,1768494669136,-1560,67,9853,17104,-35430,7330,0,0,0,352,439,255,446,283,447,592,506,406,511,538,351,0
1,1768494669152,-1560,62,9839,15882,-35430,7330,0,0,0,352,439,256,445,281,446,591,507,408,511,538,351,0
1,1768494669168,-1555,62,9839,14660,-35430,7330,0,0,0,353,440,255,448,285,448,590,506,407,510,537,350,0
1,1768494669184,-1550,67,9844,14660,-35430,7330,0,0,0,352,439,254,448,285,448,588,503,404,507,533,346,0
1,1768494669200,-1550,71,9853,15882,-35430,7330,0,0,0,351,439,252,447,281,445,592,507,407,509,537,349,0
1,1768494669216,-1555,71,9853,17104,-34208,8552,0,0,0,352,442,256,443,282,444,592,506,407,508,535,347,0
1,1768494669232,-1545,71,9844,15882,-34208,8552,0,0,0,352,442,251,428,269,431,604,470,409,501,530,341,0
1,1768494669248,-1541,67,9844,15882,-35430,8552,0,0,0,352,441,254,444,286,443,593,505,408,507,536,348,0
1,1768494669264,-1545,67,9853,15882,-36651,8552,0,0,0,352,440,254,447,287,444,594,510,409,506,535,346,0
1,1768494669280,-1555,67,9853,17104,-35430,8552,0,0,0,353,439,252,446,289,444,592,507,407,508,537,346,0
1,1768494669296,-1560,71,9858,18325,-35430,8552,0,0,0,352,437,252,447,288,445,592,508,405,509,538,347,0
1,1768494669312,-1555,76,9849,19547,-34208,8552,0,0,0,351,435,252,447,285,445,592,507,405,511,539,349,0
1,1768494669328,-1545,76,9844,19547,-34208,8552,0,0,0,351,436,252,446,282,444,591,508,406,509,538,347,0
1,1768494669344,-1541,67,9839,18325,-32986,7330,0,0,0,352,438,252,445,283,443,591,509,406,508,537,347,0
1,1768494669360,-1541,67,9844,17104,-32986,7330,0,0,0,354,438,251,445,284,443,592,508,405,511,540,351,0
1,1768494669376,-1550,67,9853,17104,-34208,8552,0,0,0,355,437,252,446,282,444,592,507,405,510,538,349,0
1,1768494669392,-1545,67,9853,19547,-32986,8552,0,0,0,353,441,256,446,285,445,594,506,405,508,536,346,0
1,1768494669408,-1545,67,9853,21991,-31764,8552,0,0,0,348,441,255,446,287,447,590,506,405,508,537,346,0
1,1768494669424,-1541,71,9853,21991,-31764,8552,0,0,0,347,441,253,446,290,445,594,511,408,511,539,350,0
1,1768494669440,-1541,71,9849,19547,-32986,8552,0,0,0,347,441,253,445,290,445,595,512,411,508,537,345,0
1,1768494669456,-1545,71,9853,17104,-32986,8552,0,0,0,344,440,251,446,292,447,593,509,406,508,537,346,0
1,1768494669472,-1541,71,9853,17104,-34208,8552,0,0,0,345,439,252,446,290,446,593,509,406,511,539,349,0
1,1768494669488,-1541,76,9849,19547,-32986,8552,0,0,0,346,439,251,446,287,446,595,510,408,508,536,347,0
1,1768494669504,-1541,67,9844,21991,-32986,8552,0,0,0,346,439,252,444,288,444,592,508,405,507,535,347,0
1,1768494669520,-1541,57,9844,18325,-32986,8552,0,0,0,345,437,251,444,289,446,591,506,405,509,536,348,0
1,1768494669536,-1550,57,9844,15882,-34208,8552,0,0,0,345,436,251,446,290,447,592,506,406,527,525,350,0
1,1768494669552,-1545,62,9844,13439,-34208,7330,0,0,0,347,437,251,446,291,446,594,508,406,534,521,350,0
1,1768494669568,-1545,67,9844,12217,-34208,7330,0,0,0,351,437,251,446,288,445,593,510,405,510,538,347,0
1,1768494669584,-1541,67,9853,10995,-35430,7330,0,0,0,353,436,250,448,288,445,592,510,405,511,538,347,0
1,1768494669600,-1541,67,9853,9773,-35430,7330,0,0,0,345,435,245,447,292,445,593,511,407,516,543,352,0
1,1768494669616,-1541,62,9849,7330,-35430,6108,0,0,0,345,435,244,445,292,439,590,509,406,515,543,338,0
1,1768494669632,-1536,57,9844,0,-35430,4886,0,0,0,376,427,242,445,288,435,590,508,407,512,536,322,0
1,1768494669648,-1536,62,9844,-4886,-36651,3665,0,0,0,340,432,244,438,293,432,580,508,407,512,538,322,0
1,1768494669664,-1536,76,9844,-13439,-39095,1221,0,0,0,340,437,238,436,294,424,575,507,403,510,535,314,0
1,1768494669680,-1545,81,9849,-14660,-40317,1221,0,0,0,340,440,234,437,296,422,575,507,401,515,537,320,0
1,1768494669696,-1555,86,9853,-7330,-37873,1221,0,0,0,340,441,232,436,296,418,576,507,404,515,538,321,0
1,1768494669712,-1564,95,9858,0,-36651,2443,0,0,0,346,439,234,439,293,417,572,508,403,516,536,322,0
1,1768494669728,-1569,100,9863,8552,-35430,3665,0,0,0,351,437,236,442,293,419,569,510,402,519,535,327,0
1,1768494669744,-1555,105,9863,17104,-34208,7330,0,0,0,352,437,236,442,296,421,570,511,404,521,537,329,0
1,1768494669760,-1555,105,9849,20769,-32986,7330,0,0,0,355,437,237,442,296,421,571,511,405,520,537,329,0
1,1768494669776,-1555,105,9849,24434,-31764,8552,0,0,0,357,439,240,442,297,422,573,512,408,520,538,332,0
1,1768494669792,-1555,95,9849,30543,-30543,9773,0,0,0,353,439,246,442,298,427,568,509,407,519,536,332,0
1,1768494669808,-1550,90,9849,39095,-29321,10995,0,0,0,339,441,245,442,301,430,566,509,407,521,538,334,0
1,1768494669824,-1550,81,9844,43982,-29321,12217,0,0,0,339,441,240,440,296,434,570,512,411,519,536,333,0
1,1768494669840,-1550,76,9844,43982,-29321,13439,0,0,0,342,443,242,440,296,437,573,516,414,518,534,328,0
1,1768494669856,-1545,67,9844,42760,-29321,12217,0,0,0,341,439,242,443,296,441,573,513,411,516,535,323,0
1,1768494669872,-1545,67,9853,41538,-29321,12217,0,0,0,341,439,241,443,297,442,574,514,414,519,537,326,0
1,1768494669888,-1545,67,9849,37873,-29321,12217,0,0,0,341,439,241,442,296,442,574,511,416,520,537,323,0
1,1768494669904,-1541,52,9844,32986,-29321,12217,0,0,0,342,439,242,441,294,441,576,511,417,522,539,326,0
1,1768494669920,-1536,47,9844,29321,-31764,10995,0,0,0,342,441,243,440,294,440,575,509,414,523,540,329,0
1,1768494669936,-1536,47,9849,26878,-32986,9773,0,0,0,342,442,244,438,308,441,571,508,413,521,537,328,0
1,1768494669952,-1536,57,9853,24434,-32986,8552,0,0,0,344,443,244,438,310,443,571,508,414,519,535,326,0
1,1768494669968,-1541,62,9839,20769,-32986,8552,0,0,0,344,443,244,437,307,441,574,509,416,522,537,329,0
1,1768494669984,-1545,67,9844,19547,-34208,8552,0,0,0,343,442,243,435,320,441,573,511,419,523,539,331,0
1,1768494670000,-1531,57,9844,19547,-32986,8552,0,0,0,346,443,246,442,295,444,575,506,415,523,540,333,0
1,1768494670016,-1531,52,9853,19547,-32986,8552,0,0,0,345,442,247,442,296,445,576,507,416,522,539,332,0
1,1768494670032,-1531,52,9853,15882,-32986,7330,0,0,0,345,441,246,442,297,445,576,508,414,522,538,332,0
1,1768494670048,-1531,47,9849,12217,-34208,7330,0,0,0,343,441,243,441,296,444,577,508,414,527,542,334,0
1,1768494670064,-1531,52,9849,9773,-35430,7330,0,0,0,343,440,244,441,295,444,578,509,416,524,542,332,0
1,1768494670080,-1531,52,9849,9773,-35430,6108,0,0,0,344,439,242,441,296,445,578,509,415,522,541,330,0
1,1768494670096,-1531,57,9853,10995,-35430,6108,0,0,0,345,441,245,445,298,447,577,509,416,520,538,330,0
1,1768494670112,-1531,47,9853,15882,-34208,7330,0,0,0,344,442,246,443,297,446,579,510,417,522,541,332,0
1,1768494670128,-1531,47,9858,17104,-32986,8552,0,0,0,345,443,247,441,298,444,576,508,415,523,543,334,0
1,1768494670144,-1536,52,9844,18325,-32986,8552,0,0,0,345,442,246,442,299,445,574,507,414,523,542,333,0
1,1768494670160,-1545,52,9844,18325,-31764,7330,0,0,0,344,441,245,442,298,445,575,508,414,522,540,332,0
1,1768494670176,-1550,57,9863,19547,-32986,7330,0,0,0,345,443,246,439,295,444,575,507,415,521,540,333,0
1,1768494670192,-1541,57,9863,21991,-31764,7330,0,0,0,344,442,246,441,299,446,576,507,417,520,539,336,0
1,1768494670208,-1541,57,9863,24434,-30543,8552,0,0,0,343,442,251,441,299,450,576,506,419,518,539,337,0
1,1768494670224,-1531,47,9858,28099,-29321,9773,0,0,0,343,443,272,438,296,454,579,509,428,518,539,342,0
1,1768494670240,-1531,47,9858,31764,-29321,10995,0,0,0,340,441,272,440,298,461,576,508,429,519,541,349,0
1,1768494670256,-1541,62,9863,37873,-28099,10995,0,0,0,338,441,249,439,298,451,578,508,424,511,533,345,0
1,1768494670272,-1541,52,9863,46425,-24434,12217,0,0,0,343,441,246,437,297,444,578,503,419,514,533,342,0
1,1768494670288,-1531,38,9863,51312,-24434,13439,0,0,0,340,442,243,437,293,440,581,503,419,514,533,350,0
1,1768494670304,-1526,23,9849,47647,-24434,14660,0,0,0,339,443,244,440,300,443,582,499,417,511,531,359,0
1,1768494670320,-1526,23,9844,42760,-26878,13439,0,0,0,343,443,249,439,299,446,583,495,419,511,531,363,0
1,1768494670336,-1521,28,9844,36651,-29321,12217,0,0,0,345,444,251,438,297,448,584,494,421,512,535,368,0
1,1768494670352,-1512,23,9844,26878,-30543,9773,0,0,0,346,445,251,440,298,450,582,495,421,512,538,371,0
1,1768494670368,-1512,14,9849,17104,-32986,7330,0,0,0,347,446,253,442,301,453,581,497,422,522,524,371,0
1,1768494670384,-1517,14,9853,12217,-32986,6108,0,0,0,347,447,255,440,301,452,582,499,423,533,509,371,0
1,1768494670400,-1521,14,9853,7330,-34208,6108,0,0,0,346,446,254,438,296,449,581,498,417,509,528,368,0
1,1768494670416,-1521,19,9853,3665,-35430,4886,0,0,0,343,442,249,438,299,448,584,504,421,512,531,371,0
1,1768494670432,-1521,28,9858,3665,-36651,4886,0,0,0,347,444,249,438,315,450,581,506,422,508,527,365,0
1,1768494670448,-1526,38,9868,4886,-36651,4886,0,0,0,348,444,251,441,299,452,588,506,422,506,526,363,0
1,1768494670464,-1526,43,9868,9773,-35430,6108,0,0,0,348,445,253,437,295,448,588,505,421,511,531,369,0
1,1768494670480,-1526,38,9863,10995,-35430,7330,0,0,0,348,444,251,440,300,449,587,505,418,512,532,370,0
1,1768494670496,-1526,33,9858,10995,-35430,7330,0,0,0,351,447,252,441,301,450,589,507,421,508,531,368,0
1,1768494670512,-1526,28,9849,7330,-35430,7330,0,0,0,350,444,251,441,299,451,590,509,422,509,531,369,0
1,1768494670528,-1526,28,9844,6108,-35430,6108,0,0,0,348,443,249,439,296,449,588,509,419,512,531,371,0
1,1768494670544,-1521,33,9844,4886,-35430,6108,0,0,0,345,443,248,438,295,447,588,510,418,513,533,371,0
1,1768494670560,-1521,38,9853,2443,-36651,6108,0,0,0,343,442,248,439,297,447,591,513,422,513,536,370,0
1,1768494670576,-1531,47,9858,1221,-37873,6108,0,0,0,343,441,249,441,297,449,592,514,422,514,536,372,0
1,1768494670592,-1531,47,9853,0,-37873,6108,0,0,0,343,443,252,443,299,451,590,511,419,513,536,372,0
1,1768494670608,-1531,52,9853,1221,-39095,6108,0,0,0,343,444,250,443,296,448,591,508,421,513,536,369,0
1,1768494670624,-1536,52,9849,4886,-37873,6108,0,0,0,345,444,251,444,296,450,587,502,416,512,536,368,0
1,1768494670640,-1526,57,9849,6108,-37873,6108,0,0,0,338,441,243,442,299,449,585,502,417,514,536,368,0
1,1768494670656,-1526,57,9853,7330,-37873,6108,0,0,0,339,442,249,439,295,449,582,504,418,515,537,371,0
1,1768494670672,-1531,52,9858,10995,-37873,6108,0,0,0,341,443,254,439,290,449,587,508,424,515,536,371,0
1,1768494670688,-1536,52,9849,14660,-36651,7330,0,0,0,344,446,261,439,293,452,586,508,424,517,538,372,0
1,1768494670704,-1531,47,9844,14660,-35430,7330,0,0,0,343,444,257,441,297,453,585,506,421,518,539,375,0
1,1768494670720,-1531,47,9844,12217,-35430,7330,0,0,0,345,443,254,442,297,452,586,508,423,517,538,371,0
1,1768494670736,-1541,52,9853,10995,-35430,7330,0,0,0,345,441,254,439,293,450,585,508,423,516,537,369,0
1,1768494670752,-1531,47,9844,12217,-35430,7330,0,0,0,346,439,252,437,290,450,584,509,422,514,535,370,0
1,1768494670768,-1526,47,9844,13439,-35430,7330,0,0,0,348,439,254,438,290,450,586,512,421,511,533,369,0
1,1768494670784,-1521,47,9844,10995,-37873,6108,0,0,0,347,439,257,438,293,450,588,512,422,511,535,368,0
1,1768494670800,-1521,52,9849,6108,-39095,4886,0,0,0,345,434,254,440,293,450,588,510,426,513,538,366,0
1,1768494670816,-1531,57,9849,4886,-39095,4886,0,0,0,342,437,249,440,294,449,584,513,427,513,535,366,0
1,1768494670832,-1541,62,9853,4886,-37873,3665,0,0,0,342,438,249,437,293,447,588,521,427,517,537,369,0
1,1768494670848,-1541,67,9853,4886,-36651,3665,0,0,0,348,435,251,437,291,445,586,511,419,510,535,359,0
1,1768494670864,-1526,57,9849,0,-36651,2443,0,0,0,339,430,236,437,289,443,580,511,411,516,542,354,0
1,1768494670880,-1521,57,9839,-7330,-36651,0,0,0,0,338,424,238,435,288,437,582,512,411,514,536,345,0
1,1768494670896,-1521,57,9839,-17104,-40317,0,0,0,0,331,429,275,431,291,450,568,516,422,519,536,358,0
1,1768494670912,-1531,71,9839,-25656,-42760,-1221,0,0,0,333,435,245,430,294,426,573,519,405,518,538,343,0
1,1768494670928,-1536,86,9849,-29321,-43982,-2443,0,0,0,336,433,228,433,291,409,575,520,393,518,534,327,0
1,1768494670944,-1555,114,9868,-18325,-41538,0,0,0,0,338,433,231,437,291,407,572,520,391,522,533,325,0
1,1768494670960,-1584,138,9887,2443,-34208,1221,0,0,0,339,430,229,439,292,406,567,521,388,524,533,321,0
1,1768494670976,-1584,134,9897,25656,-21991,7330,0,0,0,346,427,237,434,287,397,568,518,378,520,534,306,0
1,1768494670992,-1555,95,9901,37873,-13439,10995,0,0,0,352,423,247,431,281,397,571,514,369,517,536,289,0
1,1768494671008,-1541,86,9930,47647,-12217,13439,0,0,0,337,405,228,436,279,410,558,515,372,518,528,285,0
1,1768494671024,-1550,119,9983,89186,-8552,19547,0,0,0,345,400,244,427,273,386,553,498,369,509,525,283,0
1,1768494671040,-1564,162,10007,164933,6108,28099,0,0,0,326,401,222,421,286,380,526,452,389,498,528,277,0
1,1768494671056,-1550,143,9925,229685,35430,41538,0,0,0,330,406,239,431,282,391,535,500,368,490,508,280,0
1,1768494671072,-1478,28,9820,234572,64751,53756,0,0,0,330,402,221,436,278,395,535,497,358,496,516,287,0
1,1768494671088,-1464,-19,9906,212581,94073,61086,0,0,0,334,400,219,441,268,405,541,492,349,488,521,288,0
1,1768494671104,-1440,33,9858,232128,139277,68416,0,0,0,339,401,235,432,250,423,553,485,350,483,527,299,0
1,1768494671120,-1330,-43,9490,206472,172263,68416,0,0,0,364,396,250,420,233,418,557,476,353,483,529,323,0
1,1768494671136,-1229,-224,9413,92851,147829,50090,0,0,0,364,407,251,400,254,422,552,472,371,491,533,335,0
1,1768494671152,-1220,-119,9815,35430,85521,30543,0,0,0,372,424,260,406,267,434,564,482,366,509,528,345,0
1,1768494671168,-1325,9,9906,57421,64751,28099,0,0,0,384,432,281,417,274,457,574,489,366,528,523,367,0
1,1768494671184,-1373,-23,9916,56199,106290,40317,0,0,0,396,447,306,420,284,464,581,491,373,539,524,392,0
1,1768494671200,-1373,-4,10083,79412,152716,57421,0,0,0,415,473,353,421,288,451,594,491,369,539,524,414,0
1,1768494671216,-1320,-9,10083,177150,205250,83077,0,0,0,428,494,419,427,299,459,602,485,376,553,525,437,0
1,1768494671232,-1115,-172,9810,208915,216246,91629,0,0,0,448,529,426,428,336,454,616,466,386,631,530,455,0
1,1768494671248,-894,-378,9576,79412,140499,57421,0,0,0,471,539,502,413,330,474,611,457,403,639,524,459,0
1,1768494671264,-1134,-215,10026,-53756,48869,18325,0,0,0,476,557,448,408,394,484,530,444,428,641,532,482,0
1,1768494671280,-1430,28,10547,9773,25656,39095,0,0,0,482,585,419,438,419,498,606,462,393,618,515,498,0
1,1768494671296,-1474,114,10782,267558,63529,107512,0,0,0,503,568,311,433,441,494,585,443,381,534,482,538,0
1,1768494671312,-1335,14,11131,605978,113620,161268,0,0,0,496,547,259,457,452,500,550,371,398,449,417,548,0
1,1768494671328,-1320,-100,12060,960280,202807,191811,0,0,0,503,543,254,449,418,492,490,306,396,390,347,554,0
1,1768494671344,-1148,-138,15113,1525941,316428,206472,0,0,0,497,512,238,417,357,484,429,260,389,365,307,542,0
1,1768494671360,-1158,129,19047,2377487,131946,204028,0,0,0,462,445,234,382,300,467,384,196,384,308,232,507,0
1,1768494671376,-2182,784,21526,3661526,-263893,282219,0,0,0,416,385,223,359,247,432,367,157,374,248,162,433,0
1,1768494671392,-3153,1057,21636,4834387,-470366,507018,0,0,0,375,334,202,341,199,382,379,175,349,227,165,325,0
1,1768494671408,-2790,4,19894,5147150,-505796,728151,0,0,0,330,283,191,319,165,329,409,197,321,223,187,221,0
1,1768494671424,-2407,-5580,15635,4206418,-928515,720820,0,0,0,284,269,185,303,149,307,420,171,318,223,150,181,0
1,1768494671440,837,-14367,7140,2812423,-1215621,605978,0,0,0,274,273,195,305,151,314,418,170,317,241,150,179,0
1,1768494671456,5216,-16243,-488,939510,-434936,-111177,0,0,0,273,275,177,322,155,306,418,173,307,250,151,164,0
1,1768494671472,4039,-13921,-1560,-211359,553443,-891863,0,0,0,246,275,213,310,163,333,414,178,316,224,168,171,0
1,1768494671488,28,-7686,626,307876,735481,-919963,0,0,0,239,283,206,318,167,326,413,188,308,228,198,160,0
1,1768494671504,-311,2914,971,679282,439822,-702495,0,0,0,223,289,169,315,190,309,398,214,294,212,218,137,0
1,1768494671520,-114,11887,459,-113620,364075,-913854,0,0,0,216,283,161,313,188,310,392,207,301,211,212,131,0
1,1768494671536,-717,12921,277,-1324355,355523,-1177748,0,0,0,218,280,172,321,179,326,395,198,311,214,204,139,0
1,1768494671552,-871,9614,291,-2095267,280998,-1082453,0,0,0,214,280,175,324,179,334,393,193,312,213,203,141,0
1,1768494671568,-914,1957,296,-2162462,184481,-568104,0,0,0,208,288,172,318,189,332,386,207,310,212,216,141,0
1,1768494671584,-832,-3220,670,-1361007,56199,34208,0,0,0,204,292,163,330,195,331,381,204,302,224,228,137,0
1,1768494671600,-153,-4120,1139,-811229,45204,348193,0,0,0,206,293,157,343,202,332,380,211,297,220,257,130,0
1,1768494671616,38,-4431,875,-835663,222354,263893,0,0,0,217,296,159,336,207,333,384,232,301,207,268,129,0
1,1768494671632,-421,-6738,358,-624304,288328,228463,0,0,0,221,296,159,339,191,332,394,200,300,231,219,132,0
1,1768494671648,-38,-7461,478,36651,166155,382401,0,0,0,243,319,165,343,203,341,386,202,315,249,228,186,0
1,1768494671664,1033,-4852,1009,552222,157603,249233,0,0,0,386,400,188,414,282,453,330,205,393,297,249,481,0
1,1768494671680,-540,-4819,7954,-62308,149051,-313984,0,0,0,382,491,184,459,361,485,397,255,355,329,284,540,0
1,1768494671696,-3790,-5862,21694,-3696956,-94073,-1143539,0,0,0,399,505,333,438,283,477,582,388,377,565,503,443,0
1,1768494671712,-6484,1718,29112,-7619932,-293215,-1312138,0,0,0,400,482,498,398,338,483,655,607,380,690,682,377,0
1,1768494671728,-4991,4910,33055,-7462329,-570548,-919963,0,0,0,398,509,462,403,328,500,623,542,400,666,666,459,0
1,1768494671744,-3862,5183,25144,-2642603,-273667,-298102,0,0,0,415,533,354,424,384,511,593,479,391,577,589,517,0
1,1768494671760,-3287,2857,14194,1359786,183259,256563,0,0,0,433,555,340,433,399,528,597,468,388,552,560,524,0
1,1768494671776,-2086,-985,7264,2428800,671951,552222,0,0,0,446,572,370,449,399,535,607,467,385,555,554,524,0
1,1768494671792,-38,-2287,6412,918741,643851,415388,0,0,0,467,579,387,460,404,537,609,469,385,559,552,529,0
1,1768494671808,191,-871,9030,-166155,97738,111177,0,0,0,475,576,387,460,411,538,608,475,389,565,554,529,0
1,1768494671824,-1000,263,10978,-277332,-233350,-64751,0,0,0,463,572,384,460,424,531,608,478,389,567,553,520,0
1,1768494671840,-1708,9,10610,69638,-86742,-20769,0,0,0,473,572,365,448,428,513,604,482,386,565,551,511,0
1,1768494671856,-1177,-454,9791,113620,58643,34208,0,0,0,477,560,304,436,411,496,590,482,378,565,538,506,0
1,1768494671872,-1048,-354,10021,-7330,6108,9773,0,0,0,447,537,283,420,406,496,574,477,368,573,501,487,0
1,1768494671888,-1234,-220,10246,7330,6108,10995,0,0,0,459,521,256,428,373,497,563,437,364,539,492,477,0
1,1768494671904,-1014,-301,9925,56199,13439,20769,0,0,0,421,512,238,421,351,477,552,391,362,518,460,454,0
1,1768494671920,-842,-382,9705,39095,-58643,3665,0,0,0,398,486,225,413,332,474,538,391,368,474,454,436,0
1,1768494671936,-952,-373,9786,0,-158824,-20769,0,0,0,383,468,225,404,321,463,528,387,362,466,454,409,0
1,1768494671952,-1129,-344,9901,0,-196698,-26878,0,0,0,360,456,221,396,318,450,521,379,363,451,459,376,0
1,1768494671968,-1191,-344,9916,15882,-194255,-23212,0,0,0,351,447,219,395,295,432,515,380,358,458,446,350,0
1,1768494671984,-1201,-325,9911,4886,-166155,-23212,0,0,0,340,442,220,391,290,426,504,371,354,459,443,333,0
1,1768494672000,-1277,-282,9968,0,-117286,-21991,0,0,0,326,439,219,385,287,435,498,352,352,442,441,327,0
1,1768494672016,-1330,-248,9978,36651,-52534,-6108,0,0,0,323,438,216,383,277,439,496,338,356,425,425,332,0
1,1768494672032,-1306,-244,9959,84299,1221,13439,0,0,0,327,439,218,384,289,433,491,329,362,428,417,339,0
1,1768494672048,-1177,-311,9853,111177,29321,28099,0,0,0,328,439,217,387,308,425,492,319,354,453,413,339,0
1,1768494672064,-1005,-392,9672,83077,1221,21991,0,0,0,339,442,212,401,286,422,500,322,355,450,409,338,0
1,1768494672080,-894,-459,9528,-3665,-100181,-1221,0,0,0,347,439,219,404,267,427,495,317,356,454,406,337,0
1,1768494672096,-995,-425,9648,-94073,-228463,-31764,0,0,0,348,439,234,407,272,441,502,334,361,466,407,341,0
1,1768494672112,-1234,-335,9906,-139277,-298102,-48869,0,0,0,352,453,224,389,278,435,510,323,355,468,408,343,0
1,1768494672128,-1478,-248,10102,-123394,-256563,-42760,0,0,0,355,452,223,390,283,439,512,335,359,462,417,346,0
1,1768494672144,-1507,-215,10102,-70860,-146607,-15882,0,0,0,355,452,225,390,311,444,469,324,376,461,425,358,0
1,1768494672160,-1430,-224,10054,-14660,-64751,4886,0,0,0,349,453,226,389,300,448,497,335,373,457,425,364,0
1,1768494672176,-1349,-258,9978,25656,-34208,17104,0,0,0,346,454,229,390,290,450,522,345,368,457,426,364,0
1,1768494672192,-1296,-296,9882,34208,-29321,17104,0,0,0,345,453,231,391,291,450,523,347,369,464,428,364,0
1,1768494672208,-1258,-330,9801,9773,-46425,9773,0,0,0,342,452,230,394,294,448,523,348,366,467,428,363,0
1,1768494672224,-1244,-330,9791,-35430,-80634,-3665,0,0,0,339,451,228,396,290,444,520,351,361,465,428,360,0
1,1768494672240,-1268,-306,9839,-80634,-116064,-19547,0,0,0,342,447,227,394,269,441,520,363,362,472,429,355,0
1,1768494672256,-1306,-277,9873,-107512,-128281,-28099,0,0,0,343,451,234,401,266,442,522,365,364,465,433,348,0
1,1768494672272,-1335,-244,9868,-130725,-135612,-35430,0,0,0,326,449,243,380,281,437,527,359,354,460,441,342,0
1,1768494672288,-1359,-201,9849,-150272,-140499,-41538,0,0,0,323,447,233,377,278,429,533,364,353,471,455,336,0
1,1768494672304,-1387,-157,9844,-160046,-135612,-46425,0,0,0,315,453,221,377,295,432,534,423,352,487,451,347,0
1,1768494672320,-1407,-114,9853,-155159,-129503,-47647,0,0,0,326,449,230,393,284,436,537,399,355,503,477,355,0
1,1768494672336,-1411,-90,9839,-147829,-125838,-47647,0,0,0,331,443,239,393,262,439,550,403,349,500,490,370,0
1,1768494672352,-1421,-90,9786,-158824,-123394,-52534,0,0,0,343,444,251,396,268,437,562,438,347,519,499,372,0
1,1768494672368,-1440,-86,9729,-193033,-123394,-61086,0,0,0,345,451,258,389,273,434,578,464,358,536,505,375,0
1,1768494672384,-1464,-28,9772,-206472,-133168,-63529,0,0,0,344,450,256,402,271,441,590,493,362,537,519,385,0
1,1768494672400,-1536,19,9901,-191811,-144164,-61086,0,0,0,348,441,259,431,270,454,599,524,362,544,534,398,0
1,1768494672416,-1631,47,9978,-158824,-123394,-47647,0,0,0,356,435,272,444,274,463,605,531,370,559,546,410,0
1,1768494672432,-1684,86,9983,-120951,-95294,-32986,0,0,0,367,435,281,446,291,469,603,523,377,564,565,418,0
1,1768494672448,-1694,105,9973,-72082,-70860,-14660,0,0,0,377,436,284,446,308,469,614,527,376,580,557,430,0
1,1768494672464,-1665,100,9983,-28099,-57421,-1221,0,0,0,384,440,295,454,306,477,618,540,365,588,550,434,0
1,1768494672480,-1646,100,9978,3665,-56199,6108,0,0,0,384,440,301,448,303,487,618,547,370,584,548,437,0
1,1768494672496,-1636,100,9935,32986,-58643,10995,0,0,0,392,441,308,446,304,487,628,549,370,585,552,440,0
1,1768494672512,-1636,86,9882,59864,-57421,17104,0,0,0,392,434,326,448,279,487,635,549,382,582,552,434,0
1,1768494672528,-1641,52,9858,74525,-52534,21991,0,0,0,393,435,332,450,278,485,634,541,378,590,545,441,0
1,1768494672544,-1622,33,9863,80634,-51312,26878,0,0,0,388,437,343,451,280,493,631,542,387,577,554,453,0
1,1768494672560,-1603,28,9868,85521,-56199,30543,0,0,0,381,436,340,454,288,500,626,541,395,580,548,452,0
1,1768494672576,-1588,23,9849,83077,-59864,31764,0,0,0,374,439,336,455,293,504,618,536,403,575,543,460,0
1,1768494672592,-1593,9,9815,72082,-58643,29321,0,0,0,372,444,327,458,296,503,618,524,405,568,535,467,0
1,1768494672608,-1617,9,9815,65973,-50090,26878,0,0,0,375,448,326,462,294,505,619,505,407,564,525,468,0
1,1768494672624,-1617,14,9825,70860,-41538,26878,0,0,0,376,449,332,462,284,505,619,492,410,556,526,469,0
1,1768494672640,-1593,0,9825,73303,-39095,28099,0,0,0,372,446,337,463,279,503,624,489,411,552,529,473,0
1,1768494672656,-1584,-9,9815,64751,-37873,25656,0,0,0,377,443,338,469,286,507,627,487,410,554,515,476,0
1,1768494672672,-1598,-4,9815,45204,-31764,19547,0,0,0,397,437,333,471,281,500,624,491,410,554,507,479,0
1,1768494672688,-1612,0,9839,40317,-28099,19547,0,0,0,403,435,337,486,283,504,624,495,412,551,509,478,0
1,1768494672704,-1608,0,9849,43982,-25656,21991,0,0,0,384,442,332,483,283,496,625,472,403,553,517,487,0
1,1768494672720,-1598,-9,9853,45204,-24434,24434,0,0,0,387,447,339,486,290,507,623,485,408,558,512,481,0
1,1768494672736,-1603,-9,9844,45204,-19547,24434,0,0,0,393,447,344,489,290,513,620,472,413,556,507,473,0
1,1768494672752,-1617,-19,9844,47647,-13439,26878,0,0,0,393,450,356,490,287,516,621,461,413,548,493,482,0
1,1768494672768,-1622,-19,9868,61086,-4886,32986,0,0,0,391,449,331,485,294,516,619,437,408,532,497,493,0
1,1768494672784,-1617,-4,9911,89186,1221,40317,0,0,0,385,458,313,491,304,515,618,432,400,528,483,497,0
1,1768494672800,-1622,-4,9968,136833,9773,50090,0,0,0,398,450,296,489,312,504,619,422,401,529,470,506,0
1,1768494672816,-1622,-23,10011,195476,14660,63529,0,0,0,401,452,289,484,314,503,619,396,411,513,455,521,0
1,1768494672832,-1622,-57,10064,265115,21991,81855,0,0,0,398,466,284,476,322,519,614,365,418,473,426,533,0
1,1768494672848,-1636,-100,10141,356745,39095,106290,0,0,0,405,482,277,489,340,535,599,358,419,435,399,551,0
1,1768494672864,-1665,-143,10289,481361,78190,136833,0,0,0,411,500,261,513,358,542,581,357,422,451,376,565,0
1,1768494672880,-1679,-215,10581,665843,162490,180816,0,0,0,414,502,224,498,386,552,569,332,419,470,356,555,0
1,1768494672896,-1574,-358,11055,937067,265115,224798,0,0,0,414,510,225,495,418,556,561,326,419,389,367,574,0
1,1768494672912,-1387,-492,11768,1266934,329867,246789,0,0,0,401,517,197,500,435,550,531,324,414,362,345,584,0
1,1768494672928,-1407,-512,12797,1655444,315206,232128,0,0,0,395,510,199,526,467,552,483,321,408,336,320,588,0
1,1768494672944,-1713,-502,13333,2085493,262672,249233,0,0,0,432,518,189,496,465,552,478,301,429,363,303,599,0
1,1768494672960,-1684,-780,13328,2511877,274889,293215,0,0,0,445,534,193,497,474,543,433,299,428,335,297,592,0
1,1768494672976,-1459,-1009,13486,2922379,304210,318871,0,0,0,455,511,197,476,475,521,387,324,421,286,289,583,0
1,1768494672992,-1612,-1129,14108,3325550,346971,339641,0,0,0,476,507,214,446,468,529,349,293,420,265,282,576,0
1,1768494673008,-2435,-1311,15271,3821572,405614,431270,0,0,0,477,508,222,432,452,522,327,267,420,239,258,549,0
1,1768494673024,-3374,-1708,16984,4362799,480140,640186,0,0,0,470,486,207,438,429,495,316,230,399,232,213,506,0
1,1768494673040,-4642,-2426,18980,4996877,634078,943175,0,0,0,434,465,177,435,409,465,303,193,371,236,182,456,0
1,1768494673056,-5613,-3029,20119,5457470,780685,1246165,0,0,0,380,452,158,412,386,439,293,180,359,234,178,411,0
1,1768494673072,-5460,-3048,20870,5872858,917519,1552819,0,0,0,349,415,167,390,339,421,295,172,353,233,171,375,0
1,1768494673088,-4292,-2546,21473,6174625,1158200,1765400,0,0,0,299,376,168,359,281,393,293,195,331,198,180,307,0
1,1768494673104,-4690,-1885,21483,6203947,1502728,1846034,0,0,0,250,333,156,334,237,313,353,252,286,209,229,193,0
1,1768494673120,-6082,550,19487,5880188,1924225,1881464,0,0,0,260,257,145,310,164,264,384,217,256,237,226,127,0
1,1768494673136,-8265,6992,13357,5213123,2235766,1880243,0,0,0,257,253,140,339,159,271,409,188,244,263,234,112,0
1,1768494673152,-11921,13180,8523,4116009,1901012,1707979,0,0,0,250,259,151,323,163,281,381,204,270,256,252,127,0
1,1768494673168,-12778,17080,7791,1695761,488692,1161865,0,0,0,240,267,147,320,178,275,360,224,250,234,259,110,0
1,1768494673184,-7465,15008,8336,-1299921,-431270,216246,0,0,0,236,269,145,315,179,274,348,225,240,223,238,104,0
1,1768494673200,-5005,10662,7135,-3051882,-357967,-518013,0,0,0,240,270,161,297,174,271,339,227,242,210,242,103,0
1,1768494673216,-6470,7221,5474,-3375641,-416610,-593761,0,0,0,226,278,162,289,185,270,337,246,247,199,257,106,0
1,1768494673232,-6264,6211,5690,-3411071,-1049466,-327423,0,0,0,216,279,156,295,191,270,334,255,248,199,265,108,0
1,1768494673248,-2962,6456,7925,-3805690,-1621236,-230907,0,0,0,212,274,153,295,191,269,328,254,246,199,271,107,0
1,1768494673264,-741,6221,9868,-4371351,-1676214,-471587,0,0,0,194,278,150,279,198,269,327,263,247,192,276,106,0
1,1768494673280,-406,5259,11146,-4863709,-1598023,-836885,0,0,0,185,278,152,273,191,268,329,265,248,195,274,103,0
1,1768494673296,-296,4044,12309,-5072624,-1749518,-1000597,0,0,0,190,281,151,272,190,263,338,275,248,199,280,100,0
1,1768494673312,67,3302,13596,-5165476,-1883908,-935845,0,0,0,186,302,151,247,227,256,343,276,248,194,285,101,0
1,1768494673328,411,2727,15563,-5365840,-1958433,-667064,0,0,0,191,273,152,276,184,272,337,276,252,185,280,100,0
1,1768494673344,1048,1890,17707,-5607742,-2019520,-370184,0,0,0,194,281,152,277,184,270,334,272,249,190,280,103,0
1,1768494673360,1727,818,19305,-5747020,-2012190,-250454,0,0,0,192,278,151,281,185,273,331,265,249,193,268,104,0
1,1768494673376,1258,-71,20301,-5725029,-1907121,-458148,0,0,0,191,278,153,279,183,275,326,263,248,191,267,104,0
1,1768494673392,124,-555,21450,-5692042,-1821600,-818559,0,0,0,191,281,154,279,184,275,325,264,248,190,267,106,0
1,1768494673408,-938,-1028,23206,-5751907,-1766622,-1307251,0,0,0,192,284,152,282,185,277,332,263,251,190,259,105,0
1,1768494673424,-1909,-3216,25494,-5864306,-1678657,-2065946,0,0,0,192,285,152,285,186,278,332,261,254,192,255,104,0
1,1768494673440,-3871,-8040,26829,-5833763,-1535715,-2709798,0,0,0,198,285,151,293,188,282,331,260,254,199,261,102,0
1,1768494673456,-7341,-16779,25695,-5578421,-1458746,-2553416,0,0,0,208,287,148,303,188,284,338,260,256,205,269,98,0
1,1768494673472,-7623,-26810,21962,-5070181,-1696983,-1578475,0,0,0,211,293,153,298,189,285,342,264,265,207,275,100,0
1,1768494673488,2096,-33988,16353,-3854559,-1969429,-278554,0,0,0,207,294,154,297,192,289,336,270,277,202,285,105,0
1,1768494673504,11007,-37621,12318,-2265088,-1436755,408057,0,0,0,210,293,149,303,187,281,347,265,266,218,280,104,0
1,1768494673520,12323,-39080,10586,-678060,-348193,698829,0,0,0,194,299,149,287,202,280,330,276,263,213,302,97,0
1,1768494673536,9059,-34816,12208,747699,603534,1021366,0,0,0,193,264,132,289,190,257,404,435,232,341,413,83,0
1,1768494673552,6101,-16463,17142,2222327,1734857,951728,0,0,0,210,232,119,288,166,239,437,456,222,382,439,80,0
1,1768494673568,-148,8906,15482,4008497,2894279,248011,0,0,0,215,229,128,287,157,246,458,475,232,418,466,85,0
1,1768494673584,-1488,7049,14113,5767789,1842369,-344527,0,0,0,224,232,140,304,152,274,480,486,259,452,475,93,0
1,1768494673600,1316,-2378,18999,5754350,518013,-182037,0,0,0,229,246,140,310,152,276,502,503,263,480,485,94,0
1,1768494673616,272,-3613,19502,3962071,465479,493579,0,0,0,229,271,138,325,163,289,522,522,279,500,500,100,0
1,1768494673632,-3163,-866,14926,2285857,707381,585208,0,0,0,230,291,154,342,170,314,548,548,295,527,527,127,0
1,1768494673648,-3503,0,11481,1308473,591317,21991,0,0,0,236,307,175,349,195,336,575,575,301,557,557,180,0
1,1768494673664,-1517,-713,10897,445931,257785,-239459,0,0,0,247,328,185,363,234,367,586,586,328,573,573,245,0
1,1768494673680,-957,-368,10629,35430,114842,-128281,0,0,0,264,333,211,371,208,398,600,593,363,589,589,275,0
1,1768494673696,-1454,191,10160,8552,94073,-3665,0,0,0,295,329,244,368,201,423,618,587,376,608,608,284,0
1,1768494673712,-1703,325,9916,31764,61086,1221,0,0,0,325,342,239,382,210,397,620,602,361,610,609,292,0
1,1768494673728,-1617,258,9959,34208,14660,-17104,0,0,0,324,352,246,382,208,395,616,591,369,606,607,308,0
1,1768494673744,-1560,282,9992,54977,-17104,0,0,0,0,324,360,262,372,208,410,617,589,385,602,606,330,0
1,1768494673760,-1560,344,9973,106290,-42760,19547,0,0,0,329,383,263,372,217,401,610,570,382,582,591,322,0
1,1768494673776,-1569,344,9935,155159,-62308,24434,0,0,0,330,380,261,374,218,409,604,554,386,561,581,334,0
1,1768494673792,-1584,291,9877,200363,-81855,29321,0,0,0,324,391,257,378,248,405,603,533,385,539,575,336,0
1,1768494673808,-1608,229,9830,216246,-81855,35430,0,0,0,324,396,259,378,263,400,598,506,379,533,574,338,0
1,1768494673824,-1608,181,9806,208915,-72082,42760,0,0,0,320,404,245,382,275,405,590,499,389,528,561,344,0
1,1768494673840,-1598,162,9806,196698,-64751,48869,0,0,0,311,411,230,386,294,414,580,496,401,523,535,357,0
1,1768494673856,-1588,162,9806,190589,-62308,52534,0,0,0,304,405,229,384,295,425,578,478,397,518,505,362,0
1,1768494673872,-1588,167,9810,197920,-61086,57421,0,0,0,298,400,226,383,284,433,588,466,385,508,475,356,0
1,1768494673888,-1588,138,9825,215024,-57421,62308,0,0,0,301,402,222,386,288,440,587,467,381,500,462,361,0
1,1768494673904,-1569,86,9810,218689,-50090,59864,0,0,0,318,382,240,411,260,460,574,457,399,488,467,375,0
1,1768494673920,-1584,43,9806,212581,-40317,56199,0,0,0,345,385,240,407,270,458,577,461,400,482,443,397,0
1,1768494673936,-1631,43,9849,223576,-25656,61086,0,0,0,315,385,230,409,282,476,579,432,419,466,435,424,0
1,1768494673952,-1646,28,9920,265115,-17104,76969,0,0,0,316,406,223,407,319,474,581,405,408,445,393,456,0
1,1768494673968,-1608,-19,9944,323758,-26878,97738,0,0,0,328,399,214,412,350,479,589,425,395,434,363,475,0
1,1768494673984,-1579,-71,9954,375071,-45204,118507,0,0,0,344,402,215,426,363,494,590,379,416,416,336,490,0
1,1768494674000,-1631,-114,10035,428827,-57421,139277,0,0,0,351,409,216,452,375,504,598,340,440,392,321,517,0
1,1768494674016,-1751,-177,10217,536339,-53756,172263,0,0,0,363,406,247,458,382,516,599,318,444,359,317,531,0
1,1768494674032,-1885,-263,10763,788016,-54977,240680,0,0,0,383,418,238,466,375,528,605,309,456,337,317,546,0
1,1768494674048,-1880,-339,11734,1142317,-111177,322536,0,0,0,393,449,207,484,383,543,601,305,462,331,312,563,0
1,1768494674064,-1564,-445,12605,1584584,-146607,364075,0,0,0,399,469,195,495,407,558,560,294,465,325,296,574,0
1,1768494674080,-1292,-693,12940,2062281,-142942,318871,0,0,0,423,474,189,499,417,566,510,278,484,318,281,593,0
1,1768494674096,-1569,-827,13323,2483778,-184481,262672,0,0,0,448,481,201,503,425,587,493,277,486,313,283,607,0
1,1768494674112,-2182,-823,14295,2954144,-213802,276111,0,0,0,458,472,204,507,441,609,457,288,503,287,262,606,0
1,1768494674128,-3048,-827,15702,3623652,-184481,426383,0,0,0,471,488,226,507,433,593,429,271,487,272,241,612,0
1,1768494674144,-3618,-799,17200,4381125,-134390,654847,0,0,0,466,491,220,508,445,593,422,239,467,269,219,586,0
1,1768494674160,-4139,-933,19631,5313305,-78190,944397,0,0,0,429,459,213,493,415,577,358,207,448,233,188,526,0
1,1768494674176,-5422,-1890,23627,6394537,-53756,1232726,0,0,0,434,437,173,462,390,533,304,180,423,220,163,449,0
1,1768494674192,-7159,-3082,26585,7247305,-72082,1457524,0,0,0,423,419,171,432,355,487,299,153,406,222,138,410,0
1,1768494674208,-7346,-3484,28949,7943691,-139277,1744631,0,0,0,363,388,180,395,294,441,286,149,366,205,131,376,0
1,1768494674224,-5900,-1952,30777,8238128,228463,2036624,0,0,0,282,338,162,349,239,367,309,187,314,180,166,266,0
1,1768494674240,-7183,2392,30155,8062199,1088561,2234545,0,0,0,254,287,147,316,204,305,352,221,287,176,201,154,0
1,1768494674256,-10921,11165,24479,7463551,1737300,2393370,0,0,0,262,265,147,311,190,288,372,230,284,186,211,114,0
1,1768494674272,-13472,20435,14453,6216164,1505171,2370157,0,0,0,251,269,145,321,185,292,372,225,278,189,210,114,0
1,1768494674288,-11098,24886,9887,2663372,499687,1535715,0,0,0,251,269,146,327,174,288,372,210,269,191,196,112,0
1,1768494674304,-5814,22416,10102,-1953547,120951,167377,0,0,0,252,270,141,330,171,276,381,224,258,191,199,105,0
1,1768494674320,-5230,14032,9255,-4296826,795346,-714712,0,0,0,242,257,143,321,173,274,359,220,257,186,219,100,0
1,1768494674336,-8738,8241,6451,-4709770,861319,-630412,0,0,0,239,260,145,322,173,274,365,224,254,188,221,92,0
1,1768494674352,-9705,7154,5551,-4613254,-260228,141720,0,0,0,228,264,144,310,172,267,371,241,252,188,243,89,0
1,1768494674368,-4321,7427,8432,-5349957,-1296256,615752,0,0,0,221,265,141,302,173,266,354,244,245,196,248,90,0
1,1768494674384,-287,6743,11198,-6205169,-1336573,493579,0,0,0,217,262,141,297,176,265,346,268,245,200,266,90,0
1,1768494674400,-129,5025,12586,-6769608,-1012814,80634,0,0,0,211,257,142,296,181,268,345,262,245,208,274,91,0
1,1768494674416,-1373,3144,13280,-6861238,-1226617,-207694,0,0,0,212,252,140,298,179,269,347,263,246,214,283,90,0
1,1768494674432,-1220,2239,14591,-6746395,-1640784,-350636,0,0,0,212,252,143,298,179,272,351,275,252,225,291,91,0
1,1768494674448,-746,2182,16716,-6713408,-1794722,-488692,0,0,0,206,256,146,296,184,278,350,284,254,236,302,93,0
1,1768494674464,-880,1895,19449,-6797708,-1850921,-668286,0,0,0,201,258,144,296,185,281,344,277,249,237,311,92,0
1,1768494674480,-1191,1277,21933,-6923546,-1921782,-841772,0,0,0,200,260,142,299,184,281,343,257,243,237,305,90,0
1,1768494674496,-1612,378,25092,-6993185,-1997529,-1199739,0,0,0,200,261,141,303,183,279,346,249,243,235,289,89,0
1,1768494674512,-2321,-1057,28820,-6982189,-2054950,-1791056,0,0,0,202,261,145,304,181,279,349,252,246,234,281,93,0
1,1768494674528,-2187,-5039,32672,-6905220,-2098932,-2631607,0,0,0,201,266,147,302,181,283,351,252,253,232,281,91,0
1,1768494674544,-1541,-12763,34816,-6759834,-1909564,-3310889,0,0,0,209,269,142,308,183,277,362,262,256,228,294,92,0
1,1768494674560,-4757,-24642,32108,-6473949,-1287703,-3166725,0,0,0,201,276,144,310,185,277,364,263,256,232,294,85,0
1,1768494674576,-9466,-37937,22981,-5555208,-1235169,-1469741,0,0,0,195,280,140,308,195,285,360,271,260,229,304,89,0
1,1768494674592,-1210,-45020,14103,-3791029,-1976759,708603,0,0,0,196,279,140,311,195,287,364,267,257,233,304,91,0
1,1768494674608,15281,-45197,10988,-1690874,-1854586,1703092,0,0,0,195,279,143,305,193,287,361,272,260,230,299,93,0
1,1768494674624,16860,-43230,11950,177150,139277,983493,0,0,0,192,280,147,285,201,284,351,275,262,219,297,93,0
1,1768494674640,6255,-36783,13419,1673770,1309695,540004,0,0,0,190,272,140,292,201,270,373,351,246,272,357,88,0
1,1768494674656,-559,-21923,17334,2998126,1661553,469144,0,0,0,197,242,127,295,177,250,412,442,230,371,432,81,0
1,1768494674672,-2833,10921,21454,3830125,1849699,128281,0,0,0,215,208,122,277,148,240,445,470,230,440,463,79,0
1,1768494674688,-2005,18822,14950,4889365,1695761,-494800,0,0,0,231,211,130,293,136,253,487,492,235,483,495,88,0
1,1768494674704,995,1612,16745,6273586,978606,-546113,0,0,0,229,238,136,317,142,278,529,529,257,539,539,102,0
1,1768494674720,961,-6834,21694,5009094,847880,34208,0,0,0,234,257,152,329,155,295,547,546,277,549,550,107,0
1,1768494674736,-1780,-3402,18262,2587625,954171,262672,0,0,0,231,293,162,342,204,330,563,562,317,563,562,135,0
1,1768494674752,-2804,1143,11734,897971,667064,-106290,0,0,0,245,313,190,353,205,346,593,592,309,596,596,196,0
1,1768494674768,-1464,119,10356,398284,197920,-224798,0,0,0,279,337,215,361,225,357,604,600,302,613,613,262,0
1,1768494674784,-1110,-344,10356,155159,-7330,-95294,0,0,0,287,342,224,366,218,367,620,588,308,625,625,278,0
1,1768494674800,-1536,229,10284,79412,4886,28099,0,0,0,319,375,245,371,239,376,625,588,336,632,632,304,0
1,1768494674816,-1718,670,9964,122173,29321,15882,0,0,0,320,384,252,364,262,382,627,568,353,633,633,330,0
1,1768494674832,-1631,622,9873,205250,28099,12217,0,0,0,326,387,257,367,261,392,629,545,364,625,625,335,0
1,1768494674848,-1512,454,10011,246789,18325,35430,0,0,0,321,392,251,375,266,397,628,537,373,611,612,343,0
1,1768494674864,-1483,445,10107,278554,-1221,56199,0,0,0,313,397,244,379,276,400,616,524,376,591,587,355,0
1,1768494674880,-1517,469,10064,324980,-30543,69638,0,0,0,318,407,243,383,279,406,602,499,377,566,547,359,0
1,1768494674896,-1502,406,9983,361632,-48869,79412,0,0,0,310,414,231,391,287,412,591,481,386,539,507,369,0
1,1768494674912,-1454,291,9897,365297,-59864,84299,0,0,0,311,410,227,402,284,417,582,466,394,511,486,386,0
1,1768494674928,-1454,210,9806,332310,-68416,85521,0,0,0,322,410,220,408,285,422,575,456,405,484,461,378,0
1,1768494674944,-1478,177,9743,295658,-65973,86742,0,0,0,329,413,229,413,291,428,559,446,408,469,453,392,0
1,1768494674960,-1488,162,9724,263893,-45204,90408,0,0,0,310,419,233,411,293,449,554,453,413,457,454,400,0
1,1768494674976,-1483,148,9748,244346,-14660,95294,0,0,0,305,423,252,417,286,452,552,451,424,432,443,410,0
1,1768494674992,-1445,143,9810,248011,6108,100181,0,0,0,314,417,234,427,296,443,555,433,399,428,435,410,0
1,1768494675008,-1392,114,9858,266337,12217,100181,0,0,0,314,419,232,421,297,443,558,419,395,425,424,415,0
1,1768494675024,-1349,71,9906,280998,12217,98960,0,0,0,318,424,235,427,315,449,562,423,396,413,426,429,0
1,1768494675040,-1397,19,9983,307876,3665,102625,0,0,0,326,429,233,439,317,455,569,420,404,403,401,450,0
1,1768494675056,-1507,-4,10045,360410,1221,122173,0,0,0,330,438,221,445,323,468,582,383,401,413,363,475,0
1,1768494675072,-1636,-33,10122,458148,17104,168598,0,0,0,338,450,211,446,345,484,594,346,404,408,345,502,0
1,1768494675088,-1689,-124,10222,591317,67195,234572,0,0,0,355,478,214,452,379,492,596,338,418,381,346,532,0
1,1768494675104,-1665,-272,10629,780685,124616,309097,0,0,0,371,520,203,469,418,502,584,326,420,371,347,561,0
1,1768494675120,-1579,-354,11806,1072679,73303,362853,0,0,0,379,535,183,481,450,521,563,314,444,355,334,581,0
1,1768494675136,-1354,-358,12806,1441641,-78190,397062,0,0,0,395,532,204,483,499,534,554,313,454,352,318,596,0
1,1768494675152,-871,-430,13299,1902234,-185703,364075,0,0,0,414,547,188,506,475,559,506,314,441,328,305,606,0
1,1768494675168,-851,-636,13610,2386039,-174707,245567,0,0,0,459,564,214,524,476,563,476,300,429,332,320,610,0
1,1768494675184,-1612,-741,14496,2910161,-162490,183259,0,0,0,460,549,209,513,523,532,426,294,453,313,315,607,0
1,1768494675200,-2507,-641,16199,3651752,-144164,298102,0,0,0,485,524,218,506,463,543,365,289,463,287,286,607,0
1,1768494675216,-3082,-469,18032,4484972,-101403,482583,0,0,0,504,508,204,493,459,544,330,252,471,248,256,581,0
1,1768494675232,-4532,-445,20258,5516113,-29321,774577,0,0,0,483,498,188,478,460,523,306,217,466,226,216,531,0
1,1768494675248,-6944,-1359,23919,6713408,25656,1258382,0,0,0,455,483,186,459,421,516,288,188,441,204,167,469,0
1,1768494675264,-8542,-2402,27293,7683462,76969,1738522,0,0,0,421,462,185,428,364,490,280,165,405,197,143,423,0
1,1768494675280,-8088,-2732,29767,8261341,428827,2191784,0,0,0,360,427,172,381,314,428,267,163,365,196,147,373,0
1,1768494675296,-7427,-1354,30849,8362745,977384,2503325,0,0,0,288,355,157,338,248,360,279,187,320,174,163,251,0
1,1768494675312,-8767,3771,30026,8101294,1385442,2623055,0,0,0,254,283,150,318,184,301,345,212,289,166,200,118,0
1,1768494675328,-11241,13026,23373,7444003,1415985,2753780,0,0,0,259,285,156,309,190,309,342,230,300,176,220,126,0
1,1768494675344,-12170,18875,14678,6150191,1158200,2780658,0,0,0,252,275,155,311,182,301,352,224,291,182,215,125,0
1,1768494675360,-8987,22234,10739,2450791,535117,1958433,0,0,0,252,280,151,311,181,291,363,225,264,215,217,124,0
1,1768494675376,-3713,20464,10457,-2111150,454483,365297,0,0,0,245,276,188,312,173,309,367,223,275,195,229,124,0
1,1768494675392,-3230,13328,9547,-4781853,1175304,-1084896,0,0,0,243,274,153,315,173,281,367,223,255,224,229,105,0
1,1768494675408,-8336,7221,5982,-4798957,1094670,-1275486,0,0,0,240,268,144,310,184,273,357,241,254,214,248,94,0
1,1768494675424,-9490,5642,4479,-4364021,-74525,-695164,0,0,0,229,268,149,297,185,273,339,248,253,189,256,96,0
1,1768494675440,-5015,6676,6647,-4770857,-939510,-277332,0,0,0,221,272,155,290,192,274,329,273,255,191,267,98,0
1,1768494675456,-1981,6642,9179,-5561317,-1036027,-299323,0,0,0,203,274,154,284,193,275,324,268,255,192,270,99,0
1,1768494675472,-2244,5039,10605,-6128200,-929736,-525344,0,0,0,193,274,151,265,204,267,326,261,261,191,274,97,0
1,1768494675488,-2622,3283,11591,-6234490,-1233947,-619417,0,0,0,193,275,151,263,206,267,324,276,262,188,296,97,0
1,1768494675504,-1809,2426,13342,-6262590,-1588249,-648738,0,0,0,189,273,149,274,199,272,324,286,261,184,309,94,0
1,1768494675520,-1139,2306,15754,-6476393,-1660331,-671951,0,0,0,186,272,145,279,201,273,327,286,259,184,307,89,0
1,1768494675536,-1445,1617,18171,-6753726,-1677435,-643851,0,0,0,188,274,144,284,203,279,328,287,250,186,307,91,0
1,1768494675552,-2072,181,20435,-6925990,-1820378,-521678,0,0,0,185,273,145,281,201,278,325,284,251,189,303,95,0
1,1768494675568,-1966,-1167,22694,-6906442,-2024407,-515570,0,0,0,191,272,151,284,193,278,321,270,254,197,281,94,0
1,1768494675584,-2153,-2335,25450,-6822142,-2113593,-834441,0,0,0,208,279,167,283,191,278,320,256,250,243,253,124,0
1,1768494675600,-3125,-3967,28475,-6740287,-2133141,-1561371,0,0,0,214,280,162,299,196,277,332,264,253,196,274,98,0
1,1768494675616,-3809,-8796,31452,-6596122,-2267531,-2555860,0,0,0,207,281,152,300,194,277,336,271,260,191,280,98,0
1,1768494675632,-3723,-17310,32237,-6340781,-2263866,-3071430,0,0,0,202,284,156,302,194,285,344,267,264,224,270,107,0
1,1768494675648,-4106,-29432,27489,-5836206,-1921782,-2476447,0,0,0,203,287,152,309,198,287,359,274,271,214,285,100,0
1,1768494675664,-1325,-38702,20109,-4809952,-1783726,-1298699,0,0,0,202,289,150,310,201,289,361,276,272,203,292,96,0
1,1768494675680,6197,-42943,13845,-2886949,-1545489,25656,0,0,0,204,290,154,310,203,292,356,276,274,206,292,97,0
1,1768494675696,11854,-45020,11093,-830776,-810007,1050688,0,0,0,200,290,156,304,204,292,346,275,274,207,291,98,0
1,1768494675712,10859,-42364,12218,680503,234572,1409876,0,0,0,187,272,142,288,198,271,364,343,254,241,340,88,0
1,1768494675728,6704,-29494,16453,2160019,1279151,1393994,0,0,0,186,233,123,267,182,241,417,452,229,329,425,78,0
1,1768494675744,-995,4737,20669,3859446,2937040,664621,0,0,0,206,205,128,258,167,246,455,474,237,408,456,86,0
1,1768494675760,-3273,12792,15596,5428148,3155729,-360410,0,0,0,216,198,131,272,160,270,491,504,250,446,492,76,0
1,1768494675776,923,2115,17535,6560692,1579697,-935845,0,0,0,215,204,132,298,141,282,538,538,259,480,526,83,0
1,1768494675792,3498,-5474,22928,5299866,291993,-189368,0,0,0,215,235,139,308,149,293,554,554,274,548,548,93,0
1,1768494675808,-201,-3541,20914,3390302,251676,471587,0,0,0,218,262,143,326,159,309,570,569,299,553,554,130,0
1,1768494675824,-3900,90,14142,1756848,409279,273667,0,0,0,234,306,167,359,201,343,596,596,315,584,585,186,0
1,1768494675840,-2359,-363,10892,791681,174707,-184481,0,0,0,245,328,208,354,211,378,603,603,317,606,607,288,0
1,1768494675856,-851,-780,10471,213802,10995,-186924,0,0,0,269,348,210,358,247,387,616,611,346,611,611,303,0
1,1768494675872,-1206,-43,10447,46425,24434,18325,0,0,0,296,354,208,369,254,391,619,614,358,619,619,332,0
1,1768494675888,-1742,406,10031,98960,51312,34208,0,0,0,305,362,217,373,262,406,615,602,361,621,621,354,0
1,1768494675904,-1722,392,9892,149051,40317,4886,0,0,0,299,378,231,380,271,415,618,599,364,621,621,361,0
1,1768494675920,-1488,272,10026,172263,12217,8552,0,0,0,301,388,235,381,272,412,620,572,363,619,622,366,0
1,1768494675936,-1450,282,10088,195476,-10995,28099,0,0,0,308,396,237,380,263,413,611,535,363,597,613,377,0
1,1768494675952,-1526,330,10045,237015,-32986,42760,0,0,0,310,401,241,388,251,421,597,525,364,556,580,393,0
1,1768494675968,-1536,263,9944,279776,-45204,48869,0,0,0,315,395,233,395,249,423,591,521,365,524,535,399,0
1,1768494675984,-1512,181,9868,300545,-56199,54977,0,0,0,313,392,225,403,259,425,581,490,372,498,505,403,0
1,1768494676000,-1507,114,9820,294437,-62308,62308,0,0,0,316,389,218,403,251,428,569,471,376,486,493,409,0
1,1768494676016,-1536,76,9777,274889,-58643,69638,0,0,0,314,395,218,404,250,430,565,449,369,483,477,417,0
1,1768494676032,-1555,62,9734,249233,-37873,75747,0,0,0,318,401,229,396,259,424,575,433,374,476,459,411,0
1,1768494676048,-1497,23,9734,219911,-14660,80634,0,0,0,314,395,233,400,265,432,570,417,372,469,448,411,0
1,1768494676064,-1435,0,9772,197920,-9773,78190,0,0,0,317,397,230,399,272,431,570,406,379,457,445,421,0
1,1768494676080,-1426,0,9863,207694,-20769,76969,0,0,0,317,405,225,402,278,439,536,378,407,441,432,443,0
1,1768494676096,-1435,0,9983,251676,-29321,80634,0,0,0,312,414,215,408,313,444,548,387,412,425,406,469,0
1,1768494676112,-1536,-38,10011,327423,-21991,97738,0,0,0,324,415,213,425,320,465,569,381,401,408,379,498,0
1,1768494676128,-1617,-100,9973,415388,-14660,133168,0,0,0,338,425,212,443,317,483,576,343,399,395,348,516,0
1,1768494676144,-1612,-172,10011,504574,-15882,178372,0,0,0,341,453,203,456,354,485,589,322,400,383,323,525,0
1,1768494676160,-1646,-248,10375,632856,1221,221133,0,0,0,351,475,195,476,395,501,586,308,404,363,315,542,0
1,1768494676176,-1780,-335,11103,866206,28099,273667,0,0,0,364,480,183,490,418,530,568,297,425,346,309,557,0
1,1768494676192,-1837,-421,12151,1227839,-25656,340862,0,0,0,381,518,186,503,423,562,548,299,421,331,295,579,0
1,1768494676208,-1497,-526,13070,1732413,-206472,397062,0,0,0,405,501,189,524,437,565,538,274,410,336,278,606,0
1,1768494676224,-909,-684,13486,2207666,-282219,349414,0,0,0,424,520,192,547,473,569,536,285,410,364,330,606,0
1,1768494676240,-1450,-765,14276,2698802,-222354,243124,0,0,0,441,499,188,557,479,557,458,290,446,333,324,629,0
1,1768494676256,-2445,-756,15482,3297450,-194255,274889,0,0,0,446,495,203,546,437,578,399,292,454,290,290,620,0
1,1768494676272,-3129,-665,17171,4107457,-197920,458148,0,0,0,489,495,213,506,437,579,356,258,455,261,242,601,0
1,1768494676288,-3991,-559,19416,5077511,-161268,735481,0,0,0,474,480,208,503,408,576,346,220,469,250,201,561,0
1,1768494676304,-5455,-1014,22746,6172182,-91629,1086118,0,0,0,464,461,214,484,389,557,330,187,449,230,168,497,0
1,1768494676320,-7853,-2474,26465,7219205,-52534,1457524,0,0,0,438,439,199,438,354,510,290,165,406,204,143,436,0
1,1768494676336,-9116,-3306,29753,8067086,-61086,1926668,0,0,0,373,412,182,385,305,454,251,159,368,181,134,387,0
1,1768494676352,-7154,-1560,31476,8455596,285884,2354274,0,0,0,297,367,166,343,252,391,272,173,327,173,151,297,0
1,1768494676368,-7968,2933,30782,8266228,1202182,2553416,0,0,0,249,315,143,321,206,328,338,200,289,180,185,173,0
1,1768494676384,-12534,11284,26202,7816631,1714087,2728124,0,0,0,253,299,145,316,202,303,359,211,287,180,216,117,0
1,1768494676400,-14032,18047,18162,6784269,1121548,2950479,0,0,0,259,305,149,318,203,303,357,210,287,194,225,120,0
1,1768494676416,-11466,23479,11328,3982841,230907,2792875,0,0,0,237,307,152,310,204,294,352,210,268,195,234,118,0
1,1768494676432,-4532,23378,10294,-910189,-83077,1560149,0,0,0,235,309,150,303,201,281,347,226,265,190,229,112,0
1,1768494676448,-2512,15209,9839,-4440990,875980,-185703,0,0,0,222,323,151,289,218,301,340,249,261,182,256,113,0
1,1768494676464,-6953,7776,6690,-5164254,1286482,-930958,0,0,0,220,286,148,291,203,278,326,270,253,179,280,105,0
1,1768494676480,-9174,5790,4833,-4544837,65973,-469144,0,0,0,211,279,162,285,205,289,314,284,261,175,304,110,0
1,1768494676496,-6034,6106,6049,-4508185,-1088561,-50090,0,0,0,207,276,153,284,197,278,321,263,258,195,287,105,0
1,1768494676512,-1564,6575,8925,-5161811,-1347568,-117286,0,0,0,205,274,150,287,190,274,336,251,256,217,276,101,0
1,1768494676528,-1756,5484,10533,-5805663,-1091005,-530231,0,0,0,196,277,152,283,197,275,327,273,256,203,292,102,0
1,1768494676544,-2785,3996,11653,-6173404,-1191187,-838107,0,0,0,192,280,154,277,201,277,318,283,256,186,305,101,0
1,1768494676560,-2426,2881,13180,-6312681,-1562593,-956614,0,0,0,193,282,155,276,199,277,320,275,255,186,307,97,0
1,1768494676576,-1684,2368,15161,-6494719,-1714087,-1012814,0,0,0,194,287,153,282,206,276,327,275,252,200,309,95,0
1,1768494676592,-1885,1943,17568,-6730513,-1744631,-1012814,0,0,0,200,299,145,292,219,279,338,276,249,228,308,93,0
1,1768494676608,-2239,1263,20349,-6947981,-1865582,-944397,0,0,0,191,294,149,287,211,280,336,272,252,230,306,93,0
1,1768494676624,-2215,363,23239,-7123910,-2017077,-895528,0,0,0,195,275,156,288,195,287,335,267,256,225,306,93,0
1,1768494676640,-2455,-918,26599,-7219205,-2090380,-1098335,0,0,0,203,275,154,296,191,284,344,259,256,228,282,93,0
1,1768494676656,-2928,-2995,30093,-7224092,-2172236,-1572367,0,0,0,194,278,154,291,191,284,344,254,257,227,278,93,0
1,1768494676672,-2976,-7977,33878,-7121466,-2310292,-2365270,0,0,0,196,282,154,295,193,286,353,254,265,229,278,93,0
1,1768494676688,-3661,-17903,34486,-6856351,-2166128,-2697580,0,0,0,195,287,152,304,199,286,360,266,266,235,292,88,0
1,1768494676704,-6355,-31926,29451,-6284581,-1816713,-2026850,0,0,0,192,290,151,304,201,288,364,279,268,215,295,91,0
1,1768494676720,-1809,-42646,19693,-4862487,-2007303,-249233,0,0,0,189,292,153,300,201,296,366,285,277,201,296,93,0
1,1768494676736,10859,-47398,12557,-2736676,-1947438,1163087,0,0,0,185,294,157,296,204,303,355,291,287,199,302,99,0
1,1768494676752,16884,-46752,11418,-691499,-623082,1266934,0,0,0,180,276,151,288,197,289,353,308,275,217,333,97,0
1,1768494676768,12825,-42239,12749,945619,796568,1071457,0,0,0,187,230,134,266,175,256,391,382,246,282,392,85,0
1,1768494676784,3938,-22435,19416,2728124,2164906,902858,0,0,0,208,194,127,260,159,235,444,466,237,364,444,82,0
1,1768494676800,-2885,9346,19191,4400673,3850894,161268,0,0,0,220,191,128,278,159,240,482,494,244,420,485,89,0
1,1768494676816,-2670,11849,16223,5693264,3497814,-674395,0,0,0,212,188,136,269,156,266,507,527,244,467,533,92,0
1,1768494676832,3795,-1785,20349,6197838,971275,-1039692,0,0,0,218,192,147,282,129,302,538,537,258,538,540,93,0
1,1768494676848,3670,-5025,23641,4690223,-441044,10995,0,0,0,208,234,145,306,153,323,557,557,292,564,564,110,0
1,1768494676864,-3235,-1488,18463,2510656,-296880,648738,0,0,0,220,277,163,335,171,354,589,590,308,591,591,132,0
1,1768494676880,-4163,387,11562,1109331,161268,14660,0,0,0,239,311,188,347,199,368,606,606,311,606,606,198,0
1,1768494676896,-1966,23,9648,390953,221133,-301767,0,0,0,264,338,209,354,216,376,620,620,312,625,625,254,0
1,1768494676912,-827,-181,10447,122173,81855,-130725,0,0,0,280,345,215,352,235,375,624,624,308,637,637,271,0
1,1768494676928,-1655,454,10356,69638,37873,31764,0,0,0,300,358,228,350,234,371,633,632,300,641,642,277,0
1,1768494676944,-2029,760,9959,45204,30543,31764,0,0,0,313,364,239,354,226,376,640,635,301,643,644,279,0
1,1768494676960,-1861,708,9849,51312,12217,-1221,0,0,0,317,366,249,354,232,388,631,622,314,633,634,297,0
1,1768494676976,-1694,660,9930,85521,-12217,9773,0,0,0,329,373,262,354,239,388,621,596,320,621,621,308,0
1,1768494676992,-1684,684,9949,136833,-45204,34208,0,0,0,339,382,262,360,244,380,613,574,313,609,609,296,0
1,1768494677008,-1708,689,9897,174707,-80634,41538,0,0,0,323,398,248,357,262,383,596,568,315,587,587,310,0
1,1768494677024,-1727,650,9839,193033,-108734,37873,0,0,0,325,408,255,362,261,387,593,550,325,553,565,323,0
1,1768494677040,-1746,603,9815,173485,-106290,41538,0,0,0,318,410,236,368,262,382,581,533,356,435,497,319,0
1,1768494677056,-1756,569,9782,153938,-95294,46425,0,0,0,310,414,230,363,258,395,571,543,340,545,550,323,0
1,1768494677072,-1775,536,9719,153938,-95294,50090,0,0,0,318,413,240,366,254,401,573,534,349,535,547,341,0
1,1768494677088,-1775,521,9676,142942,-86742,50090,0,0,0,304,412,223,358,305,394,571,529,341,524,551,336,0
1,1768494677104,-1770,536,9686,135612,-73303,50090,0,0,0,305,415,219,376,292,396,572,520,337,517,547,340,0
1,1768494677120,-1761,540,9753,150272,-67195,51312,0,0,0,310,419,222,386,274,399,567,504,336,502,532,351,0
1,1768494677136,-1761,540,9820,171042,-68416,52534,0,0,0,312,421,228,390,271,407,573,490,348,496,507,384,0
1,1768494677152,-1780,507,9844,191811,-68416,57421,0,0,0,316,415,229,395,272,421,578,472,360,480,476,410,0
1,1768494677168,-1813,449,9830,230907,-69638,73303,0,0,0,320,412,244,403,269,444,586,454,376,456,446,432,0
1,1768494677184,-1842,425,9839,287106,-80634,100181,0,0,0,324,414,250,418,277,468,601,437,391,440,415,467,0
1,1768494677200,-1895,411,9964,392175,-100181,142942,0,0,0,341,420,222,443,310,484,606,413,398,421,385,504,0
1,1768494677216,-1971,363,10189,529009,-113620,191811,0,0,0,369,445,210,478,344,502,604,394,414,401,373,531,0
1,1768494677232,-2086,282,10610,720820,-95294,244346,0,0,0,385,445,206,475,350,511,606,342,421,409,349,549,0
1,1768494677248,-2239,138,11471,1080009,-15882,312763,0,0,0,386,458,184,491,361,527,596,314,427,397,337,571,0
1,1768494677264,-2163,-9,12443,1587027,87964,373849,0,0,0,412,490,184,507,410,549,580,314,443,360,321,592,0
1,1768494677280,-1713,-138,13294,2087937,68416,387288,0,0,0,434,483,185,519,432,565,537,284,463,377,315,624,0
1,1768494677296,-1641,-234,14118,2542421,-142942,340862,0,0,0,457,487,188,531,446,568,512,280,464,359,298,613,0
1,1768494677312,-2191,-287,15032,3065321,-259006,332310,0,0,0,488,474,206,515,442,575,464,294,456,337,283,619,0
1,1768494677328,-2823,-335,16243,3798360,-248011,432492,0,0,0,500,476,223,498,438,580,436,278,468,315,258,618,0
1,1768494677344,-3441,-215,17985,4634023,-257785,597426,0,0,0,493,478,224,490,421,580,403,248,463,280,227,598,0
1,1768494677360,-4876,-143,20306,5562538,-259006,900415,0,0,0,482,468,210,484,404,569,357,211,448,239,209,542,0
1,1768494677376,-6633,-693,23972,6718295,-208915,1340238,0,0,0,462,443,193,466,381,534,323,175,434,210,179,473,0
1,1768494677392,-7920,-2172,27279,7746992,-111177,1732413,0,0,0,422,417,186,427,341,483,301,164,404,201,144,425,0
1,1768494677408,-8973,-3187,29643,8429940,-102625,2012190,0,0,0,352,399,191,378,297,435,277,174,365,192,157,371,0
1,1768494677424,-7370,-1698,32146,8489805,-18325,2263866,0,0,0,277,340,176,330,230,373,299,191,344,171,167,280,0
1,1768494677440,-7116,5460,30791,8052425,1154535,2489886,0,0,0,263,242,146,315,173,289,370,222,286,172,203,109,0
1,1768494677456,-12438,16573,23263,7456221,2089159,2642603,0,0,0,257,263,147,314,188,306,370,222,292,183,207,123,0
1,1768494677472,-15429,23086,13706,5872858,1211956,2697580,0,0,0,243,267,146,311,199,302,354,233,286,174,213,120,0
1,1768494677488,-11610,26130,9418,2267531,-76969,2250427,0,0,0,244,268,146,313,191,295,352,233,273,180,212,118,0
1,1768494677504,-2761,22321,10725,-2604729,-195476,886976,0,0,0,243,272,144,307,197,281,350,258,260,180,266,108,0
1,1768494677520,-2464,13945,9739,-4904026,1163087,-426383,0,0,0,237,269,146,303,200,279,341,271,258,172,300,103,0
1,1768494677536,-7532,8322,6872,-5247332,1545489,-790459,0,0,0,229,268,139,305,200,275,335,271,251,173,297,95,0
1,1768494677552,-9423,6637,5910,-5024977,305432,-283441,0,0,0,217,267,140,294,195,274,328,268,250,181,287,96,0
1,1768494677568,-6077,6245,7542,-5232671,-907745,127059,0,0,0,208,268,140,287,202,277,321,285,246,184,292,96,0
1,1768494677584,-1957,5489,10265,-5826432,-1040914,-84299,0,0,0,201,267,138,280,210,276,310,279,247,185,299,93,0
1,1768494677600,-1612,4182,11734,-6234490,-868650,-505796,0,0,0,193,266,141,276,207,274,305,264,254,189,306,93,0
1,1768494677616,-2818,2785,12921,-6477614,-1038470,-827111,0,0,0,188,267,145,281,204,280,315,288,252,194,321,97,0
1,1768494677632,-2397,2139,14706,-6626666,-1325577,-847880,0,0,0,186,265,147,271,210,282,315,287,253,195,324,94,0
1,1768494677648,-2033,1560,16640,-6748839,-1444085,-778242,0,0,0,183,265,143,238,229,268,320,288,253,201,340,93,0
1,1768494677664,-2402,789,18918,-6835582,-1513724,-591317,0,0,0,186,268,144,287,207,285,323,287,252,200,341,91,0
1,1768494677680,-2794,28,21368,-6873455,-1706757,-455705,0,0,0,185,268,144,287,207,286,315,284,252,197,337,88,0
1,1768494677696,-3091,-751,24139,-6856351,-1904677,-561996,0,0,0,182,275,143,281,204,286,313,282,252,191,332,91,0
1,1768494677712,-3618,-2163,27681,-6780604,-2065946,-1094670,0,0,0,195,280,150,286,208,289,309,284,255,186,331,92,0
1,1768494677728,-4197,-5474,31428,-6702413,-2213775,-1931555,0,0,0,193,283,146,288,213,290,313,287,258,187,338,94,0
1,1768494677744,-4551,-12342,33548,-6602231,-2293188,-2657263,0,0,0,192,285,146,290,207,289,321,290,266,191,339,90,0
1,1768494677760,-5431,-23091,30763,-6316346,-2150245,-2448347,0,0,0,196,287,147,295,204,288,334,294,271,196,344,89,0
1,1768494677776,-3905,-33974,24388,-5617516,-2094046,-1477072,0,0,0,201,288,147,301,206,289,345,300,272,199,349,91,0
1,1768494677792,5460,-42105,16659,-3915646,-1966986,-129503,0,0,0,203,291,145,304,208,290,349,307,270,204,349,90,0
1,1768494677808,14563,-46551,12256,-1857030,-1169196,669508,0,0,0,206,293,145,302,208,290,343,311,268,206,352,90,0
1,1768494677824,15663,-46527,11820,36651,206472,840550,0,0,0,200,288,145,292,208,282,345,339,261,219,374,91,0
1,1768494677840,8868,-35936,14912,1787391,1312138,733038,0,0,0,177,259,131,270,197,256,398,430,241,314,418,82,0
1,1768494677856,1005,-9705,20019,3363424,2382374,270002,0,0,0,192,213,129,252,159,244,422,466,238,381,451,85,0
1,1768494677872,-4015,11629,16740,4807509,3154508,-557109,0,0,0,207,209,137,266,145,255,465,482,238,424,472,86,0
1,1768494677888,-1689,8169,15960,6158743,1986533,-1255938,0,0,0,233,203,135,298,129,277,521,520,245,518,519,78,0
1,1768494677904,5111,-5350,22230,5985257,-91629,-1116661,0,0,0,235,229,151,301,139,320,526,526,282,519,522,93,0
1,1768494677920,2522,-4350,21339,3913202,-78190,92851,0,0,0,217,242,186,307,143,330,535,536,306,537,537,129,0
1,1768494677936,-3225,52,14807,2097711,494800,494800,0,0,0,228,263,172,330,157,327,565,565,304,556,556,127,0
1,1768494677952,-3297,684,10983,1191187,575435,-29321,0,0,0,254,296,202,343,175,345,588,588,306,573,573,153,0
1,1768494677968,-1430,-287,10653,552222,362853,-284663,0,0,0,265,317,212,359,199,356,601,600,303,589,589,202,0
1,1768494677984,-727,-354,11016,171042,144164,-138055,0,0,0,281,324,229,371,210,367,611,609,316,601,601,260,0
1,1768494678000,-1354,464,10265,48869,58643,6108,0,0,0,299,333,244,376,216,376,616,609,327,605,605,294,0
1,1768494678016,-1675,794,9786,52534,28099,18325,0,0,0,306,343,239,383,227,380,614,601,325,603,603,302,0
1,1768494678032,-1560,698,9901,95294,9773,-1221,0,0,0,313,348,231,391,233,385,607,586,334,599,599,315,0
1,1768494678048,-1430,665,10040,145385,-10995,8552,0,0,0,318,350,224,391,234,388,604,566,327,595,595,318,0
1,1768494678064,-1397,674,10021,197920,-52534,29321,0,0,0,315,357,229,387,238,392,595,548,326,578,578,321,0
1,1768494678080,-1426,650,9954,234572,-96516,36651,0,0,0,326,365,228,392,252,394,587,551,335,544,553,335,0
1,1768494678096,-1478,607,9892,257785,-125838,40317,0,0,0,318,369,228,390,258,398,583,531,335,400,479,336,0
1,1768494678112,-1488,545,9849,261450,-131946,47647,0,0,0,316,373,238,391,261,411,571,525,348,515,533,356,0
1,1768494678128,-1493,488,9810,249233,-128281,56199,0,0,0,352,361,219,395,262,416,567,515,361,505,526,359,0
1,1768494678144,-1526,469,9777,232128,-120951,63529,0,0,0,318,373,224,390,270,418,561,510,356,482,523,363,0
1,1768494678160,-1541,469,9758,227241,-98960,72082,0,0,0,305,378,217,385,282,415,560,496,351,464,516,362,0
1,1768494678176,-1526,445,9763,229685,-73303,80634,0,0,0,311,372,218,384,282,426,563,482,364,453,493,372,0
1,1768494678192,-1478,411,9786,230907,-52534,81855,0,0,0,311,364,221,415,269,436,564,465,374,460,467,392,0
1,1768494678208,-1469,382,9815,230907,-40317,80634,0,0,0,305,373,223,427,262,446,563,450,382,464,443,416,0
1,1768494678224,-1488,344,9863,248011,-40317,84299,0,0,0,310,387,229,411,263,450,571,434,385,459,421,441,0
1,1768494678240,-1521,291,9925,299323,-45204,101403,0,0,0,327,386,234,419,260,453,587,402,380,450,401,464,0
1,1768494678256,-1574,253,9949,357967,-43982,123394,0,0,0,339,388,229,444,270,476,590,358,384,421,381,486,0
1,1768494678272,-1617,205,10007,443488,-32986,155159,0,0,0,342,398,213,450,306,501,591,328,401,397,361,511,0
1,1768494678288,-1670,153,10193,566882,-21991,195476,0,0,0,354,414,206,482,337,500,616,317,404,409,333,535,0
1,1768494678304,-1727,57,10595,753807,7330,239459,0,0,0,381,433,234,489,347,508,616,315,409,391,328,569,0
1,1768494678320,-1823,-57,11572,1093448,53756,291993,0,0,0,397,447,199,509,369,548,542,320,434,385,323,595,0
1,1768494678336,-1837,-114,12730,1554041,-3665,361632,0,0,0,410,489,190,530,407,554,560,320,435,374,335,604,0
1,1768494678352,-1368,-287,13247,2053728,-139277,386066,0,0,0,425,514,194,521,464,573,536,311,445,372,330,613,0
1,1768494678368,-813,-478,13677,2576629,-254119,311541,0,0,0,431,503,195,513,498,579,509,306,449,355,319,619,0
1,1768494678384,-1344,-497,14591,3039665,-290771,216246,0,0,0,453,487,201,526,464,591,456,311,470,332,306,634,0
1,1768494678400,-2392,-469,15797,3594331,-288328,235793,0,0,0,476,492,210,526,461,592,417,304,473,299,275,629,0
1,1768494678416,-3455,-464,17027,4266282,-222354,425162,0,0,0,488,511,205,507,468,589,374,273,471,275,250,603,0
1,1768494678432,-4216,-670,19128,5175250,-94073,770911,0,0,0,491,500,197,509,478,560,334,235,479,253,231,563,0
1,1768494678448,-5096,-1287,22392,6157521,-20769,1099557,0,0,0,474,474,206,503,462,534,309,208,476,218,192,509,0
1,1768494678464,-6901,-2349,26030,7230200,-15882,1418429,0,0,0,438,463,204,462,403,527,290,184,440,195,152,453,0
1,1768494678480,-8059,-3216,28791,8135503,46425,1788613,0,0,0,393,436,178,417,357,475,278,164,381,193,143,400,0
1,1768494678496,-6623,-2569,30720,8444601,449596,2136806,0,0,0,310,378,177,349,275,409,262,184,339,169,154,323,0
1,1768494678512,-7370,2249,31026,8151385,1189965,2279749,0,0,0,251,306,149,323,217,309,339,224,293,168,211,164,0
1,1768494678528,-10509,10624,27145,7737219,1663996,2373822,0,0,0,259,266,149,323,200,308,359,222,299,172,223,126,0
1,1768494678544,-12481,17970,18592,6857573,1452637,2467895,0,0,0,251,283,143,315,196,302,358,231,290,168,220,116,0
1,1768494678560,-11538,23522,11974,4400673,856433,2134363,0,0,0,245,281,147,310,191,293,365,225,274,177,220,113,0
1,1768494678576,-6810,24862,10634,-240680,372627,965167,0,0,0,239,277,142,313,190,288,372,222,271,183,204,110,0
1,1768494678592,-3977,17635,11170,-4343251,900415,-521678,0,0,0,233,269,137,311,187,280,369,226,271,192,219,105,0
1,1768494678608,-7054,8906,8585,-5582086,1386664,-1058018,0,0,0,222,266,138,305,190,284,361,243,264,187,246,100,0
1,1768494678624,-9629,6326,5881,-4950451,389732,-316428,0,0,0,217,266,137,304,197,283,348,256,256,185,262,97,0
1,1768494678640,-6987,6551,6513,-4995655,-792903,316428,0,0,0,214,267,137,302,200,276,338,257,250,191,271,93,0
1,1768494678656,-1794,6968,9643,-5831319,-1216843,313984,0,0,0,203,270,140,293,202,274,336,268,246,198,286,90,0
1,1768494678672,-966,5307,11672,-6553362,-889419,-270002,0,0,0,193,273,143,286,203,273,335,285,245,202,301,88,0
1,1768494678688,-2230,3220,12557,-6789156,-929736,-697608,0,0,0,193,269,141,287,198,273,332,268,247,204,298,88,0
1,1768494678704,-1952,2201,14060,-6759834,-1336573,-753807,0,0,0,200,262,142,298,195,277,337,261,247,215,296,91,0
1,1768494678720,-1139,1866,16065,-6794043,-1525941,-686612,0,0,0,195,262,145,294,193,281,335,266,252,216,303,92,0
1,1768494678736,-990,1378,18272,-6889338,-1567480,-535117,0,0,0,194,266,144,296,196,281,339,276,251,217,311,92,0
1,1768494678752,-1100,411,20751,-6978524,-1684766,-293215,0,0,0,195,272,144,294,200,279,333,278,249,220,312,92,0
1,1768494678768,-1172,-607,23335,-7013954,-1804495,-201585,0,0,0,188,274,144,288,202,281,324,278,249,213,321,91,0
1,1768494678784,-1742,-1866,26111,-6960198,-1901012,-480140,0,0,0,191,274,143,292,199,280,332,269,253,215,311,94,0
1,1768494678800,-2584,-4379,29250,-6830695,-2065946,-1269377,0,0,0,191,276,143,292,198,281,330,268,258,215,310,93,0
1,1768494678816,-3105,-8982,31744,-6679200,-2167349,-2162462,0,0,0,192,278,144,290,195,282,327,270,261,213,314,96,0
1,1768494678832,-5053,-18511,31284,-6376211,-1975538,-2599842,0,0,0,198,278,139,272,217,272,347,269,265,233,307,91,0
1,1768494678848,-7068,-29873,26709,-5761680,-1837482,-2059837,0,0,0,201,280,138,281,216,276,357,271,266,231,306,91,0
1,1768494678864,-1780,-38482,19248,-4466646,-2105041,-713490,0,0,0,200,284,141,301,197,288,346,276,268,215,315,96,0
1,1768494678880,10136,-41550,13835,-2425134,-1810604,136833,0,0,0,204,286,143,300,194,287,342,276,270,215,314,96,0
1,1768494678896,13529,-44000,11639,-643851,-726929,339641,0,0,0,200,276,143,297,191,282,354,309,263,236,337,91,0
1,1768494678912,9485,-41679,12763,846659,306654,541226,0,0,0,180,236,132,281,185,265,379,401,249,297,413,82,0
1,1768494678928,6207,-25958,17884,2615724,1470963,536339,0,0,0,197,202,127,266,160,238,426,457,235,356,435,95,0
1,1768494678944,181,722,17645,4636467,2906496,-215024,0,0,0,212,194,135,267,148,259,459,473,242,432,457,85,0
1,1768494678960,-2124,9667,16654,6320011,2311514,-1204626,0,0,0,214,210,140,279,150,281,488,500,255,455,499,94,0
1,1768494678976,3369,-1670,21584,6370102,-74525,-1401324,0,0,0,222,218,128,314,147,283,521,523,263,522,524,92,0
1,1768494678992,3263,-4613,21804,4519181,-168598,-76969,0,0,0,223,246,142,326,149,306,537,537,280,531,531,109,0
1,1768494679008,-1828,-1617,15817,2776993,467922,612086,0,0,0,223,264,152,334,167,333,556,556,307,542,542,114,0
1,1768494679024,-4096,770,10696,1727526,658512,191811,0,0,0,233,290,173,339,178,347,579,579,325,571,572,152,0
1,1768494679040,-1957,-287,10768,998153,362853,-252898,0,0,0,254,314,194,349,195,360,600,600,316,595,596,213,0
1,1768494679056,-713,-765,11351,404392,174707,-212581,0,0,0,269,342,207,353,227,372,604,594,334,613,613,259,0
1,1768494679072,-1162,67,10557,90408,101403,-6108,0,0,0,288,368,227,351,240,381,616,597,351,623,623,284,0
1,1768494679088,-1651,617,9810,65973,59864,34208,0,0,0,304,388,242,349,239,385,631,614,344,623,624,298,0
1,1768494679104,-1526,483,9920,112399,30543,4886,0,0,0,303,393,237,351,251,388,625,608,340,622,623,307,0
1,1768494679120,-1383,397,10069,131946,4886,8552,0,0,0,308,379,235,358,258,394,616,586,340,617,618,313,0
1,1768494679136,-1359,459,10059,142942,-18325,34208,0,0,0,312,377,236,355,253,387,616,564,340,610,610,311,0
1,1768494679152,-1397,497,9964,178372,-35430,45204,0,0,0,315,392,231,358,282,386,599,536,335,586,586,316,0
1,1768494679168,-1407,459,9897,222354,-39095,48869,0,0,0,315,391,228,369,273,390,600,508,334,584,562,311,0
1,1768494679184,-1387,363,9858,248011,-31764,51312,0,0,0,308,398,221,371,296,420,585,508,375,563,550,344,0
1,1768494679200,-1378,291,9830,249233,-30543,56199,0,0,0,305,400,213,373,298,407,587,497,368,546,515,344,0
1,1768494679216,-1378,258,9825,232128,-39095,65973,0,0,0,297,399,213,377,295,407,581,483,363,532,504,356,0
1,1768494679232,-1383,263,9834,227241,-45204,74525,0,0,0,300,405,209,394,313,405,572,473,364,521,507,369,0
1,1768494679248,-1368,239,9830,233350,-43982,79412,0,0,0,307,422,213,393,315,409,572,462,364,505,498,374,0
1,1768494679264,-1340,210,9815,233350,-36651,80634,0,0,0,310,420,221,391,302,417,571,441,369,495,485,378,0
1,1768494679280,-1349,201,9849,223576,-21991,78190,0,0,0,312,425,221,401,309,430,559,423,384,491,482,390,0
1,1768494679296,-1402,205,9916,246789,-9773,81855,0,0,0,314,443,214,413,324,449,555,419,388,478,470,413,0
1,1768494679312,-1383,172,9987,305432,-1221,98960,0,0,0,316,436,213,420,313,466,569,404,382,458,433,441,0
1,1768494679328,-1335,100,10064,382401,0,120951,0,0,0,333,440,213,433,323,473,568,365,401,457,413,462,0
1,1768494679344,-1426,28,10122,470366,2443,145385,0,0,0,349,445,209,457,350,471,576,347,395,420,389,488,0
1,1768494679360,-1627,-19,10203,616973,40317,200363,0,0,0,367,466,210,455,376,486,580,336,409,385,383,529,0
1,1768494679376,-1727,-124,10466,825889,101403,288328,0,0,0,394,499,222,493,392,501,581,302,403,399,353,552,0
1,1768494679392,-1679,-315,11208,1088561,171042,366519,0,0,0,414,507,200,502,431,514,561,303,424,375,330,576,0
1,1768494679408,-1320,-416,12524,1431868,114842,416610,0,0,0,442,518,188,526,470,532,537,311,428,371,330,575,0
1,1768494679424,-756,-421,13409,1868025,-74525,368962,0,0,0,471,536,204,505,479,550,514,286,421,365,305,604,0
1,1768494679440,-483,-507,13754,2340835,-188146,254119,0,0,0,488,536,218,520,512,543,492,276,429,350,289,601,0
1,1768494679456,-923,-631,14405,2856405,-193033,127059,0,0,0,489,530,219,505,490,554,449,279,437,326,284,606,0
1,1768494679472,-2258,-650,15917,3505144,-169820,168598,0,0,0,501,519,215,480,493,552,361,271,432,285,262,608,0
1,1768494679488,-3517,-512,17602,4293160,-118507,373849,0,0,0,513,507,218,488,479,545,315,250,433,253,228,580,0
1,1768494679504,-4484,-459,20325,5378057,-19547,778242,0,0,0,502,490,219,495,416,545,312,217,433,232,189,533,0
1,1768494679520,-6125,-1062,24077,6547253,54977,1197295,0,0,0,469,457,210,476,379,535,301,180,419,209,146,480,0
1,1768494679536,-8078,-2249,27327,7544185,151494,1639562,0,0,0,417,424,194,437,351,519,292,155,401,197,126,425,0
1,1768494679552,-8159,-2775,29337,8180707,447153,2097711,0,0,0,348,403,175,380,305,457,236,154,383,181,133,382,0
1,1768494679568,-6939,-1378,30284,8278445,1032362,2436130,0,0,0,274,376,183,339,247,399,305,177,358,180,150,288,0
1,1768494679584,-9581,4106,29083,7979121,1566258,2560747,0,0,0,264,271,170,304,170,303,349,206,306,162,185,116,0
1,1768494679600,-13366,13074,23752,7475768,1448972,2725680,0,0,0,267,271,166,320,185,319,359,221,319,172,214,130,0
1,1768494679616,-13534,22062,14687,6061004,673173,2776993,0,0,0,279,276,166,319,187,316,360,229,321,178,225,138,0
1,1768494679632,-8456,25747,11184,1947438,145385,1655444,0,0,0,280,274,157,323,187,295,362,233,283,180,223,121,0
1,1768494679648,-3953,21871,11466,-2840523,412944,-230907,0,0,0,252,275,147,326,186,281,370,236,261,194,229,114,0
1,1768494679664,-6322,12835,9772,-4823391,941954,-1337794,0,0,0,230,275,140,314,190,275,355,245,260,199,255,109,0
1,1768494679680,-9753,6944,6432,-4779409,467922,-1208291,0,0,0,224,274,137,302,194,273,341,255,259,192,270,103,0
1,1768494679696,-7839,6097,5484,-4296826,-853989,-382401,0,0,0,213,275,154,293,195,281,336,262,257,184,269,103,0
1,1768494679712,-2167,6834,8212,-4889365,-1275486,-212581,0,0,0,197,276,164,286,195,285,327,264,257,187,273,103,0
1,1768494679728,-162,6360,10409,-5663942,-1044579,-500909,0,0,0,197,276,148,285,195,272,326,266,248,194,283,95,0
1,1768494679744,-1603,4651,11385,-6186843,-934623,-841772,0,0,0,213,277,162,279,191,269,321,265,244,193,290,95,0
1,1768494679760,-1722,2991,12419,-6247929,-1401324,-819781,0,0,0,191,279,147,279,199,271,326,275,250,198,285,96,0
1,1768494679776,-277,2340,14223,-6258925,-1670105,-726929,0,0,0,190,295,146,281,212,274,334,280,254,203,291,98,0
1,1768494679792,258,2163,16673,-6429967,-1589471,-756251,0,0,0,189,277,154,280,197,288,326,276,261,199,291,105,0
1,1768494679808,-330,1622,18817,-6631553,-1530828,-834441,0,0,0,189,277,152,280,201,279,325,282,258,200,292,99,0
1,1768494679824,-1426,607,21067,-6752504,-1601688,-932180,0,0,0,186,277,160,277,195,284,330,286,260,196,289,99,0
1,1768494679840,-2866,-430,23795,-6794043,-1726305,-1105666,0,0,0,188,277,153,284,195,277,336,271,257,197,283,96,0
1,1768494679856,-4402,-1904,27140,-6839247,-1886351,-1429424,0,0,0,199,279,152,295,193,276,348,257,253,204,274,93,0
1,1768494679872,-5144,-5747,30763,-6927211,-2098932,-1977981,0,0,0,196,280,151,296,196,279,350,260,255,208,275,94,0
1,1768494679888,-4982,-12577,32912,-6890559,-2206445,-2415361,0,0,0,189,297,147,291,211,282,355,270,260,205,280,93,0
1,1768494679904,-5637,-22775,30796,-6513045,-2029294,-2172236,0,0,0,192,301,145,300,211,284,362,273,266,207,279,94,0
1,1768494679920,-5049,-34783,24469,-5643173,-1921782,-1172861,0,0,0,201,292,144,314,201,286,369,270,268,214,277,96,0
1,1768494679936,3010,-43483,16300,-4002389,-2004859,323758,0,0,0,208,293,147,315,203,286,372,270,267,217,282,95,0
1,1768494679952,14505,-47695,11801,-1693318,-1148426,1306029,0,0,0,206,297,151,307,204,284,364,297,264,228,315,95,0
1,1768494679968,16042,-47977,11596,-52534,123394,1442863,0,0,0,182,279,142,282,204,270,368,393,251,274,402,95,0
1,1768494679984,10112,-32859,16745,1957212,1764178,1076344,0,0,0,190,212,135,242,161,238,419,462,239,372,438,90,0
1,1768494680000,957,-3632,17942,4167322,3430619,350636,0,0,0,199,199,152,244,143,267,461,480,273,419,463,107,0
1,1768494680016,-4264,11706,15611,6294355,3393967,-564439,0,0,0,230,218,136,283,152,269,504,505,245,497,501,87,0
1,1768494680032,1655,162,21459,6570466,1078788,-885754,0,0,0,226,214,138,304,136,299,524,524,263,519,526,100,0
1,1768494680048,4230,-5575,23957,4897917,163711,-76969,0,0,0,226,241,141,317,148,297,539,540,273,532,533,98,0
1,1768494680064,-837,-2560,17870,3038443,467922,577878,0,0,0,229,263,149,330,163,311,561,562,290,551,552,113,0
1,1768494680080,-3685,181,11639,1674992,546113,96516,0,0,0,234,292,170,337,182,330,589,589,295,581,582,151,0
1,1768494680096,-2053,-291,10921,838107,316428,-257785,0,0,0,249,318,193,351,201,362,608,607,304,602,602,209,0
1,1768494680112,-866,-622,11232,299323,149051,-191811,0,0,0,265,329,208,356,216,381,616,614,317,609,609,265,0
1,1768494680128,-1186,62,10581,48869,79412,15882,0,0,0,278,336,218,356,229,385,621,617,324,616,617,297,0
1,1768494680144,-1646,569,9877,56199,37873,31764,0,0,0,292,342,223,367,234,395,625,616,329,623,623,304,0
1,1768494680160,-1641,569,9839,92851,3665,0,0,0,0,297,343,217,376,223,394,625,609,332,618,618,304,0
1,1768494680176,-1488,469,10035,118507,-14660,0,0,0,0,307,351,217,380,229,393,617,596,336,605,605,310,0
1,1768494680192,-1469,516,10035,157603,-26878,25656,0,0,0,308,369,222,388,245,389,601,570,342,586,586,324,0
1,1768494680208,-1478,526,9973,212581,-48869,36651,0,0,0,309,374,224,376,238,396,596,551,342,562,579,338,0
1,1768494680224,-1502,435,9901,244346,-72082,36651,0,0,0,311,376,222,375,241,403,585,535,342,547,562,352,0
1,1768494680240,-1541,373,9849,245567,-76969,40317,0,0,0,306,381,216,386,250,415,585,533,364,516,553,349,0
1,1768494680256,-1550,335,9820,228463,-67195,50090,0,0,0,308,385,221,386,254,414,574,510,359,519,537,354,0
1,1768494680272,-1531,306,9791,208915,-56199,57421,0,0,0,307,393,240,382,270,433,559,504,375,507,519,378,0
1,1768494680288,-1507,287,9782,189368,-47647,62308,0,0,0,310,395,244,384,277,445,560,502,374,502,507,393,0
1,1768494680304,-1478,263,9777,167377,-39095,63529,0,0,0,308,398,236,388,279,437,562,495,361,496,498,389,0
1,1768494680320,-1464,239,9772,145385,-31764,58643,0,0,0,304,395,232,390,283,439,555,486,363,480,491,388,0
1,1768494680336,-1488,253,9791,147829,-26878,57421,0,0,0,302,384,233,394,282,452,558,471,373,464,477,405,0
1,1768494680352,-1502,258,9853,183259,-25656,63529,0,0,0,307,384,225,404,286,454,573,453,374,454,455,422,0
1,1768494680368,-1502,229,9940,239459,-29321,79412,0,0,0,324,397,210,415,304,449,579,439,371,441,437,429,0
1,1768494680384,-1550,186,9968,305432,-30543,100181,0,0,0,329,396,208,430,290,457,581,413,381,431,416,458,0
1,1768494680400,-1569,134,9987,382401,-37873,130725,0,0,0,342,385,215,436,288,473,591,382,375,439,395,485,0
1,1768494680416,-1521,57,10054,475253,-61086,163711,0,0,0,347,388,217,451,294,487,598,364,406,403,370,524,0
1,1768494680432,-1555,4,10265,572991,-72082,183259,0,0,0,360,421,205,482,335,495,603,347,395,386,366,546,0
1,1768494680448,-1780,-4,10672,706160,-31764,213802,0,0,0,375,445,204,466,428,487,599,324,428,379,341,565,0
1,1768494680464,-1885,-114,11462,1031140,136833,278554,0,0,0,399,452,196,473,400,543,577,307,430,366,319,595,0
1,1768494680480,-1608,-306,12447,1483180,246789,327423,0,0,0,420,473,197,489,396,575,535,282,434,367,322,612,0
1,1768494680496,-1076,-497,13323,2030516,69638,326202,0,0,0,428,496,199,515,410,576,510,276,436,392,310,612,0
1,1768494680512,-1172,-550,13864,2486221,-180816,262672,0,0,0,459,501,210,526,423,578,476,282,438,371,290,619,0
1,1768494680528,-1742,-540,14816,3031113,-246789,235793,0,0,0,495,494,219,507,429,580,420,291,441,315,282,635,0
1,1768494680544,-2464,-564,16132,3705508,-153938,316428,0,0,0,497,505,218,481,443,582,369,283,444,290,271,630,0
1,1768494680560,-3522,-564,17659,4506963,-74525,515570,0,0,0,489,532,221,474,475,583,337,248,453,273,234,587,0
1,1768494680576,-4757,-727,20550,5497787,-12217,894306,0,0,0,496,503,203,484,440,549,322,223,447,212,186,539,0
1,1768494680592,-6173,-1459,23909,6509379,83077,1276708,0,0,0,468,466,193,468,411,521,314,167,416,205,145,473,0
1,1768494680608,-8021,-2818,26795,7498981,208915,1671327,0,0,0,431,447,183,412,380,501,263,146,400,188,129,427,0
1,1768494680624,-7786,-2919,28767,8045095,337197,2058615,0,0,0,346,436,181,364,350,451,229,153,370,170,142,395,0
1,1768494680640,-6015,-952,30083,8123285,856433,2332283,0,0,0,277,368,185,329,267,399,272,180,349,159,153,290,0
1,1768494680656,-8116,3527,29250,7958352,1519832,2422691,0,0,0,265,283,159,316,203,323,340,218,304,161,198,147,0
1,1768494680672,-11328,11366,23838,7560068,1660331,2570520,0,0,0,263,273,153,315,193,306,356,231,292,172,217,118,0
1,1768494680688,-12495,19880,15046,6280916,1447750,2610838,0,0,0,255,280,152,319,195,304,354,234,284,174,220,116,0
1,1768494680704,-9992,24847,10442,2280970,758694,1687209,0,0,0,241,284,148,311,197,296,349,239,282,170,222,111,0
1,1768494680720,-5340,21995,10873,-2101376,543670,130725,0,0,0,227,286,143,302,202,287,344,248,280,169,238,110,0
1,1768494680736,-4268,13457,10591,-4761083,1145983,-1288925,0,0,0,218,281,147,301,202,286,341,249,271,174,252,110,0
1,1768494680752,-8872,8111,7078,-4807509,1077566,-1340238,0,0,0,215,276,152,301,191,286,337,240,264,182,250,108,0
1,1768494680768,-9605,7150,6015,-4838052,65973,-784350,0,0,0,216,281,139,302,197,278,333,249,257,187,267,103,0
1,1768494680784,-5264,7202,8379,-5670051,-733038,-401949,0,0,0,207,276,143,293,197,276,332,254,253,192,262,95,0
1,1768494680800,-2426,5613,10863,-6591235,-775798,-454483,0,0,0,191,274,150,279,190,285,324,257,264,192,266,110,0
1,1768494680816,-3019,3139,11605,-6861238,-742812,-610865,0,0,0,187,269,157,279,189,291,326,261,285,210,266,118,0
1,1768494680832,-3263,1220,12380,-6666983,-1114218,-577878,0,0,0,192,271,150,283,198,276,327,277,257,192,292,96,0
1,1768494680848,-2474,626,14012,-6425080,-1448972,-505796,0,0,0,192,273,149,283,199,275,328,280,257,191,294,96,0
1,1768494680864,-2144,823,16214,-6374989,-1569923,-527787,0,0,0,191,273,149,283,200,279,329,279,257,194,298,100,0
1,1768494680880,-2794,349,18664,-6511823,-1716531,-591317,0,0,0,188,272,149,281,198,282,324,276,257,192,293,97,0
1,1768494680896,-3230,-708,20746,-6581462,-1941329,-608421,0,0,0,187,272,149,277,194,279,323,271,260,189,286,97,0
1,1768494680912,-3555,-1928,23488,-6499606,-2184454,-741590,0,0,0,190,274,149,278,190,277,325,262,260,190,282,97,0
1,1768494680928,-3938,-3019,26623,-6427524,-2356718,-1131322,0,0,0,191,276,150,281,190,278,328,259,259,187,275,94,0
1,1768494680944,-3575,-5556,29533,-6442184,-2476447,-1803274,0,0,0,190,278,150,282,193,281,333,261,260,183,267,93,0
1,1768494680960,-2761,-10701,31251,-6374989,-2459343,-2398256,0,0,0,195,278,150,291,194,284,348,260,261,191,268,96,0
1,1768494680976,-3297,-19722,29303,-6013357,-2151467,-2371378,0,0,0,201,276,148,304,194,287,368,260,266,203,270,94,0
1,1768494680992,-3694,-29045,23957,-5370727,-1957212,-1681101,0,0,0,202,278,149,308,189,284,369,261,271,207,271,89,0
1,1768494681008,382,-37032,16549,-4166100,-2067167,-411723,0,0,0,206,277,151,312,192,290,383,268,275,215,279,90,0
