sole_id,timestamp,accel_x,accel_y,accel_z,gyro_x,gyro_y,gyro_z,magn_x,magn_y,magn_z,pressure_01,pressure_02,pressure_03,pressure_04,pressure_05,pressure_06,pressure_07,pressure_08,pressure_09,pressure_10,pressure_11,pressure_12,corrupt
2,1768494663264,306,497,10002,26878,-57421,-14660,0,0,0,404,508,259,451,408,465,570,552,365,288,287,345,0
2,1768494663280,315,488,10011,29321,-56199,-15882,0,0,0,405,511,274,443,398,468,575,554,377,286,284,346,0
2,1768494663296,315,478,10011,34208,-57421,-15882,0,0,0,408,506,291,444,396,478,569,548,379,288,285,350,0
2,1768494663312,315,473,10002,39095,-58643,-15882,0,0,0,410,509,278,448,403,478,570,549,379,312,297,346,0
2,1768494663328,311,464,9997,36651,-59864,-17104,0,0,0,410,510,272,448,412,474,566,549,379,303,292,347,0
2,1768494663344,306,459,9997,30543,-58643,-15882,0,0,0,410,509,275,447,408,472,563,545,375,287,284,351,0
2,1768494663360,311,464,10016,24434,-57421,-14660,0,0,0,412,509,273,450,401,475,567,543,372,288,285,354,0
2,1768494663376,306,464,10016,19547,-57421,-14660,0,0,0,411,509,268,451,402,475,565,548,373,326,310,348,0
2,1768494663392,306,469,10016,17104,-56199,-14660,0,0,0,409,507,260,448,398,470,561,552,374,377,344,340,0
2,1768494663408,306,464,10007,15882,-57421,-14660,0,0,0,411,510,260,450,400,471,569,547,368,288,284,352,0
2,1768494663424,306,464,10007,12217,-57421,-13439,0,0,0,411,511,261,447,397,468,574,550,370,288,284,353,0
2,1768494663440,301,464,10011,8552,-56199,-13439,0,0,0,414,511,261,451,401,472,573,549,370,290,289,354,0
2,1768494663456,301,478,10016,6108,-54977,-13439,0,0,0,411,511,260,452,403,474,578,556,374,286,286,350,0
2,1768494663472,311,483,10016,6108,-54977,-14660,0,0,0,410,508,260,454,406,474,572,550,368,289,288,353,0
2,1768494663488,320,473,10021,8552,-54977,-14660,0,0,0,411,510,264,448,402,471,570,549,368,287,288,349,0
2,1768494663504,315,469,10026,10995,-53756,-13439,0,0,0,411,511,266,447,404,471,572,553,372,289,292,351,0
2,1768494663520,311,469,10016,10995,-53756,-13439,0,0,0,411,511,268,447,404,471,569,555,372,288,292,350,0
2,1768494663536,306,473,10011,9773,-56199,-12217,0,0,0,409,510,270,447,402,472,572,557,375,286,290,348,0
2,1768494663552,306,473,10016,6108,-56199,-12217,0,0,0,406,508,268,447,402,472,576,558,376,286,290,348,0
2,1768494663568,301,478,10026,4886,-54977,-13439,0,0,0,401,507,265,446,403,472,576,557,374,288,291,347,0
2,1768494663584,301,483,10026,4886,-53756,-13439,0,0,0,396,509,264,447,404,472,572,557,373,287,291,345,0
2,1768494663600,306,492,10021,4886,-53756,-13439,0,0,0,395,509,263,445,403,469,568,557,371,286,290,344,0
2,1768494663616,311,497,10026,9773,-54977,-13439,0,0,0,394,509,266,443,401,468,567,556,371,285,291,345,0
2,1768494663632,311,492,10026,9773,-54977,-13439,0,0,0,396,511,267,446,404,471,574,558,373,285,291,344,0
2,1768494663648,306,492,10026,9773,-56199,-14660,0,0,0,391,508,262,444,401,470,573,558,373,286,291,346,0
2,1768494663664,306,497,10031,10995,-56199,-13439,0,0,0,391,509,263,442,401,469,573,561,374,284,289,344,0
2,1768494663680,311,502,10040,14660,-56199,-13439,0,0,0,394,510,263,442,399,467,569,558,370,284,290,343,0
2,1768494663696,306,507,10040,19547,-57421,-14660,0,0,0,392,508,262,441,399,466,569,558,369,285,291,345,0
2,1768494663712,306,502,10031,19547,-54977,-14660,0,0,0,395,511,266,445,403,469,575,562,375,286,290,344,0
2,1768494663728,311,497,10026,19547,-54977,-13439,0,0,0,397,512,267,448,407,472,574,561,375,283,290,343,0
2,1768494663744,320,497,10026,19547,-54977,-13439,0,0,0,396,512,266,446,404,471,574,560,374,285,292,345,0
2,1768494663760,320,497,10031,19547,-56199,-14660,0,0,0,397,512,267,443,402,470,574,558,372,286,292,345,0
2,1768494663776,306,497,10035,20769,-57421,-14660,0,0,0,397,511,267,443,401,468,574,559,371,286,291,345,0
2,1768494663792,306,497,10035,23212,-56199,-15882,0,0,0,397,512,268,444,403,469,573,560,371,287,291,345,0
2,1768494663808,306,502,10031,24434,-56199,-15882,0,0,0,397,512,268,448,407,473,574,560,373,287,293,345,0
2,1768494663824,315,492,10040,28099,-57421,-14660,0,0,0,393,509,265,448,408,474,575,563,375,287,293,346,0
2,1768494663840,311,488,10045,28099,-57421,-14660,0,0,0,395,509,265,444,405,471,572,562,374,285,293,345,0
2,1768494663856,311,488,10040,28099,-58643,-15882,0,0,0,399,511,268,449,408,477,576,565,377,287,292,347,0
2,1768494663872,311,488,10035,26878,-57421,-15882,0,0,0,399,512,270,446,405,472,573,562,374,286,292,346,0
2,1768494663888,306,478,10031,25656,-57421,-14660,0,0,0,401,514,270,446,405,474,575,561,374,287,292,346,0
2,1768494663904,306,483,10026,24434,-57421,-14660,0,0,0,399,511,268,449,409,476,573,559,370,288,293,347,0
2,1768494663920,311,497,10031,25656,-57421,-14660,0,0,0,396,508,264,449,407,475,578,565,376,288,294,352,0
2,1768494663936,315,502,10040,30543,-57421,-14660,0,0,0,400,512,268,448,407,474,576,562,374,287,293,350,0
2,1768494663952,311,492,10045,35430,-59864,-15882,0,0,0,397,509,266,447,404,473,576,562,374,282,287,345,0
2,1768494663968,296,473,10040,35430,-59864,-15882,0,0,0,398,508,263,445,404,471,574,563,375,282,288,346,0
2,1768494663984,296,473,10031,32986,-58643,-15882,0,0,0,400,509,268,448,404,474,575,561,373,287,293,352,0
2,1768494664000,315,478,10031,30543,-57421,-15882,0,0,0,403,511,270,448,402,474,577,562,376,288,292,353,0
2,1768494664016,320,483,10040,31764,-57421,-15882,0,0,0,402,509,267,448,401,473,577,562,377,290,292,351,0
2,1768494664032,311,488,10050,36651,-58643,-17104,0,0,0,401,507,265,448,401,472,576,559,374,290,291,350,0
2,1768494664048,296,473,10045,36651,-58643,-15882,0,0,0,401,509,265,445,399,470,574,559,373,284,288,352,0
2,1768494664064,301,469,10040,32986,-59864,-14660,0,0,0,406,510,268,446,398,472,577,560,373,283,288,352,0
2,1768494664080,315,473,10035,30543,-58643,-14660,0,0,0,412,508,264,453,402,474,579,558,372,285,285,349,0
2,1768494664096,315,478,10031,31764,-58643,-14660,0,0,0,403,512,257,447,398,461,576,557,368,286,288,352,0
2,1768494664112,306,478,10035,39095,-58643,-15882,0,0,0,406,513,256,454,403,458,580,551,377,281,281,343,0
2,1768494664128,306,464,10050,45204,-59864,-17104,0,0,0,409,513,256,454,403,456,583,547,377,282,281,343,0
2,1768494664144,306,459,10054,46425,-61086,-18325,0,0,0,412,513,265,452,397,452,587,548,385,329,300,338,0
2,1768494664160,306,459,10040,42760,-61086,-17104,0,0,0,412,513,259,457,403,455,588,546,381,289,282,345,0
2,1768494664176,301,459,10040,39095,-61086,-15882,0,0,0,412,515,261,454,401,452,585,542,382,282,277,347,0
2,1768494664192,301,454,10040,37873,-61086,-15882,0,0,0,412,517,264,449,398,451,588,542,385,282,277,348,0
2,1768494664208,306,445,10040,34208,-59864,-15882,0,0,0,411,518,261,454,402,453,590,542,387,281,276,346,0
2,1768494664224,301,445,10031,29321,-58643,-14660,0,0,0,409,515,258,456,403,458,593,541,390,279,275,343,0
2,1768494664240,301,449,10031,23212,-58643,-14660,0,0,0,409,518,257,456,405,458,590,540,388,279,275,343,0
2,1768494664256,301,454,10040,19547,-57421,-13439,0,0,0,410,523,258,454,405,455,584,540,385,280,277,346,0
2,1768494664272,311,459,10054,19547,-57421,-13439,0,0,0,412,519,259,452,403,455,586,543,385,282,278,349,0
2,1768494664288,311,454,10050,20769,-57421,-13439,0,0,0,412,516,260,452,404,457,584,545,386,287,279,349,0
2,1768494664304,306,449,10050,21991,-57421,-13439,0,0,0,413,517,266,450,404,457,577,544,386,293,281,349,0
2,1768494664320,301,449,10050,24434,-57421,-14660,0,0,0,412,514,260,455,411,461,586,541,386,283,276,350,0
2,1768494664336,301,449,10050,24434,-57421,-14660,0,0,0,414,515,263,456,412,462,587,542,386,281,275,350,0
2,1768494664352,301,445,10045,21991,-57421,-13439,0,0,0,412,515,259,453,409,461,586,540,386,281,275,350,0
2,1768494664368,311,445,10040,19547,-57421,-13439,0,0,0,416,519,264,453,408,461,591,535,386,369,319,338,0
2,1768494664384,311,449,10040,18325,-57421,-13439,0,0,0,418,518,261,450,402,457,587,540,386,304,287,348,0
2,1768494664400,306,454,10045,19547,-57421,-13439,0,0,0,413,515,257,453,403,459,584,544,385,281,277,350,0
2,1768494664416,306,449,10045,21991,-57421,-14660,0,0,0,415,517,259,456,405,463,580,542,382,282,277,350,0
2,1768494664432,306,445,10050,23212,-57421,-14660,0,0,0,415,517,258,456,407,463,584,541,383,283,278,351,0
2,1768494664448,301,449,10054,21991,-56199,-14660,0,0,0,414,517,258,454,407,461,589,541,386,282,278,350,0
2,1768494664464,301,445,10050,20769,-56199,-13439,0,0,0,413,516,258,452,405,458,588,540,387,281,277,349,0
2,1768494664480,311,440,10050,19547,-57421,-13439,0,0,0,414,517,258,452,405,458,588,540,388,281,277,349,0
2,1768494664496,315,445,10050,19547,-58643,-13439,0,0,0,415,519,259,454,407,460,590,542,392,280,277,349,0
2,1768494664512,306,445,10045,19547,-57421,-13439,0,0,0,409,514,254,452,406,458,589,539,394,279,277,348,0
2,1768494664528,296,449,10045,20769,-57421,-14660,0,0,0,412,516,255,452,405,458,585,531,393,277,274,347,0
2,1768494664544,296,454,10045,21991,-57421,-14660,0,0,0,414,518,259,450,405,458,591,545,399,282,279,351,0
2,1768494664560,301,449,10045,19547,-57421,-14660,0,0,0,415,518,259,454,407,461,592,543,394,280,277,351,0
2,1768494664576,311,445,10045,18325,-57421,-14660,0,0,0,412,517,254,452,408,460,587,544,395,281,278,352,0
2,1768494664592,311,445,10050,17104,-57421,-14660,0,0,0,414,517,256,449,403,459,589,544,396,311,290,350,0
2,1768494664608,306,449,10059,18325,-57421,-14660,0,0,0,414,517,256,451,405,459,588,544,396,291,283,351,0
2,1768494664624,301,449,10045,18325,-57421,-14660,0,0,0,412,513,252,450,405,459,588,545,396,283,279,353,0
2,1768494664640,301,449,10035,18325,-57421,-13439,0,0,0,416,517,258,450,403,458,587,545,394,281,277,352,0
2,1768494664656,306,454,10045,18325,-57421,-14660,0,0,0,416,518,259,451,404,458,588,545,392,278,276,351,0
2,1768494664672,301,449,10054,18325,-57421,-14660,0,0,0,413,516,257,456,408,462,589,543,390,280,277,351,0
2,1768494664688,301,449,10059,20769,-57421,-14660,0,0,0,414,517,258,457,409,464,590,541,389,282,279,352,0
2,1768494664704,306,445,10054,24434,-57421,-14660,0,0,0,412,516,255,454,405,460,589,537,389,280,278,351,0
2,1768494664720,311,445,10045,25656,-57421,-14660,0,0,0,414,516,257,455,406,461,583,531,384,278,276,351,0
2,1768494664736,306,454,10045,23212,-58643,-14660,0,0,0,418,518,260,456,408,460,585,541,389,283,280,355,0
2,1768494664752,306,449,10045,21991,-58643,-14660,0,0,0,422,517,259,455,404,459,595,545,393,283,279,356,0
2,1768494664768,306,449,10054,20769,-58643,-14660,0,0,0,417,517,260,453,402,459,594,545,394,279,277,352,0
2,1768494664784,301,454,10064,20769,-58643,-14660,0,0,0,415,513,254,458,408,463,594,544,392,281,275,352,0
2,1768494664800,301,454,10050,20769,-57421,-14660,0,0,0,413,513,251,455,403,460,594,543,390,281,279,353,0
2,1768494664816,306,454,10045,20769,-57421,-14660,0,0,0,414,515,252,454,403,460,588,541,388,282,280,354,0
2,1768494664832,301,449,10045,18325,-57421,-14660,0,0,0,415,515,253,455,404,462,589,543,391,280,277,352,0
2,1768494664848,296,445,10050,17104,-56199,-14660,0,0,0,415,515,254,455,404,461,594,544,394,280,277,353,0
2,1768494664864,296,445,10054,15882,-56199,-14660,0,0,0,416,516,255,455,405,461,596,545,396,282,278,354,0
2,1768494664880,306,449,10050,14660,-56199,-12217,0,0,0,418,517,258,455,405,462,593,542,394,354,317,345,0
2,1768494664896,311,454,10045,14660,-56199,-12217,0,0,0,419,519,261,455,405,463,591,542,395,345,313,346,0
2,1768494664912,311,459,10045,14660,-56199,-12217,0,0,0,418,518,261,457,407,464,593,544,398,279,277,354,0
2,1768494664928,306,454,10045,13439,-56199,-13439,0,0,0,416,516,261,457,408,464,596,545,399,281,278,355,0
2,1768494664944,311,449,10050,12217,-54977,-14660,0,0,0,416,516,261,457,408,464,597,547,401,280,278,354,0
2,1768494664960,311,454,10050,10995,-54977,-14660,0,0,0,414,515,261,459,409,467,595,545,401,280,277,354,0
2,1768494664976,311,459,10054,12217,-54977,-13439,0,0,0,415,516,264,455,405,465,598,547,404,281,277,356,0
2,1768494664992,311,464,10054,15882,-56199,-13439,0,0,0,417,518,268,455,405,465,594,549,403,281,278,355,0
2,1768494665008,311,459,10059,19547,-56199,-14660,0,0,0,418,518,269,456,406,465,591,542,396,281,278,355,0
2,1768494665024,301,459,10064,21991,-57421,-14660,0,0,0,412,513,264,454,405,465,595,549,404,279,276,354,0
2,1768494665040,301,459,10054,21991,-57421,-13439,0,0,0,416,515,268,456,404,466,591,549,403,287,281,355,0
2,1768494665056,301,459,10050,21991,-57421,-13439,0,0,0,418,517,270,459,419,467,586,549,402,283,280,356,0
2,1768494665072,311,459,10050,23212,-57421,-14660,0,0,0,416,517,267,460,414,469,590,546,400,282,278,356,0
2,1768494665088,311,459,10050,26878,-57421,-15882,0,0,0,416,517,267,457,406,468,592,545,399,280,276,355,0
2,1768494665104,301,454,10045,28099,-57421,-17104,0,0,0,416,516,266,457,406,467,591,546,400,277,276,354,0
2,1768494665120,301,454,10045,28099,-58643,-14660,0,0,0,417,517,268,458,407,468,594,548,401,278,276,355,0
2,1768494665136,301,454,10045,24434,-57421,-14660,0,0,0,417,518,270,458,405,469,593,548,401,281,278,357,0
2,1768494665152,301,459,10054,21991,-57421,-15882,0,0,0,416,517,269,457,404,469,591,546,399,281,280,358,0
2,1768494665168,301,454,10054,21991,-58643,-15882,0,0,0,417,518,269,457,407,470,580,537,411,279,279,356,0
2,1768494665184,301,449,10050,21991,-58643,-13439,0,0,0,416,517,267,457,409,468,546,514,417,276,274,352,0
2,1768494665200,306,454,10045,23212,-57421,-13439,0,0,0,416,517,269,456,405,467,594,549,404,280,277,355,0
2,1768494665216,306,454,10045,23212,-56199,-13439,0,0,0,417,516,269,456,405,467,598,547,404,284,277,357,0
2,1768494665232,311,454,10050,24434,-57421,-14660,0,0,0,416,516,270,456,408,470,599,547,409,282,276,357,0
2,1768494665248,306,464,10050,24434,-57421,-14660,0,0,0,416,515,270,456,407,469,605,549,420,281,277,356,0
2,1768494665264,296,464,10054,24434,-58643,-14660,0,0,0,419,518,272,453,403,464,604,551,421,283,280,357,0
2,1768494665280,306,454,10059,24434,-57421,-14660,0,0,0,416,515,269,456,406,468,597,545,408,280,277,355,0
2,1768494665296,315,454,10059,24434,-57421,-14660,0,0,0,415,515,268,455,405,468,595,546,405,281,277,358,0
2,1768494665312,320,459,10064,25656,-57421,-14660,0,0,0,416,516,269,451,402,465,597,543,407,279,276,359,0
2,1768494665328,301,449,10054,26878,-58643,-14660,0,0,0,417,516,271,450,402,468,601,540,406,277,274,357,0
2,1768494665344,301,445,10050,25656,-58643,-14660,0,0,0,418,516,271,450,403,470,602,542,408,278,275,358,0
2,1768494665360,301,449,10050,23212,-57421,-14660,0,0,0,419,516,272,453,405,471,601,545,414,279,276,358,0
2,1768494665376,296,454,10050,20769,-56199,-14660,0,0,0,419,517,272,456,408,474,601,545,414,280,277,359,0
2,1768494665392,296,459,10054,20769,-56199,-14660,0,0,0,417,515,269,450,403,468,600,544,415,284,281,363,0
2,1768494665408,301,459,10054,20769,-57421,-13439,0,0,0,419,515,272,449,402,467,599,541,409,282,278,361,0
2,1768494665424,301,445,10059,20769,-57421,-13439,0,0,0,421,516,276,452,405,471,599,542,407,278,275,360,0
2,1768494665440,296,445,10069,19547,-57421,-13439,0,0,0,423,518,279,452,407,472,597,542,403,278,275,360,0
2,1768494665456,306,445,10059,19547,-56199,-13439,0,0,0,419,516,278,450,424,464,594,549,406,281,276,362,0
2,1768494665472,311,449,10045,19547,-56199,-13439,0,0,0,421,516,278,451,406,472,596,548,402,280,276,362,0
2,1768494665488,301,449,10045,20769,-56199,-14660,0,0,0,422,517,275,452,405,474,600,550,402,281,277,361,0
2,1768494665504,291,445,10045,18325,-56199,-13439,0,0,0,422,518,275,447,399,467,599,544,397,280,274,361,0
2,1768494665520,301,440,10054,15882,-56199,-13439,0,0,0,421,516,276,450,406,469,546,511,410,278,270,357,0
2,1768494665536,306,440,10064,13439,-54977,-13439,0,0,0,422,516,277,452,406,471,570,526,407,279,273,359,0
2,1768494665552,306,449,10069,12217,-54977,-13439,0,0,0,421,516,275,452,405,471,599,546,405,281,278,362,0
2,1768494665568,306,454,10059,12217,-54977,-14660,0,0,0,421,517,273,455,408,473,598,547,408,281,278,361,0
2,1768494665584,311,449,10050,12217,-54977,-13439,0,0,0,421,517,270,456,409,474,599,546,407,279,277,359,0
2,1768494665600,315,449,10050,12217,-54977,-13439,0,0,0,419,516,265,454,406,469,601,547,408,279,277,358,0
2,1768494665616,306,454,10050,13439,-54977,-13439,0,0,0,419,518,265,452,403,466,598,544,406,282,277,359,0
2,1768494665632,306,459,10054,12217,-56199,-13439,0,0,0,413,513,259,449,401,465,595,544,403,282,278,358,0
2,1768494665648,306,459,10054,9773,-54977,-13439,0,0,0,415,516,265,453,404,467,600,548,409,279,277,356,0
2,1768494665664,306,459,10050,9773,-54977,-13439,0,0,0,417,518,266,456,409,470,601,547,410,282,279,357,0
2,1768494665680,311,459,10050,9773,-56199,-12217,0,0,0,416,518,264,459,418,471,594,552,410,280,278,356,0
2,1768494665696,315,473,10064,12217,-57421,-13439,0,0,0,418,519,268,452,406,465,604,552,411,281,278,358,0
2,1768494665712,311,473,10054,13439,-56199,-13439,0,0,0,420,521,268,453,406,467,599,547,405,282,279,357,0
2,1768494665728,311,469,10040,14660,-56199,-14660,0,0,0,415,516,264,450,402,465,601,551,409,282,279,357,0
2,1768494665744,311,473,10045,15882,-56199,-14660,0,0,0,414,516,264,451,403,465,597,548,405,283,280,358,0
2,1768494665760,311,473,10059,15882,-56199,-14660,0,0,0,413,517,263,452,404,465,599,550,407,283,281,356,0
2,1768494665776,315,478,10064,15882,-57421,-14660,0,0,0,412,515,262,450,402,462,600,553,410,283,281,356,0
2,1768494665792,315,473,10059,17104,-57421,-14660,0,0,0,414,517,263,451,404,463,597,550,408,283,280,357,0
2,1768494665808,296,473,10054,18325,-57421,-14660,0,0,0,417,518,266,451,437,456,595,551,409,283,280,356,0
2,1768494665824,296,473,10050,19547,-56199,-14660,0,0,0,416,516,265,450,448,453,593,556,410,284,282,356,0
2,1768494665840,306,469,10050,18325,-56199,-14660,0,0,0,417,517,264,455,406,468,593,551,405,283,283,357,0
2,1768494665856,315,469,10054,17104,-57421,-14660,0,0,0,420,518,265,454,407,468,599,548,403,282,280,356,0
2,1768494665872,311,473,10054,17104,-57421,-14660,0,0,0,420,518,264,451,404,467,592,546,400,281,280,356,0
2,1768494665888,311,478,10059,19547,-58643,-14660,0,0,0,420,518,265,450,403,467,596,552,406,280,280,355,0
2,1768494665904,311,464,10054,21991,-57421,-14660,0,0,0,424,520,265,457,407,473,596,553,406,280,279,354,0
2,1768494665920,311,464,10050,23212,-57421,-14660,0,0,0,423,520,265,453,404,469,590,546,397,280,279,354,0
2,1768494665936,306,469,10045,21991,-57421,-14660,0,0,0,421,519,263,454,405,469,596,551,401,283,281,356,0
2,1768494665952,301,473,10050,21991,-57421,-14660,0,0,0,425,522,270,455,407,469,599,549,402,280,278,353,0
2,1768494665968,301,478,10059,21991,-58643,-14660,0,0,0,422,519,264,452,405,469,599,549,401,282,283,356,0
2,1768494665984,301,478,10064,23212,-58643,-14660,0,0,0,421,518,262,452,403,468,596,547,399,283,282,357,0
2,1768494666000,301,478,10064,24434,-58643,-14660,0,0,0,424,520,266,452,403,468,596,550,402,282,280,357,0
2,1768494666016,301,478,10059,24434,-58643,-14660,0,0,0,426,522,267,452,404,469,597,550,404,281,280,355,0
2,1768494666032,301,478,10064,25656,-58643,-14660,0,0,0,426,523,267,453,404,468,597,549,403,282,281,355,0
2,1768494666048,306,473,10064,28099,-58643,-14660,0,0,0,425,521,267,453,404,468,594,548,401,282,280,356,0
2,1768494666064,306,469,10059,31764,-58643,-15882,0,0,0,425,519,266,453,405,469,592,548,399,280,279,355,0
2,1768494666080,301,459,10054,29321,-58643,-15882,0,0,0,425,519,265,453,403,468,594,550,400,283,281,356,0
2,1768494666096,301,459,10054,26878,-59864,-15882,0,0,0,426,520,266,456,410,470,593,553,405,285,282,355,0
2,1768494666112,301,464,10050,25656,-58643,-15882,0,0,0,427,521,266,455,422,467,597,557,409,282,282,356,0
2,1768494666128,306,464,10050,24434,-58643,-14660,0,0,0,427,521,269,452,401,467,599,551,405,282,282,356,0
2,1768494666144,311,469,10050,24434,-58643,-14660,0,0,0,424,518,264,452,403,468,596,549,402,283,282,357,0
2,1768494666160,306,464,10054,23212,-59864,-14660,0,0,0,425,518,264,453,404,468,583,537,405,279,275,354,0
2,1768494666176,306,464,10054,23212,-58643,-14660,0,0,0,425,519,265,453,403,468,593,546,403,282,281,357,0
2,1768494666192,301,469,10064,25656,-57421,-14660,0,0,0,429,522,268,455,405,470,601,551,405,283,280,356,0
2,1768494666208,306,464,10059,28099,-57421,-14660,0,0,0,428,522,268,456,405,469,597,548,401,281,279,355,0
2,1768494666224,311,459,10054,30543,-58643,-15882,0,0,0,426,521,266,454,403,469,597,549,401,281,280,356,0
2,1768494666240,306,459,10059,31764,-58643,-14660,0,0,0,428,523,268,452,401,467,599,552,404,283,280,357,0
2,1768494666256,306,464,10064,29321,-59864,-14660,0,0,0,430,525,271,451,400,465,598,550,403,282,278,357,0
2,1768494666272,306,459,10064,29321,-59864,-15882,0,0,0,428,524,270,453,403,468,598,549,401,278,276,354,0
2,1768494666288,301,459,10050,28099,-59864,-14660,0,0,0,428,523,270,455,406,470,598,549,404,281,276,355,0
2,1768494666304,296,464,10045,26878,-58643,-14660,0,0,0,428,522,267,454,407,467,591,547,399,283,279,357,0
2,1768494666320,301,454,10045,24434,-58643,-15882,0,0,0,428,522,267,456,407,468,591,547,398,282,279,357,0
2,1768494666336,301,454,10054,23212,-58643,-15882,0,0,0,426,519,264,452,403,466,601,550,404,280,276,355,0
2,1768494666352,306,454,10059,23212,-58643,-14660,0,0,0,429,524,265,456,407,468,598,546,401,282,276,355,0
2,1768494666368,306,449,10054,25656,-57421,-14660,0,0,0,428,522,264,456,408,468,594,543,401,282,276,355,0
2,1768494666384,306,449,10050,26878,-57421,-14660,0,0,0,425,519,260,453,404,466,594,538,401,277,272,352,0
2,1768494666400,306,449,10050,28099,-57421,-14660,0,0,0,424,519,258,458,408,470,596,540,401,282,276,355,0
2,1768494666416,306,440,10050,26878,-58643,-15882,0,0,0,422,517,257,458,410,470,599,543,402,281,275,354,0
2,1768494666432,301,440,10050,26878,-58643,-15882,0,0,0,425,521,262,457,410,469,598,542,399,282,276,357,0
2,1768494666448,301,454,10054,28099,-58643,-14660,0,0,0,426,522,263,455,407,468,596,542,399,283,277,359,0
2,1768494666464,301,449,10050,26878,-58643,-14660,0,0,0,426,522,263,454,405,468,595,542,400,282,276,358,0
2,1768494666480,301,440,10050,25656,-58643,-14660,0,0,0,430,524,269,458,408,473,594,541,397,282,276,357,0
2,1768494666496,301,440,10050,23212,-59864,-14660,0,0,0,428,523,266,458,409,472,595,542,395,282,276,357,0
2,1768494666512,301,445,10050,23212,-59864,-14660,0,0,0,424,521,265,458,407,471,599,541,395,282,276,358,0
2,1768494666528,311,449,10054,26878,-58643,-15882,0,0,0,424,521,270,457,406,470,593,538,392,287,278,359,0
2,1768494666544,311,445,10054,28099,-58643,-15882,0,0,0,424,521,272,455,406,472,593,539,393,291,279,359,0
2,1768494666560,306,440,10050,29321,-58643,-15882,0,0,0,424,521,271,458,410,472,603,546,406,291,279,357,0
2,1768494666576,301,440,10050,28099,-58643,-14660,0,0,0,421,519,271,449,404,467,594,538,398,292,279,354,0
2,1768494666592,301,440,10050,26878,-58643,-14660,0,0,0,422,518,270,451,404,467,596,536,398,298,285,355,0
2,1768494666608,301,440,10054,26878,-59864,-14660,0,0,0,429,522,274,452,408,466,597,534,394,295,282,354,0
2,1768494666624,296,440,10059,26878,-58643,-15882,0,0,0,427,520,270,453,410,463,597,533,391,295,282,354,0
2,1768494666640,296,445,10059,28099,-58643,-14660,0,0,0,423,518,268,453,412,464,595,532,384,299,283,353,0
2,1768494666656,306,449,10069,29321,-58643,-14660,0,0,0,422,516,262,452,412,463,592,532,381,300,279,354,0
2,1768494666672,306,445,10069,31764,-58643,-14660,0,0,0,423,517,259,451,410,461,591,527,380,290,270,355,0
2,1768494666688,306,440,10078,36651,-59864,-15882,0,0,0,423,520,264,452,407,462,589,523,380,282,266,359,0
2,1768494666704,306,435,10074,40317,-59864,-17104,0,0,0,424,522,269,454,403,465,587,526,383,284,266,363,0
2,1768494666720,301,425,10054,41538,-59864,-18325,0,0,0,428,523,273,453,402,465,587,525,384,284,265,362,0
2,1768494666736,301,421,10045,37873,-61086,-18325,0,0,0,432,526,275,456,405,467,590,528,387,286,266,361,0
2,1768494666752,301,421,10045,31764,-61086,-17104,0,0,0,429,524,269,459,406,469,595,530,394,281,262,363,0
2,1768494666768,301,425,10050,29321,-59864,-15882,0,0,0,428,524,278,459,407,475,593,523,391,281,259,364,0
2,1768494666784,301,425,10050,28099,-59864,-15882,0,0,0,425,525,277,459,408,473,585,522,390,281,261,364,0
2,1768494666800,291,421,10054,28099,-59864,-15882,0,0,0,424,525,264,461,415,472,575,529,390,292,265,364,0
2,1768494666816,296,416,10050,28099,-61086,-15882,0,0,0,433,527,285,454,403,467,587,520,384,279,258,364,0
2,1768494666832,296,411,10050,28099,-59864,-15882,0,0,0,426,526,278,458,406,470,583,520,385,282,260,365,0
2,1768494666848,296,411,10054,28099,-59864,-17104,0,0,0,425,528,274,456,408,468,584,522,386,281,257,363,0
2,1768494666864,291,416,10059,28099,-59864,-17104,0,0,0,427,529,274,456,407,467,585,520,384,283,260,367,0
2,1768494666880,291,416,10059,26878,-59864,-17104,0,0,0,428,529,274,455,406,467,583,517,383,283,263,368,0
2,1768494666896,287,416,10059,25656,-59864,-15882,0,0,0,433,529,271,456,409,466,582,514,381,281,259,365,0
2,1768494666912,287,416,10064,25656,-59864,-15882,0,0,0,434,529,274,458,409,468,577,506,382,279,256,365,0
2,1768494666928,291,421,10069,28099,-59864,-15882,0,0,0,432,528,276,456,407,468,580,500,382,349,325,354,0
2,1768494666944,287,416,10064,30543,-58643,-15882,0,0,0,428,527,277,455,405,468,590,500,382,435,409,339,0
2,1768494666960,287,411,10054,31764,-58643,-15882,0,0,0,427,526,279,458,405,471,590,500,382,432,405,339,0
2,1768494666976,287,402,10054,31764,-59864,-17104,0,0,0,427,524,272,460,408,469,590,496,379,433,408,340,0
2,1768494666992,291,402,10050,30543,-59864,-17104,0,0,0,428,527,274,456,405,466,589,494,378,433,408,340,0
2,1768494667008,291,402,10050,30543,-61086,-15882,0,0,0,426,525,273,456,407,468,586,493,381,437,413,345,0
2,1768494667024,287,411,10059,30543,-61086,-14660,0,0,0,428,527,274,455,406,466,586,493,382,434,405,342,0
2,1768494667040,287,416,10064,30543,-59864,-14660,0,0,0,425,526,267,454,406,463,586,493,385,433,400,341,0
2,1768494667056,291,411,10069,31764,-59864,-15882,0,0,0,422,521,263,455,407,465,586,491,383,462,427,345,0
2,1768494667072,291,402,10069,34208,-61086,-18325,0,0,0,422,521,267,460,410,471,591,491,388,458,423,341,0
2,1768494667088,282,402,10064,35430,-61086,-18325,0,0,0,424,524,264,457,410,468,588,487,384,455,420,341,0
2,1768494667104,282,402,10054,36651,-61086,-18325,0,0,0,424,522,260,454,409,464,588,487,385,428,393,343,0
2,1768494667120,282,392,10054,35430,-61086,-17104,0,0,0,425,522,259,458,410,467,590,491,385,420,382,344,0
2,1768494667136,277,382,10059,32986,-61086,-17104,0,0,0,426,522,259,462,412,468,586,488,382,423,384,345,0
2,1768494667152,282,387,10064,31764,-59864,-17104,0,0,0,428,522,259,463,412,467,582,484,381,423,385,346,0
2,1768494667168,282,387,10054,31764,-59864,-17104,0,0,0,429,522,259,463,414,467,585,486,382,427,390,344,0
2,1768494667184,282,392,10054,31764,-61086,-15882,0,0,0,429,522,258,462,413,466,583,484,382,452,417,338,0
2,1768494667200,282,392,10054,31764,-61086,-15882,0,0,0,431,523,258,459,411,464,580,485,386,434,400,341,0
2,1768494667216,282,387,10054,30543,-59864,-15882,0,0,0,429,522,256,460,416,466,583,500,391,284,250,373,0
2,1768494667232,287,382,10064,29321,-59864,-15882,0,0,0,428,522,257,456,413,463,583,495,390,283,250,374,0
2,1768494667248,287,382,10064,29321,-59864,-15882,0,0,0,426,521,256,459,418,464,582,492,388,282,248,373,0
2,1768494667264,287,387,10059,29321,-59864,-15882,0,0,0,428,521,256,459,418,464,580,493,389,283,251,377,0
2,1768494667280,287,392,10059,29321,-58643,-15882,0,0,0,431,525,260,461,420,467,582,493,388,282,248,376,0
2,1768494667296,282,382,10059,26878,-58643,-15882,0,0,0,426,520,253,462,419,466,579,492,387,280,245,373,0
2,1768494667312,277,378,10059,26878,-58643,-15882,0,0,0,431,523,255,461,416,464,583,491,388,285,249,376,0
2,1768494667328,282,378,10059,26878,-58643,-15882,0,0,0,428,521,253,459,416,464,590,493,392,280,245,372,0
2,1768494667344,282,368,10064,28099,-58643,-15882,0,0,0,431,521,255,458,415,465,591,495,397,280,244,372,0
2,1768494667360,277,368,10064,28099,-57421,-15882,0,0,0,432,521,257,460,417,464,589,493,396,280,247,374,0
2,1768494667376,277,373,10059,25656,-57421,-15882,0,0,0,430,520,256,460,418,464,589,488,391,347,278,366,0
2,1768494667392,282,378,10059,23212,-57421,-14660,0,0,0,429,521,255,457,414,467,589,488,395,362,284,371,0
2,1768494667408,287,387,10069,23212,-57421,-14660,0,0,0,429,522,255,455,412,468,590,496,402,283,246,386,0
2,1768494667424,287,392,10069,25656,-58643,-15882,0,0,0,429,522,254,457,412,466,590,498,398,282,244,379,0
2,1768494667440,277,378,10059,26878,-58643,-15882,0,0,0,431,524,257,462,415,469,582,495,394,284,247,381,0
2,1768494667456,277,368,10059,28099,-57421,-15882,0,0,0,431,524,259,465,420,475,579,494,395,284,247,380,0
2,1768494667472,282,368,10064,28099,-57421,-15882,0,0,0,434,526,260,460,415,472,582,499,397,284,248,385,0
2,1768494667488,287,368,10074,31764,-58643,-15882,0,0,0,445,525,259,461,424,469,586,494,392,283,245,385,0
2,1768494667504,282,368,10074,34208,-58643,-15882,0,0,0,445,527,258,461,417,469,581,493,384,283,245,381,0
2,1768494667520,282,368,10069,35430,-58643,-17104,0,0,0,437,523,255,466,420,470,581,493,388,284,245,381,0
2,1768494667536,282,363,10069,39095,-58643,-18325,0,0,0,437,527,259,462,419,480,575,492,392,281,244,389,0
2,1768494667552,287,363,10069,42760,-58643,-18325,0,0,0,440,525,261,463,419,480,578,491,395,283,241,393,0
2,1768494667568,282,363,10069,48869,-61086,-19547,0,0,0,442,523,263,464,418,480,573,489,392,282,239,396,0
2,1768494667584,282,358,10069,52534,-61086,-20769,0,0,0,446,525,263,466,418,477,571,484,388,285,239,394,0
2,1768494667600,287,354,10074,53756,-62308,-23212,0,0,0,449,528,264,467,420,475,573,484,386,287,240,393,0
2,1768494667616,277,344,10059,51312,-63529,-24434,0,0,0,450,528,265,466,419,476,571,486,380,285,237,396,0
2,1768494667632,272,339,10054,46425,-63529,-23212,0,0,0,451,526,263,466,417,476,569,488,377,286,235,397,0
2,1768494667648,272,330,10054,43982,-62308,-20769,0,0,0,452,526,262,469,420,478,571,488,382,289,237,400,0
2,1768494667664,268,330,10064,39095,-59864,-19547,0,0,0,452,526,266,468,422,476,575,489,382,288,235,401,0
2,1768494667680,268,330,10069,35430,-58643,-18325,0,0,0,455,526,264,473,426,480,571,486,382,287,235,400,0
2,1768494667696,277,330,10059,31764,-57421,-17104,0,0,0,454,526,262,470,423,478,571,480,383,286,235,399,0
2,1768494667712,282,330,10059,31764,-57421,-17104,0,0,0,451,528,261,470,424,479,574,486,384,290,241,401,0
2,1768494667728,282,335,10059,32986,-57421,-17104,0,0,0,453,535,271,471,424,480,566,487,384,334,256,395,0
2,1768494667744,277,325,10059,34208,-58643,-17104,0,0,0,455,532,267,470,423,480,574,484,384,291,236,405,0
2,1768494667760,268,320,10059,32986,-58643,-18325,0,0,0,459,535,270,470,423,476,574,484,377,287,237,405,0
2,1768494667776,268,315,10059,30543,-57421,-17104,0,0,0,457,533,272,474,427,482,570,480,382,284,233,404,0
2,1768494667792,268,315,10064,28099,-56199,-15882,0,0,0,460,532,273,477,430,486,571,483,386,287,232,404,0
2,1768494667808,272,320,10064,28099,-54977,-15882,0,0,0,459,530,271,474,430,483,575,486,382,285,231,404,0
2,1768494667824,263,320,10054,25656,-54977,-14660,0,0,0,458,530,271,471,427,480,575,483,374,284,230,406,0
2,1768494667840,263,315,10050,20769,-56199,-13439,0,0,0,460,530,272,472,427,480,574,479,374,286,232,408,0
2,1768494667856,272,311,10050,14660,-53756,-13439,0,0,0,461,531,274,475,430,483,576,482,380,288,234,407,0
2,1768494667872,277,311,10054,7330,-51312,-12217,0,0,0,461,530,272,477,430,484,576,485,383,286,233,406,0
2,1768494667888,268,320,10059,2443,-50090,-12217,0,0,0,459,529,271,474,427,483,572,482,381,283,230,405,0
2,1768494667904,277,330,10074,1221,-50090,-12217,0,0,0,458,528,271,471,425,481,575,482,383,283,229,405,0
2,1768494667920,282,330,10074,0,-50090,-12217,0,0,0,458,528,270,474,428,484,580,488,388,285,233,406,0
2,1768494667936,282,330,10069,1221,-52534,-12217,0,0,0,459,531,272,475,430,485,580,487,388,287,236,409,0
2,1768494667952,277,335,10059,1221,-52534,-12217,0,0,0,459,532,272,477,431,488,572,472,386,284,233,406,0
2,1768494667968,277,339,10059,2443,-52534,-12217,0,0,0,457,529,269,476,429,486,574,486,387,285,234,406,0
2,1768494667984,282,339,10069,3665,-52534,-12217,0,0,0,460,532,272,473,426,482,578,490,387,287,235,407,0
2,1768494668000,272,339,10069,3665,-52534,-12217,0,0,0,459,530,272,477,432,487,575,490,384,285,234,406,0
2,1768494668016,277,344,10064,4886,-53756,-12217,0,0,0,459,530,271,478,433,488,579,490,384,286,235,407,0
2,1768494668032,287,344,10059,6108,-54977,-12217,0,0,0,457,528,268,478,432,486,580,492,386,288,237,409,0
2,1768494668048,287,344,10059,6108,-53756,-13439,0,0,0,458,529,269,477,430,486,578,494,385,288,238,408,0
2,1768494668064,287,349,10069,6108,-53756,-13439,0,0,0,459,531,270,478,429,487,578,494,385,287,238,405,0
2,1768494668080,287,354,10074,7330,-53756,-13439,0,0,0,458,529,268,478,430,485,580,495,387,285,237,404,0
2,1768494668096,282,358,10074,9773,-53756,-13439,0,0,0,458,530,270,477,429,485,580,494,384,285,237,405,0
2,1768494668112,277,354,10064,12217,-54977,-13439,0,0,0,462,533,273,483,434,491,580,497,387,285,237,405,0
2,1768494668128,272,349,10059,13439,-54977,-13439,0,0,0,462,533,273,479,432,487,577,494,384,289,240,410,0
2,1768494668144,277,354,10054,14660,-54977,-13439,0,0,0,461,533,274,477,431,487,581,496,385,287,240,407,0
2,1768494668160,282,358,10054,14660,-54977,-12217,0,0,0,459,530,272,476,431,487,581,499,387,284,237,406,0
2,1768494668176,291,358,10059,14660,-54977,-12217,0,0,0,458,530,270,478,432,487,578,500,391,291,240,407,0
2,1768494668192,291,354,10064,17104,-54977,-13439,0,0,0,456,529,266,475,428,483,576,496,384,288,240,408,0
2,1768494668208,282,354,10064,18325,-56199,-14660,0,0,0,459,531,270,476,429,485,579,497,386,287,240,409,0
2,1768494668224,282,354,10064,18325,-56199,-14660,0,0,0,459,531,270,476,429,485,581,498,388,285,238,406,0
2,1768494668240,291,354,10064,17104,-56199,-13439,0,0,0,458,530,270,474,427,484,580,499,388,285,239,405,0
2,1768494668256,296,358,10069,15882,-56199,-13439,0,0,0,456,528,267,474,427,484,580,498,387,285,240,406,0
2,1768494668272,287,363,10074,15882,-56199,-13439,0,0,0,456,528,267,474,427,485,581,498,387,285,240,407,0
2,1768494668288,282,354,10064,15882,-56199,-14660,0,0,0,460,532,271,475,429,485,582,499,388,286,241,407,0
2,1768494668304,282,354,10054,17104,-56199,-14660,0,0,0,458,531,270,476,428,485,580,500,386,286,242,407,0
2,1768494668320,272,354,10054,15882,-54977,-14660,0,0,0,459,532,274,476,429,486,578,501,389,286,241,405,0
2,1768494668336,272,358,10054,15882,-54977,-14660,0,0,0,457,530,270,480,433,490,579,497,385,285,240,404,0
2,1768494668352,282,363,10059,15882,-56199,-14660,0,0,0,455,528,267,480,433,491,577,504,389,282,240,404,0
2,1768494668368,282,368,10059,14660,-56199,-14660,0,0,0,462,536,280,481,435,493,583,503,390,285,240,405,0
2,1768494668384,287,373,10059,14660,-56199,-14660,0,0,0,455,529,277,472,423,485,583,502,390,286,240,406,0
2,1768494668400,282,373,10064,14660,-56199,-14660,0,0,0,460,533,281,473,426,486,577,500,387,286,243,407,0
2,1768494668416,282,363,10050,15882,-57421,-13439,0,0,0,461,535,279,477,437,486,573,503,388,284,240,404,0
2,1768494668432,287,358,10050,15882,-57421,-13439,0,0,0,459,533,277,478,435,490,574,500,385,283,240,404,0
2,1768494668448,287,358,10069,17104,-56199,-13439,0,0,0,457,531,279,478,433,494,576,497,383,283,241,403,0
2,1768494668464,287,363,10069,18325,-56199,-13439,0,0,0,456,531,278,479,433,494,579,496,383,338,268,395,0
2,1768494668480,277,368,10064,19547,-57421,-14660,0,0,0,455,531,276,478,430,494,582,497,386,340,269,394,0
2,1768494668496,272,373,10054,18325,-57421,-13439,0,0,0,455,531,276,477,430,494,582,500,387,282,243,403,0
2,1768494668512,277,368,10054,18325,-57421,-13439,0,0,0,454,530,276,477,431,494,582,501,386,282,243,403,0
2,1768494668528,287,368,10064,18325,-56199,-13439,0,0,0,455,531,280,478,431,497,577,495,385,281,240,401,0
2,1768494668544,291,368,10064,20769,-56199,-13439,0,0,0,456,531,280,477,429,496,570,484,381,281,240,404,0
2,1768494668560,291,373,10064,21991,-56199,-14660,0,0,0,457,531,282,481,430,500,580,497,382,284,241,406,0
2,1768494668576,287,373,10054,21991,-57421,-14660,0,0,0,459,533,283,477,428,492,583,504,389,292,247,407,0
2,1768494668592,272,368,10050,19547,-57421,-15882,0,0,0,457,533,279,475,427,490,580,503,388,362,280,395,0
2,1768494668608,272,373,10054,18325,-57421,-14660,0,0,0,458,533,282,479,430,496,583,503,387,290,248,407,0
2,1768494668624,277,373,10069,17104,-57421,-13439,0,0,0,460,534,283,475,428,492,579,503,386,284,243,407,0
2,1768494668640,282,368,10074,17104,-57421,-13439,0,0,0,464,537,285,475,425,489,578,501,385,284,242,406,0
2,1768494668656,282,363,10069,18325,-57421,-13439,0,0,0,461,534,280,476,428,491,580,503,389,285,242,406,0
2,1768494668672,277,363,10064,19547,-57421,-14660,0,0,0,460,534,279,475,429,490,579,501,386,286,243,407,0
2,1768494668688,282,378,10054,20769,-58643,-14660,0,0,0,465,537,282,474,428,490,580,503,387,286,244,407,0
2,1768494668704,282,378,10054,20769,-58643,-13439,0,0,0,464,536,281,476,429,492,579,505,389,285,245,407,0
2,1768494668720,282,378,10054,20769,-57421,-13439,0,0,0,461,534,281,475,428,491,578,505,388,285,244,407,0
2,1768494668736,287,363,10059,19547,-57421,-14660,0,0,0,462,533,283,474,427,490,580,504,388,286,245,408,0
2,1768494668752,287,363,10059,19547,-57421,-13439,0,0,0,464,534,283,476,429,491,581,505,388,287,247,410,0
2,1768494668768,291,368,10054,19547,-58643,-13439,0,0,0,466,538,284,474,427,490,580,507,389,284,243,406,0
2,1768494668784,287,368,10054,18325,-57421,-13439,0,0,0,463,535,283,477,430,493,580,504,388,284,243,407,0
2,1768494668800,277,368,10069,17104,-57421,-13439,0,0,0,462,535,280,475,430,492,580,505,389,284,245,407,0
2,1768494668816,272,373,10069,17104,-57421,-15882,0,0,0,461,533,279,481,435,495,580,509,391,287,247,408,0
2,1768494668832,272,378,10059,15882,-56199,-13439,0,0,0,461,534,285,479,430,495,580,506,390,287,247,408,0
2,1768494668848,277,382,10059,14660,-56199,-13439,0,0,0,459,534,286,478,428,494,577,501,385,286,245,409,0
2,1768494668864,287,368,10064,14660,-56199,-13439,0,0,0,460,534,290,476,425,493,580,505,389,285,243,405,0
2,1768494668880,291,363,10069,14660,-57421,-13439,0,0,0,458,532,286,474,425,492,541,477,404,284,241,404,0
2,1768494668896,291,363,10064,15882,-57421,-13439,0,0,0,458,534,288,474,426,492,559,492,398,284,243,404,0
2,1768494668912,282,373,10059,15882,-57421,-14660,0,0,0,455,532,288,471,423,490,578,505,390,284,245,406,0
2,1768494668928,277,378,10054,14660,-57421,-13439,0,0,0,451,530,286,471,423,492,578,503,389,285,246,407,0
2,1768494668944,277,382,10054,13439,-57421,-13439,0,0,0,450,532,285,472,426,494,579,503,391,284,246,406,0
2,1768494668960,287,382,10059,12217,-57421,-13439,0,0,0,452,531,286,473,425,493,580,508,395,281,244,404,0
2,1768494668976,296,387,10064,12217,-56199,-13439,0,0,0,452,530,286,473,426,494,579,508,392,284,244,406,0
2,1768494668992,291,392,10069,14660,-56199,-13439,0,0,0,452,532,287,467,422,490,578,507,390,284,246,406,0
2,1768494669008,282,387,10078,15882,-57421,-13439,0,0,0,453,533,287,471,425,493,580,504,388,283,246,408,0
2,1768494669024,277,387,10078,19547,-57421,-13439,0,0,0,453,533,285,470,423,490,579,508,390,284,245,404,0
2,1768494669040,277,378,10059,20769,-56199,-14660,0,0,0,450,531,278,470,426,490,573,510,390,332,265,399,0
2,1768494669056,277,378,10050,20769,-56199,-14660,0,0,0,450,530,280,471,427,490,580,504,388,291,252,409,0
2,1768494669072,277,382,10054,18325,-56199,-13439,0,0,0,450,532,281,468,422,486,580,504,388,286,250,411,0
2,1768494669088,277,387,10064,18325,-57421,-13439,0,0,0,451,533,281,471,423,490,580,502,386,285,247,408,0
2,1768494669104,287,387,10074,19547,-57421,-14660,0,0,0,452,533,282,475,426,492,579,504,386,288,247,405,0
2,1768494669120,287,378,10069,20769,-56199,-14660,0,0,0,453,532,280,473,424,490,582,509,391,285,245,405,0
2,1768494669136,287,378,10059,21991,-56199,-14660,0,0,0,454,533,282,471,423,489,581,508,390,280,243,403,0
2,1768494669152,277,378,10050,23212,-57421,-13439,0,0,0,455,535,286,471,423,490,580,507,388,281,243,403,0
2,1768494669168,277,382,10054,23212,-57421,-13439,0,0,0,454,534,283,473,425,492,581,510,391,285,246,407,0
2,1768494669184,277,382,10064,23212,-57421,-13439,0,0,0,454,534,282,477,430,496,581,510,390,284,246,407,0
2,1768494669200,282,382,10069,23212,-57421,-13439,0,0,0,453,533,284,473,426,493,583,509,391,282,245,406,0
2,1768494669216,287,382,10064,23212,-57421,-13439,0,0,0,457,536,286,471,424,489,580,508,389,282,245,406,0
2,1768494669232,291,382,10059,23212,-57421,-14660,0,0,0,456,535,284,473,425,493,580,505,386,285,246,407,0
2,1768494669248,287,378,10054,21991,-57421,-14660,0,0,0,455,535,285,472,426,492,581,507,387,284,248,408,0
2,1768494669264,287,373,10050,20769,-58643,-14660,0,0,0,452,532,279,470,424,488,581,508,387,281,245,405,0
2,1768494669280,296,378,10054,19547,-58643,-14660,0,0,0,454,534,284,472,426,492,580,506,387,287,249,409,0
2,1768494669296,296,382,10064,19547,-57421,-14660,0,0,0,452,531,280,474,427,493,579,505,387,283,246,406,0
2,1768494669312,287,387,10069,20769,-57421,-14660,0,0,0,458,535,285,476,428,494,579,503,385,283,246,407,0
2,1768494669328,287,382,10069,20769,-57421,-14660,0,0,0,457,534,283,475,428,495,581,500,384,280,244,405,0
2,1768494669344,287,382,10059,21991,-57421,-14660,0,0,0,455,533,281,475,427,494,583,506,389,283,245,406,0
2,1768494669360,287,382,10059,20769,-58643,-14660,0,0,0,455,533,281,474,425,494,585,509,392,287,249,409,0
2,1768494669376,287,387,10069,19547,-57421,-14660,0,0,0,454,532,282,473,424,493,583,507,391,287,248,409,0
2,1768494669392,287,387,10074,19547,-57421,-14660,0,0,0,456,532,282,472,425,492,578,498,390,284,246,407,0
2,1768494669408,287,382,10059,20769,-56199,-14660,0,0,0,458,535,283,473,426,492,575,492,387,283,245,405,0
2,1768494669424,287,378,10050,23212,-56199,-14660,0,0,0,456,534,282,473,424,492,576,503,384,283,244,405,0
2,1768494669440,291,378,10050,24434,-57421,-14660,0,0,0,455,533,282,475,427,495,581,508,392,286,248,409,0
2,1768494669456,287,378,10054,24434,-57421,-14660,0,0,0,455,533,282,473,425,493,585,510,392,287,248,409,0
2,1768494669472,287,382,10059,24434,-58643,-14660,0,0,0,457,533,283,477,439,493,578,510,394,286,249,410,0
2,1768494669488,282,387,10059,21991,-57421,-14660,0,0,0,457,534,283,476,426,495,582,506,389,285,247,409,0
2,1768494669504,282,382,10064,20769,-56199,-14660,0,0,0,459,536,287,476,426,495,579,506,389,285,245,407,0
2,1768494669520,291,382,10064,21991,-57421,-15882,0,0,0,459,535,287,476,426,495,582,502,386,371,287,396,0
2,1768494669536,291,368,10059,21991,-57421,-14660,0,0,0,458,535,284,473,423,492,580,505,387,299,251,403,0
2,1768494669552,291,368,10050,18325,-58643,-14660,0,0,0,458,535,283,477,427,494,581,506,389,285,246,408,0
2,1768494669568,282,378,10045,15882,-58643,-13439,0,0,0,458,535,283,475,425,493,585,508,391,287,246,409,0
2,1768494669584,277,382,10054,15882,-58643,-13439,0,0,0,459,536,286,470,421,489,583,507,389,286,245,410,0
2,1768494669600,282,392,10069,17104,-57421,-14660,0,0,0,459,536,287,470,422,489,581,507,389,285,246,410,0
2,1768494669616,282,392,10064,18325,-57421,-14660,0,0,0,457,535,285,473,426,493,583,510,392,284,247,409,0
2,1768494669632,287,382,10054,19547,-57421,-13439,0,0,0,456,534,284,475,428,495,583,510,393,283,246,409,0
2,1768494669648,282,378,10050,18325,-58643,-13439,0,0,0,458,535,284,474,426,493,581,508,392,283,246,409,0
2,1768494669664,272,378,10050,14660,-57421,-13439,0,0,0,457,536,285,475,428,494,580,505,391,287,247,410,0
2,1768494669680,272,382,10054,12217,-57421,-13439,0,0,0,457,536,285,475,427,494,584,508,392,290,248,407,0
2,1768494669696,287,387,10069,12217,-57421,-13439,0,0,0,459,536,285,473,426,492,580,503,387,279,242,405,0
2,1768494669712,291,387,10074,17104,-57421,-13439,0,0,0,458,535,285,473,426,494,583,506,390,284,247,409,0
2,1768494669728,291,397,10074,23212,-59864,-14660,0,0,0,455,534,282,473,427,494,581,506,390,284,246,407,0
2,1768494669744,291,397,10059,24434,-58643,-14660,0,0,0,456,534,284,473,425,493,585,507,391,284,245,408,0
2,1768494669760,291,387,10059,25656,-57421,-14660,0,0,0,456,534,285,475,428,495,582,507,389,285,246,409,0
2,1768494669776,287,387,10059,28099,-57421,-15882,0,0,0,457,534,285,473,425,493,587,509,393,286,247,410,0
2,1768494669792,287,387,10064,30543,-57421,-15882,0,0,0,459,535,286,473,424,493,582,504,389,285,247,410,0
2,1768494669808,282,392,10064,31764,-58643,-15882,0,0,0,457,533,283,478,428,498,551,485,404,284,245,408,0
2,1768494669824,282,378,10064,32986,-58643,-15882,0,0,0,458,534,284,477,427,496,561,494,405,284,245,409,0
2,1768494669840,282,373,10069,34208,-58643,-15882,0,0,0,461,538,286,471,423,492,585,511,395,285,246,410,0
2,1768494669856,282,373,10064,35430,-58643,-15882,0,0,0,461,538,285,471,426,493,580,507,391,285,246,409,0
2,1768494669872,282,378,10064,39095,-58643,-15882,0,0,0,462,538,287,472,427,493,580,503,388,284,246,409,0
2,1768494669888,282,368,10069,40317,-59864,-17104,0,0,0,460,535,284,469,424,491,585,508,394,283,245,410,0
2,1768494669904,287,363,10059,36651,-59864,-17104,0,0,0,459,536,284,472,425,493,580,505,392,286,244,411,0
2,1768494669920,287,363,10059,35430,-58643,-15882,0,0,0,465,544,288,475,429,496,584,503,393,285,247,411,0
2,1768494669936,282,368,10074,34208,-58643,-17104,0,0,0,467,547,289,475,428,496,585,500,389,285,246,412,0
2,1768494669952,272,354,10074,31764,-58643,-17104,0,0,0,464,546,287,474,428,496,585,505,395,285,243,411,0
2,1768494669968,272,354,10069,29321,-58643,-15882,0,0,0,466,547,288,473,426,495,586,506,395,285,244,411,0
2,1768494669984,287,358,10069,26878,-58643,-15882,0,0,0,465,546,284,470,423,494,585,506,396,284,245,412,0
2,1768494670000,287,358,10064,25656,-58643,-15882,0,0,0,465,546,286,475,428,497,582,502,391,283,244,411,0
2,1768494670016,282,363,10059,24434,-58643,-15882,0,0,0,466,547,288,475,428,497,584,501,391,284,244,412,0
2,1768494670032,282,358,10050,21991,-58643,-14660,0,0,0,468,549,290,471,424,493,584,503,394,285,246,413,0
2,1768494670048,277,354,10050,19547,-57421,-14660,0,0,0,466,547,286,470,423,492,581,503,393,285,247,413,0
2,1768494670064,277,358,10064,18325,-57421,-14660,0,0,0,464,546,284,471,424,492,582,503,393,284,245,412,0
2,1768494670080,282,358,10069,19547,-57421,-14660,0,0,0,465,547,287,472,423,492,582,499,394,282,242,410,0
2,1768494670096,287,358,10074,23212,-58643,-14660,0,0,0,465,546,285,474,425,494,582,495,394,280,241,409,0
2,1768494670112,287,363,10078,28099,-59864,-14660,0,0,0,464,548,285,474,426,494,589,509,398,283,242,411,0
2,1768494670128,277,354,10069,30543,-59864,-15882,0,0,0,465,548,287,477,428,497,588,504,396,284,244,413,0
2,1768494670144,268,349,10054,30543,-59864,-17104,0,0,0,469,552,290,477,427,497,583,498,388,283,241,409,0
2,1768494670160,268,349,10054,30543,-58643,-15882,0,0,0,466,549,287,476,426,495,583,498,388,286,246,414,0
2,1768494670176,268,354,10059,30543,-57421,-15882,0,0,0,465,550,284,476,426,494,583,501,391,286,246,414,0
2,1768494670192,277,358,10069,32986,-58643,-15882,0,0,0,464,548,285,476,426,495,587,501,392,286,245,414,0
2,1768494670208,277,354,10069,32986,-58643,-15882,0,0,0,467,551,289,471,422,491,583,497,392,293,245,411,0
2,1768494670224,287,354,10074,39095,-61086,-17104,0,0,0,464,550,289,475,441,492,579,500,397,285,243,412,0
2,1768494670240,282,344,10078,45204,-62308,-17104,0,0,0,464,550,287,474,432,492,582,498,396,282,241,411,0
2,1768494670256,277,335,10083,48869,-63529,-18325,0,0,0,465,549,286,477,430,495,583,492,395,282,236,410,0
2,1768494670272,277,330,10083,51312,-63529,-18325,0,0,0,470,543,286,481,437,497,547,469,405,284,234,410,0
2,1768494670288,277,330,10064,51312,-63529,-18325,0,0,0,474,546,288,481,434,495,555,471,400,283,235,410,0
2,1768494670304,277,325,10054,50090,-64751,-17104,0,0,0,476,545,286,478,428,493,579,485,391,286,235,411,0
2,1768494670320,282,311,10045,43982,-63529,-17104,0,0,0,478,542,283,478,426,492,578,485,393,288,234,413,0
2,1768494670336,272,311,10040,35430,-61086,-17104,0,0,0,479,545,285,480,430,493,581,489,396,286,233,413,0
2,1768494670352,272,315,10045,26878,-58643,-17104,0,0,0,480,545,285,481,434,492,578,493,400,285,235,414,0
2,1768494670368,272,306,10050,19547,-56199,-15882,0,0,0,478,541,285,482,429,496,584,489,398,285,232,412,0
2,1768494670384,272,306,10054,17104,-54977,-14660,0,0,0,476,539,285,477,428,493,583,490,398,293,237,411,0
2,1768494670400,277,320,10069,15882,-53756,-13439,0,0,0,477,539,286,475,424,492,585,480,392,431,311,389,0
2,1768494670416,277,320,10078,15882,-53756,-13439,0,0,0,477,539,286,479,429,496,580,491,395,295,241,413,0
2,1768494670432,272,320,10083,15882,-53756,-13439,0,0,0,478,539,286,477,426,493,580,487,394,287,237,415,0
2,1768494670448,272,325,10078,17104,-54977,-14660,0,0,0,478,540,286,477,426,493,583,490,396,284,235,414,0
2,1768494670464,272,325,10074,15882,-54977,-14660,0,0,0,479,541,287,479,430,494,580,494,400,287,238,415,0
2,1768494670480,277,320,10074,15882,-54977,-14660,0,0,0,479,541,286,477,426,492,580,492,397,288,239,416,0
2,1768494670496,272,315,10069,19547,-56199,-13439,0,0,0,480,541,287,479,428,495,580,489,394,288,239,416,0
2,1768494670512,272,311,10054,20769,-56199,-13439,0,0,0,481,540,286,480,428,496,582,486,393,344,264,405,0
2,1768494670528,277,311,10054,18325,-56199,-13439,0,0,0,479,538,284,480,428,497,583,487,396,344,264,404,0
2,1768494670544,282,311,10059,17104,-57421,-12217,0,0,0,479,537,283,481,429,498,582,492,399,289,237,414,0
2,1768494670560,277,320,10069,14660,-56199,-12217,0,0,0,482,538,286,481,429,497,581,493,398,288,236,412,0
2,1768494670576,268,320,10064,12217,-56199,-13439,0,0,0,483,539,287,481,429,497,580,492,397,286,235,409,0
2,1768494670592,272,320,10059,12217,-56199,-13439,0,0,0,482,537,285,482,430,500,580,494,396,290,238,414,0
2,1768494670608,277,325,10059,12217,-56199,-13439,0,0,0,478,534,282,484,433,500,581,493,395,290,238,413,0
2,1768494670624,282,325,10064,13439,-56199,-13439,0,0,0,483,540,290,479,428,497,581,495,398,288,238,412,0
2,1768494670640,277,325,10069,13439,-57421,-13439,0,0,0,480,537,286,482,429,498,585,497,401,288,239,412,0
2,1768494670656,272,330,10069,13439,-57421,-12217,0,0,0,482,539,290,480,430,498,585,496,398,286,235,410,0
2,1768494670672,272,335,10069,15882,-57421,-12217,0,0,0,483,540,289,478,425,494,580,495,396,287,238,412,0
2,1768494670688,272,330,10064,17104,-57421,-12217,0,0,0,482,540,289,479,427,496,581,497,398,287,240,412,0
2,1768494670704,272,320,10064,18325,-57421,-13439,0,0,0,479,539,288,480,429,497,580,493,395,288,239,413,0
2,1768494670720,277,325,10069,18325,-57421,-13439,0,0,0,479,540,289,482,432,501,581,493,396,288,238,412,0
2,1768494670736,272,335,10064,15882,-57421,-13439,0,0,0,482,542,291,482,431,500,585,497,400,289,238,413,0
2,1768494670752,268,339,10064,14660,-58643,-13439,0,0,0,481,541,289,480,429,497,584,497,399,287,238,412,0
2,1768494670768,268,335,10069,14660,-58643,-12217,0,0,0,480,540,288,481,430,498,582,496,397,286,237,411,0
2,1768494670784,268,330,10069,12217,-57421,-12217,0,0,0,480,541,290,484,434,500,584,499,399,292,239,412,0
2,1768494670800,272,325,10069,12217,-57421,-12217,0,0,0,481,541,291,487,448,495,583,501,400,297,242,411,0
2,1768494670816,277,330,10059,12217,-57421,-10995,0,0,0,478,542,289,491,483,476,576,502,398,291,241,413,0
2,1768494670832,268,335,10050,12217,-57421,-10995,0,0,0,468,542,288,477,427,495,582,497,393,283,237,409,0
2,1768494670848,263,330,10035,4886,-58643,-9773,0,0,0,467,543,292,480,431,499,583,497,396,286,242,408,0
2,1768494670864,263,325,10031,-7330,-56199,-8552,0,0,0,457,537,293,477,431,497,579,497,393,285,244,405,0
2,1768494670880,258,330,10040,-19547,-53756,-7330,0,0,0,457,531,289,481,434,497,583,503,397,287,244,398,0
2,1768494670896,258,349,10069,-32986,-50090,-6108,0,0,0,457,531,283,477,430,488,580,504,393,288,248,390,0
2,1768494670912,272,373,10098,-36651,-46425,-6108,0,0,0,449,528,273,472,425,481,580,506,389,285,247,384,0
2,1768494670928,282,406,10117,-25656,-46425,-6108,0,0,0,453,530,272,472,425,480,580,508,389,285,247,381,0
2,1768494670944,301,430,10122,4886,-52534,-9773,0,0,0,451,530,271,472,426,479,582,509,391,285,247,375,0
2,1768494670960,306,411,10117,36651,-62308,-12217,0,0,0,444,528,269,471,425,476,576,509,389,285,250,371,0
2,1768494670976,277,363,10098,54977,-67195,-15882,0,0,0,434,526,266,467,421,473,566,510,381,283,254,362,0
2,1768494670992,268,354,10107,57421,-61086,-15882,0,0,0,425,522,259,463,418,471,566,512,380,277,254,349,0
2,1768494671008,291,368,10145,69638,-64751,-18325,0,0,0,413,515,251,462,420,470,567,515,380,274,256,337,0
2,1768494671024,306,373,10160,101403,-91629,-23212,0,0,0,400,512,244,459,418,468,554,507,371,269,255,328,0
2,1768494671040,287,368,10102,131946,-124616,-26878,0,0,0,401,513,246,457,418,471,535,494,375,273,259,326,0
2,1768494671056,258,339,10007,139277,-153938,-28099,0,0,0,408,517,248,457,419,467,556,508,368,334,320,321,0
2,1768494671072,258,306,10064,136833,-167377,-28099,0,0,0,409,521,249,454,421,467,556,515,373,270,260,336,0
2,1768494671088,272,330,10227,172263,-185703,-36651,0,0,0,416,521,248,458,424,473,554,515,377,270,259,345,0
2,1768494671104,306,363,10385,271224,-230907,-53756,0,0,0,431,527,244,460,430,473,557,516,372,274,259,357,0
2,1768494671120,277,301,10251,381179,-305432,-74525,0,0,0,451,535,254,464,434,474,554,506,367,277,253,376,0
2,1768494671136,177,167,9868,414166,-379958,-89186,0,0,0,466,547,259,468,437,482,557,507,364,285,254,402,0
2,1768494671152,9,-19,9523,295658,-412944,-90408,0,0,0,484,556,263,470,451,484,562,510,361,282,251,417,0
2,1768494671168,-263,-153,9327,87964,-370184,-68416,0,0,0,494,557,263,477,471,484,571,515,360,284,251,429,0
2,1768494671184,-296,-124,9490,-107512,-254119,-29321,0,0,0,506,565,274,487,481,488,577,518,362,291,253,449,0
2,1768494671200,-38,90,10074,-163711,-186924,-15882,0,0,0,520,574,294,493,486,494,575,516,368,365,330,461,0
2,1768494671216,43,301,10495,-51312,-219911,-30543,0,0,0,527,579,319,497,492,500,580,515,378,453,426,471,0
2,1768494671232,-167,210,10222,98960,-271224,-45204,0,0,0,538,592,360,499,493,511,594,521,387,387,359,505,0
2,1768494671248,-311,-43,9853,74525,-199142,-31764,0,0,0,548,603,370,506,505,526,593,523,384,371,337,532,0
2,1768494671264,-177,38,10375,28099,-87964,-29321,0,0,0,556,600,405,510,509,534,588,516,376,313,270,542,0
2,1768494671280,86,392,11500,232128,-50090,-64751,0,0,0,562,608,321,517,517,539,576,490,382,312,256,557,0
2,1768494671296,52,411,11911,596204,-75747,-108734,0,0,0,569,604,271,522,516,523,553,455,382,307,230,568,0
2,1768494671312,-234,129,12060,971275,-58643,-117286,0,0,0,562,603,235,524,533,530,505,407,385,306,212,566,0
2,1768494671328,-574,177,14146,1568701,127059,-56199,0,0,0,562,595,231,515,520,517,415,330,393,297,201,565,0
2,1768494671344,-641,751,17391,2328618,373849,31764,0,0,0,565,586,227,490,506,505,337,239,380,281,183,555,0
2,1768494671360,90,1373,20296,3545461,538783,67195,0,0,0,538,572,217,475,492,493,299,185,359,260,180,508,0
2,1768494671376,847,1541,21196,4805065,474031,-56199,0,0,0,490,546,204,464,486,450,305,175,351,244,166,444,0
2,1768494671392,655,775,21478,5536882,290771,-239459,0,0,0,421,511,195,428,433,423,334,173,341,220,138,358,0
2,1768494671408,818,-1167,20904,5116607,408057,-244346,0,0,0,351,479,199,396,381,422,361,179,337,194,123,278,0
2,1768494671424,2282,-5403,14989,3775147,726929,-322536,0,0,0,319,463,205,390,374,421,368,185,342,182,124,247,0
2,1768494671440,1703,-10241,4331,1802052,874759,-971275,0,0,0,314,458,200,388,372,417,360,181,338,178,123,241,0
2,1768494671456,-2507,-9930,114,-416610,339641,-1528384,0,0,0,286,448,194,379,372,408,356,191,328,174,129,222,0
2,1768494671472,-3575,-8202,1732,-972497,-250454,-946841,0,0,0,260,446,187,372,377,403,350,208,326,175,143,207,0
2,1768494671488,-1191,-382,818,-123394,-454483,326202,0,0,0,252,445,190,369,370,409,345,220,332,180,156,203,0
2,1768494671504,670,8164,-1718,-152716,-448375,1117883,0,0,0,249,441,182,363,367,401,338,235,324,190,183,205,0
2,1768494671520,1651,12055,-3010,-1286482,-323758,1313360,0,0,0,258,434,186,364,374,389,338,252,307,158,145,190,0
2,1768494671536,1383,8925,-1952,-2433687,-157603,1136209,0,0,0,265,438,194,372,374,393,337,246,307,160,143,190,0
2,1768494671552,1014,2804,-1000,-2957809,-87964,921184,0,0,0,253,432,187,368,376,399,337,253,317,156,144,197,0
2,1768494671568,914,-4714,-837,-2489886,-41538,609643,0,0,0,254,433,188,370,378,401,336,255,314,153,142,196,0
2,1768494671584,335,-9911,-263,-1170417,120951,65973,0,0,0,257,436,186,374,381,397,339,256,309,155,145,190,0
2,1768494671600,-1043,-10045,899,-256563,238237,-354301,0,0,0,254,439,181,377,390,394,341,255,305,158,144,189,0
2,1768494671616,-1995,-10519,1282,3665,118507,-251676,0,0,0,256,440,180,383,393,398,341,257,308,157,143,190,0
2,1768494671632,-1378,-13003,636,649960,7330,164933,0,0,0,282,458,189,392,398,416,334,245,317,181,154,274,0
2,1768494671648,-268,-11462,-134,1782504,103847,618195,0,0,0,369,504,198,430,431,463,314,223,337,230,167,428,0
2,1768494671664,-272,-2914,646,1985312,92851,844215,0,0,0,464,547,196,484,478,502,327,259,358,265,177,532,0
2,1768494671680,-311,4757,13606,-1039692,-497244,901637,0,0,0,473,556,217,494,483,488,438,383,359,279,212,512,0
2,1768494671696,3211,3340,25422,-6290690,-1167974,846659,0,0,0,467,572,311,490,464,478,600,494,355,377,338,415,0
2,1768494671712,3115,3780,30519,-9142209,-1420872,450818,0,0,0,455,570,422,484,465,479,659,547,373,651,635,324,0
2,1768494671728,43,5809,32194,-6751282,-1106887,119729,0,0,0,504,585,375,493,472,492,611,490,378,570,517,441,0
2,1768494671744,-296,7102,24517,-1809382,-504574,-61086,0,0,0,516,592,271,512,498,507,575,481,363,456,408,497,0
2,1768494671760,1067,3125,12706,2410474,-36651,-207694,0,0,0,532,606,294,515,514,510,585,494,365,340,295,526,0
2,1768494671776,382,-2005,5987,2191784,-430049,-291993,0,0,0,528,606,294,516,512,517,577,490,376,454,411,509,0
2,1768494671792,-1239,-2455,5379,321315,-575435,-226020,0,0,0,527,607,311,512,512,527,575,494,390,526,446,485,0
2,1768494671808,-1392,-153,9241,-704938,-196698,-57421,0,0,0,526,604,311,509,511,528,590,499,393,492,436,495,0
2,1768494671824,-52,832,11969,-356745,87964,24434,0,0,0,528,611,303,508,515,529,598,509,390,371,322,521,0
2,1768494671840,320,263,11079,152716,40317,-13439,0,0,0,523,605,290,507,511,526,592,505,392,310,260,529,0
2,1768494671856,-162,-244,9581,163711,-32986,-36651,0,0,0,517,597,275,512,510,524,576,486,385,356,304,521,0
2,1768494671872,-186,-14,9920,-21991,10995,-3665,0,0,0,511,591,265,514,505,519,567,478,372,358,304,511,0
2,1768494671888,-23,134,10356,-4886,39095,3665,0,0,0,502,585,261,509,498,512,564,481,363,299,245,502,0
2,1768494671904,-100,-19,9935,36651,53756,3665,0,0,0,498,579,255,506,494,508,552,474,359,333,287,485,0
2,1768494671920,-148,-67,9672,-18325,100181,18325,0,0,0,490,570,245,499,485,501,542,462,360,427,394,457,0
2,1768494671936,-57,0,9777,-103847,146607,30543,0,0,0,482,569,240,499,480,496,541,465,354,427,394,441,0
2,1768494671952,47,38,9940,-155159,162490,30543,0,0,0,465,563,232,507,480,512,551,460,353,425,392,432,0
2,1768494671968,124,114,10150,-158824,151494,29321,0,0,0,476,566,242,504,481,505,553,465,358,300,246,460,0
2,1768494671984,215,244,10356,-86742,109955,21991,0,0,0,473,568,254,501,481,511,555,451,362,281,222,462,0
2,1768494672000,234,244,10279,32986,42760,2443,0,0,0,477,569,245,496,477,506,553,448,362,284,221,468,0
2,1768494672016,205,167,10122,106290,-2443,-8552,0,0,0,481,569,243,498,480,504,509,437,381,282,211,470,0
2,1768494672032,196,138,10117,138055,-28099,-14660,0,0,0,486,572,244,500,480,500,539,437,375,287,214,475,0
2,1768494672048,162,105,10050,158824,-47647,-18325,0,0,0,492,574,246,507,484,507,557,437,368,292,217,482,0
2,1768494672064,114,23,9858,112399,-52534,-18325,0,0,0,495,576,251,514,489,514,559,438,369,290,219,486,0
2,1768494672080,100,0,9825,28099,-47647,-13439,0,0,0,500,578,261,512,487,512,566,440,375,293,222,494,0
2,1768494672096,143,71,10045,-19547,-39095,-9773,0,0,0,505,580,269,511,487,510,571,440,379,309,234,503,0
2,1768494672112,162,110,10131,-7330,-37873,-9773,0,0,0,507,582,271,520,492,515,569,439,377,325,250,503,0
2,1768494672128,172,100,10083,-2443,-46425,-9773,0,0,0,507,582,270,518,494,514,569,440,377,332,258,501,0
2,1768494672144,177,95,10102,-4886,-59864,-9773,0,0,0,510,585,269,511,493,511,579,444,383,343,271,501,0
2,1768494672160,167,100,10165,2443,-63529,-9773,0,0,0,505,582,269,515,495,513,580,440,379,345,270,507,0
2,1768494672176,167,105,10174,20769,-56199,-10995,0,0,0,510,586,273,520,501,519,576,436,376,349,274,514,0
2,1768494672192,167,90,10102,25656,-56199,-15882,0,0,0,507,585,273,521,501,522,580,440,380,347,274,512,0
2,1768494672208,148,76,10040,17104,-62308,-17104,0,0,0,506,585,272,522,502,522,578,436,379,347,272,513,0
2,1768494672224,134,81,10054,3665,-62308,-15882,0,0,0,511,591,275,524,503,525,579,435,380,337,261,510,0
2,1768494672240,153,95,10122,3665,-53756,-13439,0,0,0,512,593,277,521,500,522,580,436,384,333,252,513,0
2,1768494672256,191,110,10174,20769,-48869,-14660,0,0,0,509,591,272,518,497,520,581,432,386,321,241,513,0
2,1768494672272,215,124,10208,57421,-51312,-20769,0,0,0,505,588,261,523,503,523,571,416,385,315,232,514,0
2,1768494672288,224,129,10260,113620,-64751,-32986,0,0,0,505,588,250,522,503,520,552,394,383,359,271,511,0
2,1768494672304,253,129,10399,196698,-90408,-47647,0,0,0,507,586,242,517,499,515,526,366,381,397,305,503,0
2,1768494672320,320,119,10705,357967,-140499,-63529,0,0,0,507,581,235,517,505,514,491,326,380,388,289,499,0
2,1768494672336,497,23,11040,609643,-213802,-95294,0,0,0,504,572,227,513,504,516,448,290,377,368,267,502,0
2,1768494672352,918,-124,11619,977384,-304210,-182037,0,0,0,501,562,217,499,488,510,406,278,367,361,271,500,0
2,1768494672368,1019,-33,13041,1341460,-351858,-291993,0,0,0,501,556,216,485,475,488,375,290,352,360,286,471,0
2,1768494672384,1091,76,14381,1718974,-327423,-382401,0,0,0,475,526,210,461,451,478,354,284,329,319,266,453,0
2,1768494672400,2067,-157,14663,2151467,-223576,-509461,0,0,0,427,511,198,441,425,467,331,288,329,316,284,419,0
2,1768494672416,2976,-445,14625,2456899,-118507,-709825,0,0,0,363,486,181,425,406,436,325,298,304,295,283,358,0
2,1768494672432,3823,-646,13950,2522873,-62308,-987158,0,0,0,289,463,176,394,391,420,334,317,298,279,287,298,0
2,1768494672448,4565,-622,12897,2459343,19547,-1331686,0,0,0,245,443,174,366,372,398,329,333,285,253,295,215,0
2,1768494672464,3689,1608,11921,2201558,10995,-1648114,0,0,0,241,434,180,359,367,400,324,343,280,243,301,190,0
2,1768494672480,2866,7776,10203,1415985,-386066,-1806939,0,0,0,241,434,183,353,365,389,320,346,269,244,304,184,0
2,1768494672496,4178,12060,7834,423940,-610865,-1842369,0,0,0,239,436,183,347,364,382,314,351,262,244,309,183,0
2,1768494672512,5063,13117,5857,-536339,-334754,-1748296,0,0,0,239,435,181,344,364,377,308,355,254,243,316,179,0
2,1768494672528,4168,12610,5202,-1050688,91629,-1337794,0,0,0,239,435,176,347,366,371,304,356,245,239,320,171,0
2,1768494672544,3632,12299,5202,-1418429,423940,-774577,0,0,0,235,436,172,345,369,370,301,359,244,234,322,169,0
2,1768494672560,3259,11696,5982,-1788613,715934,-204028,0,0,0,235,433,176,338,367,369,302,363,249,235,325,172,0
2,1768494672576,2632,10313,7432,-2185675,957836,252898,0,0,0,235,432,173,330,372,362,303,363,247,232,322,169,0
2,1768494672592,1914,8834,9064,-2521651,1130100,576656,0,0,0,230,430,170,300,404,347,307,364,248,235,321,171,0
2,1768494672608,1263,7820,10533,-2790432,1198517,777020,0,0,0,230,434,171,346,366,374,302,364,248,235,320,171,0
2,1768494672624,727,6594,12017,-3075095,1200961,994488,0,0,0,230,429,171,344,367,372,303,364,247,237,320,169,0
2,1768494672640,579,4924,13314,-3295007,1132544,1210734,0,0,0,230,433,171,342,368,368,305,364,247,234,319,169,0
2,1768494672656,832,3115,14247,-3353650,1070235,1354899,0,0,0,236,435,176,343,366,371,307,366,252,236,317,170,0
2,1768494672672,1072,1646,14879,-3341432,1039692,1430646,0,0,0,240,436,180,344,364,375,309,363,255,233,318,171,0
2,1768494672688,1057,492,15032,-3286454,996932,1439198,0,0,0,241,436,180,342,360,373,309,360,255,232,321,169,0
2,1768494672704,952,-531,14716,-3183829,906524,1378111,0,0,0,240,436,180,344,364,375,307,358,253,232,319,169,0
2,1768494672720,990,-1507,14189,-3020117,811229,1247386,0,0,0,238,436,180,344,365,377,308,360,255,232,316,168,0
2,1768494672736,1043,-3062,13625,-2795319,736703,1067792,0,0,0,239,439,180,344,364,376,311,361,258,232,313,167,0
2,1768494672752,851,-5216,12974,-2511877,669508,882089,0,0,0,239,441,181,346,367,378,311,360,258,234,314,170,0
2,1768494672768,229,-7437,12222,-2131919,603534,703716,0,0,0,238,440,182,348,368,378,311,359,259,234,315,171,0
2,1768494672784,-976,-9332,11466,-1562593,498466,548556,0,0,0,238,441,181,348,369,377,310,359,259,232,313,169,0
2,1768494672800,-1722,-10524,10815,-976162,328645,488692,0,0,0,234,442,180,350,371,380,309,358,259,232,312,168,0
2,1768494672816,-1363,-11088,9992,-278554,101403,458148,0,0,0,234,440,179,346,369,376,303,358,256,234,313,170,0
2,1768494672832,-832,-10959,9423,296880,-19547,392175,0,0,0,234,440,179,348,372,379,302,358,257,234,309,171,0
2,1768494672848,-746,-10299,9265,812450,-75747,327423,0,0,0,237,444,181,348,373,379,299,354,257,240,317,172,0
2,1768494672864,-555,-9083,9466,1299921,-146607,340862,0,0,0,230,434,171,346,372,371,317,384,250,241,331,166,0
2,1768494672880,33,-6704,10662,1646892,-244346,404392,0,0,0,231,418,163,338,356,371,349,456,241,273,410,150,0
2,1768494672896,339,2014,13673,2101376,-885754,592539,0,0,0,243,408,151,339,338,340,388,472,234,241,383,134,0
2,1768494672912,655,8987,11131,3045774,-1951103,836885,0,0,0,245,400,150,336,334,339,405,466,236,257,403,137,0
2,1768494672928,-646,5317,9839,4127005,-1560149,906524,0,0,0,246,399,158,338,330,356,423,483,246,307,433,137,0
2,1768494672944,-2507,-593,15022,4458094,-168598,651182,0,0,0,250,408,161,351,331,359,458,508,246,352,455,138,0
2,1768494672960,-1636,-1943,19459,3617543,-23212,74525,0,0,0,254,422,185,364,343,366,488,519,253,371,463,148,0
2,1768494672976,583,-454,16477,2030516,-549778,-152716,0,0,0,258,438,205,378,359,382,514,528,268,382,466,173,0
2,1768494672992,789,717,11222,811229,-439822,0,0,0,0,279,457,201,395,387,395,541,540,279,400,478,220,0
2,1768494673008,-138,698,9078,433714,-67195,81855,0,0,0,322,477,214,414,415,413,557,550,296,402,479,266,0
2,1768494673024,14,95,9968,152716,-81855,-7330,0,0,0,362,492,231,429,418,427,566,564,309,385,460,292,0
2,1768494673040,330,229,10538,-108734,-216246,-31764,0,0,0,380,504,237,438,409,436,582,579,316,430,508,296,0
2,1768494673056,301,674,10380,-188146,-248011,-2443,0,0,0,388,511,241,440,407,437,585,581,316,492,521,293,0
2,1768494673072,148,832,10165,-139277,-155159,7330,0,0,0,391,513,241,448,412,446,596,591,332,457,533,309,0
2,1768494673088,157,808,10169,-81855,-70860,-1221,0,0,0,395,513,246,448,412,447,595,595,320,465,531,306,0
2,1768494673104,234,813,10189,-51312,-54977,-7330,0,0,0,396,514,274,449,412,456,601,601,330,466,531,312,0
2,1768494673120,248,851,10141,-26878,-56199,-7330,0,0,0,398,515,294,448,427,462,598,597,337,463,526,313,0
2,1768494673136,220,875,10088,-3665,-59864,-7330,0,0,0,395,515,317,453,421,472,600,599,339,468,529,312,0
2,1768494673152,191,871,10064,13439,-51312,-8552,0,0,0,402,519,279,453,417,457,606,605,329,470,533,307,0
2,1768494673168,191,866,10064,29321,-39095,-10995,0,0,0,405,522,259,454,419,452,611,611,327,471,531,303,0
2,1768494673184,201,866,10074,46425,-24434,-14660,0,0,0,404,523,265,450,417,450,610,609,327,469,531,301,0
2,1768494673200,229,871,10064,67195,-15882,-17104,0,0,0,404,523,266,450,417,450,610,608,329,462,527,303,0
2,1768494673216,244,861,10059,85521,-15882,-19547,0,0,0,409,524,261,454,421,453,611,609,332,453,512,307,0
2,1768494673232,253,847,10045,101403,-20769,-20769,0,0,0,416,527,264,455,422,453,611,606,333,445,496,313,0
2,1768494673248,258,832,10035,125838,-26878,-25656,0,0,0,417,528,263,457,423,456,608,604,336,420,466,329,0
2,1768494673264,248,823,10035,158824,-32986,-31764,0,0,0,413,534,264,457,431,459,600,596,338,369,409,352,0
2,1768494673280,239,794,10035,183259,-32986,-35430,0,0,0,417,534,271,456,441,460,605,586,350,447,478,341,0
2,1768494673296,253,751,10021,195476,-32986,-36651,0,0,0,419,540,285,462,443,474,607,574,359,420,446,365,0
2,1768494673312,272,717,10002,200363,-45204,-39095,0,0,0,428,540,297,468,446,486,602,557,360,452,476,370,0
2,1768494673328,277,698,10016,207694,-61086,-42760,0,0,0,438,553,310,481,451,484,602,542,359,474,472,391,0
2,1768494673344,277,679,10050,213802,-67195,-47647,0,0,0,451,559,300,484,494,475,594,548,370,376,359,432,0
2,1768494673360,291,655,10078,218689,-67195,-51312,0,0,0,465,573,320,482,476,483,601,522,370,331,298,460,0
2,1768494673376,296,636,10126,245567,-62308,-56199,0,0,0,473,587,314,488,472,490,605,499,375,307,261,477,0
2,1768494673392,287,622,10198,295658,-51312,-65973,0,0,0,486,594,322,495,484,501,597,472,397,303,234,498,0
2,1768494673408,282,555,10275,372627,-30543,-80634,0,0,0,499,595,324,504,492,514,589,454,400,294,217,519,0
2,1768494673424,291,469,10323,445931,-14660,-91629,0,0,0,509,599,305,514,506,525,586,442,394,280,207,541,0
2,1768494673440,358,397,10562,571769,4886,-109955,0,0,0,514,605,285,523,525,538,585,425,406,287,209,563,0
2,1768494673456,521,335,11055,803898,26878,-140499,0,0,0,515,612,253,538,538,554,575,415,411,295,214,571,0
2,1768494673472,727,291,11739,1172861,89186,-212581,0,0,0,528,621,246,556,548,563,536,416,417,294,209,579,0
2,1768494673488,569,311,12514,1568701,161268,-279776,0,0,0,534,621,227,563,574,569,508,414,419,308,218,589,0
2,1768494673504,172,268,13098,1937664,94073,-245567,0,0,0,543,617,219,562,571,565,485,408,418,308,220,602,0
2,1768494673520,306,95,13400,2289522,-67195,-152716,0,0,0,551,623,211,562,569,568,464,421,420,308,218,605,0
2,1768494673536,799,-28,14055,2739119,-200363,-118507,0,0,0,547,614,203,560,582,575,420,398,410,311,222,607,0
2,1768494673552,1335,-157,14912,3229033,-257785,-204028,0,0,0,575,613,223,545,555,571,379,387,405,308,210,601,0
2,1768494673568,1421,-181,16314,3875329,-294437,-335975,0,0,0,571,613,210,542,554,560,335,361,397,291,203,594,0
2,1768494673584,2211,-330,18076,4653571,-381179,-476474,0,0,0,559,605,213,524,561,547,301,317,398,264,187,565,0
2,1768494673600,2967,-497,20330,5514891,-509461,-678060,0,0,0,537,600,214,515,559,545,281,266,397,248,175,518,0
2,1768494673616,3517,-1191,23479,6422637,-697608,-853989,0,0,0,503,583,200,506,540,523,276,198,380,267,172,475,0
2,1768494673632,4273,-2081,26240,7167892,-724486,-1027475,0,0,0,464,550,179,484,509,488,275,165,356,255,161,447,0
2,1768494673648,4254,-1617,27949,7618711,-591317,-1259604,0,0,0,407,511,163,446,461,446,283,181,322,218,143,401,0
2,1768494673664,4350,-105,30059,7830070,-560774,-1501506,0,0,0,318,465,158,396,402,398,307,228,287,183,134,295,0
2,1768494673680,6475,3752,29126,7506312,-755029,-1699427,0,0,0,246,422,160,357,366,368,332,279,278,137,135,180,0
2,1768494673696,8810,14079,17870,6210056,-911410,-2009746,0,0,0,255,426,172,353,378,373,332,289,283,142,141,186,0
2,1768494673712,9337,21138,8274,4009719,-840550,-2179567,0,0,0,254,423,164,350,366,360,313,293,261,139,140,176,0
2,1768494673728,6135,20473,8088,267558,-565661,-1743409,0,0,0,251,423,164,341,366,354,311,298,251,139,146,178,0
2,1768494673744,3172,14965,9193,-2464230,-764803,-934623,0,0,0,247,420,164,334,365,345,301,302,239,136,146,172,0
2,1768494673760,4216,8949,6599,-3434284,-1219287,-141720,0,0,0,236,415,159,348,368,345,304,312,239,136,153,164,0
2,1768494673776,7537,6963,3038,-3315776,-638965,59864,0,0,0,230,416,159,333,362,342,299,322,239,135,156,170,0
2,1768494673792,7212,6901,3220,-3452610,459370,13439,0,0,0,225,416,158,329,361,342,298,330,233,129,156,163,0
2,1768494673808,4130,6910,6015,-3974289,1131322,122173,0,0,0,227,416,160,329,364,343,297,339,231,127,157,155,0
2,1768494673824,2885,6264,7896,-4494746,1204626,362853,0,0,0,232,416,161,329,366,341,296,346,230,124,159,149,0
2,1768494673840,3464,5302,8829,-4922352,1220508,558330,0,0,0,234,417,162,326,365,337,295,350,231,123,162,145,0
2,1768494673856,3694,4580,9964,-5255884,1490511,635299,0,0,0,232,415,161,329,364,339,296,347,233,124,162,142,0
2,1768494673872,2699,4134,11792,-5529552,1747074,731816,0,0,0,231,414,159,332,361,341,300,343,234,125,162,140,0
2,1768494673888,2091,3780,13854,-5810550,1798387,940732,0,0,0,235,416,160,333,360,339,302,343,234,130,165,141,0
2,1768494673904,2416,3498,15850,-6118426,1791056,1145983,0,0,0,236,416,161,333,358,341,301,345,235,130,167,141,0
2,1768494673920,3125,3048,17956,-6420193,1866804,1265712,0,0,0,232,417,163,332,358,342,303,349,239,122,161,136,0
2,1768494673936,3622,2278,20765,-6641326,2020742,1365894,0,0,0,228,421,156,335,366,340,303,348,237,127,162,134,0
2,1768494673952,3905,1694,24053,-6764721,2146580,1534493,0,0,0,234,419,158,335,361,339,303,343,235,122,155,132,0
2,1768494673968,4335,866,28389,-6867347,2193006,1901012,0,0,0,237,418,158,341,356,342,298,333,235,120,152,132,0
2,1768494673984,4862,-2775,31528,-6922324,2236988,2470339,0,0,0,235,418,161,342,354,348,313,339,246,121,150,135,0
2,1768494674000,3804,-10279,33811,-6765943,2371378,2849075,0,0,0,242,416,168,342,354,353,319,340,256,123,150,140,0
2,1768494674016,1990,-20981,33582,-6277251,2059837,2675589,0,0,0,241,418,168,347,359,359,327,340,263,130,153,146,0
2,1768494674032,3397,-33017,26039,-5160589,1243721,1626123,0,0,0,240,419,168,349,361,362,320,335,265,131,154,148,0
2,1768494674048,2761,-41153,16597,-3453832,1095892,-57421,0,0,0,238,420,168,349,361,361,323,340,265,135,159,150,0
2,1768494674064,-6207,-43364,13218,-1424537,1315803,-1749518,0,0,0,233,398,161,340,344,350,355,395,254,143,202,135,0
2,1768494674080,-14323,-42316,16783,226020,476474,-2153910,0,0,0,235,362,155,320,311,340,402,448,246,157,267,120,0
2,1768494674096,-17348,-31103,24115,2682920,-2243097,-1110553,0,0,0,243,342,157,306,286,340,439,463,250,181,328,126,0
2,1768494674112,-4876,-3948,18602,5685933,-4568050,680503,0,0,0,250,345,161,318,279,350,459,485,256,263,399,135,0
2,1768494674128,2579,7231,15563,7108027,-3029891,1930334,0,0,0,261,355,167,340,282,366,485,515,259,402,477,143,0
2,1768494674144,-3340,-349,22780,6014579,-357967,1574810,0,0,0,259,372,167,359,295,376,528,540,276,445,497,154,0
2,1768494674160,-4972,-4163,24412,3933972,-10995,299323,0,0,0,261,401,173,378,329,390,563,569,303,420,488,189,0
2,1768494674176,612,-1043,16075,1850921,-813672,-355523,0,0,0,262,444,193,408,361,424,570,570,324,396,473,262,0
2,1768494674192,2297,851,10088,874759,-663399,125838,0,0,0,309,476,226,434,386,450,592,592,338,404,465,312,0
2,1768494674208,1153,502,9337,398284,-441044,338419,0,0,0,346,499,249,438,399,464,603,598,346,497,539,331,0
2,1768494674224,148,119,10662,116064,-441044,139277,0,0,0,388,517,293,443,402,471,612,601,347,526,562,341,0
2,1768494674240,315,617,10705,-35430,-409279,-10995,0,0,0,404,533,298,446,408,472,620,606,342,513,560,349,0
2,1768494674256,660,1043,10174,-53756,-255341,0,0,0,0,409,536,296,445,411,469,622,609,343,536,571,342,0
2,1768494674272,646,1024,10093,-12217,-136833,23212,0,0,0,409,536,288,449,415,465,622,610,343,553,580,334,0
2,1768494674288,569,966,10126,30543,-68416,12217,0,0,0,412,541,286,449,422,463,623,609,343,548,578,329,0
2,1768494674304,550,961,10126,69638,-48869,-12217,0,0,0,416,541,284,450,423,464,621,603,343,538,569,334,0
2,1768494674320,564,995,10069,123394,-25656,-18325,0,0,0,418,539,279,456,430,467,616,598,346,514,539,350,0
2,1768494674336,559,976,10050,177150,-2443,-14660,0,0,0,424,542,277,461,444,466,611,594,349,475,494,366,0
2,1768494674352,583,904,10035,200363,6108,-8552,0,0,0,427,545,286,462,441,468,604,581,344,449,467,371,0
2,1768494674368,631,866,10031,211359,0,-9773,0,0,0,425,547,300,456,426,468,596,571,342,448,463,367,0
2,1768494674384,674,856,10031,223576,-17104,-19547,0,0,0,430,555,300,459,426,469,594,556,349,487,469,365,0
2,1768494674400,693,837,10031,235793,-32986,-31764,0,0,0,437,548,305,473,428,474,587,547,356,436,442,380,0
2,1768494674416,693,804,10026,243124,-45204,-43982,0,0,0,443,552,296,478,434,473,581,536,356,452,442,381,0
2,1768494674432,693,756,10035,257785,-58643,-59864,0,0,0,452,560,276,490,447,476,581,532,356,308,287,429,0
2,1768494674448,679,717,10040,283441,-76969,-74525,0,0,0,454,561,280,491,453,484,570,507,364,282,260,440,0
2,1768494674464,622,698,10083,320093,-96516,-83077,0,0,0,466,569,290,492,457,489,575,497,374,282,240,459,0
2,1768494674480,574,674,10155,368962,-112399,-81855,0,0,0,480,578,291,504,472,503,570,477,380,400,350,465,0
2,1768494674496,660,574,10203,421497,-133168,-76969,0,0,0,487,586,287,493,488,493,574,459,380,333,273,502,0
2,1768494674512,799,469,10303,474031,-188146,-92851,0,0,0,501,595,288,505,499,502,572,437,387,288,211,530,0
2,1768494674528,880,421,10480,577878,-310319,-144164,0,0,0,513,604,280,527,513,525,565,416,396,292,207,548,0
2,1768494674544,804,368,10629,717155,-405614,-196698,0,0,0,522,612,266,541,534,547,560,400,402,291,206,568,0
2,1768494674560,531,234,11050,940732,-430049,-227241,0,0,0,532,617,254,554,551,559,553,387,411,292,206,583,0
2,1768494674576,215,215,11916,1252273,-328645,-222354,0,0,0,537,614,233,561,556,558,531,388,420,298,208,596,0
2,1768494674592,81,263,12782,1640784,-80634,-186924,0,0,0,545,615,216,561,558,567,491,394,417,306,216,608,0
2,1768494674608,114,157,13290,2098932,70860,-125838,0,0,0,561,623,218,566,564,564,453,387,412,306,217,618,0
2,1768494674624,579,4,14099,2616946,58643,-69638,0,0,0,560,614,209,561,564,560,416,386,396,310,216,624,0
2,1768494674640,1631,-23,15271,3226590,-48869,-140499,0,0,0,560,611,218,566,580,571,396,386,390,299,216,626,0
2,1768494674656,2359,-52,16243,3859446,-164933,-327423,0,0,0,563,617,218,553,566,551,336,361,384,300,214,616,0
2,1768494674672,2397,-129,17611,4615697,-267558,-586430,0,0,0,568,606,217,542,573,557,299,312,400,276,199,598,0
2,1768494674688,2799,-148,20258,5574756,-353080,-778242,0,0,0,548,605,204,536,564,545,290,219,397,269,183,548,0
2,1768494674704,4685,-1019,23943,6624222,-509461,-989601,0,0,0,508,593,190,521,540,531,276,165,380,255,167,504,0
2,1768494674720,6838,-2129,27882,7439116,-543670,-1319468,0,0,0,469,567,179,501,506,518,265,154,358,242,160,469,0
2,1768494674736,6810,-1124,31079,8078081,-450818,-1743409,0,0,0,421,526,167,458,465,462,275,175,328,233,156,432,0
2,1768494674752,5379,2254,32634,8428718,-509461,-2100154,0,0,0,325,473,158,403,414,408,295,214,302,194,141,333,0
2,1768494674768,7130,6336,30461,8426275,-730594,-2335948,0,0,0,256,439,165,370,384,393,311,246,296,156,134,242,0
2,1768494674784,10643,13041,22407,7871609,-654847,-2696359,0,0,0,246,431,176,359,379,391,315,263,293,148,144,210,0
2,1768494674800,10782,21129,11490,5946162,-289550,-3097086,0,0,0,247,430,172,356,374,377,308,267,276,151,154,198,0
2,1768494674816,5900,25470,8351,1189965,-259006,-2411695,0,0,0,246,429,162,353,373,363,302,270,260,151,157,187,0
2,1768494674832,3043,21191,9667,-3258355,-624304,-885754,0,0,0,249,427,161,346,370,355,304,282,250,153,163,177,0
2,1768494674848,5532,11998,8193,-5033529,-878424,458148,0,0,0,237,423,156,342,370,349,303,289,244,153,168,169,0
2,1768494674864,8882,6149,5068,-5088507,-371406,919963,0,0,0,235,417,157,338,369,347,299,307,243,150,182,163,0
2,1768494674880,8657,5317,4517,-4703662,814894,618195,0,0,0,237,419,158,334,369,339,296,317,238,150,186,157,0
2,1768494674896,4929,6049,7638,-5024977,1442863,416610,0,0,0,238,419,158,334,369,339,295,322,234,147,186,151,0
2,1768494674912,2962,5704,10031,-5490456,1469741,470366,0,0,0,236,419,154,334,370,339,294,328,237,146,195,146,0
2,1768494674928,3330,4460,11016,-5815437,1384220,608421,0,0,0,233,417,153,334,370,338,292,332,236,148,198,144,0
2,1768494674944,3560,3766,12012,-5893627,1693318,654847,0,0,0,233,418,156,332,370,338,293,337,239,146,202,144,0
2,1768494674960,2689,3718,13787,-6017022,1993864,734260,0,0,0,234,419,159,332,369,340,291,334,242,145,200,142,0
2,1768494674976,1981,3546,15884,-6245486,2103819,918741,0,0,0,233,418,158,335,369,344,293,335,243,148,201,143,0
2,1768494674992,1856,3086,18334,-6489832,2171015,1145983,0,0,0,232,416,159,336,367,348,300,341,245,151,203,144,0
2,1768494675008,2196,2636,20765,-6666983,2261423,1281595,0,0,0,233,415,162,334,361,348,302,342,245,151,201,143,0
2,1768494675024,2579,2201,24264,-6907664,2372600,1408655,0,0,0,234,417,164,338,362,349,302,340,241,155,202,144,0
2,1768494675040,2790,1512,27752,-7130019,2432465,1632231,0,0,0,229,415,160,335,358,346,305,337,244,152,198,144,0
2,1768494675056,2421,-938,31447,-7294952,2474004,2106263,0,0,0,229,417,163,335,357,351,308,333,250,153,194,144,0
2,1768494675072,770,-8030,34797,-7160562,2464230,2625498,0,0,0,230,422,164,339,361,356,315,335,255,155,195,145,0
2,1768494675088,-689,-18813,35850,-6720739,2036624,2733011,0,0,0,231,422,164,348,368,362,319,330,263,159,201,146,0
2,1768494675104,1976,-33294,28853,-5638286,1088561,1971872,0,0,0,236,423,165,355,375,365,328,330,264,162,197,147,0
2,1768494675120,2560,-44106,18683,-3898541,866206,542448,0,0,0,231,423,162,345,383,361,328,334,265,163,201,150,0
2,1768494675136,-6637,-46671,13907,-1681101,1153313,-1081231,0,0,0,233,424,165,347,373,363,320,335,260,164,204,152,0
2,1768494675152,-14371,-44551,14682,101403,504574,-1766622,0,0,0,233,415,164,346,359,363,370,408,254,180,266,131,0
2,1768494675168,-11964,-35673,19420,1710422,-1081231,-1455080,0,0,0,236,371,158,325,311,347,410,475,244,264,384,118,0
2,1768494675184,-3632,-6700,22723,3754377,-3739716,-481361,0,0,0,244,340,161,311,286,351,436,501,254,349,459,128,0
2,1768494675200,2120,10768,17123,5715255,-4939456,601091,0,0,0,256,344,170,324,283,372,477,511,269,371,461,142,0
2,1768494675216,-1430,3718,18473,6530149,-2796541,1211956,0,0,0,265,350,170,344,274,382,517,527,273,404,474,150,0
2,1768494675232,-5388,-4101,23378,5437922,-791681,758694,0,0,0,266,364,169,360,287,394,548,550,290,443,497,161,0
2,1768494675248,-2038,-2057,20267,3522248,-612086,-111177,0,0,0,274,398,180,380,313,409,575,576,320,419,490,196,0
2,1768494675264,1459,727,13572,2219884,-711047,-32986,0,0,0,286,443,191,413,347,434,593,593,351,413,492,265,0
2,1768494675280,1340,38,10782,1088561,-555887,249233,0,0,0,307,475,201,443,382,456,609,610,346,427,497,314,0
2,1768494675296,-215,-861,10993,211359,-343306,222354,0,0,0,324,492,214,456,403,466,618,620,356,454,504,344,0
2,1768494675312,-90,258,10686,0,-250454,24434,0,0,0,352,506,216,456,421,468,574,598,396,487,539,344,0
2,1768494675328,421,1033,10179,21991,-178372,-34208,0,0,0,359,508,230,460,430,484,617,620,366,501,555,360,0
2,1768494675344,569,995,10031,51312,-119729,0,0,0,0,370,515,233,460,418,477,629,629,355,497,550,356,0
2,1768494675360,416,823,10131,24434,-87964,6108,0,0,0,371,520,243,454,414,475,634,633,357,481,535,358,0
2,1768494675376,330,847,10184,25656,-61086,-12217,0,0,0,370,519,242,451,412,472,635,635,357,537,572,344,0
2,1768494675392,358,890,10136,59864,-29321,-23212,0,0,0,372,520,239,451,412,468,628,630,356,548,582,342,0
2,1768494675408,387,885,10083,98960,0,-28099,0,0,0,372,517,233,453,415,467,618,619,354,510,555,348,0
2,1768494675424,392,856,10064,129503,15882,-28099,0,0,0,369,513,229,454,418,466,607,607,354,465,513,357,0
2,1768494675440,402,856,10045,150272,21991,-26878,0,0,0,367,514,229,451,419,465,600,597,358,454,496,363,0
2,1768494675456,445,875,10016,179594,19547,-26878,0,0,0,367,518,227,455,420,467,599,590,361,485,514,359,0
2,1768494675472,502,861,10011,232128,3665,-30543,0,0,0,374,520,227,467,423,473,594,578,366,450,468,374,0
2,1768494675488,521,789,10021,283441,-19547,-40317,0,0,0,383,526,232,466,426,477,590,562,367,363,385,402,0
2,1768494675504,512,713,10007,296880,-40317,-51312,0,0,0,390,532,241,464,426,476,584,554,374,289,302,419,0
2,1768494675520,516,674,9978,285884,-63529,-59864,0,0,0,413,545,249,482,440,484,583,518,374,395,398,414,0
2,1768494675536,536,670,10026,300545,-94073,-69638,0,0,0,433,551,249,492,445,488,578,517,383,299,264,460,0
2,1768494675552,512,641,10122,350636,-119729,-84299,0,0,0,450,557,253,487,461,499,578,484,380,416,391,460,0
2,1768494675568,454,545,10150,394618,-123394,-94073,0,0,0,461,570,270,495,469,508,581,470,388,317,270,501,0
2,1768494675584,454,469,10150,417831,-116064,-101403,0,0,0,475,578,280,507,487,525,576,436,399,380,322,523,0
2,1768494675600,588,416,10212,459370,-108734,-122173,0,0,0,493,592,294,511,501,537,565,404,414,413,355,538,0
2,1768494675616,827,335,10457,552222,-91629,-173485,0,0,0,511,605,274,529,521,549,558,398,418,412,354,556,0
2,1768494675632,981,258,11141,773355,-63529,-265115,0,0,0,518,611,244,538,536,553,549,384,435,416,348,576,0
2,1768494675648,679,277,12069,1153313,-29321,-331088,0,0,0,522,611,222,550,550,564,526,368,442,419,337,593,0
2,1768494675664,306,287,12955,1574810,-39095,-324980,0,0,0,528,610,209,560,559,575,501,363,426,412,325,608,0
2,1768494675680,95,282,13596,2012190,-79412,-246789,0,0,0,542,613,208,559,561,574,478,357,415,401,314,628,0
2,1768494675696,181,215,14386,2598620,-102625,-149051,0,0,0,558,612,214,565,559,573,435,348,411,388,307,643,0
2,1768494675712,808,162,15434,3199712,-107512,-123394,0,0,0,557,611,208,567,547,573,391,338,397,356,301,646,0
2,1768494675728,1785,86,16659,3903428,-155159,-238237,0,0,0,557,616,209,547,561,567,336,324,407,345,303,644,0
2,1768494675744,2301,71,18166,4717101,-208915,-449596,0,0,0,569,610,223,527,549,565,289,271,402,305,265,618,0
2,1768494675760,2670,234,20531,5663942,-270002,-670730,0,0,0,551,595,205,539,554,551,272,199,422,285,217,562,0
2,1768494675776,4441,-397,24843,6939429,-483805,-933402,0,0,0,517,583,193,520,532,528,259,159,394,262,183,503,0
2,1768494675792,6819,-1876,28466,7859392,-527787,-1187522,0,0,0,472,564,190,491,512,503,247,155,362,261,186,482,0
2,1768494675808,7078,-1794,31907,8535009,-134390,-1582140,0,0,0,409,526,161,454,480,455,264,170,326,257,187,441,0
2,1768494675824,5039,1579,34950,8868541,-21991,-1977981,0,0,0,300,459,153,384,401,403,292,216,304,231,209,329,0
2,1768494675840,6389,7408,34209,8663290,-554665,-2244318,0,0,0,246,435,159,360,368,386,310,252,295,208,233,230,0
2,1768494675856,10787,14970,25096,7859392,-889419,-2535090,0,0,0,236,434,165,355,365,379,308,271,284,199,244,193,0
2,1768494675872,11567,25704,10265,5139820,-681725,-2827084,0,0,0,240,434,164,349,366,369,300,276,268,200,247,187,0
2,1768494675888,6872,27523,9298,553443,-609643,-2065946,0,0,0,235,431,158,320,384,346,297,276,255,203,250,181,0
2,1768494675904,3464,20727,11079,-3773925,-1115439,-629191,0,0,0,230,427,155,308,388,337,295,280,249,205,257,174,0
2,1768494675920,6590,10610,8111,-5057964,-1629788,466701,0,0,0,232,424,155,336,364,349,291,287,243,209,264,167,0
2,1768494675936,10591,7264,3522,-4601036,-598647,437379,0,0,0,234,422,155,335,366,348,292,297,235,215,274,163,0
2,1768494675952,9054,7480,4235,-4758640,761138,195476,0,0,0,238,422,157,334,367,345,289,308,232,207,284,158,0
2,1768494675968,5446,7116,7776,-5407379,1295034,268780,0,0,0,236,419,152,335,367,338,282,311,225,207,290,150,0
2,1768494675984,4331,5518,9954,-5853310,1352455,483805,0,0,0,236,419,151,336,366,341,288,317,229,212,290,149,0
2,1768494676000,4852,3977,10959,-5981592,1530828,609643,0,0,0,233,419,150,334,363,340,286,316,227,207,290,141,0
2,1768494676016,3895,3747,12840,-6133086,1892460,637743,0,0,0,237,419,150,337,360,337,292,320,228,216,291,141,0
2,1768494676032,2651,3618,15486,-6478836,2100154,747699,0,0,0,234,418,151,336,361,340,290,320,229,213,294,141,0
2,1768494676048,2469,3015,17822,-6828251,2130697,911410,0,0,0,239,419,155,334,354,337,289,320,227,212,295,140,0
2,1768494676064,2737,2177,20248,-6971194,2254092,1036027,0,0,0,239,422,157,333,351,335,290,320,226,212,293,140,0
2,1768494676080,2809,1684,23187,-7034724,2416582,1144761,0,0,0,236,419,153,338,355,337,297,319,228,219,290,141,0
2,1768494676096,2847,1474,27441,-7160562,2524095,1350012,0,0,0,235,416,150,342,356,339,301,317,232,225,283,143,0
2,1768494676112,3474,162,32658,-7369478,2466673,1842369,0,0,0,234,416,151,341,354,344,303,312,239,224,275,146,0
2,1768494676128,4120,-4436,36367,-7417125,2481334,2482556,0,0,0,234,418,152,341,354,349,309,308,248,224,270,147,0
2,1768494676144,2268,-14745,37535,-7006624,2563190,2825862,0,0,0,232,421,152,346,356,352,319,307,256,226,268,146,0
2,1768494676160,220,-28777,33883,-6161186,2031737,2658485,0,0,0,230,426,155,351,364,358,319,310,263,227,273,152,0
2,1768494676176,665,-42737,22244,-4602258,1292590,1555262,0,0,0,229,426,154,350,364,359,323,314,266,227,277,155,0
2,1768494676192,-3058,-50710,12792,-2564412,1254717,-122173,0,0,0,232,424,155,351,362,358,324,327,261,233,286,152,0
2,1768494676208,-11926,-49973,12304,-449596,1080009,-1557706,0,0,0,229,413,153,343,355,352,332,411,252,248,355,153,0
2,1768494676224,-14051,-40411,19310,1500285,-526565,-1591914,0,0,0,237,351,152,323,306,347,396,471,244,319,427,128,0
2,1768494676240,-9203,-17267,25206,3898541,-3539353,-627969,0,0,0,246,333,153,308,281,342,431,494,249,365,451,128,0
2,1768494676256,-564,4484,19617,5919284,-5617516,581543,0,0,0,256,334,155,325,274,359,479,516,257,393,474,140,0
2,1768494676272,-780,4273,18616,6684087,-3360980,1439198,0,0,0,273,357,165,350,282,377,528,536,275,405,476,151,0
2,1768494676288,-6049,-2770,24651,5635842,-371406,1114218,0,0,0,272,376,166,366,297,388,555,557,284,432,494,169,0
2,1768494676304,-3905,-3273,23512,3679852,262672,-19547,0,0,0,270,406,178,384,319,408,581,582,305,455,515,199,0
2,1768494676320,2029,536,13907,1984090,-431270,-127059,0,0,0,282,440,201,412,354,436,606,606,329,481,534,242,0
2,1768494676336,2215,918,9255,905302,-657290,313984,0,0,0,309,464,219,433,389,456,619,619,345,492,544,291,0
2,1768494676352,143,-239,10342,322536,-480140,290771,0,0,0,345,490,235,436,397,462,627,627,360,483,545,327,0
2,1768494676368,-258,-4,10969,61086,-320093,70860,0,0,0,373,505,248,442,393,459,631,631,355,523,569,333,0
2,1768494676384,349,823,10514,25656,-204028,-45204,0,0,0,387,507,263,451,395,464,632,632,354,507,561,342,0
2,1768494676400,631,1048,10050,40317,-114842,-2443,0,0,0,389,509,291,441,395,471,648,646,363,518,572,347,0
2,1768494676416,531,942,10074,45204,-69638,17104,0,0,0,393,510,284,445,403,478,645,645,369,551,585,349,0
2,1768494676432,445,938,10174,80634,-50090,-4886,0,0,0,401,516,253,453,415,472,636,632,354,547,566,353,0
2,1768494676448,440,1000,10160,150272,-31764,-23212,0,0,0,412,522,267,447,408,483,630,617,360,513,547,376,0
2,1768494676464,449,971,10107,229685,-13439,-19547,0,0,0,426,533,266,454,417,480,625,601,361,500,534,379,0
2,1768494676480,469,894,10078,278554,-1221,-17104,0,0,0,433,538,262,458,418,479,617,585,356,509,533,381,0
2,1768494676496,507,813,10054,285884,2443,-21991,0,0,0,437,542,266,466,422,485,610,570,357,479,488,396,0
2,1768494676512,540,775,10035,276111,-1221,-30543,0,0,0,444,548,269,468,431,490,603,557,363,420,416,418,0
2,1768494676528,574,737,10021,272445,-12217,-40317,0,0,0,444,554,263,467,431,486,591,536,362,353,341,433,0
2,1768494676544,593,689,10011,270002,-35430,-53756,0,0,0,442,558,256,474,432,490,588,522,361,305,284,446,0
2,1768494676560,579,641,10002,262672,-62308,-65973,0,0,0,450,563,258,479,441,493,596,515,371,313,277,458,0
2,1768494676576,564,603,10007,262672,-89186,-80634,0,0,0,463,570,262,476,452,488,596,498,377,335,288,469,0
2,1768494676592,550,583,10045,283441,-114842,-91629,0,0,0,471,576,260,482,472,495,593,478,376,358,311,480,0
2,1768494676608,502,555,10078,312763,-138055,-96516,0,0,0,474,581,266,490,485,507,592,453,384,399,353,482,0
2,1768494676624,502,526,10179,356745,-158824,-97738,0,0,0,493,591,273,491,484,519,588,445,392,265,202,523,0
2,1768494676640,598,502,10390,437379,-201585,-108734,0,0,0,506,595,267,507,496,544,580,430,394,274,201,547,0
2,1768494676656,650,411,10629,593761,-280998,-138055,0,0,0,518,605,257,524,504,534,568,408,402,278,202,566,0
2,1768494676672,540,272,10806,794124,-333532,-166155,0,0,0,518,603,235,525,520,550,572,413,410,288,209,574,0
2,1768494676688,358,196,11241,1060462,-261450,-174707,0,0,0,535,616,229,540,537,551,562,400,418,360,231,567,0
2,1768494676704,191,201,11964,1382998,-120951,-169820,0,0,0,536,615,211,566,559,554,523,388,405,314,213,589,0
2,1768494676720,38,253,12821,1707979,21991,-144164,0,0,0,542,617,206,569,557,570,489,378,408,304,221,609,0
2,1768494676736,157,143,13663,2173458,109955,-85521,0,0,0,555,618,204,566,562,572,443,369,402,294,218,618,0
2,1768494676752,579,-23,14256,2687807,87964,-52534,0,0,0,571,625,213,563,558,573,410,365,394,286,213,621,0
2,1768494676768,1225,-52,15448,3298672,9773,-103847,0,0,0,580,623,221,550,551,569,366,351,391,290,210,624,0
2,1768494676784,2077,-52,17161,4090353,-74525,-273667,0,0,0,580,611,219,535,553,558,314,320,396,290,206,618,0
2,1768494676800,2373,52,19583,5050633,-117286,-519235,0,0,0,575,603,214,530,556,544,288,269,405,274,196,592,0
2,1768494676816,3216,-157,22799,6180734,-210137,-735481,0,0,0,558,592,210,524,550,533,271,200,405,256,175,547,0
2,1768494676832,5345,-1186,26948,7279070,-349414,-955393,0,0,0,514,582,196,511,542,532,257,161,390,243,161,493,0
2,1768494676848,6556,-1220,31265,8179485,-389732,-1304808,0,0,0,460,557,184,488,504,496,253,162,366,238,156,465,0
2,1768494676864,6087,722,33897,8864876,-527787,-1716531,0,0,0,389,501,167,441,452,445,284,186,324,227,152,427,0
2,1768494676880,6001,3651,33792,9100670,-733038,-2007303,0,0,0,271,448,167,377,388,403,305,228,301,177,140,293,0
2,1768494676896,10112,9676,28250,8619308,-719599,-2299296,0,0,0,272,433,169,366,376,389,321,275,297,155,151,215,0
2,1768494676912,12940,18875,16654,7051828,-400727,-2801427,0,0,0,264,430,169,361,373,378,312,270,282,149,146,203,0
2,1768494676928,10552,25254,7843,3844785,-164933,-2972470,0,0,0,255,427,168,356,372,366,311,276,267,144,144,185,0
2,1768494676944,4441,23512,8906,-1271821,-460592,-1731192,0,0,0,252,427,159,354,374,367,308,293,250,140,153,172,0
2,1768494676960,2651,15793,10174,-4492302,-1141096,-92851,0,0,0,246,424,160,349,375,360,307,297,250,142,160,171,0
2,1768494676976,6211,8423,7140,-5291314,-1500285,992045,0,0,0,241,420,161,344,376,351,304,314,247,143,169,166,0
2,1768494676992,9911,5632,3584,-4948008,-470366,994488,0,0,0,237,418,157,341,378,347,297,318,240,152,190,160,0
2,1768494677008,7686,5833,5111,-5000542,676838,691499,0,0,0,235,418,155,337,379,344,291,312,236,160,207,156,0
2,1768494677024,4254,5924,8111,-5325523,1246165,561996,0,0,0,238,421,158,333,378,340,289,321,234,162,223,151,0
2,1768494677040,3378,5034,10016,-5714033,1143539,647517,0,0,0,237,420,155,332,377,339,288,327,233,170,247,146,0
2,1768494677056,4307,4044,10897,-5926614,1285260,656069,0,0,0,235,419,153,333,373,339,289,322,232,174,239,142,0
2,1768494677072,4235,3536,12687,-6156299,1661553,627969,0,0,0,242,427,157,330,363,333,286,322,231,178,246,144,0
2,1768494677088,3206,3450,15142,-6454402,1915673,676838,0,0,0,238,423,155,330,358,333,286,322,233,194,270,143,0
2,1768494677104,2924,2981,17784,-6794043,1955990,833220,0,0,0,230,417,152,333,365,337,290,327,233,195,273,144,0
2,1768494677120,3359,2206,20263,-7013954,2041511,954171,0,0,0,228,417,152,336,365,340,290,327,236,198,280,144,0
2,1768494677136,3737,1454,23397,-7117801,2249205,1028697,0,0,0,230,417,153,336,361,337,288,326,233,198,278,143,0
2,1768494677152,3957,880,27719,-7228979,2452013,1204626,0,0,0,231,418,155,337,363,343,292,326,236,187,254,144,0
2,1768494677168,4158,-440,32332,-7379252,2543642,1643227,0,0,0,229,416,153,337,358,344,298,324,239,172,227,142,0
2,1768494677184,3962,-6116,35616,-7404908,2664594,2379930,0,0,0,231,420,155,338,358,349,306,320,248,168,218,143,0
2,1768494677200,2115,-15271,36989,-7053050,2722015,2752558,0,0,0,232,423,158,343,361,355,313,319,257,173,220,145,0
2,1768494677216,0,-27657,33936,-6223495,2186897,2527760,0,0,0,232,423,160,346,369,359,316,326,262,203,233,154,0
2,1768494677232,105,-40741,23053,-4663345,1365894,1448972,0,0,0,233,424,160,351,374,364,317,330,265,209,236,156,0
2,1768494677248,-2531,-48327,13792,-2764776,1204626,-39095,0,0,0,231,424,157,353,371,366,317,325,265,176,222,149,0
2,1768494677264,-10370,-48427,12840,-603534,974940,-1389107,0,0,0,232,421,157,349,363,361,318,344,256,168,219,144,0
2,1768494677280,-12950,-42493,15917,1303586,-54977,-1672549,0,0,0,240,402,160,341,345,351,355,400,250,160,234,135,0
2,1768494677296,-7910,-27350,20847,3037221,-1343903,-1175304,0,0,0,248,366,156,328,322,342,434,458,254,175,293,131,0
2,1768494677312,19,9456,23598,4272391,-3692069,160046,0,0,0,249,328,149,313,287,340,466,470,259,199,346,126,0
2,1768494677328,3728,20569,14620,4889365,-4866152,1488067,0,0,0,266,336,161,329,274,366,480,511,271,370,460,141,0
2,1768494677344,-2364,3680,14395,5648059,-2652376,2043955,0,0,0,272,353,170,353,274,381,531,547,272,448,500,150,0
2,1768494677360,-7872,-6671,23828,5188689,-596204,1314581,0,0,0,272,382,171,370,306,393,564,565,299,415,480,164,0
2,1768494677376,-2842,-2144,21808,3082425,-790459,167377,0,0,0,270,421,187,394,339,417,586,586,321,414,488,198,0
2,1768494677392,1397,1344,14055,1334129,-852767,-43982,0,0,0,281,455,205,423,379,440,596,596,336,422,496,244,0
2,1768494677408,1359,1028,8805,384845,-420275,255341,0,0,0,309,484,220,436,404,450,610,610,335,435,497,287,0
2,1768494677424,191,349,9873,223576,-195476,191811,0,0,0,339,498,232,440,409,453,622,622,345,446,500,313,0
2,1768494677440,105,684,10629,129503,-173485,45204,0,0,0,355,508,241,448,411,459,626,626,345,453,505,324,0
2,1768494677456,512,1287,10318,53756,-196698,-18325,0,0,0,363,515,246,454,414,464,628,628,336,458,508,327,0
2,1768494677472,531,1282,10011,25656,-122173,3665,0,0,0,371,517,249,454,416,462,631,631,337,461,509,330,0
2,1768494677488,469,1196,10002,28099,-63529,10995,0,0,0,377,519,251,458,416,459,632,631,333,460,506,329,0
2,1768494677504,421,1201,10122,48869,-47647,-2443,0,0,0,379,521,252,462,415,460,628,627,333,457,497,330,0
2,1768494677520,406,1277,10102,90408,-20769,-13439,0,0,0,382,521,250,458,418,464,619,618,330,445,473,343,0
2,1768494677536,406,1296,10040,149051,8552,-13439,0,0,0,388,519,252,457,419,469,617,613,341,414,432,351,0
2,1768494677552,445,1239,10011,205250,19547,-6108,0,0,0,390,525,245,453,413,465,618,596,330,440,451,348,0
2,1768494677568,502,1167,9997,245567,15882,-6108,0,0,0,396,530,248,462,420,482,611,577,345,432,448,349,0
2,1768494677584,545,1129,9992,273667,0,-19547,0,0,0,398,536,247,460,422,476,603,575,354,307,328,381,0
2,1768494677600,564,1100,9992,299323,-18325,-34208,0,0,0,403,535,246,464,430,476,598,559,347,292,301,394,0
2,1768494677616,583,1038,9987,316428,-51312,-53756,0,0,0,414,538,249,474,445,484,595,537,346,320,314,402,0
2,1768494677632,569,990,10002,320093,-83077,-70860,0,0,0,429,540,247,483,452,487,597,523,356,299,279,414,0
2,1768494677648,526,966,10031,335975,-103847,-84299,0,0,0,442,548,246,489,461,488,601,511,371,283,246,440,0
2,1768494677664,473,918,10078,366519,-107512,-86742,0,0,0,458,562,254,502,472,493,597,492,372,282,238,460,0
2,1768494677680,473,847,10165,411723,-108734,-86742,0,0,0,478,574,266,511,481,500,591,468,380,282,229,481,0
2,1768494677696,507,784,10279,478918,-125838,-97738,0,0,0,496,583,275,509,489,511,593,445,393,276,210,508,0
2,1768494677712,488,698,10346,558330,-150272,-112399,0,0,0,503,588,272,519,508,532,590,425,389,267,201,532,0
2,1768494677728,411,564,10461,657290,-151494,-108734,0,0,0,501,590,248,542,532,552,581,414,396,269,200,557,0
2,1768494677744,402,492,10835,835663,-113620,-96516,0,0,0,513,598,240,550,541,560,570,399,397,280,204,578,0
2,1768494677760,626,469,11495,1111774,26878,-125838,0,0,0,523,607,222,562,550,555,549,390,403,293,215,596,0
2,1768494677776,746,449,12246,1409876,186924,-193033,0,0,0,535,621,220,570,562,568,523,376,428,335,252,603,0
2,1768494677792,440,464,13141,1797165,228463,-226020,0,0,0,542,615,217,566,564,584,485,374,434,298,204,605,0
2,1768494677808,282,291,13563,2320066,94073,-139277,0,0,0,556,625,214,571,580,600,449,380,426,307,223,612,0
2,1768494677824,660,177,14094,2838079,36651,-80634,0,0,0,562,621,214,579,574,588,406,370,413,310,217,617,0
2,1768494677840,1373,148,15175,3381749,26878,-127059,0,0,0,569,631,220,563,561,587,353,357,403,309,221,628,0
2,1768494677856,1885,110,16491,4036597,-54977,-290771,0,0,0,572,632,223,543,568,565,307,327,421,294,209,622,0
2,1768494677872,2120,47,18281,4828278,-163711,-469144,0,0,0,570,619,211,535,586,553,279,269,427,277,190,593,0
2,1768494677888,2837,-291,20770,5756794,-274889,-645073,0,0,0,556,601,205,533,582,549,264,201,421,257,167,545,0
2,1768494677904,4221,-1670,25235,6849021,-313984,-855211,0,0,0,523,584,202,526,555,546,256,159,404,243,155,505,0
2,1768494677920,5125,-2402,29557,7760431,-193033,-1062905,0,0,0,477,561,184,502,521,527,256,160,371,241,159,482,0
2,1768494677936,5403,-1033,31595,8374962,-169820,-1340238,0,0,0,413,522,164,460,472,475,270,179,335,227,149,432,0
2,1768494677952,5345,1799,33352,8698721,-250454,-1650557,0,0,0,314,469,162,404,406,410,301,210,306,184,131,331,0
2,1768494677968,7255,7753,31332,8334645,-441044,-1910786,0,0,0,244,427,170,359,374,379,327,253,292,140,127,202,0
2,1768494677984,9643,15635,21292,7332826,-520457,-2295631,0,0,0,245,427,169,345,396,379,322,264,296,140,131,203,0
2,1768494678000,9801,21818,9327,5024977,-383623,-2762332,0,0,0,254,430,172,359,375,376,311,265,273,140,131,196,0
2,1768494678016,5216,22378,8939,560774,-311541,-2431243,0,0,0,254,430,171,354,370,363,307,273,263,140,135,190,0
2,1768494678032,1708,16826,10792,-3321885,-779464,-1359786,0,0,0,245,427,163,347,370,359,303,281,256,133,136,176,0
2,1768494678048,3594,9538,8289,-4544837,-1364672,-276111,0,0,0,240,423,162,341,368,356,302,292,252,133,144,170,0
2,1768494678064,7762,6513,3608,-4236961,-811229,131946,0,0,0,240,421,160,342,370,351,301,301,245,132,147,162,0
2,1768494678080,7733,6556,3302,-4344473,376292,142942,0,0,0,240,421,159,339,371,345,300,310,240,135,152,160,0
2,1768494678096,5106,6566,5924,-4867374,1040914,173485,0,0,0,237,420,161,336,369,346,300,319,240,133,152,152,0
2,1768494678112,3996,5111,7977,-5334075,1120326,337197,0,0,0,240,422,161,334,364,343,298,323,239,129,152,144,0
2,1768494678128,4455,4077,8748,-5514891,1257160,404392,0,0,0,243,424,158,334,363,338,294,324,235,128,156,143,0
2,1768494678144,3986,3914,10394,-5776341,1638340,401949,0,0,0,240,422,155,337,370,341,292,330,234,129,161,141,0
2,1768494678160,2976,3747,12390,-6092769,1874134,472809,0,0,0,237,422,155,339,374,341,293,335,236,131,163,139,0
2,1768494678176,2493,3125,14285,-6310237,1952325,635299,0,0,0,234,419,155,339,366,343,293,334,237,132,164,138,0
2,1768494678192,2531,2632,16290,-6437297,2048842,791681,0,0,0,231,418,156,337,365,342,294,336,237,131,164,138,0
2,1768494678208,2737,2579,18769,-6596122,2212553,897971,0,0,0,232,417,157,335,364,339,298,342,240,127,164,136,0
2,1768494678224,2727,2359,22421,-6867347,2405587,1033583,0,0,0,232,417,155,337,364,342,296,338,240,127,157,136,0
2,1768494678240,2694,1660,27001,-7079928,2538755,1290147,0,0,0,234,422,157,338,364,345,297,335,240,124,152,138,0
2,1768494678256,2182,-191,30906,-7153231,2575407,1750739,0,0,0,237,425,161,339,360,353,297,330,248,122,150,141,0
2,1768494678272,866,-4972,34601,-7152010,2582738,2334726,0,0,0,238,426,162,341,361,357,308,328,258,122,145,142,0
2,1768494678288,-1751,-14242,36525,-6912551,2382374,2726902,0,0,0,232,426,158,349,371,362,316,328,263,126,146,144,0
2,1768494678304,-847,-28265,32055,-6097656,1348790,2345722,0,0,0,233,427,158,351,373,363,321,334,265,126,147,146,0
2,1768494678320,4450,-41832,21378,-4569271,522900,934623,0,0,0,235,429,160,352,373,363,324,338,267,127,147,148,0
2,1768494678336,2895,-48284,12500,-2547308,1037249,-1224173,0,0,0,232,420,159,346,360,359,330,376,261,170,217,154,0
2,1768494678352,-10026,-47006,13859,-689055,1308473,-2426356,0,0,0,234,387,155,339,339,353,382,433,256,192,288,144,0
2,1768494678368,-20248,-38851,23507,1837482,-862541,-1935221,0,0,0,241,355,150,329,311,350,450,465,263,179,313,131,0
2,1768494678384,-8992,-13773,21933,4612032,-4552167,-219911,0,0,0,248,346,150,319,283,352,475,486,272,228,367,136,0
2,1768494678400,2962,6944,16434,6791599,-5492900,1343903,0,0,0,259,349,157,335,282,370,495,527,277,346,456,140,0
2,1768494678416,-904,3326,19339,6438519,-2323731,1687209,0,0,0,264,364,157,362,290,385,529,547,276,422,493,153,0
2,1768494678432,-5814,-2584,24034,4537506,-466701,657290,0,0,0,272,383,161,382,304,384,561,561,290,437,493,160,0
2,1768494678448,-1947,-1809,19535,2663372,-439822,-252898,0,0,0,270,412,182,392,328,409,584,585,324,451,506,195,0
2,1768494678464,1842,966,11710,1544267,-624304,-61086,0,0,0,279,452,198,414,358,433,589,588,337,411,482,255,0
2,1768494678480,1641,856,9069,747699,-540004,256563,0,0,0,316,483,210,438,395,448,609,608,347,438,500,304,0
2,1768494678496,81,-95,10538,179594,-459370,184481,0,0,0,355,501,240,422,455,439,614,614,352,457,525,334,0
2,1768494678512,-110,335,10935,-53756,-390953,19547,0,0,0,373,508,236,440,427,454,626,626,349,486,538,338,0
2,1768494678528,402,1162,10279,-29321,-278554,-30543,0,0,0,385,512,233,451,408,461,635,634,353,495,536,342,0
2,1768494678544,483,1182,10078,20769,-156381,6108,0,0,0,392,516,237,453,413,462,636,635,354,509,534,342,0
2,1768494678560,382,1033,10145,37873,-67195,14660,0,0,0,395,518,241,455,415,462,632,632,345,500,533,341,0
2,1768494678576,339,1009,10165,45204,-20769,-4886,0,0,0,397,519,242,454,414,462,626,626,342,455,511,350,0
2,1768494678592,373,1057,10098,68416,8552,-17104,0,0,0,396,518,237,453,415,466,620,621,341,470,516,348,0
2,1768494678608,416,1076,10021,103847,35430,-18325,0,0,0,394,516,236,450,414,467,616,616,336,522,547,333,0
2,1768494678624,440,1052,10002,136833,37873,-15882,0,0,0,400,516,237,453,418,470,608,607,343,494,504,338,0
2,1768494678640,454,1024,9997,162490,18325,-15882,0,0,0,397,515,236,462,425,477,604,600,339,488,531,348,0
2,1768494678656,473,990,9997,182037,1221,-15882,0,0,0,402,515,237,456,425,472,600,589,351,496,533,348,0
2,1768494678672,502,971,9978,190589,-9773,-20769,0,0,0,406,515,232,464,434,472,594,576,345,484,509,349,0
2,1768494678688,521,961,9973,206472,-24434,-29321,0,0,0,422,525,240,466,430,469,591,559,345,479,495,358,0
2,1768494678704,526,928,9973,230907,-43982,-36651,0,0,0,433,538,246,474,447,473,593,549,355,426,426,380,0
2,1768494678720,516,880,9973,256563,-63529,-46425,0,0,0,437,550,244,479,456,478,587,544,363,328,324,413,0
2,1768494678736,526,861,10011,284663,-76969,-57421,0,0,0,447,557,239,493,471,492,590,530,365,295,277,439,0
2,1768494678752,545,856,10107,338419,-89186,-69638,0,0,0,460,568,243,491,475,492,593,512,373,282,245,462,0
2,1768494678768,555,789,10212,411723,-106290,-86742,0,0,0,470,580,248,498,493,499,588,490,384,276,225,492,0
2,1768494678784,555,693,10299,487470,-125838,-106290,0,0,0,491,591,261,510,506,517,577,463,392,277,214,519,0
2,1768494678800,579,603,10409,576656,-153938,-131946,0,0,0,511,600,264,516,511,531,569,436,396,318,249,533,0
2,1768494678816,622,488,10600,713490,-179594,-163711,0,0,0,522,611,253,525,530,537,558,419,398,344,272,549,0
2,1768494678832,646,363,11060,932180,-190589,-191811,0,0,0,535,617,243,538,549,541,541,411,402,299,219,573,0
2,1768494678848,488,411,12084,1282817,-123394,-219911,0,0,0,537,613,224,553,567,554,518,404,409,305,223,586,0
2,1768494678864,268,488,13213,1694540,-17104,-219911,0,0,0,555,629,229,555,566,558,494,394,410,303,215,596,0
2,1768494678880,153,454,13749,2119702,-2443,-168598,0,0,0,558,631,219,565,564,563,455,392,399,313,214,598,0
2,1768494678896,248,330,14151,2608394,-43982,-94073,0,0,0,577,626,228,564,576,563,410,382,395,311,212,617,0
2,1768494678912,928,157,14917,3166725,-106290,-65973,0,0,0,580,628,230,564,570,569,382,375,389,304,219,619,0
2,1768494678928,1541,81,16113,3817907,-160046,-184481,0,0,0,589,632,232,545,567,551,330,360,383,303,213,609,0
2,1768494678944,1813,119,17616,4537506,-208915,-343306,0,0,0,584,629,229,536,563,551,288,307,390,288,205,605,0
2,1768494678960,3029,-4,20153,5519778,-316428,-570548,0,0,0,568,608,219,541,560,547,322,292,383,267,186,565,0
2,1768494678976,4742,-751,23498,6521597,-487470,-850324,0,0,0,529,595,209,522,540,534,277,207,382,245,169,516,0
2,1768494678992,6446,-1966,28236,7578394,-609643,-1233947,0,0,0,484,581,196,506,513,510,247,162,366,240,160,485,0
2,1768494679008,7183,-1378,30576,8268671,-478918,-1612684,0,0,0,428,540,176,474,477,470,262,173,334,233,153,452,0
2,1768494679024,6748,770,32323,8734151,-119729,-2028072,0,0,0,329,478,163,414,425,418,287,202,302,194,137,345,0
2,1768494679040,6039,4608,32998,8657182,-141720,-2353052,0,0,0,245,439,167,371,384,388,308,237,290,147,124,224,0
2,1768494679056,8638,13026,25249,7696902,-779464,-2687807,0,0,0,247,434,175,362,378,389,314,260,293,137,133,214,0
2,1768494679072,11146,20823,12060,5695707,-1117883,-2940705,0,0,0,249,431,171,359,380,381,306,270,275,140,134,199,0
2,1768494679088,8791,23345,7542,1748296,-568104,-2298075,0,0,0,246,429,164,357,382,364,305,275,263,139,140,188,0
2,1768494679104,4393,19818,8734,-2530203,-178372,-900415,0,0,0,245,430,169,353,382,362,303,287,260,135,143,182,0
2,1768494679120,3302,11615,9121,-4729318,-478918,654847,0,0,0,244,426,166,348,373,358,302,294,254,135,143,168,0
2,1768494679136,7150,7044,5087,-4536285,-349414,1116661,0,0,0,244,425,167,349,375,358,308,310,250,135,152,162,0
2,1768494679152,8260,5876,3598,-4373795,543670,899193,0,0,0,237,422,165,340,375,355,295,317,243,131,153,166,0
2,1768494679168,5178,6216,5790,-4662123,1483180,464257,0,0,0,238,422,163,339,373,353,294,322,240,133,157,163,0
2,1768494679184,2646,5666,8188,-5092172,1533271,338419,0,0,0,241,424,166,336,371,347,294,327,240,133,159,156,0
2,1768494679200,2311,4742,9308,-5348736,1478293,321315,0,0,0,238,421,162,335,372,345,290,337,237,126,160,146,0
2,1768494679216,2287,4379,10385,-5513669,1707979,317649,0,0,0,238,420,161,334,373,343,289,340,236,124,159,141,0
2,1768494679232,1617,4350,12065,-5749463,1955990,362853,0,0,0,241,423,165,334,372,344,291,340,238,128,162,141,0
2,1768494679248,890,4278,14199,-6069557,2094046,508239,0,0,0,240,424,167,332,374,347,293,343,243,131,164,144,0
2,1768494679264,760,3967,16362,-6366437,2146580,711047,0,0,0,238,422,166,331,374,349,295,345,245,128,162,143,0
2,1768494679280,856,3508,18918,-6659652,2222327,910189,0,0,0,236,421,164,334,366,349,293,344,241,122,158,137,0
2,1768494679296,990,2895,22325,-6916216,2320066,1105666,0,0,0,233,420,165,334,366,351,292,342,242,122,155,139,0
2,1768494679312,1038,2287,26393,-7094588,2388483,1376890,0,0,0,232,418,162,336,371,351,296,341,242,128,154,140,0
2,1768494679328,402,760,31012,-7210653,2403143,1903456,0,0,0,238,423,168,339,364,354,300,334,248,124,149,143,0
2,1768494679344,-717,-4852,34979,-7204544,2241875,2625498,0,0,0,237,423,169,341,364,357,305,330,254,128,150,149,0
2,1768494679360,-1560,-13988,37003,-6998072,1875356,3055547,0,0,0,234,424,169,344,363,358,314,327,259,128,148,146,0
2,1768494679376,2421,-29748,32309,-6243042,866206,2648711,0,0,0,231,425,170,354,370,373,316,330,260,129,148,150,0
2,1768494679392,7781,-44101,21182,-4736649,455705,1258382,0,0,0,233,426,167,356,371,370,319,333,264,132,150,153,0
2,1768494679408,1971,-50423,11710,-2345722,1425759,-863763,0,0,0,228,404,158,334,356,355,356,409,261,148,196,155,0
2,1768494679424,-13878,-48509,14347,-171042,1624901,-1960877,0,0,0,233,368,151,325,327,344,408,453,268,162,266,137,0
2,1768494679440,-18104,-39861,24728,2597398,-2156354,-1213178,0,0,0,239,348,149,324,296,347,433,485,256,288,395,129,0
2,1768494679456,-4833,-10825,21186,5677381,-5610186,-161268,0,0,0,257,354,160,340,288,366,467,512,254,370,458,140,0
2,1768494679472,2665,5422,18765,6932098,-4576602,714712,0,0,0,271,371,167,362,296,378,511,535,260,407,478,147,0
2,1768494679488,-2167,1727,23823,5907066,-955393,979827,0,0,0,267,391,166,371,309,378,548,562,266,443,504,151,0
2,1768494679504,-3474,-2349,22459,3743382,28099,162490,0,0,0,260,414,175,381,326,394,577,583,287,455,516,175,0
2,1768494679520,287,-765,14730,2048842,-271224,-272445,0,0,0,266,448,198,411,351,434,590,591,318,482,526,228,0
2,1768494679536,2431,1273,9011,1076344,-508239,31764,0,0,0,299,485,220,428,384,448,598,598,332,493,537,278,0
2,1768494679552,909,291,9696,414166,-390953,200363,0,0,0,351,497,232,436,403,458,620,619,347,474,536,319,0
2,1768494679568,-4,47,10720,15882,-384845,98960,0,0,0,358,517,244,445,407,472,641,633,359,554,585,330,0
2,1768494679584,215,674,10562,-39095,-368962,1221,0,0,0,372,525,258,444,407,467,656,640,389,522,569,336,0
2,1768494679600,464,1076,10241,-19547,-256563,-1221,0,0,0,377,525,269,439,430,466,650,645,390,513,560,333,0
2,1768494679616,483,1076,10179,7330,-107512,18325,0,0,0,394,538,278,449,413,463,649,638,383,515,560,333,0
2,1768494679632,425,1019,10198,34208,-39095,1221,0,0,0,400,542,280,451,412,470,645,635,378,533,574,326,0
2,1768494679648,416,1019,10150,70860,-6108,-17104,0,0,0,401,542,279,453,419,473,640,628,377,537,577,328,0
2,1768494679664,430,1052,10088,128281,12217,-25656,0,0,0,408,540,275,454,422,473,629,618,386,547,577,331,0
2,1768494679680,449,1019,10059,180816,26878,-23212,0,0,0,414,541,269,456,424,486,623,605,386,530,554,337,0
2,1768494679696,488,957,10035,217468,36651,-19547,0,0,0,419,541,265,459,426,489,619,593,384,506,529,345,0
2,1768494679712,536,914,10011,223576,29321,-20769,0,0,0,425,542,268,460,431,485,611,577,383,492,510,355,0
2,1768494679728,574,899,10007,224798,18325,-29321,0,0,0,431,548,271,466,437,494,599,558,372,450,458,374,0
2,1768494679744,593,880,10021,240680,3665,-40317,0,0,0,437,553,268,477,441,500,592,545,365,390,386,398,0
2,1768494679760,607,837,10016,268780,-9773,-52534,0,0,0,449,560,268,481,446,500,587,528,372,373,357,412,0
2,1768494679776,607,784,9997,296880,-24434,-63529,0,0,0,460,565,269,485,458,508,583,516,371,294,267,452,0
2,1768494679792,588,722,10016,321315,-40317,-74525,0,0,0,464,573,266,495,471,515,586,492,365,297,259,466,0
2,1768494679808,588,670,10054,343306,-61086,-75747,0,0,0,476,582,282,497,479,514,573,466,397,435,380,464,0
2,1768494679824,631,631,10107,371406,-81855,-81855,0,0,0,485,583,290,499,490,514,580,463,395,300,239,516,0
2,1768494679840,646,588,10222,415388,-100181,-98960,0,0,0,503,598,282,515,506,529,567,434,391,284,212,541,0
2,1768494679856,670,516,10385,499687,-114842,-122173,0,0,0,510,605,276,522,517,533,565,414,399,283,207,553,0
2,1768494679872,746,445,10638,632856,-139277,-152716,0,0,0,526,608,270,530,528,553,555,401,398,297,213,569,0
2,1768494679888,684,402,11174,875980,-208915,-178372,0,0,0,537,616,256,538,540,561,533,394,395,293,209,585,0
2,1768494679904,574,373,11806,1204626,-265115,-182037,0,0,0,544,624,240,542,554,565,517,387,398,287,200,593,0
2,1768494679920,459,311,12443,1546710,-250454,-172263,0,0,0,549,625,227,550,561,573,504,378,402,294,203,601,0
2,1768494679936,358,263,13256,1949881,-202807,-156381,0,0,0,560,630,223,555,569,578,470,375,405,300,212,609,0
2,1768494679952,373,224,13941,2433687,-160046,-127059,0,0,0,577,640,221,551,578,578,420,371,404,302,215,616,0
2,1768494679968,717,153,14764,2966361,-190589,-107512,0,0,0,574,636,208,554,563,574,369,357,387,309,214,626,0
2,1768494679984,1636,52,16032,3641978,-265115,-169820,0,0,0,577,628,228,542,558,558,319,341,385,305,216,611,0
2,1768494680000,2148,23,17645,4398229,-321315,-359188,0,0,0,572,622,223,537,559,556,290,307,387,293,212,602,0
2,1768494680016,2785,9,19990,5308418,-422718,-582765,0,0,0,568,614,233,537,566,561,265,240,394,293,220,573,0
2,1768494680032,4130,-358,23316,6351776,-682947,-852767,0,0,0,534,601,219,544,558,549,244,163,383,246,171,521,0
2,1768494680048,5977,-1426,27480,7413460,-902858,-1196074,0,0,0,498,588,202,508,526,525,241,164,361,238,166,496,0
2,1768494680064,6546,-1383,30662,8218580,-828333,-1532050,0,0,0,440,547,170,476,490,474,262,174,336,247,159,460,0
2,1768494680080,4647,933,33337,8663290,-758694,-1820378,0,0,0,352,501,164,414,425,416,282,201,308,208,138,369,0
2,1768494680096,5111,4718,33634,8629082,-1045801,-1953547,0,0,0,271,454,169,372,394,385,303,243,294,161,133,252,0
2,1768494680112,9490,13883,25656,7749436,-1317025,-2111150,0,0,0,243,435,170,363,389,380,311,266,287,140,135,203,0
2,1768494680128,9897,21799,13280,5605299,-1112996,-2274862,0,0,0,248,434,169,360,385,375,308,272,275,140,136,199,0
2,1768494680144,7006,24972,7575,1904677,-845437,-1847256,0,0,0,248,432,168,355,382,366,307,278,265,141,139,190,0
2,1768494680160,3517,20042,9346,-2334726,-799011,-481361,0,0,0,244,430,168,353,382,361,306,286,260,138,143,180,0
2,1768494680176,4838,12012,8298,-4015828,-977384,853989,0,0,0,244,428,166,348,377,357,302,293,254,133,144,172,0
2,1768494680192,7475,7518,5254,-4311486,-687834,1398881,0,0,0,243,427,162,345,375,352,300,302,249,128,145,161,0
2,1768494680208,7422,6666,4776,-4482529,210137,1181413,0,0,0,239,425,161,341,380,350,296,313,244,125,151,155,0
2,1768494680224,5427,6508,6695,-4988325,831998,883311,0,0,0,238,421,154,340,380,343,294,319,236,126,152,151,0
2,1768494680240,3910,5642,8868,-5585751,993266,687834,0,0,0,236,421,154,339,374,343,298,332,242,131,157,150,0
2,1768494680256,3914,4288,9901,-5887519,1104444,551000,0,0,0,235,422,160,335,373,350,296,341,244,118,152,144,0
2,1768494680272,3426,3508,11146,-6034126,1375668,442266,0,0,0,234,423,160,335,374,347,293,341,239,130,162,144,0
2,1768494680288,2297,3182,13003,-6181956,1620014,428827,0,0,0,230,421,158,338,379,349,293,342,242,128,166,138,0
2,1768494680304,1521,2809,15171,-6351776,1748296,503352,0,0,0,233,423,162,332,382,346,295,346,241,128,170,141,0
2,1768494680320,1220,2512,17362,-6493497,1871691,576656,0,0,0,236,424,165,333,375,347,294,349,241,128,170,140,0
2,1768494680336,1167,2311,19593,-6644992,2021963,615752,0,0,0,238,424,164,337,375,351,293,350,242,125,168,140,0
2,1768494680352,1072,2091,22617,-6839247,2145358,700051,0,0,0,236,422,164,337,375,354,293,346,246,135,169,144,0
2,1768494680368,1249,1842,26527,-7042054,2179567,912632,0,0,0,236,423,164,336,371,352,294,341,248,138,165,146,0
2,1768494680384,1861,38,30748,-7238753,2136806,1320690,0,0,0,239,424,163,337,368,352,300,340,252,132,159,147,0
2,1768494680400,2100,-5010,34108,-7303504,2123367,1742187,0,0,0,238,423,161,343,370,358,307,338,260,132,157,150,0
2,1768494680416,1344,-14237,35237,-7023728,2059837,1874134,0,0,0,235,423,157,350,376,360,315,336,265,132,156,149,0
2,1768494680432,1603,-27054,30653,-6128200,1580919,1370781,0,0,0,238,425,161,354,379,364,320,337,266,135,158,150,0
2,1768494680448,1799,-38008,21871,-4682892,1255938,415388,0,0,0,240,429,166,355,378,365,322,341,267,131,153,150,0
2,1768494680464,-4010,-43239,14515,-2692693,1386664,-834441,0,0,0,240,429,164,355,385,366,326,344,269,134,157,152,0
2,1768494680480,-11859,-44302,12859,-890641,1060462,-1629788,0,0,0,223,411,162,341,359,362,351,437,263,147,205,164,0
2,1768494680496,-14582,-40779,17784,836885,-349414,-1527163,0,0,0,234,355,151,325,309,344,395,474,242,291,405,132,0
2,1768494680512,-8767,-20392,23067,3522248,-3522248,-514348,0,0,0,243,347,148,314,292,344,457,475,260,219,370,135,0
2,1768494680528,14,3555,18238,6001140,-5564982,574213,0,0,0,255,350,154,328,290,359,469,500,264,323,428,137,0
2,1768494680544,-124,4460,17367,6467841,-3075095,1276708,0,0,0,260,363,160,349,296,376,493,514,265,388,462,146,0
2,1768494680560,-4642,-1172,21976,5530773,-383623,1103222,0,0,0,264,378,169,366,302,387,532,538,268,427,486,158,0
2,1768494680576,-4211,-2914,22742,3770260,279776,20769,0,0,0,266,397,183,375,315,402,564,568,288,475,512,191,0
2,1768494680592,1196,14,15549,2323731,-310319,-288328,0,0,0,272,429,199,390,337,424,586,588,316,505,527,234,0
2,1768494680608,2718,1110,10327,1292590,-493579,54977,0,0,0,290,465,210,412,365,442,605,606,333,527,549,265,0
2,1768494680624,703,28,10045,574213,-360410,313984,0,0,0,311,489,222,420,389,456,627,628,344,558,575,298,0
2,1768494680640,-19,67,10830,140499,-305432,98960,0,0,0,337,508,236,430,390,473,632,631,353,554,578,326,0
2,1768494680656,430,775,10490,7330,-273667,-37873,0,0,0,362,510,239,431,396,460,644,639,345,565,587,327,0
2,1768494680672,727,1081,10093,13439,-199142,-15882,0,0,0,373,516,257,439,405,459,632,632,341,577,590,336,0
2,1768494680688,655,1014,10107,21991,-113620,12217,0,0,0,382,518,254,443,400,457,633,632,341,577,589,337,0
2,1768494680704,564,971,10165,29321,-53756,-2443,0,0,0,378,524,254,448,401,457,632,632,332,572,588,330,0
2,1768494680720,574,990,10126,43982,-14660,-19547,0,0,0,381,521,256,439,402,457,632,633,336,575,589,335,0
2,1768494680736,617,1024,10045,64751,17104,-26878,0,0,0,374,515,248,441,399,458,626,627,329,572,588,331,0
2,1768494680752,636,1000,10011,80634,32986,-26878,0,0,0,368,512,242,442,398,462,619,619,333,549,574,333,0
2,1768494680768,650,971,10002,86742,37873,-26878,0,0,0,363,511,241,440,398,465,612,615,336,550,572,334,0
2,1768494680784,674,976,9992,95294,34208,-31764,0,0,0,363,510,245,442,402,469,610,613,342,549,569,334,0
2,1768494680800,713,1000,9973,124616,26878,-32986,0,0,0,370,511,250,445,406,470,606,605,349,538,558,335,0
2,1768494680816,756,1000,9949,163711,13439,-36651,0,0,0,379,513,255,442,405,464,602,592,349,538,547,337,0
2,1768494680832,770,952,9944,195476,-3665,-41538,0,0,0,387,518,258,442,406,463,606,578,352,528,527,347,0
2,1768494680848,760,894,9944,206472,-24434,-46425,0,0,0,393,530,256,454,413,470,611,564,355,500,498,359,0
2,1768494680864,746,871,9935,204028,-48869,-48869,0,0,0,407,537,256,472,418,478,594,544,368,467,457,374,0
2,1768494680880,756,866,9959,222354,-67195,-50090,0,0,0,424,544,263,483,423,481,549,506,404,390,378,407,0
2,1768494680896,756,832,9997,256563,-78190,-52534,0,0,0,435,546,257,484,446,490,603,542,386,300,289,455,0
2,1768494680912,737,784,10035,293215,-81855,-57421,0,0,0,461,561,277,495,453,493,604,523,388,341,306,472,0
2,1768494680928,760,741,10102,339641,-74525,-63529,0,0,0,473,570,272,503,472,514,607,501,404,309,251,509,0
2,1768494680944,823,708,10222,412944,-69638,-80634,0,0,0,490,585,276,502,489,524,597,466,400,365,307,529,0
