foot,step_id,surface,contact_time_sec,stance_duration,time_to_peak_frac,impact_mag,impact_mag_norm,accel_mag_strike,loading_rate,loading_rate_norm,heel_pmax_ratio,fore_pmax_ratio,heel_mean_ratio,fore_mean_ratio,heel_fore_ratio,total_pmax,total_p_mean,midstance_diff,heel_impulse,heel_impulse_norm,rise_slope,fall_slope,slope_asym,heel_skew,heel_kurt,gyro_mag_strike,gyro_x_strike,gyro_y_strike,gyro_z_strike,gyro_x_std,gyro_y_std,gyro_z_std,pressure_01_mean_ratio,pressure_02_mean_ratio,pressure_03_mean_ratio,pressure_04_mean_ratio,pressure_05_mean_ratio,pressure_06_mean_ratio,pressure_07_mean_ratio,pressure_08_mean_ratio,pressure_09_mean_ratio,pressure_10_mean_ratio,pressure_11_mean_ratio,pressure_12_mean_ratio,accel_spec_centroid,accel_hf_frac,accel_spec_entropy,accel_zcr,accel_jerk_ratio,gyro_hf_frac,heel_ripple_frac,impact_mag_roll3_std,loading_rate_roll3_std,stance_duration_roll3_std,source_user,source_recording
right,0,paved,0.672,0.9759999999999999,0.0,16094.0,0.8579644113927037,35325.681224853965,2893.75,0.9324777521009409,0.24591611479028697,0.5041942604856512,0.1516018415924808,0.4134461085851832,0.36667860319487655,4530.0,3377.1612903225805,-25.599999999999994,494.2903225806452,0.146362663813854,0.0,-0.5573770491803278,-0.5573770491803278,1.0209664342319118,-0.6499629602011794,11533834.362924153,8894197.0,2613281.0,6862460.0,4658724.140283351,1735495.2436503484,2296810.6745616556,0.1063596072288236,0.10049000878768197,0.0453520803881863,0.1268673824169946,0.09588125167156994,0.05100198678026975,0.12661903488327667,0.06991938256982387,0.03920547892866695,0.11653708019714974,0.08168245902265694,0.04008424712489971,5.8594736456042975,0.3576565713591186,0.6759997333624015,0.08196721311475409,0.49429527782212795,0.27881105493546815,0.002912283268069537,0.0,0.0,0.0,Catherine,REC_0811_00000.csv
right,1,paved,1.664,1.0080000000000002,1.0,12462.0,0.5410852443391188,30925.64736590004,275.29761904761904,0.08871150063698141,0.26799242424242425,0.5191761363636364,0.16197425580989486,0.4016763439287955,0.4032456933497833,4224.0,3312.640625,15.0,519.265625,0.15675277936314025,0.7936507936507936,0.0,0.7936507936507936,0.769220967878249,-1.1334181915133832,10154634.762096075,8268671.0,1793500.0,5615073.0,4291396.507032628,1667502.9408644915,2031385.194310491,0.10718884575654807,0.10265601931993452,0.04551221882089911,0.12863133168874907,0.09763736445150914,0.04366324071147923,0.13068313137649817,0.07446853671306407,0.029088387757123517,0.12064582163964738,0.08750571909683079,0.03231938266771694,5.278889810229056,0.3592324924964613,0.6693582729060897,0.09523809523809523,0.5300542844731208,0.2882797882009679,0.003298688650424263,2568.2118292695404,1851.5254347854896,0.022627416997969815,Catherine,REC_0811_00000.csv
right,2,paved,2.688,1.008,0.0,15668.0,0.8207974165785994,35206.38601163147,364.5833333333333,0.11748279814086728,0.25549263873159683,0.5012457531143828,0.17272950807816365,0.3980647120933798,0.43392318593040746,4415.0,3240.796875,-15.5,542.4375,0.16737781506284624,0.0,-0.5714285714285714,-0.5714285714285714,0.7601199046708008,-1.219019455095687,11151270.308940278,8571661.0,2708576.0,6598566.0,4366436.940978721,1650061.1225581088,2186756.2053940394,0.10139770793255902,0.10254036671150518,0.03970377655958459,0.132066283851869,0.09880382429090068,0.03893236135016947,0.13615478446176915,0.08061288938388031,0.025721875888935496,0.12286715747959366,0.09211661869428334,0.029082353394950123,5.129902745055057,0.36058166857128165,0.6589824079752303,0.07936507936507936,0.4875979350496515,0.20965929180443843,0.0032145856041802907,1985.4191832792724,1486.6600618987336,0.018475208614068216,Catherine,REC_0811_00000.csv
right,3,paved,3.712,1.0079999999999996,0.0,12687.0,0.5607156993465683,35808.538953718846,597.65625,0.192587872666636,0.2483556361986845,0.47992742118394194,0.16539471274192563,0.4000572966321791,0.41342756183714524,4409.0,3326.984375,-12.900000000000006,533.15625,0.16025210518158806,0.0,0.0,0.0,0.7720160935194257,-1.1973097285609409,11956736.885788321,9068905.0,1987755.0,7534411.0,4464458.166549666,1426675.6416250786,2395838.1072031627,0.10228388133022115,0.09659178967439545,0.04473364110704608,0.12504755150826338,0.09266556143654868,0.048838334264794975,0.13090401874820948,0.07834140339177277,0.0369140597481766,0.11858054638444161,0.08705330935015287,0.03804590305597693,4.88472903226004,0.2807867635299244,0.6215134278489988,0.07936507936507936,0.5443405158796619,0.1889793704119524,0.0034952228605630927,1789.5726677990287,166.43818182161488,2.0430806063563037e-09,Catherine,REC_0811_00000.csv
right,4,paved,4.736,0.976,1.0,19215.0,1.1302606339627035,38285.01546297193,4510.416666666667,1.453430045571301,0.23641829503972514,0.4949538329396607,0.15323929609015055,0.41380136751802327,0.3703209030196447,4657.0,3297.7096774193546,-17.400000000000006,487.6693548387097,0.1478812274403545,0.18032786885245902,0.0,0.18032786885245902,1.0023594839379022,-0.729605478515607,11565015.31657637,9265603.0,2922379.0,6273586.0,4802552.405902911,1822655.2429802956,2089260.0982808794,0.1081395690068376,0.10230952078177426,0.04166625908499545,0.13357755627072554,0.10038247464026843,0.04507527218304004,0.1296305353666768,0.07217619266548632,0.03245654364221503,0.11699713388568801,0.08106310342466423,0.036525839047628364,5.086315368209745,0.32684442934017754,0.6448578095930254,0.09836065573770492,0.5042788178493613,0.29508865452509253,0.0032153934306184883,3268.086953147565,2329.2327452938516,0.018475208614067914,Catherine,REC_0811_00000.csv
right,5,paved,5.728,0.96,1.0,11241.0,0.43455730849869273,37315.10411348198,270.8333333333333,0.08727293576178712,0.2363825363825364,0.4814968814968815,0.14777200130217324,0.4181801142361077,0.35336926905767146,4810.0,3323.5737704918033,-7.599999999999994,472.88524590163934,0.14228215726701457,0.8,0.0,0.8,1.2529807053816637,-0.1341318668947804,11029055.072775139,8961393.0,1400103.0,6274807.0,4922825.286068832,1844090.8025107074,2416597.9547641613,0.11185865501287376,0.10184079945545482,0.03924276652625556,0.13221497696534443,0.10045477414199608,0.04821986997997415,0.12559066381240813,0.06921248113328532,0.0354496936933382,0.1154988211386124,0.07855952016888791,0.04185697797156922,5.595815023845826,0.38236808029972935,0.6670130119227048,0.1,0.5021877999278689,0.3545122229686058,0.00393592601447781,4248.340381843244,2359.045503919251,0.0244404037064308,Catherine,REC_0811_00000.csv
right,6,paved,6.704,0.976,0.0,15056.0,0.7674025789583367,35532.43117209966,346.875,0.11177649080259658,0.2419831223628692,0.4428270042194093,0.1507881873424492,0.41538933928951705,0.36300447093862886,4740.0,3256.7580645161293,-30.5,473.1774193548387,0.14529093349313338,0.0,-1.2131147540983607,-1.2131147540983607,1.1965325998734886,-0.16029897308614105,11357916.460640613,9066461.0,2456899.0,6384763.0,4578268.393971811,1643686.4772366,2337594.8156732065,0.11291656555351402,0.10700825578573586,0.04183360654519882,0.1362625607297976,0.10420515157067932,0.04183360654519882,0.13024529638122218,0.06960216720566167,0.026079764658105478,0.11991937361021003,0.08118602013678751,0.028907631277888656,5.665135343121971,0.3499621449011164,0.6558111940212725,0.09836065573770492,0.5118514438761314,0.3247033397019964,0.0029536002715649812,3988.236494157955,2426.0711855939935,0.009237604307033478,Catherine,REC_0811_00000.csv
right,7,paved,7.696,1.008000000000001,1.0,14132.0,0.686786843727744,35811.95784929944,0.0,0.0,0.2570484581497797,0.4654185022026432,0.16906479939655294,0.3931609334452936,0.43001423848218356,4540.0,3293.578125,-27.0,539.390625,0.16377040547656663,1.619047619047619,0.0,1.619047619047619,0.6485053203404034,-1.3887518581011367,11322720.603002928,8958949.0,2023185.0,6621779.0,4600947.813780189,1974309.9727435703,2272437.763935447,0.10172731973679841,0.09589210063143712,0.04696639767729815,0.1279336208246161,0.09430757771989999,0.04460384555171285,0.13406771700610562,0.07950130225011742,0.03042378871762758,0.12187542993230197,0.08956349714643554,0.03313740280564925,5.098096167852538,0.3392267231558047,0.6524876264667799,0.09523809523809523,0.5057124170536103,0.2706819799459057,0.0029549748372336526,1990.22117698846,182.32539370536298,0.024440403706431527,Catherine,REC_0811_00000.csv
right,8,paved,8.72,0.9919999999999991,0.0,17707.0,0.9986929621794418,36572.56317241109,750.0,0.24167889903264125,0.25161290322580643,0.4509677419354839,0.18585447352754786,0.3830872045013731,0.48514925934242464,4650.0,3306.222222222222,-3.0999999999999943,596.3571428571429,0.18037418623854973,0.0,-0.9193548387096774,-0.9193548387096774,0.4618842958417245,-1.6346486080331732,11921392.37774636,9498954.0,2257757.0,6840468.0,4672002.910978383,1871977.5663117256,2173184.818632672,0.09473719585965856,0.09163097958634994,0.04086570775641887,0.1272300424404202,0.09269199009083402,0.041499433487603946,0.13816661225587157,0.08596105467324718,0.030034758896165,0.12741247863576133,0.0998934188543007,0.02987632746336873,5.188512588691871,0.3406473277381801,0.6431377947455234,0.0967741935483871,0.48571760933435426,0.19908501948199991,0.003246299604904477,1855.7209739972577,375.35139785939367,0.016000000000000396,Catherine,REC_0811_00000.csv
right,9,paved,9.728,1.056000000000001,0.10606060606060606,10184.0,0.34233779319702995,35194.547887421424,341.14583333333337,0.10993033254609726,0.248834628190899,0.4586015538290788,0.1930983069987384,0.36762565174814066,0.5252579793612288,4505.0,3383.5522388059703,-7.300000000000011,637.9253731343283,0.18853717280258314,2.7142857142857144,-2.6271186440677967,0.0871670702179177,0.18580035058185676,-1.760056584204566,10594461.775742551,8773246.0,1615127.0,5715255.0,3982616.008068231,1242987.116141262,2098131.2098700944,0.09648519175290474,0.09219313800739308,0.04675383108805547,0.123525571465121,0.08890241643066987,0.03799768855481742,0.13840439703923282,0.08745996876902311,0.025006837290139302,0.1321361458857158,0.1056383382297153,0.02549647548721206,4.917662740976415,0.2949713969639259,0.5970742845814476,0.07575757575757576,0.48809481873255933,0.1416534754612413,0.0005814373686849602,3763.040835990666,375.5090343345936,0.033306655991459,Catherine,REC_0811_00000.csv
right,10,paved,10.8,0.863999999999999,1.0,12447.0,0.5397765473386221,32878.370184667,260.41666666666663,0.08391628438633375,0.24675324675324675,0.49834910851860004,0.15710263687969236,0.40412126899835193,0.38875122130780676,4543.0,3177.309090909091,-3.0,480.1727272727273,0.15112559512909723,2.8333333333333335,0.0,2.8333333333333335,1.1078693067260914,-0.4730815342625938,10905075.181342768,8567995.0,2547308.0,6246707.0,4591563.039150978,1796159.7551108608,2262678.8585799313,0.10928630287493132,0.10484572422633216,0.04555598791430141,0.12933185314045045,0.10090871635231642,0.04231711225050357,0.13194126533601902,0.07283464566929133,0.026717863028749313,0.12106299212598423,0.08426799121040102,0.030929545870719645,5.17329833183605,0.3269183032736646,0.6168500622956236,0.07407407407407407,0.4811018787451357,0.14679383740384003,0.005593492830516535,3859.7128131507397,262.47881445593913,0.0977616148257254,Catherine,REC_0811_00000.csv
right,11,paved,11.68,0.9920000000000009,1.0,11552.0,0.461690959642323,34033.00218905173,343.75,0.11076949538996057,0.26504921034561685,0.5120164797436484,0.17596148042215526,0.39270375305867544,0.44807690033900205,4369.0,3418.5873015873017,-27.0,583.5952380952381,0.17071239860519752,0.8870967741935484,0.0,0.8870967741935484,0.5363616487325449,-1.5827482798072148,11119775.603855953,8359079.0,2845410.0,6758613.0,4314100.330618642,1846597.734113669,2466924.678006022,0.09413987955667197,0.0897846042410538,0.04405885657771938,0.11740206434478179,0.08802020699165626,0.05509562568776669,0.1303239526212907,0.08203518579567351,0.042401251793416944,0.11933825816846279,0.09392629462648173,0.0434738195950244,5.645930567682453,0.35565766970183793,0.6807244821311679,0.0967741935483871,0.5162362910635736,0.22530444286397508,0.0030558895079976812,1139.7088809574705,47.37865989235291,0.09776161482572561,Catherine,REC_0811_00000.csv
right,12,paved,12.688,0.9599999999999991,0.11666666666666667,17808.0,1.0075048553161192,38872.719071348736,359.375,0.1158044724531406,0.2609653956358827,0.4699140401146132,0.17980569993899764,0.3878338114371852,0.4636153286186008,4537.0,3251.688524590164,2.4000000000000057,566.2540983606557,0.1741415557112824,5.857142857142857,-1.509433962264151,4.347708894878705,0.6975396856101127,-1.3461184389398864,12295667.380218854,9297368.0,3119077.0,7417125.0,4731732.169323012,1457941.0421113374,2333638.020719374,0.09869273467000751,0.09095400624139792,0.041698386210443,0.1262093338643731,0.09154890523460699,0.04587780371358134,0.13599491815097325,0.0831951117452219,0.033243762383225864,0.12670844403664175,0.09661058819377574,0.029266005555751613,4.85308456678888,0.28962076900573225,0.605735088383444,0.08333333333333333,0.4923219108229891,0.2190782764284617,0.0029962650908181587,3383.2647447891704,53.19983835432899,0.06661331198291685,Catherine,REC_0811_00000.csv
right,13,paved,13.664,0.9920000000000009,1.0,17511.0,0.9815926547062859,31901.64964386638,406.25,0.13090940364268067,0.23433583959899748,0.4492481203007519,0.17764556924896974,0.38910534369057337,0.45654877818922346,4788.0,3246.968253968254,-23.400000000000006,559.3888888888889,0.17228036898889806,0.7903225806451613,0.0,0.7903225806451613,0.5857951811372004,-1.518485434792448,11238099.802504826,8442157.0,2985909.0,6790377.0,4520114.093966063,1420827.1921778915,1991307.847291763,0.099457858124062,0.09362091132631661,0.04194877761428244,0.12670183174536442,0.09343514585034148,0.044784145405482034,0.13628830801871342,0.08291006506680225,0.030563309363068846,0.1234069388293842,0.09473550418216749,0.03214720447401483,6.209923300311823,0.4020072894833349,0.7306750041437807,0.0967741935483871,0.48969025533128197,0.14956287826809833,0.0020757323200064778,3529.2923275542553,32.52603124167106,0.018475208614068907,Catherine,REC_0811_00000.csv
right,14,paved,14.672,1.0079999999999991,1.0,13926.0,0.6688140715875902,36153.27147022798,1916.6666666666667,0.6176238530834166,0.2525966850828729,0.508950276243094,0.18256469847725568,0.38457404314038784,0.47471924258409653,4525.0,3227.109375,-18.19999999999999,571.375,0.17705473648534148,0.15873015873015872,0.0,0.15873015873015872,0.5554455741588263,-1.5427667671356973,11223294.715193886,8894197.0,1833817.0,6594901.0,4725525.045720366,1518379.2657500573,2090067.5624478247,0.10064637954826058,0.09351441644273367,0.04228823201878616,0.12648703609557702,0.09361125233011354,0.04287408913743433,0.13645144890696492,0.08639213692594476,0.028087249134529257,0.125804343089549,0.09617256155131092,0.027670854818795845,5.470211561354154,0.3812306191956297,0.6862151203928218,0.09523809523809523,0.5481959129818247,0.21972621787192795,0.0038983092347618384,2160.646431047894,885.8812098356167,0.024440403706431284,Catherine,REC_0811_00000.csv
right,15,paved,15.696,0.9919999999999991,0.0,11481.0,0.4554964605066389,35954.79247610811,601.5625,0.193846616932431,0.26310947562097514,0.5232290708371665,0.1761048803714431,0.3920925252505316,0.4491411313153175,4348.0,3216.968253968254,-12.199999999999989,548.8650793650794,0.17061563435947286,0.0,-1.0161290322580645,-1.0161290322580645,0.7477150202361745,-1.2536096187311594,11668438.309667666,8701164.0,1921782.0,7533190.0,4571196.380411584,1610223.2786347256,2438387.041128507,0.10287217087961159,0.0961123802850954,0.042330104752083444,0.12667452841825835,0.09555482091489079,0.04255214166942157,0.13415470545569377,0.08235102556385042,0.03119865396286556,0.1231860817391905,0.09375385480759267,0.029259531551445953,5.522385026833106,0.34833107694721516,0.6646018242795297,0.08064516129032258,0.4741964010758931,0.19839605525793186,0.0025620088081427395,3032.907021324591,821.4828511889062,0.009237604307033513,Catherine,REC_0811_00000.csv
right,16,paved,16.704,1.0399999999999991,1.0,15893.0,0.8404278715860489,33177.84241025929,500.0,0.16111926602176083,0.24286025724874646,0.46413778068454326,0.18879850234972834,0.378851479798126,0.49834437086050826,4587.0,3140.2727272727275,-17.19999999999999,576.0151515151515,0.18342838394657865,0.03076923076923077,0.0,0.03076923076923077,0.5048325236318713,-1.624961960611638,12597057.196190227,8648630.0,3997502.0,8240572.0,4648339.2405964555,1656066.8704262937,2352035.749185645,0.10040143203157417,0.09267676036630672,0.03946289166160052,0.13000221945594378,0.09424485423964334,0.037875498171361294,0.1402551409354524,0.08915940518580706,0.024052147564870837,0.12843412558260717,0.09963909716392129,0.02379642764091133,5.200799160068591,0.3895931514055306,0.6686694269323334,0.09230769230769231,0.5020036130244946,0.19713119173191598,0.0032221647808646017,2210.3113656979044,790.2276417837593,0.02444040370643132,Catherine,REC_0811_00000.csv
right,17,paved,17.76,0.9919999999999973,0.0,9250.0,0.2608495932994395,33532.72410646054,445.3125,0.14349684630063075,0.248831515691075,0.52103271756065,0.17635728784429158,0.3914737679090878,0.4504957989550579,4493.0,3213.9841269841268,12.699999999999989,549.1349206349206,0.17085800643023297,0.0,-0.14516129032258066,-0.14516129032258066,0.677698457629099,-1.3926429078300158,11508318.996128062,8405505.0,2144136.0,7562511.0,4658752.310457822,1440368.7146518137,2410585.662556497,0.10245405741773303,0.09533240155866478,0.040695176337532904,0.12966648722596194,0.0962707612072244,0.04103594905200982,0.13567692771173592,0.08312878739239732,0.029168168865226864,0.12371531156009699,0.09322850045189426,0.029627471219521837,5.420416474863949,0.3304182552186354,0.6708389474964842,0.08064516129032258,0.4961372281398675,0.22674391068722258,0.0027067543056777683,3380.6447609886495,79.288215352288,0.02771281292110268,Catherine,REC_0811_00000.csv
right,18,paved,18.768,0.9920000000000009,0.0,14328.0,0.7038871512009001,34471.58274579222,440.625,0.14198635318167674,0.24293059125964012,0.4665809768637532,0.18348909813936887,0.38223124915163065,0.4800473497299718,4668.0,3157.3174603174602,-15.199999999999989,561.6349206349206,0.17788357607171046,0.0,-0.6129032258064516,-0.6129032258064516,0.6345119988739792,-1.4367230306571612,11438649.592340741,8776911.0,2664594.0,6834360.0,4639604.090194206,1431860.1583216996,2241645.778988167,0.10252323903655404,0.09538939525717532,0.04246622861480763,0.12969116841200337,0.09602284438769099,0.03711710262378652,0.13820754005560276,0.08643061469702532,0.024010738470974458,0.12754447969192254,0.09705848344234357,0.02353816531011357,5.300636993910492,0.3582752470353718,0.6727193061829042,0.0967741935483871,0.5215682689290009,0.22430758702873835,0.0031541551732217287,3472.865243570502,33.01031641145107,0.027712812921102184,Catherine,REC_0811_00000.csv
right,19,paved,19.776,0.9759999999999991,0.0,14926.0,0.7560605382873659,34477.595014733844,218.75,0.07048967888452036,0.2502859757492565,0.5076641500800733,0.17409370107190172,0.3893070777630575,0.4471886359531346,4371.0,3214.064516129032,-1.0,542.1048387096774,0.1686664458629411,0.0,-0.4098360655737705,-0.4098360655737705,0.6933025649287102,-1.3357208448931117,11311420.504432412,8703607.0,2483778.0,6784269.0,4615434.110271001,1165197.1874256434,2197905.707654376,0.10474125817977438,0.09651130113613553,0.0423290778433498,0.12993295595969329,0.09571841503071178,0.04003573005740897,0.13588462001686138,0.0809546750170621,0.02710867557910795,0.12541651611867197,0.09313902605483962,0.028227749006383234,4.780176291422966,0.2688692490586229,0.5946693116601216,0.08196721311475409,0.5130049316953047,0.29631682956503946,0.004196507740061967,3118.778179565411,129.47397079947805,0.009237604307034407,Catherine,REC_0811_00000.csv
right,20,paved,20.768,0.9920000000000009,1.0,12878.0,0.5773797744862255,32264.561580780854,1578.125,0.5085326833811826,0.23094449047224525,0.4703811101905551,0.1683624938748451,0.39494038182534424,0.426298503831324,4828.0,3304.095238095238,-9.599999999999994,539.0714285714286,0.16315250915170207,0.9838709677419355,0.0,0.9838709677419355,0.6618989741539554,-1.3798735138751541,10846598.453592813,8622973.0,1932777.0,6289468.0,4571163.974439222,1542201.680906834,2237078.8698331667,0.10137972117333949,0.09617694251482047,0.04738708096734212,0.1249627686661094,0.09414002824777333,0.04735345266576351,0.13182294218814555,0.07852688822913365,0.032307189730877504,0.12175366788689361,0.08983560564571143,0.03435371208408997,5.597471416262177,0.3020168572364646,0.6509474345678656,0.0967741935483871,0.5009487073111286,0.2557590784228627,0.002723010851974037,1053.1229747755035,729.2730577145533,0.009237604307035447,Catherine,REC_0811_00000.csv
right,21,paved,21.776,0.9920000000000009,0.9838709677419355,12572.0,0.5506823556760941,33306.433372548316,432.29166666666663,0.13930103208131406,0.23009220452640403,0.4631181894383906,0.1706369016173356,0.3920039548871452,0.4352938267327627,4772.0,3275.031746031746,-24.0,541.4920634920635,0.1653394853800036,0.01639344262295082,-9.0,-8.98360655737705,0.6939196698318973,-1.3497573668633083,10760163.341681436,8426275.0,1775174.0,6451958.0,4479829.593003507,1377487.3046811468,2326657.3922074153,0.10524555681030598,0.09813063728935138,0.0445845672161181,0.12770020404503532,0.09650215434722552,0.042073989347007415,0.13262927295021978,0.07922375646425335,0.027596969858525545,0.12337696956772501,0.09141314515308226,0.03152277695115036,5.205550300527484,0.3370483018136173,0.6657599836285157,0.0967741935483871,0.48393190774651496,0.30332103531956844,0.0044252681185441315,1279.9255186663554,731.0306037603762,0.009237604307035447,Catherine,REC_0811_00000.csv
right,22,paved,22.784,0.9920000000000009,1.0,17233.0,0.9573381369637483,37652.26007824763,2703.125,0.8710510319301445,0.25547445255474455,0.48595443485954437,0.16516259491168273,0.3981610783268516,0.414813511168888,4521.0,3171.285714285714,-24.80000000000001,506.031746031746,0.15956674725087716,1.1935483870967742,0.0,1.1935483870967742,0.863892282356971,-1.0187195440919394,12668150.961222123,9235060.0,3369532.0,7990117.0,4825883.488885238,1461724.8637496678,2302626.0536504653,0.10754238178896947,0.09817759558738881,0.040227037253930356,0.13579690776861822,0.09913359460636366,0.03940617945753312,0.13712329384206495,0.07798649588820318,0.02564680090694776,0.1245751810642121,0.08717609902347954,0.027208432812288845,5.736861150724862,0.3842906780373899,0.698751136257082,0.08064516129032258,0.5441461617367572,0.1748527677047329,0.00499590336248685,2607.188204432764,1135.432594179825,0.0,Catherine,REC_0811_00000.csv
right,23,paved,23.792,0.9759999999999991,0.0,14328.0,0.7038871512009001,35581.98695969633,270.8333333333333,0.08727293576178712,0.23306689103912495,0.44741270509045017,0.15974622296830254,0.4081564135479411,0.391384816373636,4754.0,3266.7741935483873,17.599999999999994,504.26612903225805,0.15436210131332082,0.0,-0.5737704918032787,-0.5737704918032787,0.9938289202859584,-0.7281902173261487,12097088.314603519,8808676.0,3131295.0,7677354.0,4909553.3820893895,1589467.1759032975,2406619.3967100633,0.10776142984101907,0.10151081267897699,0.03987360521378493,0.13239360126394786,0.10087390145156512,0.042574306309864716,0.13012738224548237,0.07458279845956355,0.030803791843586448,0.12013923175669002,0.085163424508739,0.03419571442677989,5.7506623192280095,0.38978703429801215,0.6813500103665584,0.08196721311475409,0.5041701602050405,0.23282261564264925,0.003018824652913055,2353.985344049535,1360.0732561714383,0.009237604307035447,Catherine,REC_0811_00000.csv
right,24,paved,24.784,0.9760000000000026,1.0,15668.0,0.8207974165785994,35083.57082738301,906.25,0.2920286696644415,0.22821148285832302,0.45580338703015283,0.16717727872674545,0.4016445562010462,0.4162319049157965,4842.0,3348.2903225806454,-23.69999999999999,542.0806451612904,0.16189774270932686,0.29508196721311475,0.0,0.29508196721311475,0.6434146095488793,-1.4066625204617416,12097589.477499805,8914967.0,3993836.0,7136127.0,4735606.593832435,1727492.829133297,2258374.0202154373,0.10159253157605712,0.09521951501488482,0.0428432420975558,0.12639093615422411,0.09530140562829369,0.04919699027910247,0.13124656781987917,0.07808992552771274,0.03553570912454117,0.11948803915334738,0.08908735319903273,0.03600778442536875,5.847696341519918,0.3493493636734998,0.6636551559687871,0.09836065573770492,0.5229673614791616,0.2801108426075625,0.0025855339937151498,1453.951512258922,1261.5173970024416,0.009237604307034407,Catherine,REC_0811_00000.csv
right,25,paved,25.776,1.0079999999999991,1.0,16195.0,0.8667763045293811,36506.1745599289,2104.166666666667,0.678043577841577,0.24653078924544666,0.49718126626192544,0.1706298445912406,0.39791515521783954,0.4288096151997476,4612.0,3273.625,-16.900000000000006,541.109375,0.16529363473213946,0.6031746031746031,0.0,0.6031746031746031,0.6749499103392942,-1.345461873681465,12106216.102760639,9017592.0,3949854.0,7045719.0,4651590.746401578,1700342.8451015071,2296203.3929122197,0.10103001260071022,0.09652907709343618,0.04189258849135133,0.1291572797739509,0.09589426858604758,0.044226583680171065,0.13377276719233266,0.08074000534575586,0.03210794608423384,0.12171617854824544,0.08988983924548474,0.03304345335828019,5.239791906753946,0.3501430152486354,0.658449517155438,0.09523809523809523,0.49430894700381167,0.22961069783880508,0.003378635651897537,962.5502584281023,930.9376806627708,0.018475208614067217,Catherine,REC_0811_00000.csv
right,26,paved,26.8,0.9920000000000009,0.0,15391.0,0.7966301453027615,36696.34179315426,343.75,0.11076949538996057,0.24871047320026912,0.4967481498093743,0.1617873498703595,0.40406604214060776,0.4003982839368004,4459.0,3195.6507936507937,13.900000000000006,499.42063492063494,0.15628135461887685,0.0,-0.016129032258064516,-0.016129032258064516,0.9497451538199465,-0.7797491355398241,11889809.213324241,9132435.0,2849075.0,7060380.0,4593142.068114409,1507916.9154260298,2496130.1460344056,0.10889303915043264,0.10450215074058988,0.04175317644020146,0.13582945074158329,0.10284314991605654,0.037903698479083675,0.13520360013113059,0.07508717204931306,0.022987592263294356,0.12360052849607105,0.08670017782104646,0.024696263771196963,5.302742614080219,0.32307155475613464,0.6606960323507073,0.0967741935483871,0.49805650353729314,0.20694135300625902,0.0032906678859775506,408.42665600244555,899.1178482782965,0.01599999999999848,Catherine,REC_0811_00000.csv
right,27,paved,27.808,0.9920000000000009,0.0,16444.0,0.8885006747376253,35158.85086290506,2401.0416666666665,0.7737081420419973,0.24623893805309735,0.4820796460176991,0.1682262951373367,0.39852977698306263,0.42211725410007234,4520.0,3195.714285714286,-25.5,520.1190476190476,0.162755178065862,0.0,-0.3709677419354839,-0.3709677419354839,0.814714378057424,-1.1068173228860068,12214212.367756875,9059131.0,3558900.0,7379252.0,4767077.895608246,1745781.3029524179,2312144.02270623,0.10530472358813887,0.09695028063378532,0.040570208116028406,0.13356678090696866,0.09878805940495704,0.041523866289176974,0.13722743754035663,0.07890031291908806,0.027700789748174637,0.12346893160482789,0.08932598221824865,0.026672627030248846,5.054162979308276,0.34233217780230707,0.6480352632769326,0.0967741935483871,0.4877793241812618,0.19466839702065677,0.004194923165282791,550.3371693789242,1112.0289720175829,0.009237604307033414,Catherine,REC_0811_00000.csv
right,28,paved,28.816,0.9760000000000026,1.0,13716.0,0.6504923135806374,35976.244523296205,458.33333333333337,0.14769266051994745,0.23992155153628242,0.4323382000435825,0.15968067937093022,0.4041554447934751,0.3950971870548544,4589.0,3168.016129032258,-14.599999999999994,488.5,0.15419744726780268,0.7868852459016393,0.0,0.7868852459016393,1.05222324424394,-0.6295104516780063,11284673.166135252,8720712.0,3607770.0,6186843.0,4588758.934801074,1703449.8464942565,2107522.6198145053,0.11205751029697023,0.1051080099991345,0.0405718445959362,0.13698916081601897,0.10396757918102811,0.036295229028037286,0.13498322446631403,0.07501387354455062,0.021795465769256225,0.12286105581492437,0.0846668058263796,0.025690240661449877,5.547897636108543,0.3451133297090381,0.6453368987239242,0.08196721311475409,0.5283398107324268,0.2954641852212327,0.003292670102539171,1375.7675433492896,1156.120957513866,0.009237604307033414,Catherine,REC_0811_00000.csv
right,29,paved,29.808,1.0079999999999991,0.9841269841269841,55103.0,4.26136183088425,58099.63622089212,4017.8571428571427,1.2947083876748637,0.22482531853678586,0.40731607069461573,0.15605412016511236,0.4074539443510167,0.38299818256405566,4866.0,3270.5,-3.8000000000000114,493.4609375,0.15088241476838404,0.3709677419354839,0.0,0.3709677419354839,0.9795466567161308,-0.757825943502688,9180735.745240139,7564955.0,3795916.0,3556457.0,4775369.721090876,1653101.4059619545,2073966.1606917845,0.10586110686439382,0.09981271976761963,0.043246445497630334,0.13559662131172603,0.09963595016052591,0.0434566580033634,0.13541029659073536,0.0732829460327167,0.028951995107781684,0.1203753248738725,0.08277117413239565,0.031598761657238954,5.430227223721345,0.3964698951770098,0.6799764353645177,0.09523809523809523,0.4670110428250826,0.22702984338515494,0.004918089502861259,23147.512587749035,1782.2466020456086,0.01599999999999848,Catherine,REC_0811_00000.csv
right,30,paved,30.832,0.9759999999999991,1.0,18028.0,1.0266990779900698,34469.96956772663,337.5,0.10875550456468856,0.23006734738214207,0.407343037149685,0.16047160783963746,0.4064494057800717,0.3948132425769782,4603.0,3253.1129032258063,6.5,505.03225806451616,0.15524584393112306,0.16393442622950818,0.0,0.16393442622950818,0.908129622890271,-0.8201165947193974,11231991.54768107,8985827.0,2261423.0,6348111.0,4706353.3659235,1803521.5181366152,2214841.5330456165,0.10639437164403326,0.10533335316545443,0.04533622882301319,0.13966771281105445,0.10436653726207652,0.036005215847847966,0.1367523910100995,0.07505962031404165,0.021076586693638353,0.12210141155121892,0.08541198752559584,0.022494583351925945,6.212503829268988,0.3867999463614071,0.6766253042385314,0.08196721311475409,0.5090840449745875,0.28735881126819207,0.002864566382204541,22752.40916914075,2090.846684319972,0.018475208614067217,Catherine,REC_0811_00000.csv
right,31,paved,31.824,0.9920000000000009,0.9838709677419355,12907.0,0.5799099220205189,35857.32607152965,304.6875,0.09818205273201051,0.23278350515463916,0.4402061855670103,0.14553823838491484,0.4209059199068524,0.345773797662469,4850.0,3217.285714285714,-30.80000000000001,451.06349206349205,0.14020001085406705,1.4754098360655739,-4.0,-2.524590163934426,1.331151212919638,0.17714371018348007,10983853.013995271,8801346.0,1076344.0,6482501.0,4579883.847185398,1692685.2816257363,2337984.8260778994,0.11736206700906314,0.10936459304648993,0.03771294939537913,0.13858670179437463,0.10625144926463695,0.04006630848245341,0.12747608404994845,0.06855823453665469,0.026636867318897424,0.11751994434823794,0.07698000384826015,0.03348479690560415,5.598498471030307,0.3722540605683882,0.6842926456565047,0.0967741935483871,0.5152558810397573,0.220522953555555,0.006311959557591868,23026.371410479187,2134.39039524059,0.016000000000000257,Catherine,REC_0811_00000.csv
right,32,paved,32.832,0.9759999999999991,1.0,18157.0,1.0379538721943409,36128.547853463475,2053.5714285714284,0.6617398425893748,0.22581975665085585,0.4400907403588369,0.15066949713970706,0.41248180582890465,0.3652754982412351,4849.0,3335.435483870968,-18.19999999999999,485.03225806451616,0.1454179702800331,0.29508196721311475,0.0,0.29508196721311475,1.0761868954735727,-0.4954844299791654,12417140.031529764,9646783.0,3401297.0,7039611.0,4714870.3431353625,1496024.438055039,2614987.2602563566,0.10676170350633714,0.09898112641866177,0.043351692722815124,0.13196999956479058,0.09813488590260012,0.04719120683568911,0.13117211564964676,0.0711035459895453,0.036204587107163066,0.11696494629999468,0.07956595115016175,0.03859823885259458,5.813925048251194,0.34297883328393564,0.6674179230102901,0.08196721311475409,0.5141428704897161,0.2206690037154841,0.002995814282655151,2994.5445396587347,1000.3809943992065,0.009237604307035449,Catherine,REC_0811_00000.csv
right,33,paved,33.824,0.9759999999999991,1.0,17262.0,0.9598682844980417,34979.27686502395,2369.791666666667,0.7636381879156374,0.24077328646748683,0.4802284710017575,0.14939959505242267,0.41849427660726096,0.3569931619220611,4552.0,3218.2580645161293,-27.80000000000001,463.1693548387097,0.1439192710943608,0.08196721311475409,0.0,0.08196721311475409,1.279425948320764,0.013952943040397958,11227042.99277214,9314473.0,1098335.0,6170960.0,4789966.144614468,1742686.1759048097,2351855.446457868,0.1129643365475212,0.10943608042820198,0.038885993224144495,0.1404336146583004,0.10672974760940601,0.03845999639155624,0.13251508529960104,0.07037467674357997,0.023434837519796324,0.1195798167712447,0.07902491830884269,0.02816089649780486,5.7288782353767,0.38345721780091047,0.6787253692925418,0.08196721311475409,0.45639106148203135,0.32487589105886333,0.003971093458018971,2808.6043390504965,1112.29833031884,0.009237604307035449,Catherine,REC_0811_00000.csv
right,34,paved,34.816,1.0079999999999956,1.0,16252.0,0.8717493531312683,36106.499774971264,251.04166666666666,0.08089529814842575,0.22663226830720382,0.4262750545743203,0.1461674274788909,0.4256950225499254,0.34336184295330324,5039.0,3416.03125,2.9000000000000057,482.2421875,0.14117030911236542,1.5714285714285714,0.0,1.5714285714285714,1.1032030011389353,-0.420496185979911,11671185.382974302,9098226.0,2227214.0,6962641.0,4777869.016168403,1506644.2541147962,2331288.2757603712,0.10485944032274296,0.10288346308307338,0.042085570792129025,0.13132015405304034,0.09927456020784353,0.05355264241215592,0.12655859778800327,0.06872467135656327,0.03866420279381226,0.11401663114176722,0.07744275612232762,0.040617309926541216,5.311800006026185,0.3532238027152117,0.6842888179462203,0.09523809523809523,0.551356867849384,0.23770521876091358,0.0060210683893186,953.0783458526818,1142.9647372829322,0.0184752086140662,Catherine,REC_0811_00000.csv
right,35,paved,35.84,0.9919999999999973,1.0,18253.0,1.0463295329975193,37189.72914663402,212.5,0.06847568805924835,0.228714859437751,0.4528112449799197,0.1479662890697908,0.41375811785425426,0.35761543444037974,4980.0,3316.714285714286,-22.19999999999999,472.968253968254,0.14260144625824947,0.5806451612903226,0.0,0.5806451612903226,1.1898066870436592,-0.12802971222261528,12196359.609397633,9447641.0,2833192.0,7174001.0,4668785.421486695,1824587.8184765135,2529336.541704365,0.11037410326724191,0.10138165041899375,0.041679229300368985,0.13303470158360972,0.09919934147870574,0.04708235823366977,0.13157025742631118,0.06992481562839489,0.03306006613927534,0.11621273683555633,0.0780414734413959,0.03843926624647648,5.718685851108484,0.38817634413555707,0.6967127702493299,0.08064516129032258,0.4465031247818076,0.19413083401582418,0.0035951928837821465,1000.5150340366127,1234.5373193791334,0.01599999999999848,Catherine,REC_0811_00000.csv
right,36,paved,36.848,0.9759999999999991,1.0,56405.0,4.374956730527359,59764.26636377293,2500.0,0.8055963301088042,0.2223968565815324,0.4157170923379175,0.1544655790195929,0.4086061980635816,0.3780304355428437,5090.0,3385.032258064516,-1.9000000000000057,504.6774193548387,0.14909087443775254,0.13114754098360656,0.0,0.13114754098360656,0.8852763431670811,-0.8092663345521265,9983461.258001756,7496538.0,5314527.0,3902207.0,4952821.461938495,1801191.7523147645,2360493.7456127056,0.10085194785393001,0.09446233894945491,0.03970038880841656,0.13225203933826332,0.09551536174430128,0.04918712358008691,0.1368548448578181,0.0723774491118396,0.03718933445147519,0.11868186323092171,0.0820881299077533,0.04083917816573912,5.231035634624117,0.35635056373040275,0.6379893962237387,0.09836065573770492,0.47073478821844605,0.32322893471498554,0.004333556102637029,22626.836993564375,1309.7045019862876,0.01599999999999848,Catherine,REC_0811_00000.csv
right,37,paved,37.84,0.9919999999999973,1.0,18406.0,1.059678242402585,37735.90100951612,2729.1666666666665,0.8794426603687778,0.23051340677613802,0.414674703803783,0.1430026431367873,0.42269818557602495,0.3383091009529812,4811.0,3194.8571428571427,-24.599999999999994,439.54761904761904,0.1375797412508198,0.5645161290322581,0.0,0.5645161290322581,1.449619432717025,0.47364473057869505,11624303.630595211,9318138.0,2663372.0,6418971.0,4759623.154936896,1805242.3131670447,2206091.3512998004,0.11338162523102606,0.10575528130527236,0.037167868995806756,0.14184006041455516,0.10553170770484312,0.041028239829885335,0.13415906516425208,0.0679315964148731,0.02854289632146903,0.11817603688467578,0.0750710467219142,0.031414575011427096,5.596114304539907,0.3815998777460177,0.681408674293975,0.08064516129032258,0.47548110139137767,0.22090962972573885,0.0056586573211286325,21983.033283269473,1391.5689420112724,0.009237604307033414,Catherine,REC_0811_00000.csv
right,38,paved,38.848,0.9759999999999991,1.0,16807.0,0.9201711421496438,37101.02189967279,250.0,0.08055963301088041,0.2188782489740082,0.4223177643150283,0.13852955782591717,0.4288620924076815,0.3230165600510402,5117.0,3345.2741935483873,-1.8000000000000114,445.91129032258067,0.13329588683120627,1.1311475409836065,0.0,1.1311475409836065,1.4402066483248293,0.4389032880164123,12655114.116252726,9402437.0,1781283.0,8280889.0,4703060.626652366,1838064.4208850255,2855999.943656498,0.11243111370397334,0.10699253159247277,0.038571504336883514,0.13609473161465138,0.10343431031739525,0.048532595331883685,0.12717507123674707,0.06518102089129103,0.0338079235512784,0.11344361569281654,0.07334853693462612,0.04098704479598085,5.551993175354258,0.3443166032677877,0.6520879530044154,0.08196721311475409,0.4674859658478177,0.2582904636686208,0.005898582682903054,22414.587534311966,1369.9929879517772,0.009237604307033414,Catherine,REC_0811_00000.csv
right,39,paved,39.84,0.9439999999999955,1.0,18722.0,1.0872481258797142,36427.23983504652,296.875,0.0956645642004205,0.22742687579482831,0.4383213225943196,0.1452770007328881,0.42145194421792587,0.34470596879643534,4718.0,3229.233333333333,-27.900000000000006,451.275,0.1397467923242875,0.05084745762711865,0.0,0.05084745762711865,1.347053662310441,0.12459218249103543,11627188.805014994,9133657.0,3028669.0,6526484.0,4750530.674099777,1681812.4395947007,2219194.0968711553,0.11581180259504321,0.11116157601907574,0.038290822383021776,0.14209771153111678,0.10751778027808459,0.03729987509935279,0.1314295446803679,0.06763731329417716,0.023375001290295943,0.11985300948625578,0.07763968743871096,0.027885875904497457,6.332461691781262,0.31299074011337424,0.6474004834173149,0.0847457627118644,0.4901172671233621,0.3274672923485422,0.0043410416581833155,1026.6354432480985,1418.0096014291908,0.024440403706432506,Catherine,REC_0811_00000.csv
right,40,paved,40.8,0.9920000000000044,1.0,9394.0,0.2734130845042072,36866.191096992916,3234.375,1.0422402520782654,0.23482905982905983,0.4724358974358974,0.14273157114362023,0.42251500823460664,0.33781420390222916,4680.0,3286.5555555555557,-35.80000000000001,452.25396825396825,0.1376072792956393,1.2258064516129032,0.0,1.2258064516129032,1.2592397082972684,0.003737152048181702,11564884.369605258,8952840.0,1756848.0,7106806.0,4629177.394684288,1590311.136055516,2379413.3728274014,0.11459384795197364,0.10958063877364733,0.04242875012677914,0.13644332610491033,0.10525807401969545,0.043187010089204204,0.12816525237499576,0.06634050219026046,0.02804595924714928,0.11887294557432156,0.07639106895335977,0.03069262459370306,5.158837917175222,0.25866020005315943,0.6171323762402442,0.0967741935483871,0.5188107285342282,0.3404292745330035,0.0037734836706396534,4926.65163506952,1709.6587211219482,0.02444040370643562,Catherine,REC_0811_00000.csv
right,41,paved,41.808,1.0080000000000027,1.0,18080.0,1.031235894258458,36234.425702638095,206.25,0.06646169723397634,0.24668378262729995,0.46983311938382544,0.16209526647410233,0.4023617165459535,0.4028595659285732,4674.0,3251.078125,-16.69999999999999,509.5234375,0.15672445198467816,1.126984126984127,0.0,1.126984126984127,0.9023062977927785,-0.9096333446217857,11588174.902249016,9060353.0,3072652.0,6538701.0,4728093.967167348,1530814.9031629895,2348770.198990199,0.10980011438513186,0.10403279681259582,0.04131802430924357,0.1336623908414997,0.10099534289106017,0.03813158135041741,0.13332115788512464,0.07509528089239627,0.025539604650380403,0.12297843503837669,0.08699998558170607,0.02812528536206739,5.289997453165552,0.4129559501561126,0.6782582349021006,0.09523809523809523,0.46906533319856125,0.2457873730173831,0.004719730807259509,5210.0918737900565,1722.7236263278955,0.03330665599146257,Catherine,REC_0811_00000.csv
right,42,paved,42.832,0.9759999999999991,1.0,13591.0,0.6395865052431654,33421.32687371942,317.70833333333337,0.10237786695132721,0.2643625543602655,0.5049210345616846,0.15655213665156598,0.4186425055401934,0.37395184335008214,4369.0,3289.7419354838707,-32.0,496.6774193548387,0.1509776235021867,0.5901639344262295,0.0,0.5901639344262295,1.1148360155175985,-0.45170035210443604,11326340.053132653,8615643.0,2173458.0,7023728.0,4575110.05308335,1599905.592689799,2296904.1552311936,0.10861720695809064,0.11010276323272734,0.03934517856092252,0.13403345688454826,0.10501853268223806,0.04261536349551882,0.12892471220411447,0.07268439528544254,0.026872389245160912,0.11668235570983115,0.08386774136612343,0.031235904375281915,5.858013880215333,0.4024265905025209,0.6932451992359951,0.08196721311475409,0.5209604213392441,0.2607193792407001,0.0039479577438949615,4343.8179443127165,1717.0181721101508,0.016000000000002144,Catherine,REC_0811_00000.csv
right,43,paved,43.824,0.9920000000000044,0.0,13122.0,0.5986679123609707,33708.96837638316,112.5,0.036251834854896185,0.2501699524133243,0.4928619986403807,0.15502583281924737,0.41747956508328193,0.37133753549879484,4413.0,3293.4603174603176,-33.099999999999994,493.12698412698415,0.14972914096236892,0.0,-0.16129032258064516,-0.16129032258064516,0.987053736982417,-0.7432279707884009,10467708.051374044,8445822.0,954171.0,6109874.0,4515714.335603831,1691974.9288614688,2149818.8062847336,0.11024252004935224,0.10525909932140654,0.03936131246144355,0.13520299969154842,0.10372648056755088,0.04312538556446637,0.13042200030845155,0.07217284855027761,0.030165599938309685,0.11695616132017274,0.08285298426896975,0.030512607958050584,5.555645433130953,0.3672794015749025,0.6886449832580573,0.08064516129032258,0.49045287497153384,0.23007348216328805,0.0036388933620064923,2737.177560919247,102.7314319304648,0.016000000000002144,Catherine,REC_0811_00000.csv
right,44,paved,44.832,1.0080000000000027,1.0,11002.0,0.4137054029574464,31908.58506734512,187.5,0.06041972475816031,0.22371319847786902,0.4410174243941518,0.13917759543680014,0.43343385464151296,0.3211045790408225,4993.0,3341.953125,14.300000000000011,448.03125,0.13406269724384598,0.7301587301587301,0.0,0.7301587301587301,1.3705391559297093,0.2228898942857338,10219878.682702696,8137946.0,1230282.0,6058561.0,4507069.128389033,1826624.4761519546,2083127.52053542,0.11299997662295158,0.10708558337424316,0.03833368398905954,0.13461907099609605,0.1038034457769362,0.050952614722865094,0.12363185824157842,0.06507235196484092,0.03697313977137247,0.11259321598055029,0.07410524347195924,0.039829815087547044,5.501757815229924,0.4021035265350382,0.6928837559025488,0.09523809523809523,0.4984915423383258,0.23684790482213447,0.005762732476700891,1379.4492862490943,103.83453996535575,0.016000000000002144,Catherine,REC_0811_00000.csv
right,45,paved,45.856,0.9759999999999991,1.0,57008.0,4.427566349947323,58897.923987183116,187.5,0.06041972475816031,0.2507958162801273,0.5061391541609823,0.15898263139174304,0.40562488415083187,0.3919449659121591,4398.0,3219.564516129032,-27.30000000000001,494.18548387096774,0.15349451188048874,0.2459016393442623,0.0,0.2459016393442623,0.9853856636675036,-0.7821949237919386,9549971.133539462,6505714.0,5044525.0,4840496.0,4554567.777565946,1966401.5468772477,2277226.2159669143,0.11081442591414387,0.10390605822266086,0.04322363773902501,0.13564747786967785,0.1026786832520928,0.0391357276329698,0.13322779578484367,0.07468952422938387,0.02425693717343059,0.12148507361744977,0.08429310716235916,0.0266415514019628,5.577030804044639,0.3762435842929667,0.6877906098699811,0.08196721311475409,0.4512232529508533,0.28950935716935405,0.004282713483937232,25971.225847079302,43.3012701892479,0.016000000000002144,Catherine,REC_0811_00000.csv
right,46,paved,46.848,0.9600000000000009,1.0,16343.0,0.8796887816009479,36367.73620944806,354.16666666666663,0.11412614676541391,0.22582619339045287,0.4473684210526316,0.14624890725582135,0.42640864658666455,0.34297828720504936,4902.0,3300.4590163934427,25.30000000000001,464.9016393442623,0.14085969164746087,0.7333333333333333,0.0,0.7333333333333333,1.2712482505354197,-0.08271587509408951,11661002.20003431,8816007.0,3544240.0,6759834.0,4726083.878412875,1713297.6868077354,2250655.8845835025,0.11070988635460542,0.10845982675037749,0.03681057776364937,0.13612115552729875,0.10520642930938569,0.04459389652706032,0.1269768735595645,0.06828657712787094,0.03202733847254231,0.11668521020424383,0.07796233012795041,0.036159898275451005,5.532481118571777,0.34731932371833996,0.6559973167636316,0.1,0.48387250464186393,0.3424140450893038,0.003415118282491079,25161.87771875011,96.22504486494918,0.02444040370643255,Catherine,REC_0811_00000.csv
right,47,paved,47.824,0.9759999999999991,1.0,10461.0,0.3665050644728678,32937.815258453316,289.0625,0.09314707566883049,0.234375,0.47635690789473684,0.1441401230147441,0.4213402132647956,0.3420991362247537,4864.0,3288.3548387096776,2.8000000000000114,456.11290322580646,0.13870550034824747,1.0491803278688525,0.0,1.0491803278688525,1.2878680767551438,0.06651468274140271,10188214.478454897,8186815.0,1185078.0,5947383.0,4667033.381693097,1563328.0922177527,2408281.839331215,0.11403388300846584,0.10460177164775011,0.038429845299639984,0.1355761779103189,0.10309596915802587,0.04608638499494796,0.12663455595993683,0.06727062262725748,0.03197990955375273,0.11674628944761081,0.07686950038748663,0.038675090004806796,6.225208279764817,0.3798703901665074,0.704426519843633,0.09836065573770492,0.4682210271817491,0.3573243799075941,0.0032389683783953195,25347.13447972637,83.99530909660193,0.00923760430703353,Catherine,REC_0811_00000.csv
right,48,paved,48.816,0.9759999999999991,1.0,13184.0,0.6040771932963568,34881.74155629274,200.0,0.06444770640870433,0.2285941855834329,0.43926722421346076,0.14760681879325946,0.41800083156015355,0.35312565824862624,5022.0,3297.3387096774195,-0.30000000000001137,468.80645161290323,0.14217722014332185,1.2459016393442623,0.0,1.2459016393442623,1.2571949658923367,-0.12855122278622133,10627839.87009985,8520348.0,1585806.0,6151412.0,4396845.448134561,1568310.3981322662,2336020.6260391455,0.11271064152420084,0.10599457040135006,0.041357888815515935,0.13317680436324503,0.10280040110548584,0.04497272971849243,0.125927556436031,0.06819282412502752,0.031056325971580208,0.11811089099224692,0.07941399466823196,0.03628537187859222,5.22798200212416,0.353421110380155,0.6657387635989598,0.09836065573770492,0.48440230675781465,0.3176302270178643,0.006125368649971338,2943.691956257117,77.3929826004222,0.00923760430703353,Catherine,REC_0811_00000.csv
right,49,paved,49.808,1.024000000000001,0.0,14343.0,0.7051958482013967,33804.66969221856,779.0178571428571,0.25102957072140414,0.2261456060305495,0.4578456655425511,0.1538786091465059,0.40853929065427874,0.3766555938841565,5041.0,3536.9538461538464,12.599999999999994,528.0153846153846,0.14928534766987672,0.0,-2.625,-2.625,0.7219526552448612,-1.1734614130406178,11112746.167910703,8586321.0,1583362.0,6874677.0,4194524.421456061,1411852.829253253,2329545.148074128,0.11229132412941165,0.10395733834416403,0.048886047098328854,0.1256448399752938,0.0980896207949474,0.04852502370575288,0.12289584257640211,0.06870318657514941,0.03232246783412063,0.11674539586432478,0.08517542257135649,0.036763490530747886,4.950385832070788,0.28027330683226304,0.6124816350491674,0.078125,0.475540940464003,0.17752465961698946,0.0007862551621538003,1992.817686927941,311.78252564609676,0.02771281292110328,Catherine,REC_0811_00000.csv
right,50,paved,50.848,0.847999999999999,0.9811320754716981,13486.0,0.630425626239689,30251.35175492163,160.71428571428572,0.051788335506994555,0.26398158803222094,0.48791714614499426,0.14701202060675442,0.41143674871207786,0.35731378168536554,4345.0,3235.185185185185,-24.099999999999994,456.3796296296296,0.14106754436176303,3.5576923076923075,-32.0,-28.442307692307693,1.2961830546192847,0.11630149486089802,9947648.492032124,8029212.0,1932777.0,5545434.0,4765627.77288289,1656979.9680473125,2362445.6243075645,0.11262163709215799,0.10737263880938752,0.04654264453348598,0.13093302804808243,0.1022610188895249,0.04279908414424728,0.13042358328563253,0.06789353176874642,0.028070978820835715,0.1184258729250143,0.07911848883800801,0.033537492844876934,4.667417028664471,0.2625243343201493,0.5982618416725176,0.07547169811320754,0.3878690250052088,0.2784348796429183,0.010276445129990526,601.2395529234009,346.19463520746643,0.09097985124923813,Catherine,REC_0811_00000.csv
right,51,paved,51.712,0.9439999999999955,1.0,10954.0,0.40951757255585713,34629.06624499136,296.875,0.0956645642004205,0.2279281058660873,0.4467706893146356,0.13285996668301756,0.4361125006677966,0.3046460866851722,5063.0,3431.6833333333334,-34.19999999999999,437.825,0.12758315889675134,2.288135593220339,0.0,2.288135593220339,1.5187979540504202,0.6849411300988861,10163142.560744142,8690168.0,1314581.0,5103168.0,4537237.153941142,1562273.217404396,2167258.5492880195,0.11311746907494379,0.1078188061252738,0.04046604921782799,0.12997508511371972,0.1046522357832162,0.054118241290717385,0.11913492406544893,0.059771443557826334,0.03954813235486957,0.11110193733881817,0.07308852312519123,0.047207152952146905,6.778957928480539,0.37194248402999913,0.6985482290455877,0.06779661016949153,0.44902548220923577,0.3412608768170699,0.0028405557271900177,1762.1385681418014,324.88479528647616,0.08812112875657856,Catherine,REC_0811_00000.csv
right,52,paved,52.672,1.0080000000000027,0.0,9753.0,0.3047345660494266,33283.71332949495,354.16666666666663,0.11412614676541391,0.2406223358908781,0.4846547314578005,0.14930939753519784,0.42136765996413444,0.3543447011282224,4692.0,3276.125,-30.099999999999994,471.640625,0.14396295165782746,0.0,-0.25396825396825395,-0.25396825396825395,1.253583568787441,-0.13415391022784284,9929683.36604889,8729264.0,984714.0,4629136.0,4437012.40257517,1816937.4854894094,2227494.551288411,0.11374432446869397,0.10484947918653897,0.0380689839368156,0.1351921095806784,0.10429623411805106,0.045375634324087144,0.12705559159067495,0.06983765118852303,0.03165420275477889,0.11605269182341943,0.07947174634667481,0.03440135068106376,5.19983065941603,0.37165822978891744,0.6436238299781799,0.09523809523809523,0.42541232035905896,0.2528285629404353,0.0041632926386965,1905.6369888656086,99.36959535022005,0.08053156730955624,Catherine,REC_0811_00000.csv
right,53,paved,53.696,1.328000000000003,1.0,21115.0,1.296028920692277,22579.07859058912,390.625,0.12587442657950065,0.22493786246893124,0.39436619718309857,0.15293171544752357,0.40257339827359223,0.37988529819222294,4828.0,3671.2619047619046,-7.800000000000011,548.577380952381,0.1494247469080957,0.10843373493975904,0.0,0.10843373493975904,0.6339882788434006,-1.108285679392699,8524476.77460441,7984008.0,1769065.0,2406809.0,2524004.181931327,651810.4538967756,1085155.1213992385,0.11054652286420265,0.10090276471694565,0.04431783544000052,0.134701315883341,0.0956593360269273,0.04209335054120485,0.13304105893263637,0.07015558423534142,0.029216631105173387,0.12165597660075361,0.08277613121218215,0.03493349244129111,5.466667553762964,0.3835305132986376,0.7349031030628991,0.08433734939759036,0.5724742265649287,0.11424358251601704,0.00025325528436232235,6242.106562157753,47.259227738968555,0.20573121623451918,Catherine,REC_0811_00000.csv
right,54,paved,55.04,0.8800000000000026,1.0,5340.0,-0.08028409149668314,12134.75150136994,164.93055555555554,0.053146980111344715,0.23422101069406584,0.3264835395261061,0.20757729006470796,0.36365021142808396,0.570815810196673,4769.0,2930.75,-7.0,588.75,0.2008871449287725,0.6909090909090909,0.0,0.6909090909090909,0.6590890028578884,-1.4294484784924002,5941802.755585715,2559525.0,3720169.0,3861890.0,1210544.986267538,1416262.408842269,2027358.0337232682,0.08162830089811238,0.08417518675131914,0.046392317909847554,0.12889192186300436,0.08052546276550371,0.04231608193904534,0.15248412766113015,0.098621756985657,0.02774155810921144,0.12499847674291076,0.10895553307905094,0.023269275295207222,5.913873089429441,0.48706032683586276,0.6910428864710826,0.10909090909090909,0.38403267791912565,0.4295471530916666,0.003002650348952045,8138.593633628159,121.15932903344051,0.23075528162969555,Catherine,REC_0811_00000.csv
right,55,paved,55.936,1.0080000000000027,0.031746031746031744,9327.0,0.2675675712353222,30187.393941842678,393.75,0.12688142199213664,0.22448979591836735,0.4583833533413365,0.15441575025953386,0.4183134433940597,0.3691388663164779,4998.0,3401.53125,-16.80000000000001,508.1875,0.14939962700621962,4.5,-0.8360655737704918,3.663934426229508,0.9885813151236331,-0.805031688202205,10044248.970714783,7753101.0,1765400.0,6136752.0,4290984.99043896,1298383.1982877774,2225611.355242792,0.10525131144980661,0.10272028222583579,0.04241196519949655,0.12156289906200332,0.0949388602559509,0.057446554401050995,0.1217787944767522,0.07414399764811803,0.04164484744921864,0.11143878216612003,0.08027175261141581,0.04638995305423109,4.10206488306625,0.21703481524647278,0.5580959430965547,0.06349206349206349,0.4046772505409796,0.09561264798950321,0.003579991974476046,8202.679826333148,131.21616137374488,0.23075528162969555,Catherine,REC_0811_00000.csv
right,56,paved,56.96,0.9279999999999973,1.0,20717.0,1.2613048269457665,38787.83225445836,320.3125,0.10321702979519054,0.27424308907415534,0.48310662571303203,0.17634964918490142,0.391970810518207,0.4499050553065911,4558.0,3256.3389830508477,-15.0,554.4322033898305,0.17026243467760405,2.7758620689655173,0.0,2.7758620689655173,0.7165335026364691,-1.2894510750603119,13082734.001136728,9702983.0,2549751.0,8396953.0,5072979.364392239,1690731.7484083134,2634850.0323984106,0.10203826695259312,0.0992223772147155,0.04317003601840477,0.12814640544648245,0.09492827548874684,0.0418531781557744,0.13257063146717743,0.0824675730257542,0.027820574212487764,0.12460181965813745,0.09388207615914722,0.029298786200578793,6.199110333129168,0.3256605123991183,0.6823406305336436,0.08620689655172414,0.42906858654097246,0.2256429464923132,0.0029591912909659544,7979.979093539833,116.82961469697655,0.0646632301492387,Catherine,REC_0811_00000.csv
right,57,paved,57.904,0.9279999999999973,0.0,19344.0,1.1415154281669746,34785.78170747353,614.5833333333333,0.19804243115174766,0.24843844448922023,0.43985492645577273,0.15730987801788104,0.40794460905222113,0.3856157785323892,4963.0,3277.7796610169494,21.69999999999999,494.9237288135593,0.15099359322401998,0.0,-0.39655172413793105,-0.39655172413793105,1.306823327392336,0.004117118209465698,10839988.387728836,8655960.0,1358564.0,6382320.0,4436957.858743665,2310068.4839283484,2225084.699174655,0.11263308668021449,0.10574541468232422,0.037763264715159596,0.13587639421063244,0.10226538220891569,0.03886984264875458,0.13245841283630402,0.07225333395384433,0.025187575301594198,0.1234610034696906,0.08505654406403673,0.028429745228529025,4.564731360390579,0.24807747405673905,0.5824960605141261,0.10344827586206896,0.4608009065483347,0.3564799330409385,0.005113936982200829,6217.68335743571,153.16426414586653,0.04618802153517334,Catherine,REC_0811_00000.csv
right,58,paved,58.848,1.0560000000000045,0.0,11969.0,0.4980727362561294,32207.693816850657,411.45833333333337,0.13258772933040736,0.2462796059526305,0.452735275623559,0.1613654441007512,0.3968316394167035,0.40663452223169333,4771.0,3377.6119402985073,-3.8000000000000114,528.4776119402985,0.15646486964206807,0.0,-2.0,-2.0,0.8696804168618699,-0.8982309646464737,10944117.716313956,7516085.0,2742784.0,7467216.0,3976333.6355740954,1554860.5992516624,2724491.444552856,0.1040477242598321,0.09682722050375607,0.043548387096774194,0.12927087936367654,0.09441007512152012,0.04548387096774194,0.13652231551038443,0.07345117101193106,0.03083959346000884,0.12334953601414052,0.08791427308882015,0.03433495360141406,5.352914023238674,0.2568899374050403,0.6393550997556463,0.06060606060606061,0.4343444047407568,0.2049971196754775,0.002994768485183473,4704.665379528392,150.6445329850679,0.07390083445627638,Catherine,REC_0811_00000.csv
right,59,paved,59.92,0.9919999999999973,0.9838709677419355,7154.0,0.07798099909670982,28847.018736777634,302.0833333333333,0.09734288988814717,0.22824716267339218,0.4407313997477932,0.15965646025373822,0.4055428888484798,0.39368575961708935,4758.0,3404.3333333333335,11.699999999999989,526.8809523809524,0.15476773300135682,1.1475409836065573,-5.0,-3.8524590163934427,0.7946642933525708,-1.0690329235030491,9593821.620170504,7597941.0,3227811.0,4888143.0,3914323.027400612,1556074.5590771572,2106732.267622154,0.10543984557496748,0.10586880399863853,0.04483548045674747,0.12589929734745164,0.09652963310067,0.045898551332801796,0.12894863222876538,0.07170133303492747,0.03134660306891776,0.1208730236440018,0.08795512721881076,0.03470366899329985,3.671421294357904,0.11799245692019028,0.5030978007581974,0.08064516129032258,0.4697298759398619,0.29113681657344853,0.0030124133853098355,6139.638290105763,158.57643070457283,0.06400000000000373,Catherine,REC_0811_00000.csv
right,60,paved,60.928,0.9920000000000044,1.0,11361.0,0.4450268845026658,32849.121723419026,316.9642857142857,0.10213810613879482,0.2344446803992355,0.48375451263537905,0.15722326275205045,0.41025311086646743,0.38323478503276903,4709.0,3330.6190476190477,-29.0,506.57936507936506,0.15209766047591133,0.9193548387096774,0.0,0.9193548387096774,0.837390439719205,-1.0867993285848898,10404266.372556837,8081747.0,1738522.0,6317568.0,4247292.599029571,1686193.5613963855,2351657.86097318,0.10827388015955848,0.10431827821702434,0.04398343412969608,0.13006781712727983,0.0994047533944307,0.04552754862292629,0.1282282239347278,0.07214446048925553,0.030934713504806297,0.11845836371521572,0.08507880226279493,0.03357972444228395,5.404754208634365,0.2624055489848585,0.6405538850224272,0.06451612903225806,0.4948709671474377,0.253552119301344,0.0028244666844721633,2622.1091383336216,59.320398970630094,0.03695041722813838,Catherine,REC_0811_00000.csv
right,61,paved,61.936,0.9759999999999991,0.0,16745.0,0.9147618612142577,33339.4111825629,377.60416666666663,0.12167861236018396,0.21831275720164608,0.45740740740740743,0.13620383191428767,0.43591216647516917,0.31245705531816376,4860.0,3284.8064516129034,-11.300000000000011,430.51612903225805,0.1310628602853804,0.0,-0.45901639344262296,-0.45901639344262296,1.5056161206330325,0.6512275270679067,10413711.129574126,8166046.0,2833192.0,5808106.0,4523864.006392252,1780746.5063693542,1902005.2166926942,0.11752545934851565,0.11360712567146883,0.036993390880790344,0.13995030885111312,0.10852998654607234,0.0451394003672824,0.12475326282296792,0.06332184348270138,0.028685345039232434,0.1137446110636459,0.07288198843158629,0.03486727749462334,5.824883567949979,0.27907836144086295,0.6344964652596501,0.08196721311475409,0.45694749803266715,0.42461856183384156,0.00331652561865429,4807.521641483558,40.00423763606713,0.009237604307036016,Catherine,REC_0811_00000.csv
right,62,paved,62.928,0.9920000000000044,1.0,10772.0,0.393638715616498,35133.4441807233,220.98214285714286,0.07120896132211751,0.22491206290088972,0.46451479412373264,0.12765003080714724,0.44377079482439924,0.2876485615903796,4833.0,3220.2380952380954,-32.19999999999999,394.5,0.12250646950092421,1.403225806451613,0.0,1.403225806451613,1.8233123699521399,1.930138678282181,9617443.01920469,8718268.0,1457524.0,3789807.0,4675278.627602989,1885733.6739015437,2540454.143792807,0.12621565003080715,0.11945779420825631,0.03285767097966728,0.14072211953173136,0.11101417128773874,0.04413555144793592,0.12373629081947012,0.06119038817005545,0.028441158348736905,0.11087122612446086,0.0664596426370918,0.034898336414048055,5.160086778629329,0.37975448372084336,0.661946911187255,0.0967741935483871,0.4661348079479737,0.37752881985304915,0.006836684286951719,3291.684118097121,78.97280676660411,0.009237604307038051,Catherine,REC_0811_00000.csv
right,63,paved,63.936,0.9760000000000062,1.0,11232.0,0.43377209029839475,36256.821537470714,265.625,0.08559461007406044,0.22104187946884576,0.45107252298263534,0.12838227385699127,0.44550330172910807,0.28817356315569714,4895.0,3329.1451612903224,-24.599999999999994,410.2983870967742,0.12324436671236925,0.7049180327868853,0.0,0.7049180327868853,1.8451301385381609,1.8916101368388523,10240696.047731327,8456818.0,1330464.0,5619960.0,4273521.155732585,1680465.8533462912,2666598.3649312193,0.12021879102937401,0.11857640486998988,0.034543402113300425,0.13663296302935463,0.10913389565276371,0.04876772590076887,0.11928859001874936,0.06042915211208923,0.03239231227623095,0.1089061901970379,0.06795312174490206,0.043157451055439014,4.4181092154539225,0.2346405389158346,0.5791569584119297,0.09836065573770492,0.44417982715008186,0.4429886103343115,0.0030825493874298187,3323.6901680711485,80.68743892684815,0.009237604307036015,Catherine,REC_0811_00000.csv
right,64,paved,64.928,1.024000000000001,1.0,13266.0,0.6112314035657384,32497.116395151123,375.0,0.12083944951632063,0.223868642370845,0.4659591509811774,0.13789148527066036,0.43685394991108906,0.31564664872236115,4994.0,3192.476923076923,25.30000000000001,423.46153846153845,0.13264357070227603,0.90625,0.0,0.90625,1.5716611132560925,0.8188396612842297,10578034.88163671,8179485.0,2370157.0,6274807.0,4500751.154476871,1738614.0126088848,2066724.1769352914,0.11901537749806035,0.11321809446246223,0.033713875409014465,0.14262376452332648,0.10843280597173162,0.04367961216513823,0.1263836615890242,0.06557724650741406,0.028899672788430496,0.11342531239307797,0.07231423876324629,0.03271633792907364,5.842431408713094,0.39374566834759084,0.7121399584187755,0.0625,0.4739117488594047,0.31465175657557903,0.005817185881531744,1327.2020695179626,79.2436912712599,0.024440403706428818,Catherine,REC_0811_00000.csv
right,65,paved,65.968,0.9919999999999902,0.9838709677419355,10662.0,0.38404160427952266,33006.75037018943,1699.6527777777778,0.547693616094805,0.25748229380854465,0.4742974640164496,0.16017378638839563,0.40884694427263113,0.39176955736634766,4377.0,3182.15873015873,18.599999999999994,492.2063492063492,0.15467686905165706,0.6885245901639344,-8.0,-7.311475409836065,1.070810148430568,-0.5975663416986676,13115046.82827244,8676729.0,2240653.0,9575923.0,4710971.262343286,1580797.864951147,2812277.77895921,0.11166423911091601,0.1061623336459227,0.041022366767094316,0.138011532552525,0.10263073884155709,0.03847343322891518,0.13490891677806818,0.07556515493126359,0.023568906003711167,0.11964025619026716,0.08460863145713203,0.02374349049262755,5.221515133716453,0.3449498257365588,0.66873100392523,0.08064516129032258,0.48147704568518856,0.18718565744647098,0.0062447009986835965,1368.872528762057,798.2380116792305,0.024440403706430365,Catherine,REC_0811_00000.csv
right,66,paved,66.976,0.9759999999999991,0.01639344262295082,16099.0,0.8584006437262026,34393.29703590512,232.29166666666666,0.07485332567260972,0.2551862592014276,0.480481820209681,0.1639158112636852,0.39768576438609454,0.4121741986832061,4483.0,3210.1451612903224,-23.5,507.8306451612903,0.15819553934351274,9.0,-0.03333333333333333,8.966666666666667,0.9526804210466381,-0.8239826014266067,11673911.67593395,8514239.0,3159395.0,7335269.0,4663493.349083379,1698329.437814001,2340136.164641269,0.10961216707113035,0.09866903818036568,0.04183812409246894,0.13356847494586216,0.09552879228655121,0.04209939255083431,0.13501550025373188,0.0771797074798145,0.027820066422481148,0.12045480809329294,0.0867361037838707,0.03147782483959624,5.728172000831324,0.3854779367137946,0.6756268611238611,0.09836065573770492,0.48703771463129375,0.2613272612856215,0.0026731310251634863,2719.3036486080096,809.1373266714793,0.024440403706433477,Catherine,REC_0811_00000.csv
right,67,paved,67.968,0.9919999999999902,1.0,16018.0,0.8513336799235208,35617.35487090528,320.3125,0.10321702979519054,0.25380710659898476,0.46170823217832707,0.16916152675424545,0.3885923982697853,0.4353186719742921,4531.0,3170.5396825396824,7.5,518.1984126984127,0.1634417053828901,0.24193548387096775,0.0,0.24193548387096775,0.8854508370682718,-0.9919179819387329,12726081.207886424,9170308.0,3777590.0,7974234.0,5030124.12342699,1890238.93273681,2153723.6721531097,0.1131698574174944,0.09708426786286446,0.04229914290291573,0.13365107337391863,0.0943407561678949,0.0387646187119513,0.13830703300224287,0.07891601249599488,0.024751682153156044,0.12350809035565524,0.09024551425825057,0.024961951297661007,5.89929498878536,0.4053750112330652,0.6767942407881161,0.0967741935483871,0.5016769242907294,0.24301719661286236,0.004083408393321009,3115.933942389163,822.9495629950052,0.009237604307029879,Catherine,REC_0811_00000.csv
right,68,paved,68.976,0.9920000000000044,0.0,14596.0,0.7272692042764399,34183.69285200181,257.8125,0.08307712154247043,0.24814329401485366,0.40782000873743995,0.17377948926625447,0.38930793890250803,0.4463805432686885,4578.0,3198.6349206349205,-23.599999999999994,537.8253968253969,0.1681421638198835,0.0,0.0,0.0,0.7588622667581687,-1.2029103459966852,11685461.162394276,8671842.0,2746450.0,7335269.0,4614824.858290835,1725783.8573254873,2356836.662681939,0.10729279355280527,0.09925364987048046,0.04074654862689441,0.13275504431453897,0.09692626815010372,0.037262919697887,0.1388340264200006,0.08083309348233869,0.023110056869497905,0.12745020197107895,0.09294639578391575,0.022589001260458333,4.990056124767646,0.3174309023446352,0.638390202465962,0.0967741935483871,0.4786536318977371,0.2060353610872651,0.00322554075976991,845.3454915001303,45.286550679600744,0.009237604307033973,Catherine,REC_0811_00000.csv
right,69,paved,69.984,0.9759999999999991,1.0,11715.0,0.4759121337143864,34454.93648230976,2527.34375,0.8144075399693692,0.2511710907874191,0.47089002899843857,0.1590714325556395,0.40431627680559,0.3934331652742319,4483.0,3180.7580645161293,-25.19999999999999,487.98387096774195,0.15341747503891848,0.36065573770491804,0.0,0.36065573770491804,1.0384993530228235,-0.6573798140082814,11448346.599582361,8631525.0,1265712.0,7413460.0,4563484.54985451,1652274.379633286,2412137.528584858,0.11207005836506816,0.10242537029618624,0.04165673632274716,0.13652152306966792,0.09966177671178,0.03993773040510732,0.134163594598569,0.07467280573204806,0.02576987632284858,0.12126344399539568,0.08439862682359145,0.02745845735699037,5.719149030492148,0.39243295465665,0.6922509776092899,0.09836065573770492,0.4939001890699531,0.23938990129553328,0.004012593231981743,2192.3371851366446,1292.650074021268,0.009237604307033973,Catherine,REC_0811_00000.csv
right,70,paved,70.976,0.9759999999999991,1.0,15831.0,0.8350185906506628,33154.82314837466,526.0416666666667,0.16951089446039425,0.2501110617503332,0.45357618836072855,0.16227182529888542,0.4084783746162124,0.39725928074216177,4502.0,3267.516129032258,-28.400000000000006,512.233870967742,0.1567655218030861,0.3442622950819672,0.0,0.3442622950819672,0.9078796745860331,-0.9513223902974617,10769956.760043608,8355414.0,2356718.0,6373767.0,4540445.89990066,1504607.597069321,2304585.275859605,0.10741610970155885,0.1021936362828626,0.03948940203172974,0.13285222078524678,0.09797814261597543,0.04436140700739439,0.132087113620882,0.0755679069629688,0.0310929679247332,0.11941595174395071,0.0867039183359166,0.030841222986780926,5.709596262396858,0.4001399074065308,0.6959181308623097,0.08196721311475409,0.484029448078898,0.2560322867937077,0.003691226691999581,2112.1411726806664,1240.156509567214,0.009237604307038067,Catherine,REC_0811_00000.csv
right,71,paved,71.968,0.9919999999999902,0.0,54419.0,4.2016852476616044,58641.165319253334,304.6875,0.09818205273201051,0.2538860103626943,0.47105203874746565,0.16382407536775712,0.4000618750124748,0.40949684436318756,4439.0,3181.0158730158732,-15.0,503.484126984127,0.15827777888664896,0.0,-0.5,-0.5,0.9721153558328629,-0.7984820643748436,9332719.731626468,6980967.0,4502076.0,4254065.0,4653354.2433823645,1620468.5978544934,2394102.720098314,0.11254765373944631,0.10112572603341251,0.03980958463902916,0.1371529510389014,0.09927945549989022,0.038651923115307074,0.13572084389533143,0.0769495618849923,0.023851819324963573,0.12287678888644936,0.0868745134827648,0.025159178459511787,5.671753445829307,0.39569234968554606,0.6955931148056492,0.08064516129032258,0.49499850382924987,0.21496032465633397,0.0042275882276892555,23557.04712677999,1224.3643589987903,0.00923760430702983,Catherine,REC_0811_00000.csv
right,72,paved,72.976,0.9759999999999991,1.0,58765.0,4.580858391938829,63046.55021490074,1753.4722222222224,0.5650363148679808,0.25386313465783666,0.48123620309050774,0.16156577141439055,0.4014960825327047,0.4024093345944503,4530.0,3184.6612903225805,33.30000000000001,496.80645161290323,0.1559997771576458,1.6721311475409837,0.0,1.6721311475409837,0.9802019740641755,-0.7847356292062173,9593265.600978428,7331604.0,4469090.0,4278500.0,4478590.2279068995,1712539.9375244454,2376885.7971967235,0.11170985925479492,0.10235554497617105,0.04119038333949527,0.1367289781158679,0.10049177255898993,0.03793891080734772,0.13638458538660617,0.07657167167217864,0.023980876074328056,0.12168711920546572,0.08499409974221192,0.025966198866542754,5.486449880786198,0.35736466940287115,0.673283438357208,0.08196721311475409,0.4897028729939223,0.2595584905333994,0.004224732037504527,23633.485481409658,780.444382724425,0.00923760430702983,Catherine,REC_0811_00000.csv
right,73,paved,73.968,0.9759999999999991,1.0,14166.0,0.6897532235955364,34789.69264020595,500.0,0.16111926602176083,0.26586459070535506,0.48454824251002593,0.16276512733205648,0.40302901326523377,0.4038546158581733,4239.0,3183.1935483870966,-29.0,500.43548387096774,0.15721176744798793,1.0163934426229508,0.0,1.0163934426229508,0.9608639307008484,-0.8634408992267413,11071940.830075005,8382292.0,2720793.0,6702413.0,4631141.459847599,1512890.3970319363,2179619.256981947,0.1110013275367606,0.10351239878798935,0.039907173765441485,0.13634613240912455,0.10042663585970674,0.038118545992561745,0.1351503359377375,0.07665764752378927,0.0246253002158514,0.12303529626364272,0.08610747980826722,0.025111725899127475,6.100881625606601,0.41291081900195653,0.7046481043983467,0.09836065573770492,0.497013317229485,0.26913240699015395,0.004123762198198962,24590.86051768016,786.163337129919,0.00923760430702983,Catherine,REC_0811_00000.csv
right,74,paved,74.96,1.0080000000000098,0.0,12562.0,0.5498098910090963,32993.1237987554,250.0,0.08055963301088041,0.2370040314025037,0.42287290473159345,0.17317012072337679,0.3923702440481352,0.44134366290527516,4713.0,3243.46875,-19.19999999999999,544.21875,0.16778911466312108,0.0,0.0,0.0,0.7361313070331936,-1.2726746670555344,11185954.996928023,8399397.0,2557081.0,6930877.0,4394550.6432972895,1404838.5606059195,2404017.5655631996,0.10543303369270939,0.09820215625632281,0.041843705138210445,0.13070015704637203,0.09644863234769874,0.040648996541125915,0.13670742164542204,0.08124018460174774,0.026370301856615697,0.12340665375610602,0.09192993612162904,0.02706882099604012,5.366709459889721,0.32957000028438677,0.6491384166259839,0.07936507936507936,0.495961477834157,0.1938988887551397,0.004150087949005457,26224.545836550413,805.6179134549,0.018475208614074656,Catherine,REC_0811_00000.csv
right,75,paved,75.984,1.0080000000000098,0.0,10524.0,0.37200159187495363,32264.75423740277,270.83333333333337,0.08727293576178713,0.24081905185844646,0.49543734698419767,0.15108739733122253,0.4159227608312201,0.363258305530482,4493.0,3197.859375,-30.099999999999994,466.328125,0.1458250880716104,0.0,-0.15873015873015872,-0.15873015873015872,1.2185091392105403,-0.20692747708195958,11147472.89580356,8104959.0,1742187.0,7452555.0,4218467.454512095,1371904.3953871941,2575584.9833111307,0.11627895613765067,0.10740583300352287,0.040862295578585284,0.1374943199308131,0.10334549967507561,0.04248936055857678,0.13061471785325143,0.06985630035717252,0.02518774766323175,0.11985068136399837,0.08123109697405002,0.02538319090407157,4.838887167032872,0.2827355921766159,0.6340120056824267,0.09523809523809523,0.49128186787747413,0.20631577190139574,0.0034815337849033175,1825.3047234181688,138.71516913499744,0.018475208614074656,Catherine,REC_0811_00000.csv
left,0,paved,0.16,1.008,0.047619047619047616,20406.0,1.2341711758021363,39172.540446082894,0.0,0.0,0.20173482032218093,0.5130111524163569,0.11080978409978262,0.4480615410590296,0.24730929558870696,4035.0,2961.4375,54.599999999999994,315.8671875,0.10666008906147774,0.6666666666666666,-0.8833333333333333,-0.21666666666666667,0.9449377113588037,-0.6690801730070168,11988187.04866111,9864251.0,4118453.0,5426926.0,4715737.974416822,1084697.7416395124,1724534.1440072274,0.09669607243104067,0.0683895067851339,0.05398560665217483,0.10975982947470612,0.07821898149125214,0.11103138256336662,0.11971593187430091,0.058074625920688856,0.08066184074457083,0.08501994386172256,0.052735158179093765,0.0857111200219488,4.823227096511789,0.32886634812967813,0.6314337040283917,0.09523809523809523,0.44442895996340576,0.25651425460087585,0.0074015167810531956,0.0,0.0,0.0,Catherine,REC_0811_00000.csv
left,1,paved,1.184,1.0400000000000003,1.0,19037.0,1.1147307628901435,37269.28455175924,156.25,0.05034977063180026,0.1953853706431026,0.5083456062837506,0.12153230474943999,0.4331781228763434,0.28055965509606273,4074.0,3009.9242424242425,60.0,353.969696969697,0.11760086582265737,0.46153846153846156,0.0,0.46153846153846156,0.5434272687644103,-1.3718324338273702,11071055.732641084,9294925.0,2592512.0,5426926.0,4312890.965079645,820535.6461016744,1539765.2003394316,0.09695703606755429,0.06819360197327023,0.05641942060355893,0.1067126425209534,0.07588029498376583,0.10653645767788378,0.12037451863783946,0.06213787722433364,0.07585512572047017,0.09123354559412046,0.05939442752510634,0.08030505147114345,5.264757443968102,0.30908041764044575,0.6138266023700701,0.1076923076923077,0.4857980126820088,0.2559494714445771,0.003887050058100612,968.0291834443835,110.48543456039805,0.022627416997969777,Catherine,REC_0811_00000.csv
left,2,paved,2.24,0.992,0.016129032258064516,19095.0,1.1197910579587305,36412.36409518064,0.0,0.0,0.1951636541279922,0.5122129946262823,0.11255231683126193,0.44195025447119446,0.2546719131678033,4094.0,2984.714285714286,-52.30000000000001,323.7857142857143,0.10848130952950749,2.0,-1.0655737704918034,0.9344262295081966,0.756926982514119,-1.0271063380469432,11116036.963274367,9123883.0,4086688.0,4860043.0,4715883.917117929,985271.871864122,1716987.511814829,0.09583752133888543,0.07021490451347341,0.06178039428410366,0.1076011636007807,0.07870791386801533,0.1083776065348841,0.11856177241713066,0.05824917436461973,0.07704866595404096,0.08674888452804502,0.0543031424666422,0.0825688561293788,5.103342454263882,0.22845537343512506,0.5875781698726354,0.0967741935483871,0.5027225369808509,0.2377885150692213,0.0036916152837410485,774.1926978041924,90.21097956087903,0.024440403706431302,Catherine,REC_0811_00000.csv
left,3,paved,3.248,1.024,1.0,19526.0,1.1573942851063337,37230.22937076805,1356.9444444444446,0.4372597858423899,0.19717624148003896,0.505111976630964,0.12176059865670269,0.43811529457467363,0.27791907784186504,4108.0,3009.8153846153846,-27.69999999999999,354.5230769230769,0.11778897760148847,1.03125,0.0,1.03125,0.5166291565815347,-1.4202081335116643,10899067.777213288,9249721.0,2734232.0,5075068.0,4580302.043867739,849611.8537055681,1690519.6305279108,0.0962389719788589,0.06990973123830749,0.05555669144031323,0.106686839979963,0.07906950592420696,0.1067481777568775,0.1197722323883908,0.06362772058598024,0.0757010396753187,0.08994162688230303,0.058132878070722455,0.07861458407875771,4.512590471272992,0.18905366655331146,0.5282145960548864,0.09375,0.46703164470784353,0.23913015484324301,0.003745021440503248,267.1597524578408,742.4485882008257,0.024440403706431302,Catherine,REC_0811_00000.csv
left,4,paved,4.288,0.944,0.0,16429.0,0.8871919777371287,37099.69580737826,109.375,0.03524483944226018,0.19597989949748743,0.49341947834410144,0.11455589793025885,0.4423978470560557,0.25894316324657535,4179.0,2904.55,-37.599999999999994,320.2583333333333,0.11026091247640196,0.0,-2.389830508474576,-2.389830508474576,0.7395095166967068,-1.0690838679450747,11050561.11770511,9606466.0,2601064.0,4802622.0,4787665.980560265,971418.2144766707,1826042.9789649097,0.09708904993888898,0.0725930006369317,0.06026177319492979,0.10631595255719474,0.07923200954823753,0.10606921324588432,0.12155640862325201,0.06076098994106946,0.0781876710678074,0.08619235337659878,0.05379490798918937,0.07794666988001583,4.114260515014753,0.28890261207471424,0.5534664746717199,0.06779661016949153,0.44045883068767133,0.18910242007124148,0.008995986980393604,1677.5342023338903,753.8446606833822,0.0402657836547772,Catherine,REC_0811_00000.csv
left,5,paved,5.248,0.944,0.05084745762711865,24101.0,1.5565468702578071,41471.0905692146,0.0,0.0,0.1798491117060112,0.5079094670236067,0.09895598178402813,0.46105137595246454,0.2146311386220848,4109.0,2990.05,-8.099999999999994,283.9916666666667,0.09497890224801146,12.333333333333334,-0.25,12.083333333333334,1.025957556826673,-0.43658710076920215,11962011.812081153,10199006.0,3105638.0,5424483.0,4811675.962153723,885105.6562792093,1665172.5538148002,0.10004849417233824,0.07309242320362536,0.05530565263680094,0.11192120533101452,0.08255714787378136,0.11334258624437717,0.11809724475064519,0.05472595218586088,0.08013801329966612,0.07869433621511346,0.04423002959816725,0.08784691448860944,5.2432549761827225,0.28037708176942533,0.612097547506812,0.0847457627118644,0.45101622561438903,0.22539820649789866,0.008441783214194814,3859.654950035473,753.8446606833822,0.04618802153516987,Catherine,REC_0811_00000.csv
left,6,paved,6.208,1.024,1.0,23560.0,1.5093465317732284,41571.18902557395,125.0,0.04027981650544021,0.1945057640421879,0.5121412803532008,0.11341401703634983,0.4454805178375643,0.25458805154217046,4077.0,2918.646153846154,-42.900000000000006,319.3538461538462,0.10941848696972253,1.09375,0.0,1.09375,0.7749377933392108,-0.9723168642214022,12556586.422193693,10348057.0,5561317.0,4433659.0,4866377.190221518,1322771.8180989758,1558328.499524295,0.09940330606392848,0.06785021506283208,0.05578455764527283,0.11115269461077842,0.07709580838323353,0.10964514632706418,0.12372965336931771,0.06393902336172724,0.07973665345365606,0.08166062241713755,0.04947499367462258,0.08052732563042928,5.3681155169752595,0.29592736605502856,0.6173958645223315,0.125,0.48120454672503793,0.27173962722494316,0.003348842433756571,4281.810870803769,68.10779599282304,0.04618802153516987,Catherine,REC_0811_00000.csv
left,7,paved,7.248,0.976,0.03278688524590164,18482.0,1.066308973871768,39146.24518392537,281.25,0.09062958713724047,0.2042042042042042,0.527027027027027,0.10577889875423915,0.4637888625686645,0.22807554749872444,3996.0,2839.3064516129034,14.699999999999989,287.64516129032256,0.10130824769792712,1.0,-0.9491525423728814,0.05084745762711862,1.0073442660428347,-0.4667095874993077,11710448.840141866,9606466.0,3630982.0,5627290.0,4595650.413590432,993381.5356101874,1901017.2750344535,0.09858154819725397,0.06976942347347433,0.05329561399024068,0.11483381334605793,0.08095457205019399,0.11485085521793714,0.12356493237217174,0.06204945551219346,0.08338019848100114,0.07054766895595813,0.0437294432420457,0.08444247516147173,4.30809035931805,0.30554895479488303,0.554292842586317,0.08196721311475409,0.4697801829604299,0.18198344144298825,0.008609839804088266,3099.782949390705,140.91405477571547,0.04026578365477717,Catherine,REC_0811_00000.csv
left,8,paved,8.24,1.0559999999999992,0.045454545454545456,21823.0,1.3577994191157183,36788.42241792926,158.85416666666669,0.051188933475663605,0.20096544715447154,0.5355691056910569,0.12430717600482422,0.44313468446029214,0.2805178207978085,3936.0,2846.3432835820895,23.69999999999999,342.67910447761193,0.12039275320521224,4.333333333333333,-1.2063492063492063,3.1269841269841265,0.5649273362001973,-1.3895018380856845,12419959.60735336,10223440.0,4131892.0,5715255.0,4701970.263288822,1114861.6115484526,1743967.0823096102,0.09016019506567735,0.06050706588710312,0.052893212029050105,0.1118586298209276,0.07317060381217064,0.11326918539104901,0.12666159775569596,0.07077423245326551,0.08432919954904172,0.08262499672268687,0.053532943551558694,0.08021813796177342,4.267746210267079,0.17882097725863444,0.510228195117173,0.09090909090909091,0.43741764161593216,0.1849645977767074,0.0030905847816714406,2580.8762723798563,82.19986528583411,0.04026578365477699,Catherine,REC_0811_00000.csv
left,9,paved,9.312,0.9280000000000008,0.034482758620689655,18841.0,1.0976304554169873,37243.169212622066,406.25,0.13090940364268067,0.17855398143624818,0.5190522716170005,0.11913580996563157,0.4496739249237944,0.2649382215918489,4094.0,2791.2881355932204,-29.599999999999994,320.3813559322034,0.11477903404053776,7.0,-0.23214285714285715,6.767857142857143,0.6050358169779544,-1.3616836522031963,11428498.922102587,9805608.0,3452610.0,4747644.0,4814642.115583091,913094.4125748215,1644938.3547991167,0.09258831959000766,0.06264041873626174,0.05408474308684406,0.11388339020924669,0.07531909209040234,0.11293613300462699,0.1260459298301009,0.06791712713891891,0.08489489088325662,0.081767727675698,0.05121868282671266,0.07670354492792343,5.0209368384520925,0.3331214819551735,0.5993296844860974,0.08620689655172414,0.46023764149807195,0.21165384275977778,0.005215002371250127,1834.09768914672,123.70020100229948,0.06466323014923707,Catherine,REC_0811_00000.csv
left,10,paved,10.256,0.927999999999999,1.0,48231.0,3.661804111723393,49869.62111345944,270.8333333333333,0.08727293576178712,0.21433868974042028,0.5216316440049443,0.11552890491692182,0.4539167160819527,0.2545156431206924,4045.0,2801.1186440677966,-33.80000000000001,310.08474576271186,0.11070032553580289,2.3793103448275863,0.0,2.3793103448275863,0.8690380620412531,-0.8151288005855561,8043433.954666502,6991963.0,2646268.0,2967583.0,4486458.067183363,805250.0489288486,1665751.154910974,0.0958394346084494,0.06706158556508901,0.05448791644984449,0.1137257512131957,0.07847349122021469,0.11253978434765773,0.12513765686832137,0.06743068749773093,0.08211610373579563,0.0768700156111965,0.048098217419190875,0.07821935546331368,5.113894659663664,0.4106962427246027,0.6495817130205783,0.06896551724137931,0.4286250894951049,0.16943634344149416,0.008464216543498302,16176.355625830354,123.88281137777405,0.07390083445627138,Catherine,REC_0811_00000.csv
left,11,paved,11.2,0.9600000000000009,0.0,44943.0,3.3749377292145306,47614.169760692035,4593.75,1.4802832565749278,0.21687047666583478,0.5195907162465685,0.11238179267906429,0.45342405321026197,0.24785141388797263,4007.0,2898.4918032786886,-48.19999999999999,312.5163934426229,0.10782034749558843,0.0,-2.0833333333333335,-2.0833333333333335,1.0656173681225967,-0.41564771763326336,8636539.599488327,7138571.0,2467895.0,4188092.0,4699185.609477332,954139.9350832689,1819036.4808234032,0.09678295099769241,0.0682548300981856,0.05333469073797566,0.11199719469707253,0.07915365820551105,0.11267024116555811,0.11870503597122302,0.06065336410117189,0.08134812904393465,0.08244536446314646,0.05172842857789241,0.08292611194063616,5.4397477039950966,0.3503522060810311,0.6404834031564847,0.08333333333333333,0.4474565306886484,0.2479673865130705,0.004228932162710475,16103.299082279176,2457.6785262572334,0.01847520861406661,Catherine,REC_0811_00000.csv
left,12,paved,12.176,0.9919999999999991,1.0,20928.0,1.2797138314194192,37478.18113249361,140.625,0.04531479356862023,0.22239108409321176,0.536727456940223,0.11604911749075654,0.4686231498965412,0.24763846497188352,3948.0,2807.6507936507937,45.5,313.2063492063492,0.11155459571918001,2.6774193548387095,0.0,2.6774193548387095,0.8125546378700136,-0.909101941033021,11532810.461880226,9657779.0,3309667.0,5364618.0,4778528.724044591,887489.644778841,1714824.7173784468,0.09032010040592033,0.0645684693750636,0.05241347338903902,0.11559683857034632,0.07943148539704435,0.11972953720559469,0.1251399237910019,0.07077599755769383,0.08929681934849222,0.06832803790097353,0.04527311993306272,0.07912619712576746,5.123547560217982,0.36175599975265293,0.6435434661772961,0.08064516129032258,0.45345973949755475,0.2491758915033741,0.00927581191194412,14905.172357272491,2534.261397417365,0.03199999999999918,Catherine,REC_0811_00000.csv
left,13,paved,13.184,1.072000000000001,0.04477611940298507,17339.0,0.9665862624339244,37172.24132333158,84.375,0.02718887614117214,0.2157441574415744,0.5198031980319803,0.13713994392046902,0.4270711190415499,0.3211173451113544,4065.0,2884.5588235294117,-21.80000000000001,383.6617647058824,0.13300535304613817,7.333333333333333,-1.71875,5.614583333333333,0.4537112718238006,-1.4308882803041088,11360972.094892848,9236282.0,3530801.0,5594303.0,4175660.2273718943,809465.2736549807,1818300.0112528012,0.08933979097629365,0.05931684934998725,0.05382615345398929,0.10669385674228907,0.07033392811623758,0.10822329849604895,0.12565383634973235,0.07470303339281163,0.082503186336987,0.09055314810094316,0.0624369105276574,0.0764160081570227,4.4501131107783305,0.19637147019849377,0.5437612842871185,0.07462686567164178,0.45984861829322143,0.16217093784153638,0.0016130727911853576,15008.786104589983,2587.4037572680845,0.05768882040742402,Catherine,REC_0811_00000.csv
left,14,paved,14.272,0.911999999999999,0.0,49552.0,3.777056694233796,50535.28946191958,1088.5416666666667,0.35077006873487515,0.18620689655172415,0.5147783251231527,0.10422846860866605,0.45241453095365464,0.2303826722560819,4060.0,2836.2758620689656,43.900000000000006,282.9913793103448,0.09977568934493994,0.0,-0.8245614035087719,-0.8245614035087719,1.0861161153004364,-0.37000301631732757,7955341.190695344,6925990.0,1590693.0,3576005.0,4611579.335077693,820407.5790178508,1820000.8315736928,0.10219812284199777,0.076751933083694,0.05802290521811019,0.11020400719739339,0.08480036959587609,0.1052193259738365,0.11917643339979575,0.055494091329086226,0.07543889510285463,0.08309220444487672,0.04873437727957983,0.08086733453289889,4.379318711195888,0.34727495352733617,0.538737335107729,0.07017543859649122,0.47058249077527176,0.1931677401917938,0.008028852278786748,17653.572188087033,564.2193373575121,0.0800000000000008,Catherine,REC_0811_00000.csv
left,15,paved,15.2,0.9759999999999991,1.0,16568.0,0.8993192366083974,35852.961118992665,223.21428571428572,0.07192824375971466,0.1935250060401063,0.5283884996375936,0.11205874175079016,0.45491945139562723,0.24632655606816425,4139.0,2842.4032258064517,-31.69999999999999,306.4516129032258,0.1078142643946229,1.7377049180327868,0.0,1.7377049180327868,0.8179586761913037,-0.9084228700172603,11508516.555039838,8779355.0,4073249.0,6227160.0,4587024.695123291,992447.8240981958,2093063.0598979713,0.09634623132401592,0.06963099149402198,0.05720397891379966,0.11235381236913335,0.08018544053475875,0.11140050729448614,0.12195495633522291,0.06446725567301637,0.08134869970322704,0.07626440597177536,0.047591486077773804,0.0812522343087687,5.339383072088055,0.36773677114432457,0.6544103004149597,0.08196721311475409,0.4514961915213246,0.2692045882229567,0.007536744705744257,18824.700378315014,544.1229208441808,0.0805315673095555,Catherine,REC_0811_00000.csv
left,16,paved,16.192,1.0079999999999991,1.0,48844.0,3.715286195810355,50893.025082028675,2694.444444444445,0.8682538224506002,0.1969178082191781,0.5244618395303327,0.12700042407874473,0.44065687565564804,0.2882070633521363,4088.0,2800.1875,-3.0,343.1640625,0.12255038725085374,0.23809523809523808,0.0,0.23809523809523808,0.5343700005925814,-1.4494234101612236,8540305.082397642,7191105.0,2069611.0,4116009.0,4607264.8321431335,1108341.9592406172,1800813.5072651247,0.09349820324531839,0.06442648929759168,0.05794254849005647,0.10927839653594626,0.07508425775059706,0.10912773698189854,0.12682186460728076,0.07387340133473205,0.08273999508961453,0.07822578845166618,0.05312702274401268,0.0758542954712854,5.192575812466369,0.3299872155404009,0.6423824596120651,0.09523809523809523,0.4595792068888765,0.22077676223352466,0.004183942239328367,18842.264973546393,1253.9732656186488,0.04888080741286182,Catherine,REC_0811_00000.csv
left,17,paved,17.216,1.0399999999999991,0.0,15970.0,0.8471458495219316,36469.47470145409,179.6875,0.0579022362265703,0.19547775346462437,0.5275954291271578,0.13023604346197076,0.43871433923888026,0.29685841517697076,4113.0,2830.757575757576,45.599999999999994,356.6439393939394,0.12598886688433333,0.0,-0.3230769230769231,-0.3230769230769231,0.489700181151288,-1.5312070556667616,11582650.014340155,9166643.0,3954741.0,5872858.0,4516371.153210718,1020288.5927573291,1783556.8232438297,0.09144141733126372,0.0665150136487716,0.057373012899427284,0.10841406626344804,0.07871326874698924,0.10554514799550392,0.12397901835893592,0.07297543221110099,0.07952684258416742,0.0835840068511481,0.05726061125086977,0.07467216185837391,4.8991866287559445,0.3795203939543339,0.6413584126950259,0.09230769230769231,0.4815848202878105,0.2254684654646367,0.0030757566220914164,18809.561646496,1439.4950253545903,0.03199999999999978,Catherine,REC_0811_00000.csv
left,18,paved,18.272,0.9760000000000026,0.0,18827.0,1.0964090048831905,39690.88149688792,93.75,0.030209862379080157,0.19562575941676794,0.5253948967193196,0.11969352549530943,0.4519633522956741,0.2648301568860638,4115.0,2795.5806451612902,-40.099999999999994,322.6532258064516,0.11541545988484128,0.0,-2.081967213114754,-2.081967213114754,0.5720238160360149,-1.3574879612894206,12378931.1781464,9457415.0,4704884.0,6454402.0,4702270.446842291,1145356.0638611207,1891123.9983858645,0.09517325733011782,0.06567970183353912,0.05698510321590529,0.11458754024208716,0.07724172945778475,0.11063544996134453,0.12688806064871977,0.07215882210401209,0.0838189308009185,0.07472623841777921,0.04753470339129732,0.07457046259649447,5.410839676014293,0.3608088770994594,0.6511749502315588,0.08196721311475409,0.48520960925712137,0.26627421530094875,0.007474093325096273,18211.180695752086,1477.3286328653046,0.031999999999997975,Catherine,REC_0811_00000.csv
left,19,paved,19.264,1.1039999999999992,0.0,20512.0,1.2434193012723125,37656.83706845279,93.75,0.030209862379080157,0.19147398843930635,0.5154142581888247,0.13240167192996968,0.4365459756412065,0.3032937635844482,4152.0,2935.8714285714286,47.80000000000001,377.85,0.12870114008495895,0.0,-1.0,-1.0,0.25193814231561246,-1.6676969790547649,11694963.25126723,9186191.0,4189313.0,5902179.0,4376640.315357786,1019226.6790168929,1725724.2255267845,0.09519198485725826,0.06896467828972658,0.056756086048921954,0.10733245422386149,0.07722214382685112,0.10509413121438754,0.12368680995177873,0.07435611719080731,0.07793256808637981,0.08237028674864119,0.058045554739162376,0.07304718482222362,4.713991940602443,0.2282800716254216,0.5613531415364345,0.11594202898550725,0.46188644428053466,0.20874786564110628,0.005061354949984169,2296.0632250296253,49.61603875850221,0.06399999999999836,Catherine,REC_0811_00000.csv
left,20,paved,20.384,0.8640000000000008,1.0,52079.0,3.997528515584129,54384.83948675403,218.75,0.07048967888452036,0.19372738238841977,0.5080820265379976,0.10233025491363143,0.45860773508950453,0.2231324225126328,4145.0,2840.890909090909,-56.19999999999999,276.8181818181818,0.09744062361999116,1.4444444444444444,0.0,1.4444444444444444,1.091655274761111,-0.2175960917514823,7965533.879777111,7153231.0,2094046.0,2809980.0,4704520.879198919,902003.2688780803,1840617.0232477863,0.10043584278939384,0.07465647780145793,0.05827237294318683,0.11113671127495216,0.08283573014867295,0.109472700625284,0.11978316661226632,0.05695396450537284,0.08050611523913753,0.07791409865023136,0.04537629040825861,0.0826565290017856,5.277978577141108,0.370340573666325,0.6089800562533014,0.07407407407407407,0.46820213300927443,0.15174149924188784,0.006994237656124596,18730.590923228592,72.16878364871611,0.12008885599144116,Catherine,REC_0811_00000.csv
left,21,paved,21.264,0.9759999999999991,0.0,20813.0,1.269680487748945,38710.81865577115,0.0,0.0,0.1946064139941691,0.5208940719144801,0.11875626007054828,0.4493750816530941,0.2642697935844512,4116.0,2962.967741935484,-53.599999999999994,339.41129032258067,0.11455112572399077,0.0,-0.9344262295081968,-0.9344262295081968,0.718542410145104,-1.1735829026780826,11481590.365847189,9302255.0,3573561.0,5703037.0,4596679.515134067,910925.8985567901,1714718.3920629832,0.09578452292818883,0.07173496494360493,0.055066846666376346,0.10930083177285198,0.08080390192919043,0.10902865479249227,0.119561903932413,0.06340090580499064,0.0785067282149545,0.08316639811871271,0.05535535426555764,0.07828898663066672,5.248793180541988,0.3013244412640717,0.6394646486067309,0.09836065573770492,0.4641971433835586,0.33377850727823194,0.004189207730781998,18138.94909671818,109.74639325889115,0.12008885599144123,Catherine,REC_0811_00000.csv
left,22,paved,22.256,1.0079999999999991,0.9841269841269841,19090.0,1.1193548256252315,39659.81681752955,93.75,0.030209862379080157,0.18812363105378438,0.5108298856169384,0.12437202043739444,0.4389603865147402,0.2833331304102111,4109.0,2923.5625,-33.80000000000001,352.1484375,0.12045182461466106,0.7903225806451613,-30.0,-29.20967741935484,0.4942786504588493,-1.5146210517504597,11832801.637648584,9605245.0,3844785.0,5742133.0,4600523.8903119,1063274.307074663,1919885.1141342781,0.09335784680505377,0.06622378519357804,0.05681745302178421,0.1079376616713342,0.07697158860123565,0.10832246616927123,0.12267781174508839,0.06642687645637814,0.07950488487932103,0.08745751117001946,0.057945143981016314,0.07635697030591958,4.992008855434635,0.32155030016775726,0.6378331738336822,0.09523809523809523,0.47335562474521065,0.27850834159163074,0.007572318927727302,18568.816180180504,109.74639325889115,0.07561305002004036,Catherine,REC_0811_00000.csv
left,23,paved,23.28,0.9759999999999991,0.08196721311475409,20406.0,1.2341711758021363,37740.85502476063,0.0,0.0,0.19601083476976114,0.5185914799310515,0.11439142750488572,0.4520981093959289,0.25302345912847046,4061.0,2938.1290322580644,-6.900000000000006,324.46774193548384,0.1104334555675106,3.6,-2.357142857142857,1.2428571428571429,0.8516760264003974,-0.8657185896693997,11728175.66020304,9575923.0,3393967.0,5859419.0,4789838.9359263005,1057518.8620914211,1837664.7058646635,0.09624294591686612,0.07228102149711249,0.05832656287740717,0.10915438835335192,0.0818163852352825,0.10923124217737863,0.12017193298346544,0.063349509233438,0.0796150721328034,0.07863244109703345,0.05104191827144771,0.08013658022441317,5.5752514618401,0.3884603713933025,0.6751690314497099,0.08196721311475409,0.4793670807676519,0.26572036752533795,0.007424713020400504,900.5770372378244,54.12658773654441,0.01847520861406713,Catherine,REC_0811_00000.csv
left,24,paved,24.272,1.0720000000000027,1.0,51552.0,3.9515496276333475,53242.456780280154,406.25,0.13090940364268067,0.1807081807081807,0.515018315018315,0.12884481523701918,0.4392446054051872,0.2933327208835357,4095.0,2915.5,-35.80000000000001,365.29411764705884,0.1252938150049936,1.0746268656716418,0.0,1.0746268656716418,0.3152912045333974,-1.671468208412686,8286718.96255804,7525859.0,2169793.0,2706133.0,4517848.901495248,1088049.3020985338,1679471.1570071026,0.09497916813784338,0.06807933257336549,0.057739062011359164,0.10784145591009514,0.07699718542879337,0.10729165615826163,0.12519797835100427,0.075256993553724,0.07903497533467169,0.07937292564084457,0.05358782168329517,0.07462144521674216,5.399264823926828,0.3220674539751381,0.6208503094505172,0.1044776119402985,0.45807413286395005,0.3429022342352297,0.004035329184060085,18373.83382240444,212.7143526735683,0.048880807412864255,Catherine,REC_0811_00000.csv
left,25,paved,25.36,0.9759999999999991,0.01639344262295082,17784.0,1.0054109401153246,38116.29184482667,135.41666666666669,0.043636467880893565,0.19306443679291688,0.5120511559272012,0.12238028990710408,0.44221491720145406,0.27674392053865665,4066.0,2875.2258064516127,19.5,339.55645161290323,0.11809731633981063,18.0,-0.4166666666666667,17.583333333333332,0.6376255850560366,-1.2692139959589237,11721726.748104734,9310807.0,3649308.0,6114761.0,4560421.969490875,959495.1012720712,2072402.004016887,0.09655903603644034,0.06809002378494818,0.05469416146838397,0.11041489027509761,0.07755912579096172,0.1072454337387246,0.12533096979760358,0.06897074002602882,0.07890544361172194,0.0828209846070996,0.05340954988107526,0.07599964098191447,4.719000385897367,0.31139540484331174,0.5458632337424066,0.09836065573770492,0.476895842398984,0.2396389055059626,0.006310292882785129,18784.861032224857,206.85237511953895,0.055425625842206075,Catherine,REC_0811_00000.csv
left,26,paved,26.352,0.911999999999999,1.0,21909.0,1.365302615251899,39427.39165859187,196.875,0.06344071099606832,0.19220330619294348,0.5183814458425857,0.1077036993158191,0.45856114681752214,0.2348731462820542,4053.0,2910.603448275862,67.69999999999999,300.2068965517241,0.10314249326185469,0.3157894736842105,0.0,0.3157894736842105,0.9717678841094334,-0.6440736418301305,11981693.467572644,9756739.0,4021936.0,5673716.0,4798721.649938426,1048216.1678161821,1854732.6148708614,0.09806000651600864,0.07215591031602643,0.05489441104167284,0.1122649053697835,0.08291324823031129,0.11094985635162752,0.11927257648905606,0.05834789562538874,0.08027722654977343,0.08072742351094393,0.049355803690430355,0.0807807363089773,4.991440989069491,0.32026057685771114,0.6053554980047108,0.07017543859649122,0.4494832147557411,0.15866355896486686,0.0065336390917763556,18421.006568589022,141.98926708591205,0.08053156730955645,Catherine,REC_0811_00000.csv
left,27,paved,27.28,1.0719999999999992,0.029850746268656716,22536.0,1.4200061498726584,39613.5893223525,343.75,0.11076949538996057,0.1930933852140078,0.5089980544747081,0.12803240635383006,0.443943784483587,0.2883977900550252,4112.0,2907.926470588235,63.0,361.8602941176471,0.12443928612969622,50.0,-1.0307692307692307,48.96923076923077,0.34795797653345867,-1.5400725170174432,12201193.117556864,10008416.0,4565606.0,5277875.0,4745384.431048408,1145122.5949768852,1463639.028079665,0.09347169754069759,0.06587471363767392,0.055290054061161435,0.11046885035324343,0.07591319871143275,0.1102008202731884,0.12590839439867704,0.07592331305407633,0.0814862015080485,0.0781484684356652,0.05210909329975372,0.07520519472638175,5.348750736880788,0.3340083877986013,0.6252531095113882,0.11940298507462686,0.4909064711374574,0.3403306445481168,0.00651254979272331,2581.674456626916,107.04529425971991,0.08053156730955457,Catherine,REC_0811_00000.csv
left,28,paved,28.368,0.9120000000000026,0.0,22967.0,1.4576093770202616,40290.38845680195,75.33482142857143,0.024275782268903697,0.18264953040039544,0.527681660899654,0.10149235912129893,0.46786055396370585,0.21692865162788885,4046.0,2888.2758620689656,-1.0,281.1896551724138,0.09735553963705826,0.0,-1.6140350877192982,-1.6140350877192982,0.9573751964430083,-0.45830539887577837,12220729.716263918,9922894.0,4394564.0,5618738.0,4943415.218702882,1237644.2166547643,1709569.5575021154,0.098597182425979,0.07071394460362941,0.053414517669531994,0.11653533906399237,0.0815186246418338,0.11484001910219674,0.1225943170964661,0.061007640878701044,0.08425262655205348,0.07251671442215854,0.040484718242597896,0.0835243553008596,4.706235977667851,0.28078563085327657,0.5760979702081498,0.07017543859649122,0.444516330058072,0.1631544569615871,0.013020723286859931,532.0172302973032,134.40671406823265,0.09237604307033893,Catherine,REC_0811_00000.csv
left,29,paved,29.296,1.0079999999999991,0.9841269841269841,19545.0,1.1590519679736295,36381.307686777836,114.58333333333334,0.03692316512998686,0.19178421182875527,0.520415738678545,0.1051236559139785,0.4646451612903226,0.22624502453005554,4041.0,2906.25,-31.099999999999994,295.21875,0.10158064516129033,2.0,-108.0,-106.0,0.8750736635344983,-0.7031158968101372,11371508.018118838,9494067.0,3949854.0,4855156.0,4717328.38140348,1074208.3979177426,1716117.361295958,0.09767741935483872,0.071,0.05366129032258064,0.11444623655913978,0.08220967741935484,0.11388709677419355,0.12152688172043011,0.06267204301075269,0.08310215053763441,0.0732258064516129,0.042451612903225806,0.08413978494623656,5.1075876715663036,0.3133401915608579,0.6450409620059104,0.09523809523809523,0.46917655729074825,0.2714709505273645,0.013801343572342065,1863.7742173700158,144.97385677274852,0.08053156730955276,Catherine,REC_0811_00000.csv
left,30,paved,30.32,0.9920000000000009,1.0,23321.0,1.488494626231982,39895.5461925263,0.0,0.0,0.1906988188976378,0.5182086614173228,0.10560456810313236,0.46516219719634855,0.22702740837402494,4064.0,2902.1111111111113,21.69999999999999,294.8492063492063,0.10159817975967138,1.3709677419354838,0.0,1.3709677419354838,0.9433928851773742,-0.5537825294153191,11138604.049661878,9641896.0,2882062.0,4774522.0,4730471.852601606,930645.1747387102,1649019.9048338076,0.097515218806233,0.07227360487439356,0.05404932369976973,0.11380877631499783,0.08165374959662643,0.11416429200417866,0.12066202490797613,0.06230275716090639,0.08326177440615205,0.07414416434669889,0.04330181094222597,0.08286250293984128,5.233671178176667,0.3406973497847268,0.6518999117422157,0.08064516129032258,0.4323482977768792,0.2515786203208457,0.01072529110107105,2085.408672978325,58.23103594619435,0.051432804058627074,Catherine,REC_0811_00000.csv
left,31,paved,31.328,0.9760000000000026,0.0,22234.0,1.393657716929326,37370.23558930289,0.0,0.0,0.18736488109536392,0.5073264472736008,0.10468426158078589,0.45226420995160427,0.23146704797160897,4163.0,3042.7903225806454,-62.599999999999994,306.508064516129,0.1007325618993602,0.0,-1.1311475409836065,-1.1311475409836065,0.918380096701823,-0.6548652156972223,12091573.748347772,9783617.0,3904650.0,5936388.0,4735250.921899188,1016881.4048827966,1902703.3662985316,0.09935702056156011,0.07008104827381488,0.054316655446772645,0.11313363688889123,0.07964887915909102,0.11106104859185913,0.12211308593025288,0.05506405941066402,0.07833959703794798,0.0851881496716193,0.049620202170121856,0.08207661685740486,5.4051231299495495,0.3258562488719173,0.6587071468800076,0.08196721311475409,0.4239423195480926,0.2501790263803303,0.007899821932728016,1943.8135198624077,66.1547183446586,0.015999999999997502,Catherine,REC_0811_00000.csv
left,32,paved,32.32,0.9919999999999973,0.06451612903225806,43153.0,3.218766553821932,48144.469765488124,0.0,0.0,0.18290639214747426,0.50993536030644,0.10402675570943899,0.46008886411508393,0.2261014421843125,4177.0,2961.5396825396824,24.69999999999999,296.72222222222223,0.10019187788419795,14.5,-0.6724137931034483,13.827586206896552,0.9469236321429012,-0.46690060367486996,9380402.108483516,6982189.0,4078136.0,4754975.0,4796953.798171497,1400150.6310311435,1638711.7643291957,0.10185607014798181,0.07269920729779127,0.05664685357787937,0.11263982162860374,0.08257180681434474,0.11140708661839349,0.12065259919497044,0.06005027414954684,0.08077094175595063,0.0749931663602695,0.043976481559892165,0.08173569089437606,4.954610125494378,0.33856691120303245,0.632514909334287,0.0967741935483871,0.45028662721483914,0.26656973590488425,0.009259085439545817,11776.348854094516,0.0,0.009237604307030405,Catherine,REC_0811_00000.csv
left,33,paved,33.328,1.0399999999999991,0.03076923076923077,24398.0,1.5824590708676405,34422.16120466581,0.0,0.0,0.18164110056001948,0.509617725833942,0.11919474679491952,0.44796676543724595,0.26607944158198926,4107.0,3052.681818181818,34.60000000000002,353.4469696969697,0.11578244663162544,16.5,-1.3333333333333333,15.166666666666666,0.38636629876756456,-1.5660697563792139,12165424.506496515,10432356.0,3982841.0,4827057.0,4795318.845159581,1086806.556925068,1599111.753076629,0.09409014428445928,0.06789360572174491,0.05402105451242574,0.10969490314030883,0.07820743806985414,0.11174972825682336,0.12073834730515146,0.06512405882557315,0.08042109024851472,0.08624805809099799,0.05407068796934638,0.07774088357480011,5.686963271353169,0.2931691912280454,0.6166052112050342,0.1076923076923077,0.459364925470329,0.3103084797407805,0.005753730017082992,11503.894137783658,0.0,0.03330665599145677,Catherine,REC_0811_00000.csv
left,34,paved,34.384,0.911999999999999,1.0,24828.0,1.619975051548544,39419.94998728436,156.25,0.05034977063180026,0.16976127320954906,0.5126597540390644,0.09233247955052466,0.4699307137545591,0.19648104890348134,4147.0,2921.4137931034484,23.099999999999994,257.8103448275862,0.08824848620766988,0.42105263157894735,0.0,0.42105263157894735,1.2110784994162975,0.4413044311183958,13883734.647872992,10222218.0,6894225.0,6382320.0,4785746.647082154,1631757.6466765585,2080732.5274324517,0.10189327321443324,0.07142266970408753,0.053522739344436444,0.11772760000472136,0.08188642721403193,0.11554986367016443,0.1221715985410937,0.05492144804711936,0.0833441531615538,0.07312826807993296,0.037411031503405294,0.08702092751501989,4.532009910536503,0.2580404839250356,0.5479186445412227,0.07017543859649122,0.4086010782902867,0.1184856316976017,0.010829568936373535,10706.23299765141,90.21097956088929,0.0646632301492377,Catherine,REC_0811_00000.csv
left,35,paved,35.312,0.9759999999999991,0.9836065573770492,22957.0,1.4567369123532639,40426.94915523555,218.75,0.07048967888452036,0.18017366136034732,0.49421128798842257,0.10753403900686191,0.45048379764919805,0.23870789486311564,4146.0,2980.451612903226,14.800000000000011,308.94354838709677,0.10365662272441933,0.6666666666666666,-21.0,-20.333333333333332,0.6885520053628665,-0.9833918203974079,12074953.543669889,9853256.0,4162435.0,5602855.0,4899940.897381938,1222498.8121009276,1640740.7690108018,0.10213866701300951,0.0696636145204234,0.05422430027923891,0.11265341905318527,0.07947485767474079,0.10969327012576574,0.12160962833084399,0.05986319457973461,0.07899863627508279,0.08295452085633266,0.0476708444271273,0.08105504686451502,5.03516472838891,0.27855774488121726,0.6191488618486598,0.09836065573770492,0.4405012136152755,0.37938565187266604,0.007479971852437145,979.9678566156625,112.67347735825791,0.06399999999999971,Catherine,REC_0811_00000.csv
left,36,paved,36.304,1.0719999999999956,1.0,27987.0,1.8955866398531351,43104.8797005629,164.0625,0.05286725916339027,0.18746916625555007,0.5111001480019733,0.10727735120066513,0.4514500904778207,0.2376283745719097,4054.0,3006.9117647058824,-48.599999999999994,312.2279411764706,0.10383674866728616,1.6865671641791045,0.0,1.6865671641791045,0.7445525753467875,-0.9395038241596851,13121789.222345099,10869736.0,4638910.0,5701816.0,4890286.86405159,1477485.219032678,1655286.3754499995,0.10249425343571184,0.06801486770675404,0.05425734826624933,0.11382109844965031,0.0781581650119822,0.11150780065535286,0.12438988604685283,0.061608059862082454,0.07994815865408128,0.07974274954761089,0.04566929133858267,0.08038832102508925,5.244687240538933,0.33129011477463954,0.6133175795661238,0.11940298507462686,0.4649700014133086,0.35395995975082534,0.004178572793393494,2542.335605960242,34.05389799643888,0.08053156730955265,Catherine,REC_0811_00000.csv
left,37,paved,37.392,0.9279999999999973,0.0,26001.0,1.7223151569873807,40049.502880809894,958.3333333333334,0.3088119265417083,0.18583415597235933,0.513573543928924,0.10477990347153575,0.4578065941734024,0.22887373140756895,4052.0,2914.7457627118642,-1.6999999999999886,292.70338983050846,0.10042158516020236,0.0,-0.1206896551724138,-0.1206896551724138,0.7860990847432381,-0.8718354330145672,12602119.607637797,10971139.0,3933972.0,4792848.0,5075684.730865921,1169664.6828879772,1697101.4706970414,0.09694132697563529,0.065546316217945,0.05168924812467292,0.11643309879630168,0.07808338663720417,0.11463627376868059,0.12617898470663488,0.05960341920102343,0.08310751875327092,0.08156073733790778,0.0451764842705123,0.08104320521021109,4.29589150721118,0.24458662502769676,0.530104083688356,0.06896551724137931,0.40103092871795554,0.14638940673695058,0.0077109622174639505,2533.4769257550447,443.62904666788404,0.07332121111929214,Catherine,REC_0811_00000.csv
left,38,paved,38.336,1.0560000000000045,0.0,26901.0,1.8008369770171788,38920.488755923914,208.33333333333334,0.06713302750906702,0.20217230313502838,0.5223401629227351,0.10706163884718857,0.45579353636845577,0.23489064741928195,4051.0,3012.492537313433,19.900000000000006,310.67910447761193,0.10313024866600276,0.0,-0.7727272727272727,-0.7727272727272727,0.8577323038199562,-0.7216815145396382,12517402.888149323,10343170.0,4607145.0,5336518.0,4860910.527378874,1378819.4996365358,1643853.704442675,0.10111129277585378,0.06913994956326144,0.05158618092817471,0.1133984353711163,0.08062941878842829,0.11296243998870376,0.1230894236438314,0.06126726021492591,0.07966329265694595,0.0783453975237444,0.04579437863226266,0.08301252991275138,5.571138010242669,0.3142791263073172,0.630668844927528,0.10606060606060606,0.4356143310957904,0.3734229483948064,0.006136718113652738,994.4506020913765,446.341809111968,0.07892612579706108,Catherine,REC_0811_00000.csv
left,39,paved,39.408,0.8960000000000008,0.0,26240.0,1.743167062528627,41571.078997302924,93.75,0.030209862379080157,0.1869660727361484,0.5010983646570661,0.1049695021041184,0.454052201049695,0.23118377548081048,4097.0,2968.280701754386,-34.19999999999999,298.5,0.1005632654026195,0.0,-0.7321428571428571,-0.7321428571428571,0.8653233375593107,-0.6876144044730581,13012520.884438226,10857518.0,4629136.0,5478239.0,5117608.15999139,1255602.3120935026,1710013.978908503,0.09965601210459124,0.06879757908175328,0.051905527448106295,0.11244030450612322,0.07953094708969691,0.11261170740933377,0.12106955411603385,0.05672845051775498,0.08067166296278784,0.08428885526502436,0.04824105158636342,0.08405834791243084,4.580745891297576,0.2670440500782264,0.5610295132758277,0.07142857142857142,0.4382607087592572,0.16008550818003292,0.010094148633993529,466.19774059215985,469.5979983907454,0.0846640419540693,Catherine,REC_0811_00000.csv
left,40,paved,40.32,1.0399999999999991,1.0,20344.0,1.22876189486675,40598.78585622974,312.5,0.10069954126360052,0.18962521717547778,0.5140233308513279,0.11523565542768964,0.44593994896569805,0.2584107023712012,4029.0,3004.5151515151515,35.099999999999994,335.1515151515151,0.11154928441033192,1.0153846153846153,0.0,1.0153846153846153,0.6473746835343299,-1.2570291457981244,12160660.154419126,9946107.0,4032932.0,5717698.0,4804814.823530383,1002484.9910271027,1749060.867458471,0.09852847734218197,0.0683668014805999,0.054135694762428264,0.11018769730405753,0.07822065779785978,0.11006666733905536,0.12151912777738556,0.06457957215907371,0.07909812504412551,0.08444361516505462,0.05065608326861592,0.08019748055956187,5.58610768718387,0.3300018021913568,0.6418847118038523,0.12307692307692308,0.4655409393291702,0.3667755241945306,0.006174287720726219,3610.031994318042,109.41632817076325,0.08812112875657832,Catherine,REC_0811_00000.csv
left,41,paved,41.376,0.9759999999999991,0.9508196721311475,19416.0,1.1477971737693584,41792.3176792099,80.35714285714286,0.025894167753497278,0.18955042527339003,0.5144592952612393,0.11724985650389336,0.44497871925663607,0.26349542445462987,4115.0,2978.6129032258063,-7.900000000000006,336.83870967741933,0.11308576193725159,0.3275862068965517,-1.0,-0.6724137931034483,0.6084959082089608,-1.2812127339155197,11625905.6153295,9739635.0,3464827.0,5319414.0,4725268.125460906,1024399.0158885091,1775577.910279542,0.09766399168264076,0.07005317478367284,0.05427943294670609,0.10932237347975352,0.07886870918483381,0.1083206082068943,0.1205908790625643,0.06377725072289549,0.07841385360148154,0.08664998862861042,0.05347260578099787,0.07858713191894907,4.701353330032451,0.29126864692321064,0.5397696023795758,0.09836065573770492,0.4622624081572236,0.24288425257437904,0.0031078502622484566,3701.1479300346673,130.33369815267054,0.07214799604516511,Catherine,REC_0811_00000.csv
left,42,paved,42.368,0.9759999999999991,0.9836065573770492,22885.0,1.45045516675088,39960.0320695567,164.0625,0.05286725916339027,0.19125549584758184,0.5112359550561798,0.11104795854739292,0.45815284269309514,0.24238190446348096,4094.0,2922.8870967741937,24.5,312.0,0.10674377410757149,0.016666666666666666,-5.0,-4.983333333333333,0.7906611281840599,-0.8962331862550315,11294310.887447096,9541715.0,2682920.0,5414709.0,4798834.907374453,809329.5197707411,1744024.4292459923,0.10056340670680226,0.0732428718842947,0.0551101153852521,0.1120688228055557,0.08259067757795815,0.11020919440014568,0.12223331990574939,0.0635419023391587,0.08004127602514084,0.07577571888157422,0.04750605620823423,0.07711663788013398,4.991499745564061,0.29587658170276704,0.562707835185626,0.09836065573770492,0.4379364525536666,0.23095220217861567,0.003875595505586588,1795.9132310145812,117.5659987291698,0.03695041722813578,Catherine,REC_0811_00000.csv
left,43,paved,43.36,0.9279999999999973,0.017241379310344827,22474.0,1.414596868937272,39167.225393177905,708.3333333333334,0.22825229353082788,0.19319862000985707,0.5184820108427797,0.10078396650698065,0.46441073512252046,0.21701472185029666,4058.0,2890.5593220338983,13.0,278.8728813559322,0.09647713479884838,5.0,-1.6491228070175439,3.3508771929824563,1.1267543236688504,-0.030346317389487787,11559777.265661566,10030407.0,3505144.0,4553389.0,4793132.8106300775,1023738.851978169,1478795.4715148436,0.10224400884234476,0.07283793530077458,0.05387497581255167,0.11568343467629864,0.08236046041174366,0.11201866977829639,0.1227373741519734,0.0586186474965258,0.08151023495540714,0.07479052203843019,0.042165319010454845,0.08115841752519892,4.6555121460935105,0.28168246495500315,0.580443118675706,0.06896551724137931,0.4536935739387771,0.15163009315497483,0.007646309270388115,1895.35599118826,340.9768864690524,0.027712812921102108,Catherine,REC_0811_00000.csv
left,44,paved,44.304,1.024000000000001,1.0,18396.0,1.0588057777355873,36006.41983035803,93.75,0.030209862379080157,0.2002952755905512,0.516486220472441,0.1103814174475386,0.4552303022304342,0.24247379163169402,4064.0,2914.230769230769,-40.69999999999999,310.2076923076923,0.10644582288504685,2.140625,0.0,2.140625,0.811043805509006,-0.9346921438662452,10122445.9965005,8819672.0,1572367.0,4712214.0,4488784.466709107,735750.4982538555,1515498.9388968812,0.10005543090933089,0.07285733139765078,0.056465619638379316,0.11255114161277552,0.08125115481061107,0.1094153358849149,0.12155206546126436,0.0631965157714135,0.07915533852448199,0.07759271479477366,0.047184901676125116,0.07872244951827902,5.002934988183823,0.37296192557688196,0.6592052106890012,0.09375,0.4480980980068302,0.30826697301160916,0.007913587785905837,2481.603178055112,336.37460796081035,0.04800000000000142,Catherine,REC_0811_00000.csv
left,45,paved,45.344,1.0079999999999956,1.0,41406.0,3.066346976497424,49142.58525962996,343.75,0.11076949538996057,0.20146699266503668,0.5158924205378973,0.11321133034557879,0.45684464940850045,0.24781143982330361,4090.0,2883.296875,33.5,313.5625,0.10875137510770548,0.031746031746031744,0.0,0.031746031746031744,0.9326100691682118,-0.5708074492779716,9682357.358786598,7352374.0,3263242.0,5389053.0,4670213.029902269,999392.6551234594,1836315.433581145,0.09739826912551279,0.06823243791016144,0.052766201884778166,0.11339558123025399,0.07932542499634208,0.11259896711121709,0.12464572348277525,0.06591846356438756,0.08329223816052587,0.0766429488812178,0.04729286678119124,0.07849087687163675,4.9766305653365706,0.36483638099651033,0.6475232569442722,0.09523809523809523,0.42762837947747323,0.25437016970252513,0.007031961690379045,12278.102513553682,309.0667890482483,0.05143280405862978,Catherine,REC_0811_00000.csv
left,46,paved,46.368,0.9439999999999955,0.0,22569.0,1.4228852832737509,39656.00051694573,625.0,0.20139908252720104,0.20833333333333334,0.5225694444444444,0.10667462974554519,0.46546110246530037,0.22918054630229537,4032.0,2902.2833333333333,-81.19999999999999,296.19166666666666,0.10205470405485337,0.0,-1.2033898305084745,-1.2033898305084745,1.2959953862490274,0.23511653580121328,12561548.10308001,10144028.0,4758640.0,5678603.0,4844804.872635711,1302588.7072698046,1705334.4408230027,0.0979286423907613,0.06900314120491338,0.04892125165817718,0.11527705197631749,0.082492520257039,0.115047347777899,0.12000895846373832,0.06009636091123655,0.08364104124913144,0.07794437712835296,0.04657826883430862,0.08306103814812475,4.966444494701706,0.2771256067618998,0.5963675338845971,0.0847457627118644,0.43725202708328526,0.24382673413072461,0.007088148935122757,12259.055143036103,265.7781421286091,0.04233202097703522,Catherine,REC_0811_00000.csv
left,47,paved,47.328,0.9919999999999973,0.03225806451612903,19095.0,1.1197910579587305,40579.51512770945,101.5625,0.03272735091067017,0.19861660079051383,0.5286561264822134,0.1079008166033491,0.4608157211307834,0.23415176968896123,4048.0,2878.746031746032,49.900000000000006,298.3253968253968,0.10363032846091497,12.0,-0.5833333333333334,11.416666666666666,0.9618649022902517,-0.6079471472902132,11331657.933513215,9753074.0,3213151.0,4791626.0,4818322.800100222,971161.6493122146,1756917.3031837312,0.10096988878535076,0.07284917926125242,0.053738124514090685,0.11351944464355622,0.08308291198217918,0.11138006517387973,0.12172407518705786,0.06210817099596936,0.0799841200699158,0.07484519825100215,0.04579264560737976,0.08000617552836609,4.72398052729631,0.3264737903888619,0.6264371512911467,0.11290322580645161,0.47038502585260206,0.2613029310080014,0.007237653263998064,12004.734940847296,261.9615633582246,0.03330665599145793,Catherine,REC_0811_00000.csv
left,48,paved,48.336,0.9280000000000044,0.017241379310344827,19061.0,1.116824678090938,39245.981730617976,1653.6458333333333,0.5328684058532194,0.19729533929002657,0.5092972711905337,0.10357609368196713,0.4620562825125467,0.22416337057180657,4141.0,2958.4406779661017,-48.599999999999994,293.6779661016949,0.09926782317757865,21.0,-1.912280701754386,19.087719298245613,1.067027265951575,-0.2578374986791112,11371407.440352974,9340129.0,3103195.0,5695707.0,4555763.371488865,1008881.2876114838,1642550.2113023514,0.10269954396498385,0.07457547494099044,0.05333776382427756,0.11172857895822354,0.08420033457845406,0.11092650732176822,0.11920503242661044,0.058316337053417974,0.08062538671311044,0.07748012008158214,0.04525975662854917,0.08164516350803218,5.026080049675067,0.26845033276472846,0.5991521540367272,0.06896551724137931,0.4365774060146878,0.33250942007874545,0.004627215783310039,2015.6014817749253,789.6266776618135,0.03330665599145472,Catherine,REC_0811_00000.csv
left,49,paved,49.28,1.088000000000001,1.0,19999.0,1.1986618638553275,43177.11128595798,142.85714285714286,0.04603407600621738,0.1762295081967213,0.5183220829315333,0.12028610138981315,0.45100226449058534,0.26670842002443207,4148.0,3027.2028985507245,36.69999999999999,353.768115942029,0.11686303422588414,0.47058823529411764,0.0,0.47058823529411764,0.42764845415348,-1.4863184724179392,11313727.292519694,9834930.0,2232101.0,5127602.0,4396669.54876372,858917.0198031319,1495623.3883701225,0.09611876846182203,0.07355525021902842,0.05310780985939094,0.1090976986456144,0.08324037591501218,0.10775719681918067,0.11842376135237484,0.06495210099723761,0.07735174289174969,0.08493515322414627,0.055334000392575536,0.07612614122186742,4.801983116421021,0.25982007930781453,0.5684565800850224,0.08823529411764706,0.4642268540095051,0.2676771880526031,0.0022016036619974914,532.0112780758916,884.416039769612,0.08053156730955323,Catherine,REC_0811_00000.csv
