foot,step_id,surface,contact_time_sec,stance_duration,time_to_peak_frac,impact_mag,impact_mag_norm,accel_mag_strike,loading_rate,loading_rate_norm,heel_pmax_ratio,fore_pmax_ratio,heel_mean_ratio,fore_mean_ratio,heel_fore_ratio,total_pmax,total_p_mean,midstance_diff,heel_impulse,heel_impulse_norm,rise_slope,fall_slope,slope_asym,heel_skew,heel_kurt,gyro_mag_strike,gyro_x_strike,gyro_y_strike,gyro_z_strike,gyro_x_std,gyro_y_std,gyro_z_std,pressure_01_mean_ratio,pressure_02_mean_ratio,pressure_03_mean_ratio,pressure_04_mean_ratio,pressure_05_mean_ratio,pressure_06_mean_ratio,pressure_07_mean_ratio,pressure_08_mean_ratio,pressure_09_mean_ratio,pressure_10_mean_ratio,pressure_11_mean_ratio,pressure_12_mean_ratio,accel_spec_centroid,accel_hf_frac,accel_spec_entropy,accel_zcr,accel_jerk_ratio,gyro_hf_frac,heel_ripple_frac,impact_mag_roll3_std,loading_rate_roll3_std,stance_duration_roll3_std,source_user,source_recording
right,14,brick,15.792,1.072000000000001,1.0,12711.0,0.5882351687717408,30167.529182881386,879.6875,0.2275445190754551,0.19375379017586417,0.47634930260764097,0.11450911236312006,0.4782386006314793,0.2394392928798853,6596.0,4536.5,-97.89999999999998,501.4264705882353,0.11053157072373752,1.5223880597014925,0.0,1.5223880597014925,1.4391827842379399,0.48348567694956435,10841567.2928287,7429343.0,1766622.0,7695680.0,3852279.846371878,1485038.1568402008,1957923.4772144328,0.09115280632257311,0.10221341925947057,0.05162051594582504,0.10650540388093957,0.08847842013472423,0.09643026173326158,0.098044618486654,0.05896292166155562,0.08461109562308335,0.07792675099357499,0.05554619070156444,0.08850759525677349,4.242492053265272,0.24318780691627903,0.5643575094136992,0.08955223880597014,0.4967293950087704,0.19384257689983173,0.003458237989688331,2678.429452745278,184.61343849366315,0.057688820407423236,Catherine,REC_20260519_154549.csv
right,15,brick,16.88,1.0720000000000027,1.0,14151.0,0.7178412958126313,34384.5675558091,477.7777777777778,0.1235844713826036,0.2178517397881997,0.5123550176500252,0.14801031939910048,0.43570759963079775,0.33970102776367345,5949.0,4508.926470588235,-59.60000000000002,648.3382352941177,0.14378993304132,0.05970149253731343,0.0,0.05970149253731343,0.653816361717258,-1.3555620989146027,11094440.120445961,8266228.0,2703689.0,6888116.0,4260560.4584711185,1661192.3671805135,2139691.715659951,0.08224208840633124,0.09221902957205805,0.0595061430430486,0.0976526954700969,0.08324663168159893,0.086416813706145,0.10445945461127763,0.07212816406670429,0.07617242920089887,0.09343883212059738,0.07588215533239619,0.07663556278884696,4.118635405666041,0.17580054445491394,0.5185605893885991,0.08955223880597014,0.48444277326035373,0.16923417512635514,0.0013246561207308205,1864.5500797779723,203.33532657043884,0.01847520861406925,Catherine,REC_20260519_154549.csv
right,16,brick,17.968,0.9439999999999991,0.0,18478.0,1.10728970671953,32577.25946116401,453.125,0.11720765636213494,0.22131147540983606,0.5227117486338798,0.13698844230300075,0.4520195474505977,0.3030586687579108,5856.0,4372.266666666666,90.60000000000002,577.4416666666667,0.13206917845816055,0.0,-0.1864406779661017,-0.1864406779661017,0.9473139866665129,-0.8238648183135133,11681303.670948418,8618086.0,2744006.0,7392691.0,4679834.471734045,1576525.2106752507,2320984.2461406467,0.08121645523298367,0.09139043059282752,0.05550515369602342,0.10014637716516224,0.08083907660404976,0.09475253110514761,0.1047740302512808,0.06837414613320322,0.0848911319834106,0.08931675408636253,0.06861429616979751,0.08017961697975116,4.819283646151117,0.33256047539191375,0.5838916956662326,0.1016949152542373,0.481469347772247,0.16740424962256215,0.0037562303613703466,3001.5223359710917,239.47677363895957,0.0739008344562734,Catherine,REC_20260519_154549.csv
right,17,brick,18.928,1.024000000000001,0.015625,15692.0,0.8565378525973623,33349.16517695758,631.25,0.16328239024242247,0.22167403878870365,0.5,0.1346711982186313,0.43985467781630666,0.30617202683201755,5878.0,4463.292307692308,-20.100000000000023,581.6461538461539,0.13031773716539016,9.0,-1.126984126984127,7.8730158730158735,0.9329614566773942,-0.8527521631456016,11496950.531250885,8504465.0,2664594.0,7263187.0,4442128.109428638,1425797.0600977931,2290961.5291396426,0.08429100284715663,0.09087117477956941,0.06177226883225214,0.09838890918742287,0.08003405557815203,0.09000944456317171,0.10363512274485202,0.06539842958285362,0.08055109370799064,0.09206036247819821,0.06927276863577765,0.08371536706260296,4.794619040642889,0.20176900913653634,0.5525064214714643,0.09375,0.5255307509066058,0.18166638790508527,0.0015368286793330547,2193.1486497727456,96.51424598730294,0.06466323014923944,Catherine,REC_20260519_154549.csv
right,18,brick,19.968,0.9439999999999991,0.03389830508474576,16769.0,0.9534724351133618,34427.286416445895,397.81746031746036,0.10290152206068115,0.21250215257447908,0.528327880144653,0.1256995509242781,0.4630023703322252,0.27148792096684365,5807.0,4401.633333333333,-29.30000000000001,532.925,0.12107437390665586,3.5,-0.3157894736842105,3.1842105263157894,1.1838615102035919,-0.22833038547330187,12062676.377446134,8648630.0,2544864.0,8014551.0,4644631.446872737,1359627.5032359941,2462331.015014631,0.08508583934751493,0.09609311694901135,0.05569144787162341,0.1044006391566767,0.0864830479594696,0.09363569584018054,0.10136388764776712,0.061249990533817,0.08238987042688699,0.08649062090587585,0.06444956039046112,0.08266628297071542,4.837408156053618,0.37348942653118106,0.6141023372382258,0.06779661016949153,0.4802860972510834,0.09222495817171446,0.0038947272170719444,1404.8965560970476,121.98236904936581,0.046188021535169974,Catherine,REC_20260519_154549.csv
right,19,brick,20.928,1.0719999999999992,1.0,13515.0,0.6605985897029046,31261.73112609089,440.1041666666667,0.11383962025977475,0.21554227156276687,0.4987190435525192,0.14295956887697253,0.43305054223858497,0.33012213340708735,5855.0,4409.823529411765,-35.80000000000001,612.2132352941177,0.13882941827737538,0.7014925373134329,0.0,0.7014925373134329,0.6842710385668831,-1.3176782998586096,10739684.76546947,7936361.0,2800206.0,6671870.0,4179184.8665618347,1366970.3843025377,2184783.740352207,0.08659143356410154,0.09038310189816852,0.06047994450891725,0.09697933757519976,0.07820774474101938,0.08963610655355021,0.10456934384462496,0.06920378299785239,0.07784425147064708,0.09354782771085944,0.07375578587912014,0.07880133925593928,5.517929974946847,0.33121486151866164,0.6746845821169452,0.1044776119402985,0.5254629268960794,0.2905102279983696,0.0022192882701967823,1657.6979017098834,124.37553733029445,0.06466323014923776,Catherine,REC_20260519_154549.csv
right,20,brick,22.016,0.9600000000000009,0.016666666666666666,15596.0,0.8478974441279695,33748.59555596351,475.0,0.12286595701410008,0.21584931274393349,0.5029696249787884,0.12582278481012657,0.45429262844378254,0.2769641788841702,5893.0,4403.2786885245905,33.80000000000001,533.7213114754098,0.12120997766195085,7.0,-1.0,6.0,1.1882252454710969,-0.22295420014333667,10779301.325201416,8337088.0,2290744.0,6437297.0,4484128.7410955075,1450493.251399423,2341528.783172506,0.08848473566641847,0.09616157855547282,0.059456440804169765,0.10087862993298585,0.08568503350707371,0.09166790766939686,0.10038719285182426,0.06043186895011168,0.0798994787788533,0.08847356664184661,0.06539091586001489,0.08308265078183172,4.354975577796909,0.32228604710636294,0.5984310199830027,0.06666666666666667,0.5175802323581099,0.09523161067287139,0.0047951300151546,1647.978863133065,38.65020299587958,0.06974238309664982,Catherine,REC_20260519_154549.csv
right,21,brick,22.992,0.9759999999999991,1.0,15439.0,0.8337667761103169,33263.4651682593,521.875,0.13499088698259679,0.21819727891156462,0.5010204081632653,0.13305805320165887,0.4469744341663612,0.29768604875523846,5880.0,4488.096774193548,-105.5,577.0564516129032,0.12857486828959758,1.1639344262295082,0.0,1.1639344262295082,0.9585290543836357,-0.7582896375974104,10619678.940487279,8131838.0,2532647.0,6343224.0,4531280.960327343,1545282.8225090632,2239776.6925370763,0.0864401175870223,0.09597429760441599,0.06082756538801561,0.09694819989793792,0.08632152431880746,0.08921448131616964,0.1007467782162135,0.06257052705723383,0.07851593102903019,0.09016682119728889,0.07048752614442505,0.08178623024343963,5.369831768986864,0.39763744186309397,0.6807189589652777,0.09836065573770492,0.5029610230996703,0.20199448881879503,0.00414165011252839,1158.8058508654576,41.03139853220818,0.060575022355201714,Catherine,REC_20260519_154549.csv
right,22,brick,23.984,0.9759999999999991,0.03278688524590164,18602.0,1.118450234325829,35740.82680912684,625.0,0.16166573291328956,0.2214396151863941,0.5067857756399244,0.12749493649252563,0.44709771024010303,0.2851612378511026,5821.0,4435.596774193548,15.0,545.1048387096774,0.12289323544491595,5.5,-0.6101694915254238,4.889830508474576,1.1250328159587062,-0.3641817392672726,11134536.217826497,8429940.0,3554013.0,6346889.0,4471866.070804744,1458668.4530995258,2360385.4811814064,0.08489965709963747,0.0928630907576898,0.06467471737083057,0.09858658143247263,0.08419422051075064,0.09143039995345574,0.1023573945390481,0.060863905282410986,0.08002341758573418,0.08998316406491472,0.06663103121011466,0.08349242019294054,6.004714583664016,0.4214738815513188,0.6993900721675165,0.08196721311475409,0.4992925538029499,0.17274808816412623,0.003743451879811851,1782.5662213038115,76.73768223630223,0.009237604307027717,Catherine,REC_20260519_154549.csv
right,23,brick,24.976,1.0399999999999991,1.0,18047.0,1.0684978728621521,33527.13453309125,1203.125,0.31120653585808244,0.20955518945634266,0.49489291598023066,0.12585322932706136,0.4485118191509162,0.28060181237866405,6070.0,4477.19696969697,-78.60000000000002,544.2954545454545,0.12157058495067596,0.2,0.0,0.2,1.1362001132175914,-0.40132798140104686,10965904.999103403,8624195.0,2164906.0,6417750.0,4505723.307147157,1546313.0109119182,2126959.040882512,0.09000829117243947,0.09152439127565609,0.05913805648149714,0.10074620551955193,0.08354456082167211,0.09112167718573919,0.10111846224132388,0.06061354676052048,0.08157498434829692,0.08818084908374084,0.06523968256654088,0.08718929254302103,5.754223015223311,0.3406903358575756,0.6745102702790153,0.1076923076923077,0.48131817954405615,0.29417263769227137,0.002964004906253332,1688.8979641569076,367.1886081543561,0.03695041722813502,Catherine,REC_20260519_154549.csv
right,24,brick,26.032,0.9600000000000009,0.05,18023.0,1.066337770744804,33900.6019268095,537.5,0.13903253030542903,0.21651221566975568,0.5083403538331929,0.13465785284040468,0.4494978026573539,0.29957399578877475,5935.0,4468.88524590164,-118.30000000000001,580.8524590163935,0.12997703611859046,1.6666666666666667,-0.22807017543859648,1.4385964912280702,0.8766956742208671,-0.9113041893972729,11401528.64572444,8487361.0,2495995.0,7192327.0,4537574.0924905455,1425814.6698393472,2370126.6549133714,0.08039559504332322,0.0896104944204371,0.061173432329916864,0.09890976588579686,0.08320188406541404,0.09463613619856052,0.1051092801960367,0.06517560399410129,0.08313952208714535,0.08988928914681477,0.0694822488463034,0.07927674778614976,4.778727102634813,0.36614757073466847,0.63185648788925,0.06666666666666667,0.48055963580429,0.10870212097445574,0.004550958652022761,327.57747175288563,361.69540736417053,0.042332020977031835,Catherine,REC_20260519_154549.csv
right,25,brick,27.008,0.9760000000000026,0.03278688524590164,18372.0,1.097749255701242,35946.73800221656,562.5,0.1454991596219606,0.21555068308315062,0.5073368190251307,0.12967777430177238,0.44868157513385615,0.2890196109858554,5929.0,4485.435483870968,-21.19999999999999,561.1774193548387,0.12511102241304292,5.0,-0.1016949152542373,4.898305084745763,1.0925240834973924,-0.5017427377965027,11462861.322768064,8509352.0,1138652.0,7595498.0,4433276.734683801,1430946.2899965227,2469768.3616501438,0.09058709730777391,0.0929855410162641,0.058745689453679834,0.09842608873882135,0.08476538761655106,0.09045764607313275,0.10286338939290966,0.06393812230984153,0.0820469116890869,0.08780029989536024,0.06573965199193087,0.08164417451464775,5.33294542573571,0.34888205107269027,0.6576538685421363,0.08196721311475409,0.47284726460892756,0.19428502954013252,0.003083513843521604,194.93674187629716,377.2890207895444,0.042332020977031155,Catherine,REC_20260519_154549.csv
right,26,brick,28.0,1.024000000000001,1.0,17367.0,1.0072949795372872,34850.95363114186,475.0,0.12286595701410008,0.21996271818335875,0.49940688018979834,0.1318440166904202,0.4438346755499082,0.29705659326189426,5901.0,4479.7692307692305,95.0,571.0615384615385,0.12747565980390474,0.8125,0.0,0.8125,0.9653634548350101,-0.7700853638938958,10628966.805480484,8543561.0,2406809.0,5847202.0,4566444.4494284345,1399202.7081858837,2084400.8901450953,0.08740148015866203,0.09118601576317462,0.060277830245376654,0.09929426309734363,0.0844548998059653,0.0900458471418514,0.10350464481343476,0.06334117485447396,0.07885364974157323,0.09076360389443139,0.06850284183594622,0.08237374864776689,5.5771506609132295,0.3800968741622802,0.6906284472827788,0.109375,0.5144114933310981,0.2970201540043479,0.0028707726376923136,510.2551649256935,45.069390943296696,0.03330665599145654,Catherine,REC_20260519_154549.csv
right,27,brick,29.04,0.9759999999999991,0.03278688524590164,17678.0,1.035286302807924,35259.42438554549,411.45833333333337,0.1064299408345823,0.2204858162051979,0.5005945303210464,0.13600626924969472,0.4463997375662918,0.3046737213402338,5887.0,4425.080645161291,-57.10000000000002,581.1612903225806,0.13133349127954655,3.0,-0.4406779661016949,2.559322033898305,0.9090589663462981,-0.8395971012727963,10938475.626019971,8620530.0,2149023.0,6381098.0,4548336.377568583,1224099.9664353419,2319025.446433411,0.0833883107652494,0.09118477884492719,0.056259226185052205,0.10026425616445846,0.0850030070529059,0.09047037597273604,0.1045360937471524,0.0661952579686902,0.07947731953126423,0.09106449672869092,0.06981101128100453,0.08234586575786844,4.512290261184458,0.3208355570406589,0.5828033459804206,0.08196721311475409,0.49702517996851997,0.10438752999108461,0.0036106450627662666,514.5195169605784,75.83686270785496,0.027712812921100553,Catherine,REC_20260519_154549.csv
right,28,brick,30.032,0.9920000000000009,0.0,16343.0,0.9151306225304316,33987.24144440087,489.5833333333333,0.1266381574487435,0.21521335807050093,0.5088547815820543,0.13670568712037673,0.443188063261267,0.30845976787898405,5929.0,4419.063492063492,-5.600000000000023,584.2936507936508,0.13222114863093165,0.0,-0.8870967741935484,-0.8870967741935484,0.8731145471694088,-1.013763242868973,11114739.6398828,8851437.0,1992642.0,6420193.0,4709999.908028176,1522997.531657567,2159216.695005116,0.08637900007543077,0.09206504286981727,0.059827371309729496,0.09973383716294122,0.08011106281945826,0.09209018645766359,0.10284805011476252,0.06506082952288246,0.07918793395138667,0.09204708316421277,0.07164485759749425,0.07900474495422072,5.44244631699307,0.36081880960269935,0.6777472136496447,0.08064516129032258,0.49354428864646765,0.17342866787068953,0.003654993820104244,698.5129442847475,41.540607921419856,0.024440403706430337,Catherine,REC_20260519_154549.csv
right,29,brick,31.04,1.0080000000000027,1.0,15123.0,0.8053254315652326,34394.01036517841,380.55555555555554,0.09843646848498076,0.214669672273279,0.507022715449974,0.12659714875111902,0.44792348547306743,0.28263119228354683,5767.0,4415.828125,-114.60000000000002,539.9375,0.12227321460796213,0.5079365079365079,0.0,0.5079365079365079,1.0897550354731445,-0.5248400941307909,11015334.1427013,8553335.0,2290744.0,6552140.0,4432335.452187245,1347794.8821996613,2208885.1206716597,0.08767820305506116,0.09466301974785307,0.062449356540569614,0.09912141338155003,0.0839876438805009,0.09041693057290358,0.10275889644142343,0.06096322532933729,0.07973447789025982,0.09001001369363759,0.06563392342178173,0.08258289604512177,5.00630064167936,0.3493378869625931,0.651561803378132,0.09523809523809523,0.5097386264880287,0.20785824749131415,0.004474703398391624,1277.9312709740486,56.19245742170519,0.015999999999999178,Catherine,REC_20260519_154549.csv
right,30,brick,32.064,0.9759999999999991,0.03278688524590164,16568.0,0.9353815798805708,32627.6396173551,812.5,0.21016545278727644,0.20921627985200134,0.4993272788429196,0.12656744912569967,0.4587762687840789,0.2758805494911208,5946.0,4460.709677419355,2.6999999999999886,544.75,0.12212182352005321,5.0,-0.3220338983050847,4.677966101694915,1.1287353557245252,-0.4021048408994683,10554717.837510627,8500800.0,1530828.0,6065891.0,4253030.219436968,1333681.4087913663,2232564.179363249,0.08760720845807841,0.0960464847196309,0.05511201747154366,0.10174498488595768,0.08781330903516002,0.09252108011165588,0.09789415831416959,0.059747472556081045,0.0806504100316744,0.08773376144400573,0.0668199765696186,0.08630913640242403,4.665241466427767,0.31367043233928993,0.6004667308543606,0.06557377049180328,0.5144008699780104,0.1426113806333072,0.00417409990111343,777.5013397630563,224.6249589221591,0.015999999999999178,Catherine,REC_20260519_154549.csv
right,31,brick,33.056,1.0080000000000027,1.0,18329.0,1.0938790727409933,34568.577537989615,535.9375,0.13862836597314582,0.21381411884205181,0.5137971897748435,0.1376241205747744,0.44664439784617654,0.3081290647288106,5907.0,4448.484375,-118.10000000000002,592.7265625,0.1332423613379557,0.49206349206349204,0.0,0.49206349206349204,0.8417518970295402,-1.0526423438832415,11355980.399675626,8845328.0,2568077.0,6642548.0,4516149.434906608,1223577.8953154623,2167845.850266469,0.08507462162323544,0.09030814568164017,0.05889295160219597,0.0997249765545147,0.0816605374723835,0.09281953474322364,0.10294938936365265,0.0665781533738668,0.08213120339441453,0.09075773701014742,0.07104596720090761,0.07805678197981757,5.366627191498829,0.2963670784577002,0.6602073359485698,0.07936507936507936,0.4989086814203363,0.17370559486572018,0.005322468560440188,1605.5934520710246,218.7869466520664,0.018475208614067956,Catherine,REC_20260519_154549.csv
right,32,brick,34.08,0.9600000000000009,0.0,17774.0,1.0439267112773167,36600.476021494585,557.2916666666666,0.14415194518101654,0.20608439646712462,0.48838730781812234,0.11954783218191106,0.4541289021284846,0.2632464739009896,6114.0,4397.0327868852455,-80.30000000000001,505.0655737704918,0.1148650915856073,0.0,-0.13333333333333333,-0.13333333333333333,1.3365008614996279,0.1578796088404637,12123103.10507116,9020036.0,3356093.0,7371921.0,4894397.421633426,1533790.4989955276,2250258.162932569,0.09341992923692953,0.09035154109142157,0.05307975945029995,0.10303147800864221,0.08089285248248633,0.09426998087383819,0.10079077172012424,0.05723308192186236,0.08558304967209632,0.08582166065789523,0.0623147502600487,0.09321114462435548,5.050339852111157,0.36906705636512877,0.6434196515970135,0.08333333333333333,0.4590816623102017,0.2535005691891266,0.006112866326488824,900.3316055765329,153.8798829406965,0.024440403706430438,Catherine,REC_20260519_154549.csv
right,33,brick,35.056,0.9920000000000044,0.03225806451612903,15338.0,0.8246763463664767,34230.81361872662,575.0,0.1487324742802264,0.2185736275012827,0.5082948520608859,0.13575030960030152,0.44642389216935585,0.30408388077207654,5847.0,4421.984126984127,25.19999999999999,580.3333333333334,0.13123822172765942,16.0,-0.16666666666666666,15.833333333333334,0.9043657114684882,-0.8667057213024951,10481388.105509546,8608312.0,2194227.0,5562538.0,4387944.59137008,1330608.3644093128,2033585.9418902309,0.08778290288421846,0.09330006999658991,0.05503526751260836,0.09873826659726832,0.08274314841071845,0.09112120178760522,0.10070893982088051,0.06484196923739613,0.08052120537717393,0.09148374822765044,0.07090834036290539,0.08281493978498483,5.38859137294587,0.32183357441791755,0.6758853275125525,0.08064516129032258,0.5071724240865734,0.19313667622594902,0.0022360372963145412,1591.0270267974763,19.559585926602534,0.02444040370643053,Catherine,REC_20260519_154549.csv
right,34,brick,36.064,0.9600000000000009,0.016666666666666666,15654.0,0.853117690911561,35590.36689892365,1243.75,0.32171480849744627,0.21550094517958412,0.5035229420862691,0.13326801493696158,0.44875586941250417,0.29697219361468086,5819.0,4433.934426229508,-64.39999999999998,570.516393442623,0.12867046252819167,7.0,-0.23728813559322035,6.762711864406779,1.1685517837834256,-0.12425420619130145,11026332.868614117,8611978.0,2083050.0,6563136.0,4575376.676084327,1446731.2025962647,2164426.812513609,0.08799866898362112,0.09504566125633158,0.058605390616334525,0.09894997596775983,0.08503346027285837,0.08961067770917291,0.09990756830702112,0.06463933153399638,0.0801160942063815,0.08831293673974933,0.06862868340296521,0.08315155100380818,5.044434482860219,0.33064955116202865,0.634161880144646,0.08333333333333333,0.4934637110366868,0.2812495238788872,0.004270927690427989,1324.660459639885,391.3151311011417,0.018475208614067335,Catherine,REC_20260519_154549.csv
right,35,brick,37.04,1.0720000000000027,0.0,16391.0,0.9194508267651279,34809.88164300477,442.70833333333337,0.1145132274802468,0.2098115769818367,0.5084026481072823,0.13812838661170307,0.43452010577895306,0.3178872157457796,5891.0,4537.764705882353,-48.89999999999998,608.6176470588235,0.13412278654948018,0.0,0.0,0.0,0.7277319258961178,-1.2046708036944438,10914338.98675339,8521570.0,2299296.0,6420193.0,4342916.509591283,1418640.2632021147,2117816.2566123046,0.08573798968136682,0.08691763241813798,0.06314329418475019,0.09735941510461227,0.07903282258691763,0.090932954810609,0.10578867542972699,0.06533730004407456,0.08027728085867619,0.09414132379248658,0.07279108656762853,0.07854022452101318,5.479513185564495,0.3238007861005829,0.6355587328270559,0.1044776119402985,0.4866842132868418,0.3395249968067706,0.0021251554844711118,540.3446431060011,429.417318255322,0.05768882040742374,Catherine,REC_20260519_154549.csv
right,36,brick,38.128,0.8800000000000026,0.01818181818181818,17410.0,1.011165162497536,37522.8436289149,679.1666666666667,0.175676763099108,0.20995597697257026,0.5071114121232645,0.12801187385271795,0.4546089731928757,0.28158677325170506,5906.0,4319.214285714285,-34.60000000000002,530.9375,0.12292455638426303,1.0,-0.3333333333333333,0.6666666666666667,1.1192183225404309,-0.4308029743224324,11773449.41646729,8978497.0,1958433.0,7359704.0,4881914.50049236,1279309.2437556498,2525124.981485169,0.08450611056905191,0.09349418710413601,0.06074600208371232,0.09896806628189651,0.0829185202335081,0.09523061403363707,0.10476855909639651,0.06303229754088872,0.08399758553969804,0.08676759992723546,0.06497957631182921,0.08059088127801023,4.376710965863928,0.2485515624260586,0.5414336826064434,0.07272727272727272,0.44418370547152947,0.10844518240273256,0.0034217741407446324,881.7658419331167,411.56907792347295,0.09644342037346698,Catherine,REC_20260519_154549.csv
right,37,brick,39.024,0.9919999999999973,1.0,15338.0,0.8246763463664767,35327.789854447445,710.4166666666667,0.1837600497447725,0.2124467178175618,0.504006820119352,0.1343154089471306,0.4433981021238138,0.30292283233444145,5865.0,4390.873015873016,-80.60000000000002,570.4920634920635,0.12992679620424763,1.032258064516129,0.0,1.032258064516129,0.7933894236182168,-1.1241280461522465,11175443.167885737,8836776.0,2246762.0,6461732.0,4490213.644720448,1491030.5800794815,2222500.761635847,0.08314505196565747,0.09248621780388612,0.06446995029371892,0.09849073655671035,0.08098689561680976,0.09167284229552643,0.10441211025756891,0.06463985539990962,0.07976140985088116,0.09150293718933575,0.06967555354722096,0.0787564392227745,5.3785589040850255,0.3402972870975618,0.6679367195359579,0.0967741935483871,0.4770802403237812,0.25314037951222557,0.0037111280851513015,1036.046491878309,146.3767158390113,0.09644342037346663,Catherine,REC_20260519_154549.csv
right,38,brick,40.032,1.0080000000000027,0.09523809523809523,17961.0,1.0607575069416546,35871.55441293282,447.91666666666663,0.11586044192119085,0.21372516279846385,0.5104357989647688,0.14924711820669512,0.43510470870138523,0.3430142566189658,5989.0,4408.0625,-85.5,638.2890625,0.14480036580697303,4.166666666666667,-0.45614035087719296,3.710526315789474,0.6144789464377962,-1.480791928928702,11116720.526711868,8917410.0,2334726.0,6213721.0,4439379.47544921,1520949.2888092825,2105704.3328267075,0.07946731131874832,0.08738603978505295,0.06237150675608615,0.09771866891633228,0.08046335549915637,0.09035290447900864,0.1056941116420196,0.07207673439294475,0.079183740021835,0.09473408101631953,0.07717038381375037,0.07338116235874605,5.031431919231461,0.3585149862719059,0.6483123581559612,0.09523809523809523,0.5128297337447077,0.2141755355678034,0.0034996159283455543,1383.0469984783663,143.3872233964142,0.06974238309664883,Catherine,REC_20260519_154549.csv
right,39,brick,41.056,0.9759999999999991,0.0,18013.0,1.0654377281959089,35208.33678264283,825.0,0.21339876744554223,0.2100783112019067,0.517364657814096,0.1365392106537354,0.4445742910919132,0.30712349631894786,5874.0,4430.370967741936,-70.10000000000002,585.3870967741935,0.13213049224014592,0.0,-0.7540983606557377,-0.7540983606557377,0.7650390630329393,-1.1585788852455523,11312826.267010821,9090896.0,2460565.0,6267477.0,4673281.987690323,1338836.940169947,2059837.6916706655,0.08026343093675255,0.08752270799430616,0.0645726164342169,0.10041757225601874,0.08058380023518018,0.09379175267490161,0.1048699773921211,0.0655118809682434,0.0822584579315065,0.09172027391575016,0.07102732968549201,0.07746019957551067,5.64168071423328,0.3763761711243402,0.6804704669865776,0.08196721311475409,0.5067268248296322,0.17357050936107604,0.002488209499008019,1529.6218486933356,193.31642047670405,0.01599999999999932,Catherine,REC_20260519_154549.csv
right,40,brick,42.048,1.0719999999999956,1.0,14122.0,0.7152311724208357,35258.47428633292,515.625,0.1333742296534639,0.20392548236859614,0.4963406520292748,0.14803190750527492,0.43256364634525457,0.3422199455639066,6012.0,4446.676470588235,60.19999999999999,640.7573529411765,0.14409803752968178,1.0895522388059702,0.0,1.0895522388059702,0.51217653699768,-1.553547348412569,11090457.672028914,8781798.0,1744631.0,6544810.0,4402051.665483228,1381260.0338895014,2289049.0111121964,0.08168691752597777,0.08974978007368359,0.061251959493871834,0.09703876656061698,0.07979852765118693,0.08987214509183991,0.10493627097567913,0.06961577384298914,0.07610442696792714,0.09754806960915952,0.07841613366228578,0.0739812285447823,5.061412139919187,0.30019827177780656,0.609377030106281,0.1044776119402985,0.4750085454793307,0.3147212249425824,0.0022164723226854575,2231.6102556972965,201.03447022237862,0.048880807412859446,Catherine,REC_20260519_154549.csv
right,41,brick,43.136,0.8959999999999937,0.03571428571428571,18210.0,1.083168566409142,35551.84526856517,927.0833333333333,0.23980417048804617,0.20867943719274454,0.5043227665706052,0.1339484645936259,0.4520286415447706,0.296327383450305,5899.0,4346.526315789473,64.19999999999999,560.7456140350877,0.1290100584455423,2.5,-0.18518518518518517,2.314814814814815,0.9515357417278372,-0.8086333798081324,11447219.271243518,8935736.0,1827708.0,6917437.0,4774643.330952275,1441521.6788751204,2385437.4653497366,0.08498821402047209,0.0933837062869321,0.05566857179760406,0.10030998740676161,0.0866834576511996,0.09136152281313573,0.10371661984565211,0.0648027059317382,0.08028996738674159,0.09056637282443734,0.0691457586618877,0.07908311537343797,4.777270130146377,0.3300248862674852,0.6030462589791934,0.07142857142857142,0.475717642344705,0.12216907293306675,0.0045927263987833615,2305.4440642386776,214.2552440582994,0.08812112875657796,Catherine,REC_20260519_154549.csv
right,42,brick,44.048,1.0079999999999956,1.0,16530.0,0.9319614181947695,35746.47637180481,836.3095238095239,0.21632414737444938,0.21293031066330814,0.490512174643157,0.15207883984779139,0.43111859294720045,0.35275407355566657,5955.0,4455.234375,-74.80000000000001,658.2578125,0.14774931172953162,1.0634920634920635,0.0,1.0634920634920635,0.6049824865203562,-1.3946210932478669,10807772.235954689,8754920.0,1830152.0,6067113.0,4480609.105898288,1386223.1029217422,2244212.53050714,0.08317814368632402,0.09062023252143721,0.05960685289424308,0.09511634839637365,0.08181037052624196,0.0877128377785961,0.10222175460746664,0.07389131464043348,0.07585880372455153,0.09453767513633893,0.07818752520735792,0.07725814088063548,5.339653616002632,0.35649085441241185,0.6615790840672565,0.09523809523809523,0.5167981901882773,0.24213766796304817,0.0032882347499879993,2054.775251294738,216.1698438635117,0.08908422980528094,Catherine,REC_20260519_154549.csv
right,43,brick,45.072,0.9599999999999937,0.0,17788.0,1.0451867708457698,35869.458666113154,605.2083333333334,0.15654631803770208,0.2184931506849315,0.5106164383561644,0.13418403324781325,0.4484328817272059,0.2992288003745734,5840.0,4370.55737704918,-97.89999999999998,566.0491803278688,0.12951418583367091,0.0,-1.0333333333333334,-1.0333333333333334,1.014598948929479,-0.6401836424725267,11064051.653343318,8600982.0,3314554.0,6119647.0,4591911.794229494,1427787.6943431953,2243606.8688609726,0.08420728871284752,0.09062879776747536,0.05919641115662181,0.10057613539181708,0.08319830160087621,0.09257925612518943,0.10434952213770236,0.06548288847879252,0.08145039084184784,0.09079008567013248,0.06870114476902073,0.0788397773476767,4.729153275654484,0.3344090401800769,0.6147148757152453,0.08333333333333333,0.5059136394691878,0.11467092773736523,0.0045083985604341,873.9801675858289,165.95740435423843,0.05619015334854784,Catherine,REC_20260519_154549.csv
right,44,brick,46.048,0.9600000000000009,1.0,16578.0,0.9362816224294659,37824.61473696725,587.5,0.1519657889384922,0.20441426146010186,0.500169779286927,0.12372907002063013,0.4540656842447124,0.27249156744002423,5890.0,4442.016393442623,-55.19999999999999,529.9344262295082,0.11930042109070242,0.13333333333333333,0.0,0.13333333333333333,1.1437148637600467,-0.3692133855833313,11194636.249482473,8824559.0,1740965.0,6664539.0,4524726.683620815,1236997.3836012841,2353490.4859108995,0.0895989489339873,0.09386521406981765,0.0581260172053011,0.10175928078741378,0.08608186357546971,0.09261043020633813,0.09933090495750344,0.05922579835623314,0.0797488956056731,0.08876488671885091,0.06450327166439698,0.08638448791901478,5.178963398716305,0.3860956949239173,0.6610866733042723,0.08333333333333333,0.4924168751301625,0.2265192435324302,0.004627394934177573,712.8543563262783,138.8209424926455,0.027712812921099395,Catherine,REC_20260519_154549.csv
right,45,brick,47.024,1.0079999999999956,0.047619047619047616,14955.0,0.7902047167437953,33755.28962992319,505.20833333333337,0.13067980077157576,0.20723014256619143,0.5047522063815343,0.13294967745639025,0.44461506447284393,0.2990219812141382,5892.0,4355.03125,-68.89999999999998,560.4453125,0.1286891598079807,7.333333333333333,-0.75,6.583333333333333,0.9763628469830086,-0.7987786951923623,10962982.898831733,8429940.0,1585806.0,6827029.0,4396126.685869118,1702939.760611832,2243859.1804393483,0.08733074533047265,0.09273039085540431,0.06251749054613558,0.09861080216129334,0.08254461434691197,0.09179397392383809,0.10264708203873393,0.06443337806129405,0.07893528318539621,0.08932556454101219,0.0685162993950962,0.0806143756144115,5.138045672377785,0.25899919112542474,0.6389064408624818,0.07936507936507936,0.45899770921547867,0.1528934846985528,0.002631741429788145,1421.5084710733706,53.36275772518543,0.027712812921099395,Catherine,REC_20260519_154549.csv
right,46,brick,48.048,1.024000000000001,1.0,17358.0,1.0064849412432817,37608.17627857006,366.07142857142856,0.09468992927778389,0.21179537308569565,0.4863147605083089,0.12429921456523552,0.4573318808803531,0.2717921486818307,6138.0,4434.584615384615,-105.30000000000001,532.0461538461539,0.11997654797257917,1.6875,0.0,1.6875,1.158873981355393,-0.35473346118510785,10980000.27135669,8602204.0,3268129.0,5990144.0,4497728.73619512,1458146.380351622,1989552.7022375881,0.08679331686603203,0.09157045322083762,0.05396741694651828,0.10360175959590354,0.083237351169826,0.09472398767727791,0.10485762260275874,0.061759318364741474,0.08419832921650801,0.0877924564957953,0.06253989620049402,0.08495809164330716,5.281843279281193,0.3109821501289207,0.6374308553638658,0.109375,0.5195046432762106,0.23687397575340052,0.0027444917992776076,1225.8968145810716,111.92379022828996,0.033306655991456206,Catherine,REC_20260519_154549.csv
right,47,brick,49.088,0.9759999999999991,0.0,14989.0,0.7932648614100386,34593.4376869371,1052.0833333333335,0.27213731707070415,0.22327630018634592,0.5056750804675588,0.1334724978055779,0.4491447285923981,0.29717035358248,5903.0,4373.258064516129,-22.80000000000001,563.4596774193549,0.12884208274631007,0.0,-2.0491803278688523,-2.0491803278688523,1.0132629112100895,-0.6819896607550531,10845781.182483584,8715825.0,1869247.0,6178291.0,4298944.067744134,1241039.1496535623,2215527.7192880404,0.08393756776891813,0.09055402704118137,0.059227268368603904,0.10231539193485333,0.08256190483215438,0.09361146557892175,0.10283910275796447,0.0648147465165854,0.08010193920528727,0.08952504591689964,0.06865775128899249,0.0818537887896379,4.1475967512465965,0.23022470270261775,0.5343726025508362,0.06557377049180328,0.5168683981681681,0.05841826740026377,0.0034067296835688593,1377.662634077497,362.6393243446302,0.024440403706430112,Catherine,REC_20260519_154549.csv
left,15,brick,16.304,1.056000000000001,0.030303030303030304,13342.0,0.6450278536070199,30870.444927146742,531.25,0.13741587297629615,0.2144748455428067,0.5383936451897617,0.11197755608737352,0.46235445965204763,0.24218984752860678,4532.0,3330.3582089552237,51.400000000000006,359.2835820895522,0.1078813627685606,23.0,-1.09375,21.90625,0.9893917098070673,-0.6648217414000177,8939641.300412618,8271115.0,1598023.0,2992017.0,4402623.773122966,586242.244191438,1306948.4154142826,0.0985327202488191,0.07987128810490557,0.058413330106572736,0.11312484874559682,0.07748707054953527,0.1113590936388,0.11096471178753574,0.05791587118054622,0.08051215861321001,0.08085276112112005,0.05406168490682729,0.07690446099653123,5.158914580402632,0.3039017447189955,0.6390777554144591,0.10606060606060606,0.45330526871052584,0.32669393525374857,0.004814792892154134,1920.5384661599473,568.478188300993,0.05143280405863008,Catherine,REC_20260519_154549.csv
left,16,brick,17.376,1.0559999999999974,0.030303030303030304,44790.0,3.475481661372249,46616.65073769243,562.5,0.1454991596219606,0.20424693520140105,0.555385288966725,0.11469898179995901,0.46113755950889507,0.24873051312939218,4568.0,3276.194029850746,69.0,362.14179104477614,0.1105373453907656,11.5,-0.25,11.25,0.9301979896405088,-0.8225095432168694,7884709.404673897,6988298.0,2171015.0,2935818.0,4357031.725303411,682043.7011740113,1435217.0822340015,0.09152411106808502,0.06895514908544224,0.05961139837361336,0.11204300585408078,0.07469078153117242,0.11601558051069454,0.1159882462814059,0.06147012596523998,0.08943304252750507,0.07958360857383659,0.053228855834719035,0.07745609439420514,4.103782199881408,0.15639033128155488,0.4899677628463968,0.09090909090909091,0.42714154277059374,0.22505512316001677,0.004246675783584898,19212.69902954814,316.1248105311142,0.009237604307034427,Catherine,REC_20260519_154549.csv
left,17,brick,18.448,0.9920000000000009,1.0,48628.0,3.820917991638178,50024.615400820425,1354.1666666666667,0.3502757546454608,0.20705521472392638,0.5552147239263804,0.12186855075630659,0.45538640833272637,0.26761569631033416,4564.0,3268.809523809524,90.1,383.5079365079365,0.11732342729502027,0.2903225806451613,0.0,0.2903225806451613,0.7221502358344323,-1.2413666675347108,8008602.544552826,7275404.0,1299921.0,3084869.0,4749548.686790945,834112.7112483244,1707489.9061888144,0.09424332920581736,0.0704688372544735,0.057605555150897124,0.11426906548182679,0.07707771869764732,0.11144778692305825,0.11757593415398061,0.06373370238181951,0.08212299997572049,0.08419646975987569,0.05813484837448709,0.06912375264039625,4.30195635044416,0.15908743926443702,0.5080941650152602,0.0967741935483871,0.45061084684403074,0.19973322106748578,0.004551574680049099,19359.78970271458,466.3518903662213,0.03695041722813489,Catherine,REC_20260519_154549.csv
left,18,brick,19.456,1.0079999999999991,1.0,18119.0,1.0749781792141968,35097.073111585814,103.17460317460318,0.026687676544416058,0.2113750272390499,0.5295271300937023,0.1286990197264916,0.4472031949655089,0.28778644959441424,4589.0,3227.734375,-18.400000000000006,400.4296875,0.12405905845334624,0.36507936507936506,0.0,0.36507936507936506,0.727559832951128,-1.2230863876900038,11443966.031615002,9312029.0,3732386.0,5506339.0,4593056.659225375,919909.0487459803,1815473.8976988373,0.08769696236233814,0.06459639356166041,0.060723708096333054,0.11215297107588043,0.07137359312598329,0.11363911412319981,0.11825729154060269,0.06836258017669128,0.08544112307878494,0.08408568316592037,0.060336439549800315,0.07333414014280527,4.587700779660792,0.18353082972060442,0.5329728922771388,0.09523809523809523,0.4652580623058678,0.21539530051359881,0.0026591708522530465,16617.618993104883,632.810802978801,0.033306655991456255,Catherine,REC_20260519_154549.csv
left,19,brick,20.48,0.9759999999999991,0.01639344262295082,49064.0,3.8601598467700033,50882.812658106865,187.5,0.04849971987398687,0.21025420077552778,0.5299439896596295,0.12275496557531329,0.44848184655010154,0.27371222830870107,4642.0,3256.2903225806454,61.69999999999999,384.5967741935484,0.11810887116746743,8.0,-1.1333333333333333,6.866666666666667,0.7950042392543618,-1.0226633612996814,8090758.481446594,7067710.0,1718974.0,3543018.0,4592281.502968421,935295.762739504,1829339.0803669216,0.09277329238694339,0.07048888008321362,0.05757095448016246,0.11137748278765663,0.07375798702263608,0.11048590816781415,0.11878745851701421,0.06349992570211502,0.08237158848878103,0.0837733419188667,0.059255039873198266,0.0758581405715984,4.667908146322314,0.29666375277439766,0.5520878086775413,0.09836065573770492,0.46781832571524545,0.23257860483002862,0.00440477739807225,17741.581111426724,699.190368280938,0.015999999999999452,Catherine,REC_20260519_154549.csv
left,20,brick,21.472,1.0399999999999991,1.0,17391.0,1.0094550816546353,33976.60314098512,1392.361111111111,0.36015532721238397,0.20665801988759186,0.5157803718115003,0.12073164624958459,0.44598919283103217,0.2707053179542935,4626.0,3328.318181818182,11.900000000000006,387.5984848484849,0.1164547569297443,0.5076923076923077,0.0,0.5076923076923077,0.7350111658643487,-1.1039433363611113,11186722.648591053,9514836.0,2781880.0,5183802.0,4466650.589992534,781409.4047513661,1675906.392434192,0.09215683596684102,0.0655531731832894,0.059830927440831426,0.11022948162917844,0.07140288342915932,0.11209592614342487,0.1173765984276343,0.06265790803436078,0.08670772844598007,0.0849414346129859,0.05807373821522381,0.0789733644710906,4.4085644158860395,0.2014743628508188,0.5209721653269247,0.09230769230769231,0.45376990827417696,0.22484174130845597,0.0038345890982136536,18079.924124103327,721.2030368145515,0.031999999999999744,Catherine,REC_20260519_154549.csv
left,21,brick,22.528,0.9440000000000026,0.01694915254237288,23890.0,1.594392734181544,39224.017820717956,218.75,0.05658300651965135,0.21180096873623955,0.5367679436371643,0.12223860854758031,0.4520294548421591,0.27042177724940886,4542.0,3288.65,-32.5,386.23333333333335,0.117444341396419,2.0,-0.5172413793103449,1.4827586206896552,0.7949566369101304,-1.1102685594517772,11639149.898799783,10166019.0,2985909.0,4817283.0,4982901.9758121725,835752.912694156,1588301.0320381073,0.0949072314374186,0.0678545907895337,0.0573538280652142,0.11299469387134539,0.0737891434681911,0.1128375878653348,0.11524992524794875,0.06312620680218327,0.08455343884775414,0.08330165873534733,0.059112401745397045,0.07491929312433167,4.28749009039242,0.2401555355416108,0.5153119640638648,0.0847457627118644,0.512352736209502,0.14440199700729625,0.005987152633916146,16728.947994419737,686.7835539298821,0.04888080741286059,Catherine,REC_20260519_154549.csv
left,22,brick,23.488,0.9920000000000009,1.0,47145.0,3.6874416816370386,49408.4320232893,257.8125,0.06668711482673195,0.2138882706432228,0.5410638771422213,0.11771630370806357,0.4504514850916608,0.2613295939828706,4493.0,3317.095238095238,56.0,375.46031746031747,0.1131894897524608,0.4838709677419355,0.0,0.4838709677419355,0.8800897459574495,-0.8775287213202438,7629846.062180088,7248526.0,1095892.0,2114815.0,4831423.259336725,876428.2999986042,1548977.7360841085,0.09566603023299214,0.06622259865918259,0.05871938060169301,0.1129741550505558,0.07361575675792073,0.11187834067863926,0.11669226757011536,0.06134646396493394,0.08576063394536242,0.08404274154572033,0.056369839743129625,0.07671179124975476,5.021434794933717,0.265572841279545,0.5882611503786381,0.0967741935483871,0.44033462916871513,0.24410407345764792,0.004393468684438578,15643.595824916134,666.594513179221,0.047999999999998065,Catherine,REC_20260519_154549.csv
left,23,brick,24.496,0.9600000000000009,0.016666666666666666,48695.0,3.826948276715775,50276.7493479839,187.5,0.04849971987398687,0.21426998458489319,0.5364457168024664,0.11346635293173254,0.45667999538428344,0.2484592145013441,4541.0,3267.5245901639346,-6.400000000000006,355.37704918032784,0.10876032891997249,6.0,-1.0847457627118644,4.915254237288136,0.9655824403773782,-0.6388127263344852,7940025.875294551,7072597.0,1661553.0,3203377.0,4692753.805839585,916660.9701728169,1809246.1372097924,0.09400508732233254,0.0709315218318374,0.05988390469548814,0.11210672339315368,0.07713765371088556,0.11134412675158915,0.11797671069993326,0.060019365941029204,0.08515996969681766,0.08186876313848655,0.05344698699070334,0.07611918582774346,4.104047132235568,0.28465481616381044,0.5294405664264796,0.06666666666666667,0.45194089067767035,0.1313557228936135,0.006305237665490117,13895.356238686367,35.22851369392212,0.024440403706430004,Catherine,REC_20260519_154549.csv
left,24,brick,25.472,1.0079999999999991,0.0,48030.0,3.7670954472142526,49075.75543993185,1472.2222222222224,0.38081261530685995,0.19640971488912354,0.5235480464625132,0.11272288409792108,0.4545262436193043,0.24800082653150252,4735.0,3327.296875,-53.900000000000006,360.640625,0.10838847224896336,0.0,-0.2222222222222222,-0.2222222222222222,0.963406349968477,-0.6740455854822316,7793728.951325739,7116580.0,1738522.0,2659707.0,4694596.229495459,1060591.9946022995,1527858.686881896,0.09925004813404274,0.07255796043146887,0.06070994191042842,0.11396732520298478,0.076385203830061,0.10887216067847869,0.11654073548817312,0.058892588296618406,0.08274359347631101,0.08352782617270964,0.05383029580130267,0.07272232057742067,4.73497176248469,0.30887266603252056,0.6095289828485414,0.09523809523809523,0.45357071298761537,0.222655146306867,0.006984178594315548,777.5977966361869,722.2933394583889,0.024440403706430004,Catherine,REC_20260519_154549.csv
left,25,brick,26.496,0.9760000000000026,0.04918032786885246,51839.0,4.109921654088386,53312.49529894469,2701.388888888889,0.6987552233696628,0.20341547773454388,0.5397751837440553,0.11373967634195592,0.45883934809030275,0.24788562013103033,4626.0,3370.7419354838707,69.69999999999999,368.58870967741933,0.10934943010536591,7.333333333333333,-0.43103448275862066,6.902298850574712,0.9347600016576221,-0.8078646188992011,8244328.447736237,7484320.0,1491732.0,3119077.0,4690957.318285176,883060.3362520754,1730105.0225038938,0.09421683749150661,0.07225364378475115,0.0558936962284555,0.11339515565635977,0.0789765821633985,0.11113663116189602,0.11371096628482293,0.0588221220560229,0.08307733532389731,0.08153177724823672,0.054917554285933035,0.08206769831471965,4.932334311429134,0.31213699847391363,0.6158844433485908,0.08196721311475409,0.4369650270456751,0.24179839847971846,0.006192026859302071,2034.512308474306,1257.046752537806,0.02444040370642961,Catherine,REC_20260519_154549.csv
left,26,brick,27.488,1.0399999999999991,1.0,22392.0,1.4595663603570619,39528.860077163874,187.5,0.04849971987398687,0.2081587651598677,0.5369349503858876,0.1187035441988069,0.4523422154774438,0.26241977895748086,4535.0,3324.681818181818,93.4,380.5984848484849,0.11447666443359812,0.5076923076923077,0.0,0.5076923076923077,0.8536758469310988,-0.9868398314075981,11973505.308311889,10106154.0,3635869.0,5292536.0,4706033.121746908,855145.865806207,1601313.8477485294,0.09472312228556846,0.06983124381918525,0.054354711546787345,0.11520355103473105,0.07682667286457123,0.10915603680461564,0.11654794945061957,0.06174662419279129,0.08132471095434059,0.08462874095949031,0.05695692000601562,0.07869971608128369,5.214304081312889,0.2623937344938825,0.5855478969410804,0.1076923076923077,0.4745727396843094,0.26859771046129993,0.004167288270275232,16015.312121008863,1257.046752537806,0.03199999999999798,Catherine,REC_20260519_154549.csv
left,27,brick,28.544,0.9920000000000009,1.0,46881.0,3.6636805583462086,48859.05026706925,2805.5555555555557,0.7256995121885443,0.20697824682317467,0.5216454878311436,0.11885808797926257,0.45544453901806786,0.2609715954338578,4643.0,3282.15873015873,41.0,374.984126984127,0.11424923588811081,0.25806451612903225,0.0,0.25806451612903225,0.8784000551016753,-0.8442876412442186,8047092.563194424,7202101.0,1770287.0,3122743.0,4668265.319427184,830996.6156096467,1805171.414086295,0.09639416566719543,0.07522633187603978,0.05906391457422525,0.11134754516965219,0.07698185476070724,0.11005145664874066,0.11662862227724688,0.06265233876271908,0.081837350562928,0.08215653654195845,0.05620574921654351,0.07145413394204356,4.513360539512576,0.18302085074270977,0.5239942226019317,0.0967741935483871,0.4409159013320908,0.21592450228608023,0.0039776149671746155,15766.095976281935,1482.3800081905881,0.03330665599145618,Catherine,REC_20260519_154549.csv
left,28,brick,29.552,0.9920000000000009,0.03225806451612903,51878.0,4.113431820029077,52811.61985775479,1370.6597222222224,0.3545419337084504,0.21191045424907629,0.519452292979787,0.12273070547965359,0.4465275257701625,0.2748558563503672,4601.0,3236.7936507936506,7.699999999999989,382.1825396825397,0.11807442207161703,7.0,-0.6166666666666667,6.383333333333333,0.8507614561988858,-0.9535153874862741,7740480.725060557,7153231.0,1420872.0,2593733.0,4707144.409195234,736813.8753305711,1734228.5983643073,0.09478810109946155,0.06830196451514825,0.05695426593042302,0.1134475622554164,0.07367177002520622,0.10898008022832707,0.11958238115320864,0.06399631224315656,0.0821261487460646,0.08572073088202121,0.058734393236497026,0.07369628968506949,4.164191755011624,0.1970274111663018,0.518389356845131,0.08064516129032258,0.4915949575060407,0.2084493432318672,0.0037668978972018076,15780.290058593138,1311.043342328394,0.027712812921100727,Catherine,REC_20260519_154549.csv
left,29,brick,30.56,0.9440000000000026,0.01694915254237288,21947.0,1.4195144669312312,39621.78805909698,1559.0277777777778,0.40326618932259456,0.21125194574160552,0.5383589059372915,0.10706474465656722,0.46131761937563165,0.23208466392721686,4497.0,3314.8166666666666,2.9000000000000057,339.26666666666665,0.10234854617399655,6.0,-0.3103448275862069,5.689655172413793,1.1428403505113098,-0.24151303973581761,11998369.588954201,10053620.0,3734830.0,5379279.0,4868452.664168044,1086530.5362391616,1572802.654866046,0.09597815867141973,0.06805303460724324,0.05614689600732067,0.11878484984086601,0.07583124255237847,0.11422451719300715,0.11724127528420375,0.05636309700385642,0.08442397518213678,0.08272453479076268,0.05070164765271081,0.0795267712140943,4.608997406339336,0.3033755247253853,0.5746182672166341,0.06779661016949153,0.4405443542669021,0.1599592879143151,0.008958088809276675,16034.021776626521,779.7692049192874,0.027712812921100616,Catherine,REC_20260519_154549.csv
left,30,brick,31.52,1.056000000000001,1.0,17808.0,1.04698685594356,36880.880846313856,640.625,0.1657073762361218,0.22465692784417884,0.5449313855688358,0.12538611553204368,0.45226065320212505,0.27724303373329856,4518.0,3329.179104477612,4.800000000000011,402.92537313432837,0.12102844589899353,1.303030303030303,0.0,1.303030303030303,0.7951331492904091,-1.0484129215061215,11179794.199087476,9690766.0,2741563.0,4853935.0,4622441.748002586,834648.8509669466,1577050.4730039923,0.08797830131581898,0.06521261572257964,0.05592342695747685,0.11522718612001524,0.07481114523323844,0.11231310663289323,0.11924861581224362,0.06599717558449711,0.08469659949339849,0.08518078500818184,0.05938893994754658,0.07402210217211001,5.15668846852482,0.290904395433715,0.6099567267345479,0.10606060606060606,0.4390123484902854,0.32251825090249514,0.0038718048863566044,18591.041668861202,485.0939569186228,0.05619015334854692,Catherine,REC_20260519_154549.csv
left,31,brick,32.592,0.9280000000000044,0.0,49978.0,3.942423735739013,52004.565761094476,2638.888888888889,0.6825886500783338,0.22135246792781038,0.5314198738856273,0.12570458753342934,0.4507817321538778,0.2788590986877758,4599.0,3295.593220338983,-32.69999999999999,398.00847457627117,0.1207699033120757,0.0,-2.0172413793103448,-2.0172413793103448,0.7122992047172443,-1.2345572784409584,8159656.24106837,7485542.0,1786169.0,2712241.0,4815611.364147162,807943.8565333289,1491873.1851622243,0.09186381403003498,0.06772269080436125,0.051239456901872045,0.11497634231639581,0.07607488171158198,0.11124254268668998,0.11554721250771446,0.0642974696564493,0.0807652746348488,0.08426249742851265,0.06140711787698005,0.08060069944455875,4.58092499583891,0.2911920649863605,0.5819734680141833,0.06896551724137931,0.444856405145554,0.17404743093499425,0.004395880914213665,17501.31986451308,1000.2184970593017,0.06974238309664903,Catherine,REC_20260519_154549.csv
left,32,brick,33.536,1.0079999999999956,1.0,55017.0,4.395955176127241,55947.2471798211,1636.71875,0.42336213806667705,0.20129589632829373,0.521598272138229,0.11282858374084274,0.45517864838026717,0.24787758420185987,4630.0,3335.8125,-70.9,362.1875,0.1085754969741255,0.7619047619047619,0.0,0.7619047619047619,0.926540541341736,-0.809079741082364,8271196.17818088,7599163.0,1849699.0,2691472.0,4546961.999472869,847687.3771740214,1653169.1189325138,0.09711839319506117,0.07588106345905234,0.058081801660015364,0.1108894010080003,0.07816686339534971,0.10848650066513031,0.11545631686433215,0.05762745208251363,0.08175481985273453,0.08345980177243176,0.05520113165832912,0.07787645438704963,4.446246181006614,0.258936756894399,0.5969886366510507,0.09523809523809523,0.46959749001065376,0.29297580895398895,0.0094842630485744,20185.845296477764,999.1334842174481,0.0646632301492356,Catherine,REC_20260519_154549.csv
left,33,brick,34.56,1.0399999999999991,0.015384615384615385,46278.0,3.6094079926478355,47686.340580925265,3118.5515873015875,0.8066606847824219,0.2127377266696152,0.5393631136665192,0.11893298039842093,0.4414759372932022,0.26939855686710173,4522.0,3319.9242424242425,-0.5,380.3939393939394,0.1145791022978801,11.0,-0.078125,10.921875,0.8904938558562651,-0.9154199005208516,7747131.356602649,7252192.0,1040914.0,2517986.0,4713842.03115559,798107.6527006214,1514617.8021877622,0.09797138488921342,0.07147844739063962,0.06382949592679643,0.10964105606644912,0.07146931976359445,0.1074458617620884,0.11792894142345343,0.06120073933779066,0.08144125231043059,0.08525660041530703,0.05773224106063026,0.07460465965360655,4.514674570383514,0.20171508369409769,0.5282485112190585,0.09230769230769231,0.42607341382223346,0.25945429959137517,0.0042199109155018075,4386.56361327787,756.1139518655458,0.057688820407420224,Catherine,REC_20260519_154549.csv
left,34,brick,35.616,0.9919999999999973,1.0,50026.0,3.9467439399737096,51930.229972531415,2868.0555555555557,0.7418660854798733,0.21434917814304755,0.5348733896046202,0.13201712999927415,0.4459848539836926,0.29601258612251236,4502.0,3280.2380952380954,56.099999999999994,417.75396825396825,0.12735477002734025,0.04838709677419355,0.0,0.04838709677419355,0.603248764039611,-1.3998644598871715,8309495.432380537,7414682.0,2651155.0,2653598.0,4838975.242433546,977483.6907636956,1696396.1537007415,0.09345043671820183,0.06726670053954659,0.05381916721105223,0.1153178001983983,0.07212503931673563,0.10903196148169655,0.11950835934286612,0.06902325131257409,0.08224335244731557,0.08618712346664731,0.06299387868670005,0.06903292927826571,4.282252236470837,0.15659500038703852,0.5067973144037135,0.0967741935483871,0.4437371858213413,0.2029063840848911,0.00403412567854629,4384.2085184595635,793.1758052644592,0.0244404037064319,Catherine,REC_20260519_154549.csv
left,35,brick,36.624,0.9759999999999991,0.0,51294.0,4.060869335173605,53169.74970789311,2690.9722222222226,0.6960607944877747,0.21152154793315744,0.5252858399296394,0.12089050342406912,0.45187403352887756,0.2675314234807919,4548.0,3285.564516129032,-6.5,381.80645161290323,0.11620726049925137,0.0,-0.26229508196721313,-0.26229508196721313,0.8129285347042641,-1.0725300099562776,8067574.14006255,7216761.0,2102598.0,2929709.0,4674517.5504206875,893199.4224152581,1486637.9877025343,0.0932721337227854,0.06491249601138901,0.055796372204904146,0.11461181610662478,0.07183917920522324,0.11374782160477162,0.11823470214280454,0.0626346923246852,0.0867627206008689,0.08398910188753345,0.058255811099383915,0.0759431530890258,4.2162739840407415,0.22416100968355593,0.48920892302388636,0.09836065573770492,0.4465364411023654,0.23952765836913706,0.0036043609393297178,2608.178930467273,214.83748986409205,0.033306655991458135,Catherine,REC_20260519_154549.csv
left,36,brick,37.616,0.9600000000000009,1.0,51265.0,4.0582592117818095,53261.604763656906,2777.777777777778,0.7185143685035092,0.21941489361702127,0.5283687943262412,0.12412868358291451,0.4475316539914224,0.2773629138313578,4512.0,3203.1803278688526,70.80000000000001,381.74590163934425,0.11917714975894858,0.75,0.0,0.75,0.843055431791718,-1.002354318377389,7986972.448161506,7165449.0,1424537.0,3227811.0,4662747.681810283,816943.2715552889,1746022.4843642176,0.09263334595739889,0.06829790065201592,0.056987420289261695,0.11296150342385129,0.07351812235790249,0.10984472399357195,0.12123709018700676,0.06447485593211665,0.08290940356408077,0.08593406143484447,0.059653827650797873,0.07154774455715118,4.522284663582375,0.28843111647781366,0.5259942322169713,0.1,0.4640835411953605,0.23849205738235946,0.004108083520548822,723.853806602827,88.54734005062238,0.015999999999997804,Catherine,REC_20260519_154549.csv
left,37,brick,38.592,0.9920000000000044,0.0,50131.0,3.9561943867371077,51442.611102081515,1515.625,0.3920394023147272,0.21890765518754113,0.5389339767492871,0.1298447266617927,0.44751354465742543,0.29014703177554363,4559.0,3278.3968253968255,8.199999999999989,410.13492063492066,0.12510228092515216,0.0,-0.5967741935483871,-0.5967741935483871,0.7695127358528618,-1.146404744537776,7896307.521109154,7230200.0,1253495.0,2916270.0,4676406.183814715,839076.2280031157,1551399.4644529333,0.08986196311592483,0.06678641806147992,0.05306503856414527,0.11272931504461627,0.07449440541495794,0.11121870445775373,0.12009838335617001,0.06792421770222572,0.0822847016786176,0.08616774555895013,0.06192050895956695,0.07344859808559158,4.251109103429307,0.1569933557467267,0.5047052607002208,0.0967741935483871,0.4608496660827987,0.20460635575303773,0.004400902018856215,663.2453040417272,704.9829704459722,0.01600000000000133,Catherine,REC_20260519_154549.csv
left,38,brick,39.6,0.9439999999999955,0.01694915254237288,50523.0,3.991476054653795,52413.9488590585,2035.15625,0.5264240427988992,0.21392488469141224,0.5172413793103449,0.13011106667076883,0.44787147853018694,0.2905098290645223,4553.0,3250.3,10.199999999999989,406.85,0.12517306094822017,5.0,-0.29310344827586204,4.706896551724138,0.7124691580081197,-1.265041616799664,8570125.646502564,7982786.0,1538158.0,2712241.0,4956100.94156652,850673.2230359572,1577831.055200207,0.09283245649119569,0.07082935934118902,0.05280025433549724,0.1142766308750987,0.07660831307879272,0.10758494087725236,0.11900952732568275,0.06700919915084762,0.07857223435785414,0.08711503553518135,0.06310186751992124,0.07026018111148714,5.017169285348873,0.31520486516916923,0.5587244433571039,0.1016949152542373,0.4626933389551569,0.2537427367225944,0.003437168313627659,575.9317089146961,634.3538822688955,0.024440403706435215,Catherine,REC_20260519_154549.csv
left,39,brick,40.56,1.024000000000001,0.015625,48901.0,3.8454891532230135,51977.78984335521,2886.2847222222226,0.7465813360231777,0.2197480881691408,0.5571300044984255,0.12365433205830567,0.45773026392605776,0.27014672571049164,4446.0,3294.0461538461536,66.0,392.75384615384615,0.11923143386903177,15.0,-0.7142857142857143,14.285714285714286,0.7781745717130585,-1.118553279794715,8351456.8191914875,7279070.0,2157576.0,3479488.0,4605889.730749497,986085.7850164059,1633286.7072533814,0.08714557266490125,0.0637373723220916,0.05198656784034599,0.11804047395534135,0.07550218809693947,0.11417802749015708,0.11893252628285066,0.06431650577031754,0.08627220206152826,0.0849224474926791,0.05933782628798812,0.07562828973485963,4.402144314897574,0.18661388751840205,0.5196808703240543,0.09375,0.4384696635072087,0.20155019115677453,0.0035282292061830827,846.3104237414303,691.9827153520758,0.04026578365478017,Catherine,REC_20260519_154549.csv
left,40,brick,41.6,0.9919999999999973,1.0,48872.0,3.842879029831218,51141.01497819534,229.16666666666666,0.059277435401539506,0.22006615214994488,0.5369349503858876,0.12291480362537764,0.4536652567975831,0.27093722030412704,4535.0,3283.7301587301586,-79.69999999999999,388.14285714285717,0.11820181268882177,0.7419354838709677,0.0,0.7419354838709677,0.8379152063998884,-1.0057643334751605,8273231.126396203,7434229.0,1925447.0,3077539.0,4765296.997746937,905676.984442051,1802665.4870767046,0.09218610271903324,0.07054018126888217,0.05631419939577039,0.11616676737160121,0.0770416918429003,0.11019697885196375,0.11747673716012084,0.06355045317220544,0.07971963746223565,0.0853607250755287,0.059364350453172204,0.07208217522658611,4.662139526767881,0.18913093034970377,0.5378899743855128,0.0967741935483871,0.46770277807515864,0.21776989085583356,0.004258151538367787,944.9449719428458,1356.852633394355,0.0402657836547797,Catherine,REC_20260519_154549.csv
left,41,brick,42.608,0.9120000000000061,0.0,51763.0,4.103081330716784,54283.14937436847,3003.90625,0.777005928814498,0.2148972602739726,0.5258989726027398,0.1291710656812874,0.4408825756363907,0.29298292293530803,4672.0,3233.4827586206898,-11.0,401.2155172413793,0.12408153906858196,0.0,-1.736842105263158,-1.736842105263158,0.714571808733146,-1.1930223186659195,8336471.445916251,7503868.0,2377487.0,2745228.0,4802026.286380929,1040385.5946950705,1915287.5105396279,0.0910089473291316,0.06312719284213669,0.055582216250226614,0.11274274562498,0.07189322924998133,0.1106205543291636,0.12151944631069306,0.06589457294899276,0.08249885359012914,0.08813492444359129,0.06327649273229463,0.07370082434867924,4.555525531121292,0.28650170766803795,0.564211484388871,0.07017543859649122,0.4431924468340898,0.10899008575757925,0.006453769681137892,1660.8113479060153,1569.1447214046761,0.05768882040742032,Catherine,REC_20260519_154549.csv
left,42,brick,43.536,1.0399999999999991,1.0,49628.0,3.9109222465276856,51248.70391531868,218.75,0.05658300651965135,0.2168411867364747,0.5285776614310645,0.13550296402665782,0.43885084134172836,0.3087676979546892,4584.0,3292.0,-62.5,431.75757575757575,0.1311535770831032,1.5076923076923077,0.0,1.5076923076923077,0.5170977296154637,-1.5134271916733721,8125208.068210992,7414682.0,1623679.0,2899166.0,4689402.453988226,574935.1300099381,1574307.3070284391,0.09356935085975182,0.07023454471814132,0.054608969402408045,0.11159744467763909,0.0745240988254354,0.10530579181855003,0.11880500018410103,0.06849939246658567,0.07718896130196251,0.08956515335616187,0.06700357156007217,0.06909772082919106,5.497393771729363,0.3138715391329704,0.6268283643126794,0.12307692307692308,0.46882150443800785,0.3118066346747661,0.0022014602027345055,1499.3132872529986,1605.0121286756341,0.06466323014923407,Catherine,REC_20260519_154549.csv
left,43,brick,44.592,0.9759999999999991,0.01639344262295082,55639.0,4.451937822668515,57471.135111462696,2809.0277777777783,0.7265976551491738,0.2196343056160209,0.5261210274270788,0.12791275861396564,0.4465758633465281,0.2864300763040187,4594.0,3308.5806451612902,-55.5,407.2741935483871,0.12309634771756722,5.0,-0.6166666666666667,4.383333333333333,0.7026079808787876,-1.2218648909620216,8386604.616841848,7894822.0,1447750.0,2431243.0,4775292.494720707,934874.953432335,1578124.858626432,0.09717645223563363,0.07006707875904296,0.05217615974104479,0.11470175301756917,0.07544410428407075,0.10775500653237916,0.11981553341263187,0.06574790866368972,0.07860792075346605,0.08810424507146618,0.06216484995027592,0.0682389875787298,4.674967810348826,0.2987768639303412,0.5412576039116768,0.09836065573770492,0.47309492770664485,0.24153105110337258,0.0033565540869774416,3047.231585116791,1554.8103808235003,0.06399999999999641,Catherine,REC_20260519_154549.csv
left,44,brick,45.584,0.911999999999999,0.0,49925.0,3.937653510229869,51812.99695057216,1500.0,0.387997758991895,0.21420812513578102,0.5257440799478601,0.11032623124053241,0.4625070925493095,0.2385395446204928,4603.0,3312.1206896551726,-53.69999999999999,348.9655172413793,0.1053601453386985,0.0,-1.1228070175438596,-1.1228070175438596,1.111586772050942,-0.3538018071809903,8238701.563609766,7646811.0,1392772.0,2731789.0,4846697.333778198,819408.9298936342,1836421.9771657488,0.0962972988448905,0.0755063689791414,0.05333597080732732,0.11520382294914708,0.0774792689338532,0.11372024382753002,0.1142668256091784,0.05610011296023488,0.0805973878596378,0.08330947460476931,0.054226118280297546,0.07995710634399254,4.539232976955606,0.2929005795307005,0.573808921865065,0.07017543859649122,0.4304889012203329,0.15870725814412598,0.008360172925220125,3387.9720089359334,1295.1637124023619,0.06399999999999992,Catherine,REC_20260519_154549.csv
left,45,brick,46.512,0.9600000000000009,0.06666666666666667,14812.0,0.7773341082945958,35436.003527486,1734.375,0.4486224088343786,0.20982532751091704,0.5218340611353712,0.11466611519788865,0.4581474588121756,0.25028211548985707,4580.0,3329.409836065574,13.5,366.73770491803276,0.11015096457797866,6.75,-1.0892857142857142,5.660714285714286,0.988333155742216,-0.6970054999987774,11117330.652662536,9356011.0,2298075.0,5547878.0,4665468.130839228,736459.4374118648,1765715.5010980482,0.10025406954415197,0.07963800013786719,0.05566387977980639,0.11284429869912455,0.08295666046264291,0.10701448590307935,0.11155917949323958,0.05828828030370173,0.07569401360946162,0.0818340275931342,0.05637783489418692,0.07787526957960353,5.20381631624366,0.3371541463261192,0.6315058629813229,0.1,0.4457031783473902,0.29977197285036805,0.006203795884129036,22107.376197399215,698.0167090173317,0.03330665599145833,Catherine,REC_20260519_154549.csv
left,46,brick,47.488,1.0399999999999991,0.9846153846153847,51380.0,4.068609701094102,52696.77230153665,1463.1944444444446,0.37847744360922353,0.21075549749618985,0.5205747877204442,0.13908910855272083,0.4350745661237373,0.319690276983619,4593.0,3350.6969696969695,-16.5,451.969696969697,0.13488826386188313,1.140625,-5.0,-3.859375,0.34884145249066517,-1.7001846110663184,8646899.40030211,7656584.0,2384817.0,3233920.0,4792879.97772434,943548.9111652176,1608400.2271274645,0.09146898429092094,0.06516509455291979,0.05915549003825527,0.11085888960234415,0.07419984987293463,0.10541452253262551,0.11876317003246724,0.06988143579354816,0.0794362095629132,0.09067312996843714,0.06920767275917268,0.06577555099346134,4.726396534679134,0.3329240008746607,0.6364633351926198,0.1076923076923077,0.46314663584288507,0.21521499614624703,0.005533385984541377,20705.306960616,147.09701065179598,0.06466323014923789,Catherine,REC_20260519_154549.csv
left,47,brick,48.544,1.0400000000000063,0.03076923076923077,47700.0,3.737394043100715,49824.9251379267,166.66666666666669,0.043110862110210556,0.2142548596112311,0.5423326133909288,0.11398379360168859,0.4597942720482659,0.24790172590416543,4630.0,3345.1060606060605,-29.599999999999994,366.6515151515151,0.10960833782504517,7.5,-0.5873015873015873,6.912698412698413,1.0739574797178153,-0.5609394348430219,8037041.100794807,7277848.0,1380555.0,3117856.0,4572724.239189954,870949.1915155809,1795314.2672738552,0.09623737979952622,0.0741789226232805,0.05756940260987331,0.11349914166783678,0.07542452338785291,0.11263401531862467,0.11465415328589482,0.0594219506560919,0.08405766905067104,0.08206017837002949,0.054561842945596684,0.07570082028472169,4.857153726610728,0.19277123326873538,0.5417147836130859,0.1076923076923077,0.47068235877028725,0.17856988962752876,0.0019881443781581735,20134.471137827284,837.8775358670238,0.046188021535170765,Catherine,REC_20260519_154549.csv
left,48,brick,49.6,1.0559999999999974,1.0,50509.0,3.9902159950853417,53150.21213504232,2666.666666666667,0.6897737937633689,0.20455512984248617,0.5346956151553852,0.1276631415474347,0.4508667204920166,0.2831505093301991,4698.0,3382.9701492537315,44.80000000000001,417.54477611940297,0.1234254982153808,0.015151515151515152,0.0,0.015151515151515152,0.6246628726093318,-1.304913768918416,7748981.681828458,6919881.0,1367116.0,3208264.0,4448957.253973764,877475.095042689,1712367.114730348,0.09220900118680483,0.07069650885250531,0.054619494482901626,0.1126008673822791,0.07707172448479874,0.10965812078937963,0.11577303349966248,0.06599340860058502,0.08083949898305384,0.08571907579226945,0.061669732946849666,0.07314953299891025,4.180454417656207,0.17632780211728358,0.5278149145852072,0.09090909090909091,0.4652873410523404,0.11868037406214328,0.0031781364955157736,1923.1710792333827,1250.2886112287483,0.00923760430702773,Catherine,REC_20260519_154549.csv
right,0,brick,0.608,1.088,0.0,8418.0,0.22501672776561066,30879.196378791985,365.625,0.0961846559314133,0.21237842617152963,0.4666666666666667,0.1452510300572964,0.43832952853940815,0.33137404760573547,5655.0,4196.333333333333,56.30000000000001,592.3695652173913,0.14116361074367892,0.0,-0.5147058823529411,-0.5147058823529411,0.9104363918547418,-0.9337414479832393,9286967.18720132,7453777.0,855211.0,5473352.0,3948475.2594939233,1382917.6404634826,1962536.7369791432,0.0939709269997617,0.09182965114471917,0.04804055990909939,0.10447008603093798,0.08375496896876845,0.08656280327546133,0.1070292560447872,0.07095221155805449,0.07171201911952119,0.09101458485150943,0.07429881849924193,0.07636411359813779,4.345461257234636,0.21307502463106845,0.5395393512587835,0.08823529411764706,0.509182646492536,0.13067717769640155,0.0014697820675410398,0.0,0.0,0.0,Catherine,REC_20260520_190100.csv
right,1,brick,1.712,0.9600000000000002,1.0,17846.0,1.1034239399956929,31921.20658747097,515.625,0.13564502759558286,0.21516284036305391,0.4555970813311977,0.14907018833329383,0.4297089250855522,0.3469096861405225,5619.0,4148.55737704918,50.80000000000001,598.9426229508197,0.14437371079024114,0.6833333333333333,0.0,0.6833333333333333,0.8206859921987198,-1.1005461272306836,10412695.385477576,8224689.0,1446528.0,6219829.0,4349569.288282889,1801990.2695272441,2060725.687207648,0.09000561127312676,0.0858840916455256,0.05188056681761782,0.10389943966300749,0.08101176786716299,0.08674554061850456,0.10813555571361959,0.07295445384925434,0.07216808529135153,0.09159020319131281,0.07611573448403948,0.07960894958547708,4.718464604416165,0.34785517625583695,0.5936029168821265,0.06666666666666667,0.4707450338237913,0.07432863417026904,0.002955768555048486,6666.60273302677,106.06601717798213,0.09050966799187793,Catherine,REC_20260520_190100.csv
right,2,brick,2.688,0.976,0.01639344262295082,19406.0,1.2487692148237506,33313.35559501624,343.75,0.09043001839705524,0.22232354550428599,0.47765821630494254,0.14592526759148344,0.43512114069322616,0.335366990808394,5483.0,4174.032258064516,-16.600000000000023,589.7258064516129,0.14128443912052244,2.0,-0.5666666666666667,1.4333333333333333,0.9727875697836061,-0.7431070872113037,11207774.466107445,9026144.0,2079385.0,6310237.0,4779697.5491568325,1561653.9403205588,2108426.914738033,0.08867035047722091,0.08303643881139149,0.04952277908729086,0.10633332045287684,0.07874338266548167,0.09103520228756908,0.10838131303373391,0.07230573051508946,0.07597279647590711,0.09209397581050272,0.07361953707639399,0.08028517330654199,5.765524093537875,0.39239266052660504,0.6919127473693053,0.08196721311475409,0.4997016622601179,0.23703122585570394,0.0028896766399815624,5944.982870735064,93.55883287179961,0.06974238309665068,Catherine,REC_20260520_190100.csv
right,3,brick,3.68,0.9919999999999995,0.0,14630.0,0.8037890657347738,31923.424048807796,400.0,0.10522765777111882,0.21156583629893239,0.4706405693950178,0.14073903560080606,0.4400929832373563,0.31979386393630577,5620.0,4206.253968253968,16.80000000000001,573.2698412698413,0.1362898782613946,0.0,-0.3225806451612903,-0.3225806451612903,1.0494785573587955,-0.5918064914739398,11456603.701480644,8409170.0,2190562.0,7465994.0,4708841.112573703,1555180.724333629,2320704.5361444056,0.09210019849506028,0.09127753835935909,0.049340739790334875,0.10328158373397134,0.08374906601658906,0.08862464810524012,0.10400235477029669,0.06792606625055662,0.07316014702219673,0.09138697479942942,0.07281296935024945,0.08233771330671638,5.453363754891986,0.42153737829285004,0.6883312372606686,0.08064516129032258,0.5031268524298661,0.21044953515539816,0.003088826530111181,2435.37923124921,87.63011159603377,0.01599999999999912,Catherine,REC_20260520_190100.csv
right,4,brick,4.688,0.976,1.0,18559.0,1.1698541841959524,34265.3339251203,2250.0,0.5919055749625434,0.22,0.46767857142857144,0.14556377949790003,0.42846865171290277,0.3397302904562463,5600.0,4282.0161290322585,-30.80000000000001,603.8951612903226,0.14103056669868352,0.9344262295081968,0.0,0.9344262295081968,0.8402279260478076,-0.9086021399447226,11077953.617771877,8708494.0,1888795.0,6581462.0,4666227.485331267,1575844.5824806676,2320865.792292053,0.09334237339209371,0.08540218844755823,0.0523457069137616,0.1026159670037855,0.07960148407631316,0.0878844379155131,0.10424317758065427,0.06924685010452566,0.07296457426973274,0.0940429779460233,0.07631692939337438,0.08199333295666422,5.589213865095621,0.421438885113225,0.6842046928260739,0.09836065573770492,0.5007178668147773,0.18166184005858033,0.003159145062221909,2548.35325913291,1084.700659552364,0.009237604307032814,Catherine,REC_20260520_190100.csv
right,5,brick,5.68,0.976,0.03278688524590164,17013.0,1.0258132900394286,37688.89149338303,630.2083333333334,0.16578836706126795,0.21933878421613937,0.4674724493423391,0.1447757215748991,0.42844413982179574,0.3379103787836529,5626.0,4235.806451612903,-67.39999999999998,593.9354838709677,0.14021780519381613,10.5,-0.8983050847457628,9.601694915254237,0.9368950319896945,-0.7860740063208604,11546071.3159709,9429315.0,1688431.0,6445850.0,4753771.760881862,1485359.3731593944,2267599.404271902,0.08723631101972432,0.08403396542532937,0.05404005787830325,0.1037354352296093,0.07779681669332116,0.08719061762242022,0.11308735054451298,0.07007844033203868,0.07568730485111569,0.09374000456933973,0.0746972812428604,0.07867641459142487,5.604204856184846,0.3881295864606048,0.6630356651504342,0.08196721311475409,0.5108243957607924,0.21243709899248675,0.003059569789833499,1979.3031602056299,1008.2345064632277,0.009237604307032814,Catherine,REC_20260520_190100.csv
right,6,brick,6.672,1.008,1.0,17803.0,1.0994176279331245,34921.99715079308,729.1666666666667,0.1918212511452687,0.21581578007854338,0.4694751874330596,0.15630996528252775,0.4193160768886638,0.3727736042039303,5602.0,4226.078125,-61.19999999999999,642.0625,0.15192868683656907,0.7619047619047619,0.0,0.7619047619047619,0.5545907236055795,-1.5013389009648812,11646425.582899159,9038362.0,2499660.0,6906442.0,4690876.118149496,1645663.212528446,2282569.884914645,0.08805445356029712,0.08060073428008385,0.0492034207247411,0.10086923085455264,0.07642280631051987,0.08698963652026664,0.10995714850870156,0.07543563217965829,0.07443366892324074,0.09625872096247629,0.08087433310286946,0.08090021407259242,5.439805851144129,0.41974570986607435,0.6854207260502184,0.09523809523809523,0.48007396712287026,0.19146400484538637,0.002563912970581289,773.0623088298422,907.9695133388443,0.01847520861406755,Catherine,REC_20260520_190100.csv
right,7,brick,7.696,0.9600000000000009,0.0,15802.0,0.9129843619517505,33561.87902963718,518.75,0.1364671186719197,0.21542836829008177,0.46445076430856735,0.1467667070844371,0.4301364678987651,0.3412096347034194,5626.0,4245.2786885245905,53.10000000000002,603.4918032786885,0.14215599199882606,0.0,-0.6,-0.6,0.8554818290514368,-0.9229530206970167,11743779.146137498,9006597.0,2586403.0,7078706.0,4428787.339870627,1482565.7326506055,2694291.2404817166,0.0879395432534503,0.08796271267599107,0.05304639290706744,0.10265984970767911,0.08219738803376557,0.08586974150647585,0.10767216811732994,0.07065515403804419,0.07144677597485345,0.09375506831118077,0.0761115530463929,0.08068365242776931,5.402712964836135,0.4010308063069354,0.6765484004708306,0.08333333333333333,0.5229522480987125,0.13531587287907698,0.0023066317742412557,1007.8543214836795,105.27019633358286,0.024440403706430403,Catherine,REC_20260520_190100.csv
right,8,brick,8.672,0.9759999999999991,0.01639344262295082,16798.0,1.0057817297265874,35917.88497392351,363.28125,0.09556808762416065,0.21361671469740634,0.4776657060518732,0.13525819031867473,0.44755407692043253,0.3022164187382651,5552.0,4222.629032258064,-30.5,552.9032258064516,0.13093814814956284,27.0,-1.3833333333333333,25.616666666666667,1.1361528034252544,-0.3266352107888775,11363034.072684724,8857545.0,2713463.0,6580240.0,4512252.244946632,1414076.3753284572,2252191.065947279,0.0908354755293102,0.09082019686558214,0.04746698853718254,0.10857400411759988,0.08750090717065886,0.08698525226983649,0.10531200941165686,0.06525135311665642,0.0736737164967552,0.09159176938384969,0.07000683720201832,0.08198148989889345,6.127849441202024,0.38890528774844296,0.7105920583143998,0.08196721311475409,0.475790289669744,0.20662465885271283,0.002621416111772726,1000.503373307654,183.62908446422352,0.024440403706430497,Catherine,REC_20260520_190100.csv
right,24,brick,24.784,1.3120000000000012,0.975609756097561,9801.0,0.3538709041035618,38833.01179409086,2031.25,0.5343591996189627,0.20223367697594502,0.44948453608247424,0.14816689972194094,0.41913249862041996,0.35350849721640676,5820.0,4497.614457831325,20.80000000000001,652.5361445783133,0.1450849446292814,0.6125,-2.0,-1.3875,0.3359111619966261,-1.6220602486336673,12329301.620200634,9403659.0,2101376.0,7692015.0,3688829.9045894975,1114761.0263424178,2051898.2796980639,0.09030222179361483,0.08397222624041661,0.057703950152959274,0.10151030532919728,0.0756465274764132,0.08695372647347188,0.10681700071255981,0.06901382794627407,0.07104971310092098,0.09747335937123294,0.07915307177566688,0.0804040696272723,3.1707808924547973,0.17526861036654923,0.5108571995627975,0.06097560975609756,0.3341281578256257,0.08274641786186766,0.0009712410108820167,3501.965733698717,947.4303473379994,0.18031084271335496,Catherine,REC_20260520_190100.csv
right,62,brick,65.184,1.0400000000000063,1.0,21507.0,1.4445194856017949,36376.94988588241,468.75,0.12331366145052987,0.20404234841193455,0.4215591915303176,0.09950077466001034,0.4581734225795672,0.2171683684744557,6234.0,4488.772727272727,-64.69999999999999,431.6212121212121,0.09615572860233783,8.646153846153846,0.0,8.646153846153846,2.7283805384469013,8.906184255314924,11684597.29415614,9619905.0,4147774.0,5175250.0,4553961.869279311,2278418.438924625,2356118.9733792543,0.09238200358470124,0.09563591317057035,0.07965327635616135,0.10294033261436783,0.08556702074873675,0.09076855049129309,0.1110075980814085,0.05131995989995241,0.08326160555459919,0.07792843424166017,0.04818081476005793,0.08135449049649125,2.8874039290394835,0.1058769325460549,0.5057810217997573,0.046153846153846156,0.2958373348574597,0.2643193079031924,0.005623533239864284,14083.511860801387,1856.5861290962114,0.046188021535165144,Catherine,REC_20260520_190100.csv
right,107,brick,111.392,1.0400000000000063,1.0,12323.0,0.5888457650755885,32482.557750275762,260.4166666666667,0.06850758969473882,0.19542011019283748,0.45144628099173556,0.13203133481112617,0.44254642615763357,0.29834459619842935,5808.0,4326.681818181818,-63.60000000000002,554.1363636363636,0.12807421181463854,0.15384615384615385,0.0,0.15384615384615385,0.8937153723362881,-0.7962810278905259,10581805.392032495,8537452.0,1237612.0,6128200.0,4422660.259548202,1387748.7504755838,2170682.652638153,0.08942747784186217,0.08627228508094592,0.05255619639936827,0.10654816308949752,0.08283344014063546,0.09113289279698558,0.10639758230290552,0.06329996042877004,0.0757596450495691,0.09168618964074227,0.06873137438235613,0.08535479284636208,4.886610227349396,0.3154727863370112,0.6323212692428484,0.07692307692307693,0.4759149882498356,0.25259861703558967,0.0024775674009471266,3400.365274496234,43.4444533710569,0.016000000000005014,Catherine,REC_20260520_190100.csv
right,108,brick,112.448,1.0400000000000063,1.0,16152.0,0.9455938787400968,33740.21997557218,416.6666666666667,0.1096121435115821,0.1926321225684283,0.45205715269409535,0.12199805842379312,0.45150825169887915,0.2702011712182248,5809.0,4292.045454545455,71.80000000000001,506.7878787878788,0.11807607448592357,0.24615384615384617,0.0,0.24615384615384617,1.2991956654104304,0.03676955865219167,10557321.90771779,8586321.0,853989.0,6082996.0,4433515.114399912,1316172.0914500752,2110359.475289853,0.09532080134145264,0.09122937075280203,0.05307563321860383,0.10836819345159296,0.08380901950401552,0.0916671079339864,0.10357779542847055,0.058850939899391046,0.0764345600564822,0.0878792692613185,0.06314711852440207,0.08664019062748213,5.4027913542528685,0.4036046931786245,0.684722277242087,0.07692307692307693,0.5112487735695186,0.2283046747962564,0.004243072107032137,3253.594064005708,78.79114151655125,0.009237604307036044,Catherine,REC_20260520_190100.csv
right,109,brick,113.504,0.9919999999999902,1.0,15975.0,0.9291027802499903,33485.15769710515,500.0,0.13153457221389853,0.19198240866035182,0.4501014884979702,0.12433706976520721,0.4495692570376859,0.27656933346472146,5912.0,4294.9047619047615,-7.5,516.1904761904761,0.12018671072034415,0.3870967741935484,0.0,0.3870967741935484,1.2816944975194142,0.07566713056501273,11500676.719534421,8884424.0,2504547.0,6860016.0,4565991.708244513,1528472.311130227,2264847.0139961694,0.09373232955994368,0.09124137497736336,0.051840682388507614,0.10700756525820555,0.08342480384656607,0.09222814778678316,0.10472357426112153,0.058969838753192234,0.07566736516876772,0.0888982515272804,0.06536723101201498,0.08689883546025376,5.6139882889361665,0.3571049814270047,0.6764259697836468,0.08064516129032258,0.504133440074037,0.22941409662409665,0.00336787112943789,2161.3912957475345,121.62694366761652,0.02771281292111107,Catherine,REC_20260520_190100.csv
right,110,brick,114.512,1.0079999999999956,0.0,12782.0,0.6316108170923055,33170.4204374922,402.9017857142857,0.10599102805628877,0.18862174060277684,0.45123603115475786,0.12132361008506623,0.45467644842996846,0.2668350439173685,5906.0,4272.40625,-35.5,501.0625,0.11727875831096353,0.0,-0.25396825396825395,-0.25396825396825395,1.3618944580352719,0.24673236995171122,10210881.048183551,8608312.0,2232101.0,5017647.0,4492437.80297422,1405248.0703113554,2214588.734638965,0.09686432557765311,0.08951703153228933,0.0460732754522115,0.11037398421556939,0.08550509446520915,0.09286336007958045,0.10275971532435615,0.058654007914158444,0.07641697813732015,0.0874543765588771,0.06266960217090779,0.09084824857186743,5.259124676244582,0.35166394434682213,0.6576291409334607,0.07936507936507936,0.4881231656581865,0.24311156320517777,0.004262701001623538,1896.6408024012371,52.53884215439971,0.02444040370643923,Catherine,REC_20260520_190100.csv
right,111,brick,115.536,0.9920000000000044,1.0,14730.0,0.8131060705314441,34378.70332051516,331.25,0.08714165409170778,0.20144646322102663,0.4709825366025754,0.12815195537370067,0.44828098811129813,0.2858741699342745,5669.0,4271.0952380952385,-73.0,529.5,0.1239728852864772,0.5645161290322581,0.0,0.5645161290322581,1.0855791415831644,-0.4374346453654274,11297504.661946284,8658403.0,2686585.0,6741508.0,4408600.378381662,1155762.4968592317,2291667.6933035385,0.09395010387284031,0.09419166861776651,0.05196243482397362,0.10373161785200627,0.08724203672527397,0.08898501926943388,0.10424076200669691,0.061725366899683734,0.07413064564681747,0.089590789322095,0.06642658847401692,0.0838229664893953,5.526954581527873,0.3448266378366163,0.6770299173074187,0.08064516129032258,0.49502022726703754,0.23764112618798783,0.002845763730430821,1609.34655476476,84.6941596899476,0.009237604307033565,Catherine,REC_20260520_190100.csv
right,112,brick,116.544,0.9920000000000044,0.0,16238.0,0.9536065028652333,34964.0767073864,257.8125,0.06782251379779143,0.20606916019760058,0.4562455892731122,0.13309827788195575,0.440976004132185,0.3018265770352158,5668.0,4240.809523809524,-31.5,546.0793650793651,0.1287677180532318,0.0,-0.3548387096774194,-0.3548387096774194,1.0883463414341736,-0.4626735395061736,11330741.035450637,8731707.0,2489886.0,6778160.0,4555109.553001619,1408103.6362824952,2300877.7667961586,0.09219189208409595,0.08753569811094768,0.04987068207253033,0.10735820878763039,0.08249024033297027,0.0886698032346325,0.10671068341998195,0.06442315969921886,0.07492205366600417,0.0919411163636772,0.0686751181827369,0.0852113440455738,5.320412303203137,0.376265099997494,0.6632377945268317,0.0967741935483871,0.489629186482665,0.26212421735520425,0.00228834570521631,1732.6619212452279,72.54647433585352,0.009237604307029447,Catherine,REC_20260520_190100.csv
right,113,brick,117.552,1.0079999999999956,0.0,17157.0,1.0392297769466339,34941.7423148875,243.05555555555557,0.0639404170484229,0.20284011220196355,0.46107994389901824,0.12730355218688055,0.44578308822177354,0.28557286166827583,5704.0,4248.703125,-15.899999999999977,523.2578125,0.12315706631067569,0.0,-0.9365079365079365,-0.9365079365079365,1.1713568973521444,-0.302065485796148,11710786.312956786,9054244.0,1899790.0,7180110.0,4602395.092112186,1311465.487380964,2450998.737689954,0.09421992740431823,0.08862998635613073,0.05012926738673933,0.1082756870662739,0.08282306733304648,0.09034006700574072,0.10530786968082172,0.0618203348815999,0.07571428046058172,0.08980681605048599,0.06548321730528066,0.08744947906898061,4.949055905959951,0.34925201553584956,0.6550683196034061,0.07936507936507936,0.4995099953102154,0.24957346743171716,0.003600773355470775,1225.3539624668558,47.23892082885577,0.009237604307029447,Catherine,REC_20260520_190100.csv
right,114,brick,118.576,1.088000000000008,0.9852941176470589,12184.0,0.5758951284082167,33331.69874158831,390.625,0.10276138454210823,0.1906067877956805,0.4535481659238944,0.12396616802198104,0.4578834892176181,0.27073736210435595,5834.0,4177.507246376812,-58.60000000000002,502.0869565217391,0.12018817129693873,0.6716417910447762,-1.0,-0.32835820895522383,1.338409927132666,0.0635877433102956,10880091.766255697,8653516.0,1646892.0,6385985.0,4173338.245906673,1411922.697736281,2092798.9369077426,0.09449154894396491,0.0920734922705448,0.04379215120313063,0.11109530681912796,0.08565540784324609,0.09348547084455053,0.10232161194526934,0.06023285504149204,0.07557381144014876,0.08774388720823735,0.06373331298048901,0.08980114345979849,5.757691970805071,0.3009517369807981,0.6360161854712697,0.10294117647058823,0.529887996666933,0.21461591932048926,0.002449947083864447,2646.072750322613,81.27491259015808,0.051432804058632826,Catherine,REC_20260520_190100.csv
right,115,brick,119.68,0.9759999999999991,0.01639344262295082,14189.0,0.7627010745814575,31747.70445244821,2056.25,0.5409359282296576,0.19812985179957657,0.4664784756527876,0.12909547129190233,0.44726488469760606,0.2886331471765672,5668.0,4255.290322580645,-29.600000000000023,531.3951612903226,0.12487870885576967,4.0,-0.2833333333333333,3.716666666666667,1.1383792459071622,-0.3557331512431783,11956844.737719104,8317541.0,2896722.0,8086634.0,4376465.450583347,1534260.0070372024,2586695.2459293017,0.09531588762375488,0.09627105538456875,0.051404703064117534,0.10323013478478403,0.0863630850402535,0.08858043877071425,0.10184286732264962,0.06257864972633687,0.07282017071728551,0.08767454553724396,0.06651682156556545,0.08740164046272572,4.429460481199151,0.3266088950382812,0.6096352631847948,0.06557377049180328,0.4884456129118776,0.11382543633128916,0.003072541936837188,2501.9918065413135,1006.9555993954278,0.057688820407429155,Catherine,REC_20260520_190100.csv
right,116,brick,120.672,1.0080000000000098,0.0,10236.0,0.3943998749690779,28961.5968655045,489.5833333333333,0.12879426862610896,0.19152981849611064,0.451685393258427,0.12765895181970158,0.4457674425410343,0.28638016067735395,5785.0,4271.390625,-61.60000000000002,528.1015625,0.12363691567076003,0.0,-0.2698412698412698,-0.2698412698412698,1.2145088064424947,-0.1708453279526485,10346646.458133282,7662693.0,2052507.0,6642548.0,4094016.352126998,1568089.9070163385,2318548.1689058417,0.09656910622638265,0.09491200538466323,0.055814668085993654,0.10391083114764293,0.08625703719148843,0.08937370367525213,0.10055273275316513,0.060486009752385966,0.07131386514198756,0.08889083985382396,0.06717294206731561,0.08474625871989874,5.182284914548996,0.3156054437258939,0.6457481505051058,0.07936507936507936,0.4761989735503332,0.2886006701198333,0.002487449412986096,1976.5684910975967,934.3931931834645,0.057688820407427205,Catherine,REC_20260520_190100.csv
right,117,brick,121.696,1.0559999999999974,1.0,12112.0,0.569186884954614,32731.549841093685,486.6071428571429,0.1280113247438834,0.2017198136868506,0.4844141884629165,0.13715313282324318,0.43608123832022844,0.31451280351220456,5582.0,4232.985074626866,54.69999999999999,564.1492537313433,0.1332745671873347,0.7878787878787878,0.0,0.7878787878787878,0.7386710248723907,-1.1925344495631136,11468885.82283654,8291884.0,2300518.0,7582059.0,4279776.679093263,1509288.2780528872,2423816.4796353555,0.08717605162018263,0.08211276048094214,0.056380240471069425,0.10549345932795035,0.07841401925178942,0.092881069073728,0.10916751877578365,0.06639046578047318,0.07717993018581855,0.09130848700680512,0.07076266704277001,0.0827333309826875,5.013363365448671,0.36375829240639973,0.6595784910693605,0.09090909090909091,0.5045367620676268,0.24455216526675422,0.0028720270634652067,1977.3515114920335,905.3757968502892,0.04026578365477566,Catherine,REC_20260520_190100.csv
right,118,brick,122.768,1.0079999999999956,0.0,14027.0,0.7476075268108515,32965.37424328746,406.25,0.10687183992379255,0.20348732698184432,0.47582239798669784,0.14330832263055512,0.43452528484411496,0.32980433505011664,5563.0,4160.71875,-52.5,578.5859375,0.13905913191080266,0.0,-0.015873015873015872,-0.015873015873015872,0.7976263402584048,-1.1315078530139244,11577676.758922707,8326093.0,2612059.0,7608937.0,4324219.089381045,1368182.8360011415,2464844.8203148264,0.08935880970084796,0.0854269469667951,0.049968830505546666,0.10445536002643774,0.08139368949174947,0.08882179310966405,0.1076661934912087,0.06884702913408891,0.07442749524946862,0.09365118706954177,0.0744612934964662,0.08152137175818482,5.266195675614122,0.33615310672630455,0.6669946660745828,0.07936507936507936,0.519768875286088,0.18574882488347283,0.0021075076484971603,1895.5334341551006,47.27679586286413,0.027712812921098638,Catherine,REC_20260520_190100.csv
right,119,brick,123.792,0.9920000000000044,0.016129032258064516,14108.0,0.7551543006961545,32285.28110455289,520.8333333333334,0.13701517938947763,0.20415346708905316,0.46849700809574096,0.12792815592801787,0.4463527706519113,0.2866077334775044,5682.0,4139.476190476191,-53.39999999999998,511.3095238095238,0.12352034418893579,2.0,-0.3114754098360656,1.6885245901639343,1.3139971009823108,0.04848861467682575,11652026.454701774,8405505.0,2847853.0,7550294.0,4585555.98367307,1396985.992850064,2217640.4817545316,0.09438353905677813,0.08827894028460007,0.04752154056758964,0.10686115488885564,0.08213599604274752,0.09108199411780495,0.10533883974277858,0.06294025392370017,0.0779946853179031,0.08873525137372644,0.0649879020043177,0.08973990267919796,5.136272664749708,0.3296323996563982,0.6471536617557088,0.0967741935483871,0.4776867191141196,0.21840715226556426,0.0037433683668962854,1129.734629606963,58.81899183150616,0.03330665599145539,Catherine,REC_20260520_190100.csv
left,0,brick,1.072,1.1520000000000001,1.0,17492.0,1.0704417430154798,33651.04665534194,2476.5625,0.6515071779969661,0.19723028813937904,0.517310699128881,0.12684143814256685,0.4549584532120798,0.27879784900569277,4477.0,3404.3150684931506,14.800000000000011,420.0,0.12337283463774823,0.5833333333333334,0.0,0.5833333333333334,0.5376794605044949,-1.332603507728642,10134328.651484074,9087231.0,2069611.0,3980397.0,4291047.043023862,715716.5624157119,1435863.2928588532,0.08950767559302254,0.06969398225459228,0.058551797678208554,0.10672595215580548,0.0802044142204696,0.1116914471963463,0.11710359535641711,0.07199565418586404,0.0866426573848661,0.07915819970625516,0.054845783956702816,0.07387884031145002,4.380271929475964,0.2148926421434222,0.5217744065834589,0.08333333333333333,0.42780270748794097,0.24980313137830154,0.0020021921342681776,0.0,0.0,0.0,Catherine,REC_20260520_190100.csv
left,1,brick,2.24,0.9119999999999999,0.0,49758.0,4.07666651070914,52211.38539629072,1809.375,0.4759907331990453,0.2011350737797957,0.5303064699205449,0.12048964637239173,0.46755722159569224,0.2577003216014977,4405.0,3256.396551724138,68.69999999999999,377.62068965517244,0.11596274706016275,0.0,-1.087719298245614,-1.087719298245614,0.8108749923110589,-1.0475288639538038,8016465.801439061,7479433.0,951728.0,2723237.0,4776486.004698943,829020.8852252897,1600881.784144087,0.08894430590191188,0.07239862128119193,0.057997257387317265,0.10860852115994514,0.08289785091411597,0.11550740981940052,0.11670928835024964,0.06713576991703331,0.08814481842103869,0.07557009810929152,0.05335387645535841,0.07273218228314564,4.397860206846408,0.259992739425598,0.5402021390738784,0.07017543859649122,0.43450774404791376,0.1287616590080127,0.003678983500758097,22815.507401765142,471.7728055728997,0.16970562748477155,Catherine,REC_20260520_190100.csv
left,2,brick,3.168,0.976,1.0,52184.0,4.3026970470763635,53300.81429959583,1419.2708333333333,0.37336636383632654,0.19115358968659701,0.5227828406312514,0.10559459133164313,0.47266449354098755,0.2234028423427991,4499.0,3339.9193548387098,-96.4,338.991935483871,0.10149704213449233,0.3770491803278688,0.0,0.3770491803278688,1.17750562383346,-0.24839708352496803,7700959.778484497,7214318.0,1049466.0,2481334.0,4863006.178589135,815975.9342494311,1609353.6618239137,0.09866956416757214,0.08113968368948449,0.060118314620306645,0.10722202100688157,0.08634552698297718,0.11290595194977665,0.11100325968851865,0.059968610406857414,0.08505130991186768,0.07020161777133889,0.0456259809247857,0.08174815887963299,5.187061230359802,0.34505940995514855,0.6403914889330001,0.09836065573770492,0.48301154817299946,0.2792589540055297,0.006334413293193299,19367.13322444324,534.6628360330964,0.12427925544246458,Catherine,REC_20260520_190100.csv
left,3,brick,4.16,0.992,0.03225806451612903,50681.0,4.162662464982407,51964.39613812519,2437.5,0.6412310395427553,0.18945054945054945,0.5072527472527473,0.11241554619038063,0.46913314794109495,0.23962396748912648,4550.0,3322.0,-53.69999999999999,359.8968253968254,0.10833739476123583,3.0,-0.18333333333333332,2.816666666666667,1.0930763285295568,-0.4462603829702423,7787429.980532537,7271739.0,1348790.0,2438574.0,4685679.162883264,907276.1652560427,1462956.7136818976,0.095811473294917,0.07406133233947804,0.05555555555555555,0.10973500377473887,0.08470705159446883,0.11476161807287635,0.11334250738224248,0.06538898923004884,0.08586814215953288,0.07181560161692613,0.0470265569603318,0.08192616801888326,4.623960505009715,0.3000880266462484,0.6119760973100256,0.08064516129032258,0.4710492898603493,0.2713601684829297,0.0057599635801782135,1224.5008506870356,513.7302976475739,0.042332020977033646,Catherine,REC_20260520_190100.csv
left,4,brick,5.168,0.992,0.9838709677419355,49930.0,4.092691758959413,51427.10971851325,1607.638888888889,0.4229201870488543,0.19778980604420388,0.515787099684258,0.12284180444406403,0.4608160606363199,0.26657448586830396,4434.0,3338.1428571428573,9.900000000000006,396.42857142857144,0.1187572217229426,0.4426229508196721,-9.0,-8.557377049180328,0.9184971443284856,-0.8051685969594002,8120797.274050498,7335269.0,1872912.0,2938261.0,4753037.741129576,792972.4935690856,1596518.8237825928,0.09015087754335412,0.07331802209193401,0.05639957585008297,0.10685534680912778,0.08170591955416708,0.11335073679405429,0.11415433921532264,0.07032234442685077,0.0855860353870368,0.07595231641964213,0.05251946001721326,0.0796850258912141,4.548698745846323,0.3147786648985766,0.6061274319072648,0.08064516129032258,0.4847754218597813,0.25305385275729037,0.006319530074604626,1147.7170092550123,541.7475771271838,0.009237604307034188,Catherine,REC_20260520_190100.csv
left,5,brick,6.176,0.992,0.0,25264.0,1.7945593558127007,40466.84841941611,437.5,0.11509275068716121,0.19683615819209038,0.5175141242937853,0.11904078665442303,0.4585437710437711,0.25960615795385333,4425.0,3318.8571428571427,14.800000000000011,382.0,0.11509986225895318,0.0,-1.5161290322580645,-1.5161290322580645,0.792290263079799,-0.9614984281046968,12452507.44279115,10659598.0,4053701.0,5000542.0,4832994.464967371,965978.2126097323,1639230.0835805114,0.09237258953168044,0.07091750841750842,0.05721992653810836,0.10603669268441997,0.08069329660238751,0.11349288337924703,0.11661118763391491,0.0681626874808693,0.08740338996020815,0.07668541475359658,0.05087809917355372,0.07952632384450567,4.9729532479258935,0.2999039298224069,0.6138249987044487,0.08064516129032258,0.4631756883838097,0.20298191128926382,0.0047954854148636065,14462.592241134827,1004.812957969848,0.0,Catherine,REC_20260520_190100.csv
left,6,brick,7.184,0.96,1.0,24082.0,1.684432359116057,41733.64980444437,100.0,0.026306914442779706,0.18822222222222224,0.5155555555555555,0.10697079304150982,0.47328067714869226,0.22601977686030605,4500.0,3331.2295081967213,75.30000000000001,342.6393442622951,0.10285672104524987,0.36666666666666664,0.0,0.36666666666666664,1.0882986918321327,-0.41744121028039016,11650942.027389888,10053620.0,3352428.0,4840496.0,4802354.955667982,913215.7536783114,1615630.5383760715,0.09762555055239781,0.0795157599468517,0.05894047882680052,0.10719716542407913,0.08625279889766492,0.11363893604980192,0.11263994488324598,0.06063827169607047,0.08667601683029452,0.07045594350532713,0.04633252134543933,0.08008661204202654,5.067363186411774,0.3006721255843477,0.6162871439316422,0.08333333333333333,0.48084449389963596,0.22814753246920869,0.004214794736499282,14594.107166935564,791.212812562698,0.018475208614068202,Catherine,REC_20260520_190100.csv
left,7,brick,8.16,0.9919999999999991,0.016129032258064516,48987.0,4.0048324037268115,50065.221092091466,295.1388888888889,0.07764193498737067,0.19990850869167429,0.5210430009149131,0.11308408534720098,0.4659873049862343,0.24267632215961016,4372.0,3320.8888888888887,0.9000000000000057,362.1587301587302,0.10905475680636281,8.0,-0.8852459016393442,7.114754098360656,1.0181113910733872,-0.5723159526892285,7956236.051072706,7199657.0,1718974.0,2917492.0,4696904.896227558,837968.3198643227,1639650.9927998774,0.09496405628632609,0.07543878097277455,0.060473386356684006,0.10547950443560722,0.08361693178342001,0.11329917405934538,0.11409739216885899,0.06384310951361273,0.08815291373508718,0.07256137197919854,0.04924097583358825,0.0788324028754971,4.649267473332531,0.3150715757918844,0.6125286538967472,0.08064516129032258,0.4566448572136337,0.2507187480904942,0.005472868401583254,14050.129762152852,169.43638034848706,0.018475208614067956,Catherine,REC_20260520_190100.csv
left,23,brick,24.32,0.9600000000000009,0.016666666666666666,21344.0,1.4293327677832222,38623.67433323764,99.70238095238095,0.026228620054557145,0.19696626669685308,0.5254697758659724,0.11431590540399757,0.4725136799075273,0.24193141969201062,4417.0,3304.4754098360654,1.3000000000000114,363.8032786885246,0.11009410982621681,2.0,-0.6101694915254238,1.3898305084745761,0.9146286466797351,-0.8210078656621351,11613823.323770557,10130589.0,2772106.0,4956560.0,4838707.3097196445,944141.8462358552,1782078.0723830338,0.0918773843719149,0.07615107182013464,0.05740848228681421,0.10774260441626607,0.08667827536426011,0.11452426664285396,0.11468301806293502,0.06591656620678366,0.08741746166401256,0.07281729199843233,0.04839933919721392,0.0763842379683787,4.26009719965082,0.3036536351000955,0.5528684615163597,0.06666666666666667,0.472624533759683,0.10202812753714958,0.007040286154913194,15533.35512158701,1464.3962964559764,0.0890842298052794,Catherine,REC_20260520_190100.csv
left,24,brick,25.296,1.2639999999999993,0.012658227848101266,29327.0,2.1731092607014175,32378.363423743333,2821.4285714285716,0.742230800349856,0.17539046010975096,0.5527648796960742,0.10256381381381383,0.48752252252252254,0.21037759093276026,4738.0,3330.0,-53.80000000000001,331.3125,0.09949324324324324,4.0,-0.28205128205128205,3.717948717948718,1.1873822872436302,-0.37400421352723834,5938129.698291879,4728096.0,3153286.0,1721418.0,3427821.108408891,1051811.544845683,951073.4729328738,0.09448573573573574,0.08262012012012011,0.051580330330330326,0.10757507507507508,0.09962837837837837,0.11061561561561563,0.11180930930930931,0.05918918918918919,0.08708333333333333,0.07081831831831832,0.04337462462462462,0.08121996996996997,4.033984529260406,0.19191934602968816,0.5486213502608626,0.08860759493670886,0.4723203755251331,0.19170582634232414,0.004887447654526342,14824.472210953529,1633.6626329499484,0.15374437659092807,Catherine,REC_20260520_190100.csv
left,61,brick,64.64,2.1599999999999966,0.0,17721.0,1.0917776839998548,36778.8561540459,225.0,0.059190557496254334,0.17402393564842064,0.45516970767117915,0.0998676361424879,0.4818268001037446,0.20726874495341865,5097.0,3288.6176470588234,-16.30000000000001,322.0514705882353,0.09792913167520773,0.0,-0.2962962962962963,-0.2962962962962963,1.374489091993202,0.2596161209156054,11357906.845602361,9034696.0,3797138.0,5740911.0,4151623.8391362363,1116302.4377926101,1273151.5322555401,0.10323039360360603,0.09017734968205844,0.05323620688113189,0.10570998005598634,0.09036516326366345,0.11140028440342359,0.11032929981308076,0.05779292211102466,0.08417402269861286,0.06897006609249372,0.04207471403146325,0.08253959736345505,3.763434485657744,0.17629389505640466,0.5815442038820585,0.05925925925925926,0.36770363214980917,0.19337021342163396,0.005030811408728141,457.0196932312512,164.12559412884875,0.6185057261928404,Catherine,REC_20260520_190100.csv
left,106,brick,111.904,1.0559999999999974,0.9848484848484849,21244.0,1.4200157629865517,37339.021237841785,859.375,0.22607504599263809,0.19030837004405288,0.5222466960352423,0.12164935847606405,0.46344317993239764,0.2624903413051244,4540.0,3417.7014925373132,-14.300000000000011,403.2313432835821,0.11798319547919961,0.3230769230769231,-28.0,-27.676923076923078,0.7254222705127343,-1.1579386736388404,11733696.794695608,10100045.0,3148399.0,5075068.0,4553430.221892928,890443.8362608172,1445411.840153611,0.09473941638353436,0.07826679360310237,0.057304813394705355,0.10141668049575084,0.08793113989501541,0.1094346379254627,0.1143388678783856,0.06814390399413064,0.0863939280130663,0.07502205375001093,0.0535054544819334,0.07350231018490214,4.407272436639339,0.30673923227283834,0.6062606827512733,0.09090909090909091,0.498485753288274,0.23475676519719277,0.005029517430443132,1139.697474479101,420.2488282084732,0.018475208614066648,Catherine,REC_20260520_190100.csv
left,107,brick,112.976,0.9920000000000044,0.0,48968.0,4.0030621728154445,50066.81484776118,203.125,0.053435919961896276,0.18733333333333332,0.5153333333333333,0.11182365855142747,0.4608179524507211,0.24266341612052122,4500.0,3390.968253968254,60.599999999999994,365.85714285714283,0.1078916449391708,0.0,-0.0967741935483871,-0.0967741935483871,0.9558148459007095,-0.6296478780109709,8312573.468812772,7430564.0,1781283.0,3273015.0,4703436.80788063,914171.3776813666,1349698.548679076,0.09962037344767379,0.07989477182618628,0.0632492475342998,0.10038337132719503,0.08520299020273275,0.11009638114318614,0.11467436842031352,0.06249093062336458,0.0852404379514209,0.07345375905182301,0.04933272792806287,0.07636064054374131,5.0452100657347545,0.2931433189412941,0.6281773787828201,0.08064516129032258,0.4935214550412884,0.2620423944782842,0.004166012942905867,16039.75956802347,345.52100605462226,0.03199999999999699,Catherine,REC_20260520_190100.csv
left,108,brick,113.984,1.0080000000000098,0.0,20914.0,1.3892696471575396,38430.04529011122,546.875,0.1438659383589515,0.18628521511246998,0.5079711727451408,0.11034514223144833,0.4699728539817962,0.23479045927119407,4579.0,3424.765625,-39.400000000000006,364.671875,0.10648082669890732,0.0,-0.19047619047619047,-0.19047619047619047,1.045281656899229,-0.5080464653783685,11645539.672847325,10030407.0,3568674.0,4719544.0,4732842.480524378,1005818.0306987009,1393160.017140574,0.09696375208157493,0.07844971143098296,0.056728334511941966,0.10495699979469399,0.08720031024020804,0.11250313661975044,0.11272669206378173,0.06267308438077424,0.08686269589616077,0.0718342952300568,0.04767205785067409,0.08142892989940005,4.523102854414401,0.30367412365721946,0.6001518232343623,0.09523809523809523,0.4639696119873696,0.2798486681853725,0.00472836353931005,16102.56704172766,328.24898451226255,0.03330665599145388,Catherine,REC_20260520_190100.csv
left,109,brick,115.008,0.9920000000000044,1.0,24015.0,1.6781899659022879,39596.56427014849,937.5,0.24662732290105974,0.19669239250275633,0.518412348401323,0.11600065974544822,0.4633199857055153,0.25036834870988195,4535.0,3464.5396825396824,-47.400000000000006,388.1111111111111,0.11202386079371042,0.7741935483870968,0.0,0.7741935483870968,0.8511568409800596,-0.9215874176002048,11520829.762648912,10207558.0,3006678.0,4415333.0,4778596.885190911,739452.6456882834,1354821.512892391,0.0969779993219283,0.07551794599250457,0.05639907269112001,0.10363959572265034,0.08343489137107932,0.11317383376247331,0.11296308174429366,0.06514528144557559,0.08755371885680775,0.0732775604079426,0.05085537829987264,0.08106164038375194,5.1270937995498675,0.3048731992482384,0.6340163197725586,0.08064516129032258,0.4424300545913703,0.26432618076485304,0.003443601706479214,15380.156728720305,367.4367505095241,0.009237604307040148,Catherine,REC_20260520_190100.csv
left,110,brick,116.016,0.9919999999999902,0.0,24847.0,1.7557074458105852,39935.783415378246,437.5,0.11509275068716121,0.20063334087310564,0.5360778104501244,0.11487270557614879,0.47549717410607323,0.24158441276130832,4421.0,3378.6190476190477,-53.0,374.57936507936506,0.11086759406726707,0.0,-1.1129032258064515,-1.1129032258064515,0.9084805745943342,-0.8181453756861559,11752926.79457917,10385930.0,3538131.0,4212526.0,4856007.123242853,907846.9310729039,1283471.621851864,0.09030645562900216,0.07360478828111419,0.054023199109244406,0.10880278877911045,0.08467346008747821,0.11717476380412774,0.11468948053351374,0.0661818250153862,0.09124137315424259,0.07181012247889389,0.04869088056076259,0.07880086256712379,5.236585984571638,0.3237357306807477,0.6445107559546638,0.0967741935483871,0.4472558434359054,0.29131218637754797,0.0054321639540455,2072.7161728838046,262.85318501969533,0.009237604307044242,Catherine,REC_20260520_190100.csv
left,111,brick,117.024,1.024000000000001,0.984375,48590.0,3.96784389468403,49994.716570853765,2714.84375,0.7141916225676521,0.19185918591859186,0.508030803080308,0.11259516194423173,0.4639983783053291,0.24266283506290331,4545.0,3415.230769230769,4.900000000000006,371.5923076923077,0.10880445065093024,0.6507936507936508,-20.0,-19.349206349206348,0.9310635107052917,-0.7569319291366332,8056913.764244098,7392691.0,1418429.0,2872288.0,4626956.254652503,740469.8854958167,1384339.655938873,0.09899545024550657,0.08105320059462139,0.05868732825802965,0.1029595927744493,0.08621559529708546,0.10907248074237579,0.11258164782197397,0.06292625793954683,0.08469750889679716,0.07444029010315781,0.0496689040046849,0.07870174332177125,4.358309804538495,0.3053241996068283,0.5980725515213978,0.09375,0.47282422639385985,0.30576868666976986,0.006580838548023832,13954.407296621397,1196.888003764214,0.018475208614071478,Catherine,REC_20260520_190100.csv
left,112,brick,118.064,0.9920000000000044,1.0,46613.0,3.783646709853857,47985.5229522405,2960.9375,0.7789312948291803,0.19969378827646544,0.5240594925634295,0.10336718332442545,0.4847024376641182,0.21325905399302494,4572.0,3415.3174603174602,-2.0,339.08730158730157,0.09928427021123323,1.1129032258064515,0.0,1.1129032258064515,1.3443803872442721,0.3287424688146765,8253944.341948642,7671245.0,1683544.0,2538755.0,4702434.187699518,742592.6183321642,1758914.3874304744,0.09287755908256455,0.07744289266376966,0.051025956823832874,0.10927892547579765,0.08956382311249507,0.11715195315223201,0.11400553063927683,0.05953105756047685,0.09126484325982386,0.06838937559547324,0.0438361257639486,0.08563195687030883,4.664650769459964,0.271419914732293,0.5961368032098012,0.08064516129032258,0.48391932221982153,0.1789898349886067,0.007808122969174462,13174.453397896004,1391.3179307081084,0.018475208614071478,Catherine,REC_20260520_190100.csv
left,113,brick,119.072,1.0559999999999974,0.030303030303030304,21703.0,1.4627808150032688,33369.89856142808,107.14285714285714,0.028185979760121112,0.2109304426377597,0.5481029810298103,0.11240915633886882,0.48145823824737566,0.23347644179482038,4428.0,3400.955223880597,43.599999999999994,368.92537313432837,0.10847698627251344,6.0,-1.0,5.0,1.0566014911771175,-0.43492956993317833,10965509.393374026,9503841.0,2995683.0,4576602.0,4581122.295900056,793762.7073892363,1281169.3778740652,0.08822806586384863,0.07278464347154444,0.05160973212091423,0.11095214689463892,0.08569146508443634,0.11840396025699541,0.11649053821577783,0.06523189270793105,0.09362602253976056,0.07069567812379314,0.04717726363093776,0.07910859108942175,5.299884456636612,0.33474617799531803,0.6576537902916972,0.07575757575757576,0.4152072007286072,0.16898069396891102,0.005047872003635763,14985.144855266952,1581.392316072407,0.03199999999999701,Catherine,REC_20260520_190100.csv
left,114,brick,120.144,1.1039999999999992,0.057971014492753624,23005.0,1.5840882174559172,37729.08704169768,218.75,0.057546375343580605,0.19249775381850853,0.5103324348607368,0.13746682629115842,0.4495508468190913,0.3057870478139447,4452.0,3412.7714285714287,45.80000000000001,457.0,0.1339087628822825,2.75,-0.046153846153846156,2.703846153846154,0.30003227673743804,-1.7555252813346784,12189762.005977064,10376156.0,3755599.0,5178915.0,4555543.49595946,1006380.370905394,1363756.792077055,0.09481192495416377,0.07297378753756896,0.05655227841636876,0.10212897770559327,0.08022386497777256,0.11015345718184634,0.11575008162616054,0.07599604845663765,0.08407075941631016,0.08140011888117743,0.06147077783452074,0.06446792301187974,4.847975889442004,0.26832081175120154,0.573627293376366,0.10144927536231885,0.4630896061047656,0.29119875714945426,0.0019728066606967396,14021.061348319316,1616.3844583459045,0.05619015334854521,Catherine,REC_20260520_190100.csv
left,115,brick,121.264,1.0559999999999974,1.0,21684.0,1.4610105840919014,36434.406403837565,98.4375,0.025895868904611274,0.19731243001119822,0.5191489361702127,0.13352047761831465,0.45124164746287515,0.29589573207382536,4465.0,3354.955223880597,-47.400000000000006,434.9925373134328,0.12965673408013098,0.3787878787878788,0.0,0.3787878787878788,0.4283484142731096,-1.6152251555008372,11553635.583024202,10264979.0,2704911.0,4560719.0,4453431.6682798425,779385.5898229529,1570244.3008929037,0.08951339520068333,0.0663487289907555,0.058082942584370634,0.1039540532604924,0.076972355437713,0.11323415575980283,0.11912430710644091,0.07499265955459068,0.09073235401411146,0.08032671655203709,0.058527818063723966,0.06819051347527827,3.7230086072461637,0.11143082057691335,0.46271649155887773,0.09090909090909091,0.43618041389472073,0.12801381534752757,0.0019942428517375965,757.2544706596882,67.09077834789328,0.02771281292110293,Catherine,REC_20260520_190100.csv
left,116,brick,122.336,0.9279999999999973,0.0,22349.0,1.5229686659897594,36991.339216092194,234.375,0.061656830725264934,0.20674315148677125,0.5422617653945212,0.12274214730134125,0.4694342181747724,0.26146825806285984,4271.0,3149.084745762712,-20.400000000000006,371.73728813559325,0.11804613662296283,0.0,-0.3620689655172414,-0.3620689655172414,0.873362490162449,-0.9804126918915914,11762283.372013489,10635163.0,3078760.0,3970624.0,4971921.113248314,896117.7365911002,1382860.8387091078,0.08288660681607786,0.062460978707830093,0.053300393980494735,0.1118000387521798,0.07708992658614824,0.12053542595104308,0.12406618011152017,0.07247734073930548,0.0975478481775711,0.07488320523585007,0.05026480656203578,0.0726872483799436,4.051240579002995,0.25520770972567797,0.4911949068875426,0.06896551724137931,0.45489827339708844,0.13631988260318958,0.0055049052472741795,660.5051097461285,74.38440941878358,0.09097985124923823,Catherine,REC_20260520_190100.csv
left,117,brick,123.28,0.9759999999999991,0.04918032786885246,21043.0,1.4012885833452444,36870.4760614777,0.0,0.0,0.1988290925467237,0.5352398108534114,0.11852911746080853,0.4735025547568752,0.25032413504419954,4441.0,3336.5967741935483,26.80000000000001,381.71774193548384,0.11440331804185257,1.3333333333333333,-0.9482758620689655,0.38505747126436773,0.847272267001358,-0.987560801074411,10984624.119207494,9820269.0,2460565.0,4262617.0,4722468.504277777,632084.5784234747,1554091.327041901,0.0904582126853226,0.07261600336444803,0.053570133756145194,0.1092962212801338,0.08366164094185209,0.11805538770912993,0.11623297835828471,0.06854579468165845,0.08987330146131127,0.07238880644272462,0.049983322779150095,0.07531819653983922,4.98161938267847,0.2846697978914833,0.616583950959499,0.08196721311475409,0.42710392637153854,0.29350671230532954,0.004504891762177022,653.0367524119645,117.68643786030715,0.06466323014923862,Catherine,REC_20260520_190100.csv
left,118,brick,124.272,1.0719999999999885,1.0,40459.0,3.2102782346667627,42162.28039373582,375.0,0.0986509291604239,0.1971111111111111,0.5204444444444445,0.12239270372199328,0.4619519379099677,0.264946834676486,4500.0,3365.1323529411766,-36.69999999999999,399.1029411764706,0.11859947821298875,0.5671641791044776,0.0,0.5671641791044776,0.7509827716610052,-1.1953667131257388,8187822.918089277,7170336.0,1323134.0,3725056.0,4579376.861581045,635406.2890308129,1660077.1789430303,0.0972603996871026,0.07831612251943591,0.058467239729230125,0.10399905606369822,0.08324556765095333,0.11239397104387994,0.11364381262864409,0.06776676033195092,0.08399722063200032,0.07475014093493394,0.05462594339004234,0.07153376538812825,4.398547851919092,0.2643632105692513,0.5549619976284921,0.11940298507462686,0.3976589312002038,0.29372839116983585,0.0021689980255341712,10852.486596782044,189.44305707784034,0.07332121111928902,Catherine,REC_20260520_190100.csv
