foot,step_id,surface,contact_time_sec,stance_duration,time_to_peak_frac,impact_mag,impact_mag_norm,accel_mag_strike,loading_rate,loading_rate_norm,heel_pmax_ratio,fore_pmax_ratio,heel_mean_ratio,fore_mean_ratio,heel_fore_ratio,total_pmax,total_p_mean,midstance_diff,heel_impulse,heel_impulse_norm,rise_slope,fall_slope,slope_asym,heel_skew,heel_kurt,gyro_mag_strike,gyro_x_strike,gyro_y_strike,gyro_z_strike,gyro_x_std,gyro_y_std,gyro_z_std,pressure_01_mean_ratio,pressure_02_mean_ratio,pressure_03_mean_ratio,pressure_04_mean_ratio,pressure_05_mean_ratio,pressure_06_mean_ratio,pressure_07_mean_ratio,pressure_08_mean_ratio,pressure_09_mean_ratio,pressure_10_mean_ratio,pressure_11_mean_ratio,pressure_12_mean_ratio,accel_spec_centroid,accel_hf_frac,accel_spec_entropy,accel_zcr,accel_jerk_ratio,gyro_hf_frac,heel_ripple_frac,impact_mag_roll3_std,loading_rate_roll3_std,stance_duration_roll3_std,source_user,source_recording
right,10,grass,11.504,1.056000000000001,1.0,14840.0,0.779854227431502,36190.13505086711,1140.625,0.29503996256675347,0.2170608108108108,0.49915540540540543,0.13912755028310933,0.4446984327171927,0.3128581979318984,5920.0,4544.417910447762,-5.699999999999989,614.0223880597015,0.13511573982842653,1.9242424242424243,0.0,1.9242424242424243,0.663373033485905,-1.3373452031716726,11046790.570113927,8941845.0,1893682.0,6203947.0,4165088.5553049147,1277938.8261896763,2085186.5041014336,0.08027233673590035,0.08991841721514995,0.06295077444527647,0.10080597485516099,0.08103101722303235,0.09304510043484543,0.10469790722421471,0.06533191450229246,0.07989792298900406,0.09299583546814855,0.07379563578081687,0.07525716312615773,4.657136952664193,0.2589824454247971,0.6174878618079089,0.06060606060606061,0.5196141845126303,0.15013683884757775,0.003733938733264388,1371.132378729353,326.4777601377822,0.056190153348548724,Catherine,REC_20260519_154549.csv
right,11,grass,12.576,1.1679999999999993,0.0273972602739726,14568.0,0.755373070101556,34255.16803345153,773.4375,0.20006134448019586,0.22078576225654803,0.4924445936870383,0.14810289610919775,0.43436175778936653,0.3409667021859328,5956.0,4700.621621621622,-56.19999999999999,678.777027027027,0.14440154551151946,12.0,-0.43661971830985913,11.56338028169014,0.5112998175721264,-1.475510448039301,11037062.538782816,8841663.0,2269975.0,6203947.0,3943504.385200989,1385302.1799743334,1987275.1645919345,0.08061038505545558,0.09089942100814728,0.062119443661850356,0.0988512157678973,0.08259402149226956,0.08743811916767764,0.1049228681657975,0.07039321998815568,0.07457898035337476,0.09609424860426741,0.07770967612104207,0.07378840061406484,4.22453956939365,0.19922374077069435,0.5479938947171273,0.0958904109589041,0.5153550951957252,0.11758581714773622,0.0006565320737043458,1546.3626137919105,184.27124552431752,0.11200000000000011,Catherine,REC_20260519_154549.csv
right,12,grass,13.76,0.9600000000000009,1.0,15788.0,0.865178261066755,36391.18916715968,520.8333333333333,0.13472144409440795,0.215312604480107,0.5048478769642261,0.14235580648732427,0.4472600464961807,0.3182842008859565,5982.0,4442.459016393443,-1.8999999999999773,611.4262295081967,0.13763238495885455,0.26666666666666666,0.0,0.26666666666666666,0.7367317367517561,-1.2295096107143997,11456882.145677635,9093339.0,1563815.0,6791599.0,4515509.216378717,1300411.0532861657,2255279.5309549943,0.08063397173327429,0.09119155688401787,0.053935569578213216,0.10065685080630281,0.08142735894313442,0.09237979261227351,0.10535075095021956,0.068917672238828,0.08160448725045204,0.09122107826857079,0.07343813424849625,0.0792427764862172,4.532570853261915,0.29592664781938205,0.5223955819460118,0.08333333333333333,0.49145176059044726,0.10387251081341199,0.0005609060086606978,640.4540056345601,311.6561233269384,0.10410251357836256,Catherine,REC_20260519_154549.csv
right,13,grass,14.736,1.0399999999999991,0.0,10452.0,0.3849155569763435,31430.37136274403,625.0,0.16166573291328956,0.21119511018175968,0.49010776902042785,0.10653092637349283,0.47946342978275247,0.22218780360728052,6217.0,4488.666666666667,54.69999999999999,459.3030303030303,0.10232504759461539,0.0,-2.0615384615384613,-2.0615384615384613,1.7313237219431958,1.4500688031697582,10427679.045894632,7652919.0,2091602.0,6767165.0,3896990.3421388003,1546983.428267211,1910228.2524892222,0.09138841256767885,0.10193348905661397,0.05943251016026895,0.10460013772058922,0.08948800345651674,0.09598922538919569,0.10012421857067631,0.05444013880075071,0.0874525741598369,0.07810580181737169,0.05209078757274212,0.08495470072775879,4.248785043385171,0.17256710366915035,0.5502579149784742,0.06153846153846154,0.3771056667515859,0.06927703243213286,0.006267869204333039,2795.9122542264026,126.9470039478774,0.10491901638883125,Catherine,REC_20260519_154549.csv
left,10,grass,11.008,1.008000000000001,0.9841269841269841,37319.0,2.8030598730927387,39075.33161727485,4000.0,1.0346606906450533,0.19747899159663865,0.5181335692171606,0.10492450117272775,0.465761604272455,0.22527511973975758,4522.0,3270.953125,-69.80000000000001,329.6875,0.10079248689936515,0.5483870967741935,-22.0,-21.451612903225808,1.102542235676501,-0.41473058927170303,6602929.108670106,5886297.0,2107485.0,2123367.0,4015376.4176586154,833764.3484596177,1086369.3000496842,0.10036256633913089,0.0784796098232071,0.06047549213961909,0.11316464524388438,0.08163236059825835,0.11023640853917771,0.11089562006487023,0.05431807433804176,0.08224858006792744,0.08020884585437157,0.05060642683468599,0.07737137015682546,3.9568923519278987,0.19678472787287912,0.5185357839463776,0.06349206349206349,0.4132957992099159,0.3120583712244284,0.006731721895794339,17393.87860714223,1719.7703200438439,0.02771281292110204,Catherine,REC_20260519_154549.csv
left,11,grass,12.032,1.1199999999999992,1.0,14477.0,0.7471826829066108,35244.4960951352,437.5,0.1131660130393027,0.20352839931153185,0.53184165232358,0.10718407976489656,0.46080927316038933,0.23259965892119205,4648.0,3441.0985915492956,65.30000000000001,355.9577464788732,0.10344305372506324,0.9142857142857143,0.0,0.9142857142857143,1.0472729239369674,-0.5586508481652452,10332527.7856721,9191078.0,1849699.0,4343251.0,4316788.095502441,634051.0361994721,1351216.869927604,0.10253440188606652,0.08062443209260063,0.06094516163360866,0.11011468659697608,0.08130387445869729,0.10859617383901309,0.1099141283081885,0.05441678468225837,0.08017010617310227,0.08006368748925581,0.0527672950826382,0.0785492677575946,4.591748492765788,0.22433988919772752,0.5530258484091329,0.11428571428571428,0.4806271345619493,0.22815168664319574,0.003977549025026726,12438.931076798095,1988.5741332254463,0.08210562303114924,Catherine,REC_20260519_154549.csv
left,12,grass,13.168,1.040000000000001,0.015384615384615385,43019.0,3.3160841259629312,44723.33611214619,2569.444444444445,0.6646257908657461,0.2074652777777778,0.521484375,0.12295960809686662,0.4471439134855347,0.2749888892332212,4608.0,3278.4848484848485,-58.400000000000006,389.04545454545456,0.11866623532674,2.0,-0.8125,1.1875,0.7313116349725531,-1.156179614135572,6781120.897796323,6174625.0,1685988.0,2239431.0,4177302.2564191106,695059.102243029,1354502.2459110543,0.09910805065163139,0.07546446067104169,0.05946020889176449,0.10855439504575283,0.07698493391256124,0.10499584065070709,0.11567150383584435,0.06390146963675016,0.08114428320547185,0.08452259913115816,0.05905813846011646,0.0711341159072003,3.8273768250990052,0.10941701065727151,0.45587254270404554,0.09230769230769231,0.521066050484495,0.1413010147252022,0.0033069135930488573,15104.594930020468,1792.720584369299,0.05768882040742288,Catherine,REC_20260519_154549.csv
left,13,grass,14.224,0.9759999999999991,0.01639344262295082,13194.0,0.6317072238833727,34754.073804375796,1136.1607142857142,0.2938852073316585,0.19716157205240176,0.5277292576419214,0.09818916765081469,0.46921296963063247,0.20926354130417057,4580.0,3359.7096774193546,-48.10000000000002,317.43548387096774,0.09448301024474082,1.0,-4.35,-3.3499999999999996,1.1333551706375171,-0.10990407243780131,10542966.881560855,9326690.0,2730567.0,4087910.0,4085149.1427855557,657702.1974621414,1333271.77232557,0.10234179220554772,0.08094017340207968,0.060729133661702725,0.11323463048842547,0.08241399506485776,0.11046941459995584,0.11144396117176024,0.051386928594060556,0.08215475607531372,0.07955276473581627,0.04680223905675414,0.07853021094372593,3.5259153307384605,0.22436624533896377,0.44570776613983115,0.06557377049180328,0.3765057436272089,0.10634706547573465,0.004328921636063032,16861.30915241558,1086.862162298842,0.07214799604516628,Catherine,REC_20260519_154549.csv
left,14,grass,15.216,1.072000000000001,1.0,9944.0,0.33919339549247374,32910.03260405556,0.0,0.0,0.1960576515472658,0.5228910555320051,0.0820182282431378,0.49061990212071777,0.1671726480898174,4718.0,3317.4117647058824,15.900000000000006,260.36764705882354,0.078485176253635,3.8208955223880596,0.0,3.8208955223880596,1.9357605271600997,2.8363637812593145,9489448.42724307,7816631.0,2568077.0,4728096.0,4051560.477787443,893381.7773994438,1185188.5480743889,0.10297272856230939,0.08158823320802894,0.05781438399886516,0.1177565784807433,0.08614086105397545,0.11666164266969288,0.10619547485637279,0.04358021845520958,0.08847258670827718,0.07026650826299737,0.03843800978792822,0.09011277395559969,3.5144331677523524,0.18694703904826473,0.5052155495055518,0.05970149253731343,0.4337713512475047,0.19893344280188577,0.01840700418054626,18230.234730615328,1287.5822415746482,0.048880807412863235,Catherine,REC_20260519_154549.csv
right,25,grass,26.112,1.056000000000001,0.0,7920.0,0.17861804387819225,30751.179652169445,520.8333333333334,0.13701517938947763,0.2079817158931083,0.47028832630098455,0.1405714368454775,0.43167264552888496,0.32564360586983804,5688.0,4123.149253731343,-58.19999999999999,562.3059701492538,0.13637778686773985,0.0,-0.7424242424242424,-0.7424242424242424,0.9216132194672441,-0.9628969635001634,10624272.571566112,8185594.0,1965764.0,6481280.0,3942334.0402499684,1406487.556707255,1906115.0650255275,0.09144944271694944,0.08611009552906596,0.05809571730057086,0.10167565004289576,0.08058975352125422,0.0883761506745677,0.10807200697916025,0.06925947779374554,0.07492099576110131,0.08995080560794351,0.07131195905173195,0.0801879450210135,3.541388432139418,0.12856436510700847,0.46340976715238036,0.09090909090909091,0.37537800667628207,0.038726697924747276,0.0025181180961554254,3519.62928919131,947.4303473379994,0.16342990342447614,Catherine,REC_20260520_190100.csv
right,26,grass,27.184,1.1039999999999992,1.0,10748.0,0.4421029395280302,32157.391218816243,398.4375,0.10481661223295038,0.20312774556316993,0.4688104023897382,0.1403816290214008,0.4350044321218867,0.32271310050006824,5691.0,4286.885714285714,31.5,585.3071428571428,0.13653434727841057,0.043478260869565216,0.0,0.043478260869565216,0.8159732512678801,-1.1359308064653608,11028367.891274076,8412836.0,1696983.0,6925990.0,4023112.967945265,1316192.2082150388,1893439.0922501925,0.09180823908131777,0.08987876647049807,0.0566645117001353,0.10208542998247146,0.08142107823861479,0.08797928566191908,0.10546117394578816,0.06804140201678209,0.07363987176838331,0.09085849867702828,0.07234022700461874,0.07982151545244301,3.611527852074849,0.09865460387936033,0.45484159128559837,0.08695652173913043,0.4972042905798683,0.09445403678843498,0.0016774814026969138,1439.47640943967,909.4335148063376,0.13607840876984661,Catherine,REC_20260520_190100.csv
right,27,grass,28.304,0.9760000000000026,1.0,9662.0,0.34092026743619,34836.1193447261,506.25,0.13317875436657226,0.2092143716692453,0.46948598934158503,0.14778250606073876,0.425453908529619,0.3473525641623405,5817.0,4051.7258064516127,25.69999999999999,579.6693548387096,0.14306727121457602,1.0655737704918034,0.0,1.0655737704918034,0.9055193908587997,-0.9264623371136613,11220143.471486183,8605869.0,1325577.0,7076262.0,4436113.531200782,1806448.83751937,2148044.058044753,0.08643071251995367,0.07997388607801535,0.056821665001373374,0.10154573718089066,0.07767299478119638,0.08931279781216288,0.11426035102525009,0.07430923501335551,0.07694849267735374,0.08931279781216288,0.07347327104738324,0.07993805905090225,3.271756168070196,0.20070438097506502,0.4587780988462154,0.06557377049180328,0.48906639930507967,0.16588906196466585,0.0031364765547532572,1426.6244542041625,66.85425539275968,0.06466323014923647,Catherine,REC_20260520_190100.csv
right,28,grass,29.296,1.1039999999999992,1.0,13740.0,0.7208677230444076,34071.719798096485,335.9375,0.08837479070621307,0.22419928825622776,0.4711743772241993,0.15573196279057236,0.41306236822783704,0.37701803594120875,5620.0,4241.628571428571,-63.30000000000001,643.0142857142857,0.1515960850616677,0.927536231884058,0.0,0.927536231884058,0.6187736216558389,-1.4177011542915292,11326410.086883707,8741481.0,1464854.0,7051828.0,4285918.38032133,1474013.0750103327,1924308.4272897777,0.08711950261691938,0.08212815832193833,0.06352344449908054,0.09748614076803384,0.07533157749381976,0.08544898522804582,0.11250058939625616,0.07598159736489354,0.07266750641599926,0.09450884767979954,0.07975036542567882,0.07355328478953502,4.5873956002889065,0.2340285142443666,0.568364661149116,0.10144927536231885,0.5530234017458996,0.1880960412710863,0.0013165673550965017,2111.9321327479543,86.15502772376854,0.07390083445627019,Catherine,REC_20260520_190100.csv
right,29,grass,30.416,0.9920000000000009,0.0,13639.0,0.7114575481997705,35069.35695161803,364.5833333333333,0.09591062557263434,0.2199582027168234,0.4726576105886451,0.14592835074297486,0.4348720023539797,0.3355662124785708,5742.0,4315.555555555556,45.80000000000001,609.7619047619048,0.14129395321465354,0.0,-0.0967741935483871,-0.0967741935483871,0.8365730585957344,-1.0136485390960035,12396681.218810016,9110444.0,1023810.0,8344419.0,4655564.785720791,1344564.0908195225,2382560.640415068,0.0872333382374577,0.0854862439311461,0.052662939532146534,0.10254891864057672,0.08081506547006032,0.08970501691922908,0.10615712814476976,0.07131087244372517,0.07631675739296748,0.09078637634250404,0.07461747829924967,0.08235986464616743,4.69379265062167,0.20899437740535382,0.5730057371415227,0.0967741935483871,0.5025258363253009,0.1677500767868966,0.0013042431760469726,2325.8265197559317,91.19244839719967,0.06974238309664929,Catherine,REC_20260520_190100.csv
right,30,grass,31.424,0.9919999999999973,0.0,14577.0,0.7988510531925385,34564.09561958768,617.1875,0.162362987576531,0.2164509536784741,0.4606607629427793,0.14536907691966564,0.436898083475613,0.33272994874032785,5872.0,4295.142857142857,8.699999999999989,605.2460317460317,0.14091406313517668,0.0,-2.1129032258064515,-2.1129032258064515,0.8722913791157731,-0.9527194188848549,11673494.834734412,8868541.0,1877799.0,7354817.0,4463318.291294395,1321119.3880567194,2214295.193044857,0.09172413283369181,0.0922119485280531,0.05485339660155067,0.09911897529139597,0.0862657708596643,0.08674989098058346,0.10461798857328691,0.07152412839900368,0.07255149781591609,0.08858289540788045,0.07384494852066197,0.07795442618831164,3.925214770443417,0.13731463373061256,0.5159712566617045,0.06451612903225806,0.46406105002330317,0.05588685549843907,0.00306779508296456,514.8808923754327,154.77457332344252,0.06466323014923823,Catherine,REC_20260520_190100.csv
right,31,grass,32.432,1.0079999999999956,1.0,11208.0,0.48496116159271385,31716.725997492238,362.84722222222223,0.09545390830800275,0.21316725978647688,0.49110320284697506,0.1414475984380923,0.4358767697511032,0.32451281704869495,5620.0,4245.609375,-67.89999999999998,582.1484375,0.1371177576834892,0.6825396825396826,0.0,0.6825396825396826,0.822349721931094,-1.0344149615407348,9286403.946328094,7411017.0,1740965.0,5318192.0,4159211.0967366397,1579900.7234314578,1690131.5254647576,0.09107202661573169,0.09218346895137992,0.055421225604392776,0.09951089176686209,0.08296070572908042,0.08746167916119225,0.10715481802891959,0.06876957445007525,0.07376002414258848,0.08976552983044984,0.07267802398801704,0.07926203173131066,3.7462420301202357,0.16277464446275944,0.5256795766928274,0.07936507936507936,0.442874745965392,0.17287223338680854,0.004068358193910866,1738.7622992615532,146.34483022370387,0.009237604307033048,Catherine,REC_20260520_190100.csv
right,32,grass,33.456,1.0879999999999939,0.014705882352941176,10016.0,0.3739024644164031,30526.987306316358,310.7638888888889,0.08175239036905499,0.20898876404494382,0.481590319792567,0.14552910615902742,0.4333242128517719,0.33584346741484894,5785.0,4290.391304347826,50.30000000000001,607.6159420289855,0.1416224998902164,2.0,-1.537313432835821,0.4626865671641791,0.7102628277555149,-1.2721978017379911,8460836.196411913,7882605.0,879645.0,2945592.0,3939049.375834727,1753666.205504067,1666426.2600569013,0.0829558467353743,0.08768836327891445,0.06058026530467476,0.10028476170208453,0.08119930954576624,0.08928951448636488,0.10786151731033622,0.07182885923043403,0.0748622638386418,0.09208646216520232,0.07370024692859338,0.0776625894736131,4.260854085252059,0.19960451216873668,0.5679338502398572,0.08823529411764706,0.4760387457462657,0.1510965040054498,0.0033029771925364724,2365.5072042446463,163.9598934483479,0.051432804058627636,Catherine,REC_20260520_190100.csv
right,33,grass,34.56,0.9919999999999973,1.0,14730.0,0.8131060705314441,32407.03375812109,350.0,0.09207420054972897,0.20412480169222633,0.4794641283271638,0.12631328737817923,0.45314219889927043,0.2787497780717469,5673.0,4340.555555555556,-25.80000000000001,530.1904761904761,0.12214806823791848,0.6129032258064516,0.0,0.6129032258064516,1.105209044753757,-0.3978977482850836,10623350.786252847,8098851.0,2306627.0,6476393.0,4254082.430547595,1823099.5060105433,1796457.2238976737,0.08689546726152383,0.09469931067268837,0.060642518878791754,0.1058711671024483,0.08775849774185882,0.08895796383317182,0.10542868113583587,0.06290980234407854,0.07585525954910315,0.08555703863524163,0.06340348503410068,0.08202080781115723,3.822437921043086,0.1929649000358569,0.5555343859781787,0.08064516129032258,0.43692577753931916,0.11448251411879884,0.003923560510398782,2451.0930894874887,27.132996962683237,0.051432804058627636,Catherine,REC_20260520_190100.csv
right,34,grass,35.568,1.0560000000000045,0.0,13653.0,0.7127619288713043,32719.612314329155,432.29166666666663,0.11372259889326643,0.1968030250945342,0.4635613612925404,0.1337660466424695,0.443353894076722,0.30171393198421315,5818.0,4350.6567164179105,69.10000000000002,565.0074626865671,0.1298671670771954,0.0,-0.25757575757575757,-0.25757575757575757,0.9381385096157739,-0.856040814733849,11858682.49807857,8532565.0,1894903.0,8014551.0,4242851.994710997,1508035.6822516744,2153794.572393162,0.08896238001468297,0.08881486411384111,0.055582619196278486,0.10613597535455276,0.08290393627313083,0.09095212937487564,0.1052543105518467,0.06660171392893165,0.07454698896032166,0.08779597521732865,0.06716433271353785,0.0852847743006717,4.202803399415681,0.22467869141398808,0.5783935667056157,0.09090909090909091,0.43796350000756773,0.11402820495741033,0.003667870865509355,2470.1381202947587,62.022027793231416,0.048880807412861715,Catherine,REC_20260520_190100.csv
right,35,grass,36.64,1.024000000000001,0.015625,10777.0,0.4448048709190646,33547.8997703284,1125.0,0.2959527874812717,0.1979020979020979,0.4695804195804196,0.14073971856302256,0.43548073214658506,0.32318242386800833,5720.0,4348.015384615384,-16.19999999999999,594.8384615384615,0.13680688979233674,7.0,-0.5396825396825397,6.4603174603174605,0.7052469417456828,-1.268645498826396,10264020.761338707,8200254.0,2111150.0,5800776.0,4171180.7320629163,1320511.7454249493,1792016.380154609,0.08911227403483818,0.09149355497291427,0.06121625781523666,0.10101867872521858,0.08259824995311743,0.08680175924648204,0.10755393265185531,0.06914914319884226,0.0735684892488527,0.09021622597046929,0.0715905753641803,0.07568085881799301,4.15686101749552,0.2408272060266493,0.5889186653110393,0.078125,0.4860216014826683,0.12719186879909725,0.002498893200346029,2043.5881026599577,425.6841069526051,0.03200000000000382,Catherine,REC_20260520_190100.csv
right,36,grass,37.68,1.0559999999999974,1.0,12624.0,0.6168899495135662,32497.51950534071,1921.875,0.5055860119471725,0.2007454739084132,0.48260560880369185,0.13639893711495665,0.4416161982008964,0.30886307538211066,5634.0,4285.7164179104475,-3.8999999999999773,567.9626865671642,0.13252456093305426,0.5606060606060606,0.0,0.5606060606060606,0.8207003556588173,-1.076995926431064,11058930.054922944,8217359.0,1704314.0,7202101.0,4324145.295025163,1456795.9405589716,1960923.0763291141,0.08741289183438218,0.08648652413605765,0.056027832821973725,0.10566860414497306,0.08217508349498334,0.09063428326652576,0.10732631476302748,0.06676464340067494,0.07665170315835665,0.08861786635927048,0.06963429371428174,0.08259995890549308,3.91175826185064,0.22165246458754323,0.5746672880937599,0.09090909090909091,0.5082754170364198,0.1292823006020699,0.0030676351477418413,1457.2591853659137,745.3984513487721,0.01847520861406843,Catherine,REC_20260520_190100.csv
right,37,grass,38.752,1.0399999999999991,0.09230769230769231,10849.0,0.4515131143726673,32501.6540502172,218.75,0.057546375343580605,0.2028985507246377,0.4723240789243932,0.1467909297209278,0.433336220486081,0.3387460424060383,5727.0,4373.257575757576,-4.699999999999989,624.9469696969697,0.14290193496977152,4.833333333333333,-0.847457627118644,3.985875706214689,0.6570597543387001,-1.3595711447320535,11279553.413284631,8611978.0,1310916.0,7165449.0,4355432.555306215,1348789.2100678158,2087346.8598251578,0.08904671990576334,0.08980546364785975,0.052976943198156844,0.10182756768929617,0.08249519289067507,0.08737332617319452,0.10219134893550678,0.07017167010237843,0.07183467008505551,0.09159665321253485,0.07661925961854937,0.08406118454102933,3.8430460202995462,0.22708775288950117,0.5684427932892601,0.09230769230769231,0.5171235631394594,0.18110328548628232,0.0023116874187255397,1046.200904861646,852.147639178994,0.015999999999998706,Catherine,REC_20260520_190100.csv
right,38,grass,39.808,1.024000000000001,0.109375,13529.0,0.7012088429234331,32535.167250223258,453.125,0.11920320606884555,0.19859278803869834,0.47634124890061563,0.14830413596767142,0.4323093818972779,0.34305093106406626,5685.0,4328.630769230769,-39.39999999999998,624.8846153846154,0.1443608033807102,2.5714285714285716,-0.3684210526315789,2.203007518796993,0.590987642705709,-1.463263304035061,11532974.621989116,8265006.0,1999972.0,7790975.0,4266843.434948174,1296890.005949747,2281859.667944158,0.08681018335874553,0.08742149764892788,0.05532038910865401,0.10318416553822313,0.07935001652681076,0.08820696542875524,0.10582134695284706,0.07090179520260448,0.07414673675456086,0.09215562924499131,0.07740234076506694,0.0792789334698128,4.1379063768667255,0.2357290644296063,0.5773077198706671,0.078125,0.4702619159971129,0.133244067233315,0.0027577049568678577,1363.332314588044,923.1100484006947,0.015999999999998706,Catherine,REC_20260520_190100.csv
right,39,grass,40.848,1.024000000000001,0.078125,16649.0,0.9918993925795485,36314.09292547454,307.29166666666663,0.0808389558397918,0.20039118065433856,0.4879089615931721,0.1428669509286695,0.4390872298908723,0.3253725938786701,5624.0,4257.538461538462,52.89999999999998,591.2307692307693,0.13886680638866805,4.4,-0.3050847457627119,4.094915254237288,0.7622690280880651,-1.1902747127451734,12404573.520439992,8697499.0,3650530.0,8056090.0,4318470.637730752,1440846.1279928356,2278819.932277695,0.09029413890294138,0.08708896437088964,0.05208498952084989,0.1041627520416275,0.08118811881188118,0.09008094240080942,0.10497217604972174,0.0690684396906844,0.07656645226566451,0.08936185589361854,0.0737985112379851,0.08133265881332659,3.720328452362256,0.18492608088541695,0.5367915831162916,0.078125,0.48118824131025695,0.08176320884606418,0.0022176342668623187,2902.7802764476214,118.34879838301474,0.009237604307033805,Catherine,REC_20260520_190100.csv
right,40,grass,41.888,1.0399999999999991,1.0,13998.0,0.744905595419817,34724.296004382864,300.5952380952381,0.07907733210478422,0.2059871703492516,0.48930862437633643,0.13881150187096244,0.43178388867684253,0.32148374571422844,5612.0,4247.530303030303,39.0,572.4318181818181,0.13476815404316947,0.6923076923076923,0.0,0.6923076923076923,0.8443624002318062,-0.9708831161630935,10886967.701787584,8166046.0,2442239.0,6773273.0,4177168.7200349066,1705690.13437434,2099001.282283326,0.0911581418078955,0.08649589601087262,0.05746298205374246,0.10188808469805984,0.07987886008625333,0.08790134730699123,0.10663594174154678,0.0662809404395424,0.0756197005746655,0.09106182915562341,0.07253056143142003,0.0830857146933869,4.432063743394269,0.23193825118056594,0.5980059884255209,0.09230769230769231,0.531948723287547,0.1554110920074467,0.00411677840622869,1682.3674786839317,86.19506127909851,0.009237604307033805,Catherine,REC_20260520_190100.csv
right,41,grass,42.944,1.024000000000001,0.0,15472.0,0.8822382461227383,34462.99804137765,277.77777777777777,0.07307476234105474,0.20326936744847193,0.48880597014925375,0.13195508281064833,0.4422601670665087,0.2983652895666147,5628.0,4258.092307692307,-47.0,544.3615384615384,0.1278416481197792,0.0,-0.171875,-0.171875,1.0523237941983528,-0.5077871595371866,11679220.7081322,8591208.0,1836260.0,7695680.0,4448194.5076406505,1199631.344016647,2173804.0794501216,0.08722938405064024,0.08934300661907102,0.06109272480272856,0.10454302396161518,0.08216030291643786,0.08994638263433247,0.10792843310113595,0.06494782784634506,0.07626745093505218,0.08876853484406164,0.06700725496430328,0.08076567332427667,4.113685792873194,0.235951089392023,0.578894687742369,0.078125,0.48214436996548493,0.11266980406597688,0.003029559406956829,1328.2699273867477,15.47335499224105,0.009237604307033805,Catherine,REC_20260520_190100.csv
right,42,grass,43.984,1.0399999999999991,0.03076923076923077,13577.0,0.7056810052258349,34506.43466079914,320.8333333333333,0.08440135050391821,0.20295531422467508,0.4876268470713904,0.13498220186348617,0.442148965438997,0.3052867074547936,5617.0,4273.515151515152,-82.39999999999998,559.7424242424242,0.13097939387063376,3.0,-0.25396825396825395,2.746031746031746,0.9645294886204253,-0.7578815619954651,11735141.798626976,8360301.0,1102000.0,8161159.0,4310783.986821611,1425703.7728670568,2352761.055689868,0.09036631543119708,0.0900259526612114,0.05531604101371378,0.10278955653567426,0.08192106420092747,0.0902705884021386,0.10449846127664401,0.06438883610114447,0.07714180363904528,0.08858650177981364,0.0705933657623417,0.08410151319614823,4.531714686165981,0.29174988382929873,0.6181585331385556,0.07692307692307693,0.48455896468382703,0.15399001476400884,0.003584601263829449,995.0663294474373,21.54065094343436,0.009237604307033805,Catherine,REC_20260520_190100.csv
right,43,grass,45.04,1.0080000000000027,0.06349206349206349,11040.0,0.46930859353430765,31826.988107579393,269.8412698412699,0.07098691198845318,0.20134228187919462,0.4722712822324267,0.13812563031788044,0.43915998878625806,0.31452234685485836,5662.0,4291.609375,-4.5,575.3828125,0.13407157134379222,4.75,-0.576271186440678,4.173728813559322,0.8933932738303038,-0.9310040080509947,10511029.832123682,8036543.0,1872912.0,6510601.0,4361934.2721211,1248177.4626555478,1955173.9887221134,0.09230948471399497,0.08907643184557075,0.05460145705828597,0.1045863476332815,0.08354965903671044,0.08781670629098204,0.10410211786807834,0.06633583700753287,0.07413084397971333,0.0901177078820227,0.07178979331034759,0.0815836133734795,4.37067844770564,0.20494746206678507,0.5797173626393872,0.09523809523809523,0.5189098422016704,0.16803137625071823,0.0026452401752675835,2223.736270334231,27.43768564584451,0.015999999999998706,Catherine,REC_20260520_190100.csv
right,44,grass,46.064,1.0559999999999974,1.0,13539.0,0.7021405434031001,33354.89136543545,328.125,0.08631956301537091,0.21273593226318574,0.48385958722878813,0.1328219704886511,0.4454848193509733,0.29815150756896674,5669.0,4284.7164179104475,40.30000000000001,551.8582089552239,0.12879690395574692,1.5303030303030303,0.0,1.5303030303030303,1.0118536106109024,-0.6674554167891991,10787680.625763075,7765318.0,3143512.0,6796486.0,4027036.525740301,1592155.8755414225,2207228.409857924,0.09262703952960193,0.08994133957558278,0.054556981426521205,0.1051986233610612,0.08275160584653542,0.09120929649291477,0.10409090275745796,0.06427217879585893,0.07638395407487913,0.08724170602906547,0.06854979169279216,0.0831765804177291,4.658015041294767,0.24823974629995652,0.6174568915720451,0.09090909090909091,0.5497726645435529,0.13242894885252804,0.0031626674237319775,1453.8921326334118,31.755188928138747,0.024440403706428762,Catherine,REC_20260520_190100.csv
right,45,grass,47.136,1.0879999999999939,1.0,16147.0,0.9451280285002632,34498.55778144936,218.75,0.057546375343580605,0.2160028075100895,0.48447095981751187,0.1307362565005308,0.44517381781044657,0.2936746306049152,5699.0,4314.028985507246,-58.60000000000002,546.2101449275362,0.126612534770281,0.10294117647058823,0.0,0.10294117647058823,1.1503094913504004,-0.3466690376506998,12567795.210583994,8539896.0,2422691.0,8896641.0,4231575.535232544,1584224.2814882563,2415429.5845277607,0.08918997003372886,0.08907238937339587,0.06061786957281268,0.10564118413803299,0.08259873416020533,0.09063453243210558,0.10780466828815997,0.06512960748216134,0.0772269777067068,0.08615638899713776,0.06560664901836946,0.08032102879718345,4.435566763373085,0.2530627248821525,0.5780279511281468,0.08823529411764706,0.4764645950112405,0.09993407739529953,0.003109226379626864,2553.6938605348387,54.72690027187704,0.04026578365477308,Catherine,REC_20260520_190100.csv
right,46,grass,48.24,1.024000000000001,0.0,13031.0,0.6548101590360147,32607.279463334562,304.6875,0.08015387994284441,0.21141685182020167,0.47376516834729104,0.13056359402107184,0.45497513609051693,0.2869686355674363,5851.0,4247.738461538462,26.5,536.1076923076923,0.12621014621355073,0.0,-1.09375,-1.09375,1.2751642385383648,0.03184941968924493,11828052.395280171,8707273.0,1855808.0,7787310.0,4289350.28283311,1443556.0918222181,2213122.539620455,0.09090810313542409,0.09079944803207499,0.04807626139520396,0.10772429129708841,0.08800339003922449,0.09099502721810339,0.10631539679032825,0.06612387406149153,0.07745297950402567,0.08397952937852902,0.0644397199595803,0.08518197918892587,3.617152988041515,0.13945714852543098,0.5138180095774654,0.0625,0.48132926913046703,0.07248064590588792,0.003226005639551049,1671.7846751301417,57.58683434243557,0.03199999999999671,Catherine,REC_20260520_190100.csv
right,47,grass,49.28,0.9919999999999973,1.0,11107.0,0.47555098674807683,33355.61586899573,734.375,0.19319140293916345,0.20316852367688024,0.4592618384401114,0.13715782258184692,0.44427183453291014,0.308725001048011,5744.0,4260.761904761905,-38.60000000000002,566.031746031746,0.13284754198518783,0.3225806451612903,0.0,0.3225806451612903,1.060194157959894,-0.5472125758255464,10631968.166857583,8304102.0,1225395.0,6525262.0,4367006.362348325,1550935.2662645152,2164048.2536691395,0.0947106859195017,0.09324288077249765,0.052248647682059994,0.10551060247068116,0.08554249184138764,0.08683520348100794,0.10314870281788785,0.06571967156928488,0.07314065596733575,0.08780008046850551,0.07143815101256204,0.08066222599728792,4.223935377827582,0.22824672452116804,0.5898110549091747,0.08064516129032258,0.512673423924054,0.12783529229753038,0.0029468943813816062,2543.3846215885887,276.2504124242769,0.04888080741286014,Catherine,REC_20260520_190100.csv
right,48,grass,50.288,1.088000000000001,1.0,14309.0,0.773881480337462,34973.07081169739,369.79166666666663,0.09728077736652911,0.2043630017452007,0.4663176265270506,0.14100761904122872,0.44013634426927994,0.3203725865339688,5730.0,4319.840579710145,-41.60000000000002,592.1666666666666,0.13708067595087042,0.014705882352941176,0.0,0.014705882352941176,0.8184184550345027,-1.052145129183501,12692862.188199004,8825780.0,2120924.0,8872206.0,4051469.070631891,1649002.4748540884,2324551.2267174544,0.08838893007994793,0.08676179005532277,0.054296152904193325,0.107300658572344,0.08113222106290824,0.08973761109004963,0.10810919619282783,0.06849420771700512,0.07520406348865531,0.0899489715468566,0.07251341132422358,0.07811278596566566,4.7797037961860465,0.27802007406581664,0.622126662131451,0.10294117647058823,0.5595167903768431,0.1891212364043538,0.0014145959685683146,1611.8242253215237,231.5854439575358,0.048880807412863984,Catherine,REC_20260520_190100.csv
right,49,grass,51.392,1.0719999999999956,1.0,11514.0,0.5134711962705252,31740.114067217844,502.60416666666663,0.1322196481108459,0.20832607559658595,0.4640306566800209,0.14369014190228907,0.4379249988911218,0.3281158697632094,5741.0,4310.132352941177,-73.19999999999999,601.8382352941177,0.1396333536911996,0.208955223880597,0.0,0.208955223880597,0.820385356650328,-1.0614301623856652,10481311.578614624,8136724.0,1739744.0,6373767.0,3954281.203063969,1808185.6158626298,2023418.2078056235,0.08862836885724132,0.08903780080453377,0.052799661536256905,0.10355898720183972,0.0827496084807004,0.08846118414543022,0.1063090051144874,0.0688801012661683,0.07411741825861769,0.09018762218984677,0.07481004063612076,0.08046020150875673,4.011332585714991,0.15501594166517652,0.5197639035975361,0.08955223880597014,0.5771990860614111,0.14298081585740588,0.0014535916496147335,1743.1044145432013,184.5164339043726,0.051432804058630155,Catherine,REC_20260520_190100.csv
right,50,grass,52.48,1.0080000000000027,0.015873015873015872,14132.0,0.7573903818473554,32965.716388393565,451.7857142857143,0.11885088132184403,0.20992167101827677,0.463881636205396,0.1443714186331765,0.4356186954213427,0.33141694824061385,5745.0,4267.421875,-57.30000000000001,597.3515625,0.13997949581678049,11.0,-0.03225806451612903,10.96774193548387,0.8180184970739358,-1.0383836232941928,10189474.639506495,8406727.0,1263269.0,5617516.0,4245703.464787926,1468476.408330925,1908447.0888047537,0.08456510993537521,0.08723065375391319,0.05698698350511689,0.10413195906486279,0.07962579865624371,0.08937627006938469,0.11072258938542372,0.07121176061366091,0.07525401387693828,0.09122164655914175,0.07315965801951559,0.07651355656042326,4.125879777538855,0.1829778240998692,0.568856648252287,0.07936507936507936,0.5593243166152329,0.07955342409843476,0.0038561625531726117,1565.1026590397607,67.01330602151342,0.04233202097703162,Catherine,REC_20260520_190100.csv
right,51,grass,53.504,0.9759999999999991,0.0,49590.0,4.061013942650734,51751.681296359835,437.5,0.11509275068716121,0.21138211382113822,0.47465836360491265,0.12587976045031743,0.4584348321428304,0.2745859424814265,5781.0,4303.774193548387,-85.30000000000001,523.2741935483871,0.1215849554404611,0.0,-2.4918032786885247,-2.4918032786885247,1.3268447211887915,0.174159619952714,7382185.427251878,6174625.0,3309667.0,2327396.0,4061157.758645744,1484418.678675203,1938157.3392445683,0.09276179197553536,0.09412968362352624,0.04892929686621645,0.10922521117998454,0.08500790753801989,0.09294542674471769,0.1043720065658799,0.061817459544136054,0.07712660305658199,0.08474931980182435,0.06406230090618137,0.08487299219739612,3.8704375782644247,0.21628366253014616,0.5199680190052539,0.08196721311475409,0.481147962901795,0.13282927272153874,0.0031286156344568932,21267.759104647892,34.21780543422645,0.04888080741286013,Catherine,REC_20260520_190100.csv
right,52,grass,54.496,1.024000000000001,1.0,12514.0,0.6066412442372289,32730.81317352198,250.0,0.06576728610694926,0.1952232606438214,0.4717895465559017,0.12872207773700522,0.45291246570950155,0.2842096155054868,5778.0,4318.307692307692,30.5,539.0615384615385,0.12483166482596458,1.125,0.0,1.125,0.9375172090429689,-0.8277020314937458,11969735.936699564,8671842.0,1954768.0,8015773.0,4332743.432027883,1323936.2719215723,2137853.1207707664,0.09097224696284158,0.09137482632085218,0.05277352239125013,0.10754925362499554,0.08625173679147814,0.09052691581459973,0.10593537354376714,0.0629555737646514,0.07720973315757597,0.08780505183654565,0.06576650397235384,0.08087926181908868,3.8396556085264333,0.20056333109269434,0.5564685265181673,0.09375,0.4835943137913747,0.08397297594695466,0.003826431531684982,20954.38483945544,112.60388249852332,0.024440403706432506,Catherine,REC_20260520_190100.csv
right,53,grass,55.536,1.0559999999999974,1.0,11366.0,0.49968202917145305,32279.076597697152,242.1875,0.0637120584161071,0.21030119408305115,0.47870254856531813,0.13706594679055234,0.4439689448792533,0.30872868107420925,5611.0,4279.3432835820895,19.0,569.5671641791045,0.13309686240042412,1.2727272727272727,0.0,1.2727272727272727,0.8362770417245171,-1.0043479680118945,11409209.883863693,8476366.0,882089.0,7585724.0,4127792.0275410516,1493092.3993253638,2293222.634311788,0.08946483628398834,0.0902600482707627,0.050862177206713266,0.10609104479694192,0.08222073410622359,0.08924161888419202,0.10774424866418338,0.06690592781707334,0.07615549882113311,0.08993219771481188,0.07016001897347898,0.08096164846049748,4.096040416287326,0.22641968204195004,0.5807712930376878,0.09090909090909091,0.48964141580149817,0.13404508966471934,0.0024505842601514035,21744.814922183174,110.57746742480192,0.040265783654776816,Catherine,REC_20260520_190100.csv
right,54,grass,56.608,1.152000000000001,0.0,13649.0,0.7123892486794375,35899.88526444061,525.0,0.13811130082459344,0.19791666666666666,0.44576719576719576,0.1438916799411837,0.43643548584732267,0.32969748017109524,6048.0,4471.780821917808,-52.60000000000002,627.5068493150685,0.14032594044847446,0.0,-0.9166666666666666,-0.9166666666666666,0.6111079967220158,-1.4199414685772376,10732338.875503093,8340753.0,1653001.0,6548475.0,4047534.8865266577,1278961.5233385018,1824062.4676977762,0.09098149736551893,0.09135216272515624,0.05311542703100111,0.10385063105011642,0.08254503124617082,0.08680002450680065,0.10434076706285995,0.0686711187354491,0.07188763631907855,0.09088653351304989,0.0752205612057346,0.08034860923906384,4.289272615365256,0.2098745091232608,0.5496089483508946,0.09722222222222222,0.4847211413189699,0.11424677476989345,0.0010555426488657274,1141.5061687670204,161.07397126398098,0.06661331198291702,Catherine,REC_20260520_190100.csv
right,55,grass,57.776,1.0239999999999938,1.0,14467.0,0.7886023479162011,32464.53939300541,531.25,0.1397554829772672,0.21117903930131005,0.46655021834061133,0.1544166153176991,0.42858385588459175,0.36029498824424977,5725.0,4244.461538461538,2.3999999999999773,637.3307692307692,0.15015585921925406,1.046875,0.0,1.046875,0.515086980425867,-1.5761751350006996,11232564.232229121,9219178.0,1436755.0,6254038.0,4473685.652903417,1013847.2724918451,1939365.936705486,0.08602341512921818,0.08356591395121245,0.0485084635180688,0.10323317264127008,0.07929247163724674,0.08759650585378231,0.11118561745623257,0.07544673601797819,0.07489579180108014,0.09470078654536229,0.07896987929972091,0.07658124614882744,3.7835727073789345,0.10801457228031211,0.47083032017079707,0.09375,0.5185922783497495,0.12496702200793045,0.0016080646293794953,1607.141043385169,165.11566731764043,0.0666133119829199,Catherine,REC_20260520_190100.csv
right,56,grass,58.816,0.9600000000000009,0.0,14017.0,0.7466758263311845,34587.77210229071,906.25,0.2384064121376911,0.225676664228237,0.48335771762984636,0.15016482891894967,0.42765796781370274,0.35113300866705194,5468.0,4037.967213114754,15.699999999999989,586.516393442623,0.1452504100423846,0.0,-0.7833333333333333,-0.7833333333333333,0.8377620324319006,-0.9989508692787314,11611401.636290126,9064018.0,1886351.0,7007846.0,4676044.148961056,1434557.3435671644,2270313.4672532794,0.08674223355364655,0.07585378132155442,0.04548222608356745,0.10467448318420242,0.0763125416132123,0.0907979993179493,0.11516913233407493,0.07394566329430488,0.0800191623767843,0.09338004839312104,0.07621916562464476,0.0814035629029377,4.138323835273501,0.26725565239806026,0.5617016704998941,0.06666666666666667,0.4898933541445453,0.08351702193381055,0.0026431573126277116,409.6844314020027,218.33293575027315,0.09776161482572557,Catherine,REC_20260520_190100.csv
right,57,grass,59.792,1.0719999999999956,1.0,13175.0,0.66822664594322,32748.133885765154,791.6666666666666,0.208263072672006,0.20345521637034553,0.46393827574639385,0.11976577173792952,0.4668855651309248,0.25652061379169944,5962.0,4259.294117647059,1.3000000000000114,492.5882352941176,0.11565020439730417,0.6268656716417911,0.0,0.6268656716417911,1.5115658653464512,0.6555649619930977,11528504.25763876,8124507.0,1434311.0,8052425.0,4144477.100931864,1671184.962316765,2116421.295077961,0.095783615070158,0.09603911170036461,0.046200005524251464,0.1090590818694067,0.0876284388465363,0.0940745497735057,0.10150812064965198,0.06005897138437742,0.08008438294111149,0.08079908297425699,0.0597068003535521,0.08905783891282731,4.069250023818962,0.25935863492254646,0.5902409837102823,0.08955223880597014,0.5375027262425113,0.15340366015964224,0.003430336658413481,655.8363617040305,192.16797363918923,0.0561901533485453,Catherine,REC_20260520_190100.csv
right,58,grass,60.88,1.088000000000001,0.0,11241.0,0.4880357731756151,31827.230306767193,292.4107142857143,0.07692423642866388,0.20875021197218924,0.46108190605392574,0.13772050209205022,0.43763682008368204,0.31469130514576793,5897.0,4329.710144927536,54.89999999999998,579.3623188405797,0.13381087866108787,0.0,-1.8529411764705883,-1.8529411764705883,0.9009758040535989,-0.8267928658376156,11153049.43049281,8746368.0,1303586.0,6796486.0,4173915.795279019,1122490.7781427847,2129956.8771159286,0.08898410041841004,0.08748117154811716,0.050272803347280334,0.10468619246861925,0.08154309623430962,0.08836150627615064,0.10865271966527197,0.06772217573221757,0.07556485355648536,0.08956987447698746,0.06999832635983264,0.08716317991631799,4.17084051009391,0.21178419852578811,0.5580036371656961,0.10294117647058823,0.5375926886786968,0.09013327336685484,0.0015967962121210789,1423.3467602800908,326.39049081118856,0.06974238309664976,Catherine,REC_20260520_190100.csv
right,59,grass,61.984,0.9919999999999973,0.016129032258064516,14122.0,0.7564586813676883,29578.83920981349,260.4166666666667,0.06850758969473882,0.1985411848425547,0.4767834904821206,0.13711448873687934,0.43964500530722955,0.3118754610688448,5621.0,4306.793650793651,-48.89999999999998,572.9047619047619,0.13302349923340015,3.0,-0.14754098360655737,2.8524590163934427,0.8884903490882234,-0.9288567180533729,10416651.763395425,7825183.0,1747074.0,6649878.0,3737629.512387637,1467104.0903971824,2298499.3388467208,0.08936416440617996,0.09313082321028422,0.05501828045760113,0.10354994692770374,0.08229522939025828,0.08721178794669182,0.10784732869442151,0.06480717065691707,0.07345721783229153,0.09208043401344497,0.07230731807996225,0.07893029838424342,3.3253614956187763,0.13592946178440365,0.49300653641599945,0.06451612903225806,0.41430362287549677,0.1531503370795379,0.001972278350121635,1468.407640949825,297.9112528843837,0.051432804058630245,Catherine,REC_20260520_190100.csv
right,60,grass,62.992,1.1199999999999974,0.9857142857142858,11060.0,0.4711719944936417,30471.898431177535,392.8571428571429,0.10334859245377742,0.1871499176276771,0.43673805601317955,0.13317196709921783,0.45132278689731786,0.2950703376061736,6070.0,4399.056338028169,40.19999999999999,569.9647887323944,0.1295652396640765,0.2318840579710145,-3.0,-2.7681159420289854,0.9883261295932236,-0.76507014494518,9666118.542286454,7222870.0,1182635.0,6313903.0,3467130.421165928,1475906.426812863,1967285.916864896,0.09416552205498618,0.10016552845840818,0.0520406105022524,0.10377705846004104,0.0880150352348295,0.08646220540256712,0.10086350145517765,0.06429355847765045,0.07290295934147209,0.08646220540256712,0.06887840862156737,0.08197340658848087,4.248188177824133,0.1749409042768174,0.5465835510897481,0.11428571428571428,0.5257817200369537,0.2018555509828027,0.0013712993967891763,1717.9816646285312,69.10569661680466,0.066613311982917,Catherine,REC_20260520_190100.csv
right,61,grass,64.128,1.0400000000000063,0.015384615384615385,38937.0,3.06847342166144,39818.17651525494,3645.833333333333,0.9591062557263433,0.19680851063829788,0.4660260809883322,0.12455092752923562,0.4512727946912375,0.2759991938233062,5828.0,4331.318181818182,-46.5,525.5681818181819,0.12134139302542792,10.0,-7.015625,2.984375,1.2702098300335287,0.13577852414334268,7218943.534314007,5996253.0,2834414.0,2850297.0,3986560.885218595,1367559.4820819332,1977415.8810807965,0.09221421150395114,0.09515613904368114,0.05579167934738882,0.10468154771274754,0.08395512598516093,0.09133268268110693,0.10723518279479619,0.05985300856692098,0.07614729926854095,0.08570419110985178,0.06469791896231465,0.08323101302353891,3.844862006022358,0.1279163812433106,0.46365480347064547,0.06153846153846154,0.3982210793041232,0.07496337631578695,0.000843944951466489,15287.724912491067,1917.482750138967,0.06466323014923755,Catherine,REC_20260520_190100.csv
left,25,grass,26.576,1.1039999999999992,1.0,71830.0,6.133115809430223,78068.95099846034,4043.75,1.0637858527799042,0.18982742960944596,0.5472297910990009,0.10943420002520268,0.48024530600243626,0.22787146205772707,4404.0,3401.0,48.39999999999998,360.51428571428573,0.10600243625824338,0.5507246376811594,0.0,0.5507246376811594,0.8292560251097063,-1.0206819583364382,8301482.730826042,7808079.0,2230879.0,1723861.0,4431755.798125404,1242913.4070125993,1177038.0179638176,0.08936447263409922,0.077649430839669,0.054820010921157646,0.11016507749821482,0.09078422312765154,0.11442432897887175,0.11498298819674886,0.06347292813038181,0.08722224555802915,0.07220565379930273,0.045961271894820854,0.07894736842105263,5.125425211767924,0.4006313042164582,0.6416276709483985,0.11594202898550725,0.5795750236182028,0.15137454393222463,0.006260311508591364,27138.746882148655,2018.9673413234518,0.1520701592467539,Catherine,REC_20260520_190100.csv
left,26,grass,27.696,1.0879999999999974,1.0,38253.0,3.0047451088522146,40080.95051268121,968.75,0.2548482336644284,0.1957752613240418,0.5185104529616724,0.11179511801977142,0.4707972872171684,0.23745913805177166,4592.0,3380.6666666666665,49.80000000000001,365.3188405797101,0.10806118337005821,0.8235294117647058,0.0,0.8235294117647058,1.0780640607256886,-0.5566731846144601,6572330.3320001345,5970596.0,1926668.0,1958433.0,4005657.5460774247,754311.204063325,1046320.8886019663,0.09838124715989473,0.08014884295182324,0.05734654857544606,0.10752102749650613,0.08916430169849013,0.1120137525400187,0.11253676060806118,0.06450147042432244,0.08194936253033018,0.07112052335102416,0.047293647595448976,0.0780225150686341,4.257476974959996,0.16383660025494637,0.5025144287594248,0.08823529411764706,0.46178639834201146,0.17909852282912223,0.003002742254380608,22411.282181080136,1548.2308486234383,0.09732420048477214,Catherine,REC_20260520_190100.csv
left,27,grass,28.8,1.0079999999999991,1.0,49518.0,4.054305699197132,53357.276851428614,3258.9285714285716,0.8573235510370172,0.2085232452142206,0.554922515952598,0.1129949937124825,0.4751038033549244,0.23783222301000567,4388.0,3292.734375,43.69999999999999,357.8046875,0.10866491090706337,0.07936507936507936,0.0,0.07936507936507936,1.0080451266723338,-0.6617321612255953,8727219.58486808,7397578.0,3639535.0,2862514.0,4599767.261498098,1180990.2551608172,1313630.019790484,0.09315965549149406,0.07420219707215223,0.05167153059529741,0.11059387382257338,0.08384463900158967,0.11597029444563077,0.11585640733622797,0.06559897501601537,0.09049279901297838,0.07047239423921038,0.047396018696467125,0.08074121527036325,4.183413928096779,0.20722397777890667,0.5608088553530568,0.06349206349206349,0.4824894169838425,0.25003612607691056,0.007542929646690803,17088.692645528303,1597.7321200050771,0.05143280405862866,Catherine,REC_20260520_190100.csv
left,28,grass,29.824,1.0399999999999991,0.06153846153846154,43225.0,3.467986587342665,45115.34138184039,116.07142857142857,0.03053481140679787,0.208572691117985,0.5203269995581087,0.12360540756623177,0.46002471199622047,0.26869297310090323,4526.0,3335.3939393939395,66.30000000000001,398.52272727272725,0.11948295599084202,8.5,-0.639344262295082,7.860655737704918,0.7991804838109495,-1.013681136846854,7032167.422279208,6454402.0,1666440.0,2239431.0,4282169.161746058,625738.2453867599,1464038.3728353211,0.09370570919795036,0.07628011774539376,0.0584229748882509,0.10754715266925899,0.08445233855434822,0.11040901987862048,0.11514245738997711,0.06885743358651016,0.08133608314859905,0.07669349856452375,0.05474797397972162,0.07240524039684558,4.35795037818632,0.20659322555423254,0.5424697579089783,0.07692307692307693,0.4904312902127285,0.17576481387222256,0.002352130089323701,5645.394258449395,1625.2963655700996,0.040265783654776316,Catherine,REC_20260520_190100.csv
left,29,grass,30.88,0.9920000000000009,0.0,17362.0,1.0583296367798083,40155.46245531235,218.75,0.057546375343580605,0.20478663355159177,0.5296906750959585,0.10967238243947026,0.4636631089868706,0.23653463110110165,4429.0,3334.3174603174602,14.0,351.5079365079365,0.10542125658139026,0.0,-0.45161290322580644,-0.45161290322580644,1.0653508403657281,-0.42728663006121925,11640307.435975607,9869138.0,2494773.0,5645616.0,4449162.645919253,899728.7841367251,1664477.9496993034,0.09714750883072618,0.07655358894040808,0.06330987994020813,0.10539269358570327,0.0826041835267683,0.11385210080833277,0.11419485675657663,0.061529453209052565,0.08526054212565815,0.07296417248240995,0.048142929230417686,0.07904809056373832,4.628336743088893,0.2718488356554005,0.5821554609584519,0.08064516129032258,0.46555257345113565,0.15598589689497086,0.005638398521332678,17041.6399543393,1785.6268579788375,0.024440403706430188,Catherine,REC_20260520_190100.csv
left,30,grass,31.888,1.0399999999999956,0.09230769230769231,15467.0,0.8817723958829048,33932.48599793419,126.48809523809524,0.03327511499458743,0.201250837614474,0.5208845208845209,0.12477631584878275,0.45173605946279743,0.27621508895500624,4477.0,3361.409090909091,10.400000000000006,406.0,0.12078268042352368,3.6666666666666665,-0.13559322033898305,3.5310734463276834,0.6876898603389917,-1.3252881239033336,9997101.555894189,9186191.0,1715309.0,3551570.0,4159539.047961569,626830.3951814931,990216.8953418377,0.0960320572631427,0.07448175143000095,0.0571369330142031,0.10443852460863724,0.08066602660320121,0.10934718034013513,0.11601375685701794,0.0706413706373139,0.08280257648082288,0.07779024849787923,0.05413494521146885,0.07651462905617683,4.174117090739425,0.19107949174455052,0.5369417037860034,0.07692307692307693,0.4680733917504447,0.1414233082918865,0.006397180648715782,15508.021354555007,56.514975958237606,0.027712812921099853,Catherine,REC_20260520_190100.csv
left,31,grass,32.944,1.024000000000001,0.015625,17975.0,1.1154428761833977,36844.88125913829,140.625,0.03699409843515896,0.20762124711316396,0.5327944572748268,0.11440566780372605,0.4609682498032012,0.2481855699443358,4330.0,3283.3230769230768,-38.900000000000006,361.9769230769231,0.11024712298984143,5.0,-0.2857142857142857,4.714285714285714,0.9786222171822005,-0.6094883976376297,9784237.555231016,9009040.0,1844813.0,3341432.0,4121079.055921922,737077.8743914797,945720.2646293573,0.09669378115980058,0.07737001911759193,0.06409547550324249,0.10255088653146906,0.08190107583311466,0.10986992540390599,0.11865089777711138,0.0655761517412003,0.08927634291711962,0.07466169359373244,0.04882951606252577,0.07052423435918583,3.829249696480601,0.1541414448250946,0.49127204718614165,0.078125,0.44950151406192124,0.15330492842251142,0.004710745632145926,1307.4694387764641,49.691761174181735,0.02444040370642865,Catherine,REC_20260520_190100.csv
left,32,grass,33.984,1.0559999999999974,1.0,41402.0,3.2981375898993646,42796.03184875906,2534.7222222222226,0.6668072063621245,0.20175636117991444,0.5210538167079487,0.11106232751514282,0.4750904985484391,0.2337708875559611,4441.0,3331.4626865671644,36.80000000000001,356.76119402985074,0.10708845561091,0.2727272727272727,0.0,0.2727272727272727,0.9890937039529111,-0.6249151105980344,7415176.950548112,6690196.0,1230282.0,2951700.0,4206002.030103733,632607.6570727797,1246772.3488048,0.09166338124081574,0.07487634851797426,0.05838948424787641,0.10917171427547398,0.08425773269775276,0.11636231676284003,0.12005394071897064,0.06510967348840543,0.09042238629439804,0.07143561162682341,0.045952654026737386,0.07230475610193182,3.525826892307667,0.16875792794006747,0.5161354749902782,0.07575757575757576,0.43233634860363895,0.1159059151487402,0.004264278926308722,14304.653193978551,1386.3316685831603,0.015999999999997967,Catherine,REC_20260520_190100.csv
left,33,grass,35.056,1.024000000000001,0.0,17659.0,1.0860011410259192,35068.42609812992,0.0,0.0,0.20249150622876558,0.535673839184598,0.10763850338625514,0.46987065615632284,0.22908113536329378,4415.0,3325.6615384615384,-1.3000000000000114,344.3076923076923,0.10353058732097259,0.0,-0.1875,-0.1875,1.0861450117254468,-0.3200029518797245,10059398.978141686,9296147.0,1325577.0,3607770.0,4150480.7386660124,618984.4550357558,1206680.713683992,0.09607342437363532,0.07657932718996337,0.058875504237444955,0.10704637134080901,0.08326856889086266,0.11485511269012989,0.11451741238296141,0.062183116835054224,0.08812127604455794,0.07213833684911736,0.04545538655120092,0.08088616261426299,3.836176199250454,0.18867180096638755,0.5181619204884222,0.09375,0.4541338585718698,0.17690865782428083,0.00508557729619118,13617.722729345538,1424.5638890495768,0.018475208614065756,Catherine,REC_20260520_190100.csv
left,34,grass,36.096,1.0560000000000045,1.0,41057.0,3.2659939233508517,42689.25498295795,1743.3035714285713,0.45860937901363724,0.20189916346371242,0.5347049513904589,0.11538734047169893,0.4667614315699976,0.24720838669876605,4423.0,3370.4776119402986,-62.0,375.7686567164179,0.11148825180894686,0.3787878787878788,0.0,0.3787878787878788,0.8821239612788324,-0.889871475702182,7184987.761159026,6581462.0,1415985.0,2510656.0,4191703.0855519506,596925.6974661351,1260066.8618582783,0.09418480041802836,0.07564807680385435,0.060206711480723756,0.10715962129464798,0.08312741894058151,0.11340347707486426,0.11750405186385736,0.06769491015047249,0.08742283745604945,0.07222945505752318,0.04769243032122645,0.07372620913817077,3.7114553863205804,0.17293857405310006,0.5171029673134002,0.07575757575757576,0.4418072277251277,0.15707730839625558,0.004656479570401038,13609.527777749447,1296.8081049771667,0.018475208614067793,Catherine,REC_20260520_190100.csv
left,35,grass,37.168,1.0399999999999991,0.015384615384615385,41028.0,3.263291991959817,43069.3925891694,156.25,0.04110455381684329,0.20008863283846665,0.507423000221582,0.11241926402665947,0.4657899193899084,0.24135186131514674,4513.0,3309.9848484848485,31.5,358.4848484848485,0.108304075364256,1.0,-0.109375,0.890625,1.0875336674469178,-0.42709961627929705,6875765.502134799,6256481.0,1716531.0,2277305.0,4187990.0229427614,788086.2796801721,1347580.422098443,0.09535885452190113,0.0795206423173227,0.06776099863132212,0.10471987878732394,0.08604360543626036,0.10976888111728059,0.11761932444989677,0.06419511212630288,0.08573691173172084,0.07102934646775824,0.04822415190035659,0.07002229251255385,4.248267931973188,0.204511313568511,0.5467487719160636,0.07692307692307693,0.48339634991072444,0.11608686049172962,0.005144491672956371,13500.477806359317,964.5603871919928,0.01600000000000152,Catherine,REC_20260520_190100.csv
left,36,grass,38.224,1.0400000000000063,0.03076923076923077,42574.0,3.407332886116341,44605.714409703156,2015.625,0.5302487442372784,0.2124234867377012,0.5499886647018817,0.12377125277605854,0.47515655149816144,0.26048520721377283,4411.0,3329.3333333333335,29.0,398.280303030303,0.11962764408198928,7.5,-0.6031746031746031,6.896825396825397,0.8688641647165823,-0.8902565121133907,7130690.3438111795,6593679.0,1339016.0,2361605.0,4470301.1580734635,721715.6890872354,1409044.1866106729,0.08915243747041904,0.07635526267885098,0.05096115338406087,0.10842556522372301,0.09081807259620636,0.11243492190628754,0.11791422434193759,0.07189536534750791,0.08712272909309353,0.07140386645793133,0.05187588742855062,0.07164051407143117,4.334098190528117,0.2204401816655166,0.5506603702518893,0.07692307692307693,0.4934654101793122,0.16518341602452752,0.005480983572626983,884.3308204513156,1004.1724112976791,0.009237604307034516,Catherine,REC_20260520_190100.csv
left,37,grass,39.28,1.1199999999999974,0.04285714285714286,50724.0,4.1666687770449755,53193.15914664215,1218.75,0.32061551977137764,0.20607424071991,0.5271091113610799,0.12896284135467972,0.45279564185171933,0.2848146700953209,4445.0,3423.0845070422533,-35.5,428.88732394366195,0.12529264850497246,2.3333333333333335,-0.6119402985074627,1.7213930348258708,0.5082504445577553,-1.4755852504403097,7488847.437719906,6444628.0,2590068.0,2800206.0,4064831.401828503,845159.5922209816,1384443.737113839,0.09543735779031348,0.07019038096766363,0.055225704516559074,0.10427133093865594,0.0806043474504092,0.11092458412024409,0.11589909438402891,0.0735149502754702,0.08680499837474644,0.07653504170112617,0.05544789107920951,0.0751443184015734,4.516263145380579,0.23419733118461988,0.5540677235565943,0.1,0.49887056881606817,0.21381407228462698,0.001489442695015997,5209.367076078752,932.8443427005034,0.04618802153516695,Catherine,REC_20260520_190100.csv
left,38,grass,40.416,0.9440000000000026,1.0,44800.0,3.6147294128902234,45972.15836786435,2625.0,0.6905565041229673,0.20594193112761647,0.5262210218320954,0.11709124735216352,0.4661456095205836,0.2511902825224763,4443.0,3296.7166666666667,38.900000000000006,371.10833333333335,0.1125690712476555,0.6949152542372882,0.0,0.6949152542372882,0.9043907732099367,-0.8890267804468452,6909962.625264264,6388428.0,1167974.0,2360383.0,4440507.000063812,423614.47350803926,1128272.118414421,0.0966972189501676,0.07575719276249601,0.05515588742334545,0.10586795953549744,0.08362866083931993,0.11305693038022678,0.11576164163334227,0.06760261472272919,0.08783486600304342,0.07205654110402775,0.049488632629434336,0.07709185401636982,3.854029632694192,0.261980889848714,0.49191783640426767,0.06779661016949153,0.46712804328011154,0.1841811816280098,0.005143916774126065,4212.508199794182,705.2052560247974,0.08812112875657523,Catherine,REC_20260520_190100.csv
left,39,grass,41.376,1.0080000000000027,0.015873015873015872,51313.0,4.221545935297365,53465.43993085627,437.5,0.11509275068716121,0.2007370474745285,0.5235204855842185,0.12079238708438318,0.4616358988663853,0.2616615982009416,4613.0,3416.890625,-15.5,398.7421875,0.11669738111678656,4.0,-0.9193548387096774,3.0806451612903225,0.7513951672700236,-1.0093773109409134,7335349.33442239,6555805.0,1924225.0,2669481.0,4283686.1244805,732645.8416534511,1367007.2489918885,0.09574219982531633,0.07658187039569053,0.05510309537637015,0.10591226489727046,0.08639982440175416,0.10906754587732816,0.11638413945427357,0.0684192956864108,0.08367439329434198,0.07445091251640518,0.05237309139797239,0.0758913668768663,4.438045321195973,0.23431020096736713,0.5718851073147712,0.07936507936507936,0.475741065914267,0.14108906672474664,0.00442220487235494,3602.3109712145956,1108.5310757183734,0.08908422980527755,Catherine,REC_20260520_190100.csv
left,40,grass,42.4,1.1039999999999992,1.0,39913.0,3.1594073884769425,42024.52638638537,1227.4305555555557,0.32289910609453565,0.19792586054721978,0.531332744924978,0.12082036150252352,0.467902793580142,0.25821679878847353,4532.0,3427.7571428571428,-35.900000000000006,401.45,0.11711739871552827,0.2463768115942029,0.0,0.2463768115942029,0.7380322581395021,-1.1445337211557602,7218788.682121399,6697526.0,1237612.0,2392148.0,4269099.156870087,631927.1027183599,1198588.525131535,0.09014224211583584,0.07315904193912721,0.052991752207816024,0.10803399140629233,0.08677060801940462,0.11354363327957057,0.1152607077514243,0.06864546996578355,0.08639551893574725,0.07347578383199344,0.05217489153673998,0.07940635901026495,4.721969630372738,0.2631268845493893,0.582707992566279,0.11594202898550725,0.48002289484219957,0.27172977118241143,0.0023895362993918115,5719.293924952618,1107.726416633417,0.08053156730955284,Catherine,REC_20260520_190100.csv
left,41,grass,43.52,0.9759999999999991,0.01639344262295082,42316.0,3.3832950137409314,44423.9105099945,2500.0,0.6576728610694926,0.2027117137141587,0.5245610135585685,0.11638052898911018,0.47113762881070065,0.24702023755312547,4499.0,3308.8064516129034,-97.4,370.51612903225805,0.11197878584032835,6.0,-0.2,5.8,0.8971846640713713,-0.8257025429192661,7190245.753213585,6510601.0,1852143.0,2425134.0,4361659.31840999,712422.7378855497,1311069.8902116672,0.09392335214920104,0.07747165433398652,0.05696430834625096,0.10606104920398154,0.08696733058407183,0.11231025708519786,0.11600518655006677,0.0666939642985971,0.0883273376034629,0.07100309048190069,0.049686564690513094,0.07458590467276963,3.6241271390186256,0.23769314659789462,0.4832910041656124,0.06557377049180328,0.44218874620990584,0.1088202701334257,0.006540965445988969,6009.442819430099,1040.6191685349281,0.06661331198291573,Catherine,REC_20260520_190100.csv
left,42,grass,44.512,1.024000000000001,0.046875,48059.0,3.9183705992137106,49791.108151958215,2563.3680555555557,0.6743430412285458,0.20765271872902216,0.5428507496084135,0.11841299719478432,0.4712442547903398,0.25127732803319275,4469.0,3367.353846153846,-40.599999999999994,385.10769230769233,0.11436508009027861,4.333333333333333,-1.1639344262295082,3.169398907103825,0.874345351900467,-0.8041664562972803,7338983.1057561375,6723182.0,1246165.0,2665815.0,4364946.597773477,608578.6766254117,1364152.644369108,0.09256754904558705,0.0754621295881724,0.0550078125713868,0.10736574712853737,0.0864042982848893,0.1137848481802648,0.11539305000959439,0.06838512778808287,0.08822723160847597,0.07151015634280285,0.05002786940670145,0.0758641800455048,4.557005108386462,0.2758729179489873,0.5947365131416513,0.09375,0.4460559524288363,0.2021723116046618,0.004714021036140596,4185.565951377829,753.6773740915029,0.06466323014923799,Catherine,REC_20260520_190100.csv
left,43,grass,45.552,1.0399999999999991,1.0,14539.0,0.7953105913698038,34393.732030705825,114.58333333333334,0.030143339465685082,0.20927092709270928,0.5283528352835284,0.1167843734648164,0.46398262115837907,0.2516998873215933,4444.0,3361.8030303030305,-58.19999999999999,379.219696969697,0.1128024734201975,1.4307692307692308,0.0,1.4307692307692308,0.8944097331502994,-0.8521862783132588,9846533.830677371,9071348.0,1198517.0,3637091.0,4177732.9357115924,631255.7556755182,1155667.5000713547,0.09699881466925665,0.07833999612401354,0.061903109352394764,0.10527810202858315,0.08502832624989297,0.11088025455315734,0.11450835815917684,0.06566642178845226,0.08445594220273211,0.0736167009946863,0.05111795167636414,0.0722060222012899,3.802820026332101,0.19938583131665766,0.5263996606863781,0.09230769230769231,0.48869960763901166,0.1710242987886829,0.004416033611173411,17926.3966355019,1395.8733705620152,0.03330665599145845,Catherine,REC_20260520_190100.csv
left,44,grass,46.608,1.0720000000000027,1.0,44225.0,3.5611566353093687,47255.62385579096,93.75,0.024662732290105974,0.21086907702672356,0.5275095441275545,0.11214325001527838,0.4735116683109105,0.23683312898125705,4453.0,3368.8529411764707,-61.19999999999999,364.05882352941177,0.10806610733274548,0.14925373134328357,0.0,0.14925373134328357,1.0335831889984717,-0.5316844130442053,7326496.541498194,6580240.0,1643227.0,2770884.0,4234832.243202051,730331.4600718266,1297011.1665693652,0.09630612619062169,0.07777564365598344,0.059961061977807074,0.104713596004924,0.08446320531512734,0.11714582551226198,0.11438262281628411,0.06432194585344986,0.08941339782261375,0.06722483652142028,0.04782130416182851,0.07647043416767794,4.196794728178348,0.199988607867594,0.5432817284756805,0.08955223880597014,0.5099314930313401,0.23408647112322456,0.005788951481640413,18346.428135561804,1419.8587948509025,0.024440403706432353,Catherine,REC_20260520_190100.csv
left,45,grass,47.696,1.1200000000000045,0.014285714285714285,53333.0,4.409749432190106,54976.852710936444,2904.575892857143,0.7641042950595334,0.21083129039447293,0.54000445732115,0.12552269322075427,0.4638342485067342,0.27061971733390594,4487.0,3506.3521126760565,-37.400000000000006,427.28169014084506,0.12185932171391156,2.0,-0.9565217391304348,1.0434782608695652,0.5714411583327669,-1.3926471256804855,7861479.847044384,6982189.0,2372600.0,2724458.0,4097656.8826861777,682913.3604552243,1483436.844364169,0.0939542319572928,0.07468939670858923,0.05133138649774454,0.10861976854883089,0.08799723640395096,0.11034299922474704,0.11314676382099288,0.07129515446814835,0.0821848476206161,0.07406678422661488,0.05422753875260593,0.07814389176986636,4.015072801141839,0.17526150767470425,0.49766220931493427,0.08571428571428572,0.5092430871897584,0.1443528220776436,0.0022402709683423143,20286.23792952586,1616.8505759620127,0.04026578365477995,Catherine,REC_20260520_190100.csv
left,46,grass,48.832,0.911999999999999,0.0,50140.0,4.112257469032421,52101.911337301244,312.5,0.08220910763368658,0.19413438389144233,0.5003282994090611,0.12039473344120095,0.45935579254266024,0.2620947322220637,4569.0,3335.293103448276,21.5,386.41379310344826,0.11585602257982806,0.0,-0.3157894736842105,-0.3157894736842105,0.8452046305582848,-1.041180429776068,7397144.611184373,7046941.0,1286482.0,1844813.0,4759600.123107049,645604.56554799,1133229.2998472939,0.09904004714469597,0.08129358428923684,0.05708023386250498,0.10340299927111818,0.08864443490982025,0.10612725966285338,0.11134832796579941,0.06778083919626564,0.07988751440963157,0.07477500297239037,0.0526138942449353,0.07800586207074806,4.18337994337619,0.27577365652196295,0.527808683918427,0.07017543859649122,0.5055114466263514,0.147006759413828,0.006260632934717694,4621.293794310535,1563.5137349779027,0.10890974856886755,Catherine,REC_20260520_190100.csv
left,47,grass,49.76,1.0720000000000027,0.029850746268656716,18679.0,1.181034589951957,37805.82513317227,437.5,0.11509275068716121,0.19182597231377718,0.5201054713249835,0.12278231603159302,0.46025927241361814,0.2667677185244762,4551.0,3478.0588235294117,1.0,414.25,0.11910379352918295,3.0,0.0,3.0,0.5805044526295453,-1.3912144866711542,10722357.989103796,9726196.0,1941329.0,4074471.0,4350133.819914069,610595.8462327027,1206179.019709881,0.096491450606322,0.07656823447832632,0.05555837434674515,0.10564970318128773,0.08819574813536962,0.10921829282730394,0.11200889610499433,0.06801884080031119,0.08062729379133053,0.07554924146329088,0.05476347523128182,0.07735044903343649,5.1885434366292875,0.3053015488836335,0.6152639682615585,0.1044776119402985,0.49800743574149087,0.28034532287842107,0.0020707303194482415,19152.412754881134,1461.788054373138,0.10890974856886755,Catherine,REC_20260520_190100.csv
left,48,grass,50.848,1.0080000000000027,0.0,45843.0,3.7119057729194953,48082.14657229854,116.66666666666667,0.03069140018324299,0.19217315260166157,0.520113686051596,0.11600357004839808,0.46837562797887416,0.2476720886372795,4574.0,3396.3125,-7.0,380.34375,0.11198726560055942,0.0,-0.19047619047619047,-0.19047619047619047,0.763050851805517,-1.097444594987317,7132774.718918999,6503271.0,1920560.0,2212553.0,4088025.7823423953,647930.421016745,1260222.1866391196,0.09462008428258589,0.07907013120847979,0.057847665666807754,0.10362801567876925,0.08777902504554572,0.11174343497543292,0.11366187593161702,0.06683259417382824,0.08615502107064647,0.07073388417585248,0.049170975874569846,0.07875729191586463,3.9294431437481205,0.19960517311075052,0.5438713157225611,0.06349206349206349,0.46728060262481574,0.1006767592528344,0.004543986527208064,17059.413950465405,161.71462633407774,0.08053156730955671,Catherine,REC_20260520_190100.csv
left,49,grass,51.872,1.0559999999999974,0.045454545454545456,43158.0,3.461744194128896,45705.85597054277,2885.912698412699,0.7591945844647437,0.19635405227322644,0.5135075774214803,0.12579316832473975,0.45271607458222773,0.27786326880648254,4553.0,3363.6119402985073,-12.099999999999994,409.97014925373134,0.12188390234378467,7.666666666666667,-0.047619047619047616,7.6190476190476195,0.5510004735129213,-1.3913302961461174,7411691.8071861295,6762278.0,1161865.0,2802649.0,4259046.829544618,593376.0881614435,1334249.4862751283,0.09172353812976455,0.07199527870714673,0.059175903657227046,0.1032383454175948,0.07755522226462314,0.11152279443739406,0.11848936377916419,0.07118325183482575,0.08840443375546897,0.07477746913854155,0.05460991648991401,0.07732448238833523,4.201056787056917,0.24313789764637936,0.5695396960129169,0.07575757575757576,0.4595540101055958,0.15345007317642675,0.004299933089164783,14968.37534047479,1514.7267274917651,0.0333066559914575,Catherine,REC_20260520_190100.csv
left,50,grass,52.944,1.024000000000001,0.0625,51672.0,4.254993982517411,54351.9828985107,3420.3869047619046,0.8997982566477553,0.20547640249332147,0.5140249332146037,0.13058079096045197,0.46587570621468927,0.2802910502059838,4492.0,3403.846153846154,26.69999999999999,430.8,0.1265627118644068,4.75,-0.8166666666666667,3.9333333333333336,0.5521151386506954,-1.4656159971844689,8152946.710046006,7282735.0,2047620.0,3039665.0,4446890.834939258,870885.0721648901,1338815.1802295079,0.09307570621468927,0.07810169491525425,0.05462598870056497,0.1057084745762712,0.08816271186440679,0.11027796610169492,0.11400225988700566,0.07310734463276836,0.08362485875706215,0.07428248587570621,0.057473446327683614,0.06755706214689265,4.528107315315288,0.2819678311868167,0.6030036133601054,0.09375,0.48532721409599455,0.24173289840474388,0.005291319239140274,4352.674694943308,1773.3656171807797,0.02444040370642875,Catherine,REC_20260520_190100.csv
left,51,grass,53.984,1.024000000000001,0.03125,44632.0,3.599076844831817,46978.60215034075,1267.361111111111,0.3334036031810622,0.19289785181937746,0.5243314335817624,0.11344073856179572,0.47183328053581935,0.24042547069358985,4562.0,3399.5384615384614,-42.599999999999994,372.6384615384615,0.10961442729782322,4.5,-0.967741935483871,3.532258064516129,0.9448142787884285,-0.7196976560817845,7295103.127145222,6433632.0,1791056.0,2935818.0,4458089.535565657,854707.1350398893,1561670.861584523,0.09597230393266054,0.07873466986468751,0.054971263067384715,0.10747612798117392,0.08855953296827625,0.11310132597185138,0.11093813639860614,0.06440240756663801,0.0839616237498303,0.07161605647825496,0.04903833099515771,0.08122822102547857,4.342983524077642,0.23274847110405955,0.5700844756646658,0.09375,0.5037704961557451,0.15512818223723995,0.004327179633495399,4550.136847758886,1121.0777542269109,0.01847520861406638,Catherine,REC_20260520_190100.csv
left,52,grass,55.024,1.024000000000001,1.0,16410.0,0.9696317511155064,35843.97720677771,93.75,0.024662732290105974,0.19316896629721783,0.5157204252431576,0.12149108738486918,0.4579572011180864,0.26528917350392994,4421.0,3357.3846153846152,-6.900000000000006,395.05384615384617,0.11766714017321175,0.609375,0.0,0.609375,0.6089049271553901,-1.3668059924367053,10620869.676857682,9050579.0,3110525.0,4605923.0,4140466.2291181157,821612.6753622063,1278506.1877133104,0.09815790679558264,0.07865096457865556,0.06092196306648949,0.10367502176602668,0.08579480364752784,0.10813820281354534,0.11505292581221647,0.06784585070796867,0.08169820831233103,0.07786280529716354,0.05364523667690052,0.06855611052559227,4.387716233939658,0.2189161725389443,0.562662638181691,0.078125,0.487291202263573,0.13830233403947337,0.0033954935655277916,18661.241152006307,1687.1769421320805,0.0,Catherine,REC_20260520_190100.csv
left,53,grass,56.064,1.0399999999999991,0.03076923076923077,14764.0,0.8162738521623121,35728.6699724465,145.83333333333334,0.03836425022905374,0.1959641255605381,0.5266816143497758,0.10731771032730843,0.4725141088986276,0.2271206474180958,4460.0,3363.9848484848485,20.69999999999999,348.0681818181818,0.1034690099674358,10.0,-0.30158730158730157,9.698412698412698,1.0268105424525293,-0.5461343467692172,10512463.29888923,9173974.0,2430021.0,4521624.0,4206595.0830659,766320.0156967681,1359976.9825112475,0.09415691167131333,0.07383469280209708,0.05697157501700274,0.10872747418060291,0.08295086545087671,0.11742477130747715,0.1185913171157943,0.062025105507087105,0.08957630515757375,0.0707088905203515,0.04529260482022133,0.07973948644960208,4.055903050839333,0.21210400464113738,0.5526928019280465,0.07692307692307693,0.47655068638691095,0.13607788213395028,0.006881874505382736,16789.322122507932,663.0611171002921,0.009237604307033775,Catherine,REC_20260520_190100.csv
left,54,grass,57.12,1.1360000000000028,0.0,38109.0,2.991328621945009,41996.34594818935,203.125,0.053435919961896276,0.18549635197877515,0.5069644041565333,0.12418287515377627,0.45306306233868565,0.2740962251759656,4523.0,3454.6944444444443,44.400000000000006,417.4236111111111,0.12082793943828446,0.0,-0.1267605633802817,-0.1267605633802817,0.4885622498028948,-1.4929796584259483,6876390.742117262,6378654.0,1477072.0,2101376.0,3914021.289606498,775546.7462367243,1307137.294045329,0.1004591176257749,0.08193360081692383,0.06324325193577178,0.09973546462542916,0.08473172575159404,0.10507039535575585,0.11334014103192917,0.06912896300525051,0.08159187578898279,0.07713738954241008,0.055053912148525765,0.0685741623716521,4.3795383647647075,0.20502161274228775,0.5322889330930003,0.09859154929577464,0.46825021764476765,0.1653432865077876,0.001382655373122773,13029.101670235534,54.70816408537291,0.06057502235520453,Catherine,REC_20260520_190100.csv
left,55,grass,58.272,0.9759999999999991,1.0,19794.0,1.2849191934348314,37602.538970128066,171.875,0.04521500919852762,0.2018970189701897,0.5239385727190605,0.11669754702541588,0.4514993756797035,0.2584666852521213,4428.0,3203.483870967742,37.69999999999999,359.8709677419355,0.1123373746324566,0.9180327868852459,0.0,0.9180327868852459,0.9246016236013497,-0.8710261638092471,11125959.089888835,10043846.0,2145358.0,4278500.0,4501812.250347629,771048.1495726672,1273174.0078239255,0.10131107262254803,0.0769223023321384,0.0668022717203045,0.10104422604422604,0.08375961654650178,0.10560579208120192,0.12046864300962662,0.06587082611672776,0.08416743867563539,0.07400209449389777,0.05082672090868812,0.06921899544850364,3.4387514205191128,0.1786178749856174,0.452834027147447,0.06557377049180328,0.4700528790389785,0.1239663106386909,0.004795751373181176,12286.368801779243,28.685263267106034,0.08053156730955677,Catherine,REC_20260520_190100.csv
left,56,grass,59.264,1.0399999999999991,0.0,44421.0,3.5794179647108426,46095.41915418494,1184.0277777777778,0.31148117447874585,0.1934726962457338,0.5245307167235495,0.10606703057840543,0.4845277999705419,0.21890803909453607,4688.0,3394.651515151515,59.19999999999999,346.8181818181818,0.10216606337063205,0.0,-1.0153846153846153,-1.0153846153846153,1.1250644807961774,-0.3262333226797973,7633972.267645921,6894225.0,2069611.0,2542421.0,4525001.252270669,1047246.6316219774,1447511.5613210907,0.09525233544747308,0.07907269456855036,0.051904287939584105,0.11124005231045273,0.09272607979575714,0.1146589778037644,0.1134449468191942,0.061589755720897844,0.0868299954920173,0.06750815677067758,0.04447727485750758,0.08129544247412375,4.109734700710192,0.23674145720183012,0.5614486222840516,0.09230769230769231,0.5110339104419664,0.20669465162578843,0.005534849181171595,12791.72713123605,575.5577103290668,0.08053156730955677,Catherine,REC_20260520_190100.csv
left,57,grass,60.32,1.152000000000001,1.0,18793.0,1.1916559754201612,36720.8901035909,131.25,0.03452782520614836,0.20382732532265244,0.5291499777481086,0.12809839241971943,0.4616102582682871,0.2775033486045041,4494.0,3478.3835616438355,13.099999999999994,433.55479452054794,0.12464260678476068,1.0694444444444444,0.0,1.0694444444444444,0.5175625815920704,-1.4482200773188243,11063037.686735682,9121439.0,3232698.0,5360953.0,4045190.1157310167,978552.0813517625,1554108.1082871484,0.09397373996739156,0.0765195611250699,0.053177747497262944,0.10327580910673358,0.0881451784406235,0.11058907853592836,0.11409409188648482,0.07286489551909642,0.08308063105993178,0.07463315506336592,0.05523349690062303,0.07441261489748821,4.420416567146369,0.2218369739309571,0.5372175889180497,0.09722222222222222,0.48831453882066495,0.17386151918139403,0.0013053892347187279,14515.999873702607,596.440089974255,0.08908422980528152,Catherine,REC_20260520_190100.csv
left,58,grass,61.488,0.911999999999999,0.017543859649122806,18162.0,1.1328656751531712,34550.921854561275,109.375,0.028773187671790303,0.19573560767590617,0.5098081023454157,0.1293417579303728,0.46237515970112897,0.2797333620039112,4690.0,3468.2241379310344,29.30000000000001,434.66379310344826,0.12532748052516193,5.0,-3.857142857142857,1.1428571428571428,0.5478230288890552,-1.4381937392060362,10014983.571311787,8862432.0,2107485.0,4161214.0,4232568.839287387,696173.8711433248,1348829.288365912,0.09513961731383944,0.07658694452591758,0.05283932450772282,0.10472914191402735,0.08816496567357836,0.11032178845379481,0.11048086817759262,0.07254532529317896,0.0825723191338109,0.0739869852900968,0.05679643263719383,0.07583628707924656,3.694056582086838,0.20423907454571238,0.49770016698422104,0.05263157894736842,0.4053678125113201,0.1686570055508123,0.0014722380450967552,14981.80911416689,614.2336902994394,0.12008885599144321,Catherine,REC_20260520_190100.csv
left,59,grass,62.416,1.024000000000001,0.984375,16817.0,1.0075519606379548,36813.141050445556,114.58333333333333,0.03014333946568508,0.16652470187393525,0.4942504258943782,0.09192021203875617,0.4877508809222451,0.18845729579185655,4696.0,3488.476923076923,-1.4000000000000057,309.4769230769231,0.08871405197772006,1.5873015873015872,-10.0,-8.412698412698413,1.2414442449258358,0.053026269938204695,10052871.128751129,9150761.0,1660331.0,3816686.0,3944689.811836949,592007.2151398029,1046751.4479216122,0.10039647013684615,0.0844494621853928,0.05775939246133424,0.10815828816631459,0.09254203950588973,0.11692120431662925,0.10882421687225194,0.05219381612429493,0.08567988674801874,0.06614744808181662,0.039726395914461234,0.08720137948674979,3.8988867812068166,0.15566055233530293,0.5222372122317896,0.046875,0.42476375542164563,0.14307035206375723,0.0057264047290720745,1009.2705286498544,11.426724077691016,0.12008885599144321,Catherine,REC_20260520_190100.csv
left,60,grass,63.456,1.1679999999999922,1.0,17152.0,1.0387639267068005,35143.29559105122,437.5,0.11509275068716121,0.19480231008440693,0.519768991559307,0.11871548294905958,0.4663847371876569,0.2545440995021668,4502.0,3499.054054054054,58.69999999999999,404.1418918918919,0.11550032827405089,1.2191780821917808,0.0,1.2191780821917808,0.5819783770398681,-1.382070201006055,10256225.564836072,9356011.0,2506990.0,3371976.0,3940950.1696954635,838324.4937078439,1102680.744393645,0.09434210018151624,0.07927239022129533,0.05834009191673425,0.10497045533541884,0.0881126173096976,0.11095662920480438,0.11498088286409454,0.06713783648090217,0.08307264511644073,0.07341366392461283,0.05157764646815741,0.07382304097632565,4.696531719311906,0.24237335992891557,0.5474038981409307,0.1095890410958904,0.4157521622536119,0.2761361451558361,0.0020566957225395402,700.1606958414479,187.95758208179979,0.12833290043216675,Catherine,REC_20260520_190100.csv
right,120,grass,123.664,1.152000000000001,1.0,10658.0,0.4233921012494361,26707.12094180127,468.75,0.14684890037732778,0.23472192852611545,0.49164728272362024,0.15560806691346118,0.4220305956142833,0.3687127628433191,4729.0,3437.6849315068494,-8.800000000000011,520.1232876712329,0.151300453076497,0.8055555555555556,0.0,0.8055555555555556,1.0545121542680498,-0.6853467377266811,6942562.631356306,6831916.0,796568.0,943175.0,4057854.850874889,1188106.8067571593,2055809.7758814574,0.11357197221768393,0.10883001063952724,0.03881634263262549,0.1319620164892748,0.10300417212922044,0.04726420695673657,0.12186044287530234,0.0760985212252591,0.03097018939952421,0.11008125092149464,0.07950954568820208,0.03803132882514913,4.0825745542391685,0.16395670843786675,0.5130033573866725,0.09722222222222222,0.5460765627606223,0.096066694868193,0.002465175683993061,3737.6295072322064,109.55856142814262,0.08908422980528188,Catherine,REC_20260811_193525.csv
right,121,grass,124.832,0.8640000000000043,0.0,14821.0,0.8051898513588267,35337.162605393205,619.7916666666667,0.19416687938780008,0.2456218133451563,0.5291509643094657,0.15502253790465784,0.4148121841278514,0.37371741678823306,4511.0,3327.7272727272725,-23.5,496.40909090909093,0.14917361016254613,0.0,-1.3888888888888888,-1.3888888888888888,0.9373991388611193,-0.8370259813070695,12109556.050840262,8976053.0,1654223.0,7958352.0,4763396.873373132,1056431.6043212444,2299646.3637269475,0.10789236443108867,0.09996448572599372,0.04453489960387925,0.12939762327550883,0.09805764239857943,0.051588580794973374,0.1302335746482721,0.07474388744707007,0.03580385193279607,0.11316486818740609,0.08027865045758777,0.03433957109684469,4.412117179397493,0.24461474976052838,0.5429401930883095,0.05555555555555555,0.43379886155228076,0.08084103170775837,0.0022400265290422623,2860.520290669665,183.1823478653084,0.1875028888666295,Catherine,REC_20260811_193525.csv
right,122,grass,125.712,1.0879999999999939,1.0,11409.0,0.49226793846590317,34374.809468562875,1697.9166666666667,0.531919350255654,0.2235739928201037,0.4798564020741923,0.16249209793435734,0.39842214970356576,0.4078390171207464,5014.0,3392.985507246377,-4.900000000000006,535.8478260869565,0.1579281211023595,1.5441176470588236,0.0,1.5441176470588236,0.6382469249716582,-1.4147502737047044,10278088.734731374,8754920.0,1494176.0,5172806.0,4375277.409921429,1084759.1960102972,2149923.0787158883,0.10998393958550462,0.09672128346631584,0.04147943754378171,0.12728305626270736,0.09257376685062105,0.048868936766389315,0.1296066907003366,0.07615882724803089,0.03297510635753216,0.11899656580498556,0.08633327068632643,0.03901911872746843,4.658158895940572,0.32346882288795614,0.6324703382582152,0.08823529411764706,0.4824581306232907,0.15512689679804156,0.0036182128778950292,2218.7201265593485,670.3255173345386,0.1512261000400802,Catherine,REC_20260811_193525.csv
right,123,grass,126.816,1.039999999999992,0.06153846153846154,9327.0,0.30132320732784135,32142.101704773446,437.5,0.13705897368550593,0.24967061923583664,0.5278875713658322,0.1658142220755651,0.40134075495619104,0.4131507204982121,4554.0,3489.6666666666665,-4.099999999999994,561.8257575757576,0.16099696940751484,0.75,-0.8524590163934426,-0.10245901639344257,0.8354740791626084,-1.0658129588377325,10409744.51040279,8471479.0,1813048.0,5771454.0,4295257.452082864,1302324.023027755,1940711.9468588487,0.11025625439609583,0.09693988311812365,0.04226764733976502,0.12005574900789344,0.08993218072404241,0.05478078135447512,0.12187497286360598,0.07766653062287793,0.03963216075165641,0.11449387368768399,0.08814769145268717,0.0439522746810931,4.746225634609328,0.29709667072354357,0.6222338060368791,0.07692307692307693,0.4876276693904344,0.20263226578177085,0.002618403942359416,2773.701017293116,681.2040738002373,0.11793783673330545,Catherine,REC_20260811_193525.csv
right,124,grass,127.872,1.0559999999999974,0.16666666666666666,17047.0,1.0093411345064374,33765.13516928371,2064.732142857143,0.6468344421382296,0.21675845790715972,0.43902439024390244,0.17472551130247577,0.3931151776103337,0.4444639160575483,5084.0,3466.417910447761,3.5,589.4701492537314,0.17005166846071046,0.6363636363636364,-0.4727272727272727,0.16363636363636364,0.44473627198385957,-1.6926709784746983,10722100.591514705,8783020.0,2516764.0,5611408.0,4351347.202462939,1324777.2677993816,1792108.0506693304,0.0999913885898816,0.0898729817007535,0.042273412271259414,0.12463724434876211,0.08695801937567277,0.05348546824542519,0.12799138858988157,0.08318191603875134,0.03816146393972013,0.11895801937567275,0.09154359526372444,0.04294510226049515,4.424434608905411,0.2859697653125905,0.6153573715575631,0.09090909090909091,0.4687817831022569,0.1682048108705073,0.0019781869572464343,3994.165912093896,853.530727227733,0.024440403706430552,Catherine,REC_20260811_193525.csv
right,125,grass,128.944,1.0880000000000223,0.10294117647058823,9954.0,0.35882673586941904,29645.6760759474,406.25,0.12726904699368408,0.24698658176029112,0.48987946327041165,0.15835847259575647,0.4045749961189734,0.39141932673732177,4397.0,3454.1884057971015,-47.5,531.6884057971015,0.1539257108572244,0.2857142857142857,-0.9344262295081968,-0.6487119437939111,0.7826868748940895,-1.1798864698493365,9346163.376633858,7804414.0,978606.0,5048190.0,4027478.6897144956,1530778.3782703076,1987850.6135286079,0.10877363754987644,0.09880883951010955,0.047793269250940885,0.12336629758453295,0.09299359315932348,0.052014147915364246,0.12892560596461342,0.07498562971230055,0.03739211794964315,0.11390498407730165,0.08337284288345592,0.037669034442537726,3.9467548909393493,0.26445137791848494,0.6183264866271801,0.08823529411764706,0.440970888449306,0.19976826144097595,0.005119272672536024,4287.62129080133,948.6327026676765,0.02444040370644603,Catherine,REC_20260811_193525.csv
right,126,grass,130.048,0.9919999999999902,1.0,12830.0,0.622590927393466,35886.09276586126,175.0,0.05482358947420237,0.20941084969861948,0.4452654092941863,0.1266466144044715,0.4269852923761931,0.29660650300058033,5143.0,3351.031746031746,7.699999999999989,407.9047619047619,0.12172512611609787,1.2258064516129032,0.0,1.2258064516129032,1.683390006384413,1.323832395439136,10655186.206527786,8692612.0,1892460.0,5864306.0,4376116.213373854,1453265.9042758371,2050135.375231891,0.10697013476067546,0.10068919783056629,0.05682684792648556,0.1328470265021434,0.09960921772493664,0.05393269071359212,0.13120810932430194,0.06117045212325036,0.039907159604954646,0.1096748217795988,0.06547616228122113,0.04168817942827369,4.7292358804421175,0.2453943742082113,0.6152012418087522,0.06451612903225806,0.4896063743822151,0.12045064051778223,0.005817835075411414,3567.564855752384,1030.7866860173256,0.04888080741287652,Catherine,REC_20260811_193525.csv
right,127,grass,131.056,1.0559999999999832,0.0,46068.0,3.670919925264214,49040.72977638077,385.4166666666667,0.12074242919913618,0.22162938641493946,0.4754771188179766,0.15049640081889626,0.4145904418077355,0.3630001699088404,4873.0,3390.0746268656717,-11.699999999999989,494.7014925373134,0.14592643141743897,0.0,-1.2727272727272727,-1.2727272727272727,1.1291105392021683,-0.4160602939425151,7940960.411205562,6257703.0,3777590.0,3103195.0,4065801.751994109,1491619.6203014024,2158270.376996458,0.11358002949787571,0.10327778633852114,0.0476280626059392,0.13014726924516257,0.0993462037995025,0.0498558126224492,0.12635657208268208,0.07230941950822198,0.03196336980210007,0.11038369251766571,0.07818698131067427,0.03696480066920554,4.061466345400705,0.24742920892825326,0.5810327019174182,0.07575757575757576,0.5323682863981494,0.17707232853777416,0.004753312951386468,20071.775440486894,127.92300020513912,0.04888080741287497,Catherine,REC_20260811_193525.csv
right,128,grass,132.128,1.024000000000001,0.984375,56357.0,4.614546408779832,56804.4253733809,2371.279761904762,0.7428689611151486,0.23404693289419515,0.4491560312885961,0.15148374809192375,0.40866208261561654,0.37068217125075287,4858.0,3295.7076923076925,-27.0,483.0153846153846,0.14655892746276042,2.3174603174603177,-18.0,-15.682539682539682,0.9479693055192061,-0.7431452321210772,8639016.7431456,6131865.0,3497814.0,4979773.0,4328594.446242128,1609798.4313307717,1990864.2510196946,0.11082947050009102,0.10011623510300109,0.042437482786468174,0.13560295209153164,0.0972593723304438,0.0460365697107193,0.1363918570074829,0.07220113807703259,0.029646953379920737,0.11825171201702914,0.07928261001489116,0.03194364698138838,4.636164010271235,0.2580067236626523,0.6193449123751861,0.078125,0.5873868557449412,0.19045731913630343,0.007070583005810814,22749.461143801473,1211.8561657771238,0.031999999999995636,Catherine,REC_20260811_193525.csv
right,129,grass,133.168,1.0079999999999814,0.0,13204.0,0.6568912777516001,36507.380116902394,2604.1666666666665,0.8158272243184875,0.22150882825040127,0.44542536115569825,0.1420372963481585,0.42376475295059013,0.3351795904663745,4984.0,3514.921875,-30.599999999999994,482.1171875,0.1371629881531862,0.0,-0.23809523809523808,-0.23809523809523808,1.1283447309899808,-0.41429744092387244,9991137.029057754,8976053.0,2083050.0,3861890.0,4353568.742984207,1650738.0463019696,1612812.716783104,0.10648796425951856,0.09700162254673157,0.0462403591829477,0.12978151185792713,0.09475228379009135,0.058847325020559664,0.1242159543019715,0.06721344268853771,0.04338200973528039,0.10939076704229735,0.07482385365962081,0.04786290591451624,5.089762233874117,0.28229629868146566,0.6358545818244652,0.07936507936507936,0.5765424990431145,0.2538876111241838,0.005951903802387246,22539.178578643892,1219.3399926420725,0.024440403706428967,Catherine,REC_20260811_193525.csv
right,130,grass,134.192,1.0079999999999814,1.0,13151.0,0.6520305329147521,31773.207124871737,1993.75,0.6245973229382341,0.24139433551198258,0.5063180827886711,0.153907967195292,0.4045000118172579,0.3804894009859963,4590.0,3305.546875,-25.400000000000006,491.6484375,0.14873437167639622,0.42857142857142855,0.0,0.42857142857142855,1.0444484340227238,-0.5993009822174007,9656509.32215327,8345640.0,1343903.0,4668232.0,4141121.094781772,1180164.8341337747,1904811.3029475696,0.10647822079364704,0.10246980690600553,0.04794497884710832,0.13196095577982084,0.09527073337902674,0.0455106237148732,0.13661222849849922,0.07358370163787195,0.029287892037531613,0.11842783200586136,0.08032426555742006,0.032128760842334146,5.218808705057077,0.33244351334134986,0.6614561655521299,0.07936507936507936,0.552667445891062,0.23426995771191728,0.004631902506580395,24929.710033077656,308.05127778718276,0.009237604307042629,Catherine,REC_20260811_193525.csv
right,131,grass,135.216,0.9919999999999902,0.0,12390.0,0.5822375740309553,36385.54941182007,359.375,0.1125841569559513,0.2416958041958042,0.4750874125874126,0.1708199508785188,0.39919705271112793,0.4279088478190804,4576.0,3360.6349206349205,-1.0,557.2539682539683,0.1658180615907803,0.0,-1.5161290322580645,-1.5161290322580645,0.6807981378854134,-1.305599127427555,10583870.904434068,8874650.0,1098335.0,5661499.0,4474298.782888588,1286662.1834953348,2075211.1996057285,0.11131211033440393,0.1020357075382581,0.04029850746268657,0.1299829964103533,0.0982335159644814,0.04197997354997166,0.12887776308331758,0.07918949556017382,0.02696485924806348,0.12143396939353863,0.09163045531834499,0.028060646136406575,5.111335295844018,0.24800001256357052,0.6081223104489191,0.08064516129032258,0.5256776636515621,0.2404192230795798,0.0028223055843360034,455.4349569357176,1160.666459001434,0.009237604307026252,Catherine,REC_20260811_193525.csv
right,132,grass,136.224,1.0560000000000116,1.0,12620.0,0.6033313723795404,34412.74162283499,208.33333333333334,0.06526617794547901,0.22240459581452607,0.43824374230611407,0.17151546627700218,0.3925018925723139,0.4369799726386634,4874.0,3391.10447761194,-21.099999999999994,566.0373134328358,0.16691827608668863,1.196969696969697,0.0,1.196969696969697,0.47887744979675156,-1.6296232689234906,9788562.805764286,8600982.0,2020742.0,4213748.0,4196900.19313984,1421893.5399448208,1544756.0823163993,0.10822872836745831,0.10250699811623036,0.043093431453671595,0.12682875301491173,0.09709336103237619,0.04077393003644302,0.13270012851886412,0.08106371366701291,0.0252988503723526,0.1235321561240119,0.09045175260998926,0.028428196686678054,5.23998053087507,0.3083899267543823,0.6570932896680375,0.09090909090909091,0.520420900089399,0.22769364480909843,0.0032576902581305527,390.29518743172673,990.0932531253118,0.033306655991470764,Catherine,REC_20260811_193525.csv
right,133,grass,137.296,1.0080000000000098,0.015873015873015872,9686.0,0.3342478751849807,37817.7384437515,2881.25,0.9026312409859747,0.22940674349125054,0.4739650021340162,0.15361034287427944,0.396492714576084,0.38742286359131756,4686.0,3282.453125,-18.80000000000001,487.7734375,0.1486002751372116,3.0,-0.6774193548387096,2.3225806451612905,0.9344336890495007,-0.8621554281757398,10414535.427065145,9169087.0,2820975.0,4053701.0,4561505.997255432,1378752.0432131307,2299853.2894263905,0.11156385515787069,0.09506514278098031,0.046630521189849436,0.13125187431275198,0.09374181847608258,0.045678489315822295,0.13740676037833746,0.07388243358387639,0.030755389690446836,0.1187231348505548,0.07972790929040305,0.035572670973024176,4.938925794483341,0.29871966077849227,0.6363818085298152,0.07936507936507936,0.47965531436821807,0.19331951978257286,0.005137648325054676,1631.6082046043812,1501.5076094622868,0.033306655991466226,Catherine,REC_20260811_193525.csv
right,134,grass,138.32,1.0080000000000098,1.0,58564.0,4.816955160759517,60327.36589641553,2427.0833333333335,0.7603509730648306,0.21059862610402355,0.45691854759568207,0.13906695398015007,0.41983456887166215,0.33124226609973423,5095.0,3458.765625,28.099999999999994,464.828125,0.13439133361341882,1.2063492063492063,0.0,1.2063492063492063,1.144400261664609,-0.2551642004171133,8676685.657536004,6954089.0,4535063.0,2521651.0,4584480.213262185,1645682.8356557267,1656213.8781492938,0.10527599712686517,0.09713093092279128,0.0480888684095211,0.12856826631610807,0.0943165236875511,0.05850624093675037,0.12922330491821052,0.06462294622810703,0.04131260700846129,0.11389991913661394,0.07444400775204305,0.04461038755697706,5.563841609938612,0.35523297586803415,0.6657076935259524,0.07936507936507936,0.5602576117316327,0.22749279185437604,0.004944479264936721,27412.03621282689,1430.2448759190136,0.027712812921102177,Catherine,REC_20260811_193525.csv
right,135,grass,139.344,0.9920000000000186,1.0,14998.0,0.8214229048705639,34922.66189739837,500.0,0.1566388270691496,0.23594756720728727,0.5085536547433903,0.15965663585809795,0.40117947313021785,0.3979681079200054,4501.0,3302.5238095238096,0.4000000000000057,510.6031746031746,0.15460999043540533,0.3870967741935484,0.0,0.3870967741935484,0.802046895392161,-1.0768481273648074,10162848.357969236,8250345.0,2106263.0,5547878.0,4248326.113805942,1505474.2824368803,1893207.3651987743,0.11440504856795428,0.10349948812596427,0.043386731648234395,0.13346214294983633,0.09929875660269442,0.03997904440567339,0.13387548724159976,0.07418568771358124,0.024940041046049438,0.12104739521001254,0.0854709481445167,0.026449228343883226,5.3125738955806945,0.26143455746067795,0.6197048055482637,0.08064516129032258,0.5047743876287987,0.1981446021924858,0.002144107359661872,26818.13001186572,1264.2698220199563,0.009237604307026295,Catherine,REC_20260811_193525.csv
right,136,grass,140.352,1.0080000000000098,0.0,9590.0,0.32544350717861475,30440.13267053874,375.0,0.11747912030186222,0.24210765387235975,0.5098796275266864,0.16829414753568295,0.3896438634578964,0.43191786992878056,4403.0,3382.65625,-17.69999999999999,552.953125,0.16346713474063468,0.0,-0.6666666666666666,-0.6666666666666666,0.4833027360546536,-1.5680749362594288,9372174.380823854,8180707.0,1144761.0,4427551.0,4083398.99233395,1375779.56103984,1846502.6972715158,0.10854542935008546,0.09273869462792739,0.04152616749041526,0.1291699385652917,0.09173633886091737,0.04518915423345189,0.13667605894036677,0.08036860824980369,0.030809737170308098,0.12085546676520856,0.08792553928587926,0.03445886646034459,4.306353432687971,0.20026467242009496,0.5459213609122227,0.09523809523809523,0.48535436991459985,0.23318117649282705,0.004006802546372597,26850.498120767385,1150.3855281712863,0.009237604307026295,Catherine,REC_20260811_193525.csv
right,137,grass,141.376,1.024000000000001,0.984375,56793.0,4.654532913475411,60362.38432997822,3892.8571428571427,1.2195451536098076,0.21043129388164494,0.4748244734202608,0.1362882879600703,0.4218711575419198,0.32305666202466615,4985.0,3378.246153846154,-0.5,444.88461538461536,0.1316910003369978,0.7619047619047619,-31.0,-30.238095238095237,1.396783231470654,0.3230172982337871,9530367.66135326,7142236.0,4274834.0,4641354.0,3960358.2979132314,1791726.3348925468,2368803.6463319394,0.10951973258768774,0.09937792026814095,0.049593325621852036,0.1369121893016859,0.09797983477999508,0.05224376781762043,0.1264698113723097,0.06408878525953385,0.03535744537447742,0.11356370624721066,0.07219950270053646,0.04269397866894975,5.082977211038251,0.3054515133898813,0.6618862251403759,0.0625,0.5370839239507975,0.14216207017700155,0.006621596338101167,25833.41407944369,1995.9301703461376,0.01599999999998964,Catherine,REC_20260811_193525.csv
right,138,grass,142.416,1.0080000000000098,0.9841269841269841,11897.0,0.5370234758315968,36536.27300368772,350.0,0.10964717894840474,0.21142403808012694,0.44942483141610473,0.15306642061602607,0.4104142094244939,0.37295594816407696,5042.0,3590.046875,-22.69999999999999,533.359375,0.14856613118735393,1.0161290322580645,-1.0,0.016129032258064502,0.5779169170431838,-1.472779408429196,10178594.623686317,9044470.0,423940.0,4649906.0,4496862.49963209,1182711.4281714195,1978486.1822134028,0.10458167764174388,0.09583788512510717,0.043022592845671406,0.12596022858336633,0.09222981942262244,0.05610128697832114,0.1260168086245392,0.07181748149179808,0.04028498931507684,0.1141045338022223,0.08124893912422801,0.048793757045303206,5.5414028272401055,0.3473375586043954,0.6651906438485649,0.07936507936507936,0.5450090827309962,0.2333263977705924,0.0037593617025442404,26611.702544807853,2038.2909758032142,0.009237604307026295,Catherine,REC_20260811_193525.csv
right,139,grass,143.44,1.0560000000000116,0.12121212121212122,13304.0,0.6660624944248978,32268.342597660638,281.25,0.08810934022639666,0.2170716765366551,0.450479885644272,0.16351976740185112,0.392006159033823,0.41713570981833,4897.0,3470.208955223881,-27.19999999999999,552.1119402985074,0.1591004885937446,4.625,-0.5862068965517241,4.038793103448276,0.5916472493626304,-1.5055129692871634,10910993.001457293,8560665.0,1888795.0,6495940.0,4226176.51641126,1373385.434221784,2192202.1312679294,0.10144341602725114,0.09542201424491621,0.05596032756425695,0.12207531913429445,0.09042425076557822,0.05017548085194233,0.13364071155765062,0.07813198912706878,0.03390909403709183,0.11647971647799607,0.08538777827478236,0.03694990193717097,4.342015274147105,0.2518160724301147,0.6024647220487854,0.07575757575757576,0.4750069663791237,0.1468332145561469,0.002221785528548071,25524.24855570351,2065.6019885871297,0.024440403706432134,Catherine,REC_20260811_193525.csv
right,140,grass,144.512,0.9439999999999884,0.9830508474576272,51457.0,4.165156791788236,53181.88313702327,250.0,0.0783194135345748,0.22664282521233794,0.5243629861421547,0.14202468063690057,0.4218356038664029,0.3366825354120197,4474.0,3377.8166666666666,-43.400000000000006,462.875,0.13703378415051143,0.034482758620689655,-3.0,-2.9655172413793105,1.1297003058946389,-0.38331230627958046,9108275.061093895,7509977.0,3513696.0,3770260.0,4745943.481817418,1412062.3278775082,2012581.0420095809,0.11641148868351844,0.10528003789430056,0.03979394974071022,0.13343925316649316,0.10086890446984985,0.050111265166354994,0.12662518688107208,0.0666653508923417,0.0321361431694043,0.11494111087536821,0.07535932974455886,0.03836797931602761,4.304652961542106,0.22472420317622155,0.5347326539237147,0.0847457627118644,0.49461383283387855,0.301187111658746,0.004283503889888624,22444.838523218044,51.15845482423951,0.05619015334855954,Catherine,REC_20260811_193525.csv
right,141,grass,145.472,0.9919999999999902,1.0,16424.0,0.9522044546317916,35633.61876093979,125.0,0.0391597067672874,0.21533754063874547,0.4513291260279212,0.13457077627659914,0.4284093352671239,0.31411728269786743,5229.0,3469.3492063492063,-1.4000000000000057,450.23015873015873,0.12977366415182393,2.5,0.0,2.5,1.5702271841698898,0.9863244872023267,10862476.444393469,8696277.0,1996307.0,6195395.0,4388325.2761408705,1257347.950871902,2161577.021099252,0.11312217194570136,0.10469005211169014,0.04597632784155118,0.12764390192570768,0.10011026266304919,0.056563373579967886,0.1209366378580677,0.0626026563693845,0.03940174498670901,0.11081168875732607,0.07196811990721465,0.04617306205363066,5.112842274208933,0.31540393381437676,0.649591712437744,0.0967741935483871,0.5032637555947029,0.27028221736600133,0.006113259364438221,21184.4947150819,82.67972847079179,0.05619015334855954,Catherine,REC_20260811_193525.csv
right,142,grass,146.48,1.0080000000000098,0.0,13845.0,0.7156787766274394,34751.36885073737,1799.4791666666667,0.563736612004075,0.22237762237762237,0.47092907092907094,0.15280283822226803,0.4076945068026414,0.3747973928334657,5005.0,3333.953125,-14.699999999999989,492.96875,0.14786313169894974,0.0,-1.873015873015873,-1.873015873015873,0.9855913485207801,-0.7420804762259237,10968532.459784491,8673064.0,2367713.0,6283359.0,4283543.762486596,1379326.1541125788,2086701.5527315428,0.10801272888322327,0.09308113022734835,0.04297638407858539,0.13303932550041478,0.09329202851344828,0.052157489466802265,0.13117873395415539,0.07014476995683615,0.036124533094627716,0.11717040112854016,0.0826580682654319,0.040164406930586344,4.225170501346372,0.24598515434469334,0.5801408824850782,0.07936507936507936,0.4704425885552646,0.17622918028923634,0.004342710793407528,21010.413584696507,932.7728526222896,0.03330665599146625,Catherine,REC_20260811_193525.csv
right,143,grass,147.504,1.024000000000001,0.0625,12615.0,0.6028728115458756,34665.58219617839,1798.1770833333333,0.5633286983919157,0.21142618849040867,0.45642201834862384,0.1535216744824431,0.39951504060391174,0.38427007466418195,4796.0,3362.6923076923076,-21.19999999999999,500.9384615384615,0.14896946128331237,2.5,-0.4666666666666667,2.033333333333333,0.7761294336255312,-1.2268910765240033,10928358.468464969,8798902.0,2023185.0,6157521.0,4240951.331280497,1198387.0526744993,2174777.023210298,0.09909184490449502,0.09043577719318313,0.055326546951847196,0.12585611346219833,0.08775477524877046,0.0563833924282283,0.13897289259979412,0.07234130161271875,0.03908498227153152,0.11749285142399635,0.08118037286972435,0.036079149033512524,4.359080186939819,0.21400972657033915,0.5804652186845908,0.078125,0.4422860575487651,0.10366971092664017,0.005165529840130528,1943.9059476559441,966.3853378452403,0.01600000000000383,Catherine,REC_20260811_193525.csv
right,144,grass,148.544,0.9759999999999991,0.9836065573770492,15405.0,0.8587497567308863,35199.22305960744,320.3125,0.10034674859117398,0.20908909706996212,0.468407414789715,0.14704083300259146,0.4199425676464408,0.35014510157085843,5017.0,3454.2741935483873,-18.30000000000001,491.7016129032258,0.1423458548315551,1.2666666666666666,-11.0,-9.733333333333334,0.9042613751126147,-0.9099646783508248,11520442.03807419,8389623.0,2748893.0,7401243.0,4336969.8384311935,1385910.7183672953,2291661.124702388,0.11081175728993999,0.10691756356080591,0.04264935913898162,0.12812551070436345,0.10195877010716035,0.05027899049798053,0.12471225457007447,0.06779819298204655,0.032661732776130555,0.11581257441692153,0.0792426400205449,0.03903065393505007,4.52890634214491,0.26361708884764623,0.5913742941990853,0.08196721311475409,0.5140411485258276,0.21527976968852255,0.003970782032536797,1398.2489048802445,853.6216423636612,0.024440403706432134,Catherine,REC_20260811_193525.csv
right,145,grass,149.536,1.024000000000001,1.0,48049.0,3.852601727562245,50663.92138395922,1784.7222222222222,0.5591135910662701,0.24077367718986217,0.4626500666963095,0.1715338841280714,0.38083588460337653,0.4504141838067067,4498.0,3301.523076923077,-43.599999999999994,550.1923076923077,0.16664802725082598,1.078125,0.0,1.078125,0.45568587073263794,-1.6456534310113036,8044023.1628814945,6652322.0,3203377.0,3192381.0,4207102.7419191,1278550.386083112,2079480.7617962128,0.10734905568059495,0.09474881057227666,0.04568986807953438,0.1271394554494662,0.09370034343123687,0.04000018639415841,0.14071361003546148,0.07936663264973276,0.02524708875623838,0.12829975908555025,0.09216725147833867,0.025577938387410938,4.761023006164221,0.28791557405499063,0.6510350617676239,0.09375,0.4912339487027965,0.2431377411359096,0.0031176234950294284,19701.874665455893,849.3880733109676,0.027712812921102246,Catherine,REC_20260811_193525.csv
right,146,grass,150.576,0.9920000000000186,0.0,12337.0,0.5773768291941075,31480.555315940663,520.8333333333333,0.1631654448636975,0.2165991902834008,0.4842105263157895,0.1423479131515028,0.4090770029481023,0.3479733940689406,4940.0,3424.3174603174602,-29.5,470.5,0.13739964400274415,0.0,-0.08064516129032258,-0.08064516129032258,1.1769053300399341,-0.09463909380956181,11005989.97270609,7854505.0,2731789.0,7209431.0,4443917.551683257,1364839.2680172208,2266458.5547215673,0.10706339346967533,0.0990534552129494,0.06220217677488736,0.1256095525930321,0.09498359075148796,0.053135371664843424,0.1280709398698385,0.06561381714349285,0.036295032725789406,0.11352047911297351,0.07673409600800994,0.03771809467302023,5.028924913861297,0.27383783536076733,0.6445484901204691,0.08064516129032258,0.5422537125739468,0.13809238774617527,0.005276465015161641,19792.213553145913,793.9478952883148,0.02444040370642901,Catherine,REC_20260811_193525.csv
right,147,grass,151.584,1.039999999999992,1.0,12701.0,0.6107600578849117,33520.65078425537,612.5,0.19188256315970828,0.2339566510837229,0.4774755631109222,0.15606490057357109,0.4172651594616913,0.3740185276307237,4706.0,3394.469696969697,-21.5,513.530303030303,0.15128439752717207,0.9230769230769231,0.0,0.9230769230769231,0.8476733608631136,-1.0400101267902826,10456370.906865824,8107403.0,2015855.0,6288246.0,4322361.351573127,1324863.5110730159,2184317.6709673945,0.10519338496217108,0.10343473118039592,0.044479657196420205,0.1326087441694378,0.10294373646974803,0.04850135023545428,0.1314616019818332,0.07395719418840806,0.02977659740665521,0.11568281741692146,0.08210770638516303,0.029852478407391702,4.528456609234868,0.31983817894556626,0.6354934185176976,0.07692307692307693,0.4863164689859521,0.16750615488724463,0.003509936133336623,20514.06242881533,704.7366930878262,0.02444040370641659,Catherine,REC_20260811_193525.csv
right,148,grass,152.64,1.1200000000000045,0.014285714285714285,50394.0,4.06766675855108,54705.21138794731,2640.625,0.8272488054589464,0.23475674527299767,0.5103038028468239,0.16224734020753756,0.39584187144473043,0.4098791762863625,4707.0,3436.676056338028,28.5,542.6830985915493,0.1579092965689087,32.0,-0.8840579710144928,31.115942028985508,0.6720519714010159,-1.3437535526353594,10113022.274399824,7751879.0,5277875.0,3784921.0,4266720.833829288,1721059.1974752108,2181614.1669383203,0.11130145407452338,0.09251487680529827,0.042253405681874065,0.1292027999540991,0.09303126178259373,0.048159046573007,0.13064130096227933,0.07498647563154703,0.0329338863297323,0.12188734610908018,0.08726086457599055,0.035827281519975086,4.6074519873202915,0.21488888107934684,0.576571116145839,0.1,0.4837295324860501,0.15866756139684496,0.0026802007120270304,21867.89882453272,1198.2772706036665,0.06466323014923234,Catherine,REC_20260811_193525.csv
right,149,grass,153.776,0.8959999999999866,1.0,10059.0,0.3684565133763818,30037.7058045384,335.9375,0.1052417119370849,0.23210831721470018,0.5228884590586719,0.1504908813539502,0.4139881252956717,0.36351497098222074,4653.0,3300.5438596491226,-10.699999999999989,478.1140350877193,0.1448591672823724,0.7321428571428571,0.0,0.7321428571428571,1.1109567079670393,-0.49023481746001973,10952708.952846186,7671245.0,3506366.0,6987076.0,4619501.561104913,1547216.816758905,2228573.615973822,0.10865301306004858,0.09612450898575992,0.04358664972811498,0.1251893627312883,0.0940142772855085,0.05847521142182841,0.12444520041885708,0.07016919061717633,0.0401847648712865,0.11333060473818775,0.08032169073677385,0.045505525405169805,4.921908835298462,0.3745212728675972,0.6036088994675232,0.07142857142857142,0.48349609559838796,0.11569586036864697,0.00313924362989616,22563.446242392423,1258.3959568095352,0.11351358215356971,Catherine,REC_20260811_193525.csv
right,150,grass,154.688,1.0720000000000027,0.0,17927.0,1.0900478412314587,34413.3787646607,418.75,0.13118501767041282,0.24174863387978143,0.5195628415300546,0.1711046664909043,0.40034943942230783,0.4273883004249321,4575.0,3290.985294117647,-1.0999999999999943,546.9191176470588,0.16618704393016573,0.0,-0.16417910447761194,-0.16417910447761194,0.6649468938965408,-1.3186192248351913,11667808.001667194,8626638.0,2882062.0,7308391.0,4432515.232051834,1572186.1394335013,2085096.3965324974,0.11166868495489014,0.0926506007945055,0.02764682488258925,0.1354010733420619,0.09723084897692896,0.044783655887071186,0.13117830794460805,0.08050065464034999,0.030283260421740316,0.11991313168325238,0.09060401185055433,0.038138944621448075,4.875044886989646,0.3222216413060271,0.6636268865676003,0.1044776119402985,0.5412693059523775,0.19226490910609134,0.004157345695283404,21381.158909968675,1307.361904653637,0.11793783673332152,Catherine,REC_20260811_193525.csv
right,151,grass,155.776,0.9759999999999991,0.03278688524590164,12998.0,0.6379985714046064,31567.876045119032,298.61111111111114,0.09354818838851993,0.22737626837854627,0.500931869952371,0.14923167567875775,0.42358570356080544,0.3523057422008386,4829.0,3394.483870967742,-5.0,489.23387096774195,0.14412614393370649,6.5,-0.576271186440678,5.923728813559322,1.146345158774474,-0.3649635508204274,11526051.481715888,8443379.0,2590068.0,7406130.0,4483604.498161347,1509779.636455697,2212756.3762592683,0.11336228606182706,0.10298016706421234,0.03506162749812314,0.13285786237634112,0.10175902080225034,0.051487707761168504,0.12528390462705147,0.06931549287743873,0.03450094555683319,0.11171825257295993,0.07991618280131903,0.04175655000047516,5.03364940283674,0.32194697260605276,0.6319397798942032,0.08196721311475409,0.5512735613694745,0.1737007825657973,0.0034549207847109353,3975.7218631755495,61.487833603100405,0.08812112875658523,Catherine,REC_20260811_193525.csv
right,152,grass,156.768,1.0080000000000098,0.0,15994.0,0.9127682229366108,33315.17175402222,406.25,0.12726904699368408,0.2136279926335175,0.4649068958461224,0.15532217381334557,0.4062875487273561,0.38229617003956984,4887.0,3407.03125,-12.800000000000011,512.921875,0.1505480394404953,0.0,-0.09523809523809523,-0.09523809523809523,0.8158355165085512,-1.1233061796675907,10602446.7471138,8131838.0,2481334.0,6334672.0,4439539.864773888,1329483.0872816453,1988018.0095741786,0.11053428112818162,0.09723457922494841,0.04149048383398303,0.12695711992662234,0.09732630130703968,0.0510708553084155,0.1287686310479248,0.07307039669800504,0.0336986929603302,0.11704654895666132,0.08225177711534051,0.04055033249254758,4.726118552159745,0.30153404946529955,0.6292683829217015,0.09523809523809523,0.5099029922230074,0.2215143629696728,0.004198909623460735,2483.5306185614445,66.0501489081278,0.04888080741286258,Catherine,REC_20260811_193525.csv
right,153,grass,157.792,1.024000000000001,1.0,14970.0,0.8188549642020405,35954.4411999408,581.25,0.18209263646788643,0.24614707177454867,0.5138705416116248,0.1724289784216628,0.3855116878915062,0.4472730239765351,4542.0,3423.6615384615384,-13.400000000000006,573.9230769230769,0.16763429167153474,1.59375,0.0,1.59375,0.4670850984006698,-1.5567223815103728,10379963.133616902,8679173.0,1533271.0,5483126.0,4382901.462761594,1584238.5638603957,1907169.2989933721,0.10361376484016213,0.09246061346826161,0.044769881997681296,0.11914369680683748,0.08989475954668416,0.04932640717540375,0.1340085738166066,0.07951900349603214,0.034686210894319176,0.12392939632781817,0.09290997492563069,0.035737716704562814,5.587104632481186,0.3531210384828199,0.6824263098195301,0.078125,0.5678512516376265,0.1872195171924185,0.003701292185270842,1522.7921722936426,142.6510146672661,0.02444040370643214,Catherine,REC_20260811_193525.csv
right,154,grass,158.832,1.0400000000000205,0.0,14855.0,0.808308065027748,33574.842054729015,2689.5833333333335,0.8425863572761341,0.22091426329213262,0.4461447910535609,0.17243060210130484,0.38835403591542556,0.4440036311061504,5097.0,3481.242424242424,-17.19999999999999,584.280303030303,0.1678367179951428,0.0,-2.169230769230769,-2.169230769230769,0.5036903365861557,-1.6061278918991804,10485032.817775823,9120218.0,1176526.0,5037194.0,4304662.165155163,1312625.1664018603,1737541.8413462497,0.0938492875236114,0.08715975661771748,0.05556184225415866,0.12122979430889355,0.08611084513540097,0.05551831895613723,0.13433030701334425,0.08255063935724793,0.038335320897276315,0.11734751612538193,0.0898799627440569,0.03812640906677344,4.152202489105496,0.2590105122019442,0.5857198488283893,0.07692307692307693,0.4760244538033811,0.20513412060812,0.0020064584490543614,627.0462502868761,1270.7809643126,0.01600000000000384,Catherine,REC_20260811_193525.csv
right,155,grass,159.888,1.0079999999999814,1.0,13074.0,0.6449686960763128,32332.90291637916,248.26388888888889,0.07777552871836249,0.22233481961897042,0.4797324685853263,0.1550910347179225,0.4070674168394038,0.38099594392002045,4934.0,3482.53125,-14.400000000000006,523.9375,0.1504473219012751,1.9682539682539681,0.0,1.9682539682539681,0.6999401131156925,-1.246901868172614,10788013.047594817,8240572.0,2770884.0,6387206.0,4148469.980691842,1777630.6691931188,2327545.1230703765,0.10597984583770785,0.09833454473667681,0.048115146131136655,0.12158900225231288,0.09495607541210146,0.053001139616478676,0.12893369585700057,0.07264382049694457,0.03918665482183398,0.11755547778645202,0.08244721422097792,0.03725738283037661,4.212811869256103,0.24672728069942806,0.5820434062612418,0.09523809523809523,0.5046757542375349,0.21363703794834646,0.0030963016206559868,1063.014738059685,1323.8825366109015,0.016000000000018024,Catherine,REC_20260811_193525.csv
right,156,grass,160.912,1.0079999999999814,0.031746031746031744,13017.0,0.639741102572533,34722.65869716776,375.0,0.11747912030186222,0.21776226488268374,0.439014931161528,0.1480797938472525,0.4239252481189422,0.3493063800852198,5157.0,3632.015625,17.599999999999994,520.921875,0.14342500935689118,13.5,-0.9016393442622951,12.598360655737705,0.9623400432343934,-0.803884298588827,10987667.986617088,8830667.0,1651779.0,6326120.0,4487197.910862485,1312708.0940063426,1958522.1770236234,0.10223317803044969,0.09251921926960323,0.04471088281730616,0.12511131474000747,0.08977453118748628,0.06622527952368046,0.12090394021914484,0.07049718432860541,0.05029490339816476,0.10918093861449178,0.0775826095186471,0.05096601835241279,4.701316241723472,0.27816169115232126,0.6126817774526638,0.09523809523809523,0.532926527268429,0.18863729691270914,0.006300430616677264,1045.1039820668839,1374.3725040072263,0.018475208614089276,Catherine,REC_20260811_193525.csv
right,157,grass,161.936,1.0879999999999939,1.0,16578.0,0.9663281283086703,34870.87885327813,1243.75,0.38963908233450967,0.23303121852970796,0.4529707955689829,0.161403755829654,0.3937159850562049,0.40994971491059895,4965.0,3499.1014492753625,0.5999999999999943,548.6304347826087,0.1567918057637986,1.2794117647058822,0.0,1.2794117647058822,0.8204919630129521,-1.0214560930757484,10791365.708257366,9042027.0,1519832.0,5690820.0,4053216.13918677,1857701.5358945967,3573734.1754699433,0.10458171456025978,0.09265732817534936,0.04804131909641398,0.1197036092081611,0.08926101110844191,0.05426651976905044,0.12846362213073337,0.07539409703526372,0.03782751679520208,0.11497775826506183,0.08600965879439028,0.04881584506167215,5.836719336922687,0.3462760399155241,0.6850608934542496,0.10294117647058823,0.4809123272583544,0.22812508229907336,0.004785486933706406,2039.6889468737045,541.8765544806173,0.04618802153517675,Catherine,REC_20260811_193525.csv
right,158,grass,163.04,0.9920000000000186,0.0,14792.0,0.8025301985235703,35434.769549130695,295.3125,0.0925148072377165,0.23737053477066158,0.5064468399915452,0.14666635220867433,0.41082049951652083,0.3570083585925589,4731.0,3365.15873015873,-17.80000000000001,476.2063492063492,0.1415108134242117,0.0,-0.967741935483871,-0.967741935483871,1.1523398652922792,-0.32157113593421904,11671644.297868274,8646186.0,2386039.0,7468438.0,4340288.256722839,1401882.0278509527,2288113.9755662824,0.12121412230843613,0.1024268295559067,0.04092356312351124,0.13098747671045494,0.09947878587769156,0.047796042546166366,0.1259168415839249,0.06902195702931535,0.030131364826301264,0.11336525081955615,0.07764439517935898,0.04109337043937643,4.0919000480423335,0.19925325256439927,0.5557166154674218,0.0967741935483871,0.5014942022185289,0.19450907523225322,0.0033666233604335584,1780.5028315990212,526.0878176949993,0.051432804058622196,Catherine,REC_20260811_193525.csv
right,159,grass,164.048,1.0720000000000027,1.0,11217.0,0.4746592024531712,31318.390220443962,319.44444444444446,0.10007480618306781,0.23078538429231416,0.48173036539269215,0.16237914478818097,0.4016735663805379,0.4042564868065649,4762.0,3335.6029411764707,-15.800000000000011,525.7132352941177,0.15760665899541929,0.4925373134328358,0.0,0.4925373134328358,0.8036167239956239,-1.135987905778459,11692276.505091641,8129394.0,1886351.0,8189259.0,4140358.728047762,1430628.6304351285,2452887.0497592045,0.11015734874636827,0.10006569056657011,0.04159667755631092,0.12958676665740826,0.09660922048663924,0.0455777904162313,0.1325185939573496,0.07539866238134917,0.02983409825368903,0.11863980848334149,0.08698048240683182,0.03303486008791073,4.805224971808735,0.30490563776952406,0.6356439343710673,0.08955223880597014,0.5315316244205965,0.19155409723127864,0.002882179498034338,2729.7967567810047,540.7489870817767,0.05143280405861631,Catherine,REC_20260811_193525.csv
right,160,grass,165.136,1.024000000000001,0.0625,14036.0,0.7331958004734384,33833.32797701107,1515.625,0.4748114445533598,0.24394539850286218,0.5,0.16308668946868898,0.4054805436670666,0.40220595541688864,4542.0,3436.492307692308,1.5999999999999943,543.7846153846153,0.1582382751642999,0.75,-0.7833333333333333,-0.033333333333333326,0.7871853815921912,-1.1194448228874274,11767921.117127104,8295549.0,2393370.0,7996225.0,4267899.975211315,1336619.1729800967,2432569.607218337,0.11050624071056354,0.10429686800494242,0.044593771824579624,0.1263631968196551,0.10020503912755403,0.045936822878427014,0.1299849578281969,0.07644646598499363,0.028678616836488008,0.11650520208441524,0.08664022348369535,0.029842594416489083,4.7940597523967305,0.31435014939253075,0.6327044489863898,0.078125,0.5450151470277604,0.20224598742249597,0.004166793063179398,1884.096688955223,697.6858020016529,0.04026578365476945,Catherine,REC_20260811_193525.csv
right,161,grass,166.176,1.024000000000001,1.0,16152.0,0.9272587452804214,36628.98068469828,333.3333333333333,0.10442588471276641,0.25191183085919927,0.5355375618533513,0.16251736581165474,0.39935374768640786,0.40695089692548453,4446.0,3466.1384615384613,-19.099999999999994,546.7923076923076,0.1577525865627455,1.453125,0.0,1.453125,0.5684538206046107,-1.5004666007248244,11247686.266381145,9169087.0,1750739.0,6274807.0,4439766.517240691,1576051.5294855288,1918747.5668834287,0.10143853279419794,0.09047976244901221,0.0500002219273055,0.12342265167621695,0.09010248602967613,0.055357547081877866,0.13424382709199775,0.07688449571458374,0.03999130044962472,0.11574840545231005,0.08563287009707102,0.036697899236126215,4.432574440416641,0.2549631476870865,0.611005080037325,0.078125,0.5365506231043435,0.18703540670664173,0.004954196574191088,2475.8312408829615,686.6409066114579,0.027712812921102205,Catherine,REC_20260811_193525.csv
right,162,grass,167.216,1.024000000000001,1.0,12337.0,0.5773768291941075,33578.5252207419,398.4375,0.1248215653207286,0.23106443142799435,0.4605130276711775,0.15411516614784124,0.42458839606536763,0.36297545476021764,4951.0,3523.7384615384617,-28.900000000000006,525.7,0.14918814371100625,0.484375,0.0,0.484375,0.914929238419816,-0.9088507507972317,10502993.779949458,8433605.0,1993864.0,5933944.0,4127337.3593038945,1628517.9698095482,1943377.655793672,0.10278419336107193,0.09720882105106901,0.04009290831852534,0.12694122937614336,0.09649279829551656,0.05930764092332007,0.12468837729160027,0.0723706902197404,0.04463790641931865,0.11120619272363705,0.08174447592810083,0.04252476609195653,4.418097671092881,0.267653777499704,0.6152316386260533,0.078125,0.559144461900519,0.25072733105739714,0.0032396860333577544,1911.294587445577,664.6001363906815,0.0,Catherine,REC_20260811_193525.csv
