foot,step_id,surface,contact_time_sec,stance_duration,time_to_peak_frac,impact_mag,impact_mag_norm,accel_mag_strike,loading_rate,loading_rate_norm,heel_pmax_ratio,fore_pmax_ratio,heel_mean_ratio,fore_mean_ratio,heel_fore_ratio,total_pmax,total_p_mean,midstance_diff,heel_impulse,heel_impulse_norm,rise_slope,fall_slope,slope_asym,heel_skew,heel_kurt,gyro_mag_strike,gyro_x_strike,gyro_y_strike,gyro_z_strike,gyro_x_std,gyro_y_std,gyro_z_std,pressure_01_mean_ratio,pressure_02_mean_ratio,pressure_03_mean_ratio,pressure_04_mean_ratio,pressure_05_mean_ratio,pressure_06_mean_ratio,pressure_07_mean_ratio,pressure_08_mean_ratio,pressure_09_mean_ratio,pressure_10_mean_ratio,pressure_11_mean_ratio,pressure_12_mean_ratio,accel_spec_centroid,accel_hf_frac,accel_spec_entropy,accel_zcr,accel_jerk_ratio,gyro_hf_frac,heel_ripple_frac,impact_mag_roll3_std,loading_rate_roll3_std,stance_duration_roll3_std,source_user,source_recording
right,0,concrete,1.152,1.344,0.9880952380952381,10729.0,1.4929566422065843,25381.86712990201,500.0,0.12629698843620787,0.23424474824941646,0.4684894964988329,0.1532603339860554,0.4233723860268118,0.3619988904431547,5998.0,4608.15294117647,13.300000000000011,691.0823529411765,0.1499694914129178,2.602409638554217,-16.0,-13.397590361445783,0.4464047986294276,-1.5538262979226396,8480915.775752582,6967528.0,1595580.0,4564385.0,2940540.203497934,1284790.812151412,1543229.44184239,0.08629207057568045,0.09159469278235761,0.060756766140829685,0.09448981728037009,0.07652676968952725,0.0876962314874149,0.1020722862037361,0.07460689877021034,0.07306487478714198,0.0970632612786034,0.07865343521584506,0.07718289578828318,3.314938666490712,0.17675020624936516,0.5596508756724103,0.07142857142857142,0.47053699788678766,0.04612631548924741,0.000569483740558482,0.0,0.0,0.0,Catherine,REC_20260519_154132.csv
right,1,concrete,2.512,0.8319999999999999,0.038461538461538464,16621.0,2.5788662894661076,30509.38291739117,611.9791666666666,0.15458225147140026,0.23056782850597285,0.4580265095729013,0.15789684892965272,0.42626620235159823,0.37041841004163567,6111.0,4231.566037735849,-93.19999999999999,642.7830188679245,0.15190192310264722,18.5,-1.84,16.66,0.8514745147873383,-1.0894319824376841,9697317.84576488,8060977.0,2436130.0,4808731.0,4286451.135268756,1470685.122986999,1941418.577692513,0.0858863973817624,0.09374735255692838,0.060582415181497554,0.095294574023623,0.07833310295933973,0.085832891163894,0.10311539953538768,0.07856942208825851,0.07305828164781315,0.09424674392370014,0.0793274268413942,0.07200599269640126,5.362765697307021,0.3897006678635179,0.6258004530723439,0.07692307692307693,0.4840883770245505,0.1377184211266973,0.004709300141701772,4166.2731547511385,79.18122810161861,0.3620386719675126,Catherine,REC_20260519_154132.csv
right,2,concrete,3.36,1.0400000000000005,0.0,14362.0,2.1625272037296406,30269.65419359792,588.5416666666667,0.14866208013845303,0.22110888443553775,0.4831329325317301,0.1281679175573145,0.45340403881744734,0.2826792586398963,5988.0,4437.242424242424,46.19999999999999,549.189393939394,0.12376817433705074,0.0,-1.0923076923076922,-1.0923076923076922,1.219121096729132,-0.17968114272972224,10434737.964228282,8224689.0,1563815.0,6228381.0,4261135.391409949,1496882.3170979675,2116146.9302978795,0.08793681579468549,0.09407289539640372,0.0564027617480144,0.10227482261027529,0.0827192700899412,0.09477972259593387,0.09895239331006836,0.06435542139876664,0.0795573281248933,0.08649584440240664,0.06381249615854782,0.08864022837006331,4.716319439201024,0.278740473439079,0.6250483607961114,0.07692307692307693,0.4081850700386624,0.21756274003352175,0.0045138238746882196,2972.5812015822207,59.05968296240994,0.25749563103089745,Catherine,REC_20260519_154132.csv
right,3,concrete,4.416,1.1199999999999992,1.0,10236.0,1.4020955668333757,27689.128444210735,695.3125,0.17563174954410157,0.22528418877023768,0.49207716155701,0.15858651355254214,0.42019615397868054,0.37741067368385384,5806.0,4496.3239436619715,-93.39999999999998,695.2464788732394,0.15462553134172205,1.2428571428571429,0.0,1.2428571428571429,0.430060393909751,-1.6587591834326607,9441782.288075594,7371921.0,2671924.0,5259549.0,3745624.0503788516,1558336.0077931716,1789940.4906347622,0.08270919279912542,0.09154896488211028,0.06611347611037499,0.09411444090477669,0.07700813497097786,0.08596067523078321,0.10149762403716338,0.07645995633365599,0.07156393799003255,0.09706834064760259,0.08212655721888618,0.07382869887451095,5.309273110953775,0.30136046219593304,0.644141569963471,0.1,0.4546568924956067,0.31940135236393596,0.0019508235473002324,3237.673598949303,56.11561235727098,0.1486651718908412,Catherine,REC_20260519_154132.csv
right,4,concrete,5.552,1.088,0.014705882352941176,14261.0,2.1439126629331007,24970.863140868798,654.6875,0.16537011923365968,0.2257010149664545,0.498021675554791,0.14535241310720268,0.44010416666666663,0.3302682049298059,5813.0,4429.913043478261,-40.5,625.3623188405797,0.1411680799832496,2.0,-0.9552238805970149,1.044776119402985,0.6489607704490478,-1.3678449626929319,9990193.850212017,7411017.0,3086091.0,5946162.0,3975402.645657557,1202167.9605909316,1942876.300725249,0.0858164520519263,0.0910051559882747,0.056732228852596316,0.1007282506281407,0.08080441268844221,0.09029195456448912,0.10158540096314908,0.0704760783082077,0.07727439279731993,0.09182304752931324,0.07487633479899497,0.07858629082914573,4.318595193498466,0.15213029586719237,0.551774259577518,0.058823529411764705,0.47563206600690067,0.09571343253894116,0.0010987914659060486,2353.532876337188,53.891361000714056,0.0402657836547773,Catherine,REC_20260519_154132.csv
right,5,concrete,6.656,1.3120000000000003,1.0,9882.0,1.3368525228534247,24443.710724846995,708.3333333333333,0.17892073361796113,0.2219845318413691,0.5073226921178213,0.16383096737552513,0.418977555911179,0.39102564102543547,6077.0,4539.795180722892,-22.0,728.0542168674699,0.1603716000138003,1.1097560975609757,0.0,1.1097560975609757,0.30311735017124375,-1.743549891712133,10311776.692069607,7400021.0,1376890.0,7048163.0,3622956.925543271,1235167.1111582953,1782862.9602894466,0.08095211556171261,0.08438361690326243,0.0631019392096135,0.09414468568456195,0.07442085121402961,0.0896728529231455,0.1084333192676279,0.08135020156421259,0.07635554918617951,0.09538936791904523,0.08248076581131253,0.06931473475529654,2.8207995797732552,0.09295256650945145,0.49319842460409186,0.07317073170731707,0.4309227518751929,0.08397799891610815,0.0009173618953606819,2432.4741177108813,27.981565835749777,0.12115004471040636,Catherine,REC_20260519_154132.csv
right,6,concrete,7.984,0.8800000000000008,0.0,11232.0,1.5856607414210344,21982.53731942698,600.6944444444445,0.1517317986073886,0.21828812733474096,0.46808510638297873,0.14437803668398314,0.4424227904709067,0.32633498950231066,6157.0,4248.642857142857,-26.0,590.0267857142857,0.13887417830903986,0.0,-1.2545454545454546,-1.2545454545454546,1.1160109794981539,-0.3808146587333865,8167221.720698416,6516710.0,1865582.0,4555832.0,3981447.016367183,1184311.8362090415,2137301.165155286,0.08772549217397153,0.09540861787797784,0.06119601217195407,0.09703098468418488,0.08081572266774265,0.09088196230729141,0.09915771422807283,0.0734394176291589,0.07828550293370992,0.086363712782233,0.07093861905482424,0.0787562414888788,4.149314816791172,0.2552421290152222,0.5840457254125947,0.07272727272727272,0.4401720410638612,0.13363568147315463,0.0030267947668523574,2242.5053697445924,53.81953778367079,0.2160493770723102,Catherine,REC_20260519_154132.csv
right,7,concrete,8.88,1.4559999999999995,1.0,8360.0,1.0563442942164603,19135.251500829563,371.5277777777778,0.09384567890746003,0.2076749435665914,0.4567881328603676,0.15077939345931876,0.4292840707630795,0.3512345407814054,6202.0,4610.608695652174,-62.39999999999998,681.25,0.14775706310588058,0.13186813186813187,0.0,0.13186813186813187,0.26357433531960484,-1.6496745280873484,7276004.953368709,5347514.0,1317025.0,4754975.0,2421179.0751428124,1208265.2037116697,1575299.3882907166,0.0814921164799517,0.09174022104032288,0.06381784919467391,0.0970611255705179,0.07926898268643204,0.08815208781260608,0.10237260005280827,0.07239212025197088,0.07306165365320057,0.09635151446569348,0.0783872732073479,0.07590245558447437,5.459113120664571,0.3934967556210001,0.6753138274909772,0.07692307692307693,0.41446239500554594,0.2193441685763294,0.0006747926867562957,1436.8581465591265,172.01815493596027,0.29975990392312263,Catherine,REC_20260519_154132.csv
right,8,concrete,10.352,1.3599999999999994,1.0,10184.0,1.3925118428589196,22407.8917794602,333.33333333333337,0.08419799229080525,0.21250818598559268,0.4716764898493779,0.15684857887425344,0.4241778967541752,0.3697707496651379,6108.0,4586.930232558139,46.60000000000002,704.3953488372093,0.15356574290958133,0.07058823529411765,0.0,0.07058823529411765,0.2919640866420377,-1.7265073915874676,8152828.5336127365,6068335.0,1461189.0,5244888.0,2773333.8540380173,1064481.7364282936,1530608.367408803,0.08157403745728511,0.08855798578367252,0.05850292539977083,0.09659903264076902,0.0765268355996309,0.08785325342986645,0.1064754256279216,0.07766251939281478,0.07464078930023627,0.09710856934262162,0.07918605948143867,0.07531256654397227,3.1973497276787017,0.14877501366515072,0.5034960954798123,0.07058823529411765,0.48479856544657546,0.03144220549876261,0.0005433510944084845,1453.3675836942723,144.6018328791738,0.3085968243517739,Catherine,REC_20260519_154132.csv
right,9,concrete,11.728,0.9760000000000009,0.0,10442.0,1.4400618579629516,25247.904170445516,687.5,0.17365835909978583,0.212298682284041,0.46770782495526275,0.14665721072124097,0.43731871414151646,0.33535544210373,6147.0,4298.370967741936,-49.60000000000002,609.8870967741935,0.1418879620561428,0.0,-1.1147540983606556,-1.1147540983606556,0.8269123970362192,-1.0948554763130005,8596338.542779071,6805038.0,1330464.0,5081177.0,3841733.3302693935,1368772.319777569,2109203.6519304025,0.08593278023557312,0.092818359543563,0.05720471746610681,0.09866078296729068,0.07905470564617503,0.08948626448879732,0.10388406710719365,0.07210908858945062,0.07729860149569041,0.09193655510902479,0.07454812213179036,0.07706595521934416,4.824753565126591,0.32402111191485505,0.5853460558327122,0.09836065573770492,0.5108471887343207,0.1923998926192022,0.0015525715277457798,1134.920261516198,194.39276760391027,0.2539921258622,Catherine,REC_20260519_154132.csv
right,10,concrete,12.72,1.1999999999999993,0.9866666666666667,10921.0,1.5283426999584222,26971.58981224503,204.86111111111111,0.05174668276205739,0.20789429670513465,0.4811841445057702,0.1420374029208847,0.4365701282942883,0.32534842334669883,5979.0,4521.881578947368,44.39999999999998,625.9736842105264,0.13843212682191566,0.0945945945945946,-1.0,-0.9054054054054054,0.5847951572035139,-1.4396587646886887,8896621.125418684,6974859.0,1594358.0,5287649.0,3453688.8818581924,1096014.2461592513,1915595.824361183,0.08618326674678392,0.09171193873067511,0.058627201648126216,0.09882937645309504,0.07941209848019717,0.08995149317790975,0.10340362506292501,0.06965835716966913,0.07666522145241124,0.09280603381801357,0.07237904575121558,0.08037234150897828,4.279076562717668,0.18536610545023338,0.5443423381819126,0.08,0.504950248313284,0.10756690130927825,0.0010863586182177174,373.98172860893703,249.95980901216745,0.19288684074693405,Catherine,REC_20260519_154132.csv
right,11,concrete,13.936,1.0879999999999992,0.0,11112.0,1.5635444553261357,27520.987355107736,447.91666666666663,0.11314105214076954,0.20876547340247575,0.47340247574439615,0.13611150478061254,0.44522812140547696,0.3057118322869456,5978.0,4397.289855072464,11.600000000000023,580.8840579710145,0.13210047031603786,0.0,-0.9117647058823529,-0.9117647058823529,0.7919870267493798,-1.1457732405345886,8783318.616334602,7191105.0,1145983.0,4911356.0,3669533.6980632287,1017474.3492922403,1996878.5126017109,0.08523365841279049,0.09347325262925452,0.06012926275406788,0.09988365692966351,0.08116989054523042,0.09213184669081416,0.10142610896698559,0.06560035331379999,0.07856947461051438,0.09093875344827018,0.07051115146681255,0.08093259023179626,4.405058959183976,0.2044866806913665,0.5354372954624582,0.08823529411764706,0.508272169193127,0.12366298920818135,0.0013826622259172949,345.16228067388164,241.32152610346515,0.11199999999999947,Catherine,REC_20260519_154132.csv
right,12,concrete,15.04,0.9759999999999991,0.03278688524590164,11514.0,1.6376340137440462,29560.269230844297,548.4375,0.1385320091909655,0.20146208772526353,0.49200952057123426,0.12416058180112022,0.4562879387701241,0.27211015512643205,5882.0,4400.129032258064,-38.39999999999998,527.4193548387096,0.11986452010204979,4.0,-0.3050847457627119,3.694915254237288,1.0251670596530158,-0.6056232182627506,9849010.0425227,7558846.0,1418429.0,6152634.0,4019341.8364531877,1236817.2180122477,2370768.452012552,0.08695126242632181,0.09592094073487581,0.058359725521245714,0.10156593648280109,0.08412509897070468,0.09393419547813847,0.10053957361954195,0.06079733732148617,0.08074176710360399,0.08770637224714818,0.06336324447963403,0.08599454561449811,4.487659727113354,0.31739569549579094,0.6170806763237149,0.06557377049180328,0.4832901098427736,0.08618053720985516,0.0026809996974843813,302.6918124649701,176.64709452388252,0.11200000000000034,Catherine,REC_20260519_154132.csv
right,13,concrete,16.032,1.056000000000001,1.0,13912.0,2.0795911308737707,29310.030859758575,378.90625,0.09570943654931378,0.21420078138270765,0.48700526583998643,0.12481612458700668,0.4533479437498963,0.2753208133128849,5887.0,4494.850746268657,-20.5,542.8059701492538,0.12076173399080209,1.2121212121212122,0.0,1.2121212121212122,0.988756193022617,-0.692356604485155,9660271.316868486,7732332.0,1990198.0,5437922.0,4011185.0587436114,1586365.2281924095,1927951.352143796,0.0886619846922681,0.09590078198934104,0.058508077235974836,0.10233932692467335,0.08289751124836048,0.0924706546462785,0.09987879995351231,0.06032109710946191,0.07973966894124287,0.08940578771728844,0.06449502747754479,0.0853812820640534,5.330963649594909,0.3684017376654156,0.6644317518968113,0.09090909090909091,0.5120726852755717,0.2399679799783848,0.004092179088422893,1513.9357097754607,85.25229250983777,0.05768882040742457,Catherine,REC_20260519_154132.csv
right,14,concrete,17.104,1.088000000000001,0.08823529411764706,14381.0,2.1660289490279996,31576.6887751075,312.5,0.07893561777262992,0.21491376394994927,0.5050727088265133,0.1408467164658791,0.44215142986069855,0.3185485943360672,5914.0,4464.304347826087,9.600000000000023,610.8550724637681,0.13683096511133402,0.8333333333333334,-1.0161290322580645,-0.18279569892473113,0.8011894311075253,-1.0555727019767065,10066309.879365427,8062199.0,3138625.0,5145928.0,3943609.45791458,1505640.8353501924,1988312.956078266,0.08318805857737868,0.08894061427685634,0.05824949600210364,0.0980109532296445,0.08150968877115411,0.0924823965952142,0.10505556150722153,0.06945269561773423,0.08120777698782938,0.08949249603132092,0.07139402084814486,0.08101624155539756,4.586553184134116,0.26502124132492993,0.6292243731254826,0.07352941176470588,0.5295640229774824,0.1428936798376759,0.002853053206190006,1537.8585760725834,121.66698995747603,0.05768882040742535,Catherine,REC_20260519_154132.csv
right,15,concrete,18.208,1.1040000000000028,0.08695652173913043,14898.0,2.261313281620188,29552.73828260251,635.4166666666666,0.16050242280434748,0.20557954168050482,0.48306210561275326,0.15483942026731973,0.419071961230215,0.36948169906832706,6022.0,4409.914285714286,49.69999999999999,665.3,0.15086461026129433,3.6666666666666665,0.0,3.6666666666666665,0.3635293887078651,-1.7241208621401423,9735108.707263315,7679797.0,1662775.0,5747020.0,3628763.972420931,1479991.8882131213,2010202.2235339675,0.0804000077746895,0.08767258190959332,0.0666582440863768,0.09367852954705953,0.07410250928103558,0.08917244909198105,0.10902382294440448,0.07579350424692413,0.07444589140054553,0.0967009400895385,0.0790459160203956,0.07330560360745592,4.697433774115466,0.3523880371784232,0.6479535918460326,0.08695652173913043,0.49533992053314074,0.1902182103859661,0.0022453946288956863,493.1946877248314,170.5298397684312,0.02444040370643316,Catherine,REC_20260519_154132.csv
right,16,concrete,19.328,1.248000000000001,0.01282051282051282,10725.0,1.4922194326700877,25899.176106586867,302.0833333333333,0.07630443051354226,0.21163575042158517,0.4833052276559865,0.12222859795675328,0.4583291282320408,0.2666830241145206,5930.0,4389.886075949367,-0.6000000000000227,521.0569620253165,0.11869487112205558,1.0,-0.7532467532467533,0.24675324675324672,1.2407428149252053,-0.07062725649244905,8524625.05320498,6719517.0,1789835.0,4930904.0,3114264.198656752,1493463.5189157918,1856517.1092588806,0.08754876716041765,0.096871116288592,0.059616321752244086,0.10368193863339493,0.0852160172548522,0.09280538406751998,0.10193742232577184,0.059760496653700534,0.0797546719876817,0.087444961231369,0.062468101303052755,0.08289480134140328,5.4701761996580975,0.2895366398098197,0.6109046866655312,0.07692307692307693,0.4184004301394418,0.14204290762391086,0.0018316720612846218,2274.7730289708743,189.5146395693778,0.08812112875657761,Catherine,REC_20260519_154132.csv
right,17,concrete,20.592,1.4080000000000013,1.0,10117.0,1.3801635831226011,21192.608192480697,355.46875,0.08978926521636653,0.21324007807417047,0.45998698763825635,0.15871429399154066,0.4206959653900381,0.3772660235624353,6148.0,4654.112359550561,76.89999999999998,724.5505617977528,0.15567964540239876,1.2272727272727273,0.0,1.2272727272727273,0.084592426574737,-1.8032777178211732,7300677.272302413,5936388.0,1134987.0,4095240.0,2615156.1264682678,985948.2313641614,1255542.5880415526,0.07959132433319814,0.08895117523224598,0.059481043706665127,0.09638449504606293,0.07699123162794291,0.08637039612183016,0.10777468760260349,0.07670877030341658,0.07199866736195608,0.09944569982810901,0.08200552368812408,0.07429698514784558,3.9525432692208944,0.20313669252644434,0.5469930431326683,0.06818181818181818,0.5256987692775065,0.07798436246892763,0.000830835167352334,2602.6125976282615,179.04000943447997,0.15207015924675418,Catherine,REC_20260519_154132.csv
right,18,concrete,22.016,1.088000000000001,0.0,12098.0,1.745266606072553,23855.57754488455,333.33333333333337,0.08419799229080525,0.22293967714528462,0.4803738317757009,0.13207718578085834,0.4526202452852408,0.2918057403675252,5885.0,4307.31884057971,63.400000000000006,550.2898550724638,0.1277569354485961,0.0,-0.8235294117647058,-0.8235294117647058,1.1098785176839758,-0.42859043165890176,8958501.35999437,6181956.0,1208291.0,6370102.0,2835845.327199944,1534452.6167191628,1888502.206294593,0.08440638616443197,0.09385441025554751,0.05611951346713548,0.10298615433791491,0.08149593714775996,0.09286855873891758,0.10437240288689625,0.06582325331000488,0.08141518480510086,0.0882824986120691,0.06625393247085345,0.08212176780336805,4.616453949292166,0.22141885431188219,0.5350347258484828,0.08823529411764706,0.44586879096893123,0.19913434564138702,0.0010073514840964295,1014.8196884175999,26.82207388104354,0.1600000000000004,Catherine,REC_20260519_154132.csv
right,19,concrete,23.12,1.3119999999999976,1.0,3895.0,0.23343414910210675,19562.101165263408,542.96875,0.13715063587994447,0.2112535375395372,0.3625769935075745,0.17469409426964755,0.4050639700302218,0.4312753224052922,6007.0,4492.879518072289,-12.899999999999977,769.656626506024,0.17130586818768118,0.13414634146341464,0.0,0.13414634146341464,-0.029158128565116823,-1.8824382980338406,8670265.038521545,2808758.0,6146526.0,5431813.0,1456117.1862521223,1409769.275502558,1897662.3998326468,0.07522210512484279,0.08271723128162635,0.06210362313593933,0.09202513213679477,0.07294541027435648,0.08437983529493791,0.1163152404474014,0.08431547642990649,0.07299636104250634,0.10263630000884935,0.09037861783974108,0.06396466698309776,4.709376898814215,0.33377914199186565,0.6472210916431744,0.04878048780487805,0.5744647050467016,0.03980189784627615,0.000788092064465478,4280.32035405451,115.17612208556534,0.16421124606230023,Catherine,REC_20260519_154132.csv
right,20,concrete,24.448,1.184000000000001,0.0,7480.0,0.8941581961872036,17226.240042446872,401.0416666666667,0.10130070947487507,0.20756562856676994,0.5002445785097016,0.10682349886860142,0.4839878334085633,0.22071525665476063,6133.0,4519.48,18.100000000000023,466.8066666666667,0.1032876938644859,0.0,-2.0135135135135136,-2.0135135135135136,1.447698309965865,0.5760459196714054,7293748.423047439,4969999.0,2768441.0,4564385.0,3021457.4799554776,1222067.9604948708,1266565.7568507444,0.08755284531258758,0.09894943666085479,0.04973433521850597,0.10645472487985344,0.09003395670888392,0.09929165892241291,0.10111192733087289,0.054286481335610884,0.08925805623655819,0.08055794029401613,0.052537017532990525,0.09023161956685284,2.5173218663947283,0.09242072421809837,0.48202378644871696,0.05405405405405406,0.3810770836763287,0.0709124652128581,0.0020233914694930666,4112.326146274554,106.9849859460757,0.11238030669709445,Catherine,REC_20260519_154132.csv
right,21,concrete,25.648,1.8399999999999999,1.0,7724.0,0.9391279779134976,15219.130921310849,406.25,0.1026163031044189,0.22946413572988408,0.4898370569460776,0.11451566973493826,0.47050957423883266,0.2433864813912486,5953.0,4480.413793103448,-3.6000000000000227,502.60775862068965,0.11217887048610042,2.634782608695652,0.0,2.634782608695652,1.4327358538048411,0.578678383757687,5963032.14120065,3767816.0,1610240.0,4332256.0,2127456.8772368487,1075320.7888679632,1428404.6069968985,0.09322568728257857,0.10011775390204107,0.05126720130529815,0.10714643044053813,0.08715328017732352,0.09601368408090385,0.09335460086814641,0.056462226395345254,0.08007842563802604,0.08364182803312502,0.058053443339593024,0.09348543853708094,3.164820237380747,0.1341868077378804,0.5784326099970717,0.06086956521739131,0.4655657277507946,0.056970400976524574,0.0006033635094773234,2143.7118120991286,80.48026706506073,0.34773169733766485,Catherine,REC_20260519_154132.csv
right,22,concrete,27.504,1.5519999999999996,1.0,6044.0,0.6294999725849165,15910.227088259928,365.625,0.09235467279397701,0.2273476112026359,0.4499176276771005,0.1663112860987852,0.4106009492980287,0.40504359861569716,6070.0,4488.816326530612,-33.69999999999999,732.515306122449,0.16318674074343495,0.1134020618556701,0.0,0.1134020618556701,0.2911679704820008,-1.736084041831488,6403478.989329238,4305378.0,1494176.0,4498411.0,2204837.5483546616,768937.2669615453,1588177.4514439725,0.07962191750927476,0.08547546737469994,0.06328426202080453,0.0929475521932058,0.07189750491016222,0.08684622099367134,0.10795309885793264,0.08224067069178731,0.07343420382628939,0.09899432603477122,0.0840706154069979,0.073234160180403,3.312366916052491,0.19832992674125696,0.5436487836080203,0.041237113402061855,0.3643096596547485,0.015807951121457657,0.0006021613503197802,907.7473951123894,22.105269503330806,0.32881200302503094,Catherine,REC_20260519_154132.csv
right,23,concrete,29.072,1.5040000000000013,0.0,4685.0,0.37903303256018944,16930.347013572995,492.1875,0.12432359799189212,0.22612818835840418,0.45438194898626555,0.160595512411956,0.415357533904379,0.38664403388152224,6116.0,4508.8105263157895,-7.0,709.9842105263158,0.15746596721740125,0.0,-0.9042553191489362,-0.9042553191489362,0.42643941438558497,-1.549821568754038,5458969.35467905,4350582.0,643851.0,3233920.0,1755769.2005236514,568040.3239638362,1708516.1160374202,0.07751139873510811,0.08501717105923608,0.06460567263626536,0.09263267007052858,0.07057293672972449,0.08957899971284293,0.10972201794381527,0.07814407814407814,0.07755575633204696,0.09755169411001151,0.08245143426787786,0.07465617025846472,2.8399349931667155,0.1302895531593817,0.4225311162383934,0.06382978723404255,0.26377183808938287,0.016044175406503,0.0004951027567351291,1522.3228961031873,64.61902575544917,0.18172506706560845,Catherine,REC_20260519_154132.csv
right,24,concrete,30.592,1.631999999999998,0.0,4962.0,0.4300847929625805,13141.27695469508,1298.6111111111113,0.3280213449662622,0.22192288264017512,0.36150867149351745,0.20069902158552766,0.374017540263859,0.5366032337516065,5939.0,4500.0485436893205,-1.3000000000000114,890.7912621359224,0.19795147840907865,0.0,-0.8725490196078431,-0.8725490196078431,0.002414949917293522,-1.7624599438694615,1585662.0318926729,509461.0,1047023.0,1076344.0,258066.40230927704,425361.1298162267,942766.0884242962,0.07064864456694102,0.07586541677004563,0.07090322650241097,0.08375098434752591,0.062430825988932154,0.08170138401958986,0.11062016590975286,0.09375950636994207,0.0702689291377655,0.11139685656033915,0.10693951521558559,0.06171454461116924,3.6605104949096487,0.15799551515398635,0.5560359223681669,0.0392156862745098,0.6034885091647115,0.06663968259171729,0.00020414769028127643,718.138101853208,506.09620141003006,0.06466323014923694,Catherine,REC_20260519_154132.csv
right,25,concrete,32.24,1.9039999999999964,1.0,5541.0,0.5367958733704664,13907.166246219967,368.0555555555556,0.09296861648776414,0.22784605433376456,0.430627425614489,0.17600071470237375,0.41039506575086665,0.42885680016710076,6184.0,4757.225,-8.300000000000011,826.2666666666667,0.1736866905951824,1.4789915966386555,0.0,1.4789915966386555,0.029583850722018037,-1.6948505906771196,4083593.991648166,2547308.0,2295631.0,2217440.0,1424796.840434756,972748.556342789,749526.9637874854,0.07687780165958095,0.08939560352936847,0.06262404377902384,0.09116484224871992,0.0757794722763796,0.0842035009905985,0.10261234227937505,0.08435765248297764,0.06985164670580012,0.09998476002291251,0.0916430622193961,0.07150527180586722,1.9125653227153785,0.0438123171495719,0.49792514201643007,0.05042016806722689,0.47234505509393415,0.030641915092947763,0.00022464982173206976,436.78865980394716,505.2493480392219,0.2042743253568571,Catherine,REC_20260519_154132.csv
right,26,concrete,34.16,1.4720000000000013,0.010869565217391304,1349.0,-0.23579972087799272,11355.661011143296,255.20833333333331,0.06446408784764776,0.2434256055363322,0.3681660899653979,0.16978500960141432,0.41675980207878244,0.4073929605361092,5780.0,4233.247311827957,13.0,704.3172043010753,0.16637752354632557,9.0,-1.3406593406593406,7.65934065934066,0.5905187825634785,-1.4314439570185118,5001338.016492986,1567480.0,682947.0,4699997.0,693842.683810926,427878.18189293926,1559003.863322415,0.07391056968391535,0.087060443189092,0.06376812330451216,0.09261554717901305,0.07241447629111082,0.08859717748900156,0.11093951617000092,0.08106844944779168,0.07607215793056502,0.09764993954665069,0.08871656015362263,0.0671870396147242,5.879581129023091,0.38553601842007423,0.6993040839499307,0.09782608695652174,0.6289779068646346,0.015513444394791581,0.00026580934423379874,2271.63208582141,572.6193462520811,0.21840634911405926,Catherine,REC_20260519_154132.csv
right,27,concrete,35.648,2.2719999999999985,0.007042253521126761,5776.0,0.5801069336396429,14432.240920938093,500.0,0.12629698843620787,0.20801803252294315,0.45580421832233137,0.14190359475974668,0.4327950597203716,0.32787711313378776,6211.0,4970.132867132867,-1.1999999999999886,696.548951048951,0.1401469477114343,2.0,-0.6028368794326241,1.397163120567376,0.19484585123742273,-1.5171147667532976,5926794.367322102,3235142.0,1907121.0,4585154.0,1495578.9961503583,690813.5601019792,1082255.6872186163,0.08588927706622355,0.09266823219539373,0.06172535523385144,0.09643197336818955,0.08118706286080911,0.08827415231403249,0.102659382127365,0.06749970804624547,0.07423363898194671,0.09422438088216464,0.0744038867135012,0.08080295021027706,5.2262129644273365,0.35525653211422126,0.7562811880851282,0.04225352112676056,0.51825466315917,0.029210202115980913,0.0005846208305668818,2490.863906358594,122.51992494588373,0.4004264393535124,Catherine,REC_20260519_154132.csv
right,28,concrete,37.936,1.8560000000000016,0.9913793103448276,2689.0,0.011165473848375422,11017.937420406779,312.5,0.07893561777262992,0.23353995644161502,0.42770983414307256,0.16088100419931697,0.4174314272563516,0.3854070242306693,5969.0,4512.333333333333,-10.300000000000011,714.8333333333334,0.15841767008938468,1.565217391304348,-7.0,-5.434782608695652,0.5988318501192181,-1.4666042669372228,1435958.7824840238,1211956.0,652404.0,409279.0,774118.5181520649,507566.7714886302,1956129.5928318768,0.08136295016696879,0.09177505904993533,0.06330986489071737,0.09448936722335556,0.07628096214932295,0.08485006904154425,0.10510036121323704,0.07599305228026511,0.07003596979219348,0.10133101490122987,0.08488795191905188,0.07058337737217844,5.039497542148917,0.28197743334539505,0.7120335933167229,0.05172413793103448,0.37570162392041406,0.012726429162735843,0.00019911195134435282,2270.223850930416,128.0374588020303,0.4001066524482344,Catherine,REC_20260519_154132.csv
right,29,concrete,39.808,1.6799999999999997,0.0,1761.0,-0.15986713861884072,12491.962656044085,534.7222222222223,0.13506761263316677,0.24083044982698962,0.38114186851211074,0.18462662685363673,0.39796231201152393,0.4639299282395042,5780.0,4492.698113207547,-42.60000000000002,816.5094339622641,0.1817414420884202,0.0,-0.34285714285714286,-0.34285714285714286,0.11201299972989409,-1.7710568707319796,5804288.954126422,1709200.0,1153313.0,5425705.0,842390.4783335194,421065.2366700231,1432479.5490019596,0.07176004670051615,0.08375645176869806,0.06294700415349015,0.08919084636286134,0.0680412241246803,0.08471188049371517,0.11185445565760795,0.08834880917883525,0.07226190926156909,0.10768416676115962,0.09627781767480147,0.06316538786206549,3.141583321843621,0.125454698244635,0.5022702052128198,0.0761904761904762,0.4564205351651904,0.01169123727200979,0.00021893032533165224,2102.0219630948977,119.54399383032784,0.30399999999999916,Catherine,REC_20260519_154132.csv
right,30,concrete,41.504,1.8079999999999998,0.0,4728.0,0.38695803507752813,10765.068787518267,614.5833333333334,0.1552400482861722,0.22393949358763565,0.432916803682999,0.16468281935057902,0.4190504981564871,0.3929903915518029,6082.0,4729.7192982456145,14.100000000000023,766.9649122807018,0.16215865338249366,0.0,-0.017699115044247787,-0.017699115044247787,0.29703062028672994,-1.7919616283903415,5497792.838827869,1814269.0,709825.0,5141041.0,834909.0334514985,739942.0983248,1537054.1934990997,0.082958077702026,0.09136516391314346,0.060524344013590796,0.09351654710416403,0.07397234359815129,0.0875130752168075,0.10321260858921193,0.07948248106411863,0.07268336832422086,0.09713866035594262,0.08520033828646037,0.07243299183216242,3.6120250111209695,0.1504506490453986,0.600868438814612,0.05309734513274336,0.37011318377563884,0.02308445986101322,0.0002902619836247392,1517.7721612064595,156.5326661302481,0.09097985124923842,Catherine,REC_20260519_154132.csv
right,31,concrete,43.328,1.2959999999999994,0.0,4240.0,0.29701847162494033,15860.293471433622,1018.2291666666666,0.25719855457581914,0.21421860319448793,0.41465706232383337,0.1619926279323737,0.4123994416707448,0.39280515821267575,6386.0,5058.6463414634145,0.39999999999997726,804.9817073170732,0.1591298645882804,0.0,-4.45679012345679,-4.45679012345679,-0.12023077792160997,-1.6470073632935245,4957083.057470391,3942524.0,2719572.0,1277930.0,1533621.2387887833,818625.410964252,580495.2214193608,0.07655812675231251,0.08021523158851424,0.06415482788464089,0.09498347432191684,0.06723817467798432,0.09269326364664218,0.1087440243581986,0.07903155428160913,0.07726929743568726,0.09762083272060153,0.08296107365076458,0.07853011868112794,3.1074703479383627,0.09623559954297334,0.4229555147716775,0.04938271604938271,0.46413292643282406,0.08026209883248993,0.0003177133614795764,1590.946992622107,259.1932101609613,0.2664532479316653,Catherine,REC_20260519_154132.csv
right,32,concrete,44.64,1.5039999999999978,1.0,4182.0,0.28632893334573933,12917.427994767379,458.3333333333333,0.11577223939985722,0.18919327985469955,0.4808536400787044,0.12405041158417346,0.4571184046454487,0.2713747911338867,6607.0,4575.38947368421,11.5,555.6578947368421,0.12144493882603034,2.5,0.0,2.5,1.2992573982498474,0.21420913641017592,3253518.0170352524,2674368.0,1562593.0,995710.0,1007754.5628678784,540919.9021349926,621343.1646598225,0.09125021280903323,0.0927502289135006,0.04979961441303818,0.1094505615857839,0.08457146012303814,0.09494963902986689,0.09245804786247705,0.05565933990088851,0.07539651499325914,0.09332078718636551,0.06839107168328494,0.09200252149946396,3.1068438650989965,0.056655403876462215,0.495566448232601,0.0851063829787234,0.3468705045052246,0.07125211048617897,0.0001610013352008874,299.8955373681414,288.9138757056011,0.25749563103089773,Catherine,REC_20260519_154132.csv
right,33,concrete,46.16,2.176000000000002,1.0,3268.0,0.11787655425626135,14057.035178159013,2713.789682539683,0.6854869283080292,0.2154134750664374,0.42269813975300924,0.1869768305679083,0.3931300916665807,0.4756105791219615,6397.0,4952.094890510949,-2.3000000000000114,916.3540145985402,0.1850437107645957,0.9779411764705882,0.0,0.9779411764705882,0.026615550288232814,-1.3496207589960645,3331004.061585335,1864360.0,2324953.0,1488067.0,375230.3936251637,433209.9150125879,1405318.86820885,0.07118862915790264,0.07393022491403034,0.06259387386006365,0.09169016430412846,0.0653059900919319,0.08626003593554007,0.11248649469294865,0.09091927474474416,0.07594367642094992,0.1006283560595899,0.09605755582316412,0.07299572399500617,4.508472378057512,0.33648715098793985,0.7002930159476248,0.051470588235294115,0.3754156878612754,0.029122775034738677,0.00027896886653186795,545.2131081818615,1174.4141908732506,0.4599362274634767,Catherine,REC_20260519_154132.csv
right,34,concrete,48.352,1.7439999999999998,0.06422018348623854,4551.0,0.35433651308755265,14158.465453572291,327.25694444444446,0.08266313305633745,0.21847414880201765,0.4531841109709962,0.165610025226827,0.4192507593391897,0.3950142523003936,6344.0,4663.145454545454,3.6000000000000227,759.8090909090909,0.1629391787829518,0.42857142857142855,-0.28431372549019607,0.14425770308123248,0.3930462592379742,-1.6091756343429435,3611629.9164352375,2786767.0,2090380.0,952949.0,1125436.247031024,659296.786024635,1401419.9409347323,0.08003571526047576,0.09160028541016013,0.06412175940547347,0.09389877297025419,0.07538025445173566,0.08657636476354236,0.1039505133093932,0.08079602921165191,0.07179508174349737,0.09697122114218651,0.08481399601517509,0.07006000631645436,2.5200656864358866,0.07026816939377192,0.4848099485904781,0.03669724770642202,0.3993821416841229,0.02370284510544366,0.0002380641371707033,660.5106610292721,1341.6285422885464,0.3405407464606864,Catherine,REC_20260519_154132.csv
right,35,concrete,50.112,1.6000000000000014,1.0,9408.0,1.249493192778575,17799.968258398665,496.52777777777777,0.12541992601651197,0.21475667189952904,0.48069073783359495,0.15905532279585136,0.43383949260866655,0.3666225078758512,6370.0,4875.257425742574,4.699999999999989,761.960396039604,0.15629131541162591,0.14,0.0,0.14,0.2520690270076249,-1.617449277263927,4743406.903164539,4019493.0,1865582.0,1692096.0,1687194.294680657,535906.5636419947,2118082.3693017913,0.0780887934833601,0.08964847756198709,0.05426065341053329,0.09821060477131444,0.07823501576966742,0.0907045274075398,0.10413057650167243,0.08041616487375128,0.0770408670981578,0.09296691111512771,0.07863915792210008,0.07765825008478862,2.817758688226515,0.09850204780771403,0.5486955761976278,0.04,0.3756063612811397,0.016675548113154706,0.0001617727141332343,3238.727579364051,1331.6932504225656,0.2997599039231238,Catherine,REC_20260519_154132.csv
right,36,concrete,51.728,1.391999999999996,0.011494252873563218,4091.0,0.2695574163904412,12892.059300204914,394.53125,0.09965621743794527,0.21666401147044767,0.4191492751314322,0.1588856233161891,0.42349497918197404,0.375177112189176,6277.0,4639.772727272727,-42.39999999999998,723.2215909090909,0.15587435709037473,1.0,-3.0232558139534884,-2.0232558139534884,0.5906735301481778,-1.4446671123961174,4578150.414471001,2287079.0,3948632.0,370184.0,1346487.7366626128,1140634.9837336906,1732436.5553624125,0.08456037227528777,0.09838599069311782,0.0631496448689689,0.093269654665687,0.08132500612294881,0.0817462650012246,0.10199363213323538,0.07643889297085478,0.06876806269899584,0.09652461425422484,0.08244673034533433,0.07139113397012002,4.92504734270814,0.28718782157235395,0.6088985585692297,0.04597701149425287,0.3124165247762472,0.08889093802325199,0.0010761923222759521,2945.9729009842113,85.22689216053892,0.17696704024573093,Catherine,REC_20260519_154132.csv
right,37,concrete,53.136,1.9679999999999964,1.0,6489.0,0.7115145335201657,14710.781182520526,206.25,0.052097507729935745,0.2170307765906554,0.47073831924732895,0.1335799382110125,0.45217553032103414,0.2954161144370434,6271.0,4682.951612903225,4.5,615.5887096774194,0.1314531433511399,2.048780487804878,0.0,2.048780487804878,0.8468762344749798,-0.9881130376982763,4249207.060429628,3285233.0,748920.0,2588846.0,1703632.2669492785,1016288.8444630853,1883992.0960182447,0.08955786776330066,0.09442969177834493,0.05461471432064834,0.10147136318078963,0.0824180365980926,0.09433325411668268,0.09759835780439,0.06870150132773996,0.07952318464712427,0.08372338923273508,0.06487843688327255,0.08875020234687939,2.6785811593854736,0.11043385084547983,0.5467624252719517,0.04878048780487805,0.3699177213036877,0.045069662821224495,0.0002774122906689154,2662.7508958468734,147.26071497624474,0.29168019016267327,Catherine,REC_20260519_154132.csv
right,38,concrete,55.12,1.568000000000005,0.0,3732.0,0.20339286048986943,12799.12301683205,432.29166666666663,0.10919427125213804,0.2143193593970796,0.41435076150102057,0.1764148801608666,0.4028584092801003,0.43790790038619926,6369.0,4671.666666666667,2.1000000000000227,810.540404040404,0.17350133514956917,0.0,-0.35714285714285715,-0.35714285714285715,0.2967767119792632,-1.5571043573038952,4995867.058412284,2280970.0,4372573.0,797790.0,1120620.3041337566,1236006.7898208892,1578604.3017787437,0.0796181580341409,0.0913155817900734,0.06770019135342002,0.08964421236986346,0.07404620590492869,0.08072519702915706,0.10359247126995967,0.08511227148401604,0.06712721218607769,0.09975675412707163,0.09130260867685056,0.0700591357744408,3.4881131994342636,0.13684244481989274,0.5983770640606587,0.04081632653061224,0.42382545804602545,0.044649112677099215,0.0002331565001031188,1498.907046261818,121.08572255351814,0.2951700075097957,Catherine,REC_20260519_154132.csv
right,39,concrete,56.704,1.7119999999999962,1.0,6278.0,0.6726267304699689,10145.80829702592,682.2916666666666,0.172342765470242,0.22372010913176055,0.45915583373455304,0.13066105636142178,0.4577361105984736,0.2854506195513478,6231.0,4515.5,-41.39999999999998,577.3657407407408,0.1278630806645423,0.5514018691588785,0.0,0.5514018691588785,1.1667944375299792,-0.3063605947814678,4087631.479369685,1848478.0,1260825.0,3420845.0,992143.9666558175,714187.8638073155,1246758.7176143387,0.08880727699241706,0.10268540049295226,0.060437915492726695,0.1030073368684818,0.087125825859078,0.09029392586030832,0.0985596935657837,0.06641937031705607,0.0746236215176532,0.08497684928866416,0.0642416860443657,0.07882109770051306,2.8407624187089766,0.08866307052979434,0.46987102208496645,0.037383177570093455,0.29902235605076,0.023935193405621825,0.0004240092884762947,1534.4752631871677,238.1212938372027,0.20259647907437048,Catherine,REC_20260519_154132.csv
left,0,concrete,0.608,1.072,0.0,38004.0,6.519804169192921,39317.5182965558,1262.1527777777778,0.3188121895594553,0.23593932322053676,0.5246207701283547,0.1267876151247281,0.44586476604804,0.28436338724055576,4285.0,3177.5,-33.69999999999999,388.8235294117647,0.12236775119174341,0.0,-1.671641791044776,-1.671641791044776,0.8603923340130711,-0.9947807083192548,6572344.231977355,6222273.0,1045801.0,1839926.0,4021787.309988271,593123.423612495,1047712.3276819686,0.0895913361410654,0.0604757717406396,0.054954412921738326,0.11280603508122368,0.0688295459804693,0.11395381126486787,0.12385800897857176,0.06701069097977508,0.08979960198083954,0.08421344934511962,0.059776924144953024,0.0747304114407368,4.462947722881601,0.21113019986647988,0.5297177683173683,0.08955223880597014,0.46790788978977227,0.20527638694132685,0.002497684653918788,0.0,0.0,0.0,Catherine,REC_20260519_154132.csv
left,1,concrete,1.696,1.216,1.0,22828.0,3.7228311877247395,24207.302389981418,125.0,0.03157424710905197,0.2145922746781116,0.5357653791130186,0.11796053461871979,0.4572471939845216,0.2579797889861562,4194.0,3190.038961038961,-17.900000000000006,364.62987012987014,0.11430263848912808,0.039473684210526314,0.0,0.039473684210526314,0.8338410468504904,-1.0694011446829945,5778835.734248033,5114163.0,1764178.0,2031737.0,3388199.8192783953,612157.5424129316,1164655.0840781808,0.08858337438373508,0.06030541498902835,0.05126754141340943,0.11896609983186297,0.06825222995281578,0.11741500531280406,0.12576893169891668,0.060802090924265056,0.09230844389801045,0.08645418164497441,0.05715844369445474,0.07271824225572297,4.362479162388797,0.20798612261729402,0.5351491204353703,0.07894736842105263,0.3671895459085888,0.195882158502727,0.002736698605867452,10731.052511287045,804.0884404117859,0.1018233764908627,Catherine,REC_20260519_154132.csv
left,2,concrete,2.928,0.944,0.0,40090.0,6.904258942475909,42842.08181216221,1388.888888888889,0.3508249678783552,0.206546795758414,0.520977408944214,0.12252722383450039,0.4479991480071355,0.2734987876192601,4338.0,3129.9166666666665,27.69999999999999,368.6,0.11776671370377274,0.0,-0.06779661016949153,-0.06779661016949153,0.9260821852528955,-0.9026502196437614,7222773.733509447,6464175.0,2146580.0,2403143.0,4266981.958487854,981773.1246674808,1430600.088833161,0.09552437498335953,0.07534279400410022,0.06043824382970792,0.11167496472217046,0.07558774195266116,0.10641390878351394,0.11803828642935116,0.06365451689342101,0.07897973854468969,0.08278175670278763,0.05887270694107938,0.07269096621315797,4.07788562799218,0.3007583845560348,0.5050451688502869,0.06779661016949153,0.42797800999428504,0.21770174262140293,0.005623539706480282,9421.951460994338,696.0116863631043,0.13607840876984617,Catherine,REC_20260519_154132.csv
left,3,concrete,3.888,1.1360000000000001,0.04225352112676056,19971.0,3.196279276282028,32713.2910450783,1421.875,0.3591570608654661,0.2083999086966446,0.5211139009358594,0.13423597839289933,0.43118436926087295,0.31131921276021873,4381.0,3350.2361111111113,-27.5,437.4236111111111,0.13056500992881925,4.0,-0.6323529411764706,3.3676470588235294,0.44139429167863037,-1.5318106900227615,10868209.556638848,9590584.0,2517986.0,4449542.0,4167514.157144954,701912.5831118171,1048651.851797137,0.0983761509346356,0.06930274400228839,0.06118971714265578,0.10800648378845604,0.07230004518752824,0.10336750726524249,0.11762437970789787,0.06839899343744428,0.07820758901735782,0.08834783618070036,0.06583698495545505,0.06904156838033802,4.428068049896368,0.24183110610947128,0.5489059020150113,0.09859154929577464,0.44284096082762364,0.266166684475037,0.0010658482599720813,10885.106445659285,739.4128270242572,0.13979031916886575,Catherine,REC_20260519_154132.csv
left,4,concrete,5.04,1.104,0.9855072463768116,16726.0,2.5982180397991437,32471.173231036788,1523.4375,0.38481113664157085,0.2050056882821388,0.5337883959044368,0.132088390368991,0.44207831627424216,0.2987895707758692,4395.0,3275.7285714285713,21.69999999999999,420.00714285714287,0.1282179318886529,0.39705882352941174,0.0,0.39705882352941174,0.6133562041963201,-1.4020844120219242,10157154.23544725,9120218.0,2553416.0,3670078.0,4080116.0494858394,768418.8449447446,1195789.76154894,0.09379810816350562,0.06764035045638703,0.053780838286793343,0.11164364743285028,0.07443927414184849,0.10621410286043237,0.11601781065062952,0.0677144888160104,0.08214094138272401,0.08657179864021526,0.06437390155298058,0.07566473761562313,3.213524889192126,0.10949845647254722,0.46015154523413143,0.057971014492753624,0.40088557361138044,0.06820661483214883,0.0014502711485685881,12656.886676166983,70.12649723227888,0.10286560811725833,Catherine,REC_20260519_154132.csv
left,5,concrete,6.16,1.072,0.0,12778.0,1.8705922272769786,27442.73530463026,687.5,0.17365835909978583,0.19875500222321033,0.5437972432192085,0.1266713482484129,0.44248959604861937,0.2862696645965952,4498.0,3120.279411764706,-14.599999999999994,382.1617647058824,0.12247677668383772,0.0,-0.11940298507462686,-0.11940298507462686,0.8058274206387185,-1.1714206099862188,8794925.075381882,8086634.0,1595580.0,3067765.0,3934240.282496602,686304.980516195,1083325.0037307641,0.098765664839593,0.0706620353569392,0.05861560286361987,0.11515277195198394,0.07372548649960646,0.10365304766258679,0.11941332554117043,0.06555785445307971,0.07929625457750296,0.08589445703863247,0.061113493795333186,0.06815000541995203,3.426015570895606,0.11070139082830294,0.5023151446217435,0.05970149253731343,0.405438764174689,0.126466024510454,0.0020936892767833047,3602.221027828978,456.14564303109364,0.03200000000000009,Catherine,REC_20260519_154132.csv
left,6,concrete,7.248,1.1680000000000001,0.0410958904109589,12170.0,1.758536377729492,23076.176069704445,385.41666666666663,0.09735392858624356,0.19844617092119868,0.5198668146503884,0.13717128038705126,0.4208672973099256,0.32592525307552284,4505.0,3181.364864864865,1.6999999999999886,424.7364864864865,0.13350763100997787,2.3333333333333335,-0.8,1.5333333333333334,0.4475673465338492,-1.5807827187908203,8481137.700245293,7376808.0,1897347.0,3729943.0,3680800.8055782975,704794.0169130329,1097781.6481645836,0.09912879479740548,0.06736867144392386,0.06351599899754058,0.10860968222885808,0.06883413119475322,0.09735749996814218,0.12432620709282519,0.07048649016018112,0.07869731247424826,0.09067160533682213,0.06668479022687016,0.06431881607842971,3.3947201070015103,0.10166688885348783,0.45485718613704806,0.0821917808219178,0.4062023952167869,0.09338453169861986,0.0006163120628135282,2473.6445446614275,589.5107097252661,0.04888080741286241,Catherine,REC_20260519_154132.csv
left,7,concrete,8.432,1.1999999999999993,1.0,28566.0,4.7803582678291425,30904.127944337793,1375.0,0.34731671819957166,0.20398460493547657,0.49988680099615124,0.12121476459885852,0.4489818807167959,0.2699769630018363,4417.0,3167.6052631578946,6.5,372.50657894736844,0.1175988003555733,0.8133333333333334,0.0,0.8133333333333334,0.8732820637818355,-0.9948341442767665,5663445.130309995,4764748.0,2293188.0,2028072.0,3023833.694163361,578840.6262670602,1054205.4645790595,0.09883358672083345,0.07260590351336307,0.05519693608819547,0.11419883857139299,0.0775864217531092,0.10720783590459339,0.11845657935182646,0.06317241150130018,0.07738288097433725,0.08355556663260474,0.05804235309755835,0.07376068589088552,3.286758383121459,0.09911491755867088,0.4332882877181336,0.05333333333333334,0.4369935505107185,0.0621957974787049,0.0012733494217838856,9295.692766007272,507.1465540796021,0.06661331198291601,Catherine,REC_20260519_154132.csv
left,8,concrete,9.648,1.3759999999999994,0.011627906976744186,26963.0,4.484921546078122,29812.01571514412,2243.0555555555557,0.5665823231235436,0.20957668285912562,0.5449919037705298,0.13621033507011518,0.444463007242972,0.3064604541892979,4323.0,3302.448275862069,47.5,439.6034482758621,0.13311440832819957,8.0,-0.29411764705882354,7.705882352941177,0.37713224155633135,-1.6360983287920967,5622750.707065982,5070181.0,1043357.0,2195449.0,3091069.6708741155,485740.7678740016,960637.5514535449,0.08789021032810906,0.0649257081997682,0.05189114310873507,0.11364261276029974,0.07125330214783182,0.11050317945933529,0.12270589914135456,0.07131247106813823,0.08413820467573692,0.08524153101321556,0.06489786400197695,0.07159787409549864,2.8533068114046163,0.1073447686444252,0.41891056780647234,0.046511627906976744,0.3862707449623965,0.07783434162502957,0.0007903600025917924,9039.093557062752,929.4817429311815,0.11199999999999985,Catherine,REC_20260519_154132.csv
left,9,concrete,11.04,1.184000000000001,0.013513513513513514,11615.0,1.6562485545405858,24734.4450311706,281.25,0.07104205599536692,0.19706731837369473,0.5027771606309709,0.13535451758578634,0.4375515047631605,0.30934533674831244,4501.0,3235.9466666666667,-10.5,426.3466666666667,0.13175330454560438,3.0,-0.3150684931506849,2.684931506849315,0.42738644893513955,-1.5870661511454887,7863805.467622912,7313278.0,1084896.0,2679254.0,3381566.3365388424,627520.122990294,878059.2502601525,0.09344612189735306,0.06814286185186406,0.055987737745986754,0.10983699772554965,0.07327685664370241,0.1055724033358605,0.12002257968816955,0.06952318950456537,0.08072238520618386,0.08792069090549494,0.06583132808122096,0.06971684741404885,3.213840700500695,0.11783579267268407,0.43895773300101754,0.08108108108108109,0.45596256541544583,0.09050227513537262,0.0007350873351146909,9358.30392396685,983.0641338725488,0.10653324989566987,Catherine,REC_20260519_154132.csv
left,10,concrete,12.24,1.1039999999999992,1.0,38549.0,6.620248968540586,39970.18742763161,1529.513888888889,0.3863459958760387,0.2067956795679568,0.513051305130513,0.13706750111756816,0.43450603486812694,0.3154559203281712,4444.0,3195.714285714286,57.099999999999994,425.2214285714286,0.1330599016540009,0.6521739130434783,0.0,0.6521739130434783,0.5346083795070542,-1.4943453295611095,6908809.623039703,6208834.0,1650557.0,2541199.0,3877213.5516482266,545285.359336835,1198344.721920072,0.0930621367903442,0.06510952168082253,0.05666964684845775,0.11227089852481001,0.06936969155118462,0.10644613321412606,0.12283415288332589,0.07152436298614216,0.08130978989718374,0.08943674564148411,0.06554313813142601,0.06642378185069289,3.4664142929969746,0.1310071972962315,0.45335211166440265,0.08695652173913043,0.46919861728714246,0.09871285942290706,0.001762731061436261,13510.717079415143,992.9741087747539,0.1397903191688656,Catherine,REC_20260519_154132.csv
left,11,concrete,13.36,1.152000000000001,0.027777777777777776,14534.0,2.194227213798995,28921.337641955637,411.4583333333333,0.10393189673396272,0.21077441077441078,0.5142536475869809,0.14197546595986885,0.43245918072616685,0.32829795802084244,4455.0,3225.041095890411,15.699999999999989,445.56849315068496,0.13815901252187507,8.0,-0.9285714285714286,7.071428571428571,0.43105530236862455,-1.6244753194321584,9783259.268265152,8311432.0,2101376.0,4713436.0,3744468.1168736024,510204.8952640191,1465140.0948722058,0.09086429821431606,0.06342066364238749,0.05667125405644189,0.10997417469459878,0.06816946157636306,0.10731518765822248,0.12326486229335509,0.0745620741797917,0.08357969315459503,0.08750445996228147,0.06741339178007713,0.06726047878756988,3.2468342753629487,0.11566342126348517,0.4446707592740585,0.08333333333333333,0.409390152659338,0.07419672455109212,0.0011694532821290493,14779.947800990367,686.1930209110384,0.04026578365477834,Catherine,REC_20260519_154132.csv
left,12,concrete,14.528,1.0399999999999991,0.9538461538461539,15328.0,2.3405633067935745,28489.748243885904,187.5,0.04736137066357795,0.1954819950794006,0.5083873853723999,0.13125017773017242,0.44226850052608135,0.29676582793926454,4471.0,3196.878787878788,21.19999999999999,406.3939393939394,0.12712209825871826,0.03225806451612903,-1.3333333333333333,-1.3010752688172043,0.6102935253785761,-1.4420214995798326,9250644.43345592,7971791.0,1947438.0,4269948.0,3903102.0260189357,616179.3755148599,1388709.597657543,0.09607856147568176,0.07085983487682114,0.05655611060030143,0.11020218584414723,0.07385044124477473,0.10673763234973507,0.1207285515227921,0.06829578092268027,0.08061840621060315,0.0847512251533219,0.06295439680749215,0.06836687299164905,4.033601473838784,0.13989311315271438,0.482883748519716,0.09230769230769231,0.4419472880568442,0.137590745259649,0.0016675476931339037,13641.636644234932,718.9351892844454,0.05619015334854888,Catherine,REC_20260519_154132.csv
left,13,concrete,15.584,1.0399999999999991,1.0,18621.0,2.9474710577144183,30601.35802542103,156.25,0.03946780888631496,0.20923423423423423,0.511936936936937,0.12403817130650814,0.44686433397571335,0.277574560947539,4440.0,3262.8030303030305,-11.0,391.06060606060606,0.11985418746662332,0.8615384615384616,0.0,0.8615384615384616,0.7500016004712485,-1.2284697579218502,10914968.139982544,8807455.0,3849672.0,5171585.0,4138469.0152844605,817066.0776375968,1490736.1724984944,0.09951008846269939,0.06985999210569087,0.055789547005967166,0.11191808493347884,0.07489377510506397,0.10850495716176367,0.11820566997144118,0.06409250272818036,0.08168752466971603,0.08349857205878938,0.059945668578327796,0.07209361721888133,4.452661037027669,0.19051893419393529,0.5262295207245716,0.09230769230769231,0.4755236296689208,0.15792406555453192,0.002560879228415543,2167.0969060011766,139.20320337084272,0.06466323014923919,Catherine,REC_20260519_154132.csv
left,14,concrete,16.64,1.0079999999999991,0.0,14003.0,2.0963626478290687,30715.921246155063,468.75,0.11840342665894488,0.20669771567975162,0.520292747837658,0.1250632714246778,0.451782307362847,0.2768219768379454,4509.0,3210.375,43.900000000000006,387.5234375,0.12070971070357825,0.0,-1.1904761904761905,-1.1904761904761905,0.7739194397833634,-1.172786211054815,10189965.816752085,8881980.0,2157576.0,4504520.0,4089857.2662827387,609466.8193147064,1531347.937800033,0.09494120624537632,0.07235817466806838,0.05356169450609353,0.11321691391192618,0.07826675232644162,0.10750301756025386,0.11966086516372698,0.06632792119300705,0.08043744889615699,0.08208737297044738,0.05873535023167076,0.07290328232683098,3.9300352621945778,0.15309221172393986,0.5284260687781374,0.07936507936507936,0.5273372775452196,0.09311281583050998,0.00353701476938043,2377.8631163294217,172.11157960269213,0.018475208614068026,Catherine,REC_20260519_154132.csv
left,15,concrete,17.664,1.1839999999999975,1.0,19066.0,3.0294856186496673,30428.739671567077,859.375,0.21707294887473227,0.2054947509492964,0.5338396247487157,0.11864163291366547,0.45390370917217016,0.2613806199776731,4477.0,3341.266666666667,43.30000000000001,384.46,0.11506414732935612,0.6351351351351351,0.0,0.6351351351351351,0.8976795394903786,-0.930408469882058,10287969.372632142,8839220.0,3128851.0,4233296.0,4065811.7453857022,790899.9004516368,1124224.3885548122,0.09659410602765418,0.07008120672798739,0.057495161515592884,0.11115145952632734,0.0738881462120154,0.11286338514335881,0.11443564316925717,0.06139388255950837,0.08591951156248129,0.08188910393264032,0.0572477503541571,0.07704064326901973,4.176030992495332,0.19059272543670905,0.5182152267798636,0.0945945945945946,0.5145932229202286,0.25666302465859725,0.0018453755881383776,2803.5072676916475,352.28513693928926,0.09375144443331612,Catherine,REC_20260519_154132.csv
left,16,concrete,18.864,1.120000000000001,0.9857142857142858,16817.0,2.614989556754442,31088.890829362183,102.67857142857143,0.02593598869672126,0.21541950113378686,0.5233560090702948,0.13717872742038148,0.4360352055486052,0.31460470547943403,4410.0,3208.521126760563,23.0,426.96478873239437,0.13307214503632495,0.391304347826087,-2.0,-1.608695652173913,0.5682375300293352,-1.4822825516576439,10176562.844673883,9075013.0,2808758.0,3649308.0,3934063.368884145,837503.9677174093,1029204.9212316686,0.09336493931213098,0.061715063321700576,0.05630692917187946,0.11136278834968505,0.06919953468975659,0.11003270340861702,0.12161278286253595,0.07190360176466715,0.08372511577884595,0.08507275959702376,0.06527512565571432,0.07042865608744321,2.972712147636209,0.08267637577007053,0.42802395673048227,0.08571428571428572,0.39137893551571445,0.08268922748334975,0.0011315702650614998,2536.7487722147835,378.4146020909879,0.0890842298052798,Catherine,REC_20260519_154132.csv
left,17,concrete,20.0,1.4720000000000013,0.010869565217391304,12165.0,1.7576148658088713,22746.162269710465,175.0,0.044203945952672755,0.22436047876085427,0.508566064304154,0.1438233335041246,0.44167307133951594,0.32563301418361446,4261.0,3147.9032258064517,-28.80000000000001,443.0268817204301,0.14073713514713668,4.0,-1.10989010989011,2.89010989010989,0.2989398981557881,-1.6204860288697083,6028384.578671222,5009094.0,1391551.0,3051882.0,2829849.1750057307,761103.5491434707,1318867.9571732124,0.07391504841932674,0.048941948045293844,0.05536711584772249,0.11161209885399054,0.060053628460658225,0.12033611723113183,0.1340028351351813,0.07844443305835938,0.10072927874844152,0.08251609707776127,0.06537890044576523,0.06870249867636762,2.7732384363636267,0.09192552869884482,0.48508008507722555,0.06521739130434782,0.3961702143620389,0.03620604049279911,0.0006265022925985315,3519.5384640602906,417.5701567138888,0.18750288886663496,Catherine,REC_20260519_154132.csv
left,18,concrete,21.488,0.9280000000000008,0.0,9964.0,1.3519653183516054,21586.79709915299,0.0,0.0,0.1891891891891892,0.5001098659635245,0.11050486386609422,0.4551980870604858,0.2427621446733644,4551.0,3118.813559322034,55.599999999999994,330.10169491525426,0.10584207380033694,0.0,-0.10344827586206896,-0.10344827586206896,1.091864958991411,-0.494317697085918,7401595.538703125,6675535.0,1219287.0,2955366.0,3900704.6684343913,808712.5664961409,1442386.97377937,0.09787511548285419,0.07402858540296722,0.06476821911852616,0.11172218901146677,0.0773381881419488,0.10879843486767024,0.11840117384924732,0.05644801912939514,0.0833106896364328,0.08165860551057008,0.05405684473669909,0.07159393511222216,3.6866289166254624,0.19226853408258093,0.5160584889840281,0.06896551724137931,0.41493794027145997,0.12681834455786709,0.006609055254202264,3498.7882187980204,87.93774129199515,0.27589369933605495,Catherine,REC_20260519_154132.csv
left,19,concrete,22.432,1.216000000000001,0.0,15912.0,2.4481958991220814,28826.36668052358,1288.1944444444446,0.3253901577071745,0.18523288259283108,0.47907276239536384,0.1282078755052427,0.43621195439330235,0.2939118797958546,4659.0,3515.090909090909,10.5,439.7142857142857,0.1250932897857845,0.0,-0.5263157894736842,-0.5263157894736842,0.14105313005949116,-1.7012397602611702,9566136.490537284,8491026.0,3860668.0,2123367.0,3289808.0741016828,946904.2744682734,2453092.9797082045,0.09478981164699884,0.06582748963652083,0.05861923727749001,0.10741810819398365,0.07064900133746149,0.10912503417546608,0.11915230065543002,0.06497033200079805,0.08319232104987033,0.08630321212434698,0.06323754350444466,0.07671560839718912,4.120261426850774,0.12167608728584234,0.500552240825671,0.06578947368421052,0.3877626244234101,0.12143298241911606,0.0010025782781621414,3007.2998409425604,698.7216658345332,0.2721568175396925,Catherine,REC_20260519_154132.csv
left,20,concrete,23.664,1.5039999999999978,1.0,22991.0,3.752872476336977,24823.62509787803,2428.8194444444443,0.6135051625772736,0.23053892215568864,0.5380009212344542,0.11857109349647046,0.46184987999267424,0.25673080936661247,4342.0,3276.1157894736843,-9.699999999999989,378.7631578947368,0.11561348323271138,1.7127659574468086,0.0,1.7127659574468086,0.9895585048655615,-0.6442048197373924,5593412.825177934,3522248.0,2897944.0,3237585.0,1817696.5609836848,1531634.960698481,1479181.7872671012,0.09428045406787884,0.07448165510505059,0.053490815503597,0.11307999524468963,0.07864897776892404,0.10958419951740025,0.11801523627145111,0.06326490613081602,0.08605505235660972,0.08021051887504778,0.055306187365654444,0.07358200179288052,2.916336473957424,0.08424979611641491,0.45499234303614355,0.0425531914893617,0.4323194551156362,0.037002469569898264,0.0011960925388626814,6521.677621593993,1215.1566573240636,0.2879999999999985,Catherine,REC_20260519_154132.csv
left,21,concrete,25.184,1.3439999999999976,0.0,10088.0,1.3748188139830007,25198.65688881056,150.0,0.03788909653086236,0.21896211955331726,0.4882855266038975,0.14552277516035445,0.4243731599036979,0.3429122972651554,4567.0,3288.670588235294,23.0,466.9823529411765,0.14199730268265026,0.0,-0.34523809523809523,-0.34523809523809523,0.32023142091517315,-1.6662961477718985,8518871.398451205,7440338.0,2213775.0,3508809.0,2787807.7704883954,732169.6338696728,1111030.1962512792,0.09676357691468393,0.07065612065665726,0.0650504226631895,0.10566400870010054,0.07313879736850579,0.10020140446524073,0.11970508376350895,0.07720266011297253,0.07471282871319361,0.08668977630868187,0.06832011504738192,0.06189520528588345,2.78276507784262,0.07515035673536365,0.48846531656533326,0.047619047619047616,0.35905406768377984,0.053133260845501636,0.0007069976285981248,6461.664207720269,1139.4099382551249,0.144295992090331,Catherine,REC_20260519_154132.csv
left,22,concrete,26.544,1.6799999999999997,0.02857142857142857,7954.0,0.9815175262620532,16572.753784449946,270.83333333333337,0.06841086873627927,0.20065186392340598,0.46037889590547976,0.15729866550047045,0.41767847440331834,0.37660227936111934,4909.0,3559.3867924528304,6.199999999999989,550.7075471698113,0.15471978160325472,3.0,-0.14705882352941177,2.8529411764705883,0.07072465170196275,-1.7258885635089163,4981311.816103164,4405560.0,1244943.0,1963320.0,2075282.3870921484,473549.99322375783,761543.1059023959,0.09428431333571873,0.07159914655640812,0.060430167375660954,0.1009475344226666,0.06915278495606886,0.09940232444108721,0.11704634304721769,0.07987913966524868,0.07657668402708756,0.08849308896221789,0.07741952583522178,0.06476894737539592,3.1965622795970696,0.1343791009689799,0.5145955540893811,0.05714285714285714,0.4433992529259867,0.06705260179878039,0.0005789019429480175,8135.854124388734,1282.2196126620295,0.16806348007028082,Catherine,REC_20260519_154132.csv
left,23,concrete,28.24,1.4720000000000013,0.9891304347826086,5503.0,0.5297923827737485,16168.80790287274,117.1875,0.02960085666473622,0.21593886462882095,0.4556768558951965,0.14648812645382975,0.4226313232545196,0.34660972434716364,4580.0,3342.1182795698924,-22.80000000000001,479.06451612903226,0.14334158041548564,0.21978021978021978,-2.0,-1.7802197802197801,0.2364112928545446,-1.6987554837042622,5185715.755760048,4201531.0,889419.0,2906496.0,1906755.0009987094,393708.258527074,639391.0512402661,0.09014950919672991,0.060080368834394514,0.06121608534925696,0.104746522873588,0.06417924373505954,0.10728177673679368,0.12340702085149782,0.07608657184130856,0.08634341107468382,0.08898161940949176,0.07040155461252119,0.06712631548467426,3.4592004638738234,0.13216955849856848,0.5164871550615109,0.043478260869565216,0.4832047798521649,0.03780827379192765,0.0010039464472979078,2294.3256816182616,80.91600243605468,0.16957987301957034,Catherine,REC_20260519_154132.csv
left,24,concrete,29.728,1.4559999999999995,1.0,7982.0,0.9866779930175296,13306.826932067614,260.41666666666663,0.06577968147719158,0.2802008987575998,0.38990219402590537,0.1879437555943071,0.38553379050634945,0.487489709649852,3783.0,3048.032608695652,-19.5,561.75,0.1842992093973661,0.8351648351648352,0.0,0.8351648351648352,-0.15763436319969784,-1.782655940738601,8319341.486784756,2039068.0,1451415.0,7933917.0,544212.9276344259,702031.2389120918,2017786.1018003132,0.06888620243278808,0.03153495305239659,0.057499670136474355,0.10409779651164865,0.03746536432980647,0.11195389756043636,0.14884868714316793,0.10284966425242228,0.10048177905206139,0.09740424151002607,0.08509409134188482,0.053883652676887085,4.231721630405193,0.3245188258608999,0.6461462800882198,0.06593406593406594,0.3210879300452442,0.035734308538308626,0.0004936904843454079,1423.2372723242916,85.85854959288896,0.12496399481450614,Catherine,REC_20260519_154132.csv
left,25,concrete,31.2,1.791999999999998,0.0,5527.0,0.5342156399927283,13526.81315018434,1822.9166666666667,0.4604577703403412,0.24306197964847365,0.3885291396854764,0.17908999290806615,0.39405823917413635,0.4544759507712982,4324.0,3319.238938053097,-29.400000000000006,585.9823008849557,0.17654116254392468,0.0,-1.6964285714285714,-1.6964285714285714,-0.3589484295126645,-1.5440278984703744,4746004.60883689,2963918.0,2668259.0,2572964.0,1146034.8973226761,536835.8719807703,554428.9368673903,0.07864048161162865,0.04123452971946869,0.06282226973877156,0.10248644267531207,0.043924665532668224,0.11239648709321362,0.13588785146397778,0.09465865402560561,0.09401611415347372,0.09416541802417658,0.08443133888246053,0.05533574707924303,3.0293737868593262,0.0736403115564507,0.5300769563583876,0.05357142857142857,0.47367289914347144,0.03719994522631469,0.0005455707666409994,1424.373663521296,946.1706007376428,0.18953979353511183,Catherine,REC_20260519_154132.csv
left,26,concrete,33.008,1.7119999999999962,1.0,17056.0,2.659037826560115,25666.342668950714,2775.0,0.7009482858209537,0.20114310837546714,0.5053857990767202,0.11437827724314255,0.4590067212552722,0.2491864975969723,4549.0,3483.972222222222,-5.5,390.2361111111111,0.1120089616736962,0.4392523364485981,0.0,0.4392523364485981,0.80455974114835,-1.0777306060059875,8260870.0063952105,4767192.0,1358564.0,6608340.0,2174282.425329636,513291.3313646177,1666744.3352549039,0.09385041021184312,0.06975328820604408,0.056146001929470675,0.11318232434774059,0.07204951776521584,0.11409656389444785,0.11698279688201793,0.05847678123895405,0.0899250270418238,0.08198921516255658,0.0559014960041885,0.07764657731569702,2.530219933871393,0.06605891988979012,0.5166418843267054,0.037383177570093455,0.381301996303653,0.03569372801465911,0.0011289557135250826,6072.922717549856,1269.5798690832655,0.17551448183364507,Catherine,REC_20260519_154132.csv
left,27,concrete,34.736,1.8880000000000052,1.0,7824.0,0.9575582163259131,14393.728947010222,343.75,0.08682917954989292,0.20497835497835498,0.42467532467532465,0.1542747262352192,0.4160875048384881,0.37077471551325136,4620.0,3365.0,18.19999999999999,511.327731092437,0.15195474921023386,0.3050847457627119,0.0,0.3050847457627119,0.0446471264147648,-1.8050278218891906,4781559.9724477995,2070833.0,1905899.0,3865555.0,1067991.565719651,1052734.2769890097,1398001.161388488,0.09366813590220635,0.073135465181615,0.06611060471736986,0.10344750084283343,0.07048584664177707,0.09592568082210597,0.12318104061832758,0.07870440895526115,0.0730930113501567,0.09094609612046899,0.07557031727995804,0.05573189156791988,2.9602918023487836,0.11959413584226936,0.4731623096312976,0.06779661016949153,0.34169993280675304,0.03650817157436985,0.00031555664635128975,6102.238305190411,1225.110421138226,0.08812112875658205,Catherine,REC_20260519_154132.csv
left,28,concrete,36.64,2.0,1.0,5987.0,0.6189947366898397,12837.212976343424,437.5,0.1105098648816819,0.2073170731707317,0.4809584937954643,0.15619172829361816,0.41900849082443165,0.372765067328817,4674.0,3622.0238095238096,1.8000000000000114,558.1230158730159,0.1540914817858121,0.168,0.0,0.168,-0.07727549336847801,-1.6543249051362874,4634377.304923068,3463605.0,1711644.0,2559525.0,1689362.2997407457,316383.54801571707,1051440.9211033136,0.09632210353327855,0.0733935907970419,0.05974910983292248,0.10275540947685566,0.06773158038893454,0.10044152287044644,0.11886277732128184,0.079320734045467,0.07468638729115311,0.09001807723911256,0.07687099424815119,0.059847712955354695,2.5997508052058005,0.08404751490726425,0.5611555548913431,0.032,0.43375289382316967,0.019849070306928975,0.00024278018283477738,5931.935518867328,1377.4173825799255,0.14518034761404178,Catherine,REC_20260519_154132.csv
left,29,concrete,38.656,2.240000000000002,0.9142857142857143,11227.0,1.5847392295004137,16307.199330357129,562.5,0.14208411199073384,0.22660885440438155,0.3596531264262894,0.19552064401610889,0.37111513102784277,0.5268463279156421,4382.0,3344.2624113475176,52.5,646.9397163120567,0.19344765354444257,0.2109375,-0.3333333333333333,-0.12239583333333331,-0.361668873105807,-1.7341655198087702,6237790.753750402,1587027.0,1389107.0,5870414.0,728639.2315081642,924933.7094969735,1949474.0248783452,0.09483162651816067,0.06890387050118654,0.06061190861452133,0.09998494298480938,0.059496417066596544,0.08218797517076988,0.13018592232700868,0.09974106175284864,0.060541925304480416,0.1042093900636424,0.09577958226326025,0.04352537743271529,2.581039442235935,0.11131715768257218,0.5774957152750904,0.04285714285714286,0.3065664960907941,0.007469735731513564,0.0003491539298637049,2658.7145390206465,109.74639325888069,0.17983696320093065,Catherine,REC_20260519_154132.csv
left,30,concrete,40.912,1.5840000000000032,0.0,4919.0,0.4221597904452418,13941.380168405136,337.5,0.08525046719444031,0.21297693468419918,0.439103255011856,0.1539172861888133,0.41110212077335834,0.37440158639695864,4639.0,3287.48,42.0,496.37,0.15098799080146494,0.0,-0.5050505050505051,-0.5050505050505051,0.11690990975077467,-1.693037499865464,4483091.386695234,3495370.0,2019520.0,1949881.0,1857114.1691327086,631925.519798908,1617573.6317783217,0.09792607103313176,0.07241717059875649,0.0639669290763746,0.10374511784102108,0.07015403895993283,0.09356710915351577,0.1223338240841009,0.07716244661564481,0.07121868422013214,0.0926180539501381,0.0767548395731685,0.05813571489408301,2.8322289404658525,0.1215864274001835,0.5654097731114013,0.04040404040404041,0.48492197139588,0.02787643899422181,0.0008429165021139765,3376.119271194827,112.73124382057041,0.3319116348267002,Catherine,REC_20260519_154132.csv
left,31,concrete,42.512,1.5360000000000014,0.0,4986.0,0.4345080501815602,16083.035068046082,1829.8611111111113,0.46221189517973305,0.21975712283979448,0.3960765997197571,0.17092377142934492,0.388262844070848,0.440226959750007,4282.0,3046.453608247423,13.099999999999994,511.21649484536084,0.1678070834433142,0.0,-0.4166666666666667,-0.4166666666666667,0.29442380243165855,-1.7345343464992182,2736364.06878489,1131322.0,1385442.0,2070833.0,648165.4336362483,844806.8130193936,1236054.1390203475,0.09531109351417569,0.07126420444931744,0.06457736898743172,0.10375762251866288,0.06545721575873248,0.08364973976839725,0.13570959642105404,0.08691870892638388,0.06413406157573788,0.09911812281307315,0.08400506250296103,0.04609720276407247,3.898772341675333,0.217115764041644,0.5588951488055914,0.0625,0.29884371582117464,0.03804181925924667,0.0009250339462944595,3622.739157046744,804.5672617328295,0.3933310734398355,Catherine,REC_20260519_154132.csv
left,32,concrete,44.064,1.5039999999999978,0.9787234042553191,2962.0,0.061480024714269825,12883.482642515572,343.75,0.08682917954989292,0.218612818261633,0.4159350307287094,0.17700375019774617,0.40018239175142606,0.44230769230736666,4556.0,3393.5052631578947,20.19999999999999,590.7578947368421,0.1740848617948217,1.141304347826087,-2.5,-1.358695652173913,-0.3022747417712987,-1.7216967895657576,3422428.9821163565,2312735.0,1152091.0,2244318.0,842843.7002340959,422772.60462538473,573796.0433831185,0.08086034313223711,0.05160942109230326,0.058390175660627264,0.10542429346460577,0.057807018360149266,0.10406876293104785,0.1322278159828527,0.09372082274809776,0.08127289590331997,0.09327414907113589,0.08328292744964841,0.058061374203974774,4.065125825477591,0.2908198588300981,0.612346744932096,0.06382978723404255,0.5445781845453566,0.09605202318187887,0.00035227394759313087,1149.7038749172384,859.8165485560172,0.04026578365478002,Catherine,REC_20260519_154132.csv
left,33,concrete,45.584,2.0959999999999965,0.015267175572519083,12208.0,1.76553986832621,13196.254354929659,562.5,0.14208411199073384,0.22998611753817677,0.3926422952336881,0.17844759373027375,0.39358491069285273,0.4533903330186312,4322.0,3408.3939393939395,30.69999999999999,600.9166666666666,0.1763049334530615,2.0,-0.43410852713178294,1.5658914728682172,-0.08695893454845162,-1.8220804464544358,3595196.410910536,1403768.0,2480112.0,2191784.0,456826.8730676753,609550.3862454069,1406151.1673765883,0.08103879015265342,0.048076495639108444,0.0645331934528837,0.10221645314153115,0.04835655289525859,0.10548823314988842,0.13478755656712038,0.09663086675498102,0.08944717586706616,0.08683553081963424,0.08181672697529273,0.06077242458458173,4.6682132773596425,0.3391496135477214,0.6783169631454904,0.03816793893129771,0.5607511399273926,0.02420854696454894,0.00023853240077773867,4860.424809966005,802.3488417374631,0.3329384327469553,Catherine,REC_20260519_154132.csv
left,34,concrete,47.696,1.936,1.0,1033.0,-0.2940392742612258,11179.482903962955,223.95833333333331,0.05657052607038477,0.23990975181749813,0.3923289044873402,0.17837392697142765,0.4026325678329952,0.44301912269866334,3989.0,3075.598360655738,-21.19999999999999,540.8319672131148,0.17584609685440392,0.14049586776859505,0.0,0.14049586776859505,-0.057395865295067815,-1.8704090695376105,2318759.51935771,1077566.0,370184.0,2019520.0,552819.8198463145,370129.94086764246,1152725.588356175,0.0764665279047393,0.04305972714892211,0.06008160480567555,0.10783454105958322,0.04759836150769009,0.11188280036138508,0.1395543450161637,0.09728881225298022,0.09225713775541478,0.08294800691855243,0.08108511471844743,0.059943020550445994,4.0246598094820705,0.16743097062723722,0.5515453035859863,0.11570247933884298,0.540113765888915,0.02886682710879535,0.0003283779160888531,5973.415856944813,171.66443330532042,0.30623738069238576,Catherine,REC_20260519_154132.csv
left,35,concrete,49.648,1.1999999999999957,0.013333333333333334,5824.0,0.5889534480776024,15637.126750141791,333.3333333333333,0.08419799229080524,0.21785310734463276,0.3706214689265537,0.14363221276286112,0.429018409372044,0.3347926560377221,4425.0,2893.2631578947367,7.400000000000006,403.4868421052632,0.13945736011060178,4.0,-1.1891891891891893,2.8108108108108105,0.5648833345787647,-1.330916047542897,6504811.866664093,3411071.0,3836233.0,3995058.0,1810842.2356688655,912233.9244600775,1101997.1700820788,0.0823783016808557,0.04596430910281598,0.06272284071891146,0.114144473550171,0.05336807829440443,0.11794640908098669,0.1398029906134032,0.07860820053845595,0.09759513934366587,0.08241468383904534,0.06502401222440515,0.060030561012879284,2.8279488815815363,0.0763301036927348,0.41376025904613445,0.05333333333333334,0.43834320152482315,0.026059037865693562,0.0013192371929261586,5606.39162028481,172.76704537495672,0.4778619047381796,Catherine,REC_20260519_154132.csv
left,36,concrete,50.864,2.112000000000002,0.007575757575757576,3670.0,0.1919661126741718,13861.154677731578,265.625,0.06709527510673544,0.2007057785619762,0.4148654609616233,0.1510147670128959,0.4039697643018892,0.373826905767967,4534.0,3536.127819548872,-5.300000000000011,527.4887218045113,0.14917128246563402,4.0,-0.6259541984732825,3.3740458015267176,-0.291928119197678,-1.2239134450046025,4601414.569209886,1276708.0,1093448.0,4283387.0,365477.2347337437,371799.74508704134,1682748.7180413483,0.09703277660241759,0.06119858389768342,0.0637820137995556,0.10218900500738881,0.05765832810622894,0.10107696069571874,0.12976472714515047,0.08128129618013842,0.08184688659486929,0.09352866756679176,0.06973347083275747,0.06090728357129947,6.941818101834626,0.5731380753043298,0.7965961768028682,0.09090909090909091,0.697899555126717,0.016460870105621663,0.0005594613610277567,2399.5543336210812,55.20178158188888,0.4838071241035381,Catherine,REC_20260519_154132.csv
left,37,concrete,52.992,1.5360000000000014,0.9895833333333334,6566.0,0.7257058170977256,16072.104964814036,375.0,0.0947227413271559,0.24295524508643146,0.3817191569973952,0.17736039416492178,0.3955642625646979,0.4483731493204918,4223.0,2983.7319587628867,17.099999999999994,519.7474226804123,0.1741937378637422,2.1894736842105265,-11.0,-8.810526315789474,0.06687896591816621,-1.8217446176126337,7657973.666843599,4299269.0,4221078.0,4726875.0,1857379.5459600443,823328.8756556715,1147994.9815184365,0.07510140901520962,0.036241197973892796,0.05904181437485747,0.10842990512124165,0.04336228759389403,0.11397889586831686,0.14279494993469743,0.09692075930647981,0.09355197600735257,0.09190040840019073,0.080439634858442,0.058236761545425016,2.7134246423117907,0.09530140402560407,0.49071423485187377,0.041666666666666664,0.45724466041004225,0.0710634611065571,0.000558768746662518,1504.277013496206,55.20178158188896,0.46123312977278913,Catherine,REC_20260519_154132.csv
left,38,concrete,54.544,1.264000000000003,0.012658227848101266,3326.0,0.12856609253546236,14793.58414989417,881.0763888888889,0.2225545889978316,0.23725261932479627,0.3757857974388824,0.1713175586438425,0.39824984449689416,0.4301760842119599,4295.0,2934.025,13.5,490.38125,0.16713601622344731,2.0,-0.9358974358974359,1.064102564102564,0.2213513972730088,-1.7358791545246295,7702204.992168217,2304183.0,3379306.0,6526484.0,757370.8713180217,1248164.354915965,2027049.1909427631,0.07708267652797778,0.03830062797692589,0.059274375644379304,0.11170235427441824,0.045206670018149125,0.11088862569337345,0.1451206107650753,0.09071156517071258,0.09215156653402748,0.09598588969078313,0.08060599347312991,0.05296904423104779,5.2394889273306315,0.4324125679486845,0.608608702189867,0.02531645569620253,0.45448680592650026,0.023239276274277545,0.0003529796611848398,1779.6419115465492,328.343472119537,0.43298652788895514,Catherine,REC_20260519_154132.csv
left,39,concrete,55.824,2.048000000000002,0.9921875,5685.0,0.5633354166843448,15946.893302458633,484.375,0.12235020754757638,0.21377299237326156,0.5103185284881112,0.13338073844231121,0.44700862988461165,0.2983851530487419,4458.0,3597.5581395348836,-0.8999999999999773,472.48837209302326,0.13133585442321988,0.05511811023622047,-1.0,-0.9448818897637795,0.30494858185469603,-1.429117518715152,7761377.008232753,4665788.0,4331034.0,4439768.0,1889604.5767843025,905407.8989288867,1394527.5902262537,0.08984130062380814,0.06421237488822092,0.05167587834125214,0.11480224527834341,0.06664727366753935,0.1146298630638784,0.12347953499897649,0.06922654255147224,0.08671687298662961,0.08834373013564326,0.06415419589083896,0.06627018757339712,3.071511655016209,0.14972754227746382,0.6065099067861478,0.03125,0.47853130893091944,0.01996170045491748,0.00042766035294042294,1675.2433654048784,266.2856217054006,0.39807536974799074,Catherine,REC_20260519_154132.csv
left,40,concrete,57.888,1.7600000000000051,0.00909090909090909,2431.0,-0.036384541255656655,11347.51814274822,289.0625,0.07301544643968268,0.23362875430822255,0.35450516986706054,0.19254385334808283,0.3693680233309869,0.5212791611237554,4062.0,3135.4504504504503,28.400000000000006,595.3063063063063,0.1898630884824802,2.0,-0.27522935779816515,1.7247706422018347,-0.18135947218694953,-1.8350187257130801,2636505.0159774018,674395.0,824668.0,2411695.0,393525.311155098,663009.0088155648,1134977.0100751445,0.08730731104630281,0.053767580846753926,0.061338658468257506,0.10135187552975995,0.04953237461749537,0.09080983234444813,0.136224804976511,0.09734940451391384,0.0739063599925295,0.10746045656327669,0.09519444883416898,0.04575689226658239,4.145854235872695,0.2844978457196135,0.6352509944376753,0.045454545454545456,0.35641714143601905,0.035457653878715294,0.0007078574843867361,1680.992861376786,301.6618993840533,0.39657197749378736,Catherine,REC_20260519_154132.csv
right,0,concrete,1.28,1.0399999999999998,1.0,13553.0,0.6640187513887059,33654.765620933984,380.20833333333337,0.09834665418891783,0.2310643977310644,0.4943276609943277,0.15292671196222812,0.42976365471505124,0.3558390996640805,5994.0,4473.424242424242,80.19999999999999,663.4469696969697,0.14830852915873546,0.6615384615384615,0.0,0.6615384615384615,0.6695123970806031,-1.313381139003701,10150263.726112736,8630304.0,2300518.0,4822170.0,4146588.7638391396,1534174.7787399432,1783690.9762827344,0.08281568590260327,0.08880391266943499,0.060376770557433464,0.09838236589149389,0.07610602683863626,0.08941696077169548,0.10783211288213897,0.07725422190309099,0.07705438854379061,0.09292251207467672,0.07567249005913713,0.07336255190586834,4.16214349867874,0.24941695651723994,0.5765461775453584,0.07692307692307693,0.47225680620903354,0.15645035741284852,0.003090629251806432,0.0,0.0,0.0,Catherine,REC_20260519_154549.csv
right,1,concrete,2.336,1.056,0.015151515151515152,13749.0,0.6816595853470494,33852.509065060454,1458.3333333333333,0.37722004346434235,0.2360363391655451,0.5072341857335128,0.13761559543512503,0.441698607693153,0.31155994843129947,5944.0,4481.985074626866,-91.30000000000001,596.9253731343283,0.1331832576849943,6.0,-2.123076923076923,3.876923076923077,0.9827673875327299,-0.6145394814855702,10356892.633081846,8813563.0,2094046.0,5020090.0,4163685.6347753867,1473666.4303281617,1694050.2558067827,0.08211979633224883,0.08870669645979094,0.05846956139503751,0.10248990152950617,0.0784700276063711,0.09200347660451624,0.10845074643764589,0.06765725474786292,0.08002850549296853,0.09325558704332101,0.0699583406872621,0.07839010566346868,4.447400664594979,0.2646927606780651,0.5998448845847539,0.07575757575757576,0.49519539707831756,0.13742720937795205,0.004223131528120961,138.59292911256333,762.3494984667465,0.011313708498984849,Catherine,REC_20260519_154549.csv
right,2,concrete,3.408,1.0880000000000005,1.0,17487.0,1.018095490124028,33182.2850328304,745.8333333333333,0.1929211079431922,0.21903804256745432,0.4928774928774929,0.14308857503963388,0.4415829601076655,0.3240355447698343,5967.0,4598.246376811594,80.60000000000002,639.2608695652174,0.1390227528452876,0.5,0.0,0.5,0.6636490631830125,-1.2160146992807963,10441308.741044343,8892976.0,1459967.0,5272988.0,4155205.353330888,1152645.978238632,1899451.3467246403,0.08088464726628615,0.09163858938032457,0.05800888177282455,0.09888142612653218,0.08277572735667978,0.08987988489625849,0.10731249152953709,0.06984073953838735,0.07840733234787049,0.09348554426860903,0.07324783550124654,0.07563690001544382,5.350248009887997,0.3174940133410562,0.6288862309585973,0.10294117647058823,0.4999370367176391,0.2847199853623562,0.00158909849573675,2216.882796480981,548.2838994307601,0.024440403706431458,Catherine,REC_20260519_154549.csv
right,3,concrete,4.512,0.9600000000000009,0.0,14084.0,0.7118110107350344,33606.84410949651,607.8125,0.1572199252581741,0.21878138600602612,0.4998326079678607,0.1456971677559913,0.4467887004651711,0.32609859560957216,5974.0,4454.55737704918,-104.69999999999999,628.0491803278688,0.1409902549608432,0.0,-0.9333333333333333,-0.9333333333333333,0.6929520304030793,-1.3166868504999243,9813270.648258356,8170933.0,1718974.0,5155702.0,4285297.133079343,1472130.1883052448,1950482.8845915594,0.07754445622092682,0.09213257375022081,0.05781516810928577,0.10203953953953955,0.08232129188011542,0.09136710239651416,0.10436171465583231,0.0702099157981511,0.07892819289878114,0.0929054054054054,0.0754872519578402,0.0748873873873874,4.6969506454177194,0.3768796066618858,0.6166796871611122,0.06666666666666667,0.4980432522425371,0.13044051778925847,0.0037567188133584293,2068.2229892671958,456.45220420982656,0.06661331198291594,Catherine,REC_20260519_154549.csv
right,4,concrete,5.488,1.0239999999999991,1.0,18765.0,1.1331209278728185,33549.76154907811,1385.4166666666667,0.3583590412911252,0.21728813559322033,0.5005084745762712,0.1529790605002709,0.4364716291383461,0.3504902731070839,5900.0,4486.184615384615,74.10000000000002,666.7692307692307,0.1486272384963066,0.40625,0.0,0.40625,0.5191715569520048,-1.5538072141457457,10668387.417356618,8427496.0,2552194.0,6023131.0,4136500.2424841495,1585850.2959558496,2017684.3084030745,0.07823677478206596,0.08960500956783561,0.056570256719775586,0.10040054594961625,0.08053099772978238,0.09061666243715749,0.1063024259092873,0.07385408879225794,0.07531841345395436,0.09566806812024609,0.07912497170801297,0.07377178483000803,5.5300560154663545,0.3826710219109353,0.6795176973569452,0.09375,0.49108611589896883,0.23923513261501436,0.002474993903079815,2419.55416003307,414.8864966729187,0.06399999999999977,Catherine,REC_20260519_154549.csv
right,5,concrete,6.528,1.008,1.0,17702.0,1.037446404925272,34949.23693015343,843.75,0.21824873943294093,0.23556231003039513,0.49915569064505233,0.15272653301721356,0.43319047151414825,0.35256207848548277,5922.0,4455.0625,-55.5,659.2109375,0.147968953858672,1.2222222222222223,0.0,1.2222222222222223,0.5723378426151067,-1.4781114375387918,11297854.151922125,8965058.0,2834414.0,6263812.0,4458247.20385192,1402961.7823534966,2243013.1407025405,0.08025981678147052,0.08827738106928915,0.05568805151442881,0.09965839424250501,0.07845007786086054,0.0897363953928817,0.10778468315539906,0.07465874496710204,0.07706822294861183,0.09574430773979041,0.07806778805011153,0.07460613627754942,4.9269791773853315,0.2721709456331348,0.5952421550892281,0.07936507936507936,0.4780247133418494,0.18331158039368856,0.0022827626589198326,2453.96461533848,398.6931823055144,0.03330665599145698,Catherine,REC_20260519_154549.csv
right,6,concrete,7.552,0.9120000000000008,0.0,19913.0,1.236445812485973,39492.38506345242,1171.875,0.30312324921241796,0.23378582202111614,0.5114798055974527,0.13598676468340695,0.46299918998639794,0.2937084289226012,5967.0,4512.482758620689,-95.30000000000001,591.0431034482758,0.13097958154391648,0.0,-2.9649122807017543,-2.9649122807017543,1.0377543347679574,-0.5052423475484802,11258684.334195582,9348681.0,1776396.0,6017022.0,4774172.189653349,1332341.3275464445,2089210.2538803513,0.08017988415277164,0.09364062905962006,0.047817548256942434,0.10457199186929743,0.08743179838302946,0.09437040546529933,0.10395684002995523,0.06708593785820177,0.08298436520915163,0.08800874203359264,0.06890082682520518,0.08105103085693327,4.932838823969734,0.30311796184675915,0.5996275636442959,0.07017543859649122,0.45959953929165953,0.14184492064913576,0.003568211285304648,1105.7722791485317,272.84575520659894,0.060575022355201916,Catherine,REC_20260519_154549.csv
right,7,concrete,8.48,1.0239999999999991,1.0,17200.0,0.9922642689707395,34625.921850544284,679.6875,0.17581148454320242,0.21286628494442572,0.49663186257999326,0.1585663409923894,0.4264567953789554,0.37182275604590026,5938.0,4445.215384615384,-80.5,685.6,0.1542332464637865,0.375,0.0,0.375,0.5463537496523135,-1.553180154217749,10411962.209439391,8701164.0,1699427.0,5459913.0,4452755.269581596,1529610.437064916,2050056.343620318,0.08258490546447521,0.0864092420891607,0.05817490889080395,0.09858828334008217,0.07920702985751318,0.08642308584164825,0.10484565946445444,0.07578416205496662,0.07582915425055116,0.0961483219641516,0.08278217893742279,0.07322306784477,5.072661072598788,0.3625719964155583,0.6671637312806711,0.09375,0.4721754007012831,0.2503719577676381,0.0025291856417858907,1443.4272871652868,250.60960831789737,0.060575022355201916,Catherine,REC_20260519_154549.csv
right,8,concrete,9.52,1.008000000000001,0.015873015873015872,15194.0,0.8117157336623876,33423.44659067942,500.0,0.12933258633063166,0.2159339733872326,0.4926730672056594,0.14503343380798947,0.44200187090739007,0.32812855183209094,5937.0,4509.84375,-102.30000000000001,634.453125,0.14068184180438623,22.0,-0.4838709677419355,21.516129032258064,0.6628327295449545,-1.3110348727689505,10065860.655125223,8477587.0,1541823.0,5203350.0,4224536.450675013,1831895.6792056079,1887272.7774949518,0.0854796798669577,0.09399230849184076,0.058323805564217165,0.10004157571977965,0.08510549838894085,0.08768665765859404,0.1023420988809202,0.06971901742715587,0.07517583064823477,0.09187887606970863,0.0753144163808336,0.07494023490281676,4.8530557351176284,0.32348095997250514,0.6327143525220668,0.07936507936507936,0.5047635707319514,0.23757896773963882,0.0041511871576874046,2368.310438547561,347.83907879877904,0.06057502235520211,Catherine,REC_20260519_154549.csv
right,9,concrete,10.544,0.9439999999999991,0.0,17372.0,1.0077450008117348,36129.03213483583,929.6875,0.24047777770851825,0.19935794542536114,0.48154093097913325,0.13939990508164735,0.44571197553215797,0.3127578183537582,6230.0,4740.916666666667,-93.30000000000001,640.65,0.13513209470742296,0.0,-0.9491525423728814,-0.9491525423728814,0.48113791482773766,-1.4472448636235593,11135709.795955442,9320581.0,1739744.0,5839871.0,4226049.16652106,1226301.8005039648,2015335.9291828952,0.07752720113902023,0.08708583079924768,0.06067743579828092,0.10215324040709427,0.0833453446063525,0.09168409766043838,0.10664604243201913,0.06572920145541473,0.08144346205902515,0.09422580021444515,0.07367070362623261,0.0758116398024292,4.815910741983037,0.22359479510651634,0.5700650952936533,0.06779661016949153,0.4106463635415723,0.2235949099064219,0.0034644413378941636,1210.8746150338375,215.80042682707983,0.042332020977033515,Catherine,REC_20260519_154549.csv
right,48,concrete,50.08,1.0399999999999991,0.06153846153846154,14874.0,0.7829143720977453,32967.002623835855,706.25,0.1826822781920172,0.20483333333333334,0.5376666666666666,0.132208532360237,0.45287589604816286,0.2919310422873796,6000.0,4434.454545454545,-95.80000000000001,568.0075757575758,0.1280896150665929,6.5,-0.3442622950819672,6.155737704918033,0.8981099223247399,-0.9481649979464191,11138637.42659707,8384736.0,1654223.0,7143458.0,4381777.256865778,1196239.5263393712,2221108.501159078,0.08561061112363928,0.08862761980907084,0.059844741931295575,0.10578664315928304,0.08375872130766657,0.09545091125279322,0.10362382719339608,0.06417379063394767,0.07925200051934918,0.08968681878130616,0.06803474172628932,0.07614957256196314,4.7211597437198485,0.24429956158768462,0.5932287891643774,0.1076923076923077,0.5099492346179454,0.17045861481717534,0.0030686236552721104,1402.11994256317,343.0098366856468,0.03330665599145753,Catherine,REC_20260519_154549.csv
right,49,concrete,51.136,0.9439999999999955,1.0,19808.0,1.2269953657225747,34602.465923688156,804.6875,0.20814463112586032,0.2073778664007976,0.5079760717846461,0.14242824501074142,0.44375744877896955,0.3209596715560941,6018.0,4391.1,51.19999999999999,604.9583333333334,0.13776919982084976,0.6949152542372882,0.0,0.6949152542372882,0.6981122288032836,-1.3212481564389746,11171151.274385644,8855102.0,2091602.0,6481280.0,4765413.55038488,1314745.514261505,2346366.035904912,0.08139570191220119,0.0895257832130142,0.05975723622782445,0.10035830050177252,0.08291392437733901,0.09131349016571397,0.10514070126695664,0.06829344203806183,0.07964595052112985,0.09322265491562479,0.07413480297267959,0.0742980118876819,5.11759369107782,0.3634208373948813,0.6340120376382159,0.06779661016949153,0.46365345746096137,0.12352935462567921,0.003683593192007934,2816.0356886943073,178.18311470758994,0.04888080741286301,Catherine,REC_20260519_154549.csv
right,50,concrete,52.096,1.0080000000000027,1.0,14754.0,0.7721138615110044,34738.282643216546,393.75,0.10184941173537243,0.21441931644278184,0.5175990477809896,0.12849538440805874,0.4555942109164158,0.282039107014836,5881.0,4405.921875,98.6,546.59375,0.12405888381758925,0.31746031746031744,0.0,0.31746031746031744,1.050426162781608,-0.6007858819265928,11155826.975896722,8655960.0,2282192.0,6657209.0,4521318.618912139,1512996.8305916656,2246396.605374507,0.08271537951407729,0.09042871986921013,0.05779508403108033,0.10265303444582753,0.08407718305263867,0.0955354831388153,0.10312470077558968,0.06213228644686306,0.08289979040992414,0.0893825426716174,0.06636309796119569,0.08289269768316081,5.109728883141486,0.3272252033128934,0.6525213807848177,0.07936507936507936,0.46161236736735023,0.20333555335040193,0.004053822739782804,2883.9114641981214,214.55994512509366,0.04888080741286389,Catherine,REC_20260519_154549.csv
right,51,concrete,53.12,1.024000000000001,0.0,14218.0,0.7238715808902284,33755.44640498774,0.0,0.0,0.21791352093342484,0.5133836650652025,0.13604145676420232,0.4420704426798937,0.30773705642799654,5828.0,4367.107692307693,-37.0,574.6692307692308,0.1315903502406099,0.0,-0.203125,-0.203125,0.9254478499606125,-0.870364109579977,10740087.47198369,8448266.0,1778839.0,6388428.0,4366785.339914053,1389056.1962358644,2165952.6134397187,0.08562611409769535,0.09007545920200662,0.060141899937293464,0.0999358843381643,0.08007412052335289,0.09141766069428102,0.10415272209735717,0.06545081765083033,0.0805673179220889,0.09306634914148423,0.07059063911337199,0.07890101528207369,4.746539538579404,0.33607359672082027,0.6453438916406777,0.09375,0.4605161355838711,0.20469679949470873,0.0035559792185652305,3084.3235887306014,402.3743414745566,0.042332020977035895,Catherine,REC_20260519_154549.csv
right,52,concrete,54.16,1.024000000000001,1.0,17635.0,1.0314161198476752,35828.331833899276,625.0,0.16166573291328956,0.2241554054054054,0.5079391891891892,0.13988909530066604,0.43771108315064144,0.31959230799840127,5920.0,4414.046153846154,-88.80000000000001,597.5384615384615,0.13537204657857957,0.96875,0.0,0.96875,0.7795093453599825,-1.1244153485490611,11357961.191136638,8903971.0,2740341.0,6497162.0,4626808.741892788,1307776.9793307583,2128265.877708339,0.0846667805223186,0.08581346958834211,0.05989969084705119,0.10061238075653596,0.07958510070997131,0.09119140645422132,0.10595197847431102,0.06710047993642672,0.08050872564157079,0.09489636231192032,0.07278861536423933,0.07698500939309129,5.1583084712914555,0.30909669202292833,0.6272975879306536,0.109375,0.5036040875437874,0.19580296544511464,0.002722450000824698,1837.7225942272503,316.00121967064155,0.009237604307029822,Catherine,REC_20260519_154549.csv
right,53,concrete,55.2,0.9439999999999955,0.0,13457.0,0.6553783429193132,35065.29343952507,562.5,0.1454991596219606,0.22407061619419452,0.5206246817178747,0.1332649805462357,0.4482246766313808,0.29731736670037096,5891.0,4356.483333333334,65.30000000000001,558.725,0.12825138012693724,0.0,-0.3220338983050847,-0.3220338983050847,1.0849814554657458,-0.48332660730873833,11632951.124395091,8978497.0,2054950.0,7105584.0,4721006.81741882,1498379.6723507992,2538907.259218398,0.08552387437879941,0.09114767645157217,0.05857553301783931,0.10066988281832823,0.0835191993542192,0.09255171411191748,0.10260186924468895,0.06454364950323081,0.08033620389534372,0.0907230220093424,0.06872133104300486,0.08108604417171342,4.536128265699239,0.33522243724357337,0.5971355271413682,0.06779661016949153,0.4578627414736241,0.14129637067377177,0.004252481762728574,2225.2600597083765,344.223159205381,0.04618802153517235,Catherine,REC_20260519_154549.csv
right,54,concrete,56.16,0.9920000000000044,1.0,15812.0,0.8673383631841032,37578.71249790232,355.46875,0.09194738559443344,0.23016972635954278,0.526671285071008,0.13006664166402215,0.4464342382367366,0.2913455790883669,5774.0,4401.650793650793,-76.89999999999998,551.6190476190476,0.12532094740789892,0.41935483870967744,0.0,0.41935483870967744,1.1240651612457075,-0.41515322690381895,11724707.75233336,9054244.0,2667037.0,6955311.0,4846508.630556127,1445023.6942502332,2347012.640210361,0.08976790814413065,0.08700559674580967,0.05725124772812509,0.10219470328592448,0.08048567636961602,0.09443787323659235,0.10391844329688718,0.06332400542365059,0.08231038859879411,0.09083532873669331,0.06674263624037158,0.08172619219340507,5.1085454867213125,0.3722391936409417,0.6685248802946152,0.0967741935483871,0.5013813255288352,0.1873573433895596,0.004549053396379483,2094.637518362864,141.07638782064365,0.04026578365477936,Catherine,REC_20260519_154549.csv
right,55,concrete,57.168,0.9759999999999991,0.01639344262295082,16534.0,0.9323214352143275,35709.80691630802,691.40625,0.1788427170353266,0.23330457290767903,0.5199309749784297,0.1359646273235878,0.4501822775672261,0.3020212791544565,5795.0,4468.548387096775,-79.30000000000001,586.516129032258,0.13125428622992238,5.0,-1.4833333333333334,3.5166666666666666,1.1589297269478,-0.2684251900899035,11573468.358597694,8795237.0,2401922.0,7128797.0,4747814.007027092,1464370.3145009323,2300058.994675547,0.08452264934127413,0.09011369788846778,0.05403356794802382,0.10094567767550983,0.08485832882151235,0.09305901461829993,0.10150875293268363,0.06714672441797509,0.0812055585634362,0.08943512001443782,0.0688179029056127,0.08435300487276665,5.402528614661493,0.3873429653381841,0.672396297366155,0.08196721311475409,0.4789301726321203,0.21836876726997362,0.004168157517165311,1609.101094814534,169.4760374762334,0.024440403706433415,Catherine,REC_20260519_154549.csv
right,56,concrete,58.16,0.9760000000000062,1.0,15462.0,0.8358368739727756,36314.215150544005,348.95833333333337,0.09026336754325336,0.22246998284734135,0.5085763293310464,0.13275744073621062,0.44775103384006054,0.29649834551485477,5830.0,4430.709677419355,-85.80000000000001,567.491935483871,0.128081498631254,0.4098360655737705,0.0,0.4098360655737705,1.0048889793128009,-0.6380626897927066,11174475.49856377,8998044.0,1935221.0,6337115.0,4711274.9999021,1789554.2778875348,2194560.5941677587,0.08270720484594327,0.08884472013512726,0.059671500961034414,0.10158570679713437,0.08261983808026092,0.09379550352379287,0.1044797309103617,0.06358116372531888,0.08090526530374512,0.09239035470906867,0.06917627701089171,0.08024273399732075,5.19499104039362,0.35019902776594936,0.6620945028502756,0.08196721311475409,0.4785359949633019,0.2977442964118612,0.004066779958518197,546.6516258093513,195.8600542312302,0.009237604307030259,Catherine,REC_20260519_154549.csv
right,57,concrete,59.152,0.9919999999999973,0.04838709677419355,17697.0,1.0369963836508247,34895.558628570485,515.625,0.1333742296534639,0.21952037564984067,0.499916149589133,0.13895898149077407,0.4420099212891941,0.3143797792714845,5963.0,4428.507936507936,-21.69999999999999,594.8174603174604,0.1343155457425913,7.0,-0.1016949152542373,6.898305084745763,0.8423847845188199,-1.0068995451921723,11472730.550121928,8917410.0,2728124.0,6682865.0,4392915.496462424,1375327.857158699,2258016.2776359012,0.08104775695708899,0.09035613413812385,0.060230254197192794,0.09897991369051885,0.08291875152331933,0.09068947225049821,0.10549255186454287,0.06777516523534388,0.07906564968673387,0.09426658446716082,0.07118381625543019,0.07799394973404637,5.189627482281599,0.33233245820348034,0.6623525307316025,0.0967741935483871,0.5203824643325584,0.16932888733050752,0.004086532780256369,1117.8087194745574,171.24417326276117,0.00923760430702614,Catherine,REC_20260519_154549.csv
right,58,concrete,60.16,0.9920000000000044,0.016129032258064516,18659.0,1.1235804768545308,36301.170008692556,500.0,0.12933258633063166,0.22728050658908094,0.5149751839808318,0.13108945328067825,0.4523785370095286,0.28977823339538966,5843.0,4381.111111111111,-120.89999999999998,553.3730158730159,0.1263088293902395,1.0,-0.26229508196721313,0.7377049180327868,1.0966549220105422,-0.46823155434174835,11668336.01134549,9023701.0,3187494.0,6675535.0,4697091.545368023,1570842.4954559326,2349303.1873390316,0.08386290351798847,0.0892250280786928,0.05666461360095648,0.10303249882250644,0.08280497083439005,0.09440599978261656,0.10405420093474874,0.06339987681605738,0.08291003949132278,0.09043512916198689,0.06768957646462084,0.08151516249411253,5.220488257520071,0.3194049861639057,0.6616193343900642,0.0967741935483871,0.5179511776269834,0.11552348797864068,0.0039525281652397996,1640.197041008598,92.04663987369028,0.009237604307026389,Catherine,REC_20260519_154549.csv
right,59,concrete,61.168,0.9759999999999991,0.0,16898.0,0.9650829839941082,35417.61249717434,898.4375,0.23239449106285376,0.2170415366934822,0.49564931866688555,0.12464896952347045,0.46139845455767436,0.27015471831804455,6091.0,4439.693548387097,-52.30000000000001,532.6209677419355,0.1199679576837983,0.0,-1.098360655737705,-1.098360655737705,1.3298003038905504,0.1644579928449481,11856781.643818527,9065240.0,2489886.0,7225314.0,4750660.916150183,1562815.0936563243,2339195.8697700407,0.0875786980356825,0.09401985751704746,0.05429029175945739,0.10323656456962664,0.08661234246769431,0.09467741525315973,0.09961091473183634,0.06056433712004243,0.08285227475014623,0.08648155750360567,0.06408463240342802,0.08599111388827331,5.389354797282818,0.39919651394424377,0.6669608814548651,0.08196721311475409,0.47013250500954373,0.1840453172845476,0.0042539601694227235,881.7563911497151,225.66272480093645,0.009237604307030507,Catherine,REC_20260519_154549.csv
right,60,concrete,62.16,0.9760000000000062,0.0,15453.0,0.83502683567877,32636.675872398526,645.3125,0.16691986923297147,0.2114065897307242,0.49790934938953,0.14146543836839318,0.43974263521097023,0.32170052899339646,5979.0,4354.306451612903,10.699999999999989,595.7096774193549,0.1368093137309375,0.0,-0.22950819672131148,-0.22950819672131148,0.7911797058544604,-1.1438903214126588,11033970.469313256,8510574.0,2092824.0,6703635.0,4534572.930827673,1647198.8972604445,2246632.6908252644,0.08371763956335404,0.0892183118677468,0.06035922909096297,0.09846388632684736,0.08162849533461497,0.09153340963895587,0.10365711364722355,0.06803424122207528,0.07889853204280523,0.09324102575499968,0.07343119714631788,0.07781691836409635,4.898802653111356,0.3080674261968926,0.6295941661931885,0.08196721311475409,0.4555460500220369,0.23251372638765422,0.002833231565147127,1605.5934520710275,201.63516132175423,0.009237604307030259,Catherine,REC_20260519_154549.csv
right,61,concrete,63.152,0.9759999999999991,1.0,18300.0,1.0912689493491976,35096.05645938016,449.21875,0.11619724553142688,0.21338983050847457,0.5030508474576271,0.1434855567101538,0.4381602476307277,0.3274727853244366,5900.0,4392.596774193548,54.80000000000001,610.2177419354839,0.13891958977899033,0.5081967213114754,0.0,0.5081967213114754,0.6884232391522631,-1.3093494933031622,11171080.271843588,8651073.0,2781880.0,6497162.0,4645437.500360985,1371732.8920196355,2259933.28040118,0.08226084210603618,0.08810645477544696,0.05979268637480217,0.09927994683136215,0.07974194116934284,0.09157636933109595,0.10504110655391585,0.06959657194473105,0.07945553552347975,0.09383089582545412,0.07388898476542276,0.0774286647989102,5.400709071077637,0.3452664806904521,0.66548600633704,0.09836065573770492,0.4814649193649503,0.2753393337976521,0.0042316099663740996,1423.5541202684772,225.2119408341189,0.0,Catherine,REC_20260519_154549.csv
right,62,concrete,64.144,1.024000000000001,1.0,16487.0,0.9280912352345206,33001.71503119194,1125.0,0.2909983192439212,0.22201649553947148,0.5032822757111597,0.1441554932503325,0.43550532148208454,0.33100742089597435,5941.0,4384.261538461538,46.60000000000002,612.3615384615384,0.13967267533871155,1.296875,0.0,1.296875,0.7335249703092213,-1.2181149409830514,10650390.020031568,8447044.0,2073276.0,6146526.0,4546091.346660099,1381664.3948817574,2117410.241727835,0.0844559385494268,0.08720001965070866,0.06157689918835555,0.09874832003986286,0.07901690311849728,0.09161792004267011,0.10453826098246526,0.06959509013008068,0.07892215863034562,0.09383213382132594,0.0745604031202518,0.07593595272600946,4.987460103639936,0.35077683136098897,0.6626523722051033,0.09375,0.5110487921766873,0.17812217161160168,0.00324967062021719,1441.153126261521,347.6667835482883,0.027712812921099613,Catherine,REC_20260519_154549.csv
right,63,concrete,65.184,0.9759999999999991,0.0,16802.0,0.9564425755247155,35944.34045854785,403.47222222222223,0.10436421202513471,0.2237064592492391,0.5049036185322963,0.1257639429881829,0.45881565520797907,0.27410560550971724,5914.0,4409.951612903225,-74.80000000000001,533.2741935483871,0.12092518021922559,0.0,0.0,0.0,1.287150350840743,0.03474618895185699,11300372.898658212,8783020.0,2624277.0,6608340.0,4599955.786637104,1279206.8826250818,2277343.116785741,0.08628578325415026,0.09277404111668258,0.05678505725686406,0.10295994762578772,0.08577740228295973,0.09493923201556598,0.10093008115808455,0.06083016052403472,0.08236503216698304,0.08801574152302162,0.06493378246414817,0.08340373861171764,5.451981813042835,0.3331514688221956,0.6503684639383871,0.06557377049180328,0.539303074706287,0.11499366398972205,0.00475973678062762,968.6931058562168,404.0163727623388,0.02771281292110167,Catherine,REC_20260519_154549.csv
right,64,concrete,66.176,0.9599999999999937,0.0,14113.0,0.7144211341268301,34797.254446292165,363.0952380952381,0.09392009245438727,0.22814462739772534,0.5061958920387031,0.12831153322262237,0.45307409549754635,0.283202095413669,5891.0,4392.868852459016,-75.5,542.639344262295,0.12352732632993114,0.0,-2.066666666666667,-2.066666666666667,1.2300890629617802,-0.12739396621488375,11621425.062279454,8719490.0,2612059.0,7225314.0,4763457.459732976,1555060.7333065118,2381497.6176840174,0.08718302763420598,0.09018715130707369,0.05564159498441961,0.10221110965984365,0.08318996883921408,0.09409810982777603,0.10319258112066876,0.06294478756554028,0.08338775586363892,0.08844065456309594,0.06536674565708209,0.08415651297744109,5.215081945305186,0.3162443965040263,0.6276962912190053,0.08333333333333333,0.5135947403397433,0.34357157418308404,0.0034341167253366944,1470.0239227078396,428.70570736525843,0.033306655991460016,Catherine,REC_20260519_154549.csv
right,65,concrete,67.152,1.024000000000001,1.0,15845.0,0.8703085035954569,35163.197209582635,390.625,0.10104108307080599,0.21205136648007902,0.49127428383272964,0.15682306772391397,0.42566712140925783,0.36841715001298486,6074.0,4386.815384615385,25.399999999999977,668.7846153846153,0.15245333043420317,1.3125,0.0,1.3125,0.4488809811445622,-1.6534030617530475,11101185.016606156,8881980.0,1750739.0,6425080.0,4662490.298340245,1519617.8710500277,2213131.235077989,0.08053502979206925,0.08425596981163838,0.059513998239479844,0.09651297769890896,0.07681408977250011,0.08967430377038889,0.10652549773271656,0.07531308852049673,0.07840978035582147,0.09764924967472462,0.08150997920341724,0.07328603542783796,5.074892186163152,0.37708716798027175,0.6652152513872626,0.109375,0.4789438540369176,0.2710560770604853,0.003335301693262126,1362.9865492121855,20.628619910812372,0.033306655991460016,Catherine,REC_20260519_154549.csv
right,66,concrete,68.192,0.9920000000000044,1.0,17272.0,0.9987445753227839,35763.9486354625,403.57142857142856,0.10438987325258127,0.2269865577675685,0.5104645227156712,0.13800642853251494,0.4434125701418273,0.311237068647607,5877.0,4370.396825396825,-38.5,582.3095238095239,0.13323950823542233,0.6935483870967742,0.0,0.6935483870967742,0.8855041168855564,-0.9103269054415728,11253294.70425746,9017592.0,2067167.0,6406754.0,4737867.327401316,1388504.9318268688,2085954.4802888385,0.08439174097009099,0.08785661103746346,0.05747543901065975,0.1005466068607333,0.08058910055023881,0.09251275718669984,0.10567490511558647,0.06706375869395463,0.08190749450669185,0.09335536709826213,0.0709426698385603,0.07768354913105853,5.616470651848252,0.36801565854597607,0.6857938387324813,0.08064516129032258,0.5175813860440882,0.17355143243458931,0.004283642822007499,1581.9520641705121,20.67131586986604,0.032000000000002346,Catherine,REC_20260519_154549.csv
right,67,concrete,69.2,1.024000000000001,0.984375,17176.0,0.9901041668533913,35178.26250683794,382.8125,0.09902026140938987,0.2366637706342311,0.5416159860990443,0.1333898911145856,0.4434083308209526,0.30082856329638885,5755.0,4388.523076923077,-21.30000000000001,564.6,0.12865376120930822,0.31746031746031744,-2.0,-1.6825396825396826,1.0114743705926665,-0.6066875642276139,11678462.992862117,9381668.0,2802649.0,6365215.0,4947189.471029441,1279221.4668333058,2010738.2428441818,0.0831539610312213,0.08155188007880695,0.05669683860699587,0.10188814179643406,0.07631093691937711,0.09667874946538875,0.10877323367945763,0.06646707846340455,0.08697862256094568,0.09249651188063972,0.06692281265118105,0.08208123286614737,4.925495169712004,0.37920350740436337,0.6552890363645638,0.09375,0.48137005515597636,0.24308048563794193,0.004835103348817658,797.6116431781567,10.484737196170924,0.01847520861406432,Catherine,REC_20260519_154549.csv
right,68,concrete,70.24,0.9759999999999991,0.03278688524590164,14467.0,0.7462826403577157,33758.2742153683,547.9166666666667,0.1417269591873172,0.23019381162869773,0.5095205712342741,0.14284334771918616,0.4368198599050682,0.3270074482193971,5882.0,4342.677419354839,47.30000000000001,598.9112903225806,0.1379129123552439,5.5,-0.711864406779661,4.788135593220339,0.9463642098375835,-0.8012347067143897,11382132.8154624,8828224.0,1896125.0,6929655.0,4626043.574341793,1536591.0189542968,2262587.0112950415,0.08464749708445066,0.08961693024223201,0.06018288108272732,0.09742020308565401,0.08066972211286332,0.09018889788520536,0.10448066080833142,0.06834270518410673,0.07892410657911351,0.09397354092539907,0.07450064253507944,0.07705221247483714,5.440029428337477,0.4001807509501036,0.6734055679835097,0.08196721311475409,0.49651917650200406,0.16068430984219859,0.003419463215838441,1592.4782573084062,89.9313318842931,0.024440403706430015,Catherine,REC_20260519_154549.csv
right,69,concrete,71.232,0.9759999999999991,0.0,16458.0,0.925481111842725,34382.10476396115,410.7142857142857,0.10623748162873316,0.22699069286452947,0.5153395380903136,0.13128036513558344,0.4489865722198316,0.2923926310010884,5802.0,4385.467741935484,11.800000000000011,554.9758064516129,0.1265488287930445,0.0,-1.0,-1.0,1.1151114323978275,-0.41674369165215364,11541476.118591808,8987049.0,2690250.0,6723182.0,4764596.801315803,1411874.5759019593,2192075.9221372227,0.0853846465047683,0.08805107778991464,0.05693658306944858,0.1025454304723445,0.08115881264734331,0.09417467515511274,0.10203421123284749,0.06419295400130196,0.08305657615511643,0.0908683003615313,0.06708741113428147,0.08450932147598925,5.739264980333202,0.3846376513317021,0.6874108236250032,0.08196721311475409,0.4680683369373456,0.26165960919834463,0.0035450634359221102,1403.4651165359783,88.37645692881182,0.02771281292110165,Catherine,REC_20260519_154549.csv
right,70,concrete,72.224,0.9919999999999902,0.0967741935483871,17496.0,1.0189055284180337,35028.53359762581,729.1666666666666,0.18861002173217117,0.21250209485503604,0.49673202614379086,0.15006786970496094,0.4242910667194336,0.3536908539347407,5967.0,4291.603174603175,51.30000000000001,624.2301587301587,0.14545383935407272,2.8333333333333335,-0.42857142857142855,2.404761904761905,0.6392096283065901,-1.412987387540744,11772205.968710622,9111665.0,2910161.0,6862460.0,4693376.989304643,1420846.2363112425,2296506.4012481924,0.08348158641274396,0.08402898239826015,0.06234396440446645,0.09498799797315541,0.07516338660581201,0.08991348924255929,0.10665345025908843,0.07241900943518349,0.08019721049964677,0.09641936450284978,0.07764886026977745,0.07674269799645671,5.178513147373942,0.343942114800739,0.6624234210354415,0.08064516129032258,0.4957330449982762,0.1747965154331621,0.002977452352516547,1539.28370787628,159.73309757907677,0.009237604307024114,Catherine,REC_20260519_154549.csv
right,71,concrete,73.232,1.024000000000001,1.0,17209.0,0.993074307264745,35833.703394988355,1562.5,0.40416433228322396,0.22126782339804157,0.5078165263700395,0.14191371735672695,0.4345663095496682,0.32656401160898724,5821.0,4391.292307692308,44.39999999999998,603.6307692307693,0.1374608490929602,0.53125,0.0,0.53125,0.7488700636004403,-1.2009831759218965,11636623.068266928,8879537.0,2568077.0,7068932.0,4625997.89080645,1598999.0786030402,2236380.826643087,0.08418058115010825,0.08620206422500473,0.05937975153625706,0.09819082519952071,0.07870821275671433,0.09172698417147221,0.10595444130692208,0.06774946222244022,0.0797382231969562,0.09517786948996965,0.07416425513428673,0.07882732961034775,5.624640223308059,0.35086844755305724,0.6674112560033895,0.109375,0.4998154235876312,0.2955517898798418,0.0022471994682558257,536.0059079276664,594.7641962732426,0.024440403706431607,Catherine,REC_20260519_154549.csv
right,72,concrete,74.272,0.9279999999999973,1.0,16549.0,0.9336714990376701,36355.49085076421,553.8194444444445,0.14325380222038717,0.21766507828454731,0.5076582709326072,0.13638346581630487,0.44803051419350104,0.30440664529678113,5876.0,4390.28813559322,3.8000000000000114,577.1016949152543,0.13144961722137075,0.034482758620689655,0.0,0.034482758620689655,0.9995330833631153,-0.637220565166357,11702151.538460866,8924741.0,2587625.0,7112914.0,4779368.746372991,1288901.305820614,2341045.2790144095,0.08277901531500577,0.08921463785628525,0.057484354912808316,0.09986217652985982,0.08231960374787185,0.09461561922116227,0.10316299073069603,0.06681928910885739,0.08201847683832188,0.09053496353661973,0.0695641767074475,0.08162469549506422,4.762659480504797,0.3493806889068808,0.6111815092861423,0.06896551724137931,0.4711012265267617,0.1304433106248276,0.0034077026496703,485.58864621545865,538.922931401352,0.04888080741286222,Catherine,REC_20260519_154549.csv
right,73,concrete,75.216,1.024000000000001,0.0625,15764.0,0.8630181589494068,33169.76094276231,695.3125,0.17985312786603466,0.21600542556798916,0.503560528992879,0.1443053712952094,0.4369655967604137,0.330244239741045,5898.0,4429.815384615385,-58.10000000000002,620.0846153846154,0.13997978731532484,4.25,-0.6666666666666666,3.5833333333333335,0.7604512219307833,-1.178070600717892,11232026.489007715,8598539.0,2142915.0,6901555.0,4659015.07325276,1365822.4877332235,2330644.479514756,0.08289631795733804,0.08658113899520035,0.05826948857045615,0.09769464259667011,0.0793156860157395,0.09239836353659468,0.10354659683681904,0.07040751828518639,0.08097576561620905,0.09367294348088824,0.073897853010023,0.08034368509887545,5.4923449534314255,0.39667174312985526,0.6953231852980928,0.09375,0.4783526697253685,0.24705714033030543,0.0032882980731032897,723.4005345127644,546.1182576577106,0.055425625842205464,Catherine,REC_20260519_154549.csv
right,74,concrete,76.256,0.9759999999999991,1.0,16214.0,0.9035200736496851,35921.24832184984,609.375,0.15762408959045734,0.21686340640809443,0.5048903878583474,0.1315503275391101,0.4515856821215659,0.2913075696311189,5930.0,4434.3387096774195,-54.5,562.8709677419355,0.12693459038515398,0.5573770491803278,0.0,0.5573770491803278,1.0726198743278386,-0.46459251408398483,11601525.509308249,8894197.0,2152689.0,7131240.0,4777465.779177789,1397921.257227151,2428206.0864978284,0.08342153792433683,0.08961950176227317,0.058262314997690315,0.1002695241316849,0.08325785930185611,0.09487176689254316,0.10202997864903302,0.06386739849197429,0.08356703003320858,0.08993594709906921,0.0676829290471358,0.08321421166919458,4.833395578860928,0.363474470011646,0.6197339278830296,0.08196721311475409,0.49275498773381476,0.1266478326638927,0.003524891524356366,393.90142590926,71.2880990883501,0.04800000000000086,Catherine,REC_20260519_154549.csv
right,75,concrete,77.248,0.9599999999999937,0.0,16975.0,0.9720133116206002,36659.05849854849,2208.3333333333335,0.5712189229602899,0.22719328905976932,0.5141558895491087,0.13283124525081322,0.4430078869253718,0.2998394592309397,5722.0,4379.524590163935,-111.80000000000001,560.6311475409836,0.1280118734348739,0.0,-0.4166666666666667,-0.4166666666666667,1.0697216000046676,-0.5461923022952182,12198075.198819894,9255830.0,2373822.0,7582059.0,4862876.094374611,1407538.8144333665,2481869.451068581,0.08660270783190031,0.08814865001441131,0.05920247350749202,0.09923601259212954,0.07906764339268803,0.0935613192539051,0.10330112932386552,0.06457022433006053,0.08299426167223779,0.09182821700087217,0.06826102092075269,0.08322634015968497,5.347637346083922,0.3905640583517046,0.6625115927190708,0.08333333333333333,0.48533456465740177,0.2186865934272321,0.004923685299515214,612.119541701905,899.3780302467419,0.03330665599146006,Catherine,REC_20260519_154549.csv
right,76,concrete,78.224,1.0079999999999956,1.0,15510.0,0.840157078207472,35511.39679032634,388.54166666666663,0.10050219729442834,0.23983388129434158,0.5160062294514622,0.13307621237188716,0.44673871783302177,0.2978837675349173,5779.0,4363.21875,62.39999999999998,559.7578125,0.12829010979566405,1.5714285714285714,0.0,1.5714285714285714,1.0450752790140532,-0.5481883626391175,11733905.71800004,8897863.0,2949257.0,7057936.0,4704615.948412957,1450820.2341858824,2412323.426353453,0.0840441761027911,0.08805139554371415,0.05629086898290396,0.10033805318607966,0.08072452246406395,0.09364144875844238,0.10521547309540692,0.06472429327546321,0.08398329788072166,0.09286435615908553,0.06835191909642394,0.08177019545490356,4.999881151335136,0.36251970298274866,0.6569336029135652,0.09523809523809523,0.4861172382440827,0.1726610589558087,0.004592953630609038,732.6847889781901,993.0656929358255,0.024440403706429765,Catherine,REC_20260519_154549.csv
right,77,concrete,79.248,0.9759999999999991,0.0,17047.0,0.9784936179726448,33098.42324039017,659.375,0.1705573482235205,0.23492333901192505,0.5127768313458262,0.13870621393101598,0.44173414455926874,0.31400383157913847,5870.0,4326.387096774193,-46.0,579.1693548387096,0.1338690556077484,0.0,-2.6721311475409837,-2.6721311475409837,0.9944138287598775,-0.6769194911488854,13054755.553595824,9898460.0,3674965.0,7677354.0,4941750.096483998,1398508.0072744493,2283322.999067578,0.08070877883654692,0.08242741466469826,0.05733384034954295,0.09983000044736724,0.07800220701173594,0.09626970279902773,0.10740169104818147,0.0686485035565696,0.08520481963643955,0.09279515053907753,0.0700577103744464,0.08132018073636649,5.344466869637815,0.3686813191147453,0.6607313880936995,0.08196721311475409,0.4721012947133765,0.1707263860482967,0.003084698364492058,867.3501791856348,981.8574508651674,0.024440403706429765,Catherine,REC_20260519_154549.csv
right,78,concrete,80.24,0.9920000000000044,0.0,15663.0,0.8539277292055666,34030.78362306693,371.09375,0.09598902891726568,0.2136371423676546,0.5011135857461024,0.1292706645056726,0.4503079416531605,0.28707169593996473,5837.0,4407.142857142857,63.5,550.1031746031746,0.124820817576085,0.0,-0.3709677419354839,-0.3709677419354839,1.001125083243123,-0.6962920217737283,11546112.501529595,8851437.0,2635272.0,6929655.0,4698999.164725857,1493803.563968424,2312719.080723778,0.08557536466774718,0.09104267963263102,0.057698541329011345,0.09974428236989015,0.08508553934810013,0.09303799747884027,0.10079596614442644,0.06119214838825861,0.0813974428236989,0.09228885287232128,0.06807851611741401,0.08406266882766072,5.118121029803014,0.3565974792213154,0.6570644786046803,0.0967741935483871,0.45886516797096405,0.2380083033165581,0.0042187660778836775,846.6831363227595,161.63807479572725,0.0159999999999958,Catherine,REC_20260519_154549.csv
right,79,concrete,81.248,1.024000000000001,0.0625,14946.0,0.7893946784497897,33926.90203953199,750.0,0.1939988794959475,0.21491074553727688,0.5126006300315016,0.12951116475558236,0.4515460257730129,0.28681719550914614,5714.0,4333.692307692308,-66.39999999999998,542.4384615384615,0.1251677375838688,0.25,-0.13333333333333333,0.11666666666666667,1.0491176328028688,-0.5988926821895149,11238737.797670342,8718268.0,2508212.0,6633996.0,4530446.4217519285,1279986.8193009277,2200977.377421866,0.08525329262664631,0.09149774574887287,0.056448578224289114,0.1015442507721254,0.08354574177287089,0.09352834676417339,0.10192055096027548,0.06169193084596543,0.08142994071497035,0.09230714615357308,0.06781923390961696,0.08301324150662076,5.110470347924947,0.35024154200808727,0.6700341509062383,0.09375,0.5103644085052157,0.17831945635368654,0.00424393291001218,1068.0001560549233,197.8589211263191,0.024440403706430067,Catherine,REC_20260519_154549.csv
right,80,concrete,82.288,1.0400000000000063,1.0,15305.0,0.8217062059551229,33330.702392838946,466.6666666666667,0.12071041390858955,0.21406623420962786,0.50307272106521,0.12644873496531245,0.4477771240130814,0.28239212810155667,5858.0,4429.151515151515,-64.80000000000001,541.189393939394,0.12218805161396261,0.26153846153846155,0.0,0.26153846153846155,1.0793776997785227,-0.5176321309791478,11277722.841845866,8608312.0,1901012.0,7033502.0,4628598.294474963,1293790.158653869,2241293.523129683,0.08875425897292047,0.09068020415703124,0.06041241909661882,0.0999199518342661,0.08265144155115557,0.0939437062984907,0.10148670653110932,0.06009769981253678,0.08058182017213777,0.09165514976532887,0.06635103515277568,0.08346560665562869,5.107442131482818,0.3627451154349806,0.6565558555222657,0.09230769230769231,0.4591151800816507,0.18445544730599747,0.003231622515111975,358.50011622498613,197.0540985224678,0.02444040370643048,Catherine,REC_20260519_154549.csv
right,81,concrete,83.344,1.0080000000000098,1.0,14687.0,0.7660835764334073,34708.086910689846,546.875,0.14145751629912837,0.22435564781179726,0.5108112783255492,0.13459948099352667,0.4478605241395044,0.3005388368445075,5781.0,4383.375,-17.69999999999999,570.0546875,0.13004926283970686,0.6507936507936508,0.0,0.6507936507936508,1.2400213349474727,0.1817805450947616,12058294.540259747,8918632.0,3166725.0,7472103.0,4722755.368147447,1531883.0031857619,2238767.263744495,0.08528317221319189,0.09140003422020704,0.0601669660934782,0.09858984230187925,0.0838038611800268,0.09260487067613425,0.10123477913708044,0.06668662845410214,0.08146191576125703,0.08855904411555023,0.06791285253942453,0.08229603330766817,4.334183225294573,0.23809449080731449,0.5720274644970879,0.07936507936507936,0.4792015942743961,0.1074723714192325,0.003892865714087233,310.34550638493454,146.0427563757099,0.015999999999996788,Catherine,REC_20260519_154549.csv
