sole_id,timestamp,accel_x,accel_y,accel_z,gyro_x,gyro_y,gyro_z,magn_x,magn_y,magn_z,pressure_01,pressure_02,pressure_03,pressure_04,pressure_05,pressure_06,pressure_07,pressure_08,pressure_09,pressure_10,pressure_11,pressure_12,corrupt,grass
1,1775498501808,-1756,837,9916,-36651,4886,-24434,0,0,0,349,347,305,376,255,365,535,454,331,430,448,229,0,
2,1775498501808,5943,-268,10734,2212553,-259006,-2175901,0,0,0,277,438,244,344,372,378,353,330,279,162,164,224,0,
1,1775498501824,-1722,894,9916,-12217,-15882,-8552,0,0,0,352,350,317,381,245,372,543,450,338,445,445,237,0,
2,1775498501824,5953,1971,9408,1848478,-276111,-2592512,0,0,0,266,438,247,342,370,379,356,332,281,161,164,219,0,
1,1775498501840,-1799,894,9930,20769,-26878,1221,0,0,0,353,358,326,378,262,376,548,448,338,452,444,237,0,
2,1775498501840,5250,6446,8485,919963,-631634,-2741563,0,0,0,262,436,245,340,370,375,357,334,278,160,164,217,0,
1,1775498501856,-1847,842,9920,51312,-19547,10995,0,0,0,355,365,339,374,281,378,546,446,337,454,446,238,0,
2,1775498501856,5211,9375,7800,-243124,-758694,-2455678,0,0,0,262,434,245,340,369,372,357,336,274,161,165,215,0,
1,1775498501872,-1794,804,9887,70860,-6108,23212,0,0,0,357,368,345,375,278,377,546,445,339,454,450,238,0,
2,1775498501872,6188,9614,6106,-1106887,-395840,-1649336,0,0,0,264,434,247,341,368,371,355,336,272,162,166,214,0,
1,1775498501888,-1727,804,9839,86742,-3665,31764,0,0,0,360,370,340,377,269,372,542,440,340,453,455,239,0,
2,1775498501888,6915,9116,4661,-1413542,272445,-664621,0,0,0,264,434,248,340,368,370,354,336,271,161,166,210,0,
1,1775498501904,-1689,775,9782,103847,-14660,35430,0,0,0,365,368,337,386,253,378,527,423,347,450,452,239,0,
2,1775498501904,6216,9016,4996,-1502728,1044579,243124,0,0,0,263,434,248,338,369,370,357,338,271,158,166,207,0,
1,1775498501920,-1684,722,9719,111177,-28099,35430,0,0,0,359,365,342,378,252,389,548,436,334,447,450,241,0,
2,1775498501920,5092,8915,6054,-1695761,1543045,825889,0,0,0,262,437,251,337,370,370,356,340,272,154,165,206,0,
1,1775498501936,-1694,689,9672,106290,-32986,34208,0,0,0,356,365,345,376,248,394,550,442,337,452,458,255,0,
2,1775498501936,4000,8619,7250,-1932777,1820378,1108109,0,0,0,260,435,249,337,369,372,354,340,273,153,166,207,0,
1,1775498501952,-1698,689,9657,97738,-26878,34208,0,0,0,354,364,338,380,255,388,550,437,337,452,458,255,0,
2,1775498501952,2737,8274,8667,-2180788,1942551,1219287,0,0,0,260,435,248,337,370,373,354,338,270,155,166,207,0,
1,1775498501968,-1679,693,9667,94073,-21991,32986,0,0,0,363,360,340,384,252,386,553,431,332,450,444,274,0,
2,1775498501968,1526,7733,10150,-2472782,1919338,1323134,0,0,0,262,433,248,337,370,374,354,337,274,153,165,206,0,
1,1775498501984,-1660,689,9700,98960,-28099,32986,0,0,0,347,360,325,379,266,400,549,436,345,450,447,281,0,
2,1775498501984,938,7035,11150,-2717128,1810604,1434311,0,0,0,259,434,250,339,374,377,354,340,277,152,165,206,0,
1,1775498502000,-1660,689,9724,111177,-40317,31764,0,0,0,352,363,333,380,257,399,549,432,341,448,441,290,0,
2,1775498502000,531,6097,12242,-2927266,1678657,1605353,0,0,0,257,435,250,336,371,376,354,339,277,152,166,207,0,
1,1775498502016,-1684,689,9729,122173,-45204,30543,0,0,0,353,361,342,378,258,400,538,424,341,440,434,291,0,
2,1775498502016,445,4996,13299,-3040887,1522276,1800830,0,0,0,257,435,252,337,372,380,353,338,280,154,164,208,0,
1,1775498502032,-1713,665,9734,123394,-36651,29321,0,0,0,364,369,346,389,263,399,546,423,343,439,429,294,0,
2,1775498502032,928,3737,14132,-3054326,1370781,1943773,0,0,0,258,434,253,337,373,380,353,337,280,155,165,212,0,
1,1775498502048,-1732,650,9748,127059,-25656,31764,0,0,0,369,373,344,393,261,398,545,425,347,440,425,298,0,
2,1775498502048,1823,2354,14759,-3050661,1262047,1932777,0,0,0,258,434,253,337,371,379,356,338,282,155,165,213,0,
1,1775498502064,-1727,650,9801,142942,-15882,37873,0,0,0,364,377,340,386,260,403,536,429,354,441,425,305,0,
2,1775498502064,2388,1220,15051,-3082425,1180191,1791056,0,0,0,257,434,252,337,371,379,357,340,283,155,164,215,0,
1,1775498502080,-1722,641,9839,161268,-14660,45204,0,0,0,364,383,347,384,259,413,544,437,362,441,424,315,0,
2,1775498502080,2665,-124,14845,-3066543,1037249,1518610,0,0,0,258,436,253,337,371,380,357,338,282,155,166,217,0,
1,1775498502096,-1742,612,9830,171042,-9773,51312,0,0,0,372,375,369,385,245,409,549,431,361,431,411,316,0,
2,1775498502096,2833,-1517,14304,-2927266,906524,1219287,0,0,0,259,437,255,338,372,382,359,339,285,156,167,218,0,
1,1775498502112,-1732,555,9801,172263,7330,53756,0,0,0,379,368,380,373,236,394,534,405,350,419,402,316,0,
2,1775498502112,2517,-2957,13591,-2652376,818559,919963,0,0,0,258,435,254,340,373,383,361,342,288,158,167,219,0,
1,1775498502128,-1703,516,9796,173485,19547,57421,0,0,0,385,381,358,389,248,408,547,391,357,421,397,327,0,
2,1775498502128,1296,-4489,12840,-2240653,724486,828333,0,0,0,257,434,252,338,371,382,361,341,287,158,167,220,0,
1,1775498502144,-1684,502,9806,180816,24434,59864,0,0,0,381,394,358,410,262,412,550,386,358,413,384,331,0,
2,1775498502144,229,-6288,11859,-1729970,607200,998153,0,0,0,259,436,253,337,370,382,360,340,287,154,166,218,0,
1,1775498502160,-1679,492,9830,194255,25656,62308,0,0,0,365,398,356,387,276,421,535,384,359,399,390,342,0,
2,1775498502160,-344,-8231,10710,-1110553,601091,1282817,0,0,0,259,436,252,339,371,382,358,339,285,154,165,217,0,
1,1775498502176,-1679,473,9834,211359,31764,67195,0,0,0,366,411,356,376,301,426,512,378,370,398,393,357,0,
2,1775498502176,-1507,-9609,10193,-472809,623082,1453859,0,0,0,259,436,251,342,373,384,359,340,285,158,166,220,0,
1,1775498502192,-1641,430,9815,229685,43982,73303,0,0,0,374,427,359,381,280,427,516,370,375,393,368,367,0,
2,1775498502192,-2914,-9825,10284,81855,445931,1459967,0,0,0,258,435,251,340,373,384,363,343,289,162,168,218,0,
1,1775498502208,-1612,402,9806,252898,48869,76969,0,0,0,363,436,363,384,288,439,518,361,383,385,354,386,0,
2,1775498502208,-3211,-8944,10361,590095,58643,1335351,0,0,0,258,437,254,340,375,384,359,340,286,156,164,218,0,
1,1775498502224,-1631,411,9868,294437,50090,84299,0,0,0,365,436,377,393,287,439,510,348,381,376,349,398,0,
2,1775498502224,-2316,-7623,10457,1066570,-323758,1123992,0,0,0,255,437,250,343,375,385,363,353,286,157,172,210,0,
1,1775498502240,-1631,411,10021,381179,35430,103847,0,0,0,377,452,371,400,297,443,511,326,378,377,332,413,0,
2,1775498502240,-306,-5312,11026,1450194,-618195,856433,0,0,0,258,432,243,347,377,383,378,385,285,166,191,205,0,
1,1775498502256,-1608,406,10236,497244,2443,127059,0,0,0,377,476,377,406,318,457,499,307,392,366,323,429,0,
2,1775498502256,2794,1052,11016,1843591,-943175,469144,0,0,0,246,426,231,341,377,376,390,414,275,165,199,200,0,
1,1775498502272,-1636,378,10442,640186,-29321,155159,0,0,0,378,489,374,414,332,472,486,290,404,344,292,441,0,
2,1775498502272,4809,10667,9614,2078163,-1374446,8552,0,0,0,247,424,232,339,374,374,405,434,270,176,215,201,0,
1,1775498502288,-1780,296,10744,823446,-53756,189368,0,0,0,388,487,354,423,335,477,477,275,401,333,263,452,0,
2,1775498502288,3828,9523,8619,2317622,-1715309,-63529,0,0,0,249,424,234,339,374,374,408,445,267,179,224,200,0,
1,1775498502304,-1919,143,11237,1083674,-61086,238237,0,0,0,391,483,330,425,346,476,453,270,403,324,266,465,0,
2,1775498502304,2211,3776,9964,2840523,-1518610,191811,0,0,0,251,424,235,341,373,378,414,454,271,182,233,203,0,
1,1775498502320,-1904,47,11797,1373225,-51312,302989,0,0,0,383,477,279,414,364,482,426,270,408,300,243,478,0,
2,1775498502320,215,1043,12859,3071430,-863763,431270,0,0,0,251,422,238,339,375,375,415,458,273,181,234,200,0,
1,1775498502336,-1713,-67,12261,1684766,-58643,371406,0,0,0,384,453,239,427,361,478,398,253,400,304,232,490,0,
2,1775498502336,-1306,1316,14194,2713463,-421497,263893,0,0,0,254,425,246,340,376,373,419,460,272,182,235,196,0,
1,1775498502352,-1555,-148,12725,2026850,-39095,392175,0,0,0,394,424,249,422,363,483,370,237,413,301,223,524,0,
2,1775498502352,-875,2234,13204,2188119,-274889,-135612,0,0,0,259,431,256,344,376,379,429,464,274,186,240,199,0,
1,1775498502368,-1866,-95,13050,2346944,21991,403171,0,0,0,415,424,224,423,357,490,318,233,404,283,223,536,0,
2,1775498502368,569,2187,11777,1885130,-84299,-277332,0,0,0,263,436,263,347,375,380,440,467,276,190,243,202,0,
1,1775498502384,-2426,-272,13180,2669481,113620,463035,0,0,0,399,438,227,397,392,476,282,240,405,259,223,530,0,
2,1775498502384,1421,1947,10471,1683544,56199,-239459,0,0,0,270,442,270,351,374,376,458,471,269,198,249,202,0,
1,1775498502400,-3038,-684,13481,3048217,228463,615752,0,0,0,408,424,234,390,380,484,257,236,399,228,212,519,0,
2,1775498502400,1316,1789,9509,1539380,47647,-156381,0,0,0,271,442,278,352,373,381,468,475,273,216,267,211,0,
1,1775498502416,-3871,-875,14156,3419623,389732,812450,0,0,0,392,401,240,390,358,475,255,212,386,210,184,483,0,
2,1775498502416,1167,1454,9557,1345125,-50090,-156381,0,0,0,287,442,287,366,374,387,484,478,275,268,311,223,0,
1,1775498502432,-4867,-1139,15276,3784921,637743,1060462,0,0,0,380,392,237,388,348,445,254,200,376,209,169,429,0,
2,1775498502432,1569,722,10543,962723,-179594,-146607,0,0,0,307,444,289,368,372,392,494,486,276,245,290,249,0,
1,1775498502448,-5690,-1474,16453,4168544,875980,1361007,0,0,0,366,381,253,372,343,424,246,201,367,198,171,373,0,
2,1775498502448,1751,52,11452,371406,-287106,-48869,0,0,0,327,452,307,373,365,400,497,489,278,318,366,234,0,
1,1775498502464,-5647,-1751,17324,4549724,955393,1672549,0,0,0,343,382,240,354,329,405,243,205,343,188,175,322,0,
2,1775498502464,1201,392,11189,-10995,-272445,28099,0,0,0,350,456,305,401,372,399,507,504,287,244,291,253,0,
1,1775498502480,-4388,-1809,18243,5002986,904080,1936442,0,0,0,310,371,228,328,299,377,252,219,314,186,191,272,0,
2,1775498502480,760,1038,10605,-62308,-151494,20769,0,0,0,342,457,303,387,375,405,508,509,288,236,286,266,0,
1,1775498502496,-3637,-1426,19200,5396383,1044579,1991420,0,0,0,276,337,235,298,258,344,271,240,294,188,217,215,0,
2,1775498502496,880,1296,10370,14660,-6108,-2443,0,0,0,353,458,316,392,380,407,510,509,291,241,292,279,0,
1,1775498502512,-5953,-1363,18123,5525886,1495398,1942551,0,0,0,258,306,237,279,218,309,296,255,280,194,240,164,0,
2,1775498502512,1115,1349,10212,102625,76969,-6108,0,0,0,354,459,316,393,383,410,516,511,298,244,286,290,0,
1,1775498502528,-6628,-603,15137,5347514,1765400,1993864,0,0,0,263,290,243,275,188,289,313,269,273,198,259,147,0,
2,1775498502528,1172,1363,10040,184481,102625,3665,0,0,0,359,463,319,396,384,422,523,511,306,245,279,308,0,
1,1775498502544,-6609,2775,11744,4679227,2042733,1590693,0,0,0,267,296,240,293,194,292,320,276,275,203,266,144,0,
2,1775498502544,1115,1354,10040,285884,139277,3665,0,0,0,366,469,326,400,386,430,521,506,311,247,272,327,0,
1,1775498502560,-8289,8245,9667,3043330,1707979,-2443,0,0,0,275,301,244,302,194,287,321,277,267,209,266,139,0,
2,1775498502560,1139,1249,10112,360410,177150,-8552,0,0,0,372,472,329,402,388,433,523,503,315,250,268,339,0,
1,1775498502576,-8686,10897,8920,690277,758694,-2191784,0,0,0,274,303,238,302,193,287,327,278,269,209,265,141,0,
2,1775498502576,1239,1105,10122,392175,196698,-32986,0,0,0,376,471,329,407,390,439,530,501,320,249,262,349,0,
1,1775498502592,-7628,7977,6800,-846659,326202,-3232698,0,0,0,268,298,236,303,198,292,328,278,271,209,265,144,0,
2,1775498502592,1340,1048,10117,409279,206472,-64751,0,0,0,377,472,332,410,392,445,533,492,326,246,251,357,0,
1,1775498502608,-7154,4757,4527,-1291369,73303,-2863736,0,0,0,253,301,243,276,199,294,327,283,276,199,265,146,0,
2,1775498502608,1373,1033,10083,432492,210137,-97738,0,0,0,378,472,334,409,391,446,533,480,332,248,242,367,0,
1,1775498502624,-5733,4192,4005,-1331686,-289550,-1780061,0,0,0,244,304,248,265,200,290,317,283,275,199,273,144,0,
2,1775498502624,1344,981,10007,467922,215024,-122173,0,0,0,376,468,324,419,398,457,531,477,346,250,235,377,0,
1,1775498502640,-2967,5455,5068,-1918116,-274889,-1095892,0,0,0,239,305,243,263,201,291,321,287,275,200,272,144,0,
2,1775498502640,1387,880,9944,493579,218689,-130725,0,0,0,377,470,321,419,396,460,528,465,364,248,227,384,0,
1,1775498502656,-2081,5857,5910,-2752558,112399,-940732,0,0,0,241,305,241,267,199,292,323,284,274,205,273,145,0,
2,1775498502656,1517,756,9916,487470,201585,-125838,0,0,0,384,472,331,424,398,468,529,454,354,250,222,398,0,
1,1775498502672,-3048,5053,6293,-3424510,207694,-917519,0,0,0,244,304,242,269,199,293,326,283,274,209,275,147,0,
2,1775498502672,1598,670,9887,464257,161268,-122173,0,0,0,386,472,320,429,403,468,530,448,346,250,212,404,0,
1,1775498502688,-3359,4158,6896,-3909537,-21991,-882089,0,0,0,245,304,242,270,199,293,329,284,274,209,276,147,0,
2,1775498502688,1603,607,9853,436157,112399,-122173,0,0,0,396,474,321,429,400,469,528,437,352,245,207,411,0,
1,1775498502704,-2995,3345,7829,-4247956,-224798,-1010371,0,0,0,246,305,241,269,199,290,331,289,276,207,274,144,0,
2,1775498502704,1579,555,9815,410501,79412,-119729,0,0,0,402,477,331,432,402,481,530,429,352,247,197,419,0,
1,1775498502720,-3249,2445,8786,-4511850,-327423,-1235169,0,0,0,246,305,243,268,199,289,333,294,278,207,273,141,0,
2,1775498502720,1593,488,9820,387288,57421,-114842,0,0,0,416,480,330,430,398,475,532,419,355,246,186,434,0,
1,1775498502736,-4197,1502,9806,-4651127,-510683,-1402546,0,0,0,246,306,244,268,199,289,331,293,278,209,274,141,0,
2,1775498502736,1622,425,9849,362853,34208,-113620,0,0,0,419,479,341,428,398,482,529,414,361,246,183,449,0,
1,1775498502752,-4852,799,11083,-4675562,-831998,-1387885,0,0,0,247,309,244,269,201,292,326,292,275,209,277,142,0,
2,1775498502752,1612,382,9882,340862,10995,-113620,0,0,0,421,478,342,428,398,480,526,404,360,249,183,454,0,
1,1775498502768,-5163,210,12577,-4703662,-1093448,-1279151,0,0,0,246,307,244,271,200,292,330,291,279,210,277,142,0,
2,1775498502768,1617,368,9940,323758,-13439,-109955,0,0,0,428,481,333,432,402,477,522,396,356,257,185,464,0,
1,1775498502784,-5350,-521,14027,-4761083,-1209513,-1051909,0,0,0,246,306,244,267,198,290,326,285,277,211,277,143,0,
2,1775498502784,1694,330,9964,316428,-57421,-102625,0,0,0,437,487,332,436,407,483,520,390,356,289,197,469,0,
1,1775498502800,-5446,-1301,15314,-4775744,-1296256,-737925,0,0,0,243,305,244,270,199,293,326,289,278,208,275,142,0,
2,1775498502800,1742,244,9920,298102,-131946,-101403,0,0,0,448,493,335,438,411,492,517,384,361,290,196,471,0,
1,1775498502816,-5283,-1847,16530,-4702440,-1398881,-425162,0,0,0,246,307,245,272,201,294,323,284,277,208,273,143,0,
2,1775498502816,1689,177,9825,265115,-205250,-100181,0,0,0,456,496,333,442,417,494,517,380,365,259,185,480,0,
1,1775498502832,-4938,-2321,17918,-4541172,-1527163,-279776,0,0,0,249,311,247,259,230,289,323,287,275,207,276,143,0,
2,1775498502832,1593,177,9844,246789,-226020,-102625,0,0,0,452,495,329,446,423,497,518,372,364,262,185,490,0,
1,1775498502848,-4776,-2804,19004,-4364021,-1668883,-348193,0,0,0,248,314,247,263,222,290,324,294,275,205,283,141,0,
2,1775498502848,1502,215,10035,280998,-182037,-116064,0,0,0,451,495,320,447,426,510,506,359,365,260,183,503,0,
1,1775498502864,-4383,-3493,19856,-4211304,-1905899,-616973,0,0,0,246,312,250,268,203,300,323,292,280,206,281,146,0,
2,1775498502864,1421,196,10155,356745,-98960,-128281,0,0,0,460,496,328,442,426,515,505,350,374,263,182,514,0,
1,1775498502880,-3575,-4651,20646,-4177096,-2139250,-929736,0,0,0,243,310,254,267,202,308,322,288,284,208,276,154,0,
2,1775498502880,1368,110,10150,427605,-21991,-130725,0,0,0,463,504,335,448,427,508,504,339,375,270,187,511,0,
1,1775498502896,-2737,-7039,21067,-4293160,-2218662,-1176526,0,0,0,241,309,256,268,203,309,322,288,283,206,274,154,0,
2,1775498502896,1411,9,10112,486248,51312,-124616,0,0,0,466,499,335,452,432,515,501,322,377,270,181,514,0,
1,1775498502912,-2364,-10102,20311,-4317595,-2119702,-1123992,0,0,0,241,310,252,269,203,304,322,289,280,207,273,150,0,
2,1775498502912,1574,-38,10174,538783,107512,-124616,0,0,0,472,506,324,451,438,511,493,306,372,268,183,530,0,
1,1775498502928,-1445,-13563,18501,-4010941,-2020742,-747699,0,0,0,243,312,246,270,205,295,326,291,278,212,275,143,0,
2,1775498502928,1785,-67,10327,616973,135612,-140499,0,0,0,480,509,335,455,439,514,485,291,379,269,183,541,0,
1,1775498502944,1698,-17760,16132,-3313333,-1930334,-288328,0,0,0,243,315,246,274,210,297,327,291,279,212,271,141,0,
2,1775498502944,1923,-105,10571,736703,130725,-178372,0,0,0,476,505,322,461,441,517,465,269,380,267,176,542,0,
1,1775498502960,5187,-21646,13960,-2586403,-1623679,12217,0,0,0,242,320,246,275,212,297,329,292,279,218,280,144,0,
2,1775498502960,1971,-172,10921,923628,125838,-221133,0,0,0,486,505,313,463,444,521,442,255,388,267,174,549,0,
1,1775498502976,7949,-24905,12132,-1748296,-959058,320093,0,0,0,241,316,245,273,208,294,332,292,279,222,289,148,0,
2,1775498502976,2124,-339,11265,1134987,173485,-274889,0,0,0,489,505,308,465,454,524,421,244,394,263,173,558,0,
1,1775498502992,8073,-24718,11672,-719599,-46425,756251,0,0,0,242,317,246,275,209,295,329,288,277,218,283,142,0,
2,1775498502992,2292,-512,11653,1398881,267558,-364075,0,0,0,497,510,302,465,465,526,402,237,398,263,176,567,0,
1,1775498503008,6551,-21349,12285,293215,840550,1109331,0,0,0,236,312,242,275,206,296,334,279,275,231,285,143,0,
2,1775498503008,2335,-507,12189,1738522,266337,-453262,0,0,0,508,509,294,465,470,523,377,235,403,267,183,578,0,
1,1775498503024,4661,-15448,14323,1123992,1701870,1053131,0,0,0,245,306,231,287,209,285,399,313,267,284,310,127,0,
2,1775498503024,2392,-545,12715,2141693,100181,-510683,0,0,0,513,506,283,465,478,522,346,227,404,263,179,584,0,
1,1775498503040,722,-4359,15692,1839926,2851518,664621,0,0,0,237,285,205,278,192,265,442,372,257,310,360,112,0,
2,1775498503040,2392,-746,13314,2620611,-17104,-580321,0,0,0,519,512,273,459,486,523,321,215,401,257,170,583,0,
1,1775498503056,-7451,15424,12916,2142915,3975510,241902,0,0,0,237,268,183,272,170,250,462,425,256,326,394,103,0,
2,1775498503056,2258,-823,14271,3138625,-7330,-654847,0,0,0,523,508,267,448,477,518,297,206,397,260,176,587,0,
1,1775498503072,-8446,17712,8892,2069611,4063475,122173,0,0,0,242,262,168,274,162,243,475,460,261,342,415,95,0,
2,1775498503072,2636,-770,15707,3753156,40317,-713490,0,0,0,513,500,257,440,471,515,270,193,387,249,172,577,0,
1,1775498503088,-3546,4771,10605,2730567,3499036,-68416,0,0,0,245,271,167,279,169,245,485,480,260,357,431,91,0,x
2,1775498503088,3622,-808,17396,4478863,84299,-824668,0,0,0,496,492,255,435,457,503,276,170,423,232,158,548,0,x
1,1775498503104,1033,-2033,15673,3276681,2142915,-491135,0,0,0,250,281,189,284,176,260,494,495,260,377,443,95,0,
2,1775498503104,4412,-952,19521,5246110,202807,-1005484,0,0,0,480,492,255,435,444,519,260,148,404,213,143,467,0,
1,1775498503120,2703,215,16712,2928487,945619,-509461,0,0,0,259,280,206,291,176,270,509,509,266,404,460,97,0,
2,1775498503120,4297,-813,22321,6010913,486248,-1172861,0,0,0,416,467,227,424,442,482,250,147,367,208,141,399,0,
1,1775498503136,1493,2770,14682,2266310,271224,-54977,0,0,0,266,288,193,308,187,258,518,515,262,426,473,91,0,
2,1775498503136,3656,-612,24685,6652322,778242,-1265712,0,0,0,356,443,213,402,419,449,263,175,342,188,135,343,0,
1,1775498503152,-1320,1311,13012,1558928,-167377,208915,0,0,0,267,293,213,307,194,267,534,517,295,425,478,89,0,
2,1775498503152,3278,67,25345,7103140,868650,-1320690,0,0,0,304,430,215,361,397,407,277,221,303,159,134,283,0,
1,1775498503168,-2641,-248,11782,908967,-272445,68416,0,0,0,283,301,221,321,215,278,532,529,318,436,472,108,0,
2,1775498503168,4364,1215,23618,7362147,907745,-1431868,0,0,0,256,414,219,324,370,361,285,259,268,140,153,204,0,
1,1775498503184,-2120,229,10610,485026,-103847,-58643,0,0,0,296,308,233,336,241,294,533,530,299,448,483,131,0,
2,1775498503184,5939,3283,18478,7198435,1018923,-1687209,0,0,0,240,412,230,311,360,357,288,267,267,147,179,195,0,
1,1775498503200,-1847,866,10016,298102,26878,-20769,0,0,0,304,303,253,347,239,302,544,519,309,438,486,137,0,
2,1775498503200,5087,6168,12744,6418971,682947,-2014633,0,0,0,236,415,233,312,359,362,287,266,265,158,193,201,0,
1,1775498503216,-1914,1081,9959,241902,98960,46425,0,0,0,307,312,278,350,220,327,544,525,324,449,487,158,0,
2,1775498503216,2718,10490,11246,3833790,-1017701,-2080607,0,0,0,236,416,242,310,356,363,287,267,262,162,196,203,0,
1,1775498503232,-1809,1000,10222,228463,111177,53756,0,0,0,304,315,276,341,219,326,553,528,333,448,490,172,0,
2,1775498503232,3043,12758,11275,235793,-2278527,-1777617,0,0,0,237,416,249,306,352,361,288,269,259,163,196,203,0,
1,1775498503248,-1646,966,10366,223576,83077,47647,0,0,0,315,331,292,336,225,310,550,515,312,443,484,166,0,
2,1775498503248,4096,9270,9715,-2637716,-2401922,-1514945,0,0,0,238,416,248,307,353,361,291,271,257,164,197,201,0,
1,1775498503264,-1598,1062,10256,233350,14660,48869,0,0,0,318,345,301,343,238,320,547,505,311,440,476,175,0,
2,1775498503264,4010,4709,7312,-3837455,-2206445,-1430646,0,0,0,236,416,248,312,357,364,294,271,259,166,200,203,0,
1,1775498503280,-1617,1139,10112,266337,-48869,59864,0,0,0,316,345,294,352,249,333,547,495,317,448,464,183,0,
2,1775498503280,3799,3651,5996,-3798360,-2130697,-1337794,0,0,0,233,415,249,312,357,364,296,271,260,168,204,203,0,
1,1775498503296,-1655,1105,10011,310319,-97738,70860,0,0,0,313,350,287,348,251,342,550,489,327,449,452,198,0,
2,1775498503296,4388,4426,5690,-4028045,-1966986,-1134987,0,0,0,233,415,248,312,357,364,295,272,259,171,205,203,0,
1,1775498503312,-1732,961,9858,334754,-119729,75747,0,0,0,313,357,286,344,250,344,552,487,335,438,444,210,0,
2,1775498503312,5326,5561,5982,-4609589,-1525941,-840550,0,0,0,233,416,248,315,360,367,295,273,256,170,205,200,0,
1,1775498503328,-1799,842,9724,326202,-113620,83077,0,0,0,317,356,290,352,250,336,545,466,327,425,435,197,0,
2,1775498503328,5637,5407,6360,-5120272,-918741,-460592,0,0,0,233,416,248,316,362,367,297,275,261,172,209,199,0,
1,1775498503344,-1809,804,9686,300545,-91629,87964,0,0,0,315,357,289,349,246,342,531,433,331,413,428,200,0,
2,1775498503344,5704,4747,6867,-5418374,-345749,-21991,0,0,0,234,416,248,313,360,364,297,275,259,179,216,200,0,
1,1775498503360,-1780,789,9696,279776,-72082,90408,0,0,0,320,359,274,353,258,341,540,436,334,424,429,206,0,
2,1775498503360,5656,3943,7872,-5590638,190589,477696,0,0,0,234,417,251,314,360,371,301,279,263,173,208,204,0,
1,1775498503376,-1746,789,9743,263893,-62308,91629,0,0,0,315,375,266,354,288,340,538,439,323,412,415,217,0,
2,1775498503376,5747,3129,8944,-5684711,581543,874759,0,0,0,231,415,248,312,358,366,303,284,261,163,195,201,0,
1,1775498503392,-1746,775,9743,251676,-50090,85521,0,0,0,307,362,265,351,270,356,536,424,334,400,407,236,0,
2,1775498503392,6030,2526,9897,-5668829,861319,1061683,0,0,0,232,415,249,313,359,367,309,291,265,158,186,200,0,
1,1775498503408,-1756,760,9729,250454,-39095,80634,0,0,0,312,373,271,353,281,355,538,420,339,390,405,241,0,
2,1775498503408,5982,2780,11189,-5677381,1132544,1034805,0,0,0,234,418,251,314,360,367,310,294,267,155,181,200,0,
1,1775498503424,-1732,737,9748,273667,-36651,79412,0,0,0,314,379,282,353,281,363,536,413,364,385,398,256,0,
2,1775498503424,5757,3326,12864,-5843536,1319468,966388,0,0,0,234,418,250,316,361,369,315,298,273,151,173,201,0,
1,1775498503440,-1670,679,9786,300545,-52534,83077,0,0,0,315,379,317,372,283,379,528,391,381,369,393,280,0,
2,1775498503440,5762,3555,14788,-6141639,1418429,871093,0,0,0,234,417,249,317,361,371,321,303,274,144,162,199,0,
1,1775498503456,-1627,612,9830,327423,-96516,90408,0,0,0,322,384,300,373,292,385,522,380,392,364,387,296,0,
2,1775498503456,5939,3268,16812,-6332229,1572367,769690,0,0,0,230,414,246,315,359,370,321,300,271,150,172,197,0,
1,1775498503472,-1703,569,9863,345749,-130725,98960,0,0,0,328,398,279,370,312,379,520,371,388,366,376,304,0,
2,1775498503472,5690,3211,19640,-6415306,1817934,759916,0,0,0,226,410,244,313,355,368,317,296,269,162,191,196,0,
1,1775498503488,-1852,540,9858,375071,-139277,116064,0,0,0,334,409,277,375,334,382,523,356,380,379,369,320,0,
2,1775498503488,5254,3211,23101,-6443406,1960877,1020144,0,0,0,227,411,244,312,352,365,318,294,268,163,190,193,0,
1,1775498503504,-1909,469,9882,417831,-129503,141720,0,0,0,342,413,281,379,337,392,521,342,379,379,358,344,0,
2,1775498503504,5661,2067,27322,-6453180,2019520,1601688,0,0,0,232,414,245,313,353,363,320,290,268,166,190,192,0,
1,1775498503520,-1938,387,9987,475253,-133168,178372,0,0,0,349,418,295,380,321,396,509,329,383,352,332,364,0,
2,1775498503520,7188,-1708,29413,-6371324,2234545,2256536,0,0,0,235,415,246,318,357,366,315,285,270,172,193,196,0,
1,1775498503536,-1990,378,10112,543670,-147829,207694,0,0,0,357,430,303,388,322,420,501,311,393,333,312,386,0,
2,1775498503536,6317,-10552,30753,-6012135,2899166,2550973,0,0,0,235,414,243,323,360,368,321,286,275,174,194,195,0,
1,1775498503552,-2105,358,10184,640186,-160046,241902,0,0,0,358,445,293,401,351,452,490,286,413,323,289,419,0,
2,1775498503552,2833,-21603,30906,-5293758,2840523,2239431,0,0,0,236,413,239,324,362,370,321,284,277,179,198,198,0,
1,1775498503568,-2230,258,10313,757472,-178372,289550,0,0,0,373,437,295,403,314,458,484,256,429,315,259,451,0,
2,1775498503568,-1005,-31040,26082,-4059810,2040289,1320690,0,0,0,242,416,244,333,364,374,326,284,277,175,188,198,0,
1,1775498503584,-2230,105,10715,883311,-249233,339641,0,0,0,380,461,294,395,357,468,476,246,431,302,252,470,0,
2,1775498503584,-5719,-38157,20354,-2532647,1391551,239459,0,0,0,241,417,244,335,365,375,327,292,278,165,173,199,0,
1,1775498503600,-2033,-9,11150,1045801,-359188,371406,0,0,0,399,462,292,425,360,474,459,247,439,299,226,477,0,
2,1775498503600,-9940,-41521,16960,-1048244,762359,-535117,0,0,0,240,417,244,333,366,378,328,294,280,184,176,195,0,
1,1775498503616,-1832,-100,11567,1292590,-488692,367740,0,0,0,398,466,296,418,371,477,433,229,433,292,218,513,0,
2,1775498503616,-10011,-38286,16176,544891,-179594,-745255,0,0,0,240,420,249,341,375,382,337,324,279,150,162,190,0,
1,1775498503632,-2445,-258,12055,1607797,-557109,377514,0,0,0,401,470,275,423,358,481,416,212,409,289,200,526,0,
2,1775498503632,-5474,-27126,17252,2186897,-1087340,-586430,0,0,0,237,421,236,339,377,371,367,391,266,154,191,184,0,
1,1775498503648,-3239,-402,12825,1948660,-532674,493579,0,0,0,403,458,251,432,360,483,379,203,410,277,191,532,0,
2,1775498503648,2177,-703,18903,3204599,-1436755,-208915,0,0,0,234,410,214,333,366,357,398,442,259,171,229,181,0,
1,1775498503664,-3120,-363,13711,2417804,-356745,641408,0,0,0,397,459,224,436,376,481,337,203,412,262,194,530,0,
2,1775498503664,7245,27398,11667,3116634,-1558928,226020,0,0,0,234,399,196,329,355,349,422,464,254,184,260,178,0,
1,1775498503680,-3091,-320,14697,3003013,-206472,757472,0,0,0,397,457,224,449,366,491,296,199,416,248,183,533,0,
2,1775498503680,4268,17496,7346,3607770,-1745852,394618,0,0,0,236,397,192,329,353,354,441,480,254,200,308,176,0,
1,1775498503696,-4288,-244,16104,3787364,-136833,946841,0,0,0,409,433,241,432,356,498,245,188,418,221,165,523,0,
2,1775498503696,-1474,-2909,13859,4811174,-1391551,302989,0,0,0,241,400,214,334,353,368,461,498,264,243,367,180,0,
1,1775498503712,-5924,-90,17980,4614476,-75747,1258382,0,0,0,416,405,244,400,354,489,205,175,420,195,148,478,0,
2,1775498503712,-2584,-4053,21316,4394564,-950506,-98960,0,0,0,251,405,247,340,348,372,472,510,268,324,435,183,0,
1,1775498503728,-7829,28,21014,5595525,102625,1747074,0,0,0,396,387,229,393,336,467,197,164,417,179,132,413,0,
2,1775498503728,186,2029,19602,3064100,-744033,-447153,0,0,0,258,410,267,343,347,372,474,521,267,360,475,180,0,
1,1775498503744,-9227,-296,23483,6309016,362853,2186897,0,0,0,348,368,225,353,316,430,200,171,368,155,132,343,0,
2,1775498503744,2005,2517,13965,1919338,-313984,-266337,0,0,0,264,424,276,354,364,382,485,530,272,295,405,192,0,
1,1775498503760,-9528,358,25139,6929655,665843,2641381,0,0,0,291,351,241,334,294,394,211,201,333,156,155,279,0,
2,1775498503760,1952,971,11289,1226617,-30543,-2443,0,0,0,278,440,290,366,376,392,507,530,279,230,324,221,0,
1,1775498503776,-7757,1761,25872,7359704,1170417,2970026,0,0,0,259,328,224,292,245,338,253,223,293,201,189,223,0,
2,1775498503776,1402,732,10772,778242,-28099,103847,0,0,0,290,459,296,372,382,398,512,542,283,265,352,236,0,
1,1775498503792,-8303,2330,24527,7668802,1420872,3055547,0,0,0,247,283,206,257,186,264,298,256,265,172,248,130,0,
2,1775498503792,1249,1129,10509,469144,-91629,92851,0,0,0,311,447,308,376,376,400,508,539,285,327,412,239,0,
1,1775498503808,-10748,4101,17391,7674910,1054353,3134960,0,0,0,254,287,212,263,194,273,303,281,270,177,259,130,0,
2,1775498503808,1359,1407,10279,270002,-157603,40317,0,0,0,325,447,312,376,368,398,506,535,285,366,444,239,0,
1,1775498503824,-10093,8604,10763,6532592,460592,3167947,0,0,0,256,294,215,265,206,275,304,288,269,189,268,134,0,
2,1775498503824,1201,1497,10212,167377,-156381,14660,0,0,0,332,449,314,380,373,410,510,531,284,370,442,245,0,
1,1775498503840,-7016,14869,9164,3667634,158824,2296853,0,0,0,259,294,213,271,203,276,306,284,269,187,266,134,0,
2,1775498503840,1153,1655,10189,141720,-131946,0,0,0,0,342,458,315,385,378,407,515,532,289,374,434,250,0,
1,1775498503856,-3761,16223,9863,-885754,660956,3665,0,0,0,262,294,212,273,200,276,307,277,266,185,265,132,0,
2,1775498503856,1186,1837,10179,179594,-130725,-15882,0,0,0,346,457,312,385,379,406,516,529,288,374,429,257,0,
1,1775498503872,-4603,10729,8207,-3764151,1329242,-1792278,0,0,0,260,295,213,272,202,277,306,278,265,186,267,133,0,
2,1775498503872,1124,1885,10179,254119,-129503,-31764,0,0,0,352,461,314,385,381,407,516,521,292,382,435,262,0,
1,1775498503888,-7738,4517,4733,-3991393,1056796,-1947438,0,0,0,258,299,217,269,203,283,305,281,270,186,270,141,0,
2,1775498503888,1057,1813,10107,334754,-95294,-45204,0,0,0,360,465,314,389,384,410,518,519,297,320,365,277,0,
1,1775498503904,-7193,3421,3479,-3435506,-92851,-1067792,0,0,0,257,301,218,268,203,285,306,281,272,187,272,144,0,
2,1775498503904,1067,1679,9940,375071,-54977,-45204,0,0,0,367,467,315,394,385,412,518,513,300,290,324,286,0,
1,1775498503920,-4307,4781,4647,-3523470,-596204,-513126,0,0,0,257,300,215,271,205,278,307,284,266,189,274,134,0,
2,1775498503920,1091,1560,9796,382401,-31764,-45204,0,0,0,374,471,319,396,386,415,514,501,301,286,310,295,0,
1,1775498503936,-2804,5556,6365,-4218635,-332310,-527787,0,0,0,256,300,213,272,205,278,312,286,268,187,272,134,0,
2,1775498503936,1148,1497,9758,366519,-31764,-47647,0,0,0,383,475,317,401,391,418,516,495,306,251,266,312,0,
1,1775498503952,-3220,4967,7341,-4805065,-273667,-663399,0,0,0,256,299,213,279,205,280,320,286,264,190,274,132,0,
2,1775498503952,1220,1483,9791,357967,-50090,-54977,0,0,0,391,473,313,408,396,421,522,489,313,250,255,322,0,
1,1775498503968,-3484,4072,8107,-5095837,-680503,-719599,0,0,0,255,299,221,278,209,290,320,280,271,191,275,143,0,
2,1775498503968,1220,1474,9853,373849,-80634,-69638,0,0,0,388,463,324,410,396,427,517,476,316,246,243,334,0,
1,1775498503984,-2732,3450,9499,-5386609,-1105666,-779464,0,0,0,255,301,214,277,206,279,320,281,268,193,278,134,0,
2,1775498503984,1134,1416,9877,393397,-79412,-84299,0,0,0,351,428,334,415,396,433,518,460,316,248,231,347,0,
1,1775498504000,-2397,2550,10978,-5693264,-1304808,-824668,0,0,0,251,301,215,275,206,278,321,286,269,195,277,134,0,
2,1775498504000,1038,1340,9873,406836,-52534,-96516,0,0,0,415,485,329,419,400,442,511,452,327,248,221,368,0,
1,1775498504016,-2603,1411,12433,-5828876,-1452637,-712268,0,0,0,253,301,214,280,207,280,322,284,265,196,274,132,0,
2,1775498504016,1043,1277,9858,410501,-20769,-98960,0,0,0,430,483,322,428,400,442,510,442,327,250,206,376,0,
1,1775498504032,-2684,708,13912,-5821545,-1620014,-507018,0,0,0,254,302,215,280,206,280,323,283,267,196,275,132,0,
2,1775498504032,1158,1234,9892,412944,-17104,-95294,0,0,0,430,484,329,424,400,454,510,424,327,248,202,398,0,
1,1775498504048,-2617,301,15630,-5801998,-1751961,-287106,0,0,0,246,303,215,274,208,279,325,290,267,195,279,132,0,
2,1775498504048,1220,1167,9954,420275,-34208,-96516,0,0,0,437,484,321,434,407,452,503,413,333,252,194,408,0,
1,1775498504064,-2656,-33,17075,-5826432,-1778839,-210137,0,0,0,240,306,216,269,211,279,320,297,267,189,282,132,0,
2,1775498504064,1220,1086,10007,433714,-54977,-105068,0,0,0,432,488,314,438,410,463,498,394,338,241,182,412,0,
1,1775498504080,-2933,-315,18722,-5786115,-1798387,-382401,0,0,0,238,306,217,268,211,279,317,297,268,185,281,132,0,
2,1775498504080,1220,1009,10059,461814,-64751,-117286,0,0,0,440,492,321,429,413,460,497,387,357,246,182,426,0,
1,1775498504096,-3072,-478,20813,-5593082,-1935221,-850324,0,0,0,236,308,218,266,212,280,315,298,270,182,281,133,0,
2,1775498504096,1258,981,10112,500909,-65973,-136833,0,0,0,457,498,331,432,414,461,493,359,370,251,176,438,0,
1,1775498504112,-2967,-1100,23488,-5349957,-2073276,-1578475,0,0,0,236,310,220,266,213,281,309,298,270,182,278,133,0,
2,1775498504112,1340,942,10169,561996,-65973,-167377,0,0,0,461,505,337,441,422,467,493,336,379,253,172,464,0,
1,1775498504128,-3244,-3015,25728,-5213123,-2056172,-2294409,0,0,0,237,308,220,269,214,282,313,295,272,186,270,133,0,
2,1775498504128,1430,861,10246,631634,-68416,-205250,0,0,0,462,510,337,443,431,480,482,315,392,255,174,492,0,
1,1775498504144,-4781,-8384,27006,-5167919,-1969429,-2812423,0,0,0,240,310,219,270,215,283,320,297,273,188,270,131,0,
2,1775498504144,1488,713,10361,709825,-74525,-251676,0,0,0,470,514,339,446,434,487,470,298,395,256,174,510,0,
1,1775498504160,-6642,-16539,26082,-5104389,-1919338,-2709798,0,0,0,239,308,215,271,209,281,327,288,278,198,265,131,0,
2,1775498504160,1416,564,10576,818559,-63529,-296880,0,0,0,481,517,340,451,443,488,463,281,395,257,172,520,0,
1,1775498504176,-5130,-25494,22244,-4583932,-2130697,-1791056,0,0,0,240,307,218,272,209,285,332,291,283,199,264,129,0,
2,1775498504176,1234,540,10959,970053,-12217,-326202,0,0,0,488,520,331,456,454,496,451,264,398,266,174,532,0,
1,1775498504192,1052,-32222,17736,-3424510,-2371378,-687834,0,0,0,245,309,218,274,209,283,335,289,282,200,267,131,0,
2,1775498504192,957,545,11452,1224173,78190,-321315,0,0,0,488,522,324,466,450,505,435,250,387,283,178,550,0,
1,1775498504208,8848,-36252,14362,-1827708,-2020742,174707,0,0,0,241,308,215,277,210,283,338,289,280,204,270,132,0,
2,1775498504208,847,435,11974,1532050,197920,-290771,0,0,0,498,523,321,462,455,510,410,239,373,267,174,570,0,
1,1775498504224,11184,-37726,13596,-499687,-853989,632856,0,0,0,236,303,211,278,206,279,345,285,273,222,280,128,0,
2,1775498504224,1076,311,12711,1888795,346971,-260228,0,0,0,504,529,297,469,473,523,387,242,380,274,182,582,0,
1,1775498504240,9083,-34070,15070,907745,585208,976162,0,0,0,238,291,205,280,201,271,382,334,266,272,325,113,0,
2,1775498504240,1852,220,13534,2344500,398284,-293215,0,0,0,503,520,287,478,470,522,361,230,394,287,181,591,0,
1,1775498504256,2014,-11835,16702,2623055,2289522,979827,0,0,0,238,278,189,273,184,255,423,403,252,294,382,101,0,
2,1775498504256,2598,143,14338,2901609,306654,-405614,0,0,0,515,522,272,499,504,510,317,225,383,266,179,591,0,
1,1775498504272,-6240,15362,14175,3590665,3690847,572991,0,0,0,245,267,168,272,174,238,440,443,244,323,413,92,0,
2,1775498504272,3120,67,15386,3569896,128281,-582765,0,0,0,520,520,273,477,491,529,281,209,368,256,171,588,0,
1,1775498504288,-7441,17985,10715,3973067,3660304,-21991,0,0,0,254,260,156,286,172,239,453,457,248,368,423,86,0,
2,1775498504288,4053,62,17118,4405560,-24434,-829554,0,0,0,514,518,269,446,478,523,256,191,372,255,172,571,0,
1,1775498504304,-1134,1239,15108,4812396,1970651,-406836,0,0,0,255,263,161,295,172,252,472,472,262,393,431,90,0,
2,1775498504304,5259,320,19602,5270545,-151494,-1136209,0,0,0,503,510,268,439,469,512,248,170,374,250,167,537,0,
1,1775498504320,3225,-5264,20512,4638910,362853,-423940,0,0,0,251,273,175,301,185,276,490,489,273,400,443,101,0,
2,1775498504320,6144,521,22962,6221051,-327423,-1488067,0,0,0,480,492,256,431,460,495,241,151,364,232,154,466,0,
1,1775498504336,626,-502,18133,3244916,232128,158824,0,0,0,255,282,186,318,207,312,508,505,279,409,457,130,0,
2,1775498504336,6561,808,26259,7079928,-432492,-1772730,0,0,0,420,479,236,416,443,471,247,154,345,205,138,389,0,
1,1775498504352,-3110,722,14290,2003637,371406,333532,0,0,0,280,293,204,337,221,346,512,510,301,428,469,188,0,
2,1775498504352,6039,1435,28719,7874052,-359188,-2010968,0,0,0,358,458,219,386,426,434,259,187,313,181,135,337,0,
1,1775498504368,-4187,-703,11371,1047023,420275,-31764,0,0,0,300,293,213,344,212,352,522,508,318,446,478,223,0,
2,1775498504368,4718,1660,29360,8440935,-189368,-2151467,0,0,0,303,427,218,347,393,391,276,236,282,148,131,264,0,
1,1775498504384,-2502,-382,10380,582765,417831,-212581,0,0,0,300,293,213,338,209,340,545,499,353,453,478,239,0,
2,1775498504384,5829,2024,26776,8774468,212581,-2234545,0,0,0,266,414,236,321,362,371,289,269,280,124,126,212,0,
1,1775498504400,-1751,378,10232,302989,432492,-140499,0,0,0,308,310,220,345,223,348,555,511,349,441,494,253,0,
2,1775498504400,8423,6671,17611,8356636,717155,-2546086,0,0,0,251,413,245,311,352,366,287,272,278,137,156,204,0,
1,1775498504416,-1947,660,10284,125838,419053,-46425,0,0,0,316,307,241,354,219,366,548,512,346,455,502,274,0,
2,1775498504416,6590,14936,9849,6153856,436157,-2895501,0,0,0,244,411,234,310,352,359,282,264,259,163,197,202,0,
1,1775498504432,-1928,751,10279,10995,337197,-18325,0,0,0,317,308,239,351,218,367,550,509,355,443,503,282,0,
2,1775498504432,2024,20354,10634,1536936,-1127657,-1727526,0,0,0,242,412,227,311,353,356,286,264,252,165,196,200,0,
1,1775498504448,-1799,914,10279,14660,204028,-10995,0,0,0,319,310,238,349,228,362,553,502,360,440,512,302,0,
2,1775498504448,1727,18028,11308,-3180164,-2741563,83077,0,0,0,248,416,232,314,356,355,290,267,255,167,195,200,0,
1,1775498504464,-1746,1028,10327,100181,92851,14660,0,0,0,317,312,231,349,233,361,556,498,363,427,504,300,0,
2,1775498504464,5747,8825,8049,-5434257,-3292563,1087340,0,0,0,241,416,232,310,356,355,286,269,253,166,199,202,0,
1,1775498504480,-1761,1033,10136,180816,-2443,40317,0,0,0,321,318,229,354,240,364,553,498,364,422,489,306,0,
2,1775498504480,7815,4149,4101,-5067738,-2333505,570548,0,0,0,240,420,238,310,360,359,286,272,257,164,199,202,0,
1,1775498504496,-1809,914,9389,172263,-9773,53756,0,0,0,321,326,231,354,244,367,548,488,362,422,472,327,0,
2,1775498504496,7173,3756,3110,-4763527,-1098335,-92851,0,0,0,237,418,233,309,358,356,288,274,257,163,197,201,0,
1,1775498504512,-1871,866,9303,184481,-20769,54977,0,0,0,320,328,228,354,245,363,539,474,353,417,455,343,0,
2,1775498504512,4623,5594,5336,-5125159,-326202,-371406,0,0,0,234,418,234,313,362,359,288,276,254,166,201,200,0,
1,1775498504528,-1938,842,9643,245567,-57421,51312,0,0,0,326,324,221,362,244,360,530,460,348,415,451,348,0,
2,1775498504528,3709,5427,6982,-5640729,-291993,-127059,0,0,0,235,418,235,313,362,358,288,276,255,163,201,200,0,
1,1775498504544,-1971,794,9715,256563,-46425,52534,0,0,0,325,320,225,364,240,369,528,440,357,414,450,351,0,
2,1775498504544,4369,4067,7470,-5827654,-130725,237015,0,0,0,235,420,236,313,362,361,289,278,257,167,203,201,0,
1,1775498504560,-1952,765,9629,222354,6108,57421,0,0,0,321,317,228,364,242,385,525,435,361,404,428,344,0,
2,1775498504560,4958,3101,7997,-5645616,499687,538783,0,0,0,235,421,235,313,360,361,291,278,260,170,204,201,0,
1,1775498504576,-1842,765,9648,200363,34208,63529,0,0,0,315,316,227,361,249,376,533,425,359,407,423,349,0,
2,1775498504576,4431,3091,9538,-5596747,1112996,822224,0,0,0,235,421,235,314,361,360,293,278,260,170,204,201,0,
1,1775498504592,-1727,751,9719,193033,19547,65973,0,0,0,330,327,225,405,246,373,536,418,354,407,423,353,0,
2,1775498504592,3699,3397,11399,-5836206,1393994,1073901,0,0,0,234,422,236,315,364,363,295,281,262,170,205,203,0,
1,1775498504608,-1713,722,9758,188146,-19547,61086,0,0,0,341,330,238,395,236,377,532,407,350,426,410,363,0,
2,1775498504608,3584,2933,12888,-6118426,1539380,1177748,0,0,0,234,423,236,317,365,365,296,283,266,170,205,203,0,
1,1775498504624,-1785,689,9734,178372,-42760,54977,0,0,0,345,328,243,368,236,369,519,402,343,418,400,366,0,
2,1775498504624,3225,2158,14596,-6225938,1733635,1100779,0,0,0,234,423,236,319,364,367,298,283,268,169,204,202,0,
1,1775498504640,-1856,650,9672,167377,-39095,51312,0,0,0,333,337,244,369,254,387,520,409,358,412,401,367,0,
2,1775498504640,2349,1995,16726,-6156299,1850921,845437,0,0,0,232,420,235,317,361,366,298,283,268,168,203,202,0,
1,1775498504656,-1856,641,9657,163711,-24434,54977,0,0,0,344,338,235,374,249,396,522,395,351,401,392,368,0,
2,1775498504656,1392,2914,19468,-6260146,1809382,623082,0,0,0,230,418,233,314,356,365,295,282,269,167,200,201,0,
1,1775498504672,-1852,646,9719,177150,-8552,65973,0,0,0,353,340,247,371,249,388,517,382,359,395,373,372,0,
2,1775498504672,842,3651,22234,-6520375,1759291,615752,0,0,0,233,418,236,318,360,367,301,282,271,172,203,205,0,
1,1775498504688,-1861,626,9791,213802,0,85521,0,0,0,367,347,255,383,248,410,514,372,366,391,359,393,0,
2,1775498504688,923,3263,25360,-6762278,1695761,910189,0,0,0,232,417,237,318,361,368,301,282,270,171,202,203,0,
1,1775498504704,-1842,564,9810,263893,-1221,111177,0,0,0,358,371,248,389,265,429,509,369,366,383,352,413,0,
2,1775498504704,1847,1186,28236,-6836803,1600466,1398881,0,0,0,232,417,234,317,357,364,305,284,268,171,198,201,0,
1,1775498504720,-1847,536,9825,326202,-8552,139277,0,0,0,343,391,252,391,290,436,502,360,370,369,340,434,0,
2,1775498504720,3981,-4216,30078,-6623000,1613905,1907121,0,0,0,235,420,232,322,359,363,315,285,268,177,198,198,0,
1,1775498504736,-1904,507,9882,412944,-13439,164933,0,0,0,360,396,266,398,306,450,495,340,387,360,325,464,0,
2,1775498504736,5096,-13720,29896,-5982814,1824043,1876578,0,0,0,232,420,232,328,361,369,315,281,270,177,198,199,0,
1,1775498504752,-1981,488,9978,520457,-15882,194255,0,0,0,382,408,260,396,327,456,489,326,409,358,311,487,0,
2,1775498504752,3436,-23838,27183,-4989547,1874134,1352455,0,0,0,236,422,235,333,365,370,315,278,270,182,203,200,0,
1,1775498504768,-2019,449,10203,649960,-31764,227241,0,0,0,380,400,248,432,335,465,495,299,409,333,285,497,0,
2,1775498504768,-2268,-32495,21823,-3435506,1722639,432492,0,0,0,239,423,234,334,365,370,316,277,270,199,205,197,0,
1,1775498504784,-2077,378,10653,806342,-85521,260228,0,0,0,395,401,280,471,311,484,478,279,398,315,258,500,0,
2,1775498504784,-8992,-36692,17875,-1659109,1065348,-390953,0,0,0,240,423,234,335,364,371,315,277,268,193,206,199,0,
1,1775498504800,-2038,239,11036,977384,-149051,288328,0,0,0,409,417,256,455,321,499,465,265,429,291,234,512,0,
2,1775498504800,-10437,-38195,16467,-329867,95294,-897971,0,0,0,238,421,234,331,363,369,315,279,270,183,206,200,0,
1,1775498504816,-1904,19,11342,1167974,-190589,302989,0,0,0,404,427,243,501,371,509,441,252,447,288,200,550,0,
2,1775498504816,-6810,-34572,16582,961501,-777020,-1240056,0,0,0,235,424,237,330,370,372,325,313,272,159,184,191,0,
1,1775498504832,-2426,-306,12041,1420872,-180816,335975,0,0,0,419,433,238,491,385,523,400,246,456,271,196,563,0,
2,1775498504832,-1914,-24316,17822,2272418,-1382998,-1353677,0,0,0,230,422,230,333,376,371,354,382,266,148,183,184,0,
1,1775498504848,-2890,-282,13405,1780061,-172263,454483,0,0,0,428,435,244,508,413,535,359,225,448,273,196,579,0,
2,1775498504848,3962,1483,18970,3116634,-1789835,-949284,0,0,0,225,405,203,333,368,356,390,441,254,167,230,182,0,
1,1775498504864,-2737,23,14644,2420248,-169820,632856,0,0,0,425,442,221,507,422,528,352,228,432,257,184,573,0,
2,1775498504864,8537,26508,11883,2856405,-2229658,8552,0,0,0,228,384,183,326,355,345,413,462,245,182,269,178,0,
1,1775498504880,-2823,33,15520,3100751,-182037,778242,0,0,0,440,435,212,481,416,525,317,224,426,243,179,572,0,
2,1775498504880,6149,18530,5843,3243694,-2560747,813672,0,0,0,233,382,190,328,349,354,439,472,255,199,305,180,0,
1,1775498504896,-3933,-181,16678,3749490,-204028,935845,0,0,0,474,412,225,475,386,512,280,212,427,230,159,543,0,
2,1775498504896,-1531,-1794,14127,4615697,-1815491,926071,0,0,0,240,387,203,335,351,365,461,484,266,213,328,186,0,
1,1775498504912,-5661,-320,18947,4550946,-191811,1249830,0,0,0,484,395,230,467,368,493,248,191,425,216,136,495,0,
2,1775498504912,-5116,-4958,21100,4652349,-940732,518013,0,0,0,251,399,218,345,354,373,483,494,271,222,339,192,0,
1,1775498504928,-7719,-866,21416,5429370,-153938,1649336,0,0,0,445,386,226,433,359,478,217,163,411,196,126,445,0,
2,1775498504928,-3225,1785,19861,3750712,-410501,-254119,0,0,0,261,422,249,357,364,381,498,503,278,242,348,208,0,
1,1775498504944,-10413,-1899,23737,6398202,-261450,2250427,0,0,0,376,368,225,388,324,455,205,155,379,169,123,374,0,
2,1775498504944,851,2727,15687,2750115,-109955,-464257,0,0,0,278,438,262,362,380,386,504,518,278,274,374,224,0,
1,1775498504960,-11227,-1186,25929,7115358,-469144,2886949,0,0,0,321,343,216,348,298,421,197,175,343,160,135,306,0,
2,1775498504960,2440,349,13390,1588249,87964,-183259,0,0,0,318,453,272,380,381,393,514,526,279,257,346,254,0,
1,1775498504976,-8265,1746,28092,7447668,-422718,3457497,0,0,0,275,322,203,341,260,361,242,223,304,171,175,245,0,
2,1775498504976,1445,-229,11811,678060,129503,85521,0,0,0,337,461,281,379,387,397,510,533,284,254,335,275,0,
1,1775498504992,-5991,3790,27944,7585724,449596,3651752,0,0,0,236,302,200,269,241,293,272,280,261,154,239,141,0,
2,1775498504992,957,1019,10409,353080,67195,58643,0,0,0,353,470,285,377,383,396,508,541,281,266,340,286,0,
1,1775498505008,-7949,6049,21311,7497759,1742187,3486818,0,0,0,256,271,217,259,184,275,301,279,275,171,250,133,0,
2,1775498505008,1148,1445,9983,232128,-32986,-1221,0,0,0,360,469,286,380,382,397,515,544,285,263,335,291,0,
1,1775498505024,-10844,9011,11686,6844134,2085493,3242472,0,0,0,254,293,215,262,200,279,297,293,273,177,261,133,0,
2,1775498505024,1239,1387,10212,134390,-122173,-21991,0,0,0,372,471,295,382,383,406,516,542,283,262,334,293,0,
1,1775498505040,-10710,12806,7954,5026199,1323134,2560747,0,0,0,256,300,213,258,230,271,304,286,275,178,258,137,0,
2,1775498505040,1057,1555,10265,65973,-135612,-14660,0,0,0,380,472,301,384,383,405,515,543,281,266,334,291,0,
1,1775498505056,-6369,17094,9222,1389107,480140,792903,0,0,0,259,290,210,266,206,273,311,273,268,184,256,138,0,
2,1775498505056,961,1785,10174,79412,-140499,-25656,0,0,0,385,474,300,391,392,402,516,541,282,269,331,295,0,
1,1775498505072,-3493,14118,8858,-2365270,1167974,-1584584,0,0,0,260,287,211,271,193,276,312,272,267,184,254,136,0,
2,1775498505072,875,1909,10150,167377,-129503,-46425,0,0,0,391,477,300,395,399,406,516,538,287,267,321,302,0,
1,1775498505088,-5982,7422,5532,-3687182,1880243,-2568077,0,0,0,260,289,212,271,196,277,312,281,269,183,257,136,0,
2,1775498505088,799,1890,10107,288328,-78190,-67195,0,0,0,394,479,302,392,391,410,516,540,293,266,309,307,0,
1,1775498505104,-8609,4178,2981,-3291341,1110553,-1828930,0,0,0,261,290,212,273,200,278,309,290,270,185,262,136,0,
2,1775498505104,799,1722,9978,351858,-18325,-72082,0,0,0,401,485,302,398,395,414,513,528,294,278,307,315,0,
1,1775498505120,-7221,4417,3383,-3182607,-8552,-835663,0,0,0,261,290,211,272,200,276,311,292,271,184,263,134,0,
2,1775498505120,851,1564,9849,372627,23212,-75747,0,0,0,410,491,296,398,396,407,512,519,295,272,287,316,0,
1,1775498505136,-4503,5666,5441,-3748269,-113620,-537561,0,0,0,259,292,211,273,198,272,321,294,274,186,264,133,0,
2,1775498505136,957,1478,9791,351858,28099,-83077,0,0,0,413,497,292,400,398,407,506,505,295,243,267,321,0,
1,1775498505152,-3804,5953,7049,-4563163,118507,-587652,0,0,0,264,291,214,290,198,278,318,291,272,193,263,135,0,
2,1775498505152,1081,1450,9763,329867,-3665,-94073,0,0,0,412,498,291,401,402,408,502,495,295,248,260,334,0,
1,1775498505168,-4699,5010,7652,-5078733,-111177,-715934,0,0,0,252,291,231,266,197,298,310,293,284,184,259,151,0,
2,1775498505168,1119,1440,9782,327423,-48869,-105068,0,0,0,431,501,299,409,407,417,503,473,297,251,248,340,0,
1,1775498505184,-4752,3890,8557,-5428148,-624304,-802676,0,0,0,252,294,229,266,216,288,311,300,276,186,265,142,0,
2,1775498505184,1072,1440,9853,340862,-90408,-114842,0,0,0,427,503,304,415,411,429,506,464,311,252,240,355,0,
1,1775498505200,-3943,2957,10021,-5629734,-1132544,-901637,0,0,0,256,297,224,269,208,285,312,298,275,210,260,149,0,
2,1775498505200,1024,1430,9897,362853,-112399,-118507,0,0,0,428,507,302,413,410,430,507,460,318,306,262,359,0,
1,1775498505216,-3354,2368,11758,-5772676,-1370781,-1028697,0,0,0,256,298,224,271,204,285,313,303,276,195,267,141,0,
2,1775498505216,971,1392,9901,386066,-118507,-116064,0,0,0,433,509,302,415,416,436,499,447,318,276,242,375,0,
1,1775498505232,-3340,1895,13428,-5874080,-1543045,-1086118,0,0,0,253,299,225,270,205,285,313,306,277,187,267,137,0,
2,1775498505232,928,1320,9944,410501,-109955,-112399,0,0,0,441,514,304,416,420,440,493,434,321,254,225,390,0,
1,1775498505248,-3354,1450,15209,-5924171,-1766622,-932180,0,0,0,252,298,225,270,204,286,315,306,278,188,266,139,0,
2,1775498505248,947,1239,10016,433714,-94073,-113620,0,0,0,449,517,306,420,425,442,489,418,323,255,218,398,0,
1,1775498505264,-2828,957,17008,-5957157,-1938886,-671951,0,0,0,250,298,228,269,204,288,312,304,279,186,266,140,0,
2,1775498505264,1028,1162,10093,463035,-80634,-124616,0,0,0,453,521,309,425,429,448,488,401,328,252,207,407,0,
1,1775498505280,-2043,421,18813,-5964488,-1986533,-441044,0,0,0,249,298,230,268,206,290,308,303,279,186,265,141,0,
2,1775498505280,1124,1100,10136,511905,-78190,-153938,0,0,0,459,529,315,426,429,452,486,387,338,251,195,421,0,
1,1775498505296,-1837,62,20598,-5903401,-1927890,-521678,0,0,0,248,300,229,268,206,289,309,302,277,185,265,140,0,
2,1775498505296,1191,1043,10198,574213,-73303,-193033,0,0,0,470,540,329,431,439,458,474,363,342,250,186,441,0,
1,1775498505312,-2057,-268,22799,-5798332,-1879021,-943175,0,0,0,247,302,226,268,204,286,310,296,275,184,262,140,0,
2,1775498505312,1273,990,10275,642630,-52534,-248011,0,0,0,479,547,344,435,458,473,463,337,344,247,180,468,0,
1,1775498505328,-2479,-1483,25484,-5663942,-1916895,-1748296,0,0,0,248,304,227,266,205,288,308,296,276,185,262,143,0,
2,1775498505328,1421,899,10351,713490,-14660,-321315,0,0,0,484,544,340,440,461,486,460,321,357,246,175,486,0,
1,1775498505344,-3149,-4838,28212,-5528330,-1996307,-2637716,0,0,0,247,303,230,265,205,291,308,300,276,186,264,142,0,
2,1775498505344,1631,679,10519,810007,23212,-412944,0,0,0,485,558,332,446,475,488,444,298,354,247,174,505,0,
1,1775498505360,-4661,-12744,29423,-5481904,-1985312,-3183829,0,0,0,246,304,223,265,203,287,311,295,275,188,260,138,0,
2,1775498505360,1569,449,10902,954171,72082,-493579,0,0,0,493,558,323,451,471,492,431,278,359,263,183,526,0,
1,1775498505376,-6317,-23996,26216,-5393940,-1782504,-2629163,0,0,0,233,308,225,258,206,290,305,294,283,186,262,141,0,
2,1775498505376,1335,335,11371,1155757,119729,-546113,0,0,0,503,561,332,463,473,499,411,263,355,266,179,528,0,
1,1775498505392,-3685,-33931,20851,-4668232,-1831373,-1466076,0,0,0,236,310,230,260,204,295,312,290,291,188,260,145,0,
2,1775498505392,1019,406,11945,1409876,144164,-555887,0,0,0,513,568,321,455,481,512,384,260,370,267,187,553,0,
1,1775498505408,5173,-38779,16118,-2993239,-1825265,-316428,0,0,0,230,315,227,259,216,295,309,288,291,186,262,148,0,
2,1775498505408,559,512,12524,1756848,171042,-504574,0,0,0,522,575,314,454,490,511,357,254,366,259,183,561,0,
1,1775498505424,12088,-40248,13974,-885754,-777020,361632,0,0,0,226,318,227,259,228,297,300,303,291,182,272,144,0,
2,1775498505424,320,497,13122,2163684,206472,-406836,0,0,0,523,581,300,450,497,509,324,254,363,258,184,575,0,
1,1775498505440,11758,-38458,13749,541226,553443,741590,0,0,0,226,318,227,260,226,297,305,298,291,185,267,144,0,
2,1775498505440,995,387,14017,2675589,133168,-301767,0,0,0,535,584,297,446,505,506,289,253,357,258,191,588,0,
1,1775498505456,7384,-31844,14912,1558928,1547932,948062,0,0,0,228,307,221,265,211,291,330,297,280,216,284,137,0,
2,1775498505456,2321,95,14749,3224146,-24434,-307876,0,0,0,547,576,289,440,514,503,264,253,352,253,199,588,0,
1,1775498505472,1856,-22536,16774,2530203,2157576,1004262,0,0,0,238,291,206,291,195,278,401,345,263,279,346,117,0,
2,1775498505472,3981,-282,15486,3915646,-191811,-554665,0,0,0,550,567,272,436,514,501,249,244,349,250,193,583,0,
1,1775498505488,-7485,5259,17678,3104417,2445904,866206,0,0,0,238,273,167,286,178,244,450,424,249,328,402,92,0,
2,1775498505488,5063,-349,16731,4623028,-299323,-934623,0,0,0,544,562,262,435,505,502,238,222,353,248,183,573,0,
1,1775498505504,-13534,37013,11586,2795319,3101973,497244,0,0,0,246,265,155,282,171,233,475,476,245,372,430,81,0,
2,1775498505504,5293,-129,19176,5456248,-376292,-1386664,0,0,0,530,549,268,433,490,501,230,195,359,239,175,539,0,
1,1775498505520,-7729,25192,7542,3213151,3772703,-89186,0,0,0,258,273,173,300,182,251,510,511,263,423,455,84,0,
2,1775498505520,6101,-397,22842,6404311,-426383,-1769065,0,0,0,501,526,266,420,472,477,225,174,345,224,161,469,0,
1,1775498505536,2502,-2507,20665,4576602,2400700,-559552,0,0,0,263,289,196,324,210,284,539,540,286,459,480,101,0,
2,1775498505536,7882,-813,26365,7291287,-350636,-2152689,0,0,0,440,502,238,391,457,439,236,182,318,204,151,388,0,
1,1775498505552,5427,-9562,27169,3364645,708603,-434936,0,0,0,282,304,227,350,234,325,544,542,299,473,488,135,0,
2,1775498505552,8944,488,29351,8074416,-89186,-2614503,0,0,0,339,471,221,364,430,415,251,212,290,175,144,323,0,
1,1775498505568,1014,-942,19224,807563,-287106,15882,0,0,0,297,309,237,357,237,348,553,540,331,472,499,185,0,
2,1775498505568,7140,3890,30351,8611978,3665,-3003013,0,0,0,277,436,224,333,390,375,274,253,262,136,128,238,0,
1,1775498505584,-1622,3728,10222,386066,-486248,59864,0,0,0,303,331,235,373,258,362,554,530,329,479,507,229,0,
2,1775498505584,6432,7465,26829,8857545,-167377,-3298672,0,0,0,245,417,230,310,359,345,281,274,250,120,125,185,0,
1,1775498505600,-2115,2278,8236,763581,-577878,-35430,0,0,0,311,329,253,360,251,378,566,517,387,485,502,265,0,
2,1775498505600,8131,10270,18726,8274780,-801455,-3499036,0,0,0,241,428,231,313,366,351,291,292,259,129,143,196,0,
1,1775498505616,-2306,373,9748,752585,-417831,-51312,0,0,0,327,343,262,365,287,380,557,502,377,469,490,286,0,
2,1775498505616,6657,13510,13309,5925392,-2045176,-3103195,0,0,0,239,426,224,314,367,352,290,292,251,124,135,191,0,
1,1775498505632,-2402,641,10184,459370,-96516,7330,0,0,0,319,362,278,368,283,380,565,495,364,461,483,294,0,
2,1775498505632,4670,18401,10217,1348790,-2993239,-1390329,0,0,0,242,428,225,312,364,347,295,292,250,126,135,190,0,
1,1775498505648,-1947,1435,9983,335975,67195,50090,0,0,0,316,387,276,364,291,396,558,472,368,453,463,316,0,
2,1775498505648,5647,16659,9404,-3634648,-2905275,894306,0,0,0,243,427,228,314,366,350,296,293,253,127,134,190,0,
1,1775498505664,-1636,1574,10064,355523,63529,59864,0,0,0,315,391,277,368,297,415,547,446,381,430,448,343,0,
2,1775498505664,7456,7671,7843,-5602855,-2076941,1903456,0,0,0,245,429,230,318,368,354,299,297,257,127,135,191,0,
1,1775498505680,-1665,1435,10299,411723,-2443,73303,0,0,0,317,381,285,376,294,429,539,418,388,408,417,354,0,
2,1775498505680,7504,1450,5360,-5359731,-1356120,1798387,0,0,0,242,428,229,318,369,354,301,299,259,128,137,191,0,
1,1775498505696,-1598,1435,10270,447153,-42760,100181,0,0,0,316,375,267,374,288,420,536,405,390,391,387,358,0,
2,1775498505696,6819,1957,4556,-4773300,-1018923,1381777,0,0,0,238,427,227,317,369,353,299,299,257,129,139,192,0,
1,1775498505712,-1435,1392,10093,482583,-120951,123394,0,0,0,313,377,254,376,291,412,533,388,390,377,366,360,0,
2,1775498505712,6685,3522,5326,-4915021,-610865,1192408,0,0,0,236,427,227,319,372,355,299,299,256,129,139,191,0,
1,1775498505728,-1555,1249,9853,503352,-218689,128281,0,0,0,312,378,247,378,289,407,527,364,383,365,346,362,0,
2,1775498505728,6379,3862,6843,-5378057,-112399,1144761,0,0,0,235,428,228,322,376,359,301,302,257,129,140,190,0,
1,1775498505744,-1799,1076,9638,518013,-267558,125838,0,0,0,314,369,239,376,287,400,526,348,373,358,328,369,0,
2,1775498505744,5589,3393,8346,-5726250,373849,1127657,0,0,0,233,428,228,321,375,358,306,308,260,130,142,192,0,
1,1775498505760,-1971,942,9485,510683,-254119,124616,0,0,0,316,363,241,380,298,396,522,339,372,354,317,381,0,
2,1775498505760,5087,2852,9303,-5850867,623082,1166752,0,0,0,230,428,229,319,373,355,310,310,261,133,145,194,0,
1,1775498505776,-1952,899,9456,458148,-197920,129503,0,0,0,319,365,238,381,293,393,508,328,370,351,307,389,0,
2,1775498505776,5202,2546,10265,-6015800,838107,1199739,0,0,0,233,428,229,318,373,354,302,302,258,127,139,190,0,
1,1775498505792,-1876,875,9495,394618,-149051,134390,0,0,0,321,362,234,395,285,405,523,325,366,343,297,400,0,
2,1775498505792,5278,2148,11414,-6190508,1094670,1161865,0,0,0,233,429,228,315,376,353,301,302,260,126,138,188,0,
1,1775498505808,-1761,851,9614,348193,-128281,138055,0,0,0,344,356,230,392,284,400,515,321,370,342,295,401,0,
2,1775498505808,5116,1675,12749,-6280916,1331686,1020144,0,0,0,232,429,228,295,396,348,308,306,263,131,144,193,0,
1,1775498505824,-1770,818,9729,327423,-131946,146607,0,0,0,321,358,231,391,294,404,495,311,379,330,275,404,0,
2,1775498505824,4895,1507,14295,-6323676,1530828,828333,0,0,0,231,428,228,320,378,358,308,305,263,130,140,193,0,
1,1775498505840,-1899,756,9743,326202,-142942,171042,0,0,0,328,365,231,408,293,415,527,303,380,333,275,412,0,
2,1775498505840,4675,1919,16171,-6371324,1684766,632856,0,0,0,230,428,228,325,376,361,308,307,263,130,141,191,0,
1,1775498505856,-1986,689,9715,333532,-160046,218689,0,0,0,332,388,257,394,319,443,525,287,396,329,272,416,0,
2,1775498505856,4460,2713,18616,-6495940,1837482,485026,0,0,0,230,428,228,322,373,358,310,306,264,127,141,190,0,
1,1775498505872,-2048,641,9748,348193,-191811,276111,0,0,0,343,378,246,403,319,446,512,284,392,323,258,439,0,
2,1775498505872,4225,3364,22124,-6740287,2007303,464257,0,0,0,228,427,225,324,375,360,313,306,264,127,138,187,0,
1,1775498505888,-2158,612,9887,376292,-227241,332310,0,0,0,349,387,251,416,316,452,504,274,403,318,249,463,0,
2,1775498505888,4182,3067,26058,-6974859,2107485,620639,0,0,0,230,428,227,326,374,358,314,305,265,128,137,188,0,
1,1775498505904,-2234,622,10160,464257,-245567,400727,0,0,0,368,404,251,441,329,463,502,268,410,317,242,473,0,
2,1775498505904,4498,335,29418,-7056715,2134363,1031140,0,0,0,232,430,229,328,374,359,316,303,267,130,134,188,0,
1,1775498505920,-2177,607,10480,607200,-266337,458148,0,0,0,372,399,250,456,320,481,495,254,422,319,229,489,0,
2,1775498505920,4809,-6144,32184,-6914994,2342057,1511280,0,0,0,233,430,228,330,373,361,321,300,273,129,132,187,0,
1,1775498505936,-2158,469,10811,806342,-337197,493579,0,0,0,373,402,257,465,303,488,484,240,424,317,218,515,0,
2,1775498505936,3771,-16611,32347,-6300464,2498438,1521054,0,0,0,235,429,227,333,373,366,326,300,279,128,132,188,0,
1,1775498505952,-2292,315,11088,1025031,-455705,531452,0,0,0,389,425,266,470,317,482,471,235,413,310,209,538,0,
2,1775498505952,1249,-28107,28738,-5163032,2323731,1017701,0,0,0,236,428,228,335,374,371,329,304,280,129,132,191,0,
1,1775498505968,-2507,224,11375,1237612,-563217,575435,0,0,0,391,429,274,461,342,501,457,217,422,307,193,556,0,
2,1775498505968,-4139,-37520,22254,-3378084,2009746,86742,0,0,0,235,427,228,334,372,369,330,304,282,130,134,191,0,
1,1775498505984,-2455,110,11710,1497841,-629191,619417,0,0,0,382,434,259,457,357,534,435,206,435,300,186,557,0,
2,1775498505984,-10729,-41789,19191,-1640784,1395216,-561996,0,0,0,236,428,229,336,372,369,333,308,284,135,137,193,0,
1,1775498506000,-1866,-14,11983,1755626,-621860,605978,0,0,0,392,429,232,446,369,533,391,202,452,262,177,565,0,
2,1775498506000,-14132,-42981,18439,47647,273667,-814894,0,0,0,233,429,230,336,374,370,333,316,279,136,142,192,0,
1,1775498506016,-1780,-191,12476,2112371,-561996,491135,0,0,0,390,451,208,446,392,530,348,211,460,263,191,577,0,
2,1775498506016,-9791,-34917,19377,1595580,-818559,-665843,0,0,0,225,423,231,334,377,369,356,386,272,147,186,183,0,
1,1775498506032,-3082,-349,13060,2531425,-493579,460592,0,0,0,422,456,205,477,434,527,333,205,448,262,186,559,0,
2,1775498506032,-1651,-8810,21406,2965139,-1799608,-316428,0,0,0,228,409,197,335,373,344,401,447,253,178,234,170,0,
1,1775498506048,-4498,-402,13792,3059213,-426383,636521,0,0,0,417,450,217,471,440,544,303,200,463,240,171,553,0,
2,1775498506048,7341,29772,15577,3219259,-2813645,360410,0,0,0,232,379,187,328,350,343,426,466,252,187,268,174,0,
1,1775498506064,-4493,-296,15113,3772703,-312763,945619,0,0,0,438,428,221,450,416,535,307,180,452,219,149,566,0,
2,1775498506064,5422,22880,8107,3517362,-3268129,797790,0,0,0,233,376,164,333,349,342,450,476,248,208,323,174,0,
1,1775498506080,-5072,-373,16831,4525289,-237015,1200961,0,0,0,433,395,234,420,398,532,240,178,454,192,136,549,0,
2,1775498506080,-1981,47,12237,4820948,-2604729,827111,0,0,0,235,384,182,335,348,355,461,485,255,219,361,173,0,
1,1775498506096,-7303,-784,19602,5422039,-337197,1585806,0,0,0,407,407,222,406,405,517,208,163,459,179,128,482,0,
2,1775498506096,-6111,-7552,21292,5009094,-1176526,398284,0,0,0,239,396,200,340,357,370,475,492,263,214,358,174,0,
1,1775498506112,-9691,-899,23034,6373767,-499687,2136806,0,0,0,386,399,210,399,385,489,212,156,432,170,114,406,0,
2,1775498506112,-2948,521,19406,3940080,-339641,-233350,0,0,0,249,408,228,348,362,375,491,500,270,218,354,185,0,
1,1775498506128,-10480,-1134,25795,7089701,-420275,2681698,0,0,0,345,375,196,372,352,433,210,172,374,157,122,324,0,
2,1775498506128,1383,4211,14706,2989574,-3665,-497244,0,0,0,260,417,259,353,368,377,495,527,274,229,360,196,0,
1,1775498506144,-9504,-784,28131,7597941,-138055,3169168,0,0,0,284,353,191,322,311,362,211,201,313,145,158,239,0,
2,1775498506144,2823,1363,13012,2040289,-8552,-208915,0,0,0,274,431,279,366,380,387,508,536,281,241,368,208,0,
1,1775498506160,-8222,1043,28906,7832514,114842,3391523,0,0,0,250,314,205,277,241,309,252,227,277,148,193,172,0,
2,1775498506160,2330,-335,12553,1109331,-86742,74525,0,0,0,291,444,291,377,387,398,521,529,290,254,379,229,0,
1,1775498506176,-10165,5762,23981,8016995,-184481,3489262,0,0,0,253,276,202,262,183,271,303,243,267,169,215,128,0,
2,1775498506176,1483,536,11438,544891,-155159,139277,0,0,0,305,447,298,376,384,404,519,537,295,261,388,249,0,
1,1775498506192,-9384,10959,15094,7637037,-361632,3602883,0,0,0,255,284,209,266,190,280,307,262,267,172,237,128,0,
2,1775498506192,1186,1450,10332,335975,-190589,74525,0,0,0,318,452,305,377,382,409,523,542,300,261,387,261,0,
1,1775498506208,-5699,13582,10715,5545434,521678,2736676,0,0,0,253,290,208,266,196,283,301,269,271,165,244,128,0,
2,1775498506208,1244,1574,10098,262672,-180816,3665,0,0,0,328,452,318,383,382,415,520,541,296,264,383,266,0,
1,1775498506224,-3910,15793,10227,1734857,1672549,575435,0,0,0,252,287,203,266,190,281,317,265,271,170,237,132,0,
2,1775498506224,1273,1560,10260,175929,-158824,-10995,0,0,0,333,454,304,383,384,409,521,550,295,265,377,272,0,
1,1775498506240,-5106,14161,10246,-2302961,2328618,-1859473,0,0,0,259,294,205,271,192,281,317,266,270,172,241,132,0,
2,1775498506240,1225,1689,10270,128281,-144164,-24434,0,0,0,333,456,307,384,384,411,519,543,295,273,379,272,0,
1,1775498506256,-7154,8494,7231,-3657861,2150245,-2334726,0,0,0,260,297,204,272,193,280,316,272,271,176,245,130,0,
2,1775498506256,1124,1823,10131,152716,-113620,-48869,0,0,0,341,461,309,385,386,411,519,542,297,270,373,266,0,
1,1775498506272,-8040,4623,4187,-3692069,1539380,-1598023,0,0,0,266,293,203,290,194,278,316,270,268,186,246,129,0,
2,1775498506272,1100,1847,9949,224798,-59864,-65973,0,0,0,336,458,304,377,381,403,514,540,309,283,377,260,0,
1,1775498506288,-6336,4608,3981,-3679852,894306,-619417,0,0,0,264,292,205,287,195,276,313,272,268,186,253,132,0,
2,1775498506288,1105,1818,9810,302989,-14660,-70860,0,0,0,344,461,303,387,383,412,513,532,297,298,378,274,0,
1,1775498506304,-4326,5532,5293,-4189313,704938,-184481,0,0,0,262,295,208,275,196,277,311,274,270,183,256,133,0,
2,1775498506304,1148,1756,9748,375071,18325,-67195,0,0,0,355,466,310,393,387,417,512,523,302,298,359,282,0,
1,1775498506320,-4053,5714,6963,-5112942,861319,-302989,0,0,0,262,295,209,270,197,279,310,273,270,182,255,131,0,
2,1775498506320,1263,1660,9763,420275,23212,-61086,0,0,0,360,468,314,395,388,421,512,518,306,267,320,298,0,
1,1775498506336,-4962,4690,8193,-5918062,768468,-537561,0,0,0,260,294,210,271,199,280,309,273,269,181,256,130,0,
2,1775498506336,1344,1536,9782,438601,4886,-62308,0,0,0,366,466,311,397,390,421,513,507,308,254,301,308,0,
1,1775498506352,-5312,3168,9064,-6291911,349414,-717155,0,0,0,258,295,212,273,202,282,309,276,269,181,258,130,0,
2,1775498506352,1363,1392,9772,416610,-29321,-69638,0,0,0,372,465,316,402,391,423,512,496,309,256,294,314,0,
1,1775498506368,-5163,1847,10069,-6438519,-31764,-917519,0,0,0,260,295,214,273,199,283,309,275,269,187,258,133,0,
2,1775498506368,1320,1316,9753,353080,-69638,-70860,0,0,0,381,470,321,406,391,426,511,488,312,257,286,322,0,
1,1775498506384,-5441,703,11217,-6491054,-388510,-1073901,0,0,0,257,297,215,271,201,287,309,278,271,183,260,134,0,
2,1775498506384,1311,1335,9758,312763,-108734,-72082,0,0,0,391,476,318,406,393,428,510,478,317,254,278,333,0,
1,1775498506400,-5920,-62,12519,-6436076,-789237,-1083674,0,0,0,260,299,218,273,201,286,313,278,270,187,261,132,0,
2,1775498506400,1311,1368,9801,334754,-144164,-75747,0,0,0,402,476,325,406,394,432,507,467,322,254,268,348,0,
1,1775498506416,-6106,-363,14395,-6309016,-1230282,-949284,0,0,0,259,297,215,275,201,286,315,277,273,187,259,135,0,
2,1775498506416,1210,1340,9858,376292,-155159,-80634,0,0,0,414,479,333,411,396,435,508,456,325,259,252,362,0,
1,1775498506432,-6087,-363,16621,-6240599,-1578475,-802676,0,0,0,259,297,215,274,201,286,316,278,272,185,261,132,0,
2,1775498506432,1095,1253,9901,408057,-131946,-80634,0,0,0,422,487,328,420,408,442,507,440,323,259,238,373,0,
1,1775498506448,-5924,-665,19095,-6294355,-1788613,-742812,0,0,0,259,298,216,271,198,284,315,277,271,184,262,134,0,
2,1775498506448,1115,1196,9978,432492,-83077,-74525,0,0,0,441,504,353,426,411,441,505,425,328,258,230,386,0,
1,1775498506464,-5905,-1435,21555,-6335894,-1882686,-814894,0,0,0,258,298,217,272,201,287,315,279,272,184,264,134,0,
2,1775498506464,1225,1167,10083,475253,-47647,-74525,0,0,0,428,497,343,421,411,456,498,412,338,255,222,406,0,
1,1775498506480,-6417,-2493,23881,-6251594,-1908343,-1132544,0,0,0,259,298,219,272,201,287,317,278,274,183,257,132,0,
2,1775498506480,1340,1105,10165,551000,-40317,-95294,0,0,0,441,499,337,437,423,464,494,385,338,261,213,424,0,
1,1775498506496,-6992,-4149,26144,-6095213,-2091602,-1659109,0,0,0,258,297,217,272,199,287,319,276,275,182,252,131,0,
2,1775498506496,1373,1033,10246,645073,-40317,-131946,0,0,0,458,506,346,438,418,463,486,361,338,337,218,441,0,
1,1775498506512,-6848,-7954,27872,-5875301,-2511877,-2323731,0,0,0,256,295,214,274,199,288,323,275,275,184,250,131,0,
2,1775498506512,1383,952,10313,744033,-23212,-169820,0,0,0,464,510,350,442,433,482,481,332,351,269,182,477,0,
1,1775498506528,-6427,-15496,27456,-5500230,-2657263,-2638937,0,0,0,254,296,214,276,199,288,328,275,277,188,250,133,0,
2,1775498506528,1612,847,10413,836885,15882,-208915,0,0,0,470,516,345,444,438,491,471,306,359,253,171,500,0,
1,1775498506544,-5666,-23560,24498,-4954117,-2502104,-2277305,0,0,0,253,299,213,279,202,291,331,276,280,193,253,132,0,
2,1775498506544,1971,737,10768,960280,47647,-283441,0,0,0,478,519,340,450,450,507,452,278,362,255,167,523,0,
1,1775498506560,-1411,-31117,19468,-4023158,-2433687,-1237612,0,0,0,252,299,213,275,210,289,332,278,280,199,259,130,0,
2,1775498506560,2029,612,11433,1189965,17104,-375071,0,0,0,493,526,336,454,455,506,435,265,368,263,174,542,0,
1,1775498506576,6872,-37157,15697,-2667037,-2105041,-162490,0,0,0,250,302,214,263,237,280,332,278,279,198,259,130,0,
2,1775498506576,1799,430,12041,1547932,-73303,-437379,0,0,0,498,536,324,460,461,513,415,259,372,270,183,557,0,
1,1775498506592,13625,-41871,14046,-1055575,-968832,586430,0,0,0,249,301,214,280,204,291,328,272,279,205,258,133,0,
2,1775498506592,1469,282,12682,1963320,-161268,-461814,0,0,0,500,545,303,468,475,522,388,252,375,270,183,570,0,
1,1775498506608,10954,-38621,14352,627969,737925,905302,0,0,0,223,299,214,268,215,290,324,275,278,211,275,128,0,
2,1775498506608,1641,148,13448,2393370,-195476,-459370,0,0,0,511,541,291,469,483,525,356,246,378,287,190,577,0,
1,1775498506624,3364,-27140,16420,2158797,1938886,1193630,0,0,0,226,291,190,278,198,275,390,365,267,260,354,111,0,
2,1775498506624,2081,186,14386,2886949,-193033,-522900,0,0,0,522,530,280,464,486,524,323,241,375,289,191,580,0,
1,1775498506640,-5733,4096,19167,3235142,2712241,1180191,0,0,0,240,263,163,279,178,248,437,412,248,299,399,95,0,
2,1775498506640,2263,339,15410,3436727,-184481,-658512,0,0,0,525,527,265,461,492,518,290,233,366,258,176,590,0,
1,1775498506656,-8298,25695,12467,3279124,3354871,448375,0,0,0,245,252,147,282,164,239,459,450,254,361,422,86,0,
2,1775498506656,2636,430,17109,4223522,-193033,-812450,0,0,0,519,527,266,455,495,514,264,219,372,254,181,595,0,
1,1775498506672,-3584,12270,10011,4225965,3247359,-46425,0,0,0,248,253,156,288,162,249,478,478,263,408,440,92,0,
2,1775498506672,4048,617,19329,5119050,-229685,-999375,0,0,0,513,513,258,446,495,498,250,196,406,240,167,555,0,
1,1775498506688,1947,-3972,20133,5048190,1798387,-42760,0,0,0,256,262,173,293,170,259,495,496,262,434,456,99,0,
2,1775498506688,6015,492,22402,6221051,-304210,-1361007,0,0,0,502,494,264,438,473,488,239,167,389,224,151,483,0,
1,1775498506704,1603,-4761,24637,3904650,691499,262672,0,0,0,263,275,198,295,177,264,509,507,259,446,468,96,0,
2,1775498506704,7451,134,26714,7414682,-189368,-1821600,0,0,0,427,478,239,423,451,482,241,155,357,211,146,411,0,
1,1775498506720,-2526,871,18836,1988977,182037,379958,0,0,0,270,287,227,303,188,283,515,513,267,454,473,106,0,
2,1775498506720,6853,1536,30112,8295549,320093,-2200336,0,0,0,355,449,214,393,430,437,258,176,321,186,136,343,0,
1,1775498506736,-3335,1828,11395,1191187,-43982,-2443,0,0,0,284,295,238,324,206,308,514,512,288,459,471,137,0,
2,1775498506736,4517,4034,31524,8789129,636521,-2482556,0,0,0,305,434,222,345,392,395,273,226,281,154,134,276,0,
1,1775498506752,-2464,679,9193,930958,-112399,-169820,0,0,0,305,300,244,338,220,311,525,518,312,452,476,158,0,
2,1775498506752,4024,4986,28801,8857545,497244,-2599842,0,0,0,257,410,224,318,358,355,286,250,255,119,111,199,0,
1,1775498506768,-2321,349,10011,665843,-32986,-105068,0,0,0,305,305,274,347,215,334,525,517,315,457,478,179,0,
2,1775498506768,8011,6537,18870,8684060,340862,-2833192,0,0,0,251,416,230,316,358,357,287,268,258,118,118,192,0,
1,1775498506784,-2603,942,10404,470366,75747,-28099,0,0,0,319,310,261,361,216,333,533,512,308,450,484,194,0,
2,1775498506784,8930,8346,12998,8282110,73303,-3313333,0,0,0,256,421,236,320,361,362,293,285,262,122,123,194,0,
1,1775498506800,-2416,1277,10045,494800,123394,15882,0,0,0,330,317,283,351,216,319,554,493,313,440,478,184,0,
2,1775498506800,2440,13610,12696,6521597,-1192408,-3198490,0,0,0,254,422,234,318,361,360,292,288,256,122,125,194,0,
1,1775498506816,-2043,1201,9964,551000,84299,42760,0,0,0,321,330,308,359,249,347,543,496,344,447,462,216,0,
2,1775498506816,1110,18947,9112,1903456,-2878397,-1160643,0,0,0,253,422,232,315,357,353,290,285,250,121,125,192,0,
1,1775498506832,-1981,1052,10189,564439,-28099,53756,0,0,0,340,339,300,378,241,347,545,469,352,446,437,246,0,
2,1775498506832,6264,16735,5053,-3651752,-3029891,1144761,0,0,0,256,422,233,315,355,350,294,284,249,123,123,191,0,
1,1775498506848,-2144,1076,10251,560774,-139277,78190,0,0,0,325,338,296,365,248,356,543,449,353,433,420,262,0,
2,1775498506848,9140,8595,5671,-6676757,-1455080,1880243,0,0,0,255,423,232,320,358,355,297,286,250,125,124,192,0,
1,1775498506864,-2172,1052,10107,576656,-222354,105068,0,0,0,321,336,312,364,256,375,534,419,365,414,404,280,0,
2,1775498506864,5580,3158,8217,-6912551,-581543,1423316,0,0,0,249,423,233,321,360,356,299,288,249,124,128,191,0,
1,1775498506880,-2206,890,10495,565661,-273667,124616,0,0,0,321,342,322,358,277,387,530,399,382,417,389,298,0,
2,1775498506880,3115,1780,7647,-6206390,-891863,1070235,0,0,0,244,423,233,320,364,357,300,292,250,125,133,192,0,
1,1775498506896,-2359,703,11730,458148,-246789,138055,0,0,0,322,343,316,359,277,394,529,386,394,411,372,310,0,
2,1775498506896,4623,1866,6274,-5743354,-1093448,952949,0,0,0,241,422,234,317,361,355,303,297,253,132,136,190,0,
1,1775498506912,-2459,612,10715,432492,-238237,140499,0,0,0,332,343,313,369,267,395,526,377,397,397,356,317,0,
2,1775498506912,5948,2321,6824,-5886297,-590095,769690,0,0,0,241,422,234,319,363,356,304,296,259,175,157,188,0,
1,1775498506928,-2522,588,9471,432492,-211359,141720,0,0,0,341,346,317,375,267,395,525,367,398,388,343,323,0,
2,1775498506928,5053,2593,8877,-6393315,139277,640186,0,0,0,245,423,234,324,366,358,303,295,251,126,131,192,0,
1,1775498506944,-2555,559,9155,388510,-131946,145385,0,0,0,330,346,311,371,265,397,530,353,401,380,335,330,0,
2,1775498506944,3986,2057,10332,-6613227,532674,695164,0,0,0,244,424,234,324,366,359,303,296,254,127,131,192,0,
1,1775498506960,-2474,526,9475,315206,-45204,151494,0,0,0,318,350,293,369,272,395,531,348,404,374,329,337,0,
2,1775498506960,3742,1091,11064,-6420193,698829,901637,0,0,0,241,423,231,324,365,358,306,298,254,129,132,190,0,
1,1775498506976,-2364,516,9609,260228,7330,153938,0,0,0,327,355,283,366,290,391,523,341,410,372,326,346,0,
2,1775498506976,3943,1105,11864,-6184399,873537,1020144,0,0,0,242,425,234,325,366,360,309,301,257,127,132,190,0,
1,1775498506992,-2335,536,9624,243124,29321,153938,0,0,0,326,355,280,368,270,393,523,350,412,362,333,352,0,
2,1775498506992,4216,1402,12916,-6140417,1061683,1027475,0,0,0,239,423,234,322,372,359,309,300,258,130,133,194,0,
1,1775498507008,-2330,540,9667,263893,35430,153938,0,0,0,335,362,287,368,310,394,518,366,422,355,327,361,0,
2,1775498507008,4498,1598,14180,-6206390,1269377,902858,0,0,0,240,423,235,326,367,359,309,300,259,131,135,195,0,
1,1775498507024,-2244,483,9719,291993,26878,156381,0,0,0,334,362,287,367,293,392,518,327,414,346,309,358,0,
2,1775498507024,4570,1957,15893,-6257703,1470963,682947,0,0,0,242,424,235,329,366,359,299,298,261,130,133,192,0,
1,1775498507040,-2215,392,9806,329867,-7330,161268,0,0,0,341,374,294,364,287,395,514,298,384,345,294,365,0,
2,1775498507040,4517,2928,18994,-6409198,1643227,414166,0,0,0,240,422,234,327,365,358,304,299,262,128,131,191,0,
1,1775498507056,-2388,354,9920,390953,-61086,191811,0,0,0,341,381,283,376,306,403,494,289,377,338,291,384,0,
2,1775498507056,4766,3335,22555,-6699969,1760513,287106,0,0,0,240,422,235,327,366,359,315,301,262,126,130,192,0,
1,1775498507072,-2569,320,9973,471587,-96516,250454,0,0,0,336,378,277,385,306,419,496,277,392,332,273,413,0,
2,1775498507072,5154,2493,26264,-6990741,1880243,290771,0,0,0,241,423,235,333,368,363,318,300,264,128,129,190,0,
1,1775498507088,-2593,268,10016,559552,-96516,312763,0,0,0,343,378,278,385,298,425,499,268,406,325,256,434,0,
2,1775498507088,5015,-1842,29672,-7131240,2211332,561996,0,0,0,242,422,230,345,366,364,325,300,267,135,128,188,0,
1,1775498507104,-2560,215,10141,678060,-86742,368962,0,0,0,353,385,282,391,307,438,496,264,417,345,245,447,0,
2,1775498507104,1832,-10777,31768,-6690196,2818532,961501,0,0,0,247,422,228,360,364,363,335,302,270,140,125,190,0,
1,1775498507120,-2574,86,10246,812450,-103847,412944,0,0,0,368,391,274,406,319,456,485,249,427,349,232,466,0,
2,1775498507120,-2258,-21138,31720,-5786115,2704911,1180191,0,0,0,250,423,229,361,364,363,339,302,270,141,125,190,0,
1,1775498507136,-2541,-76,10476,951728,-144164,453262,0,0,0,384,409,261,422,327,466,469,233,437,307,222,489,0,
2,1775498507136,-3407,-32261,25943,-4208861,1620014,808785,0,0,0,251,425,229,359,365,362,342,304,273,144,128,193,0,
1,1775498507152,-2455,-224,10945,1123992,-195476,471587,0,0,0,383,438,269,436,347,481,463,239,450,292,223,507,0,
2,1775498507152,-3881,-40985,18779,-2361605,862541,-227241,0,0,0,250,424,229,363,367,366,342,305,273,146,132,195,0,
1,1775498507168,-2211,-325,11423,1364672,-254119,456927,0,0,0,401,420,254,430,347,480,449,220,452,296,203,538,0,
2,1775498507168,-8332,-43924,15831,-579100,734260,-1412320,0,0,0,249,424,225,362,367,365,341,305,275,148,136,194,0,
1,1775498507184,-2144,-459,11931,1643227,-340862,423940,0,0,0,421,426,223,432,380,481,418,218,456,301,209,558,0,
2,1775498507184,-12309,-39492,17621,825889,113620,-1540602,0,0,0,234,419,232,331,371,366,357,381,270,144,180,186,0,
1,1775498507200,-2651,-536,12701,2001194,-469144,436157,0,0,0,406,424,216,451,380,503,388,196,458,285,184,564,0,
2,1775498507200,-6695,-19707,21564,2463008,-1687209,-471587,0,0,0,229,401,205,331,362,349,401,447,251,174,231,178,0,
1,1775498507216,-3340,-526,13706,2493551,-560774,531452,0,0,0,406,411,211,427,404,507,355,196,448,253,179,564,0,
2,1775498507216,5570,13146,17401,3423288,-3117856,675616,0,0,0,232,382,190,326,347,344,430,467,248,185,263,177,0,
1,1775498507232,-3780,-402,15008,3125186,-593761,713490,0,0,0,396,448,205,452,430,512,313,188,487,251,173,543,0,
2,1775498507232,6393,18320,10112,3671300,-3196046,1091005,0,0,0,239,380,189,329,340,351,443,489,246,244,343,171,0,
1,1775498507248,-4522,-134,16860,3929085,-603534,935845,0,0,0,392,415,215,455,375,508,274,163,446,228,152,528,0,
2,1775498507248,-770,4096,12892,4527733,-2403143,1029918,0,0,0,245,390,205,339,344,366,473,494,260,248,359,176,0,
1,1775498507264,-6872,306,19578,5053077,-566882,1332907,0,0,0,388,376,226,423,339,508,230,163,420,200,121,482,0,
2,1775498507264,-5269,-2957,20947,4509407,-1036027,514348,0,0,0,253,399,233,346,349,377,497,500,274,245,360,182,0,
1,1775498507280,-9045,224,23335,6179512,-554665,1886351,0,0,0,377,361,225,396,322,483,211,166,397,175,113,403,0,
2,1775498507280,-3555,-894,21167,3574783,-276111,-122173,0,0,0,266,411,263,351,350,381,506,515,275,245,359,189,0,
1,1775498507296,-10342,-210,26915,7105584,-610865,2409252,0,0,0,332,355,221,356,301,442,204,169,370,150,121,326,0,
2,1775498507296,1426,2904,14266,2350609,-2443,-481361,0,0,0,275,424,282,354,355,381,514,526,276,233,341,199,0,
1,1775498507312,-9236,641,29581,7834957,-547335,2900388,0,0,0,275,337,216,305,273,387,213,189,329,144,147,263,0,
2,1775498507312,2474,1809,11270,1794722,119729,-261450,0,0,0,281,434,288,357,366,385,519,530,282,244,354,209,0,
1,1775498507328,-8370,2488,29246,8126951,-12217,3076317,0,0,0,245,305,205,272,227,316,251,217,285,158,191,191,0,
2,1775498507328,2139,330,10997,1221730,120951,-12217,0,0,0,300,446,296,364,375,390,521,533,284,262,380,227,0,
1,1775498507344,-10758,4000,23924,8316319,218689,3205820,0,0,0,244,271,193,261,179,269,293,238,271,167,221,125,0,
2,1775498507344,1670,502,11356,752585,-28099,41538,0,0,0,328,462,305,367,373,394,527,544,291,272,371,244,0,
1,1775498507360,-11150,7202,14687,8048760,-43982,3496592,0,0,0,256,275,207,271,181,282,303,249,276,175,233,131,0,
2,1775498507360,1564,971,10854,459370,-140499,12217,0,0,0,340,462,305,367,371,394,524,554,291,293,375,248,0,
1,1775498507376,-8959,12122,10227,6597344,-13439,3461162,0,0,0,258,283,208,269,184,278,303,256,275,174,234,132,0,
2,1775498507376,1517,1373,10189,284663,-199142,-28099,0,0,0,355,466,310,372,375,397,522,554,286,296,372,257,0,
1,1775498507392,-4240,18975,9772,2342057,554665,2097711,0,0,0,259,284,208,271,184,278,307,258,271,179,236,132,0,
2,1775498507392,1450,1545,10131,266337,-211359,-39095,0,0,0,366,470,318,372,373,397,524,556,286,303,372,262,0,
1,1775498507408,-2440,16573,9700,-2514321,1737300,-348193,0,0,0,259,284,210,270,188,278,308,263,279,176,238,131,0,
2,1775498507408,1349,1675,10189,306654,-226020,-50090,0,0,0,381,476,322,378,374,399,522,536,285,285,344,271,0,
1,1775498507424,-4292,9375,7408,-4555832,2476447,-1551597,0,0,0,260,287,207,270,187,278,311,267,279,176,240,133,0,
2,1775498507424,1186,1708,10203,382401,-204028,-63529,0,0,0,389,477,325,377,374,405,518,529,304,276,323,286,0,
1,1775498507440,-6791,4120,4364,-4465424,2252871,-1332907,0,0,0,259,287,208,270,187,278,320,263,277,179,241,133,0,
2,1775498507440,1143,1574,10088,431270,-125838,-67195,0,0,0,401,482,321,383,377,408,519,528,306,262,302,296,0,
1,1775498507456,-6714,3795,3292,-3992615,1251052,-478918,0,0,0,257,290,209,270,190,278,315,270,280,176,247,131,0,
2,1775498507456,1215,1407,9954,447153,-67195,-64751,0,0,0,401,486,321,386,381,416,513,515,316,256,290,310,0,
1,1775498507472,-5020,4991,4273,-4108679,614530,-40317,0,0,0,258,287,211,272,188,281,315,265,282,182,247,135,0,
2,1775498507472,1282,1277,9839,439822,-52534,-64751,0,0,0,409,494,323,388,384,416,512,503,310,254,280,313,0,
1,1775498507488,-3598,5809,6231,-4796513,559552,-191811,0,0,0,259,287,213,273,188,281,315,266,282,183,248,135,0,
2,1775498507488,1273,1244,9772,425162,-58643,-70860,0,0,0,412,495,321,389,388,420,509,495,309,249,274,323,0,
1,1775498507504,-3785,5585,7686,-5490456,577878,-569326,0,0,0,259,289,213,273,191,281,315,268,282,183,248,134,0,
2,1775498507504,1292,1234,9786,420275,-64751,-79412,0,0,0,419,495,321,394,388,422,505,483,311,249,263,340,0,
1,1775498507520,-4905,4345,8829,-6103765,157603,-954171,0,0,0,259,290,216,272,201,282,313,268,284,182,248,135,0,
2,1775498507520,1340,1172,9863,425162,-80634,-86742,0,0,0,433,497,328,398,385,420,502,466,309,254,246,350,0,
1,1775498507536,-5130,2866,10011,-6486167,-431270,-1109331,0,0,0,259,289,219,271,203,282,310,264,284,184,248,139,0,
2,1775498507536,1325,1072,9897,423940,-102625,-92851,0,0,0,439,499,332,396,385,426,496,449,313,252,235,356,0,
1,1775498507552,-4508,1282,11605,-6644992,-878424,-1058018,0,0,0,259,288,217,276,188,286,312,261,283,187,247,139,0,
2,1775498507552,1258,985,9863,401949,-114842,-94073,0,0,0,441,503,323,403,390,438,496,440,320,251,232,365,0,
1,1775498507568,-4249,382,13251,-6553362,-1022588,-831998,0,0,0,261,290,218,276,187,287,318,266,285,187,246,137,0,
2,1775498507568,1206,938,9839,377514,-118507,-90408,0,0,0,441,507,322,403,393,437,501,439,330,255,227,379,0,
1,1775498507584,-4340,19,14931,-6431189,-1207069,-535117,0,0,0,258,288,214,276,187,286,313,262,284,189,246,138,0,
2,1775498507584,1186,923,9868,367740,-114842,-84299,0,0,0,447,502,318,405,395,437,493,427,329,257,218,397,0,
1,1775498507600,-3986,-248,16989,-6368880,-1456302,-245567,0,0,0,261,291,219,276,187,286,313,262,284,191,249,141,0,
2,1775498507600,1215,904,9944,381179,-105068,-78190,0,0,0,462,516,326,413,403,451,493,410,332,259,218,404,0,
1,1775498507616,-3579,-674,19181,-6331007,-1583362,-147829,0,0,0,262,290,218,276,187,286,308,259,281,189,247,135,0,
2,1775498507616,1268,851,10011,410501,-102625,-79412,0,0,0,462,512,328,413,407,458,482,394,337,252,207,425,0,
1,1775498507632,-3981,-1048,21033,-6227160,-1616349,-361632,0,0,0,261,290,218,277,187,289,308,262,285,183,247,134,0,
2,1775498507632,1277,775,10054,452040,-102625,-94073,0,0,0,471,520,333,419,412,462,483,384,343,260,206,444,0,
1,1775498507648,-4465,-1344,23551,-5997474,-1824043,-893084,0,0,0,262,290,220,274,185,285,312,263,287,184,244,137,0,
2,1775498507648,1282,713,10136,524122,-87964,-119729,0,0,0,474,520,331,423,420,466,485,373,349,249,184,457,0,
1,1775498507664,-4747,-2407,26374,-5756794,-2025629,-1668883,0,0,0,261,291,220,275,186,287,311,260,287,191,247,139,0,
2,1775498507664,1273,670,10289,620639,-54977,-150272,0,0,0,480,533,350,422,422,474,474,349,351,246,173,486,0,
1,1775498507680,-6130,-6613,28169,-5529552,-2164906,-2564412,0,0,0,256,293,217,276,189,285,311,262,283,185,245,137,0,
2,1775498507680,1296,612,10447,746477,-9773,-182037,0,0,0,490,534,345,431,435,487,463,327,358,258,180,511,0,
1,1775498507696,-7930,-13764,27800,-5327966,-2340835,-2950479,0,0,0,255,295,216,275,191,287,314,260,284,187,241,136,0,
2,1775498507696,1421,516,10591,890641,29321,-211359,0,0,0,504,537,339,444,451,489,451,308,362,267,183,530,0,
1,1775498507712,-7604,-23938,24843,-4961447,-2598620,-2475225,0,0,0,253,296,217,275,191,291,315,258,287,190,241,138,0,
2,1775498507712,1502,382,10906,1072679,37873,-245567,0,0,0,511,542,337,444,455,492,432,286,362,268,180,543,0,
1,1775498507728,23,-32691,19942,-3827681,-2763554,-1302364,0,0,0,250,297,220,275,191,293,316,259,289,191,243,139,0,
2,1775498507728,1517,215,11294,1279151,28099,-273667,0,0,0,516,545,328,447,466,506,408,269,367,267,178,559,0,
1,1775498507744,8222,-37559,15931,-2250427,-2240653,-386066,0,0,0,251,297,220,275,191,290,318,261,289,190,242,136,0,
2,1775498507744,1564,52,11792,1533271,24434,-301767,0,0,0,526,549,314,453,481,510,383,259,371,270,178,577,0,
1,1775498507760,10763,-39731,13912,-733038,-900415,323758,0,0,0,244,296,218,272,191,290,327,262,288,197,250,135,0,
2,1775498507760,1474,-81,12668,1887573,72082,-333532,0,0,0,538,557,298,451,478,502,354,250,365,272,179,587,0,
1,1775498507776,8781,-37712,13816,612086,504574,976162,0,0,0,231,294,213,270,190,288,359,282,276,224,290,130,0,
2,1775498507776,1531,-90,13668,2350609,128281,-365297,0,0,0,549,559,292,458,480,508,332,240,365,273,182,587,0,
1,1775498507792,1856,-21220,17061,2212553,1908343,1188743,0,0,0,235,277,183,278,178,263,409,353,257,273,366,105,0,
2,1775498507792,1938,0,14457,2862514,72082,-409279,0,0,0,548,551,297,460,490,514,315,238,367,270,179,591,0,
1,1775498507808,-6580,7288,16941,3356093,3291341,775798,0,0,0,237,251,147,274,168,235,450,423,247,328,413,81,0,
2,1775498507808,2412,-105,15137,3398854,-105068,-483805,0,0,0,548,546,270,453,503,521,258,234,376,255,184,591,0,
1,1775498507824,-8901,22866,11859,3568674,4178318,-102625,0,0,0,239,247,137,278,164,228,471,470,254,361,423,78,0,
2,1775498507824,3508,-296,16439,4084244,-277332,-636521,0,0,0,549,546,280,433,488,503,239,217,386,243,173,567,0,
1,1775498507840,-1493,6432,13376,4148996,3233920,-463035,0,0,0,243,259,153,286,173,245,483,484,262,383,432,81,0,
2,1775498507840,5460,-497,18793,4930904,-383623,-978606,0,0,0,538,534,281,429,483,493,251,198,381,227,160,531,0,
1,1775498507856,4187,-3924,19133,4524067,1511280,-390953,0,0,0,258,265,172,297,168,253,494,494,257,421,448,90,0,
2,1775498507856,6929,-1139,22177,5808106,-494800,-1412320,0,0,0,496,508,263,431,481,488,230,171,356,217,152,465,0,
1,1775498507872,3421,-1574,21402,3682295,131946,163711,0,0,0,262,274,185,318,190,293,506,506,255,437,459,107,0,
2,1775498507872,8289,-2167,25852,6648657,-478918,-1857030,0,0,0,429,499,248,415,474,468,234,169,331,199,144,409,0,
1,1775498507888,-1861,1234,16616,1997529,-135612,382401,0,0,0,280,288,202,334,202,313,508,509,276,459,466,139,0,
2,1775498507888,9231,-449,28284,7435451,-183259,-2367713,0,0,0,355,468,220,383,446,430,248,192,308,182,141,345,0,
1,1775498507904,-3689,588,12026,878424,-103847,45204,0,0,0,292,299,216,349,216,326,523,520,317,460,477,158,0,
2,1775498507904,7915,4393,28221,7940026,-57421,-2833192,0,0,0,293,438,218,343,404,390,271,236,278,154,136,276,0,
1,1775498507920,-2301,421,9973,486248,-42760,-195476,0,0,0,301,306,226,361,219,332,539,525,333,454,487,168,0,
2,1775498507920,7451,6121,25896,8202698,-35430,-3200933,0,0,0,261,421,230,316,368,359,286,270,262,127,127,212,0,
1,1775498507936,-1445,976,9844,345749,-24434,-174707,0,0,0,305,307,232,366,213,336,545,523,328,449,493,182,0,
2,1775498507936,9255,5953,18090,7968126,-139277,-3578448,0,0,0,252,421,233,313,363,356,294,289,262,124,128,194,0,
1,1775498507952,-1813,1435,10217,299323,-6108,-62308,0,0,0,307,305,241,365,213,349,548,525,327,442,496,205,0,
2,1775498507952,9485,8178,11280,6960198,-541226,-3959628,0,0,0,249,425,231,315,365,357,290,288,257,142,159,198,0,
1,1775498507968,-1986,1493,10069,285884,39095,-6108,0,0,0,311,306,248,367,217,361,550,524,337,441,493,227,0,
2,1775498507968,6436,15352,9083,3491705,-1022588,-3327993,0,0,0,246,425,228,313,363,353,284,280,248,156,188,198,0,
1,1775498507984,-1756,1392,9992,306654,40317,13439,0,0,0,314,304,242,369,215,359,554,509,346,441,479,236,0,
2,1775498507984,3665,18592,9284,-1687209,-1252273,-1452637,0,0,0,243,424,225,316,367,356,288,283,248,153,186,196,0,
1,1775498508000,-1651,1392,10126,317649,-17104,26878,0,0,0,331,301,239,377,212,372,560,494,352,442,463,243,0,
2,1775498508000,3579,11878,9332,-5224119,-1161865,608421,0,0,0,238,424,224,316,367,355,291,285,249,153,185,194,0,
1,1775498508016,-1660,1507,10256,344527,-87964,52534,0,0,0,311,306,243,376,218,372,555,459,350,426,450,267,0,
2,1775498508016,4804,5034,6599,-5200906,-725707,1306029,0,0,0,233,424,224,314,367,355,293,288,250,157,186,196,0,
1,1775498508032,-1675,1507,10122,405614,-157603,73303,0,0,0,319,312,243,382,214,389,553,453,367,430,427,292,0,
2,1775498508032,4752,3149,4843,-4553389,-67195,1324355,0,0,0,233,426,228,314,367,357,294,290,252,151,185,197,0,
1,1775498508048,-1746,1383,9853,453262,-210137,83077,0,0,0,308,313,291,371,223,407,546,442,373,416,413,311,0,
2,1775498508048,3350,4694,5738,-4524067,359188,1176526,0,0,0,240,430,237,315,368,357,293,290,251,152,183,196,0,
1,1775498508064,-1880,1191,9590,455705,-212581,86742,0,0,0,312,317,250,376,235,390,543,426,366,401,402,309,0,
2,1775498508064,2512,5484,7518,-5159367,312763,1216843,0,0,0,238,430,240,310,362,351,292,288,249,149,181,193,0,
1,1775498508080,-1981,1052,9471,411723,-162490,97738,0,0,0,306,321,233,378,243,378,539,406,365,382,390,314,0,
2,1775498508080,2857,4900,8437,-5648059,285884,1270599,0,0,0,245,429,237,318,367,356,296,294,252,154,183,198,0,
1,1775498508096,-1943,1052,9542,362853,-103847,106290,0,0,0,305,317,233,378,244,379,538,390,365,379,377,328,0,
2,1775498508096,3498,3771,8939,-5712811,599869,1219287,0,0,0,236,429,239,315,368,357,292,293,249,152,182,195,0,
1,1775498508112,-1866,1038,9638,331088,-70860,108734,0,0,0,308,323,237,378,254,388,539,381,366,383,360,344,0,
2,1775498508112,3503,3125,9782,-5637064,924849,1153313,0,0,0,233,429,238,315,368,357,292,291,250,151,183,194,0,
1,1775498508128,-1837,1005,9681,313984,-70860,101403,0,0,0,309,325,238,383,259,399,538,370,374,415,345,353,0,
2,1775498508128,3287,2895,10997,-5608964,1103222,1144761,0,0,0,233,428,237,318,370,359,293,291,251,149,184,194,0,
1,1775498508144,-1852,981,9724,299323,-75747,97738,0,0,0,315,323,239,390,255,409,535,358,380,407,335,356,0,
2,1775498508144,3541,2904,12366,-5789780,1193630,1191187,0,0,0,232,428,237,318,370,360,294,292,253,149,181,195,0,
1,1775498508160,-1847,942,9734,301767,-87964,100181,0,0,0,318,330,242,396,265,412,533,356,375,353,333,356,0,
2,1775498508160,4091,2680,13898,-6084217,1363451,1209513,0,0,0,231,427,238,316,370,361,296,293,255,148,179,194,0,
1,1775498508176,-1809,890,9724,310319,-105068,100181,0,0,0,316,342,238,403,286,408,536,351,371,350,333,359,0,
2,1775498508176,4508,2120,15529,-6320011,1618792,1153313,0,0,0,230,428,239,315,369,360,299,296,257,145,175,192,0,
1,1775498508192,-1780,837,9763,312763,-122173,91629,0,0,0,321,351,243,400,291,413,529,331,380,346,318,385,0,
2,1775498508192,4455,2048,17535,-6323676,1826487,1061683,0,0,0,229,430,240,316,368,360,302,299,259,145,174,194,0,
1,1775498508208,-1847,799,9882,326202,-146607,87964,0,0,0,316,361,250,396,308,424,528,336,392,334,309,408,0,
2,1775498508208,4426,2598,20301,-6349333,2026850,1006705,0,0,0,229,429,240,316,368,362,303,298,259,147,177,197,0,
1,1775498508224,-1943,775,9968,366519,-169820,106290,0,0,0,323,358,251,384,307,427,523,328,423,329,301,398,0,
2,1775498508224,4316,2794,23847,-6517932,2211332,1061683,0,0,0,230,427,239,315,367,361,303,296,262,146,172,196,0,
1,1775498508240,-2038,722,9920,430049,-183259,149051,0,0,0,333,346,245,402,306,429,506,290,390,347,288,413,0,
2,1775498508240,4134,1564,27662,-6660874,2294409,1225395,0,0,0,233,429,241,316,367,362,306,294,262,148,169,196,0,
1,1775498508256,-2077,650,9868,486248,-189368,190589,0,0,0,342,359,253,413,290,437,511,274,416,328,262,440,0,
2,1775498508256,3833,-3196,30547,-6571688,2318844,1413542,0,0,0,229,426,237,322,368,367,309,291,262,148,166,195,0,
1,1775498508272,-2105,555,9940,552222,-213802,237015,0,0,0,339,353,250,417,290,448,497,266,427,311,239,464,0,
2,1775498508272,3196,-11031,31811,-6243042,2283414,1378111,0,0,0,237,431,241,327,369,368,314,288,268,151,165,194,0,
1,1775498508288,-2282,469,10131,640186,-271224,288328,0,0,0,342,386,240,439,326,461,490,255,430,305,230,487,0,
2,1775498508288,2321,-22746,29533,-5473352,1958433,867428,0,0,0,237,429,240,321,362,365,314,294,274,146,158,195,0,
1,1775498508304,-2517,421,10457,758694,-340862,354301,0,0,0,358,383,232,451,337,478,474,235,434,294,214,500,0,
2,1775498508304,-167,-33787,22904,-3995058,1626123,-206472,0,0,0,236,425,238,325,366,366,316,298,272,151,165,198,0,
1,1775498508320,-2742,382,10921,923628,-423940,428827,0,0,0,365,388,230,459,327,485,479,219,429,292,198,526,0,
2,1775498508320,-6020,-40425,17401,-2167349,1486845,-1254717,0,0,0,235,424,237,327,367,369,315,296,270,152,168,200,0,
1,1775498508336,-2493,282,11519,1178969,-497244,503352,0,0,0,374,390,230,463,352,488,464,207,439,285,188,547,0,
2,1775498508336,-11945,-40775,16759,-386066,835663,-1451415,0,0,0,235,423,239,327,368,370,319,300,273,150,165,200,0,
1,1775498508352,-1713,172,12132,1478293,-531452,507018,0,0,0,381,383,233,459,375,511,425,212,451,266,186,559,0,
2,1775498508352,-11404,-36927,17583,1083674,-237015,-968832,0,0,0,228,424,236,328,377,370,322,324,271,139,162,194,0,
1,1775498508368,-1775,38,12768,1839926,-565661,425162,0,0,0,383,386,233,469,354,536,395,208,451,262,176,566,0,
2,1775498508368,-4694,-26958,18683,2453234,-1092227,-164933,0,0,0,223,420,226,331,382,369,359,394,268,147,187,186,0,
1,1775498508384,-2981,-47,13500,2384817,-612086,427605,0,0,0,394,395,218,484,342,537,368,181,462,265,154,567,0,
2,1775498508384,2254,3866,19669,3375641,-1448972,792903,0,0,0,226,401,200,335,370,356,396,450,251,168,230,177,0,
1,1775498508400,-3646,-28,14170,3010343,-559552,627969,0,0,0,392,394,208,468,346,537,331,190,468,240,153,568,0,
2,1775498508400,5513,32912,13294,3341432,-2032959,1765400,0,0,0,233,384,179,337,354,344,427,469,243,195,276,173,0,
1,1775498508416,-3833,-52,15156,3602883,-432492,810007,0,0,0,395,382,216,461,335,528,306,181,453,221,142,570,0,
2,1775498508416,789,21832,6446,3657861,-2632829,1869247,0,0,0,239,386,187,339,351,354,461,480,254,224,318,177,0,
1,1775498508432,-5269,52,17075,4456872,-261450,1065348,0,0,0,395,383,205,479,358,535,260,184,481,209,132,523,0,
2,1775498508432,-4814,268,13888,4879591,-1883908,908967,0,0,0,245,394,213,346,355,370,477,492,263,243,348,178,0,
1,1775498508448,-7575,181,19645,5309640,-199142,1440420,0,0,0,411,366,221,444,333,534,230,150,484,176,99,474,0,
2,1775498508448,-5087,-6609,22191,4890587,-660956,-296880,0,0,0,253,405,249,350,356,381,493,503,280,256,360,188,0,
1,1775498508464,-10016,-14,22665,6152634,-272445,1963320,0,0,0,389,381,227,391,349,518,199,144,456,160,110,427,0,
2,1775498508464,502,928,20215,3630982,-262672,-823446,0,0,0,274,425,281,363,366,389,507,519,281,247,340,215,0,
1,1775498508480,-11911,-741,25651,6960198,-444709,2560747,0,0,0,344,388,215,418,337,435,232,163,384,168,127,329,0,
2,1775498508480,3871,2359,14587,2301740,-304210,-403171,0,0,0,293,434,295,369,377,403,515,531,288,247,333,253,0,
1,1775498508496,-11083,-76,28188,7572285,-654847,3200933,0,0,0,302,353,200,342,280,376,227,186,334,151,138,252,0,
2,1775498508496,3077,-100,11902,1197295,-271224,144164,0,0,0,327,449,302,374,384,414,512,539,297,252,332,284,0,
1,1775498508512,-9322,2560,29638,7910704,-649960,3627317,0,0,0,258,309,190,287,233,312,257,212,288,147,169,167,0,
2,1775498508512,1368,-167,11060,570548,-157603,202807,0,0,0,343,457,318,377,383,423,512,542,294,294,364,300,0,
1,1775498508528,-10141,7240,25068,8068308,-157603,3815464,0,0,0,250,286,200,271,202,286,291,243,278,154,210,129,0,
2,1775498508528,1253,856,10351,237015,-111177,90408,0,0,0,354,458,323,376,374,416,515,556,294,304,368,308,0,
1,1775498508544,-11045,11572,15060,7848396,331088,3902207,0,0,0,266,286,208,286,195,287,304,273,284,164,241,131,0,
2,1775498508544,1765,1445,10069,141720,-184481,8552,0,0,0,359,463,318,388,383,426,522,552,301,305,371,315,0,
1,1775498508560,-8705,13275,10399,6674313,605978,3231477,0,0,0,274,291,202,308,203,282,312,290,277,171,254,129,0,
2,1775498508560,1631,1426,10155,103847,-213802,12217,0,0,0,366,467,322,391,384,435,524,546,306,308,372,325,0,
1,1775498508576,-4824,17793,9609,3078760,990823,873537,0,0,0,272,293,199,308,205,281,315,290,271,171,255,127,0,
2,1775498508576,1435,1497,10198,127059,-177150,9773,0,0,0,374,466,321,391,386,434,522,538,305,316,372,328,0,
1,1775498508592,-3704,18980,9619,-1262047,1478293,-1776396,0,0,0,266,299,203,290,211,281,303,291,272,169,256,129,0,
2,1775498508592,1378,1660,10165,228463,-125838,-10995,0,0,0,383,468,326,391,385,433,521,529,303,290,332,334,0,
1,1775498508608,-5977,12194,7872,-4416555,1847256,-3232698,0,0,0,254,301,208,265,211,284,289,290,275,161,259,132,0,
2,1775498508608,1340,1675,10136,346971,-65973,-29321,0,0,0,387,471,339,391,385,440,523,522,310,279,308,347,0,
1,1775498508624,-8035,6030,5470,-4825835,1513724,-2623055,0,0,0,252,301,206,266,214,286,289,289,278,164,259,134,0,
2,1775498508624,1354,1512,10040,427605,0,-35430,0,0,0,387,470,351,394,386,450,524,511,319,276,291,364,0,
1,1775498508640,-6834,4048,4355,-4454429,753807,-1221730,0,0,0,253,302,203,268,215,284,298,297,278,166,269,130,0,
2,1775498508640,1450,1311,9844,441044,34208,-37873,0,0,0,390,468,339,396,387,450,519,495,315,265,269,375,0,
1,1775498508656,-3876,4369,5269,-4541172,452040,-291993,0,0,0,254,301,207,268,216,288,294,300,280,166,267,134,0,
2,1775498508656,1536,1210,9719,419053,31764,-48869,0,0,0,403,469,322,400,387,445,514,484,315,265,262,381,0,
1,1775498508672,-2105,5192,7293,-5177693,811229,-174707,0,0,0,254,301,206,270,214,285,298,300,276,170,267,132,0,
2,1775498508672,1603,1191,9715,382401,2443,-70860,0,0,0,418,474,321,409,393,449,512,473,323,264,257,389,0,
1,1775498508688,-3326,4752,8963,-6021909,1083674,-480140,0,0,0,254,300,206,271,215,287,297,299,276,169,269,132,0,
2,1775498508688,1641,1210,9782,362853,-42760,-90408,0,0,0,422,479,319,416,400,454,508,454,326,263,251,395,0,
1,1775498508704,-4962,3493,9925,-6566801,747699,-692721,0,0,0,257,302,209,267,231,282,301,304,278,167,268,132,0,
2,1775498508704,1651,1206,9825,367740,-94073,-101403,0,0,0,423,482,320,413,403,454,502,435,328,268,239,411,0,
1,1775498508720,-5206,2100,10906,-6708522,87964,-741590,0,0,0,259,304,211,269,226,285,303,305,278,166,268,131,0,
2,1775498508720,1588,1148,9825,379958,-125838,-101403,0,0,0,427,492,327,416,402,454,505,426,335,268,232,426,0,
1,1775498508736,-4871,741,12428,-6706078,-504574,-796568,0,0,0,257,304,212,272,217,290,302,304,279,168,269,132,0,
2,1775498508736,1483,1067,9853,390953,-130725,-101403,0,0,0,443,492,326,424,408,463,504,412,332,268,219,438,0,
1,1775498508752,-4804,-38,14017,-6570466,-853989,-868650,0,0,0,255,304,211,272,217,292,300,304,282,171,269,134,0,
2,1775498508752,1402,971,9897,395840,-96516,-98960,0,0,0,447,493,324,427,419,470,493,401,330,269,220,451,0,
1,1775498508768,-4967,-473,15673,-6404311,-1197295,-891863,0,0,0,256,302,210,273,214,294,300,301,286,172,267,133,0,
2,1775498508768,1445,894,9925,404392,-64751,-95294,0,0,0,447,498,332,427,424,472,487,386,333,267,215,463,0,
1,1775498508784,-4905,-780,17573,-6262590,-1499063,-856433,0,0,0,257,301,213,274,214,296,301,301,288,171,267,133,0,
2,1775498508784,1574,847,9959,425162,-56199,-101403,0,0,0,462,503,337,434,430,479,485,376,345,260,197,483,0,
1,1775498508800,-4982,-1316,19468,-6131865,-1533271,-880867,0,0,0,259,303,212,277,216,293,303,300,279,171,268,128,0,
2,1775498508800,1670,794,10045,467922,-62308,-128281,0,0,0,475,506,339,437,442,482,475,359,348,261,182,502,0,
1,1775498508816,-5843,-1952,21607,-5918062,-1453859,-1029918,0,0,0,258,302,213,274,216,292,299,300,279,175,273,133,0,
2,1775498508816,1732,751,10141,524122,-58643,-164933,0,0,0,476,513,345,438,447,492,467,335,355,255,176,523,0,
1,1775498508832,-7116,-2584,23871,-5693264,-1514945,-1345125,0,0,0,258,306,213,274,216,292,300,307,278,168,279,129,0,
2,1775498508832,1785,650,10227,591317,-46425,-213802,0,0,0,478,519,345,441,450,500,458,312,362,253,174,540,0,
1,1775498508848,-7623,-4833,26781,-5574756,-1988977,-1952325,0,0,0,257,306,213,275,218,294,300,298,280,171,267,130,0,
2,1775498508848,1794,521,10375,679282,-40317,-261450,0,0,0,484,524,338,444,456,500,448,299,365,260,177,551,0,
1,1775498508864,-6905,-10413,28714,-5574756,-2558303,-2618168,0,0,0,259,305,215,276,214,294,309,296,283,175,264,134,0,
2,1775498508864,1785,435,10658,819781,-57421,-306654,0,0,0,490,529,333,452,464,500,432,284,369,265,178,560,0,
1,1775498508880,-5805,-20937,27116,-5404935,-2647489,-2806314,0,0,0,253,305,215,277,216,294,311,302,287,173,263,131,0,
2,1775498508880,1837,378,11021,1017701,-106290,-337197,0,0,0,493,530,325,468,472,507,413,264,369,265,176,568,0,
1,1775498508896,-3680,-31031,22837,-4739092,-2464230,-2315179,0,0,0,251,308,215,274,216,292,309,301,286,179,266,133,0,
2,1775498508896,1986,277,11418,1243721,-136833,-377514,0,0,0,497,528,312,478,480,520,391,252,367,267,179,580,0,
1,1775498508912,2239,-37659,16951,-3097086,-2122145,-1010371,0,0,0,235,310,209,272,209,292,314,280,284,188,257,134,0,
2,1775498508912,1866,196,11974,1528384,-112399,-428827,0,0,0,511,532,307,474,496,520,363,246,371,265,183,593,0,
1,1775498508928,8217,-40918,14290,-1442863,-1446528,147829,0,0,0,224,301,202,269,200,286,330,294,282,209,282,130,0,
2,1775498508928,1249,191,12792,1937664,-34208,-438601,0,0,0,511,535,288,483,509,530,333,240,378,257,180,596,0,
1,1775498508944,11275,-41464,16065,384845,53756,751364,0,0,0,228,283,192,269,188,273,367,354,274,246,334,117,0,
2,1775498508944,1052,157,13606,2406809,2443,-389732,0,0,0,512,536,266,478,514,527,305,235,375,265,187,613,0,
1,1775498508960,7140,-28877,16798,2724458,2102598,966388,0,0,0,236,265,167,273,174,252,415,412,256,284,381,96,0,
2,1775498508960,1828,52,14386,2944370,-62308,-351858,0,0,0,510,532,248,478,507,516,286,234,374,278,194,629,0,
1,1775498508976,-3192,3172,15506,4508185,3673743,999375,0,0,0,241,258,140,278,169,234,451,442,243,320,409,81,0,
2,1775498508976,2871,-105,15333,3546683,-199142,-444709,0,0,0,526,537,265,471,513,533,270,224,378,259,178,618,0,
1,1775498508992,-5613,14778,14620,4692666,3463605,852767,0,0,0,247,267,144,282,175,239,463,463,252,359,422,85,0,
2,1775498508992,3843,-325,16798,4247956,-311541,-642630,0,0,0,538,524,269,460,498,535,238,194,367,246,165,587,0,
1,1775498509008,-1809,4369,17233,4966334,2100154,560774,0,0,0,250,265,152,293,170,259,476,476,264,398,434,91,0,
2,1775498509008,5254,-603,19167,5038416,-353080,-944397,0,0,0,534,513,273,457,492,535,237,173,372,228,155,529,0,
1,1775498509024,1459,-5106,21450,4763527,526565,273667,0,0,0,248,279,167,304,189,279,494,494,277,411,448,108,0,
2,1775498509024,7102,-1407,22976,5965709,-221133,-1374446,0,0,0,498,494,263,442,478,516,226,156,357,224,150,472,0,
1,1775498509040,-942,-2579,19779,3187494,107512,244346,0,0,0,259,301,195,313,217,302,505,506,287,425,460,137,0,
2,1775498509040,8064,-1765,26508,6913772,24434,-1835039,0,0,0,439,475,247,423,463,483,234,156,342,207,139,407,0,
1,1775498509056,-3598,-253,14788,1522276,140499,48869,0,0,0,277,322,216,321,241,339,508,504,314,436,470,199,0,
2,1775498509056,7188,-947,29126,7740884,191811,-2218662,0,0,0,375,456,226,394,440,435,250,177,315,185,133,345,0,
1,1775498509072,-3374,449,10332,697608,240680,-208915,0,0,0,297,317,236,332,221,349,527,509,346,456,486,216,0,
2,1775498509072,6949,272,30107,8425053,460592,-2535090,0,0,0,314,437,218,355,403,391,267,222,280,153,127,268,0,
1,1775498509088,-2096,296,9609,433714,260228,-204028,0,0,0,311,317,238,345,222,358,528,503,363,470,486,236,0,
2,1775498509088,8308,3096,28767,8983384,1222952,-2937040,0,0,0,271,422,224,325,372,364,282,264,263,129,126,207,0,
1,1775498509104,-1799,363,10256,177150,261450,-97738,0,0,0,310,317,236,351,229,361,531,501,353,469,487,256,0,
2,1775498509104,7977,8269,21531,8603426,1411098,-3455053,0,0,0,254,415,229,314,362,355,290,283,263,126,131,190,0,
1,1775498509120,-2043,808,10375,25656,233350,-36651,0,0,0,308,330,236,351,245,357,539,501,354,466,496,262,0,
2,1775498509120,4321,13103,13127,6896668,-240680,-3805690,0,0,0,256,418,229,319,364,359,294,288,264,130,134,192,0,
1,1775498509136,-2057,1158,10136,19547,167377,-12217,0,0,0,312,344,237,351,259,356,542,498,354,468,499,278,0,
2,1775498509136,3531,17233,9590,2922379,-2338392,-2657263,0,0,0,258,420,227,322,366,356,297,289,258,125,129,189,0,
1,1775498509152,-1919,1234,10126,113620,64751,10995,0,0,0,315,347,243,352,263,365,541,495,364,471,487,291,0,
2,1775498509152,5451,17506,8437,-1729970,-2659707,-929736,0,0,0,256,422,227,320,367,358,294,289,255,125,132,192,0,
1,1775498509168,-1856,1201,10222,194255,-43982,40317,0,0,0,316,351,248,354,265,377,542,497,386,466,474,291,0,
2,1775498509168,6149,11136,7858,-4932125,-1715309,398284,0,0,0,256,423,231,320,366,358,297,292,259,125,133,193,0,
1,1775498509184,-1919,1158,10031,250454,-140499,62308,0,0,0,318,357,248,357,268,387,539,498,385,451,472,299,0,
2,1775498509184,4972,5087,5245,-4928460,-1231504,498466,0,0,0,247,423,232,318,366,359,298,292,260,125,132,193,0,
1,1775498509200,-2024,1100,8518,246789,-169820,78190,0,0,0,316,358,242,362,271,398,534,491,379,437,470,304,0,
2,1775498509200,4694,3235,3153,-4447098,-961501,280998,0,0,0,244,423,230,317,367,359,298,295,260,124,133,192,0,
1,1775498509216,-2110,1028,7341,196698,-130725,80634,0,0,0,317,357,246,358,274,390,532,484,399,437,454,315,0,
2,1775498509216,4599,4355,3761,-4657236,-441044,166155,0,0,0,240,422,231,318,369,362,298,296,260,128,136,195,0,
1,1775498509232,-2144,995,8805,217468,-113620,79412,0,0,0,314,349,272,361,272,401,532,458,396,429,439,324,0,
2,1775498509232,3876,4886,5489,-5181358,73303,268780,0,0,0,242,424,237,318,370,366,298,297,262,123,134,196,0,
1,1775498509248,-2115,995,9897,244346,-96516,83077,0,0,0,312,350,242,356,270,390,532,443,392,424,443,328,0,
2,1775498509248,3421,4096,6939,-5489235,361632,605978,0,0,0,243,425,234,317,367,361,298,299,259,124,136,193,0,
1,1775498509264,-2057,985,9844,241902,-64751,89186,0,0,0,314,353,235,359,272,385,530,430,392,421,427,323,0,
2,1775498509264,3637,3201,7896,-5527108,635299,945619,0,0,0,244,426,233,317,368,359,297,300,256,124,139,190,0,
1,1775498509280,-1986,976,9585,229685,-48869,90408,0,0,0,316,360,240,358,271,388,530,418,395,424,413,329,0,
2,1775498509280,3953,2818,9011,-5529552,1028697,1242499,0,0,0,244,428,234,317,368,358,299,302,257,129,142,191,0,
1,1775498509296,-1957,957,9629,229685,-57421,86742,0,0,0,312,361,240,359,276,391,526,413,396,413,403,331,0,
2,1775498509296,3651,2928,10547,-5737246,1345125,1457524,0,0,0,242,426,234,317,368,359,300,303,261,129,141,192,0,
1,1775498509312,-1990,909,9696,235793,-67195,79412,0,0,0,312,359,241,357,277,391,519,400,401,397,397,336,0,
2,1775498509312,3172,2799,12045,-5987701,1480737,1604132,0,0,0,243,425,236,318,370,363,299,302,264,124,139,193,0,
1,1775498509328,-2038,861,9681,239459,-63529,73303,0,0,0,316,352,245,359,278,398,519,390,403,387,389,348,0,
2,1775498509328,2914,2206,13462,-6148969,1484402,1628566,0,0,0,243,425,236,319,373,365,301,303,265,125,139,194,0,
1,1775498509344,-2048,832,9672,250454,-50090,69638,0,0,0,318,351,241,369,290,400,522,384,402,384,378,364,0,
2,1775498509344,3062,1809,15003,-6144082,1522276,1455080,0,0,0,240,423,235,318,375,364,305,306,268,123,138,193,0,
1,1775498509360,-1981,789,9739,274889,-59864,72082,0,0,0,332,355,234,374,297,400,520,376,405,384,366,385,0,
2,1775498509360,3058,1990,17037,-6148969,1598023,1187522,0,0,0,239,425,238,318,371,366,303,306,267,124,138,193,0,
1,1775498509376,-1971,722,9806,302989,-91629,84299,0,0,0,345,354,235,373,291,412,515,369,411,377,354,406,0,
2,1775498509376,2732,2713,19779,-6287025,1638340,948062,0,0,0,238,424,234,320,370,364,303,306,264,126,139,190,0,
1,1775498509392,-2072,684,9877,346971,-123394,108734,0,0,0,326,355,243,376,298,422,511,354,409,359,344,415,0,
2,1775498509392,2603,3101,23091,-6570466,1616349,908967,0,0,0,239,427,236,320,370,364,308,306,269,126,139,193,0,
1,1775498509408,-2177,655,9892,412944,-134390,146607,0,0,0,332,364,252,387,311,424,508,331,412,352,326,420,0,
2,1775498509408,2809,2316,26695,-6833138,1601688,1053131,0,0,0,239,427,235,320,377,363,311,306,269,127,139,193,0,
1,1775498509424,-2244,607,9873,481361,-128281,184481,0,0,0,343,370,274,399,330,445,504,324,417,339,303,443,0,
2,1775498509424,3254,-751,29700,-6921103,1633453,1375668,0,0,0,237,425,233,323,373,363,312,303,269,128,139,193,0,
1,1775498509440,-2354,502,9901,551000,-119729,223576,0,0,0,343,384,258,404,314,458,499,302,417,337,285,455,0,
2,1775498509440,3905,-8423,31375,-6662096,1732413,1643227,0,0,0,244,428,235,330,372,364,317,300,270,128,137,189,0,
1,1775498509456,-2455,416,10002,626747,-118507,270002,0,0,0,369,397,242,424,346,458,498,278,436,329,279,477,0,
2,1775498509456,4694,-18755,30150,-6067113,1602910,1423316,0,0,0,242,427,232,332,373,366,320,303,272,130,138,190,0,
1,1775498509472,-2526,344,10232,729373,-127059,323758,0,0,0,374,389,243,438,331,476,486,263,431,304,234,487,0,
2,1775498509472,3503,-30782,23799,-4681671,1480737,329867,0,0,0,241,425,230,333,374,367,323,307,274,129,137,190,0,
1,1775498509488,-2560,258,10600,878424,-177150,384845,0,0,0,382,405,243,455,321,488,495,242,429,291,206,518,0,
2,1775498509488,-3000,-37688,18291,-2905275,1667662,-845437,0,0,0,240,425,230,332,372,367,326,310,276,129,135,190,0,
1,1775498509504,-2421,143,11079,1055575,-239459,436157,0,0,0,402,435,241,458,316,494,475,226,449,291,195,538,0,
2,1775498509504,-12371,-39837,16338,-1066570,1301142,-1378111,0,0,0,236,426,228,332,375,365,331,329,273,135,149,190,0,
1,1775498509520,-2062,19,11734,1309695,-270002,434936,0,0,0,414,437,226,457,318,497,443,209,455,286,181,554,0,
2,1775498509520,-12423,-38329,17013,346971,-131946,-911410,0,0,0,233,423,226,334,377,364,353,381,265,148,182,185,0,
1,1775498509536,-1904,-143,12433,1651779,-340862,395840,0,0,0,423,440,210,480,348,504,404,199,451,278,177,563,0,
2,1775498509536,-6925,-26752,20052,1948660,-1412320,-477696,0,0,0,231,410,216,334,370,358,387,438,255,169,225,179,0,
1,1775498509552,-2474,-186,13127,2032959,-471587,399505,0,0,0,410,452,199,492,369,513,368,197,448,264,173,571,0,
2,1775498509552,1139,2818,17583,3358537,-2510656,-305432,0,0,0,231,392,194,329,357,347,417,466,248,187,268,178,0,
1,1775498509568,-3330,-33,14266,2593733,-557109,537561,0,0,0,408,452,199,486,359,526,342,192,448,247,158,572,0,
2,1775498509568,5384,17918,11931,4228409,-3167947,-239459,0,0,0,237,388,186,332,351,347,444,476,256,225,302,177,0,
1,1775498509584,-4087,86,15544,3265685,-420275,728151,0,0,0,449,430,214,489,344,533,305,177,450,235,139,563,0,
2,1775498509584,2129,5278,14419,4982216,-2302961,-50090,0,0,0,240,397,193,337,356,359,461,479,268,285,343,178,0,
1,1775498509600,-5149,86,17042,4046371,-117286,981049,0,0,0,482,398,230,481,333,523,262,155,450,222,124,541,0,
2,1775498509600,-1526,-3742,20363,4954117,-878424,83077,0,0,0,243,405,219,345,360,375,472,491,266,213,331,183,0,
1,1775498509616,-6872,-76,19784,5017647,108734,1363451,0,0,0,436,380,239,433,344,510,245,147,458,195,118,484,0,
2,1775498509616,-1943,-1177,20789,3811799,53756,-178372,0,0,0,249,421,240,354,368,381,487,505,276,241,351,194,0,
1,1775498509632,-9916,-880,22493,5892406,37873,1853365,0,0,0,399,386,246,401,364,508,185,144,467,160,118,421,0,
2,1775498509632,823,2029,14993,2615724,226020,-455705,0,0,0,269,439,268,358,377,378,496,520,269,270,367,193,0,
1,1775498509648,-11552,-1143,25202,6739065,-73303,2525316,0,0,0,339,375,229,379,335,447,199,166,401,145,124,357,0,
2,1775498509648,3101,1660,10959,1688431,207694,-340862,0,0,0,289,450,281,367,382,392,507,530,281,256,352,220,0,
1,1775498509664,-10160,0,27384,7326717,210137,3121521,0,0,0,293,361,213,329,304,394,197,182,336,142,143,283,0,
2,1775498509664,3163,-114,10672,962723,3665,-14660,0,0,0,309,452,295,375,378,404,507,546,278,282,374,232,0,
1,1775498509680,-9332,2187,27657,7662693,450818,3401297,0,0,0,255,313,197,288,236,328,242,214,291,153,179,198,0,
2,1775498509680,2153,95,11170,531452,-184481,68416,0,0,0,328,459,301,381,378,409,513,545,283,262,346,259,0,
1,1775498509696,-9538,5518,25216,7964460,542448,3573561,0,0,0,267,284,210,271,193,291,284,250,281,168,220,150,0,
2,1775498509696,1612,799,10787,293215,-241902,45204,0,0,0,339,461,304,385,379,410,514,548,282,262,342,267,0,
1,1775498509712,-9174,9432,16487,7720114,940732,3628539,0,0,0,267,288,212,269,194,284,296,286,282,167,247,136,0,
2,1775498509712,1593,1177,10212,197920,-177150,-4886,0,0,0,348,462,311,389,377,411,521,553,285,267,346,266,0,
1,1775498509728,-8265,12170,10251,6632774,1413542,3360980,0,0,0,260,297,209,268,205,284,294,305,279,165,268,132,0,
2,1775498509728,1718,1253,10227,136833,-109955,-15882,0,0,0,356,464,318,391,375,411,523,553,287,269,348,268,0,
1,1775498509744,-6633,16496,9265,3293785,1536936,1908343,0,0,0,261,299,209,271,206,286,298,306,278,172,270,133,0,
2,1775498509744,1746,1363,10232,111177,-86742,-21991,0,0,0,357,465,320,388,374,410,524,554,288,264,341,273,0,
1,1775498509760,-4891,16630,9920,-884532,1464854,-383623,0,0,0,265,299,210,275,206,290,303,300,284,181,266,136,0,
2,1775498509760,1675,1478,10112,142942,-84299,-36651,0,0,0,360,464,317,386,374,410,531,555,293,261,333,275,0,
1,1775498509776,-4862,10830,7853,-3822794,1648114,-2222327,0,0,0,262,301,210,274,210,291,297,300,287,178,272,139,0,
2,1775498509776,1651,1541,10016,199142,-72082,-51312,0,0,0,367,466,317,390,377,410,527,547,295,271,334,275,0,
1,1775498509792,-6886,5795,4484,-3729943,1448972,-1999972,0,0,0,259,303,209,273,210,289,294,303,286,173,276,139,0,
2,1775498509792,1684,1526,9940,283441,-58643,-59864,0,0,0,369,470,322,391,380,409,519,535,289,280,332,278,0,
1,1775498509808,-7331,3905,2857,-3457497,704938,-1172861,0,0,0,262,306,210,275,215,288,295,303,281,172,279,134,0,
2,1775498509808,1646,1383,9853,342084,-50090,-58643,0,0,0,376,472,326,394,379,413,517,524,294,278,320,282,0,
1,1775498509824,-5230,5034,4173,-3794694,235793,-725707,0,0,0,265,306,215,275,214,289,297,306,285,171,279,137,0,
2,1775498509824,1598,1244,9777,356745,-35430,-59864,0,0,0,376,470,318,395,378,414,513,513,290,249,289,291,0,
1,1775498509840,-3795,5781,6068,-4587597,323758,-833220,0,0,0,262,305,214,277,214,288,303,310,284,173,279,136,0,
2,1775498509840,1622,1177,9739,340862,-20769,-70860,0,0,0,381,470,317,398,377,415,520,509,296,247,276,292,0,
1,1775498509856,-4053,5407,7580,-5429370,412944,-1136209,0,0,0,262,305,214,277,216,292,301,309,284,178,282,140,0,
2,1775498509856,1670,1182,9748,327423,-17104,-83077,0,0,0,386,470,327,400,381,421,519,500,300,245,272,308,0,
1,1775498509872,-5029,3929,8356,-5918062,135612,-1347568,0,0,0,260,304,212,275,215,290,298,309,286,173,282,136,0,
2,1775498509872,1718,1206,9786,340862,-24434,-95294,0,0,0,391,473,326,401,378,419,515,485,305,252,260,322,0,
1,1775498509888,-5168,1962,9389,-6081774,-401949,-1367116,0,0,0,260,303,213,273,215,290,301,309,288,172,278,139,0,
2,1775498509888,1737,1148,9810,364075,-46425,-101403,0,0,0,397,478,320,405,384,419,513,478,306,254,258,333,0,
1,1775498509904,-4867,737,10859,-6082996,-777020,-1293812,0,0,0,260,303,218,270,212,293,300,308,290,169,277,138,0,
2,1775498509904,1713,1052,9796,368962,-75747,-109955,0,0,0,405,483,322,407,390,424,513,469,316,256,250,341,0,
1,1775498509920,-4733,38,12572,-6069557,-1027475,-1202182,0,0,0,262,304,217,272,213,293,297,306,291,183,277,144,0,
2,1775498509920,1679,966,9767,354301,-96516,-112399,0,0,0,413,487,325,413,395,435,512,462,323,254,241,351,0,
1,1775498509936,-5130,-502,14151,-6051231,-1230282,-1100779,0,0,0,263,304,216,275,213,293,299,307,292,184,282,142,0,
2,1775498509936,1675,928,9782,338419,-111177,-107512,0,0,0,416,485,325,415,398,442,511,460,325,251,233,361,0,
1,1775498509952,-5307,-1196,15640,-5940053,-1492954,-965167,0,0,0,264,304,216,274,213,293,300,308,291,175,287,136,0,
2,1775498509952,1698,928,9863,332310,-128281,-98960,0,0,0,422,488,326,418,400,448,508,446,325,246,218,371,0,
1,1775498509968,-5211,-1718,17118,-5726250,-1692096,-917519,0,0,0,265,306,217,271,226,287,297,309,287,174,286,134,0,
2,1775498509968,1722,923,9968,356745,-146607,-95294,0,0,0,435,494,329,421,397,449,506,427,327,272,214,383,0,
1,1775498509984,-5206,-1832,18779,-5403713,-1827708,-1062905,0,0,0,267,307,216,270,237,281,303,307,282,179,285,133,0,
2,1775498509984,1718,851,10026,400727,-157603,-106290,0,0,0,442,497,334,422,395,451,505,411,334,289,213,400,0,
1,1775498510000,-4996,-1866,20885,-5114163,-1943773,-1302364,0,0,0,269,306,215,279,213,287,319,300,276,190,283,132,0,
2,1775498510000,1679,722,10002,449596,-149051,-130725,0,0,0,443,508,337,428,403,461,501,395,343,256,198,425,0,
1,1775498510016,-4422,-2321,23766,-4944343,-1907121,-1705535,0,0,0,271,305,217,282,211,289,322,299,278,188,278,133,0,
2,1775498510016,1684,646,9973,493579,-125838,-162490,0,0,0,453,524,337,436,415,466,499,378,352,262,192,447,0,
1,1775498510032,-4800,-4627,25915,-5038416,-1804495,-2179567,0,0,0,266,306,218,278,210,291,320,301,284,187,273,132,0,
2,1775498510032,1813,626,10045,555887,-107512,-200363,0,0,0,464,522,342,437,422,470,492,350,358,256,179,469,0,
1,1775498510048,-6054,-9892,26762,-5230228,-1879021,-2442239,0,0,0,264,307,221,281,211,298,316,300,293,188,271,138,0,
2,1775498510048,2024,555,10198,648738,-107512,-251676,0,0,0,476,535,348,444,430,481,484,318,361,268,176,501,0,
1,1775498510064,-6848,-18109,25197,-5293758,-2029294,-2112371,0,0,0,256,306,224,277,212,300,317,301,298,186,273,137,0,
2,1775498510064,2158,449,10409,768468,-100181,-317649,0,0,0,475,531,348,440,443,481,479,293,361,265,179,523,0,
1,1775498510080,-2881,-27126,20914,-4714657,-2302961,-1111774,0,0,0,252,307,220,276,212,298,320,301,299,188,272,137,0,
2,1775498510080,2163,373,10835,937067,-73303,-387288,0,0,0,502,534,352,448,460,497,446,273,366,259,168,543,0,
1,1775498510096,4513,-32792,16927,-3510031,-2295631,-268780,0,0,0,249,307,218,277,216,303,317,301,301,186,274,138,0,
2,1775498510096,2100,344,11505,1226617,-69638,-445931,0,0,0,497,537,350,459,462,510,434,260,371,264,175,560,0,
1,1775498510112,10361,-36936,14065,-1809382,-1281595,277332,0,0,0,241,312,218,272,219,303,311,301,300,186,280,142,0,
2,1775498510112,2062,301,12132,1555262,-116064,-480140,0,0,0,518,554,348,458,468,513,410,252,379,268,175,578,0,
1,1775498510128,11586,-38410,13160,-274889,146607,753807,0,0,0,233,305,214,271,207,292,320,302,285,206,288,133,0,
2,1775498510128,2062,143,12979,1943773,-174707,-510683,0,0,0,526,550,326,462,474,516,378,246,381,271,180,590,0,
1,1775498510144,6968,-30528,15434,1284038,1667662,1233947,0,0,0,228,286,193,270,192,270,369,345,270,247,333,114,0,
2,1775498510144,2239,-38,13945,2464230,-267558,-552222,0,0,0,527,553,300,471,496,522,334,241,374,273,192,597,0,
1,1775498510160,-1459,-8892,16927,2761110,3050661,1566258,0,0,0,232,272,164,274,184,250,425,404,255,287,385,97,0,
2,1775498510160,2598,-167,14821,3076317,-392175,-629191,0,0,0,533,552,281,460,498,527,295,239,368,272,194,601,0,
1,1775498510176,-8997,16477,14127,3536909,3915646,1494176,0,0,0,241,268,145,279,183,238,456,448,244,330,415,90,0,
2,1775498510176,2871,33,15912,3772703,-498466,-757472,0,0,0,539,543,268,449,493,526,266,230,365,262,185,590,0,
1,1775498510192,-7159,11055,12371,4094018,3417180,833220,0,0,0,244,273,148,284,188,245,467,469,251,371,426,91,0,
2,1775498510192,3895,234,17530,4555832,-563217,-945619,0,0,0,538,534,268,447,490,520,242,206,368,247,172,562,0,
1,1775498510208,-1139,-2617,17228,4893030,1888795,-7330,0,0,0,249,281,166,293,192,264,478,477,266,402,435,93,0,
2,1775498510208,5809,19,20167,5590638,-620639,-1310916,0,0,0,525,525,278,436,480,508,228,179,372,232,160,516,0,
1,1775498510224,2297,-3158,21651,4183205,657290,-73303,0,0,0,263,286,192,305,188,279,487,486,275,434,447,102,0,
2,1775498510224,7231,-1067,23847,6615670,-592539,-1739744,0,0,0,487,510,273,424,476,487,228,164,357,215,150,452,0,
1,1775498510240,507,191,18937,2726902,232128,335975,0,0,0,268,304,204,323,206,296,499,499,285,439,456,122,0,
2,1775498510240,8174,-2096,27992,7573507,-196698,-2183232,0,0,0,416,483,242,408,460,460,244,166,329,199,142,393,0,
1,1775498510256,-3426,775,13031,1415985,142942,337197,0,0,0,275,310,220,322,225,320,508,507,303,474,476,174,0,
2,1775498510256,5843,1043,30380,8256454,257785,-2559525,0,0,0,342,453,218,368,429,417,251,201,291,174,134,337,0,
1,1775498510272,-3397,-186,10069,910189,188146,-120951,0,0,0,305,318,242,332,213,349,522,514,323,463,481,206,0,
2,1775498510272,3732,3053,29796,8813563,320093,-2731789,0,0,0,293,435,225,336,384,379,273,247,270,145,129,259,0,
1,1775498510288,-1943,-430,9810,547335,265115,-265115,0,0,0,310,327,273,343,225,360,530,511,326,470,497,239,0,
2,1775498510288,5819,3498,24158,9220399,665843,-2780658,0,0,0,244,421,224,307,366,347,288,289,259,115,128,184,0,
1,1775498510304,-1464,43,10605,226020,252898,-129503,0,0,0,315,314,246,344,219,347,545,514,318,475,494,287,0,
2,1775498510304,4694,8164,17214,8373740,558330,-3093421,0,0,0,239,427,235,315,369,359,289,291,263,117,131,191,0,
1,1775498510320,-1971,703,10466,96516,177150,-28099,0,0,0,315,333,252,345,219,355,561,511,342,487,489,283,0,
2,1775498510320,454,13797,13902,6054896,-1541823,-2945592,0,0,0,236,429,228,318,373,359,290,291,257,121,132,187,0,
1,1775498510336,-2120,1028,10088,163711,120951,-4886,0,0,0,319,344,256,346,233,360,563,496,347,476,484,292,0,
