sole_id,timestamp,accel_x,accel_y,accel_z,gyro_x,gyro_y,gyro_z,magn_x,magn_y,magn_z,pressure_01,pressure_02,pressure_03,pressure_04,pressure_05,pressure_06,pressure_07,pressure_08,pressure_09,pressure_10,pressure_11,pressure_12,corrupt,grass
1,1773253758800,-1287,1201,9863,3665,-47647,-20769,0,0,0,306,330,257,336,195,330,458,342,287,329,341,149,0,
2,1773253758800,741,722,9892,-119729,-111177,-7330,0,0,0,520,569,373,510,501,563,612,520,394,264,204,505,0,
1,1773253758816,-1335,1464,9581,57421,-97738,-13439,0,0,0,313,331,260,339,195,333,457,346,292,331,346,149,0,
2,1773253758816,708,794,9935,-124616,-123394,-14660,0,0,0,523,572,377,523,524,550,615,529,394,262,207,502,0,
1,1773253758832,-1301,1091,9652,72082,-107512,-26878,0,0,0,314,332,266,338,199,329,455,350,292,332,346,149,0,
2,1773253758832,636,832,10007,-105068,-120951,-15882,0,0,0,517,569,363,512,494,569,615,538,387,257,203,491,0,
1,1773253758848,-1359,875,9743,45204,-102625,-4886,0,0,0,311,331,272,333,199,321,457,351,289,331,351,150,0,
2,1773253758848,617,842,10021,-92851,-105068,-15882,0,0,0,515,563,362,504,485,564,614,533,385,259,206,486,0,
1,1773253758864,-1416,933,9753,3665,-87964,23212,0,0,0,311,331,272,330,198,319,461,356,285,327,356,151,0,
2,1773253758864,636,837,10002,-95294,-92851,-12217,0,0,0,512,562,362,502,489,560,614,529,392,270,213,484,0,
1,1773253758880,-1411,1019,9715,-25656,-76969,35430,0,0,0,314,335,268,332,203,320,466,367,283,326,357,147,0,
2,1773253758880,670,837,9997,-102625,-95294,-12217,0,0,0,510,562,359,508,482,558,614,530,389,276,229,474,0,
1,1773253758896,-1402,1067,9657,-48869,-67195,26878,0,0,0,315,339,272,331,210,322,469,375,287,334,367,150,0,
2,1773253758896,684,880,10031,-102625,-113620,-13439,0,0,0,510,560,354,499,483,553,615,533,389,304,259,471,0,
1,1773253758912,-1402,1076,9648,-75747,-58643,14660,0,0,0,323,334,277,332,202,335,467,380,305,360,365,165,0,
2,1773253758912,646,923,10078,-84299,-125838,-14660,0,0,0,513,559,354,496,480,548,612,532,385,303,256,471,0,
1,1773253758928,-1387,1057,9681,-113620,-46425,0,0,0,0,335,326,277,346,206,324,482,402,292,346,385,151,0,
2,1773253758928,622,985,10102,-50090,-124616,-14660,0,0,0,518,560,361,493,477,544,608,536,386,335,266,464,0,
1,1773253758944,-1368,1076,9686,-151494,-42760,-17104,0,0,0,329,326,277,343,206,322,487,415,290,362,384,146,0,
2,1773253758944,646,1072,10136,15882,-118507,-17104,0,0,0,520,561,361,494,477,545,603,529,383,289,225,467,0,
1,1773253758960,-1411,1139,9619,-188146,-30543,-43982,0,0,0,329,335,287,353,200,341,496,409,293,368,378,155,0,
2,1773253758960,660,1043,10193,103847,-111177,-23212,0,0,0,517,562,355,492,476,543,596,515,382,258,198,468,0,
1,1773253758976,-1474,1186,9571,-227241,-7330,-69638,0,0,0,327,331,294,344,203,343,494,424,310,361,390,168,0,
2,1773253758976,665,966,10246,186924,-101403,-34208,0,0,0,514,560,350,486,472,539,583,484,381,253,189,466,0,
1,1773253758992,-1397,1158,9662,-270002,6108,-80634,0,0,0,329,328,297,347,204,346,504,434,312,361,403,165,0,
2,1773253758992,713,947,10299,250454,-94073,-46425,0,0,0,512,558,345,487,475,541,563,442,380,251,181,469,0,
1,1773253759008,-1292,1153,9786,-307876,-6108,-80634,0,0,0,330,328,294,346,208,342,510,447,301,383,428,155,0,
2,1773253759008,799,1024,10413,340862,-91629,-67195,0,0,0,512,557,335,490,482,545,540,402,382,249,172,472,0,
1,1773253759024,-1301,1239,9815,-324980,-45204,-78190,0,0,0,335,332,297,348,206,339,515,454,292,388,441,152,0,
2,1773253759024,1057,1086,10806,471587,-102625,-101403,0,0,0,511,554,316,487,480,541,518,368,385,245,162,470,0,
1,1773253759040,-1383,1373,9719,-324980,-79412,-81855,0,0,0,337,333,297,354,206,338,522,470,289,390,451,148,0,
2,1773253759040,1608,1057,11868,753807,-212581,-196698,0,0,0,509,550,295,482,478,534,488,345,382,249,164,477,0,
1,1773253759056,-1464,1459,9681,-316428,-101403,-91629,0,0,0,338,335,300,359,213,343,527,491,287,404,450,148,0,
2,1773253759056,2426,981,13151,1174082,-395840,-355523,0,0,0,512,552,279,474,480,528,466,337,372,248,167,480,0,
1,1773253759072,-1526,1493,9753,-300545,-102625,-100181,0,0,0,340,338,321,359,213,350,528,502,292,418,456,150,0,
2,1773253759072,2694,1091,14539,1631010,-485026,-576656,0,0,0,513,544,265,468,479,513,442,336,356,235,159,461,0,
1,1773253759088,-1536,1550,9815,-278554,-98960,-97738,0,0,0,345,342,326,358,213,347,535,517,294,433,471,145,0,
2,1773253759088,2756,1124,15271,2091602,-491135,-785572,0,0,0,503,533,254,460,474,498,429,334,344,233,155,441,0,
1,1773253759104,-1507,1655,9882,-243124,-103847,-83077,0,0,0,352,354,310,368,219,340,546,536,292,448,479,145,0,
2,1773253759104,3230,885,15300,2537534,-483805,-1010371,0,0,0,489,529,255,458,471,488,418,340,328,226,154,414,0,
1,1773253759120,-1531,1751,9930,-193033,-119729,-62308,0,0,0,356,363,307,377,219,344,548,547,301,458,486,151,0,
2,1773253759120,3699,722,14673,2900388,-460592,-1286482,0,0,0,446,514,246,440,459,468,418,356,315,216,157,375,0,
1,1773253759136,-1593,1751,9930,-141720,-131946,-39095,0,0,0,350,341,309,369,216,350,554,555,299,473,502,152,0,
2,1773253759136,3560,593,13835,3150842,-400727,-1567480,0,0,0,403,495,237,424,443,448,419,371,303,196,154,315,0,
1,1773253759152,-1598,1722,9882,-95294,-135612,-14660,0,0,0,349,342,308,368,218,345,567,567,303,464,499,146,0,
2,1773253759152,3134,392,12806,3282789,-373849,-1825265,0,0,0,345,471,233,409,427,426,427,387,297,200,167,254,0,
1,1773253759168,-1598,1746,9801,-41538,-141720,4886,0,0,0,344,344,313,366,224,351,571,571,290,482,511,164,0,
2,1773253759168,4407,751,11500,3193603,-464257,-2013411,0,0,0,312,461,240,400,417,415,430,395,291,186,173,218,0,
1,1773253759184,-1612,1761,9772,12217,-149051,21991,0,0,0,344,340,305,371,223,348,575,572,287,474,507,173,0,
2,1773253759184,5642,2837,10050,2780658,-561996,-2195449,0,0,0,305,462,244,399,414,413,432,396,289,174,171,209,0,
1,1773253759200,-1646,1742,9786,62308,-152716,36651,0,0,0,340,371,313,364,230,350,579,573,291,483,513,181,0,
2,1773253759200,5652,7336,9073,1628566,-645073,-2171015,0,0,0,303,461,242,402,415,413,434,396,287,175,173,208,0,
1,1773253759216,-1655,1751,9825,111177,-158824,52534,0,0,0,346,384,319,371,244,360,578,576,300,481,510,191,0,
2,1773253759216,5580,9887,7906,238237,-507018,-1903456,0,0,0,301,461,241,403,416,414,434,398,285,176,174,206,0,
1,1773253759232,-1679,1732,9877,152716,-163711,64751,0,0,0,344,382,327,374,246,375,575,574,312,480,505,201,0,
2,1773253759232,5393,8657,6130,-846659,-73303,-1361007,0,0,0,301,462,243,403,415,413,433,398,284,174,172,205,0,
1,1773253759248,-1737,1651,9877,182037,-158824,69638,0,0,0,342,383,330,372,240,382,572,571,313,481,505,216,0,
2,1773253759248,4996,7188,5183,-968832,346971,-797790,0,0,0,302,462,244,406,419,414,435,398,283,175,174,205,0,
1,1773253759264,-1742,1574,9796,186924,-141720,70860,0,0,0,344,382,322,373,240,375,575,570,309,477,506,212,0,
2,1773253759264,4503,7585,5226,-1092227,711047,-234572,0,0,0,301,462,244,407,418,413,444,398,286,183,180,204,0,
1,1773253759280,-1713,1536,9719,183259,-128281,70860,0,0,0,347,377,315,377,243,371,577,565,308,467,505,205,0,
2,1773253759280,3914,8255,5762,-1456302,1040914,301767,0,0,0,298,462,243,406,418,413,440,397,286,181,182,201,0,
1,1773253759296,-1703,1526,9672,178372,-124616,70860,0,0,0,347,375,319,378,239,378,575,556,313,453,501,214,0,
2,1773253759296,3072,8102,6389,-1826487,1358564,770911,0,0,0,294,462,245,407,421,416,435,401,288,179,183,204,0,
1,1773253759312,-1722,1488,9629,172263,-118507,67195,0,0,0,347,373,326,378,236,390,572,550,328,451,494,225,0,
2,1773253759312,2010,7494,7226,-2090380,1566258,1093448,0,0,0,295,462,243,404,420,414,434,399,286,179,184,204,0,
1,1773253759328,-1732,1459,9585,172263,-109955,67195,0,0,0,353,366,328,384,235,404,569,539,335,458,488,244,0,
2,1773253759328,985,6886,8389,-2355496,1628566,1314581,0,0,0,296,464,247,404,419,414,431,398,293,178,181,205,0,
1,1773253759344,-1718,1445,9585,189368,-102625,72082,0,0,0,355,365,322,389,235,398,581,537,316,454,485,240,0,
2,1773253759344,349,6216,9504,-2637716,1616349,1433089,0,0,0,299,464,248,406,419,415,435,399,289,184,186,206,0,
1,1773253759360,-1722,1411,9614,200363,-101403,74525,0,0,0,356,368,314,391,235,408,585,534,317,478,477,248,0,
2,1773253759360,62,5460,10476,-2874731,1571145,1442863,0,0,0,297,464,244,404,418,413,437,400,285,187,188,204,0,
1,1773253759376,-1751,1373,9624,191811,-98960,69638,0,0,0,365,366,312,416,229,400,582,533,342,459,471,258,0,
2,1773253759376,-76,4685,11519,-3050661,1473406,1376890,0,0,0,296,465,245,404,419,414,429,397,288,187,189,200,0,
1,1773253759392,-1789,1373,9643,179594,-90408,65973,0,0,0,356,362,327,410,230,399,591,540,345,439,461,274,0,
2,1773253759392,-62,3981,12557,-3194825,1314581,1306029,0,0,0,298,465,248,404,418,415,433,398,287,184,186,199,0,
1,1773253759408,-1813,1378,9700,186924,-80634,69638,0,0,0,355,358,332,404,228,406,589,530,353,442,461,292,0,
2,1773253759408,301,3350,13400,-3295007,1134987,1253495,0,0,0,297,465,247,402,416,414,440,399,283,184,185,200,0,
1,1773253759424,-1809,1344,9786,207694,-78190,78190,0,0,0,352,350,335,390,230,415,604,513,357,436,456,321,0,
2,1773253759424,837,2713,14055,-3359758,1001818,1197295,0,0,0,295,463,246,402,415,413,440,397,284,180,181,200,0,
1,1773253759440,-1794,1287,9815,216246,-89186,81855,0,0,0,357,354,326,392,229,420,607,510,360,430,460,333,0,
2,1773253759440,1383,2062,14462,-3393967,933402,1116661,0,0,0,298,463,247,404,417,415,442,399,286,172,170,200,0,
1,1773253759456,-1809,1249,9815,224798,-102625,83077,0,0,0,358,361,320,400,247,416,603,502,362,427,464,349,0,
2,1773253759456,1914,1210,14611,-3411071,874759,985936,0,0,0,298,463,246,404,417,416,445,402,288,174,172,205,0,
1,1773253759472,-1847,1229,9786,243124,-111177,87964,0,0,0,358,364,335,404,256,421,602,493,369,421,452,358,0,
2,1773253759472,2354,100,14572,-3379306,822224,797790,0,0,0,296,462,246,405,417,417,445,402,288,179,178,204,0,
1,1773253759488,-1876,1191,9758,268780,-112399,94073,0,0,0,364,359,345,411,249,427,602,476,366,411,430,370,0,
2,1773253759488,2435,-1263,14328,-3227811,781907,577878,0,0,0,296,464,249,402,415,416,444,401,287,196,184,202,0,
1,1773253759504,-1885,1139,9753,287106,-105068,95294,0,0,0,372,354,341,419,247,436,600,451,360,398,410,401,0,
2,1773253759504,2206,-2751,13960,-2988352,758694,419053,0,0,0,299,465,250,406,418,419,449,406,291,274,216,200,0,
1,1773253759520,-1890,1100,9772,306654,-97738,96516,0,0,0,379,363,350,422,248,453,600,443,381,388,387,414,0,
2,1773253759520,1579,-4594,13515,-2620611,752585,365297,0,0,0,299,467,250,407,420,419,443,400,288,160,158,204,0,
1,1773253759536,-1899,1067,9830,334754,-95294,101403,0,0,0,383,371,348,421,260,438,606,420,393,400,351,401,0,
2,1773253759536,789,-6446,13151,-2188119,739146,411723,0,0,0,298,464,247,404,417,417,442,398,286,160,156,205,0,
1,1773253759552,-1899,1009,9882,370184,-98960,102625,0,0,0,387,355,349,414,249,458,600,382,394,388,312,426,0,
2,1773253759552,-138,-8657,12538,-1576032,678060,478918,0,0,0,295,464,246,404,418,417,446,400,289,159,154,206,0,
1,1773253759568,-1904,957,9925,408057,-100181,101403,0,0,0,399,380,381,426,250,457,594,362,388,375,298,456,0,
2,1773253759568,-904,-10509,11696,-884532,543670,455705,0,0,0,297,464,246,405,419,418,445,399,289,157,154,206,0,
1,1773253759584,-1904,909,9973,459370,-108734,95294,0,0,0,390,370,370,430,269,473,590,331,404,405,278,446,0,
2,1773253759584,-1210,-11495,11016,-223576,361632,348193,0,0,0,299,465,248,407,420,419,446,401,291,158,153,206,0,
1,1773253759600,-1861,851,10150,558330,-155159,89186,0,0,0,395,366,363,429,263,476,575,319,422,332,261,471,0,
2,1773253759600,-1081,-11390,10610,494800,118507,160046,0,0,0,298,464,246,408,420,420,447,402,291,159,154,207,0,
1,1773253759616,-1861,856,10399,671951,-245567,95294,0,0,0,398,380,382,433,280,505,564,276,425,309,237,495,0,
2,1773253759616,-670,-10102,10677,1036027,-85521,46425,0,0,0,294,464,246,407,420,419,449,416,288,157,162,200,0,
1,1773253759632,-1966,794,10576,803898,-383623,120951,0,0,0,402,397,376,432,303,517,568,258,425,308,226,508,0,
2,1773253759632,-459,-7274,11653,1538158,-337197,90408,0,0,0,286,460,238,401,417,416,462,455,285,161,183,193,0,
1,1773253759648,-2153,617,10782,972497,-527787,172263,0,0,0,412,403,349,447,320,523,556,251,429,312,220,531,0,
2,1773253759648,387,1277,12639,2041511,-960280,390953,0,0,0,275,451,221,388,407,410,477,486,280,188,229,187,0,
1,1773253759664,-2220,488,11280,1222952,-570548,222354,0,0,0,411,406,310,462,320,525,535,264,425,296,212,546,0,
2,1773253759664,3096,11485,10031,2328618,-1778839,735481,0,0,0,270,443,210,377,400,404,485,492,279,205,260,183,0,
1,1773253759680,-2388,425,11797,1534493,-505796,252898,0,0,0,410,415,281,469,317,527,504,258,427,277,193,557,0,
2,1773253759680,2885,10509,8413,2624277,-2008524,852767,0,0,0,273,440,209,375,402,404,492,492,285,184,247,186,0,
1,1773253759696,-2737,301,12151,1887573,-357967,293215,0,0,0,419,419,273,469,329,527,458,225,436,278,183,569,0,
2,1773253759696,-263,3292,11045,3132516,-1627344,684169,0,0,0,277,444,214,384,394,409,497,498,292,185,261,189,0,
1,1773253759712,-3067,186,12299,2213775,-213802,392175,0,0,0,420,433,255,466,362,529,412,204,440,286,189,571,0,
2,1773253759712,-2096,488,13816,3293785,-1204626,370184,0,0,0,278,445,221,386,396,413,508,511,294,207,283,187,0,
1,1773253759728,-3163,33,12519,2525316,-96516,513126,0,0,0,416,468,217,475,394,543,375,205,448,275,187,567,0,
2,1773253759728,-1469,1708,14649,2924822,-858876,-86742,0,0,0,283,448,235,387,392,413,520,530,287,296,373,171,0,
1,1773253759744,-3216,-138,12983,2858849,23212,631634,0,0,0,453,460,231,478,398,560,321,198,459,242,163,558,0,
2,1773253759744,445,2091,13481,2397035,-690277,-291993,0,0,0,290,456,256,394,398,420,521,520,306,201,265,194,0,
1,1773253759760,-3689,-402,13716,3306002,226020,770911,0,0,0,445,454,216,458,380,538,280,188,443,217,146,549,0,
2,1773253759760,1612,1608,11907,1907121,-516791,-245567,0,0,0,293,469,276,395,398,422,530,530,302,213,280,205,0,
1,1773253759776,-4426,-579,14625,3738495,434936,940732,0,0,0,450,437,231,474,348,532,306,149,455,205,114,526,0,x
2,1773253759776,1153,1249,10490,1492954,-305432,-52534,0,0,0,324,481,296,411,402,434,543,543,309,236,289,222,0,x
1,1773253759792,-5149,-861,15793,4116009,649960,1144761,0,0,0,446,439,223,488,336,501,324,148,434,221,105,491,0,
2,1773253759792,646,1110,10251,1054353,-168598,-39095,0,0,0,355,493,309,417,407,441,555,555,314,257,297,261,0,
1,1773253759808,-6393,-1426,16989,4470311,850324,1390329,0,0,0,421,439,213,457,335,478,259,147,418,192,100,432,0,
2,1773253759808,923,804,10452,546113,-134390,-59864,0,0,0,380,503,324,422,412,458,564,564,319,258,295,298,0,
1,1773253759824,-7800,-1818,17870,4765970,981049,1706757,0,0,0,400,424,228,398,347,468,242,158,385,168,103,373,0,
2,1773253759824,1191,583,10701,129503,-216246,-15882,0,0,0,397,509,333,428,418,466,573,573,329,258,291,313,0,
1,1773253759840,-7240,-1775,18918,5078733,1172861,2064724,0,0,0,342,408,236,359,314,435,254,172,367,165,119,345,0,
2,1773253759840,981,703,10763,-98960,-260228,15882,0,0,0,409,513,340,435,421,469,577,577,327,269,304,319,0,
1,1773253759856,-5575,-1186,19660,5418374,1569923,2304183,0,0,0,306,379,229,338,271,383,284,195,323,209,152,291,0,
2,1773253759856,574,1143,10653,-144164,-167377,6108,0,0,0,416,515,339,440,424,473,582,583,327,294,335,319,0,
1,1773253759872,-5077,-502,19176,5667607,2124589,2295631,0,0,0,280,339,232,303,236,341,312,230,296,200,195,207,0,
2,1773253759872,689,1402,10485,-100181,-17104,-13439,0,0,0,421,515,336,443,425,475,587,587,331,321,366,316,0,
1,1773253759888,-6044,-301,16391,5786115,2642603,2174680,0,0,0,274,300,243,284,198,317,335,257,297,184,227,161,0,
2,1773253759888,976,1521,10265,-53756,62308,-21991,0,0,0,427,515,338,442,423,474,588,588,331,335,380,312,0,
1,1773253759904,-6963,1210,11768,5542991,3137403,2087937,0,0,0,285,286,248,292,177,304,351,269,297,195,241,153,0,
2,1773253759904,1091,1517,10088,-20769,30543,-20769,0,0,0,433,517,341,441,422,473,589,589,331,337,379,311,0,
1,1773253759920,-9217,5312,8978,4667010,3219259,1837482,0,0,0,286,300,247,296,188,305,351,276,293,198,245,150,0,
2,1773253759920,985,1512,10035,3665,-12217,-20769,0,0,0,437,519,348,442,424,477,589,589,332,338,383,313,0,
1,1773253759936,-10868,11308,8657,2506990,1926668,934623,0,0,0,277,309,250,289,194,312,350,280,299,194,243,153,0,
2,1773253759936,904,1536,10040,26878,-17104,-24434,0,0,0,438,516,355,445,427,481,591,591,338,333,387,311,0,
1,1773253759952,-6882,12816,9035,-755029,675616,-927293,0,0,0,281,308,247,300,191,308,358,270,292,199,238,151,0,
2,1773253759952,899,1579,10040,64751,2443,-29321,0,0,0,438,516,344,445,428,479,586,586,337,307,354,319,0,
1,1773253759968,-5058,8700,7374,-2697580,1016479,-2365270,0,0,0,270,307,247,287,188,313,354,269,291,197,238,154,0,
2,1773253759968,933,1608,10050,122173,19547,-32986,0,0,0,442,519,344,446,427,480,586,586,334,275,316,329,0,
1,1773253759984,-7724,4460,4804,-2885727,1110553,-2334726,0,0,0,274,311,252,286,185,313,351,266,296,194,238,157,0,
2,1773253759984,971,1550,10035,185703,28099,-39095,0,0,0,441,518,341,449,427,482,594,594,337,316,354,326,0,
1,1773253760000,-8580,2804,3761,-2838079,416610,-1695761,0,0,0,270,312,252,284,188,314,354,273,299,200,244,156,0,
2,1773253760000,995,1426,9930,208915,25656,-43982,0,0,0,444,520,341,450,428,483,590,589,342,262,292,341,0,
1,1773253760016,-6317,3718,4690,-3017674,-190589,-1095892,0,0,0,269,312,253,284,188,314,358,274,299,200,245,154,0,
2,1773253760016,990,1383,9849,212581,20769,-48869,0,0,0,443,518,341,446,425,484,585,584,340,245,269,347,0,
1,1773253760032,-5149,4637,5819,-3608991,47647,-1181413,0,0,0,261,313,253,271,233,306,359,275,300,203,246,158,0,
2,1773253760032,990,1397,9820,219911,19547,-54977,0,0,0,445,519,342,449,431,482,586,585,343,243,258,357,0,
1,1773253760048,-6015,4651,6709,-4371351,194255,-1506393,0,0,0,261,314,253,282,201,313,362,275,295,201,243,151,0,
2,1773253760048,1009,1373,9815,229685,15882,-62308,0,0,0,444,520,340,451,431,485,585,584,350,245,253,368,0,
1,1773253760064,-6920,3618,7446,-4825835,-331088,-1725083,0,0,0,261,314,255,282,187,320,364,273,308,201,243,156,0,
2,1773253760064,1033,1320,9820,233350,10995,-69638,0,0,0,450,522,341,457,457,479,585,582,353,254,259,376,0,
1,1773253760080,-6714,2392,8576,-5095837,-930958,-1871691,0,0,0,259,314,253,281,187,319,363,273,304,202,243,157,0,
2,1773253760080,1033,1282,9820,234572,3665,-75747,0,0,0,455,524,342,460,456,487,592,581,356,258,261,387,0,
1,1773253760096,-6322,1249,9978,-5198463,-1290147,-1954768,0,0,0,257,314,253,280,189,318,360,275,301,202,246,156,0,
2,1773253760096,1043,1273,9839,241902,-3665,-79412,0,0,0,459,527,341,458,437,499,600,579,358,263,260,400,0,
1,1773253760112,-6336,411,11653,-5191132,-1543045,-1904677,0,0,0,258,312,252,282,188,317,364,274,301,205,245,152,0,
2,1773253760112,1062,1268,9877,256563,-13439,-81855,0,0,0,460,530,341,463,441,503,600,569,356,272,259,409,0,
1,1773253760128,-6149,-14,13649,-5148372,-1821600,-1720196,0,0,0,261,311,251,285,186,315,370,271,298,215,237,149,0,
2,1773253760128,1072,1234,9906,277332,-21991,-76969,0,0,0,458,532,341,472,449,513,599,553,356,270,259,417,0,
1,1773253760144,-5556,-224,15577,-5174028,-1976759,-1459967,0,0,0,262,312,251,288,186,314,371,269,294,218,232,149,0,
2,1773253760144,1067,1191,9940,300545,-23212,-75747,0,0,0,464,535,339,472,453,512,607,544,362,264,257,426,0,
1,1773253760160,-5010,-689,17181,-5227784,-2020742,-1191187,0,0,0,262,313,253,289,187,319,366,266,298,211,234,149,0,
2,1773253760160,1057,1124,9978,323758,-13439,-76969,0,0,0,475,539,339,475,457,517,614,537,374,267,228,442,0,
1,1773253760176,-4584,-1268,18147,-5176472,-2028072,-950506,0,0,0,263,315,255,288,186,325,366,265,310,213,235,154,0,
2,1773253760176,1091,1076,10026,354301,-1221,-83077,0,0,0,473,547,346,486,463,531,605,518,366,375,337,441,0,
1,1773253760192,-3957,-1742,19014,-5007873,-2047620,-802676,0,0,0,263,315,251,288,189,315,375,270,290,213,233,144,0,
2,1773253760192,1162,1043,10069,399505,-3665,-94073,0,0,0,481,551,356,486,469,530,597,509,395,274,201,468,0,
1,1773253760208,-3273,-1986,19995,-4763527,-2051285,-861319,0,0,0,266,317,252,294,191,316,373,267,288,213,233,144,0,
2,1773253760208,1210,1009,10098,452040,-13439,-109955,0,0,0,489,548,347,487,470,525,604,488,374,259,189,507,0,
1,1773253760224,-2220,-2086,21205,-4613254,-2161241,-1082453,0,0,0,266,316,250,296,196,317,371,266,288,215,234,147,0,
2,1773253760224,1182,938,10078,511905,-14660,-129503,0,0,0,494,553,348,494,480,536,600,471,377,263,188,503,0,
1,1773253760240,-636,-2957,22689,-4620584,-2207666,-1332907,0,0,0,263,322,253,292,192,321,366,269,299,211,231,150,0,
2,1773253760240,1143,847,10069,575435,1221,-144164,0,0,0,497,562,355,498,486,548,594,452,390,265,190,517,0,
1,1773253760256,33,-6010,23728,-4753753,-1915673,-1469741,0,0,0,265,322,246,297,196,315,369,271,286,210,228,140,0,
2,1773253760256,1182,775,10155,641408,17104,-151494,0,0,0,504,572,364,505,496,559,589,427,399,263,188,540,0,
1,1773253760272,-1545,-11753,22603,-4660901,-1463633,-1163087,0,0,0,266,323,245,298,198,312,370,270,280,214,227,139,0,
2,1773253760272,1354,684,10366,739146,29321,-161268,0,0,0,513,577,362,510,503,566,583,393,409,267,183,555,0,
1,1773253760288,-2278,-17549,20138,-4239404,-1302364,-552222,0,0,0,264,322,245,301,197,314,369,268,281,218,229,143,0,
2,1773253760288,1517,622,10547,850324,67195,-194255,0,0,0,522,578,354,518,514,571,572,360,413,277,182,571,0,
1,1773253760304,186,-22809,17080,-3461162,-1384220,100181,0,0,0,264,323,246,303,198,321,368,267,294,218,231,148,0,
2,1773253760304,1560,536,10796,999375,168598,-254119,0,0,0,530,582,350,522,521,572,552,324,410,286,182,590,0,
1,1773253760320,5771,-26982,14419,-2180788,-1259604,373849,0,0,0,264,323,245,304,201,322,367,265,292,216,231,148,0,
2,1773253760320,1397,440,11380,1248608,301767,-304210,0,0,0,535,587,344,522,522,571,526,288,422,286,181,601,0,
1,1773253760336,8509,-28399,13084,-751364,-621860,271224,0,0,0,262,322,242,303,201,317,365,266,287,218,235,144,0,
2,1773253760336,1378,277,12074,1577254,383623,-323758,0,0,0,541,586,317,533,535,581,494,266,438,286,177,609,0,
1,1773253760352,7815,-26939,12830,459370,158824,217468,0,0,0,255,319,236,299,201,312,372,303,286,240,270,135,0,
2,1773253760352,1832,-14,12725,1966986,405614,-348193,0,0,0,532,581,314,542,549,591,456,255,418,288,177,620,0,
1,1773253760368,4776,-20736,14457,1492954,1119105,425162,0,0,0,251,313,221,295,197,305,406,370,281,266,340,124,0,
2,1773253760368,2579,-148,13414,2399478,392175,-475253,0,0,0,494,555,382,532,536,574,421,245,420,289,182,625,0,
1,1773253760384,-2053,244,14558,2287079,2679254,713490,0,0,0,250,302,194,291,183,287,453,427,274,282,401,118,0,
2,1773253760384,2536,134,14209,2862514,232128,-613308,0,0,0,544,573,247,536,548,578,398,245,439,295,188,619,0,
1,1773253760400,-7049,17276,10849,2590068,3811799,736703,0,0,0,254,290,176,286,171,267,468,465,267,308,413,105,0,
2,1773253760400,2167,311,14644,3307224,-68416,-654847,0,0,0,550,578,244,539,547,588,355,233,443,281,182,622,0,
1,1773253760416,-4551,9361,9853,3243694,3445279,439822,0,0,0,259,293,161,287,169,260,492,489,267,333,426,95,0,
2,1773253760416,2833,-81,15180,3849672,-252898,-698829,0,0,0,542,576,254,525,544,575,331,217,444,272,180,594,0,
1,1773253760432,-459,-938,14443,4001167,2390926,113620,0,0,0,269,291,185,294,169,276,513,507,298,361,451,104,0,
2,1773253760432,3967,-282,16630,4538728,-274889,-875980,0,0,0,545,571,258,518,534,574,315,183,439,261,163,579,0,
1,1773253760448,1292,-2354,19334,3619987,1474628,106290,0,0,0,277,290,201,328,170,293,513,513,300,393,450,104,0,
2,1773253760448,4800,-134,19171,5346292,-238237,-1155757,0,0,0,534,557,257,514,524,570,317,169,434,238,147,533,0,
1,1773253760464,-751,856,17377,2384817,946841,301767,0,0,0,274,297,203,331,191,304,527,528,307,411,459,118,0,
2,1773253760464,5417,-81,22158,6214942,-246789,-1420872,0,0,0,486,539,234,503,514,556,311,167,404,221,141,458,0,
1,1773253760480,-2550,1426,13941,1518610,498466,162490,0,0,0,271,316,223,336,212,319,542,542,278,434,483,118,0,
2,1773253760480,5407,330,25001,6979746,-92851,-1655444,0,0,0,418,520,198,466,519,488,314,181,379,202,136,388,0,
1,1773253760496,-2608,612,11261,1049466,191811,-172263,0,0,0,282,317,267,353,223,351,548,547,294,448,491,142,0,
2,1773253760496,4139,942,26159,7385360,140499,-1781283,0,0,0,361,492,184,431,475,462,328,225,329,174,126,338,0,
1,1773253760512,-1785,507,10356,693942,69638,-273667,0,0,0,299,320,267,363,219,363,563,548,313,448,505,189,0,
2,1773253760512,3843,899,25149,7633372,731816,-1877799,0,0,0,305,460,204,389,422,428,344,281,296,135,112,260,0,
1,1773253760528,-1694,938,10270,434936,21991,-199142,0,0,0,311,328,262,373,219,368,571,546,314,450,516,217,0,
2,1773253760528,4536,4058,20583,7452555,1439198,-2134363,0,0,0,281,447,227,370,404,405,356,318,292,114,109,207,0,
1,1773253760544,-2110,1239,10184,320093,48869,-107512,0,0,0,317,340,271,381,234,385,575,549,318,458,522,232,0,
2,1773253760544,3866,8490,14577,6829473,1315803,-2497217,0,0,0,287,452,232,376,408,410,362,332,296,114,116,205,0,
1,1773253760560,-2096,1172,10112,272445,103847,-56199,0,0,0,319,347,284,381,253,409,581,551,343,465,526,255,0,
2,1773253760560,1464,12672,11127,5039638,-658512,-2575407,0,0,0,284,452,229,375,409,406,363,336,293,114,119,203,0,
1,1773253760576,-1837,1172,10232,260228,80634,-25656,0,0,0,320,348,291,388,263,419,586,545,361,468,524,276,0,
2,1773253760576,2603,14912,10653,1280373,-2348165,-1527163,0,0,0,281,451,226,374,409,402,362,335,282,115,116,202,0,
1,1773253760592,-1765,1316,10332,287106,3665,2443,0,0,0,330,356,288,410,268,407,582,535,342,467,506,281,0,
2,1773253760592,5020,12830,9399,-2412917,-2572964,-401949,0,0,0,282,451,226,372,407,399,365,339,281,115,115,201,0,
1,1773253760608,-1866,1363,10265,346971,-80634,29321,0,0,0,341,366,286,396,284,407,565,505,354,460,476,301,0,
2,1773253760608,5848,7202,7599,-4509407,-1883908,188146,0,0,0,283,453,229,371,409,402,363,340,283,116,120,204,0,
1,1773253760624,-1914,1253,10054,386066,-125838,51312,0,0,0,341,380,282,395,319,409,577,529,335,440,452,319,0,
2,1773253760624,4876,4024,5805,-4475198,-1571145,123394,0,0,0,280,454,232,371,410,404,370,341,285,117,122,205,0,
1,1773253760640,-1957,1124,9849,400727,-153938,69638,0,0,0,332,392,284,391,328,417,572,518,356,425,447,337,0,
2,1773253760640,4661,3488,4632,-4316373,-1450194,68416,0,0,0,280,454,235,371,410,405,369,341,285,125,121,202,0,
1,1773253760656,-2033,1019,9672,382401,-157603,80634,0,0,0,335,395,284,391,324,414,567,497,356,414,447,343,0,
2,1773253760656,4929,4187,5049,-4682892,-1073901,180816,0,0,0,280,454,232,379,413,407,376,340,285,118,118,204,0,
1,1773253760672,-2096,947,9547,331088,-128281,89186,0,0,0,332,396,279,392,329,414,571,494,354,389,435,345,0,
2,1773253760672,4647,4259,6350,-5194797,-609643,379958,0,0,0,280,450,230,375,410,404,373,342,283,118,118,205,0,
1,1773253760688,-2086,933,9523,280998,-91629,92851,0,0,0,332,399,277,392,331,417,566,483,357,380,438,348,0,
2,1773253760688,4149,3651,7949,-5608964,-206472,675616,0,0,0,280,456,232,374,408,403,372,343,282,119,118,207,0,
1,1773253760704,-2014,942,9585,245567,-70860,96516,0,0,0,325,400,270,391,329,418,573,475,359,374,462,356,0,
2,1773253760704,4278,2837,9131,-5811771,98960,1000597,0,0,0,279,455,233,374,409,406,371,342,281,118,116,206,0,
1,1773253760720,-1976,938,9643,222354,-64751,96516,0,0,0,326,399,268,390,329,417,573,460,363,376,451,366,0,
2,1773253760720,4584,2024,10160,-5902179,405614,1253495,0,0,0,279,455,233,375,410,409,372,342,281,119,117,204,0,
1,1773253760736,-1981,909,9652,180816,-39095,97738,0,0,0,332,396,270,398,328,421,566,454,367,374,443,374,0,
2,1773253760736,4761,1253,11328,-5842315,685390,1391551,0,0,0,278,454,231,374,411,408,375,345,283,119,117,204,0,
1,1773253760752,-1976,894,9719,157603,-17104,91629,0,0,0,334,387,281,405,323,430,561,447,370,371,433,380,0,
2,1773253760752,4742,1062,12610,-5704259,831998,1350012,0,0,0,278,454,231,373,411,406,377,346,284,118,115,204,0,
1,1773253760768,-1966,899,9691,195476,-35430,79412,0,0,0,335,377,291,405,307,437,563,436,372,369,415,390,0,
2,1773253760768,4670,1296,14276,-5652946,950506,1187522,0,0,0,278,456,233,375,411,408,379,345,284,117,115,203,0,
1,1773253760784,-1947,880,9672,222354,-50090,68416,0,0,0,336,367,285,399,288,437,573,421,367,358,402,402,0,
2,1773253760784,4589,1555,15716,-5750685,1021366,974940,0,0,0,278,455,235,378,410,410,379,344,286,119,117,207,0,
1,1773253760800,-1947,827,9739,237015,-54977,69638,0,0,0,332,359,279,392,286,437,580,406,365,344,393,412,0,
2,1773253760800,4541,1689,17535,-5859419,1125213,706160,0,0,0,276,455,234,376,407,409,379,345,287,120,116,213,0,
1,1773253760816,-2000,780,9801,261450,-64751,87964,0,0,0,340,361,287,400,297,445,576,411,383,363,378,418,0,
2,1773253760816,4541,1708,19473,-5885075,1255938,497244,0,0,0,276,455,233,368,413,405,379,342,286,117,114,204,0,
1,1773253760832,-2072,741,9777,296880,-67195,113620,0,0,0,341,356,276,408,306,459,570,402,382,441,327,417,0,
2,1773253760832,4833,1732,22206,-5896071,1418429,384845,0,0,0,280,459,235,335,441,387,380,340,286,120,117,203,0,
1,1773253760848,-2115,698,9719,324980,-50090,138055,0,0,0,363,367,279,455,293,466,571,392,376,348,304,443,0,
2,1773253760848,5556,1196,25498,-6009692,1578475,372627,0,0,0,285,457,235,380,406,411,384,339,288,122,117,203,0,
1,1773253760864,-2096,689,9777,370184,-31764,163711,0,0,0,364,367,295,455,293,468,574,366,394,344,289,462,0,
2,1773253760864,6398,-2048,27331,-6217386,1753183,533896,0,0,0,286,456,234,388,409,414,384,336,288,122,113,203,0,
1,1773253760880,-2115,679,9978,443488,-25656,188146,0,0,0,370,399,293,441,310,480,583,344,408,323,264,497,0,
2,1773253760880,5862,-8504,27408,-6178291,2267531,742812,0,0,0,291,458,234,385,404,409,385,330,293,121,105,199,0,
1,1773253760896,-2225,631,10160,544891,-24434,216246,0,0,0,380,394,303,443,353,482,577,342,424,321,256,511,0,
2,1773253760896,1785,-17291,26996,-5557651,2878397,840550,0,0,0,292,458,234,392,408,417,393,329,298,122,107,201,0,
1,1773253760912,-2297,516,10275,664621,-37873,250454,0,0,0,386,409,298,462,342,498,585,306,424,306,226,530,0,
2,1773253760912,-4412,-26910,24713,-4250400,2553416,855211,0,0,0,292,457,234,393,408,419,396,330,299,125,109,203,0,
1,1773253760928,-2316,430,10562,802676,-92851,288328,0,0,0,425,419,284,478,356,527,565,288,434,290,220,547,0,
2,1773253760928,-7743,-35348,20004,-2673146,1530828,698829,0,0,0,294,458,234,394,407,419,399,332,300,125,110,202,0,
1,1773253760944,-2230,411,11117,1000597,-195476,321315,0,0,0,439,425,266,490,364,525,549,257,434,282,198,565,0,
2,1773253760944,-7173,-40243,15443,-1080009,612086,29321,0,0,0,293,458,235,392,406,416,397,333,297,124,111,199,0,
1,1773253760960,-2096,306,11758,1342681,-344527,346971,0,0,0,430,438,249,502,386,526,519,227,447,278,177,569,0,
2,1773253760960,-6748,-39554,14003,619417,24434,-830776,0,0,0,288,459,237,388,408,414,395,345,295,140,149,196,0,
1,1773253760976,-2196,110,12175,1682322,-438601,368962,0,0,0,425,454,236,511,432,543,484,223,467,267,181,564,0,
2,1773253760976,-5704,-31170,16094,2156354,-492357,-1204626,0,0,0,286,459,235,386,407,411,416,406,289,157,190,189,0,
1,1773253760992,-2656,-124,12682,2080607,-439822,427605,0,0,0,433,465,216,524,458,546,458,225,471,259,187,569,0,
2,1773253760992,-1861,-9093,19578,3288898,-1175304,-907745,0,0,0,279,450,216,383,401,401,452,469,278,173,216,179,0,
1,1773253761008,-2948,-234,13457,2564412,-378736,546113,0,0,0,445,468,192,540,450,543,413,205,466,255,173,581,0,
2,1773253761008,3374,22541,17262,3463605,-1918116,-230907,0,0,0,264,430,188,376,391,391,480,481,272,208,261,172,0,
1,1773253761024,-2995,-177,14242,3078760,-317649,674395,0,0,0,442,455,204,534,443,546,369,179,459,242,139,592,0,
2,1773253761024,5431,28217,8671,2990796,-2400700,394618,0,0,0,274,422,198,372,374,398,499,498,285,212,286,175,0,
1,1773253761040,-3670,-191,15113,3667634,-301767,824668,0,0,0,444,439,207,526,425,565,346,171,500,218,121,574,0,
2,1773253761040,909,5360,9868,4025601,-1885130,375071,0,0,0,277,429,211,382,379,414,520,520,287,226,319,182,0,
1,1773253761056,-5350,-248,16463,4350582,-313984,1106887,0,0,0,433,448,223,490,406,551,365,220,471,178,96,555,0,
2,1773253761056,-2847,-6302,17678,4698775,-703716,102625,0,0,0,285,434,237,391,383,426,524,524,304,225,342,195,0,
1,1773253761072,-7255,-344,18626,5101946,-302989,1514945,0,0,0,414,467,233,486,351,560,306,147,489,172,97,523,0,
2,1773253761072,-1363,-1057,19363,3645643,14660,-313984,0,0,0,301,455,285,390,382,423,539,539,302,227,316,204,0,
1,1773253761088,-9461,-880,21210,5845980,-207694,2010968,0,0,0,392,405,187,448,363,513,282,141,465,161,83,452,0,
2,1773253761088,1541,2546,15659,2471560,217468,-518013,0,0,0,323,476,306,403,390,444,562,563,311,336,428,235,0,
1,1773253761104,-10471,-1340,23436,6388428,43982,2561968,0,0,0,350,401,196,405,338,488,244,148,414,140,93,378,0,
2,1773253761104,3182,1440,12017,1766622,208915,-306654,0,0,0,355,490,320,419,401,459,566,565,320,253,320,300,0,
1,1773253761120,-9767,-1153,25125,6702413,432492,3032335,0,0,0,301,368,196,363,279,406,258,169,352,134,105,289,0,
2,1773253761120,2948,-440,11447,1065348,61086,36651,0,0,0,374,495,329,423,404,467,574,574,325,259,305,329,0,
1,1773253761136,-8738,239,26010,6901555,763581,3320663,0,0,0,265,319,214,317,241,346,301,210,302,152,165,178,0,
2,1773253761136,1971,-105,11002,447153,-152716,145385,0,0,0,397,508,341,427,408,475,580,580,336,259,312,344,0,
1,1773253761152,-9696,3082,24359,7116580,700051,3433062,0,0,0,263,287,227,291,197,311,337,238,288,173,207,140,0,
2,1773253761152,1560,765,10356,180816,-221133,64751,0,0,0,410,514,345,436,416,482,585,585,340,261,317,349,0,
1,1773253761168,-10739,8585,16046,7089701,367740,3547905,0,0,0,270,278,244,284,172,308,347,252,300,181,222,154,0,
2,1773253761168,1603,990,10160,65973,-184481,7330,0,0,0,419,516,344,440,416,481,592,593,336,266,323,353,0,
1,1773253761184,-8973,12088,9901,5843536,543670,3396410,0,0,0,265,282,259,284,177,318,343,257,303,179,222,160,0,
2,1773253761184,1804,1086,10256,43982,-140499,1221,0,0,0,427,522,345,440,418,483,593,594,337,271,328,359,0,
1,1773253761200,-6307,15879,9370,2846632,873537,2263866,0,0,0,261,289,262,283,182,319,344,259,298,178,218,157,0,
2,1773253761200,1885,1273,10265,83077,-162490,-3665,0,0,0,431,527,348,439,421,488,592,591,343,275,326,368,0,
1,1773253761216,-4278,15573,10107,-1367116,1402546,15882,0,0,0,256,296,262,283,189,324,346,263,307,182,217,160,0,
2,1773253761216,1751,1387,10246,183259,-215024,-25656,0,0,0,434,528,352,440,419,489,591,591,345,275,316,377,0,
1,1773253761232,-5039,10849,7949,-3590665,1841147,-1426981,0,0,0,245,301,265,280,205,323,348,263,313,193,220,163,0,
2,1773253761232,1517,1330,10203,266337,-189368,-43982,0,0,0,436,529,350,442,423,489,589,589,343,266,300,382,0,
1,1773253761248,-7901,5427,3986,-3663969,1545489,-1483180,0,0,0,244,294,265,279,188,323,348,266,309,178,222,159,0,
2,1773253761248,1440,1253,10083,307876,-90408,-42760,0,0,0,438,531,347,440,429,492,590,589,344,257,279,388,0,
1,1773253761264,-7642,5111,3531,-3440393,331088,-794124,0,0,0,243,293,271,279,182,329,333,256,314,177,224,166,0,
2,1773253761264,1493,1186,9954,332310,-12217,-36651,0,0,0,443,536,350,443,430,496,588,585,347,250,256,394,0,
1,1773253761280,-5211,6202,5149,-3866776,-349414,-577878,0,0,0,242,299,275,277,193,328,345,271,314,179,236,158,0,
2,1773253761280,1579,1100,9853,337197,0,-36651,0,0,0,440,536,347,442,430,496,583,571,349,250,249,398,0,
1,1773253761296,-3551,6700,6819,-4579045,-329867,-838107,0,0,0,249,300,273,283,194,326,348,265,309,184,230,157,0,
2,1773253761296,1636,1014,9772,327423,-10995,-41538,0,0,0,448,541,349,446,434,498,583,566,355,249,240,407,0,
1,1773253761312,-4072,6154,7858,-5243667,-313984,-1218065,0,0,0,254,296,270,288,193,328,348,263,312,187,227,157,0,
2,1773253761312,1665,952,9710,304210,-40317,-51312,0,0,0,451,546,352,447,437,500,579,549,354,243,225,413,0,
1,1773253761328,-4446,5369,9112,-5854532,-645073,-1472185,0,0,0,249,297,273,290,193,331,348,263,315,186,228,159,0,
2,1773253761328,1627,928,9715,278554,-70860,-63529,0,0,0,452,554,348,445,441,499,576,545,358,242,222,415,0,
1,1773253761344,-3953,4020,10638,-6322455,-1025031,-1546710,0,0,0,245,299,273,286,194,333,349,263,317,186,230,161,0,
2,1773253761344,1603,928,9734,259006,-94073,-79412,0,0,0,453,555,347,448,442,499,577,547,366,246,220,424,0,
1,1773253761360,-3522,2431,11988,-6488610,-1248608,-1426981,0,0,0,245,299,272,285,194,334,348,264,320,188,234,163,0,
2,1773253761360,1612,914,9724,245567,-117286,-87964,0,0,0,458,558,351,453,447,505,581,541,371,248,213,429,0,
1,1773253761376,-3096,1497,13462,-6350555,-1417207,-1122770,0,0,0,247,299,269,289,193,333,348,263,320,192,237,163,0,
2,1773253761376,1564,861,9705,238237,-139277,-89186,0,0,0,459,560,358,456,452,514,578,528,363,246,206,440,0,
1,1773253761392,-2522,1627,15821,-6213721,-1563815,-753807,0,0,0,247,301,266,292,194,332,351,265,318,193,236,161,0,
2,1773253761392,1474,808,9719,239459,-149051,-83077,0,0,0,461,561,364,459,450,521,581,520,365,244,198,446,0,
1,1773253761408,-2139,1631,18286,-6315124,-1640784,-485026,0,0,0,245,303,264,289,197,330,353,268,320,193,237,160,0,
2,1773253761408,1464,813,9830,266337,-135612,-79412,0,0,0,468,564,367,462,451,531,581,512,376,252,199,458,0,
1,1773253761424,-2100,636,20004,-6421415,-1635897,-430049,0,0,0,248,303,260,291,197,327,350,264,313,194,235,157,0,
2,1773253761424,1526,837,9944,320093,-123394,-84299,0,0,0,475,568,367,470,458,538,579,497,387,256,192,476,0,
1,1773253761440,-2651,-861,21727,-6228381,-1643227,-667064,0,0,0,247,304,260,289,197,328,350,265,316,188,231,157,0,
2,1773253761440,1598,832,10035,405614,-120951,-98960,0,0,0,482,572,365,479,466,537,578,477,391,249,181,491,0,
1,1773253761456,-3852,-1847,23732,-5733581,-1825265,-1356120,0,0,0,246,301,259,288,197,327,353,270,319,185,227,159,0,
2,1773253761456,1550,727,10107,493579,-107512,-118507,0,0,0,494,579,371,482,472,539,574,453,393,252,181,512,0,
1,1773253761472,-4608,-3326,26441,-5324301,-2125811,-2223549,0,0,0,248,305,259,290,204,327,350,270,311,187,227,157,0,
2,1773253761472,1526,636,10189,579100,-73303,-139277,0,0,0,511,592,380,484,474,542,568,419,401,264,183,536,0,
1,1773253761488,-5072,-7317,29384,-5136154,-2295631,-3094643,0,0,0,252,304,259,297,197,328,350,258,308,195,227,157,0,
2,1773253761488,1612,607,10318,676838,-28099,-161268,0,0,0,518,598,374,486,488,548,557,381,405,264,184,549,0,
1,1773253761504,-7049,-15788,28997,-5200906,-2018298,-3185051,0,0,0,248,311,260,289,213,336,359,267,309,192,228,157,0,
2,1773253761504,1780,555,10547,803898,19547,-186924,0,0,0,527,601,383,494,503,569,546,343,419,259,178,553,0,
1,1773253761520,-8365,-25958,24891,-5005429,-1871691,-2388483,0,0,0,246,317,258,291,230,339,361,271,315,194,233,159,0,
2,1773253761520,1986,435,10959,940732,86742,-229685,0,0,0,532,607,411,512,513,582,521,305,427,266,178,572,0,
1,1773253761536,-3689,-33227,19502,-4097684,-2238210,-1062905,0,0,0,250,310,254,294,208,333,361,265,308,197,230,155,0,
2,1773253761536,1981,320,11701,1166752,114842,-293215,0,0,0,537,606,371,524,512,579,501,280,441,269,178,579,0,
1,1773253761552,7106,-36654,15774,-2250427,-2036624,31764,0,0,0,251,308,250,298,201,328,364,265,301,198,231,151,0,
2,1773253761552,1880,248,12404,1505171,29321,-324980,0,0,0,541,609,343,533,517,581,464,256,434,279,179,591,0,
1,1773253761568,10997,-38501,14362,-698829,-852767,505796,0,0,0,248,306,245,296,202,323,363,273,296,199,240,148,0,
2,1773253761568,1933,134,13007,1927890,-131946,-323758,0,0,0,549,609,326,531,538,593,421,247,438,271,187,594,0,
1,1773253761584,8164,-36343,14323,627969,399505,886976,0,0,0,250,306,236,299,197,315,389,314,289,231,289,135,0,
2,1773253761584,2407,-67,13634,2438574,-239459,-362853,0,0,0,555,619,314,528,552,597,373,278,431,266,183,607,0,
1,1773253761600,2502,-22411,16865,2230879,1690874,1130100,0,0,0,251,294,209,299,181,294,436,383,283,283,364,113,0,
2,1773253761600,2833,-172,14242,3018896,-327423,-471587,0,0,0,558,610,281,528,561,593,341,255,439,272,180,611,0,
1,1773253761616,-4412,7006,17630,3109304,2866179,733038,0,0,0,250,269,176,292,165,267,464,440,281,315,412,98,0,
2,1773253761616,2603,-71,14826,3558900,-465479,-581543,0,0,0,570,603,264,524,559,585,316,233,436,272,176,612,0,
1,1773253761632,-6609,22828,11299,3161838,3590665,-155159,0,0,0,259,264,175,299,162,268,479,479,278,335,422,93,0,
2,1773253761632,2531,4,15606,4092797,-574213,-657290,0,0,0,581,605,264,524,552,589,297,211,429,260,170,615,0,
1,1773253761648,-1430,8365,10567,4075692,2929709,-461814,0,0,0,264,267,182,299,156,277,500,500,279,368,439,95,0,
2,1773253761648,3560,-134,16908,4757418,-649960,-779464,0,0,0,579,601,275,518,545,601,287,180,424,242,156,588,0,
1,1773253761664,2895,-2847,18860,4907691,1077566,-263893,0,0,0,272,269,202,309,156,291,509,510,292,391,452,96,0,
2,1773253761664,5144,-464,19631,5652946,-740368,-1097113,0,0,0,559,579,277,501,535,595,280,158,414,228,147,539,0,
1,1773253761680,2172,-2239,21718,3938859,29321,153938,0,0,0,275,280,201,321,168,289,517,518,284,402,463,92,0,
2,1773253761680,5881,-1344,23230,6542366,-806342,-1446528,0,0,0,514,552,253,483,520,563,278,156,392,217,146,482,0,
1,1773253761696,-1483,1225,15955,2514321,-7330,354301,0,0,0,280,278,244,319,168,315,530,530,288,411,472,106,0,
2,1773253761696,6599,-1995,26465,7327939,-594982,-1749518,0,0,0,441,531,214,460,496,521,295,170,358,199,131,408,0,
1,1773253761712,-3421,2005,10500,1767844,23212,164933,0,0,0,288,279,278,309,177,308,564,564,297,422,493,108,0,
2,1773253761712,5977,-804,28705,7892378,-201585,-2017077,0,0,0,360,495,189,427,457,459,320,206,318,176,124,347,0,
1,1773253761728,-2651,387,9332,1530828,54977,-118507,0,0,0,291,294,307,322,186,343,561,561,301,450,503,133,0,
2,1773253761728,4474,2024,28920,8178263,111177,-2191784,0,0,0,298,449,205,380,406,401,344,269,281,134,109,243,0,
1,1773253761744,-2129,-564,10978,985936,120951,-89186,0,0,0,305,306,312,333,201,351,565,565,313,468,509,154,0,
2,1773253761744,7288,6714,22378,8203920,475253,-2444682,0,0,0,293,449,239,367,396,394,359,291,287,122,102,215,0,
1,1773253761760,-2129,-33,11299,439822,166155,-29321,0,0,0,319,313,308,342,206,346,570,571,302,484,517,166,0,
2,1773253761760,11026,10031,12754,7798305,769690,-3175277,0,0,0,300,448,250,370,397,410,359,308,296,122,109,228,0,
1,1773253761776,-2057,722,10480,221133,131946,-7330,0,0,0,329,320,311,346,214,349,579,571,297,486,525,178,0,
2,1773253761776,8915,10839,11122,6594901,571769,-3870442,0,0,0,296,452,232,373,398,398,357,310,287,117,107,205,0,
1,1773253761792,-1990,952,10098,177150,89186,1221,0,0,0,338,327,321,348,215,347,586,570,299,481,527,188,0,
2,1773253761792,1995,16448,11438,2664594,-465479,-2838079,0,0,0,296,453,230,379,401,397,359,312,276,123,112,201,0,
1,1773253761808,-1957,990,10222,200363,65973,28099,0,0,0,342,341,326,355,213,347,581,570,305,475,522,193,0,
2,1773253761808,531,17788,10346,-2296853,-1833817,-389732,0,0,0,292,452,224,380,401,395,360,312,275,122,109,202,0,
1,1773253761824,-1847,1115,10294,259006,30543,57421,0,0,0,340,356,327,361,220,361,571,562,315,466,515,203,0,
2,1773253761824,5130,11261,8470,-5172806,-2152689,1387885,0,0,0,289,455,225,380,401,396,362,308,275,158,174,200,0,
1,1773253761840,-1756,1229,10179,353080,-41538,76969,0,0,0,343,353,331,360,219,375,574,541,316,465,515,224,0,
2,1773253761840,7834,5642,6963,-6061004,-1455080,1732413,0,0,0,279,459,223,378,398,396,358,298,275,170,196,198,0,
1,1773253761856,-1823,1148,9997,461814,-118507,84299,0,0,0,345,348,328,364,221,388,572,522,311,473,512,246,0,
2,1773253761856,6551,4178,6365,-5871636,-394618,1116661,0,0,0,279,456,231,378,401,398,364,311,278,143,144,199,0,
1,1773253761872,-1923,914,9810,527787,-152716,86742,0,0,0,353,360,340,358,234,389,565,503,334,452,491,264,0,
2,1773253761872,4570,4221,6891,-5882632,-2443,711047,0,0,0,281,453,236,367,414,395,370,325,281,125,111,201,0,
1,1773253761888,-1976,693,9667,509461,-134390,84299,0,0,0,348,374,339,360,250,389,556,491,362,437,475,279,0,
2,1773253761888,3508,3718,7934,-6054896,195476,455705,0,0,0,281,454,236,363,415,393,370,326,280,124,111,203,0,
1,1773253761904,-1981,559,9590,439822,-101403,83077,0,0,0,343,365,333,361,245,388,522,435,362,426,464,288,0,
2,1773253761904,2890,3584,8992,-6196616,544891,387288,0,0,0,281,453,236,377,404,399,369,323,278,125,113,203,0,
1,1773253761920,-1986,516,9538,364075,-68416,86742,0,0,0,356,388,341,364,236,392,560,454,363,419,448,299,0,
2,1773253761920,1689,3799,10413,-6320011,987158,443488,0,0,0,281,453,236,378,404,400,371,325,279,126,115,203,0,
1,1773253761936,-1971,555,9528,302989,-30543,96516,0,0,0,352,398,320,374,254,395,545,463,375,417,433,310,0,
2,1773253761936,502,3843,12021,-6411641,1248608,662177,0,0,0,281,454,236,377,402,399,372,326,282,125,116,202,0,
1,1773253761952,-1933,588,9585,265115,-2443,108734,0,0,0,346,400,314,379,282,398,546,456,377,405,428,317,0,
2,1773253761952,272,3374,13204,-6383541,1284038,869872,0,0,0,279,454,234,377,402,400,372,327,283,124,113,202,0,
1,1773253761968,-1890,583,9652,251676,8552,113620,0,0,0,348,398,327,377,280,401,552,442,375,391,420,328,0,
2,1773253761968,181,2952,14649,-6282138,1372003,960280,0,0,0,281,457,237,380,404,402,372,329,283,126,113,202,0,
1,1773253761984,-1866,545,9672,252898,10995,109955,0,0,0,350,398,315,379,287,405,549,430,372,391,416,337,0,
2,1773253761984,-157,2914,16625,-6256481,1456302,846659,0,0,0,278,454,234,381,404,404,378,332,287,124,113,201,0,
1,1773253762000,-1861,512,9700,266337,9773,107512,0,0,0,353,400,326,381,287,409,549,421,363,390,407,350,0,
2,1773253762000,-220,3019,18918,-6352998,1423316,684169,0,0,0,283,456,239,379,403,400,379,332,287,124,110,197,0,
1,1773253762016,-1852,483,9777,298102,1221,116064,0,0,0,361,404,341,383,280,410,560,405,366,378,391,358,0,
2,1773253762016,478,3105,21311,-6502049,1329242,583987,0,0,0,283,454,235,386,408,406,379,333,285,124,115,198,0,
1,1773253762032,-1852,406,9825,337197,-13439,134390,0,0,0,367,414,341,378,284,418,568,391,383,361,371,371,0,
2,1773253762032,1809,2761,24154,-6580240,1317025,623082,0,0,0,283,455,238,383,405,404,378,330,285,119,109,195,0,
1,1773253762048,-1947,335,9710,370184,-13439,168598,0,0,0,372,422,344,378,292,432,563,375,388,349,347,398,0,
2,1773253762048,3474,674,27867,-6511823,1390329,868650,0,0,0,288,458,241,386,405,406,380,326,285,122,109,194,0,
1,1773253762064,-2053,315,9605,386066,18325,213802,0,0,0,385,426,342,396,292,445,557,348,392,347,321,426,0,
2,1773253762064,4800,-4733,30370,-6387206,1622458,1268156,0,0,0,290,458,240,389,404,404,385,322,285,125,110,194,0,
1,1773253762080,-2129,344,9882,497244,43982,283441,0,0,0,399,439,353,412,284,460,556,319,414,345,290,447,0,
2,1773253762080,4929,-13299,30988,-6213721,2041511,1550375,0,0,0,292,459,240,390,404,404,386,321,285,126,108,195,0,
1,1773253762096,-2096,291,10212,684169,17104,339641,0,0,0,401,443,370,394,299,486,549,286,420,324,271,474,0,
2,1773253762096,2885,-25427,28633,-5639507,2301740,1544267,0,0,0,288,462,234,388,401,405,381,314,285,166,159,194,0,
1,1773253762112,-2091,201,10490,855211,-4886,378736,0,0,0,425,465,365,412,326,490,532,270,421,307,245,500,0,
2,1773253762112,-1277,-35505,22488,-4091575,2068389,1192408,0,0,0,282,466,228,387,400,407,375,306,284,211,219,192,0,
1,1773253762128,-2105,105,11040,1072679,-20769,400727,0,0,0,484,490,380,423,389,509,509,254,438,300,244,510,0,
2,1773253762128,-5235,-40947,17027,-2255314,1562593,615752,0,0,0,284,464,225,390,405,408,382,319,285,187,193,193,0,
1,1773253762144,-2062,-4,11749,1346346,-39095,417831,0,0,0,475,525,354,447,373,520,485,229,440,303,217,534,0,
2,1773253762144,-7351,-42756,14295,-461814,605978,-294437,0,0,0,278,450,213,386,406,400,408,381,284,136,144,192,0,
1,1773253762160,-1995,-148,12462,1667662,-81855,439822,0,0,0,476,550,320,455,397,533,441,218,450,281,195,544,0,
2,1773253762160,-7336,-38119,17611,984714,-621860,-945619,0,0,0,267,442,205,379,399,394,443,459,272,158,197,174,0,
1,1773253762176,-2139,-344,13170,2068389,-52534,476474,0,0,0,488,544,291,466,418,553,424,198,445,329,191,544,0,
2,1773253762176,-3862,-16956,21095,3227811,-2963918,-1040914,0,0,0,259,429,178,371,380,380,483,489,266,214,267,162,0,
1,1773253762192,-2435,-430,14041,2596177,72082,543670,0,0,0,505,547,250,486,463,549,339,198,458,294,198,558,0,
2,1773253762192,3029,7384,16434,4185648,-3951076,-532674,0,0,0,271,412,182,380,371,399,507,506,281,237,325,163,0,
1,1773253762208,-2828,-339,15108,3259576,193033,662177,0,0,0,525,532,245,486,464,540,268,203,454,252,186,562,0,
2,1773253762208,4168,13113,13505,4583932,-3106860,175929,0,0,0,280,426,227,388,370,423,532,532,294,296,368,168,0,
1,1773253762224,-3503,-287,16707,3943745,294437,833220,0,0,0,535,513,244,458,435,537,245,209,428,228,169,536,0,
2,1773253762224,-2297,1392,18808,4764748,-889419,665843,0,0,0,294,453,262,394,382,422,527,538,300,273,365,179,0,
1,1773253762240,-4766,-315,19449,4684114,400727,1080009,0,0,0,518,490,247,432,400,510,235,194,401,204,150,476,0,
2,1773253762240,-4527,-2483,22464,3846007,15882,133168,0,0,0,309,470,288,411,396,437,549,550,315,244,334,216,0,
1,1773253762256,-7312,-1306,22751,5511226,447153,1440420,0,0,0,465,461,262,414,363,476,223,176,382,188,134,418,0,
2,1773253762256,-780,368,17640,2311514,191811,-439822,0,0,0,326,482,310,419,402,454,561,561,329,243,314,259,0,
1,1773253762272,-11313,-2067,25168,6453180,450818,2037846,0,0,0,408,437,253,378,332,455,219,186,360,179,131,384,0,
2,1773253762272,2225,1866,11395,1329242,293215,-190589,0,0,0,348,491,321,430,413,465,572,572,332,249,311,293,0,
1,1773253762288,-11902,-722,26786,7213096,640186,2860071,0,0,0,358,413,234,337,298,418,232,199,331,172,140,340,0,
2,1773253762288,2364,933,9289,799011,274889,105068,0,0,0,364,498,329,434,415,470,580,580,336,263,313,318,0,
1,1773253762304,-9734,1411,27882,7663915,1231504,3428175,0,0,0,288,376,238,307,254,379,278,213,315,168,175,260,0,
2,1773253762304,1407,-76,10323,412944,17104,168598,0,0,0,376,504,337,440,419,476,585,585,342,272,316,334,0,
1,1773253762320,-8848,3900,26824,7953465,1918116,3677408,0,0,0,254,327,241,266,209,309,323,255,304,169,225,150,0,
2,1773253762320,1115,804,10648,173485,-160046,85521,0,0,0,387,509,344,444,421,481,587,587,348,270,315,344,0,
1,1773253762336,-10897,7872,19516,7690793,2419026,3714060,0,0,0,273,300,247,277,185,312,329,265,304,186,245,157,0,
2,1773253762336,1038,1694,10356,80634,-173485,42760,0,0,0,400,512,351,445,422,483,587,588,347,271,312,357,0,
1,1773253762352,-12194,10949,12132,6427524,2196671,3495370,0,0,0,269,316,242,279,201,314,329,284,302,180,244,158,0,
2,1773253762352,1196,1947,10122,146607,-114842,36651,0,0,0,411,513,358,445,425,485,588,588,342,276,310,370,0,
1,1773253762368,-9652,14582,9552,3260798,838107,2346944,0,0,0,267,316,242,280,196,317,339,288,309,184,243,161,0,
2,1773253762368,1172,1751,10232,235793,-146607,24434,0,0,0,417,513,369,451,424,490,593,592,346,276,300,381,0,
1,1773253762384,-3924,15482,10547,-1132544,427605,-277332,0,0,0,269,315,239,293,198,317,348,286,298,187,243,158,0,
2,1773253762384,995,1670,10294,291993,-161268,2443,0,0,0,426,515,368,455,428,490,593,586,346,271,281,393,0,
1,1773253762400,-4962,11390,8207,-3431840,1127657,-2196671,0,0,0,268,312,236,297,197,317,357,286,295,191,245,157,0,
2,1773253762400,847,1742,10241,334754,-91629,-24434,0,0,0,430,516,363,453,428,492,591,575,345,262,259,404,0,
1,1773253762416,-8825,6690,4178,-3501479,587652,-2252871,0,0,0,264,311,236,291,197,317,350,287,298,192,248,159,0,
2,1773253762416,827,1732,10122,388510,10995,-45204,0,0,0,429,518,363,455,430,494,589,566,346,256,236,410,0,
1,1773253762432,-7561,4905,2737,-3197268,-811229,-1420872,0,0,0,261,313,238,287,199,318,341,288,299,191,250,160,0,
2,1773253762432,909,1574,9964,439822,102625,-58643,0,0,0,434,523,364,459,435,498,590,555,355,250,225,415,0,
1,1773253762448,-3948,5876,4292,-3447723,-1031140,-1010371,0,0,0,260,316,239,290,203,320,340,288,296,190,250,159,0,
2,1773253762448,1019,1483,9863,465479,130725,-64751,0,0,0,439,529,366,463,440,502,592,545,364,244,214,420,0,
1,1773253762464,-3804,6384,5795,-4124562,-565661,-1086118,0,0,0,254,318,238,292,206,321,340,288,297,188,253,158,0,
2,1773253762464,1124,1421,9834,483805,128281,-69638,0,0,0,441,530,367,466,445,511,583,530,360,239,202,427,0,
1,1773253762480,-4962,6154,6958,-4781853,-586430,-1197295,0,0,0,246,318,240,289,206,323,338,290,299,189,254,160,0,
2,1773253762480,1215,1335,9853,488692,102625,-76969,0,0,0,449,530,372,464,435,510,585,509,360,257,197,433,0,
1,1773253762496,-4905,5580,8389,-5358509,-1077566,-1298699,0,0,0,250,318,243,287,205,320,337,289,296,193,252,163,0,
2,1773253762496,1282,1244,9830,474031,62308,-91629,0,0,0,449,537,369,469,450,514,585,493,367,241,186,440,0,
1,1773253762512,-4484,4733,9810,-5831319,-1395216,-1455080,0,0,0,249,321,240,287,210,319,345,294,300,191,252,159,0,
2,1773253762512,1292,1172,9796,450818,12217,-105068,0,0,0,454,535,371,475,456,523,588,483,370,236,178,449,0,
1,1773253762528,-4517,3374,11155,-6144082,-1607797,-1584584,0,0,0,253,329,244,288,212,318,345,294,297,194,256,159,0,
2,1773253762528,1273,1115,9796,431270,-32986,-111177,0,0,0,460,535,373,478,458,529,589,469,372,241,177,461,0,
1,1773253762544,-4369,1971,13003,-6213721,-1920560,-1513724,0,0,0,251,329,241,291,212,316,345,296,289,197,261,159,0,
2,1773253762544,1234,1048,9815,412944,-73303,-112399,0,0,0,470,540,376,478,458,536,586,451,377,251,178,473,0,
1,1773253762560,-3785,1426,15123,-6175847,-2123367,-1326799,0,0,0,256,322,249,294,206,322,352,297,313,197,253,164,0,
2,1773253762560,1162,957,9839,400727,-95294,-112399,0,0,0,482,544,380,479,457,541,580,432,386,252,174,486,0,
1,1773253762576,-3268,1038,17583,-6180734,-2228436,-1077566,0,0,0,253,322,254,284,208,326,353,300,319,192,252,167,0,
2,1773253762576,1134,856,9892,395840,-92851,-118507,0,0,0,492,547,381,481,462,541,574,416,389,241,166,499,0,
1,1773253762592,-2555,253,20105,-6192951,-2305405,-842994,0,0,0,253,322,255,281,203,322,350,297,316,195,253,168,0,
2,1773253762592,1177,818,9968,403171,-83077,-131946,0,0,0,503,555,390,485,469,543,571,398,386,244,164,511,0,
1,1773253762608,-1770,-440,22187,-6112317,-2261423,-875980,0,0,0,255,324,253,283,204,317,349,296,303,192,250,162,0,
2,1773253762608,1253,837,10069,439822,-69638,-156381,0,0,0,514,558,405,489,475,548,565,375,393,274,174,534,0,
1,1773253762624,-1641,-890,24484,-5907066,-2138028,-1423316,0,0,0,258,326,254,286,204,318,353,294,298,199,249,160,0,
2,1773253762624,1349,827,10179,521678,-64751,-186924,0,0,0,520,567,400,502,486,551,565,358,396,351,190,537,0,
1,1773253762640,-2062,-1966,27111,-5717698,-2127032,-2200336,0,0,0,260,327,250,287,202,316,356,291,299,205,248,159,0,
2,1773253762640,1454,737,10327,636521,-78190,-228463,0,0,0,531,574,409,509,488,553,551,328,399,253,154,556,0,
1,1773253762656,-2584,-5259,30217,-5638286,-2162462,-2950479,0,0,0,259,329,247,287,204,316,357,295,302,198,248,154,0,
2,1773253762656,1627,564,10552,769690,-97738,-287106,0,0,0,537,584,393,513,501,552,542,307,415,262,170,574,0,
1,1773253762672,-4326,-13606,30638,-5858197,-1782504,-2961474,0,0,0,264,337,244,301,213,317,365,302,308,196,248,150,0,
2,1773253762672,2005,354,10873,923628,-118507,-378736,0,0,0,547,590,398,521,517,563,527,280,409,285,172,581,0,
1,1773253762688,-5805,-25159,26101,-5729915,-1549154,-1896125,0,0,0,267,343,237,313,221,312,372,302,307,202,245,149,0,
2,1773253762688,2311,287,11361,1134987,-161268,-513126,0,0,0,542,591,376,529,538,570,513,256,428,280,186,596,0,
1,1773253762704,-861,-35405,20373,-4667010,-1870469,-433714,0,0,0,252,337,237,289,222,311,359,296,304,197,246,149,0,
2,1773253762704,2005,335,11954,1412320,-233350,-631634,0,0,0,556,590,369,537,538,584,485,246,427,271,182,605,0,
1,1773253762720,10284,-40301,16300,-2634050,-1808161,651182,0,0,0,255,339,236,288,218,309,365,299,301,197,246,148,0,
2,1773253762720,952,397,12620,1777617,-321315,-653625,0,0,0,560,591,328,535,541,584,450,241,427,279,187,613,0,
1,1773253762736,13802,-40904,14998,-885754,-509461,948062,0,0,0,244,341,219,288,223,300,369,299,285,234,287,143,0,
2,1773253762736,392,325,13357,2263866,-367740,-532674,0,0,0,559,595,303,535,548,587,415,239,429,293,190,608,0,
1,1773253762752,10715,-37358,16132,675616,1023810,1132544,0,0,0,240,313,207,284,207,285,422,405,274,283,367,126,0,
2,1773253762752,756,306,14242,2770884,-362853,-426383,0,0,0,569,599,287,534,552,592,368,232,430,283,182,609,0,
1,1773253762768,1397,-18521,17616,2487443,2880840,1192408,0,0,0,242,299,156,284,188,253,461,459,269,289,402,107,0,
2,1773253762768,1636,382,15343,3400075,-353080,-423940,0,0,0,576,598,269,533,555,597,322,219,426,268,176,614,0,
1,1773253762784,-6838,8150,13778,3693291,4178318,808785,0,0,0,249,300,146,287,183,251,473,473,268,314,416,95,0,
2,1773253762784,2220,311,16377,4102570,-395840,-546113,0,0,0,575,592,264,533,560,600,298,199,418,258,175,611,0,
1,1773253762800,-6972,12735,11533,4359134,4217413,86742,0,0,0,259,290,148,301,173,254,489,490,277,353,432,86,0,
2,1773253762800,3177,9,17865,4940678,-431270,-740368,0,0,0,574,579,274,529,555,591,294,174,415,243,164,591,0,
1,1773253762816,-837,1110,15620,5028642,2805093,-576656,0,0,0,256,281,150,304,165,271,504,505,296,381,449,88,0,
2,1773253762816,4919,-655,20995,5908288,-320093,-1073901,0,0,0,561,565,274,515,537,570,289,156,413,228,148,536,0,
1,1773253762832,3598,-2833,21182,4764748,1098335,-568104,0,0,0,249,284,150,313,179,292,522,522,306,400,467,96,0,
2,1773253762832,6652,-1263,25068,6861238,2443,-1494176,0,0,0,518,552,254,502,514,549,291,152,401,220,134,461,0,
1,1773253762848,1105,-555,19215,3489262,915076,-117286,0,0,0,256,299,166,332,202,312,548,549,310,428,491,125,0,
2,1773253762848,7398,-636,28437,7654141,471587,-1929112,0,0,0,430,523,208,480,492,515,298,166,363,211,132,396,0,
1,1773253762864,-1550,272,15391,2158797,862541,-12217,0,0,0,274,307,194,345,212,338,576,577,308,452,516,173,0,
2,1773253762864,6360,1134,30375,8239350,808785,-2315179,0,0,0,354,490,180,428,458,448,320,202,318,180,122,346,0,
1,1773253762880,-1622,-564,12084,983493,507018,-255341,0,0,0,290,306,222,349,217,364,592,593,308,449,527,217,0,
2,1773253762880,4938,3709,31706,8668177,998153,-2671924,0,0,0,280,442,207,376,404,402,353,281,287,122,103,220,0,
1,1773253762896,-746,-172,11251,510683,221133,-237015,0,0,0,305,318,251,358,223,383,598,598,335,443,531,259,0,
2,1773253762896,5963,7666,27566,8714603,717155,-2948035,0,0,0,282,449,228,366,394,399,363,305,291,119,109,212,0,
1,1773253762912,-894,717,10725,311541,136833,-135612,0,0,0,313,321,256,377,227,414,594,594,356,439,530,304,0,
2,1773253762912,8576,11686,16310,7837401,-478918,-3373197,0,0,0,284,451,230,369,398,406,363,314,292,208,155,212,0,
1,1773253762928,-1316,961,10394,285884,153938,-70860,0,0,0,313,337,301,370,242,442,586,586,384,445,524,321,0,
2,1773253762928,8805,15448,10222,5400048,-1552819,-3540574,0,0,0,288,455,233,367,401,400,359,311,283,148,125,212,0,
1,1773253762944,-1335,918,10260,282219,145385,-34208,0,0,0,313,329,277,380,242,425,595,595,361,436,534,321,0,
2,1773253762944,5752,19167,10165,150272,-1772730,-2426356,0,0,0,289,452,226,368,402,397,360,313,279,124,112,211,0,
1,1773253762960,-1062,899,10337,299323,83077,-4886,0,0,0,320,369,299,387,253,429,591,591,370,436,526,343,0,
2,1773253762960,3527,16850,10926,-4134335,-1940107,-788016,0,0,0,290,450,224,371,402,397,363,314,278,126,113,213,0,
1,1773253762976,-1005,1033,10433,351858,-17104,19547,0,0,0,316,367,296,400,266,450,587,586,379,415,510,359,0,
2,1773253762976,4824,8978,8336,-5810550,-2367713,505796,0,0,0,287,451,227,370,402,398,367,318,281,127,116,215,0,
1,1773253762992,-1076,1095,10457,415388,-95294,42760,0,0,0,321,397,278,412,292,436,566,566,384,408,490,371,0,
2,1773253762992,7877,4680,4417,-5236336,-1977981,448375,0,0,0,282,451,227,368,400,397,368,322,282,127,118,214,0,
1,1773253763008,-1119,976,10275,466701,-158824,54977,0,0,0,326,406,245,409,304,426,561,518,390,451,456,373,0,
2,1773253763008,8595,3876,3618,-4979773,-1037249,158824,0,0,0,279,453,227,367,400,396,367,322,280,136,133,212,0,
1,1773253763024,-1177,813,9997,478918,-206472,58643,0,0,0,327,401,234,412,308,428,558,500,386,419,425,387,0,
2,1773253763024,6958,4685,5991,-5379279,-107512,138055,0,0,0,277,453,228,367,402,398,368,323,279,142,143,210,0,
1,1773253763040,-1296,689,9748,447153,-222354,62308,0,0,0,325,391,228,414,304,428,559,491,383,379,406,395,0,
2,1773253763040,6082,4546,8140,-5910732,277332,515570,0,0,0,280,454,232,370,403,401,367,325,277,129,121,209,0,
1,1773253763056,-1383,622,9643,404392,-208915,68416,0,0,0,332,378,224,416,295,430,563,478,389,364,393,403,0,
2,1773253763056,6728,3249,9030,-6144082,624304,1055575,0,0,0,279,453,229,370,404,403,361,325,278,137,135,203,0,
1,1773253763072,-1421,603,9648,365297,-178372,76969,0,0,0,337,371,227,420,283,439,562,464,395,354,377,420,0,
2,1773253763072,6590,2234,10112,-6056117,1242499,1503950,0,0,0,285,455,233,374,406,405,342,328,285,123,115,207,0,
1,1773253763088,-1459,579,9681,334754,-135612,81855,0,0,0,327,372,230,418,272,446,559,447,397,351,363,434,0,
2,1773253763088,5814,1789,11581,-5988922,1639562,1894903,0,0,0,282,455,235,371,406,405,369,324,280,123,115,210,0,
1,1773253763104,-1483,531,9691,302989,-84299,86742,0,0,0,327,374,227,416,276,446,559,442,396,344,355,443,0,
2,1773253763104,5479,1603,13271,-6064670,1755626,2164906,0,0,0,282,455,235,373,406,405,371,326,280,123,115,207,0,
1,1773253763120,-1435,483,9681,274889,-36651,91629,0,0,0,326,369,222,417,279,450,561,424,381,339,345,442,0,
2,1773253763120,5451,1354,15281,-6240599,1892460,2236988,0,0,0,283,455,236,373,405,406,369,325,280,124,115,208,0,
1,1773253763136,-1325,459,9739,266337,-18325,92851,0,0,0,320,375,222,409,305,472,566,406,389,333,340,459,0,
2,1773253763136,5120,1028,17468,-6403089,2096489,2064724,0,0,0,280,457,237,373,406,407,372,329,283,130,118,204,0,
1,1773253763152,-1234,430,9868,278554,-30543,89186,0,0,0,333,374,234,409,286,495,560,394,401,325,320,461,0,
2,1773253763152,4340,894,20038,-6459289,2214997,1781283,0,0,0,281,455,234,373,404,405,374,330,284,124,116,204,0,
1,1773253763168,-1220,344,10016,312763,-78190,94073,0,0,0,345,367,239,431,289,496,577,386,392,334,299,469,0,
2,1773253763168,3412,1105,23048,-6466619,2230879,1543045,0,0,0,279,454,233,373,404,405,379,336,285,122,119,205,0,
1,1773253763184,-1354,272,10054,356745,-118507,111177,0,0,0,340,369,243,433,296,487,580,341,391,321,281,487,0,
2,1773253763184,2019,1220,27049,-6495940,2184454,1529606,0,0,0,274,452,227,374,407,403,385,357,282,129,133,203,0,
1,1773253763200,-1617,268,9978,425162,-131946,152716,0,0,0,340,386,250,439,340,491,576,331,403,307,269,517,0,
2,1773253763200,-3029,-2010,33481,-6497162,1500285,2012190,0,0,0,264,443,209,371,404,397,402,391,280,146,164,199,0,
1,1773253763216,-1876,268,9954,522900,-108734,222354,0,0,0,376,398,240,467,343,502,583,302,403,308,265,529,0,
2,1773253763216,-4307,-10930,36415,-6201503,2443,2605951,0,0,0,267,445,210,370,400,398,403,383,284,153,169,197,0,
1,1773253763232,-2053,172,10078,624304,-96516,300545,0,0,0,393,408,247,491,310,513,595,277,420,296,224,542,0,
2,1773253763232,4192,-23689,28422,-5230228,-487470,1822821,0,0,0,282,454,224,378,400,402,393,351,288,148,147,195,0,
1,1773253763248,-2258,0,10409,740368,-119729,387288,0,0,0,390,407,253,496,313,527,582,242,438,280,193,554,0,
2,1773253763248,13227,-30461,18913,-4670675,1881464,-532674,0,0,0,287,457,223,389,407,405,398,350,286,178,151,192,0,
1,1773253763264,-2680,-119,11050,928515,-213802,548556,0,0,0,395,432,243,499,373,535,554,243,441,263,186,561,0,
2,1773253763264,4029,-32510,18099,-4670675,4983438,-2610838,0,0,0,281,455,215,388,411,403,403,371,281,222,180,195,0,
1,1773253763280,-2158,-81,11763,1123992,-295658,693942,0,0,0,417,464,231,509,420,558,517,239,441,246,171,573,0,
2,1773253763280,-15730,-37985,20124,-2871066,3235142,-2125811,0,0,0,261,442,191,378,409,391,418,424,275,150,174,193,0,
1,1773253763296,-808,-119,12543,1462411,-289550,697608,0,0,0,431,472,214,523,436,586,482,202,465,243,154,585,0,
2,1773253763296,-20947,-43273,21526,204028,-640186,-613308,0,0,0,267,447,200,373,398,389,458,480,272,162,210,180,0,
1,1773253763312,-124,-301,13070,1899790,-226020,555887,0,0,0,420,477,195,533,458,587,459,188,488,243,149,587,0,
2,1773253763312,-8877,-31093,19167,3595552,-3485597,287106,0,0,0,268,437,181,385,397,394,491,492,270,208,275,168,0,
1,1773253763328,-741,-478,13893,2465452,-277332,410501,0,0,0,413,470,204,530,457,592,421,180,472,228,132,588,0,
2,1773253763328,1608,-4302,16520,5662720,-3573561,544891,0,0,0,270,437,186,385,389,411,520,520,283,281,361,168,0,
1,1773253763344,-1938,-473,15089,3086091,-383623,395840,0,0,0,428,482,193,565,503,587,389,179,532,228,127,587,0,
2,1773253763344,2024,11543,18018,5760459,-1872912,668286,0,0,0,279,443,205,393,388,416,538,540,286,325,431,168,0,
1,1773253763360,-3273,-224,16951,3889989,-422718,551000,0,0,0,447,478,225,550,494,579,359,159,562,198,102,587,0,
2,1773253763360,-3905,2273,22239,4803844,-1033583,365297,0,0,0,283,453,229,399,395,426,544,543,297,309,415,176,0,
1,1773253763376,-5273,0,20138,4896695,-439822,895528,0,0,0,441,466,298,476,377,625,373,130,552,160,86,544,0,
2,1773253763376,-3498,-2967,21411,3557679,-722042,-228463,0,0,0,290,462,255,402,397,436,543,543,312,270,371,209,0,
1,1773253763392,-8030,-81,24201,6035348,-594982,1398881,0,0,0,431,466,223,485,425,574,311,141,524,165,93,484,0,
2,1773253763392,1048,224,14649,2315179,-226020,-420275,0,0,0,319,485,278,416,412,452,562,562,317,329,418,261,0,
1,1773253763408,-10241,-732,27489,7072597,-669508,1993864,0,0,0,384,444,190,439,389,512,262,150,454,152,96,398,0,
2,1773253763408,2134,2086,9839,1645670,205250,-84299,0,0,0,358,501,287,426,424,461,582,582,316,377,453,307,0,
1,1773253763424,-10452,-789,30208,7812966,-548556,2570520,0,0,0,321,418,181,390,332,444,253,166,374,143,104,313,0,
2,1773253763424,2182,-191,9523,917519,161268,74525,0,0,0,396,507,297,434,429,468,590,589,323,339,399,348,0,
1,1773253763440,-8379,1143,31672,8130616,-222354,3039665,0,0,0,271,350,186,333,270,360,285,208,312,151,151,204,0,
2,1773253763440,2091,-1512,11107,135612,-256563,57421,0,0,0,424,513,311,439,431,474,591,591,330,291,347,374,0,
1,1773253763456,-7599,4197,30030,8128172,445931,3196046,0,0,0,265,299,201,296,205,307,330,242,289,172,196,146,0,
2,1773253763456,1517,449,10882,-136833,-483805,15882,0,0,0,435,517,318,437,430,470,596,595,331,287,349,380,0,
1,1773253763472,-10796,9815,19114,8213694,746477,3207042,0,0,0,272,287,212,286,178,295,347,253,287,178,218,138,0,
2,1773253763472,923,1675,10294,-147829,-422718,13439,0,0,0,438,518,320,437,430,470,603,602,336,284,341,383,0,
1,1773253763488,-10256,13309,11026,7193549,436157,3214372,0,0,0,268,291,215,286,184,305,339,255,289,170,226,142,0,
2,1773253763488,942,1608,10428,-85521,-224798,15882,0,0,0,438,516,317,440,434,472,605,605,333,286,342,385,0,
1,1773253763504,-5652,17463,8925,3706730,654847,2239431,0,0,0,263,294,215,286,193,311,337,259,287,168,228,142,0,
2,1773253763504,1091,1517,10605,-10995,-89186,2443,0,0,0,438,517,316,440,433,470,600,600,328,288,343,384,0,
1,1773253763520,-3139,18616,10509,-1083674,1650557,-1221,0,0,0,264,299,212,288,198,305,346,269,283,170,231,138,0,
2,1773253763520,1091,1564,10375,76969,-19547,-20769,0,0,0,441,519,315,436,430,464,602,602,329,288,339,387,0,
1,1773253763536,-5786,13486,8624,-4032932,2244318,-1694540,0,0,0,257,305,215,284,200,311,345,268,299,173,235,148,0,
2,1773253763536,1062,1545,10083,133168,21991,-30543,0,0,0,443,522,315,440,432,472,599,599,329,290,339,384,0,
1,1773253763552,-8748,7915,5211,-4913799,1816713,-1869247,0,0,0,240,350,205,281,236,306,342,279,285,173,246,143,0,
2,1773253763552,1110,1469,9983,160046,46425,-34208,0,0,0,443,522,313,433,427,465,597,596,317,282,329,375,0,
1,1773253763568,-8758,5336,3460,-4808731,728151,-1010371,0,0,0,240,324,218,282,209,312,349,275,297,174,240,149,0,
2,1773253763568,1172,1421,9944,172263,40317,-36651,0,0,0,443,523,313,433,425,464,595,594,328,281,321,379,0,
1,1773253763584,-6211,5053,4532,-5071403,141720,-360410,0,0,0,241,306,225,280,209,317,340,269,307,170,238,148,0,
2,1773253763584,1215,1430,9877,190589,18325,-40317,0,0,0,440,522,314,435,426,467,590,587,323,277,310,383,0,
1,1773253763600,-4642,4895,6188,-5535660,111177,-167377,0,0,0,238,305,228,275,199,313,347,269,308,168,234,145,0,
2,1773253763600,1239,1469,9806,229685,-24434,-45204,0,0,0,440,524,313,436,430,468,578,570,323,261,271,383,0,
1,1773253763616,-4819,4450,7628,-5944940,-9773,-332310,0,0,0,241,308,229,278,200,319,345,270,318,172,234,151,0,
2,1773253763616,1215,1416,9782,266337,-63529,-51312,0,0,0,441,526,316,437,430,469,584,570,323,255,251,388,0,
1,1773253763632,-4857,4067,9049,-6267477,-483805,-626747,0,0,0,241,309,232,276,200,319,342,271,318,174,237,151,0,
2,1773253763632,1182,1335,9763,288328,-87964,-54977,0,0,0,450,528,319,442,435,473,584,568,326,282,277,387,0,
1,1773253763648,-4675,3412,10576,-6574131,-995710,-1010371,0,0,0,241,308,234,276,199,321,345,272,315,175,238,151,0,
2,1773253763648,1143,1253,9734,283441,-97738,-56199,0,0,0,458,529,318,447,440,478,580,559,328,293,287,390,0,
1,1773253763664,-4627,2182,12165,-6756169,-1446528,-1308473,0,0,0,244,308,237,280,199,326,347,273,316,177,238,151,0,
2,1773253763664,1115,1196,9696,261450,-100181,-56199,0,0,0,459,530,316,447,438,480,584,558,333,285,274,398,0,
1,1773253763680,-4446,1110,13697,-6646213,-1749518,-1369559,0,0,0,245,308,239,283,199,330,348,273,318,178,238,153,0,
2,1773253763680,1100,1153,9691,230907,-101403,-56199,0,0,0,466,533,319,446,437,481,587,561,344,287,273,404,0,
1,1773253763696,-4187,760,15855,-6406754,-1953547,-1308473,0,0,0,245,308,240,283,200,332,349,272,318,180,238,156,0,
2,1773253763696,1100,1134,9739,202807,-108734,-57421,0,0,0,475,536,324,454,445,486,587,556,348,264,241,416,0,
1,1773253763712,-3919,713,18200,-6296798,-2069611,-1270599,0,0,0,244,307,240,283,201,331,349,271,316,176,235,152,0,
2,1773253763712,1100,1153,9810,200363,-117286,-64751,0,0,0,476,543,334,462,458,493,586,545,352,252,219,428,0,
1,1773253763728,-3704,191,20813,-6195395,-2102598,-1356120,0,0,0,236,301,236,280,199,325,348,272,314,171,232,142,0,
2,1773253763728,1119,1182,9897,251676,-124616,-78190,0,0,0,484,551,338,463,463,500,591,536,349,260,214,450,0,
1,1773253763744,-3809,-789,23622,-5944940,-2127032,-1578475,0,0,0,216,293,225,284,202,322,345,269,311,176,235,143,0,
2,1773253763744,1134,1177,9959,324980,-129503,-91629,0,0,0,493,558,339,473,469,509,594,525,361,255,203,474,0,
1,1773253763760,-3857,-2072,26910,-5616295,-2206445,-2015855,0,0,0,245,312,241,284,204,326,345,269,314,174,234,145,0,
2,1773253763760,1139,1129,10035,430049,-135612,-108734,0,0,0,493,556,337,476,475,508,595,501,360,267,200,516,0,
1,1773253763776,-3804,-4747,30294,-5523443,-2243097,-2689028,0,0,0,249,312,240,284,201,324,348,269,317,180,234,147,0,
2,1773253763776,1148,1072,10155,547335,-129503,-130725,0,0,0,503,567,353,480,477,525,591,477,361,266,191,539,0,
1,1773253763792,-4862,-10217,31868,-5633399,-2120924,-3219259,0,0,0,249,313,232,289,207,316,352,276,286,182,246,134,0,
2,1773253763792,1225,1052,10337,682947,-117286,-158824,0,0,0,519,583,373,485,487,523,587,451,366,266,183,563,0,
1,1773253763808,-7858,-19741,28389,-5621181,-1869247,-2847853,0,0,0,252,313,230,294,206,309,355,273,282,181,242,131,0,
2,1773253763808,1330,1009,10581,846659,-102625,-189368,0,0,0,535,586,381,493,493,534,589,414,375,282,197,578,0,
1,1773253763824,-7753,-30054,22038,-5075068,-2116037,-1516167,0,0,0,256,314,231,295,208,309,355,273,283,186,244,132,0,
2,1773253763824,1292,851,10825,1031140,-62308,-218689,0,0,0,543,593,378,500,504,543,563,373,383,282,188,596,0,
1,1773253763840,1593,-37439,16515,-3711617,-2722015,339641,0,0,0,257,314,230,299,208,310,360,276,286,190,245,133,0,
2,1773253763840,1201,670,11007,1177748,8552,-232128,0,0,0,550,600,365,509,512,555,547,337,398,277,182,603,0,
1,1773253763856,13065,-40583,15013,-1909564,-1826487,1208291,0,0,0,256,314,233,299,206,311,361,273,290,194,245,136,0,
2,1773253763856,1263,507,11538,1367116,167377,-245567,0,0,0,556,605,342,522,530,568,505,289,405,278,183,613,0,
1,1773253763872,14587,-40310,14678,-312763,-51312,1307251,0,0,0,255,313,239,296,206,314,359,273,291,188,243,134,0,
2,1773253763872,1469,421,12687,1660331,334754,-290771,0,0,0,560,609,325,529,542,579,449,261,406,275,184,620,0,
1,1773253763888,6216,-33232,14955,1364672,1663996,1241278,0,0,0,251,315,233,293,216,316,365,292,285,204,276,130,0,
2,1773253763888,2086,253,14491,2276083,428827,-395840,0,0,0,566,611,306,530,545,582,397,257,405,274,187,620,0,
1,1773253763904,-2416,-18865,16941,2817310,2448347,1330464,0,0,0,246,310,204,285,230,294,403,346,271,267,335,120,0,
2,1773253763904,2550,114,15419,3025004,186924,-537561,0,0,0,577,612,281,527,554,576,349,251,401,274,184,617,0,
1,1773253763920,-8150,10447,18210,3402519,2808758,1159422,0,0,0,246,294,165,282,225,260,453,415,254,333,385,101,0,
2,1773253763920,2737,358,15721,3722612,-186924,-660956,0,0,0,592,616,276,519,557,571,316,244,405,264,175,610,0,
1,1773253763936,-8920,28245,11002,2729345,3414736,438601,0,0,0,251,287,148,293,197,253,467,455,248,353,418,86,0,
2,1773253763936,3216,397,16089,4302934,-442266,-781907,0,0,0,589,620,279,513,553,579,291,223,414,268,182,601,0,
1,1773253763952,-3699,12175,7221,3018896,3375641,-78190,0,0,0,250,286,151,292,192,257,476,477,264,368,427,81,0,
2,1773253763952,4292,138,17233,4927239,-560774,-987158,0,0,0,577,607,275,505,548,578,279,187,411,283,188,578,0,
1,1773253763968,1655,-3096,14721,4218635,1977981,-248011,0,0,0,251,285,175,302,185,289,496,496,307,390,439,102,0,
2,1773253763968,5757,-258,19707,5740911,-623082,-1359786,0,0,0,569,593,269,501,538,564,273,157,409,244,158,555,0,
1,1773253763984,2924,-3364,21067,4052479,871093,-42760,0,0,0,268,297,193,318,199,279,512,513,275,417,456,92,0,
2,1773253763984,6561,-579,23718,6604674,-586430,-1795943,0,0,0,527,553,250,495,521,548,275,155,386,244,168,474,0,
1,1773253764000,-19,1067,19937,2758667,602313,321315,0,0,0,262,313,205,332,217,296,536,536,309,434,470,95,0,
2,1773253764000,6743,177,27193,7346265,-437379,-2153910,0,0,0,427,529,209,463,497,504,295,172,364,220,153,403,0,
1,1773253764016,-2297,1459,14917,1607797,354301,146607,0,0,0,273,307,285,343,199,353,547,547,318,444,480,122,0,
2,1773253764016,5967,1588,28647,7971791,-249233,-2397035,0,0,0,367,506,189,427,471,451,316,212,323,197,140,359,0,
1,1773253764032,-1885,665,11040,978606,-2443,-191811,0,0,0,297,313,288,352,200,362,556,556,305,470,494,148,0,
2,1773253764032,5431,2273,27671,8475144,131946,-2574186,0,0,0,317,471,219,385,410,413,328,260,290,139,112,260,0,
1,1773253764048,-1344,421,10370,711047,-177150,-204028,0,0,0,304,328,311,354,210,370,571,569,318,480,501,184,0,
2,1773253764048,6422,4340,23349,8543561,740368,-2842966,0,0,0,294,455,230,369,399,400,349,301,286,120,105,216,0,
1,1773253764064,-1737,732,10404,488692,-155159,-122173,0,0,0,315,335,312,354,202,378,581,573,323,487,498,219,0,
2,1773253764064,7398,7896,15879,7977900,706160,-3281568,0,0,0,291,454,233,369,402,402,358,318,291,123,111,213,0,
1,1773253764080,-2115,1067,10323,354301,-46425,-58643,0,0,0,325,346,319,363,202,390,584,569,329,487,492,233,0,
2,1773253764080,4527,12309,12811,6174625,-800233,-3418401,0,0,0,285,455,227,374,406,405,356,321,285,120,112,209,0,
1,1773253764096,-1899,1143,10069,340862,8552,-19547,0,0,0,334,356,337,370,210,399,592,567,342,483,489,247,0,
2,1773253764096,2560,18592,10710,2057394,-2326174,-2287079,0,0,0,284,454,220,376,406,403,354,318,273,118,110,203,0,
1,1773253764112,-1641,1215,10059,370184,0,4886,0,0,0,338,360,342,367,215,406,607,563,354,473,484,265,0,
2,1773253764112,4685,17047,9073,-3082425,-2291966,-305432,0,0,0,287,453,220,375,405,399,358,319,270,119,110,202,0,
1,1773253764128,-1598,1249,10279,415388,-62308,20769,0,0,0,330,365,347,365,228,418,610,546,354,457,466,273,0,
2,1773253764128,6058,10399,8279,-5867971,-1582140,896750,0,0,0,289,453,223,375,405,398,366,323,275,123,113,201,0,
1,1773253764144,-1641,1239,10346,465479,-141720,40317,0,0,0,328,373,351,368,245,425,594,522,342,445,440,286,0,
2,1773253764144,5848,4216,7145,-6085439,-1009149,1148426,0,0,0,288,455,225,378,408,401,368,324,276,126,117,202,0,
1,1773253764160,-1646,1191,10098,505796,-211359,56199,0,0,0,342,382,352,382,251,420,584,497,347,431,422,311,0,
2,1773253764160,6025,2799,5618,-5348736,-910189,913854,0,0,0,284,455,228,377,406,400,368,326,273,125,120,201,0,
1,1773253764176,-1694,1110,9868,533896,-263893,63529,0,0,0,358,385,341,407,233,412,575,468,358,424,401,322,0,
2,1773253764176,6690,2847,5336,-5071403,-642630,656069,0,0,0,280,456,228,378,408,400,370,331,277,125,122,202,0,
1,1773253764192,-1832,942,10246,497244,-267558,72082,0,0,0,350,374,349,394,233,430,581,463,371,390,378,331,0,
2,1773253764192,6274,3460,6805,-5404935,-147829,527787,0,0,0,275,451,229,375,407,398,372,333,277,125,124,201,0,
1,1773253764208,-1957,799,11093,383623,-210137,90408,0,0,0,353,373,351,393,229,426,585,432,355,378,349,333,0,
2,1773253764208,5431,3622,8332,-5848423,262672,630412,0,0,0,274,457,229,378,410,401,372,338,275,127,129,200,0,
1,1773253764224,-1957,732,10222,371406,-190589,98960,0,0,0,344,373,355,405,226,443,567,421,363,375,352,354,0,
2,1773253764224,5340,2833,9207,-6130643,585208,962723,0,0,0,273,458,231,376,408,399,370,335,272,128,122,197,0,
1,1773253764240,-1952,703,9270,381179,-179594,105068,0,0,0,342,384,355,405,228,454,563,410,368,372,337,361,0,
2,1773253764240,5800,1746,9925,-6086661,1005484,1258382,0,0,0,272,456,230,377,409,399,371,336,272,123,115,199,0,
1,1773253764256,-1904,674,9284,326202,-136833,116064,0,0,0,342,384,349,406,236,462,563,400,372,367,331,377,0,
2,1773253764256,5757,1225,11237,-5974262,1445307,1484402,0,0,0,274,457,231,377,410,401,374,340,275,123,115,206,0,
1,1773253764272,-1804,679,9600,263893,-105068,124616,0,0,0,354,384,358,412,235,463,564,388,388,375,329,384,0,
2,1773253764272,5307,1354,13089,-5940053,1716531,1623679,0,0,0,273,457,232,379,410,402,375,341,278,124,114,209,0,
1,1773253764288,-1722,689,9777,249233,-117286,113620,0,0,0,356,383,330,413,239,456,570,378,386,366,323,389,0,
2,1773253764288,5226,1340,14850,-6048787,1852143,1617571,0,0,0,274,458,233,379,409,401,375,341,277,125,115,209,0,
1,1773253764304,-1727,641,9873,257785,-147829,97738,0,0,0,356,386,295,413,262,451,570,375,391,355,319,408,0,
2,1773253764304,4996,1263,16649,-6144082,2002416,1491732,0,0,0,276,459,234,379,409,401,377,342,277,125,116,207,0,
1,1773253764320,-1866,569,9873,288328,-183259,101403,0,0,0,361,385,289,414,276,458,566,371,403,354,312,434,0,
2,1773253764320,4422,1450,19143,-6167295,2109928,1281595,0,0,0,278,459,235,378,407,400,377,340,277,125,115,207,0,
1,1773253764336,-2019,507,9796,342084,-204028,144164,0,0,0,360,377,304,414,266,472,567,358,398,346,290,450,0,
2,1773253764336,4058,1785,22038,-6170960,2155132,1131322,0,0,0,278,458,235,378,405,400,377,338,277,125,114,208,0,
1,1773253764352,-2072,464,9786,390953,-207694,191811,0,0,0,373,383,331,427,266,479,562,346,407,346,270,462,0,
2,1773253764352,3699,1306,25752,-6258925,2208888,1132544,0,0,0,279,457,235,380,406,401,380,336,279,126,112,209,0,
1,1773253764368,-2120,478,9916,452040,-197920,227241,0,0,0,379,370,325,428,270,481,581,317,409,333,251,484,0,
2,1773253764368,2680,-1363,29217,-6416528,2289522,1286482,0,0,0,279,457,234,384,408,404,382,333,282,125,109,207,0,
1,1773253764384,-2244,478,10122,544891,-197920,261450,0,0,0,379,378,351,435,274,501,583,290,426,317,235,496,0,
2,1773253764384,1024,-9145,32060,-6521597,2296853,1524719,0,0,0,282,457,231,385,408,407,385,330,283,124,108,203,0,
1,1773253764400,-2412,449,10366,692721,-233350,313984,0,0,0,384,412,327,461,372,505,574,281,419,301,229,514,0,
2,1773253764400,1856,-20832,30610,-6058561,1836260,1275486,0,0,0,287,461,230,387,408,407,385,330,283,125,114,200,0,
1,1773253764416,-2474,406,10859,905302,-277332,377514,0,0,0,416,391,291,487,339,545,565,237,416,300,223,537,0,
2,1773253764416,3096,-32232,25307,-4961447,1474628,421497,0,0,0,287,460,229,390,410,410,389,331,288,127,114,204,0,
1,1773253764432,-2502,272,11466,1182635,-307876,422718,0,0,0,408,415,295,492,308,564,533,222,444,287,179,562,0,
2,1773253764432,-268,-40555,18702,-3191160,1695761,-992045,0,0,0,287,458,226,389,411,409,392,333,289,127,113,203,0,
1,1773253764448,-2163,52,12002,1543045,-354301,443488,0,0,0,396,440,251,518,365,570,511,215,453,274,170,573,0,
2,1773253764448,-9973,-42876,16697,-1374446,1662775,-1804495,0,0,0,283,455,218,383,408,398,398,354,289,127,120,200,0,
1,1773253764464,-1794,-167,12486,1910786,-448375,433714,0,0,0,400,442,237,526,427,553,493,197,461,275,153,584,0,
2,1773253764464,-15797,-40971,17908,354301,592539,-1601688,0,0,0,276,450,222,384,411,400,428,439,276,144,175,190,0,
1,1773253764480,-1866,-282,13093,2315179,-555887,404392,0,0,0,406,464,215,525,436,562,444,186,471,255,150,586,0,
2,1773253764480,-12467,-25288,21823,2406809,-1824043,-466701,0,0,0,257,425,188,372,392,388,469,474,271,177,232,179,0,
1,1773253764496,-2651,-263,13682,2806314,-597426,444709,0,0,0,412,492,207,523,458,581,405,172,497,229,145,586,0,
2,1773253764496,1134,6872,16520,3745825,-4056145,664621,0,0,0,259,406,181,369,379,397,493,493,287,174,259,173,0,
1,1773253764512,-3469,-287,14520,3447723,-621860,598647,0,0,0,423,482,216,526,490,572,380,149,522,216,134,577,0,
2,1773253764512,6159,18028,10629,4223522,-4233296,1242499,0,0,0,268,408,185,373,374,407,513,513,297,188,288,177,0,
1,1773253764528,-4240,-301,15778,4133114,-612086,840550,0,0,0,439,441,229,540,463,580,376,126,544,201,107,563,0,
2,1773253764528,-1579,4393,14414,4691445,-2250427,1187522,0,0,0,274,419,198,383,376,421,529,529,308,218,331,186,0,
1,1773253764544,-5508,-330,18076,5011538,-613308,1187522,0,0,0,442,424,244,536,395,603,384,121,557,180,83,536,0,
2,1773253764544,-7403,-3929,21287,4547280,-647517,549778,0,0,0,279,440,227,395,385,434,543,542,317,233,349,202,0,
1,1773253764560,-7049,-641,21354,5841093,-708603,1541823,0,0,0,416,445,240,491,370,567,357,138,526,162,86,470,0,
2,1773253764560,-3263,-789,21076,3265685,-270002,-447153,0,0,0,290,466,268,407,396,444,559,558,325,236,341,227,0,
1,1773253764576,-9408,-1574,25092,6652322,-719599,1925447,0,0,0,378,440,185,455,349,515,298,132,454,140,77,386,0,
2,1773253764576,2278,1966,15774,1991420,-149051,-619417,0,0,0,309,482,301,416,403,456,576,575,332,242,334,257,0,
1,1773253764592,-11543,-2742,28341,7314500,-779464,2426356,0,0,0,320,417,200,394,316,444,239,151,378,144,103,309,0,
2,1773253764592,3441,1301,10480,1104444,81855,-83077,0,0,0,332,490,319,424,409,468,584,584,332,248,329,291,0,
1,1773253764608,-9724,-1186,29676,7541742,-662177,2921157,0,0,0,267,350,214,328,266,380,258,180,322,132,127,237,0,
2,1773253764608,1876,315,10112,717155,18325,102625,0,0,0,357,499,339,428,413,476,582,582,340,260,332,312,0,
1,1773253764624,-9858,2885,28767,7766540,-332310,3253468,0,0,0,248,302,210,281,195,300,312,238,286,141,196,127,0,
2,1773253764624,1273,473,10648,387288,-146607,84299,0,0,0,368,505,327,430,416,472,589,589,333,266,325,327,0,
1,1773253764640,-11246,10696,21617,7882605,39095,3529579,0,0,0,261,288,241,281,176,316,335,250,301,156,216,131,0,
2,1773253764640,1440,1225,10605,163711,-262672,23212,0,0,0,377,509,338,430,416,477,591,592,336,269,325,338,0,
1,1773253764656,-9595,14051,13041,7101919,531452,3556457,0,0,0,257,293,224,289,192,317,331,251,319,159,219,128,0,
2,1773253764656,1282,1497,10198,69638,-226020,24434,0,0,0,380,509,338,434,421,477,594,594,335,271,324,334,0,
1,1773253764672,-6432,16152,9853,4339586,1160643,2616946,0,0,0,255,304,219,287,197,316,329,251,305,162,220,131,0,
2,1773253764672,1139,1627,10203,80634,-151494,15882,0,0,0,386,511,342,434,417,474,592,592,333,271,318,340,0,
1,1773253764688,-4264,17066,10648,-364075,1615127,386066,0,0,0,253,308,225,281,193,314,333,252,301,161,217,133,0,
2,1773253764688,1076,1737,10265,167377,-83077,-10995,0,0,0,395,513,341,439,422,480,591,590,334,265,306,345,0,
1,1773253764704,-4201,13783,9815,-3618765,2046398,-1288925,0,0,0,245,307,224,285,198,318,340,258,308,161,218,134,0,
2,1773253764704,1038,1732,10155,279776,-1221,-40317,0,0,0,404,514,342,441,420,482,591,591,328,267,327,353,0,
1,1773253764720,-6240,8116,6503,-4520402,2180788,-1643227,0,0,0,242,309,220,287,202,318,344,260,306,164,222,133,0,
2,1773253764720,1091,1651,10016,361632,81855,-52534,0,0,0,410,515,340,442,424,484,592,592,332,259,294,363,0,
1,1773253764736,-7379,5675,4053,-4166100,1524719,-882089,0,0,0,241,310,217,285,200,313,344,259,296,166,223,129,0,
2,1773253764736,1215,1526,9897,399505,118507,-53756,0,0,0,415,518,339,443,425,486,588,586,332,264,276,371,0,
1,1773253764752,-5939,5680,4436,-4383568,852767,-302989,0,0,0,241,309,218,286,203,314,350,263,293,168,222,126,0,
2,1773253764752,1320,1397,9806,415388,113620,-59864,0,0,0,418,518,337,449,426,489,581,579,334,259,261,380,0,
1,1773253764768,-4130,6068,6188,-5060407,686612,-200363,0,0,0,246,310,222,289,205,316,355,266,293,172,225,129,0,
2,1773253764768,1378,1320,9743,401949,80634,-74525,0,0,0,420,518,336,448,423,487,586,564,332,243,233,388,0,
1,1773253764784,-4254,5580,7824,-5820323,879645,-493579,0,0,0,244,309,223,289,205,316,348,264,292,175,228,132,0,
2,1773253764784,1421,1287,9719,384845,40317,-87964,0,0,0,428,523,340,446,421,487,592,552,333,241,219,398,0,
1,1773253764800,-5709,4484,8930,-6305350,645073,-759916,0,0,0,244,313,223,290,212,315,350,268,299,183,228,136,0,
2,1773253764800,1459,1282,9753,372627,-13439,-98960,0,0,0,435,525,344,454,427,495,587,550,347,245,212,413,0,
1,1773253764816,-6446,3345,9987,-6605896,106290,-944397,0,0,0,245,311,223,293,210,314,347,265,288,184,232,140,0,
2,1773253764816,1430,1253,9815,379958,-57421,-106290,0,0,0,440,525,346,461,431,504,585,536,354,247,205,426,0,
1,1773253764832,-6255,2230,11160,-6685309,-470366,-1095892,0,0,0,246,311,220,290,204,313,341,260,286,179,223,138,0,
2,1773253764832,1359,1215,9849,393397,-86742,-112399,0,0,0,449,531,351,467,435,510,585,519,357,248,197,438,0,
1,1773253764848,-5991,1541,12854,-6618113,-869872,-1221730,0,0,0,244,311,220,291,206,315,341,260,290,180,230,144,0,
2,1773253764848,1296,1167,9863,414166,-86742,-116064,0,0,0,458,534,347,468,442,514,588,497,364,243,186,452,0,
1,1773253764864,-6087,1239,14850,-6614448,-1189965,-1254717,0,0,0,244,310,220,292,205,314,348,264,290,181,230,141,0,
2,1773253764864,1340,1091,9935,450818,-65973,-120951,0,0,0,467,537,351,473,444,517,591,477,372,243,183,477,0,
1,1773253764880,-6211,789,17367,-6663318,-1501506,-1103222,0,0,0,246,312,222,292,206,314,350,267,290,181,230,140,0,
2,1773253764880,1387,981,10007,499687,-46425,-134390,0,0,0,480,549,366,480,455,522,591,457,364,261,183,497,0,
1,1773253764896,-6049,95,19779,-6619335,-1732413,-891863,0,0,0,245,310,223,294,208,317,347,266,292,179,230,142,0,
2,1773253764896,1368,904,10059,558330,-26878,-145385,0,0,0,489,553,358,483,466,532,587,427,375,248,171,507,0,
1,1773253764912,-5963,-727,22258,-6410419,-1847256,-784350,0,0,0,248,309,228,292,206,318,346,263,298,180,230,144,0,
2,1773253764912,1378,885,10131,631634,-2443,-153938,0,0,0,502,558,362,487,472,533,576,403,380,255,170,528,0,
1,1773253764928,-6427,-1603,24771,-6090326,-1890017,-970053,0,0,0,254,309,232,294,204,316,349,263,301,180,225,144,0,
2,1773253764928,1416,851,10260,735481,39095,-167377,0,0,0,508,565,362,492,481,541,570,374,388,260,171,546,0,
1,1773253764944,-7016,-3589,27604,-5764124,-2057394,-1549154,0,0,0,256,309,230,295,203,313,351,261,297,179,219,141,0,
2,1773253764944,1478,732,10442,846659,100181,-188146,0,0,0,518,572,369,501,488,549,563,339,394,268,173,569,0,
1,1773253764960,-7374,-8935,30318,-5577199,-2505769,-2229658,0,0,0,254,310,230,294,202,318,351,257,303,182,219,145,0,
2,1773253764960,1555,497,10643,956614,163711,-216246,0,0,0,528,578,368,508,495,552,547,302,400,270,171,582,0,
1,1773253764976,-7384,-17473,30294,-5536882,-2873510,-2420248,0,0,0,253,311,234,296,202,327,351,258,322,190,222,152,0,
2,1773253764976,1732,315,10873,1081231,196698,-248011,0,0,0,538,582,362,517,504,557,530,272,406,288,175,590,0,
1,1773253764992,-5451,-28288,25958,-5404935,-2938261,-1767844,0,0,0,255,318,234,298,204,327,350,260,322,189,227,152,0,
2,1773253764992,2091,301,11514,1276708,150272,-301767,0,0,0,546,586,352,531,517,564,511,252,406,303,185,602,0,
1,1773253765008,1899,-37305,20220,-4472755,-2862514,-602313,0,0,0,255,314,234,298,203,328,355,259,326,187,227,152,0,
2,1773253765008,2201,263,12510,1606575,101403,-383623,0,0,0,549,588,332,545,532,571,482,240,407,288,186,612,0,
1,1773253765024,10835,-43895,16003,-2724458,-1980425,513126,0,0,0,254,316,232,301,207,329,355,260,320,190,233,150,0,
2,1773253765024,1608,282,13271,2085493,78190,-425162,0,0,0,551,589,311,547,542,580,440,237,424,279,182,617,0,
1,1773253765040,14462,-45417,14912,-670730,-262672,1200961,0,0,0,235,309,214,295,202,317,368,291,298,238,301,138,0,
2,1773253765040,1340,320,13811,2604729,2443,-387288,0,0,0,558,593,286,537,546,588,388,233,433,275,185,625,0,
1,1773253765056,10256,-36152,17961,1285260,1571145,1381777,0,0,0,235,293,213,295,188,305,428,374,296,294,366,123,0,
2,1773253765056,2167,172,14338,3180164,-146607,-349414,0,0,0,578,607,267,537,557,597,338,227,414,266,184,628,0,
1,1773253765072,430,-7762,18492,3241250,3512475,1138652,0,0,0,237,275,167,289,173,268,460,449,264,312,404,89,0,
2,1773253765072,3158,-105,15084,3837455,-283441,-472809,0,0,0,569,600,254,519,555,584,299,217,421,268,187,620,0,
1,1773253765088,-7561,18233,13046,4065919,4346917,586430,0,0,0,249,272,155,289,170,262,484,484,259,345,427,79,0,
2,1773253765088,3876,-258,16353,4577824,-375071,-690277,0,0,0,574,595,271,521,554,596,279,188,444,258,183,607,0,
1,1773253765104,-5427,13007,12213,4698775,3433062,52534,0,0,0,251,274,159,299,167,273,507,507,269,374,447,85,0,
2,1773253765104,4938,-263,18679,5411044,-421497,-996932,0,0,0,558,573,280,528,547,594,283,163,429,241,154,575,0,
1,1773253765120,1722,-2306,19200,5376835,1439198,-328645,0,0,0,258,280,183,306,176,283,531,531,268,398,470,94,0,
2,1773253765120,6389,-583,22206,6331007,-409279,-1379333,0,0,0,537,556,266,514,527,574,290,154,416,222,142,507,0,
1,1773253765136,3120,-4020,23742,4269948,420275,-40317,0,0,0,269,289,211,322,189,314,542,542,291,418,483,116,0,
2,1773253765136,7566,-923,26460,7172779,-221133,-1773952,0,0,0,487,534,233,492,508,546,286,157,389,207,133,436,0,
1,1773253765152,-1110,-559,19698,2346944,199142,316428,0,0,0,279,299,234,339,196,345,547,547,312,427,489,145,0,
2,1773253765152,7709,-655,29566,7935139,150272,-2166128,0,0,0,403,509,199,456,473,491,304,178,349,192,126,380,0,
1,1773253765168,-3704,942,12299,1139874,89186,18325,0,0,0,295,306,279,351,201,359,557,557,310,435,499,179,0,
2,1773253765168,6824,871,31217,8476366,555887,-2511877,0,0,0,334,475,194,406,426,432,332,242,301,163,111,290,0,
1,1773253765184,-2723,421,9121,693942,-14660,-265115,0,0,0,308,311,319,359,207,375,566,566,316,450,510,216,0,
2,1773253765184,6044,3967,30509,8693834,1099557,-2853962,0,0,0,302,455,217,369,394,399,352,299,284,130,102,226,0,
1,1773253765200,-1804,43,9748,458148,21991,-228463,0,0,0,311,324,303,359,210,391,575,571,336,463,518,245,0,
2,1773253765200,7274,8997,21842,8319984,1119105,-3237585,0,0,0,294,451,230,362,388,396,356,320,289,117,103,211,0,
1,1773253765216,-2134,732,10433,195476,150272,-89186,0,0,0,317,341,290,363,208,393,589,574,330,453,529,267,0,
2,1773253765216,7456,12199,13821,7326717,294437,-3645643,0,0,0,292,452,237,366,393,404,354,320,290,118,106,212,0,
1,1773253765232,-2268,1469,10270,139277,184481,-24434,0,0,0,330,352,297,370,214,387,593,571,322,462,532,283,0,
2,1773253765232,4268,17114,10662,3776368,-933402,-3108082,0,0,0,293,452,237,371,397,403,358,318,284,119,107,206,0,
1,1773253765248,-2038,1555,10088,277332,116064,7330,0,0,0,326,354,358,372,220,413,579,559,333,450,521,301,0,
2,1773253765248,2120,19114,10327,-1139874,-1814269,-1463633,0,0,0,296,454,226,374,400,397,360,320,278,122,109,202,0,
1,1773253765264,-1842,1363,10198,393397,26878,39095,0,0,0,327,359,372,372,220,423,582,543,343,436,509,319,0,
2,1773253765264,3441,13433,10184,-5411044,-2371378,527787,0,0,0,298,456,226,373,400,397,359,319,276,121,110,203,0,
1,1773253765280,-1866,1301,10289,436157,-68416,69638,0,0,0,338,357,363,388,226,422,573,532,355,439,489,343,0,
2,1773253765280,6398,6537,7360,-5911953,-2195449,863763,0,0,0,296,456,227,375,400,400,359,323,277,120,110,204,0,
1,1773253765296,-1899,1292,10136,466701,-152716,92851,0,0,0,349,357,320,383,229,412,572,517,336,418,466,338,0,
2,1773253765296,7786,3498,4771,-5474574,-1446528,476474,0,0,0,289,457,230,376,402,403,364,326,279,120,111,203,0,
1,1773253765312,-1938,1206,10342,469144,-202807,105068,0,0,0,344,354,312,381,229,409,573,486,338,404,442,350,0,
2,1773253765312,6599,3814,5020,-5299866,-500909,45204,0,0,0,288,459,232,377,404,403,364,325,276,123,112,204,0,
1,1773253765328,-2053,1095,11347,375071,-167377,111177,0,0,0,340,363,313,381,240,418,564,451,341,396,413,363,0,
2,1773253765328,5044,4369,6575,-5544212,-21991,-24434,0,0,0,289,460,233,379,405,405,366,327,278,123,113,203,0,
1,1773253765344,-2139,1005,10581,364075,-156381,109955,0,0,0,337,378,305,380,258,423,561,434,343,382,391,377,0,
2,1773253765344,4120,4441,8131,-5940053,199142,200363,0,0,0,288,459,232,379,405,405,370,333,280,120,112,200,0,
1,1773253765360,-2196,928,9475,390953,-144164,105068,0,0,0,331,374,295,382,260,428,556,417,344,374,380,388,0,
2,1773253765360,4316,3776,8892,-6153856,609643,566882,0,0,0,288,458,232,378,405,402,366,329,276,117,111,198,0,
1,1773253765376,-2211,871,9236,375071,-96516,103847,0,0,0,325,372,292,385,249,430,555,397,344,367,373,391,0,
2,1773253765376,4182,3149,9839,-6205169,1147204,858876,0,0,0,288,458,232,379,408,405,369,334,279,119,111,200,0,
1,1773253765392,-2144,813,9514,322536,-29321,103847,0,0,0,324,391,291,387,259,435,561,387,348,358,364,398,0,
2,1773253765392,3378,2818,11385,-6197838,1567480,1089783,0,0,0,287,459,232,379,406,405,371,336,281,120,110,199,0,
1,1773253765408,-2029,799,9609,285884,-1221,102625,0,0,0,327,397,291,392,273,448,540,367,358,355,351,414,0,
2,1773253765408,2857,2665,13046,-6229603,1654223,1226617,0,0,0,287,459,231,379,405,405,372,336,282,120,110,199,0,
1,1773253765424,-1962,823,9648,278554,0,96516,0,0,0,332,390,290,394,261,446,507,341,369,346,329,423,0,
2,1773253765424,2823,2412,14582,-6290690,1715309,1232726,0,0,0,282,457,229,381,405,405,373,336,281,121,110,200,0,
1,1773253765440,-1957,832,9753,316428,-18325,91629,0,0,0,336,389,297,393,263,452,549,353,382,329,310,432,0,
2,1773253765440,2790,2263,16659,-6367659,1839926,1059240,0,0,0,280,457,231,382,407,406,372,335,280,122,110,200,0,
1,1773253765456,-1928,770,9882,371406,-56199,95294,0,0,0,356,388,311,400,259,460,555,344,385,325,293,447,0,
2,1773253765456,2617,2474,19253,-6447071,1936442,860098,0,0,0,282,458,234,382,408,408,372,336,282,121,111,199,0,
1,1773253765472,-1986,665,9997,445931,-122173,114842,0,0,0,350,381,300,406,275,473,548,312,387,315,271,455,0,
2,1773253765472,2646,2828,22660,-6537479,1985312,778242,0,0,0,283,458,234,380,405,406,375,338,284,125,116,198,0,
1,1773253765488,-2230,655,10016,536339,-166155,160046,0,0,0,363,401,326,416,296,482,551,296,401,315,258,481,0,
2,1773253765488,2526,2268,26872,-6625444,2041511,977384,0,0,0,284,458,235,379,402,403,378,331,284,137,131,196,0,
1,1773253765504,-2483,631,10016,634078,-166155,224798,0,0,0,369,411,324,430,316,492,547,296,405,292,241,498,0,
2,1773253765504,1885,-588,31371,-6742730,2114815,1455080,0,0,0,285,458,232,385,405,405,381,323,282,141,133,195,0,
1,1773253765520,-2660,502,10136,756251,-123394,317649,0,0,0,381,425,317,433,332,507,533,270,423,285,227,508,0,
2,1773253765520,1354,-8877,34228,-6794043,2196671,2042733,0,0,0,288,461,231,390,412,410,387,322,286,138,128,196,0,
1,1773253765536,-2785,349,10409,911410,-41538,416610,0,0,0,387,446,310,440,355,527,527,254,430,274,214,522,0,
2,1773253765536,2440,-22009,33696,-6466619,1902234,2246762,0,0,0,288,459,228,393,408,415,386,325,292,142,131,197,0,
1,1773253765552,-2871,210,10868,1099557,32986,516791,0,0,0,402,453,290,454,373,534,509,238,420,265,195,539,0,
2,1773253765552,5446,-37721,26503,-5199684,1268156,1499063,0,0,0,294,461,232,392,411,417,386,330,295,132,119,197,0,
1,1773253765568,-2608,95,11619,1385442,75747,590095,0,0,0,418,458,278,472,386,542,473,226,417,257,178,557,0,
2,1773253765568,1397,-45991,18152,-3073873,1688431,-208915,0,0,0,293,459,229,390,408,415,387,330,293,133,121,198,0,
1,1773253765584,-2100,-71,12175,1756848,94073,610865,0,0,0,432,466,282,490,409,556,438,213,423,245,167,573,0,
2,1773253765584,-9552,-47867,16008,-1016479,1914451,-1551597,0,0,0,287,458,220,389,411,407,397,395,286,138,150,195,0,
1,1773253765600,-1718,-339,12505,2098932,40317,566882,0,0,0,440,474,273,498,441,567,405,195,433,237,158,582,0,
2,1773253765600,-17205,-43866,20382,910189,370184,-1514945,0,0,0,274,454,214,383,408,401,429,465,275,216,266,173,0,
1,1773253765616,-1785,-464,13266,2499660,-24434,522900,0,0,0,438,488,231,499,465,573,360,186,456,237,155,586,0,
2,1773253765616,-8293,-19784,21517,3279124,-2079385,-555887,0,0,0,263,437,190,375,395,392,470,485,272,198,282,168,0,
1,1773253765632,-2727,-325,14496,3025004,-26878,560774,0,0,0,444,490,193,498,474,576,315,184,473,234,156,588,0,
2,1773253765632,4063,13132,16204,4730540,-3353650,-7330,0,0,0,267,427,184,375,382,400,503,503,281,194,302,170,0,
1,1773253765648,-3933,-244,15912,3685960,42760,761138,0,0,0,465,474,190,482,445,567,259,168,465,231,132,585,0,
2,1773253765648,4781,13931,13333,5009094,-2599842,70860,0,0,0,275,430,193,383,381,414,520,520,292,211,333,179,0,
1,1773253765664,-5293,-95,17980,4547280,130725,1092227,0,0,0,471,461,221,482,447,553,257,154,462,207,109,553,0,
2,1773253765664,-382,555,18080,5194797,-1054353,177150,0,0,0,283,443,217,394,386,428,533,533,304,226,352,203,0,
1,1773253765680,-7264,-253,21162,5483126,206472,1522276,0,0,0,445,443,253,450,426,522,231,138,449,176,95,491,0,
2,1773253765680,-2904,-5163,23531,4526511,-194255,102625,0,0,0,300,465,258,408,397,444,548,548,319,240,359,240,0,
1,1773253765696,-9834,-598,24503,6429967,250454,2051285,0,0,0,414,447,240,413,384,513,239,142,414,151,91,428,0,
2,1773253765696,847,-287,19018,2938261,-516791,-106290,0,0,0,332,487,293,423,415,461,566,566,323,300,403,275,0,
1,1773253765712,-11189,-430,27020,7217983,306654,2664594,0,0,0,365,407,209,402,334,470,224,154,366,149,106,347,0,
2,1773253765712,3000,1344,12878,1505171,-551000,13439,0,0,0,369,498,305,436,426,477,581,584,320,397,477,299,0,
1,1773253765728,-9925,411,29801,7866722,601091,3209485,0,0,0,307,368,202,380,273,384,252,187,317,163,141,272,0,
2,1773253765728,1990,-234,10227,678060,-288328,191811,0,0,0,398,505,312,440,430,474,581,581,339,272,355,343,0,
1,1773253765744,-8576,2603,31117,8363966,950506,3469714,0,0,0,264,310,235,294,198,345,295,232,316,156,196,189,0,
2,1773253765744,1335,-306,10667,306654,-202807,138055,0,0,0,410,511,320,435,463,463,587,587,356,279,362,354,0,
1,1773253765760,-10514,8088,24776,8450709,1181413,3518583,0,0,0,270,289,245,274,174,320,324,253,309,165,231,149,0,
2,1773253765760,1407,641,10667,142942,-271224,69638,0,0,0,422,516,324,441,424,480,601,602,362,276,362,361,0,
1,1773253765776,-11816,13084,15032,7648032,1177748,3601661,0,0,0,286,296,231,300,183,304,336,262,293,177,241,140,0,
2,1773253765776,1407,1282,10385,36651,-272445,37873,0,0,0,424,517,328,444,427,493,604,604,330,276,365,362,0,
1,1773253765792,-9820,16774,9767,4922352,878424,3248581,0,0,0,283,301,221,309,190,302,340,271,291,175,243,135,0,
2,1773253765792,1344,1440,10313,10995,-178372,25656,0,0,0,430,524,330,446,431,485,599,599,342,282,372,362,0,
1,1773253765808,-4393,18980,11150,-155159,888198,1167974,0,0,0,280,304,221,307,190,302,338,273,295,173,245,137,0,
2,1773253765808,1368,1545,10356,85521,-100181,0,0,0,0,444,524,331,451,433,486,595,594,344,285,362,374,0,
1,1773253765824,-3603,15774,10303,-3408628,1573588,-943175,0,0,0,279,308,227,302,192,307,333,274,298,170,244,142,0,
2,1773253765824,1330,1593,10279,200363,-80634,-28099,0,0,0,439,522,328,452,430,485,593,594,337,275,336,375,0,
1,1773253765840,-8102,9155,5805,-4442212,1737300,-2001194,0,0,0,275,313,227,299,197,307,338,279,301,174,249,146,0,
2,1773253765840,1301,1584,10184,293215,-63529,-46425,0,0,0,441,528,328,452,433,489,589,588,335,278,326,375,0,
1,1773253765856,-9428,5747,3015,-4019493,173485,-1216843,0,0,0,272,311,233,300,206,311,345,283,308,178,250,146,0,
2,1773253765856,1306,1517,10059,371406,-48869,-57421,0,0,0,448,530,331,449,433,489,586,578,338,346,344,370,0,
1,1773253765872,-5757,5675,4149,-4119675,-871093,-461814,0,0,0,268,316,235,303,194,311,345,278,301,179,250,142,0,
2,1773253765872,1277,1402,9916,425162,-42760,-62308,0,0,0,453,532,331,453,434,490,581,567,342,312,302,385,0,
1,1773253765888,-3780,6058,6417,-4789183,-571769,-482583,0,0,0,265,317,232,302,197,307,345,281,301,175,250,141,0,
2,1773253765888,1263,1292,9815,441044,-30543,-63529,0,0,0,456,536,329,458,440,494,577,555,345,250,245,403,0,
1,1773253765904,-4398,5723,7843,-5362175,-475253,-702495,0,0,0,268,317,229,305,198,310,341,278,298,177,250,144,0,
2,1773253765904,1344,1210,9763,439822,-26878,-64751,0,0,0,460,538,328,461,446,497,577,544,349,243,225,408,0,
1,1773253765920,-4742,5173,9265,-5831319,-968832,-926071,0,0,0,269,314,227,310,198,309,343,276,299,180,248,142,0,
2,1773253765920,1445,1143,9739,454483,-51312,-72082,0,0,0,467,540,330,467,450,498,578,533,351,242,218,409,0,
1,1773253765936,-4268,4575,10906,-6250373,-1448972,-1134987,0,0,0,269,317,228,314,201,312,346,277,302,179,249,142,0,
2,1773253765936,1397,1072,9719,463035,-90408,-86742,0,0,0,472,543,329,472,451,498,574,518,350,244,206,417,0,
1,1773253765952,-3776,3613,12605,-6552140,-1775174,-1290147,0,0,0,269,321,230,312,209,313,346,279,307,181,252,144,0,
2,1773253765952,1311,1024,9753,425162,-135612,-96516,0,0,0,473,546,327,472,458,506,567,512,356,242,197,429,0,
1,1773253765968,-3220,2641,14568,-6599788,-2031737,-1280373,0,0,0,268,323,230,309,208,313,346,277,309,182,252,144,0,
2,1773253765968,1239,1005,9796,390953,-158824,-97738,0,0,0,481,548,330,474,460,512,569,490,354,242,194,437,0,
1,1773253765984,-2622,2010,16970,-6561914,-2191784,-1153313,0,0,0,266,324,231,309,201,317,345,275,310,181,250,147,0,
2,1773253765984,1206,957,9844,404392,-153938,-91629,0,0,0,492,561,336,474,468,512,569,474,361,242,190,451,0,
1,1773253766000,-2019,1512,19818,-6629109,-2197893,-934623,0,0,0,265,324,234,308,203,321,342,274,313,182,253,152,0,
2,1773253766000,1229,890,9935,444709,-145385,-91629,0,0,0,495,562,336,481,476,520,566,454,368,246,182,470,0,
1,1773253766016,-1804,923,22158,-6763499,-2096489,-841772,0,0,0,268,325,236,307,202,316,342,274,309,182,253,145,0,
2,1773253766016,1330,842,10098,511905,-140499,-108734,0,0,0,500,563,335,486,476,528,564,430,367,247,179,484,0,
1,1773253766032,-2507,157,24407,-6789156,-1992642,-1036027,0,0,0,267,325,239,307,201,319,345,274,313,184,246,145,0,
2,1773253766032,1387,756,10184,591317,-142942,-147829,0,0,0,504,569,339,491,485,536,556,410,371,256,179,518,0,
1,1773253766048,-3828,-1143,27537,-6516710,-2100154,-1727526,0,0,0,268,324,238,311,203,318,347,274,312,182,244,145,0,
2,1773253766048,1387,660,10203,662177,-144164,-186924,0,0,0,522,586,349,495,493,546,553,389,385,258,178,538,0,
1,1773253766064,-4867,-3508,30839,-6212499,-2321287,-2609616,0,0,0,268,322,235,311,201,314,342,258,304,184,238,145,0,
2,1773253766064,1416,593,10289,741590,-151494,-221133,0,0,0,522,595,344,505,506,551,545,351,390,261,173,554,0,
1,1773253766080,-6322,-9136,33912,-6006027,-2544864,-3524692,0,0,0,270,324,233,319,205,313,353,265,296,192,240,144,0,
2,1773253766080,1555,497,10595,858876,-171042,-261450,0,0,0,526,597,356,515,518,557,531,313,404,293,197,566,0,
1,1773253766096,-8490,-20019,32227,-6042678,-2448347,-3433062,0,0,0,271,328,229,327,213,315,357,266,303,196,240,144,0,
2,1773253766096,1823,363,11045,1028697,-206472,-327423,0,0,0,539,607,361,521,527,560,510,280,410,293,196,580,0,
1,1773253766112,-7595,-33701,25862,-5656612,-2569299,-2282192,0,0,0,271,331,231,327,218,316,361,266,304,197,240,145,0,
2,1773253766112,1943,244,11686,1251052,-216246,-423940,0,0,0,547,613,344,524,534,561,487,257,411,274,182,591,0,
1,1773253766128,3503,-43684,19061,-4018271,-2839301,-591317,0,0,0,272,333,232,326,218,317,364,268,305,196,238,143,0,
2,1773253766128,1641,220,12572,1579697,-232128,-500909,0,0,0,556,610,329,529,543,573,455,246,413,271,183,602,0,
1,1773253766144,15276,-47872,15305,-1835039,-1816713,536339,0,0,0,268,327,224,328,212,317,370,277,310,199,239,143,0,
2,1773253766144,923,248,13467,2057394,-268780,-486248,0,0,0,571,618,318,536,557,585,407,240,413,270,186,613,0,
1,1773253766160,13912,-44517,15214,204028,486248,928515,0,0,0,263,312,212,327,199,304,396,324,292,232,293,133,0,
2,1773253766160,569,220,14280,2620611,-277332,-416610,0,0,0,572,625,283,538,568,574,357,237,413,270,195,615,0,
1,1773253766176,3062,-28987,18439,2238210,2472782,1174082,0,0,0,260,289,185,308,177,272,437,393,260,284,376,111,0,
2,1773253766176,1239,119,15113,3259576,-304210,-365297,0,0,0,571,614,254,528,568,569,319,236,404,271,194,612,0,
1,1773253766192,-6661,2881,16893,3595552,3781255,968832,0,0,0,257,272,152,282,161,246,467,442,248,323,416,93,0,
2,1773253766192,2282,105,16128,3969402,-404392,-448375,0,0,0,580,623,257,524,568,567,291,228,408,267,192,610,0,
1,1773253766208,-9858,19612,12342,4266282,4288273,349414,0,0,0,256,272,147,285,164,255,481,480,256,347,425,87,0,
2,1773253766208,3129,229,17592,4752531,-516791,-619417,0,0,0,576,615,257,516,569,567,278,198,407,263,178,598,0,
1,1773253766224,-3910,8691,12194,5031086,3060434,-558330,0,0,0,253,273,145,302,165,266,503,502,262,379,449,91,0,
2,1773253766224,4484,378,19569,5568647,-625526,-878424,0,0,0,573,603,273,506,555,563,280,167,410,239,159,565,0,
1,1773253766240,4168,-3579,21134,5165476,913854,-932180,0,0,0,265,277,177,321,165,283,531,531,270,430,476,88,0,
2,1773253766240,6350,43,22962,6526484,-722042,-1301142,0,0,0,537,576,261,494,538,552,277,160,391,222,144,485,0,
1,1773253766256,5240,-3129,24221,3607770,-31764,-293215,0,0,0,285,291,229,322,182,299,539,539,266,434,482,104,0,
2,1773253766256,7695,-746,26992,7444003,-668286,-1760513,0,0,0,455,546,227,479,509,519,290,168,367,210,136,420,0,
1,1773253766272,-344,1296,17884,1802052,-109955,432492,0,0,0,287,309,244,345,196,336,544,544,291,436,487,136,0,
2,1773253766272,7757,-191,30509,8268671,-362853,-2221106,0,0,0,383,505,197,433,468,462,305,199,324,188,127,372,0,
1,1773253766288,-4125,1555,11720,1072679,-173485,259006,0,0,0,303,325,272,354,206,361,556,556,299,449,504,186,0,
2,1773253766288,6264,2579,31548,8866098,-89186,-2544864,0,0,0,309,462,208,386,420,414,332,255,293,142,107,268,0,
1,1773253766304,-3053,-215,10112,753807,-142942,-172263,0,0,0,319,327,293,365,215,383,561,561,313,463,518,222,0,
2,1773253766304,8174,5824,27078,8958949,311541,-2866179,0,0,0,290,453,232,369,400,395,345,289,282,122,104,217,0,
1,1773253766320,-2005,86,10485,400727,-28099,-177150,0,0,0,331,336,317,378,220,399,564,564,334,463,517,244,0,
2,1773253766320,10260,8935,18923,8466592,454483,-3414736,0,0,0,297,456,236,371,403,398,349,310,283,124,113,216,0,
1,1773253766336,-1876,1086,10576,140499,68416,-58643,0,0,0,333,358,308,387,238,396,566,567,333,471,519,252,0,
2,1773253766336,7475,11935,13639,6980967,-320093,-3765373,0,0,0,294,453,229,373,407,400,352,320,281,126,115,215,0,
1,1773253766352,-2091,1560,10126,96516,67195,-4886,0,0,0,332,364,303,390,245,391,570,569,324,469,520,258,0,
2,1773253766352,3163,18348,11189,2763554,-1557706,-2083050,0,0,0,292,451,225,373,405,396,352,317,274,126,114,211,0,
1,1773253766368,-2019,1574,10016,175929,28099,3665,0,0,0,338,354,334,390,233,399,572,567,329,454,516,272,0,
2,1773253766368,3551,19200,9581,-2162462,-2092824,496022,0,0,0,297,451,222,375,405,395,355,320,272,125,113,208,0,
1,1773253766384,-1880,1598,10184,279776,10995,32986,0,0,0,344,356,359,392,233,414,569,561,341,450,510,294,0,
2,1773253766384,7365,11404,8379,-5674938,-1640784,2470339,0,0,0,299,453,224,377,407,397,359,324,272,126,112,207,0,
1,1773253766400,-1746,1584,10318,368962,-26878,61086,0,0,0,336,365,351,396,246,424,560,555,352,438,492,326,0,
2,1773253766400,7872,5642,6944,-5660277,-821002,2032959,0,0,0,297,454,224,380,405,400,362,324,274,129,114,208,0,
1,1773253766416,-1708,1521,10160,445931,-125838,73303,0,0,0,336,370,346,400,258,419,550,539,340,429,466,335,0,
2,1773253766416,6245,3771,6044,-5250997,-172263,1130100,0,0,0,298,458,226,380,402,401,362,327,273,126,111,207,0,
1,1773253766432,-1761,1407,9863,482583,-210137,74525,0,0,0,343,363,320,404,244,410,554,518,324,413,441,341,0,
2,1773253766432,4249,4517,6882,-5431813,54977,480140,0,0,0,292,457,226,382,407,404,363,328,273,127,113,206,0,
1,1773253766448,-1837,1253,9509,455705,-229685,67195,0,0,0,334,368,319,403,234,412,546,502,331,404,431,352,0,
2,1773253766448,3283,4809,8408,-6031683,131946,208915,0,0,0,284,455,225,383,409,408,366,332,274,122,112,204,0,
1,1773253766464,-1914,1153,9040,384845,-194255,67195,0,0,0,335,361,317,403,237,406,553,478,324,409,414,352,0,
2,1773253766464,3005,4345,9585,-6499606,339641,189368,0,0,0,277,455,225,383,408,407,368,335,273,124,113,204,0,
1,1773253766480,-2010,1062,9088,320093,-150272,72082,0,0,0,331,362,306,407,239,412,555,473,329,405,408,357,0,
2,1773253766480,2589,3957,10461,-6582683,807563,344527,0,0,0,281,459,231,383,410,407,366,332,270,125,116,205,0,
1,1773253766496,-2072,1009,9361,271224,-105068,79412,0,0,0,330,367,304,411,254,416,548,468,333,394,408,361,0,
2,1773253766496,2010,3967,11667,-6608340,1276708,642630,0,0,0,281,460,232,384,409,405,368,335,272,123,115,202,0,
1,1773253766512,-2053,1024,9461,213802,-41538,85521,0,0,0,337,372,308,417,261,420,548,464,344,383,406,363,0,
2,1773253766512,1541,4005,13328,-6753726,1536936,1025031,0,0,0,281,458,230,383,408,405,369,335,273,124,115,202,0,
1,1773253766528,-1986,1091,9447,172263,18325,87964,0,0,0,339,371,318,420,265,428,546,458,351,384,404,372,0,
2,1773253766528,1627,3417,15300,-6968750,1594358,1364672,0,0,0,282,458,233,379,409,401,372,336,278,126,114,203,0,
1,1773253766544,-1828,1105,9571,163711,45204,86742,0,0,0,338,369,318,420,264,428,550,449,351,386,396,385,0,
2,1773253766544,2062,2474,17142,-7023728,1654223,1492954,0,0,0,284,460,236,378,408,398,372,336,281,126,111,203,0,
1,1773253766560,-1718,1028,9739,177150,7330,85521,0,0,0,336,370,310,413,271,431,555,432,351,379,384,399,0,
2,1773253766560,2330,1923,19550,-6882007,1773952,1385442,0,0,0,284,461,238,381,407,399,372,336,281,126,112,203,0,
1,1773253766576,-1761,952,9830,199142,-46425,94073,0,0,0,336,372,311,408,278,447,557,415,356,367,376,419,0,
2,1773253766576,2622,2096,22675,-6807482,1854586,1288925,0,0,0,281,459,238,384,409,401,374,338,284,124,114,201,0,
1,1773253766592,-1909,928,9772,263893,-85521,133168,0,0,0,341,373,323,414,276,460,561,400,359,356,360,440,0,
2,1773253766592,3211,2388,27135,-6932098,1914451,1352455,0,0,0,279,458,236,384,409,400,376,337,285,121,111,197,0,
1,1773253766608,-1986,957,9686,354301,-97738,188146,0,0,0,348,377,337,420,285,461,568,373,363,347,331,454,0,
2,1773253766608,3747,344,31911,-7169114,1935221,1759291,0,0,0,282,461,238,382,406,400,376,328,282,121,107,197,0,
1,1773253766624,-1995,1014,9715,472809,-102625,250454,0,0,0,358,385,364,420,291,484,568,346,380,339,318,476,0,
2,1773253766624,4312,-5977,35352,-7226535,2036624,2289522,0,0,0,286,463,236,383,409,403,377,323,276,122,107,198,0,
1,1773253766640,-2120,1052,10040,640186,-134390,309097,0,0,0,388,419,364,426,304,490,569,322,401,330,283,511,0,
2,1773253766640,4288,-17391,35726,-6899112,2177123,2494773,0,0,0,289,462,234,387,408,405,384,325,285,125,109,199,0,
1,1773253766656,-2431,981,10480,816115,-175929,356745,0,0,0,380,432,349,437,314,511,573,287,407,337,253,525,0,
2,1773253766656,3589,-34319,29279,-5733581,1803274,1909564,0,0,0,290,461,233,393,411,410,386,325,288,130,110,198,0,
1,1773253766672,-2761,794,10997,1015258,-240680,432492,0,0,0,398,464,364,494,344,534,557,252,403,322,242,561,0,
2,1773253766672,775,-46154,20105,-3860668,1616349,680503,0,0,0,288,460,232,397,411,413,389,326,288,210,145,192,0,
1,1773253766688,-2665,655,11639,1257160,-279776,500909,0,0,0,427,467,368,494,358,539,557,242,391,324,236,569,0,
2,1773253766688,-7226,-48805,15912,-1527163,1431868,-1032362,0,0,0,288,460,232,398,413,415,390,327,286,137,115,199,0,
1,1773253766704,-2148,516,12189,1582140,-268780,502131,0,0,0,459,486,335,483,378,530,511,231,395,296,194,585,0,
2,1773253766704,-11366,-46317,16506,184481,290771,-2041511,0,0,0,285,461,229,391,412,404,389,342,286,126,119,194,0,
1,1773253766720,-2033,205,12706,2058615,-280998,454483,0,0,0,429,493,301,488,409,562,450,240,422,274,188,592,0,
2,1773253766720,-7106,-38712,18482,1634675,-1229060,-2236988,0,0,0,282,460,231,385,410,401,426,439,281,149,182,183,0,
1,1773253766736,-2785,-105,13405,2548529,-290771,467922,0,0,0,418,505,271,499,414,563,385,213,416,264,176,598,0,
2,1773253766736,1641,-9451,21780,3213151,-2459343,-1668883,0,0,0,259,435,187,374,393,386,473,481,267,166,231,174,0,
1,1773253766752,-3646,-272,14472,3122743,-166155,652404,0,0,0,422,505,232,500,428,555,328,185,423,251,158,603,0,
2,1773253766752,8992,23857,16917,3722612,-3276681,-426383,0,0,0,265,418,185,369,374,392,495,495,276,183,268,173,0,
1,1773253766768,-4034,-57,15711,3744603,69638,877202,0,0,0,431,500,216,484,446,562,284,173,447,226,138,598,0,
2,1773253766768,8356,24857,8140,3738495,-2965139,1128878,0,0,0,273,420,189,374,371,405,505,504,284,197,303,174,0,
1,1773253766784,-4972,411,17238,4502076,337197,1161865,0,0,0,442,492,232,459,435,559,257,163,460,201,123,571,0,
2,1773253766784,-2230,1287,13271,4862487,-1110553,1646892,0,0,0,274,434,203,381,376,417,523,523,292,259,363,179,0,
1,1773253766800,-6738,301,19530,5271767,425162,1554041,0,0,0,438,479,251,439,405,541,240,150,452,181,114,523,0,
2,1773253766800,-9217,-6838,22536,5071403,354301,834441,0,0,0,282,454,246,389,382,428,547,547,300,326,412,195,0,
1,1773253766816,-9064,-253,22809,6065891,460592,2035402,0,0,0,408,469,251,423,378,521,223,143,417,157,106,465,0,
2,1773253766816,-3192,38,20947,3579670,229685,-554665,0,0,0,312,475,296,403,388,440,564,564,308,343,419,225,0,
1,1773253766832,-10930,-277,25838,6827029,598647,2643824,0,0,0,355,415,230,384,337,466,227,157,365,153,107,384,0,
2,1773253766832,3091,2445,15410,2129476,136833,-831998,0,0,0,350,493,321,414,396,455,576,576,321,352,417,264,0,
1,1773253766848,-10725,-43,27475,7419569,943175,3175277,0,0,0,293,382,204,342,295,406,226,176,317,148,123,324,0,
2,1773253766848,4063,550,11117,1160643,271224,-226020,0,0,0,381,510,332,420,404,463,583,583,323,351,397,302,0,
1,1773253766864,-10150,1402,29279,8244237,720820,3616322,0,0,0,263,353,193,326,252,348,302,212,301,196,166,203,0,
2,1773253766864,2153,-263,10696,736703,245567,54977,0,0,0,396,513,337,426,411,467,590,590,328,330,378,321,0,
1,1773253766880,-8954,5967,26910,8600982,603534,3814242,0,0,0,277,295,226,281,188,300,334,250,295,175,214,152,0,
2,1773253766880,1655,349,10744,444709,58643,58643,0,0,0,409,516,350,430,413,475,591,591,329,328,400,324,0,
1,1773253766896,-8552,9911,19377,8152607,1513724,3805690,0,0,0,278,305,236,279,192,307,335,264,307,176,231,147,0,
2,1773253766896,1780,961,10457,246789,-79412,9773,0,0,0,418,518,367,435,413,480,598,598,338,331,392,336,0,
1,1773253766912,-10169,12031,11983,6538701,2538755,3442836,0,0,0,278,311,237,287,196,313,348,266,306,189,234,143,0,
2,1773253766912,1770,1210,10189,151494,-90408,6108,0,0,0,425,518,367,432,413,480,590,591,341,331,357,349,0,
1,1773253766928,-9332,16305,10346,2477669,1398881,1844813,0,0,0,271,315,235,285,207,314,346,271,305,180,238,146,0,
2,1773253766928,1794,1407,10145,168598,-114842,10995,0,0,0,441,526,360,439,420,481,596,596,332,318,338,353,0,
1,1773253766944,-4570,16865,10509,-1920560,536339,-582765,0,0,0,268,318,233,285,210,314,352,274,306,180,239,147,0,
2,1773253766944,1694,1507,10284,267558,-218689,-2443,0,0,0,443,529,359,440,421,482,593,593,334,310,319,364,0,
1,1773253766960,-5283,10863,7465,-3745825,1237612,-2162462,0,0,0,264,321,230,286,212,316,356,277,309,181,244,147,0,
2,1773253766960,1421,1521,10327,355523,-248011,-20769,0,0,0,453,534,377,448,425,487,587,585,337,302,297,372,0,
1,1773253766976,-8748,6044,3804,-3914424,1108109,-2222327,0,0,0,257,322,232,283,214,319,352,280,313,181,247,149,0,
2,1773253766976,1277,1464,10236,426383,-151494,-32986,0,0,0,459,538,371,452,427,485,589,572,341,297,271,387,0,
1,1773253766992,-8911,4824,2483,-3623652,-174707,-1277930,0,0,0,252,323,235,279,213,321,345,278,315,181,250,150,0,
2,1773253766992,1320,1349,10064,480140,-56199,-41538,0,0,0,461,540,364,448,429,489,587,550,344,295,250,400,0,
1,1773253767008,-4953,6322,4374,-4092797,-729373,-719599,0,0,0,250,323,237,278,211,321,343,276,314,182,253,150,0,
2,1773253767008,1387,1220,9849,511905,-7330,-50090,0,0,0,464,544,367,451,437,496,585,532,352,289,230,420,0,
1,1773253767024,-3814,6977,6087,-4907691,-438601,-723264,0,0,0,251,323,238,278,211,321,342,278,314,182,252,149,0,
2,1773253767024,1435,1162,9767,521678,0,-56199,0,0,0,469,551,368,458,446,501,582,518,359,288,218,436,0,
1,1773253767040,-5111,6250,7240,-5578421,-587652,-803898,0,0,0,254,325,238,281,213,321,341,279,312,182,252,147,0,
2,1773253767040,1497,1072,9772,524122,-7330,-65973,0,0,0,474,556,367,459,450,503,576,498,360,295,214,443,0,
1,1773253767056,-4982,5374,8758,-6034126,-1169196,-791681,0,0,0,254,321,236,284,214,322,340,277,313,182,252,147,0,
2,1773253767056,1526,918,9772,510683,-20769,-78190,0,0,0,482,559,364,462,450,507,571,474,358,285,203,453,0,
1,1773253767072,-3704,4718,10380,-6279694,-1573588,-847880,0,0,0,254,324,239,286,212,323,337,273,316,182,251,147,0,
2,1773253767072,1574,837,9763,483805,-40317,-87964,0,0,0,490,560,357,469,456,515,566,454,359,244,180,469,0,
1,1773253767088,-3062,3953,12189,-6470284,-1725083,-1037249,0,0,0,254,324,240,285,211,325,342,277,322,180,251,148,0,
2,1773253767088,1608,813,9791,464257,-73303,-102625,0,0,0,501,565,364,475,465,516,567,438,371,253,179,490,0,
1,1773253767104,-3015,3235,14314,-6575353,-1894903,-1152091,0,0,0,254,325,243,283,211,329,346,281,327,181,251,150,0,
2,1773253767104,1526,737,9825,464257,-98960,-114842,0,0,0,508,580,366,468,469,525,557,416,381,246,173,511,0,
1,1773253767120,-2804,2924,17023,-6612005,-2043955,-1011592,0,0,0,255,325,243,284,211,326,343,278,323,183,251,152,0,
2,1773253767120,1430,631,9887,470366,-91629,-131946,0,0,0,512,580,365,483,472,521,559,397,379,251,177,521,0,
1,1773253767136,-2560,2531,19875,-6697526,-2114815,-723264,0,0,0,254,326,241,283,219,326,344,278,322,185,249,149,0,
2,1773253767136,1474,550,10007,485026,-51312,-157603,0,0,0,508,580,360,484,488,527,547,375,377,253,176,546,0,
1,1773253767152,-2234,1756,22517,-6792821,-2117258,-408057,0,0,0,261,327,241,296,215,323,346,278,320,187,250,149,0,
2,1773253767152,1608,516,10112,522900,-40317,-183259,0,0,0,517,582,382,482,480,533,546,349,382,263,176,559,0,
1,1773253767168,-2569,670,25240,-6698748,-2062281,-449596,0,0,0,258,326,243,293,214,325,346,276,324,181,242,150,0,
2,1773253767168,1746,507,10189,601091,-78190,-218689,0,0,0,537,595,382,490,486,539,537,326,388,268,173,566,0,
1,1773253767184,-3656,-842,28394,-6381098,-2156354,-1018923,0,0,0,259,326,243,294,213,325,346,274,323,180,234,149,0,
2,1773253767184,1804,440,10284,711047,-123394,-268780,0,0,0,537,600,375,506,497,542,526,299,398,274,174,575,0,
1,1773253767200,-4240,-4848,32366,-5889962,-2558303,-2124589,0,0,0,262,325,237,297,214,317,349,271,305,187,232,144,0,
2,1773253767200,1895,287,10571,847880,-123394,-343306,0,0,0,549,610,390,510,504,549,514,277,406,282,175,585,0,
1,1773253767216,-4460,-12993,35103,-5567425,-2693915,-3039665,0,0,0,259,326,233,295,219,313,347,270,289,193,234,137,0,
2,1773253767216,1962,138,11074,1021366,-96516,-427605,0,0,0,555,613,400,519,512,558,494,255,406,280,177,600,0,
1,1773253767232,-5738,-25484,31624,-5595525,-2361605,-2682920,0,0,0,256,329,234,296,221,318,341,272,289,193,234,132,0,
2,1773253767232,1823,162,11739,1292590,-89186,-485026,0,0,0,561,610,386,524,525,569,470,242,411,277,179,605,0,
1,1773253767248,-2182,-39358,24197,-5086063,-2509434,-1462411,0,0,0,258,331,232,299,223,321,345,271,293,188,229,131,0,
2,1773253767248,1502,239,12323,1626123,-106290,-497244,0,0,0,569,611,358,529,542,587,437,237,417,278,181,609,0,
1,1773253767264,11318,-47839,16889,-3336545,-2563190,-35430,0,0,0,257,332,234,295,219,321,351,276,298,193,240,137,0,
2,1773253767264,1091,129,12763,2056172,-112399,-442266,0,0,0,574,616,335,533,557,594,392,230,419,277,184,617,0,
1,1773253767280,19372,-48284,15845,-1088561,-785572,384845,0,0,0,245,332,232,293,219,327,360,286,312,210,281,147,0,
2,1773253767280,971,-138,13318,2560747,-94073,-353080,0,0,0,578,622,314,527,566,582,347,223,425,273,185,620,0,
1,1773253767296,15587,-43024,17520,1060462,1604132,647517,0,0,0,233,318,216,293,217,329,386,376,323,268,346,133,0,
2,1773253767296,1694,-229,14376,3097086,-146607,-294437,0,0,0,580,621,281,523,569,579,315,224,431,272,184,618,0,
1,1773253767312,2995,-20545,18382,2822197,3241250,1050688,0,0,0,250,290,175,298,184,262,449,449,259,302,403,107,0,
2,1773253767312,3082,-181,15711,3778812,-392175,-366519,0,0,0,588,611,269,522,575,570,289,211,436,261,181,617,0,
1,1773253767328,-7800,13371,14472,3744603,3578448,1167974,0,0,0,248,293,151,292,171,247,481,481,265,343,422,89,0,
