sole_id,timestamp,accel_x,accel_y,accel_z,gyro_x,gyro_y,gyro_z,magn_x,magn_y,magn_z,pressure_01,pressure_02,pressure_03,pressure_04,pressure_05,pressure_06,pressure_07,pressure_08,pressure_09,pressure_10,pressure_11,pressure_12,corrupt,concrete
1,1775671347984,-7116,-1560,13304,4752531,2913827,2173458,0,0,0,258,284,239,255,184,294,321,254,277,178,221,129,0,
2,1775671347984,28,-14,12002,370184,-1200961,268780,0,0,0,441,490,342,434,403,457,558,516,333,268,263,337,0,
1,1775671348000,-8088,2617,9858,4180761,3468492,1980425,0,0,0,258,288,245,253,182,294,322,258,277,178,222,127,0,
2,1775671348000,1909,1914,9839,240680,-296880,41538,0,0,0,447,497,346,439,405,459,559,511,336,273,263,349,0,
1,1775671348016,-11371,8528,8212,2702467,2830749,1186300,0,0,0,266,291,244,258,182,295,323,258,277,181,223,130,0,
2,1775671348016,1359,1407,9451,127059,215024,-86742,0,0,0,449,499,346,442,409,464,559,506,339,274,256,362,0,
1,1775671348032,-11146,12021,8638,259006,955393,-182037,0,0,0,261,295,247,254,183,292,321,259,275,183,226,132,0,
2,1775671348032,617,684,10165,174707,31764,-51312,0,0,0,450,502,348,439,406,469,549,497,352,251,229,375,0,
1,1775671348048,-7274,9705,8265,-1695761,261450,-1411098,0,0,0,248,299,253,245,183,293,320,257,275,184,228,133,0,
2,1775671348048,871,938,10212,244346,-70860,-30543,0,0,0,448,504,346,440,409,473,488,458,378,244,218,380,0,
1,1775671348064,-6465,5977,6556,-2425134,437379,-1810604,0,0,0,240,299,252,244,184,295,322,256,278,191,226,135,0,
2,1775671348064,1115,1119,10054,284663,-19547,-41538,0,0,0,461,508,346,452,423,486,559,484,349,253,217,398,0,
1,1775671348080,-7638,4201,5259,-2333505,196698,-1263269,0,0,0,234,299,247,245,186,292,325,259,277,197,225,134,0,
2,1775671348080,1100,985,9997,309097,23212,-52534,0,0,0,458,515,355,446,419,484,560,475,349,252,207,407,0,
1,1775671348096,-5953,4991,6073,-2574186,-420275,-678060,0,0,0,230,299,247,245,186,292,327,259,275,184,225,129,0,
2,1775671348096,1052,851,9987,326202,10995,-53756,0,0,0,465,518,360,452,423,493,558,469,354,256,206,420,0,
1,1775671348112,-4283,5642,7269,-3128851,-518013,-505796,0,0,0,229,299,248,246,187,296,327,261,277,184,228,127,0,
2,1775671348112,1057,818,9987,332310,-4886,-54977,0,0,0,467,519,355,452,427,492,558,458,356,254,198,431,0,
1,1775671348128,-4723,5398,8088,-3738495,-450818,-675616,0,0,0,229,302,248,247,189,296,327,261,274,189,229,127,0,
2,1775671348128,1091,818,9983,335975,-3665,-59864,0,0,0,471,518,351,455,432,495,554,447,358,258,194,441,0,
1,1775671348144,-5340,4919,8805,-4173431,-714712,-875980,0,0,0,231,301,250,244,189,294,330,264,279,183,228,124,0,x
2,1775671348144,1124,784,9997,346971,2443,-63529,0,0,0,478,517,347,459,436,499,551,434,361,256,189,450,0,x
1,1775671348160,-5254,4379,9791,-4525289,-1163087,-1175304,0,0,0,230,302,250,247,190,295,327,264,275,186,230,125,0,
2,1775671348160,1124,717,9987,362853,-2443,-68416,0,0,0,480,521,350,462,439,500,544,415,362,256,184,464,0,
1,1775671348176,-5053,3646,10988,-4791626,-1468520,-1598023,0,0,0,233,300,251,254,190,297,330,265,276,188,230,126,0,
2,1775671348176,1076,631,9959,375071,-4886,-72082,0,0,0,480,526,358,464,447,503,540,401,363,259,180,477,0,
1,1775671348192,-5302,2761,12337,-4969999,-1750739,-1969429,0,0,0,231,299,250,249,189,293,333,269,280,189,231,127,0,
2,1775671348192,1052,569,9959,378736,8552,-72082,0,0,0,478,532,363,465,458,506,541,392,367,260,178,484,0,
1,1775671348208,-5489,1890,14156,-5057964,-2064724,-2094046,0,0,0,234,299,251,252,189,296,331,268,279,186,230,128,0,
2,1775671348208,1129,526,10026,384845,20769,-69638,0,0,0,477,539,365,467,463,509,539,379,371,260,178,489,0,
1,1775671348224,-5230,1215,16161,-5136154,-2244318,-2021963,0,0,0,232,299,251,251,189,294,329,270,279,188,233,132,0,
2,1775671348224,1220,488,10098,399505,15882,-73303,0,0,0,483,546,373,475,460,520,534,362,374,261,179,496,0,
1,1775671348240,-4642,421,18367,-5248554,-2217440,-1817934,0,0,0,234,300,251,251,187,292,328,270,279,188,232,132,0,
2,1775671348240,1258,435,10141,419053,3665,-85521,0,0,0,488,549,373,479,474,520,526,349,383,260,179,506,0,
1,1775671348256,-3924,-550,20153,-5310862,-1976759,-1654223,0,0,0,237,300,251,252,187,294,327,267,279,185,228,130,0,
2,1775671348256,1258,358,10155,438601,0,-100181,0,0,0,494,551,372,497,508,505,522,330,392,272,178,511,0,
1,1775671348272,-3354,-1598,21593,-5252219,-1643227,-1700648,0,0,0,237,301,254,255,189,298,325,262,280,184,224,129,0,
2,1775671348272,1282,282,10246,475253,-6108,-119729,0,0,0,500,543,374,482,472,521,516,316,392,428,229,494,0,
1,1775671348288,-3637,-2948,22579,-5061629,-1457524,-2091602,0,0,0,237,303,255,255,191,299,324,257,280,186,225,128,0,
2,1775671348288,1306,224,10318,551000,-40317,-142942,0,0,0,503,545,366,474,461,517,507,302,388,261,169,529,0,
1,1775671348304,-4335,-5494,23814,-4836830,-1488067,-2601064,0,0,0,236,304,253,255,191,298,324,256,280,186,227,126,0,
2,1775671348304,1335,143,10289,631634,-63529,-168598,0,0,0,507,547,350,477,469,519,495,285,388,270,176,550,0,
1,1775671348320,-5264,-10160,24833,-4709770,-1624901,-2932153,0,0,0,234,304,250,258,190,297,328,258,281,188,226,124,0,
2,1775671348320,1421,62,10370,701273,-51312,-199142,0,0,0,514,545,343,481,475,529,481,267,392,282,181,564,0,
1,1775671348336,-6183,-17161,23187,-4783074,-1528384,-2482556,0,0,0,234,304,249,258,189,297,330,261,283,190,226,123,0,
2,1775671348336,1488,23,10734,803898,-31764,-239459,0,0,0,512,540,325,487,478,534,461,248,389,284,185,563,0,
1,1775671348352,-4355,-23895,19664,-4641354,-1610240,-1473406,0,0,0,241,310,251,269,197,302,331,267,280,195,230,123,0,
2,1775671348352,1450,-14,11165,967610,-19547,-284663,0,0,0,517,549,313,489,486,538,446,244,392,288,190,579,0,
1,1775671348368,3665,-29920,15984,-3717725,-1698205,-290771,0,0,0,246,307,246,270,199,297,329,264,285,215,225,129,0,
2,1775671348368,1335,-57,11567,1209513,-20769,-312763,0,0,0,521,557,304,492,493,541,430,244,395,281,183,581,0,
1,1775671348384,10222,-33711,13802,-2460565,-1055575,353080,0,0,0,232,312,226,267,200,289,337,280,280,209,265,120,0,
2,1775671348384,1186,-95,12036,1517389,-35430,-315206,0,0,0,521,558,288,496,503,545,407,244,399,275,181,582,0,
1,1775671348400,12079,-35596,13639,-889419,433714,712268,0,0,0,231,289,224,264,193,282,364,329,268,240,311,108,0,
2,1775671348400,1210,-157,12538,1847256,-62308,-296880,0,0,0,520,557,272,495,507,543,377,243,397,276,184,590,0,
1,1775671348416,9782,-29466,14946,1170417,2484999,860098,0,0,0,236,275,199,266,178,265,421,381,257,273,357,95,0,
2,1775671348416,1574,-325,13079,2236988,-134390,-301767,0,0,0,520,557,262,487,507,536,349,242,391,274,183,595,0,
1,1775671348432,1172,-6432,14424,3055547,3665191,575435,0,0,0,245,269,188,269,167,260,448,420,257,292,385,93,0,
2,1775671348432,2000,-502,13706,2689028,-230907,-353080,0,0,0,522,555,258,482,513,534,323,234,388,268,181,592,0,
1,1775671348448,-3306,8145,13376,3698178,2841745,92851,0,0,0,251,269,184,275,165,258,458,443,258,309,403,89,0,
2,1775671348448,2359,-497,14630,3253468,-342084,-459370,0,0,0,521,551,256,479,515,533,285,211,389,268,180,588,0,
1,1775671348464,-1052,5953,14635,4117231,1477072,-6108,0,0,0,257,273,184,286,168,264,465,459,260,335,416,86,0,
2,1775671348464,2991,-492,15711,3830125,-447153,-598647,0,0,0,523,554,254,470,512,523,269,192,391,269,185,586,0,
1,1775671348480,1569,-966,18382,4120896,521678,390953,0,0,0,261,280,201,288,169,271,478,468,266,350,421,89,0,
2,1775671348480,3752,-555,17501,4602258,-554665,-845437,0,0,0,521,547,255,469,500,517,266,163,381,252,160,542,0,
1,1775671348496,-1799,-1584,18119,2937040,321315,657290,0,0,0,263,286,229,290,174,283,491,469,275,355,425,96,0,
2,1775671348496,3833,-703,20354,5479461,-624304,-1094670,0,0,0,513,538,265,469,494,515,265,156,382,228,144,470,0,
1,1775671348512,-3460,81,13639,1726305,265115,249233,0,0,0,262,290,251,305,189,309,494,473,286,371,434,110,0,
2,1775671348512,4221,-727,23369,6261368,-597426,-1251052,0,0,0,453,512,240,458,486,501,265,162,368,205,136,411,0,
1,1775671348528,-2608,942,9753,878424,172263,-151494,0,0,0,267,293,267,324,203,334,500,479,297,390,444,135,0,
2,1775671348528,5111,-201,25197,6911329,-346971,-1400103,0,0,0,392,484,221,425,445,462,280,171,342,193,131,355,0,
1,1775671348544,-1732,373,9346,453262,145385,-179594,0,0,0,281,299,289,342,210,356,509,483,314,399,452,160,0,
2,1775671348544,4991,588,25254,7456221,90408,-1661553,0,0,0,334,463,215,381,418,425,293,216,306,167,123,320,0,
1,1775671348560,-1871,268,10323,68416,216246,-81855,0,0,0,315,304,277,353,210,355,521,473,316,422,467,171,0,
2,1775671348560,5561,780,24340,7844731,734260,-1958433,0,0,0,266,436,227,338,378,382,311,262,282,121,104,226,0,
1,1775671348576,-1938,756,10547,-139277,227241,-37873,0,0,0,309,319,272,352,228,344,528,503,300,422,480,187,0,
2,1775671348576,7068,2349,19961,7975456,1440420,-2389704,0,0,0,255,436,235,328,371,377,316,286,279,113,112,205,0,
1,1775671348592,-1842,1167,10265,-158824,151494,-34208,0,0,0,312,319,275,353,218,348,527,501,296,425,480,190,0,
2,1775671348592,7078,7355,12988,7253413,1153313,-3040887,0,0,0,254,436,238,331,371,383,302,296,284,113,115,203,0,
1,1775671348608,-1837,1234,10117,-83077,50090,-19547,0,0,0,319,321,281,351,213,348,527,492,302,422,487,189,0,
2,1775671348608,4292,13649,9901,5178915,111177,-3194825,0,0,0,252,435,237,331,370,381,306,296,277,114,115,201,0,
1,1775671348624,-1890,1263,10069,-9773,-7330,1221,0,0,0,318,325,280,357,218,352,529,487,303,423,486,190,0,
2,1775671348624,1943,18296,9873,366519,-1263269,-1750739,0,0,0,253,434,234,331,370,376,322,295,268,116,115,200,0,
1,1775671348640,-1899,1354,9987,65973,-45204,21991,0,0,0,322,327,273,368,217,354,531,483,298,427,488,192,0,
2,1775671348640,3278,15113,9715,-4128227,-2111150,131946,0,0,0,256,432,231,334,370,377,327,299,269,117,115,200,0,
1,1775671348656,-1880,1373,9920,167377,-89186,37873,0,0,0,320,329,270,368,217,356,532,475,303,425,492,197,0,
2,1775671348656,6484,7293,7652,-5651725,-1905899,923628,0,0,0,257,434,234,336,371,380,329,301,271,117,116,201,0,
1,1775671348672,-1923,1258,9844,254119,-122173,47647,0,0,0,317,332,272,365,223,362,531,464,310,420,493,203,0,
2,1775671348672,7729,3441,5699,-5466022,-1205847,757472,0,0,0,256,435,236,338,373,381,331,302,273,119,121,203,0,
1,1775671348688,-1990,1095,9696,272445,-111177,48869,0,0,0,322,339,275,367,228,367,527,459,310,422,491,209,0,
2,1775671348688,6824,3627,5489,-5049412,-439822,280998,0,0,0,255,435,235,335,370,376,332,304,273,119,121,203,0,
1,1775671348704,-2014,1009,9600,239459,-65973,48869,0,0,0,328,347,277,368,227,365,525,458,310,421,493,211,0,
2,1775671348704,5422,4613,7221,-5456248,-81855,129503,0,0,0,254,437,235,339,374,380,328,303,269,120,122,202,0,
1,1775671348720,-1976,1033,9619,200363,-28099,50090,0,0,0,331,352,281,366,227,361,525,453,309,405,493,207,0,
2,1775671348720,4804,4532,8600,-5926614,146607,195476,0,0,0,255,438,237,337,373,379,331,307,273,120,122,201,0,
1,1775671348736,-1914,1048,9657,174707,-10995,50090,0,0,0,330,358,283,369,239,368,526,454,313,399,485,212,0,
2,1775671348736,4412,3814,9633,-6183177,571769,415388,0,0,0,256,437,237,340,375,380,333,307,272,117,120,198,0,
1,1775671348752,-1899,1052,9676,164933,-14660,48869,0,0,0,327,356,278,371,229,370,523,460,317,388,485,218,0,
2,1775671348752,3761,3527,10729,-6162408,1048244,711047,0,0,0,257,438,238,340,376,383,332,308,272,117,119,198,0,
1,1775671348768,-1880,1024,9696,160046,-20769,45204,0,0,0,327,353,298,371,229,380,523,457,322,389,478,224,0,
2,1775671348768,3149,3397,12146,-6156299,1389107,1001818,0,0,0,258,439,240,341,376,384,333,310,276,120,119,199,0,
1,1775671348784,-1885,990,9686,156381,-29321,41538,0,0,0,331,360,290,371,235,377,528,444,323,393,472,229,0,
2,1775671348784,2675,3168,14146,-6173404,1610240,1235169,0,0,0,259,439,242,339,375,387,336,311,280,118,119,201,0,
1,1775671348800,-1904,971,9643,149051,-30543,37873,0,0,0,331,360,290,373,246,380,526,439,330,385,468,233,0,
2,1775671348800,2306,2885,16429,-6221051,1772730,1346346,0,0,0,259,439,240,340,374,386,339,313,283,119,119,200,0,
1,1775671348816,-1914,957,9629,138055,-20769,34208,0,0,0,328,363,288,378,255,385,528,435,333,391,461,243,0,
2,1775671348816,1981,2541,18851,-6348111,1864360,1302364,0,0,0,260,440,240,341,374,385,337,309,280,133,142,199,0,
1,1775671348832,-1914,957,9676,138055,-10995,34208,0,0,0,326,367,294,367,289,389,523,440,343,384,462,258,0,
2,1775671348832,1770,2349,20995,-6515488,1838704,1175304,0,0,0,259,440,241,342,373,385,335,306,278,149,168,199,0,
1,1775671348848,-1909,957,9739,146607,-4886,39095,0,0,0,332,371,295,374,278,396,524,434,350,382,452,270,0,
2,1775671348848,1655,2407,23436,-6674313,1788613,1125213,0,0,0,258,441,240,341,370,384,337,301,279,162,185,198,0,
1,1775671348864,-1914,933,9786,163711,0,46425,0,0,0,339,373,294,386,255,399,525,419,349,383,436,284,0,
2,1775671348864,1732,2057,26120,-6770830,1743409,1352455,0,0,0,257,442,238,342,368,383,335,295,277,170,195,197,0,
1,1775671348880,-1933,899,9777,184481,6108,58643,0,0,0,339,380,294,387,270,402,521,408,348,382,426,302,0,
2,1775671348880,2249,435,28590,-6787934,1663996,1756848,0,0,0,257,441,237,344,369,387,335,294,279,172,193,196,0,
1,1775671348896,-1947,880,10021,197920,24434,74525,0,0,0,339,387,299,386,288,409,521,402,351,383,415,325,0,
2,1775671348896,3431,-3594,30160,-6646213,1623679,2224771,0,0,0,259,440,238,343,368,389,341,296,287,174,191,197,0,
1,1775671348912,-1952,890,11509,163711,89186,102625,0,0,0,351,388,310,386,277,411,522,395,352,382,395,345,0,
2,1775671348912,4063,-12715,29633,-6183177,1739744,2404365,0,0,0,261,440,238,353,374,394,345,298,291,179,191,199,0,
1,1775671348928,-1904,890,11203,221133,91629,124616,0,0,0,361,407,307,392,305,411,516,389,356,368,357,359,0,
2,1775671348928,2622,-25178,26001,-5232671,1775174,2080607,0,0,0,262,440,236,353,373,399,345,299,293,182,197,201,0,
1,1775671348944,-1885,894,10035,365297,54977,141720,0,0,0,366,409,317,394,301,428,510,359,356,362,336,387,0,
2,1775671348944,-1962,-36448,19660,-3488040,1627344,1172861,0,0,0,263,441,239,351,372,394,345,300,293,184,197,203,0,
1,1775671348960,-1909,952,9897,542448,45204,157603,0,0,0,389,428,317,414,325,452,518,327,372,341,302,423,0,
2,1775671348960,-8131,-39535,16367,-1495398,1091005,70860,0,0,0,264,443,241,352,373,396,348,300,297,183,196,201,0,
1,1775671348976,-1885,904,10409,724486,37873,174707,0,0,0,394,458,313,418,393,448,503,299,376,334,296,434,0,
2,1775671348976,-10595,-37874,16056,-2443,97738,-656069,0,0,0,262,441,241,352,375,398,346,298,294,184,203,202,0,
1,1775671348992,-1909,674,10921,899193,-29321,190589,0,0,0,400,469,316,454,375,471,491,262,392,315,247,472,0,
2,1775671348992,-6465,-31562,16621,1238834,-1103222,-933402,0,0,0,258,441,245,353,380,394,370,383,283,163,199,189,0,
1,1775671349008,-2349,531,11265,1094670,-134390,244346,0,0,0,411,466,309,455,378,488,471,250,407,297,229,518,0,
2,1775671349008,1435,-12720,18521,2448347,-1721418,-819781,0,0,0,250,427,221,348,373,376,396,439,268,200,258,179,0,
1,1775671349024,-2713,459,12031,1393994,-206472,361632,0,0,0,413,464,279,461,393,494,441,236,417,286,213,534,0,
2,1775671349024,8513,13395,15333,3224146,-2135584,-290771,0,0,0,253,412,208,346,364,375,424,467,265,184,247,178,0,
1,1775671349040,-2368,469,13692,1876578,-211359,498466,0,0,0,408,467,264,464,408,509,413,224,418,275,203,544,0,
2,1775671349040,7307,13639,8973,3854559,-1995085,678060,0,0,0,257,409,207,348,365,385,441,476,277,196,269,180,0,
1,1775671349056,-2282,512,15032,2431243,-155159,572991,0,0,0,411,470,251,457,419,521,365,216,417,267,199,553,0,
2,1775671349056,693,2651,10643,4753753,-1138652,1354899,0,0,0,261,414,206,353,365,390,455,483,284,204,289,187,0,
1,1775671349072,-2555,674,15510,3145955,-46425,646295,0,0,0,428,462,237,444,419,520,291,211,418,257,193,553,0,
2,1775671349072,-5671,-2627,17784,4737870,-175929,817337,0,0,0,263,419,216,356,363,395,472,491,288,200,290,194,0,
1,1775671349088,-2976,760,15711,3831346,30543,772133,0,0,0,441,440,240,436,402,508,241,202,416,237,176,542,0,
2,1775671349088,-4991,-100,19358,4015828,164933,-371406,0,0,0,266,425,237,359,363,400,485,501,296,205,291,196,0,
1,1775671349104,-3914,799,16688,4535063,119729,957836,0,0,0,438,424,249,429,379,489,224,196,405,209,153,518,0,
2,1775671349104,2488,3077,15663,3057991,177150,-1130100,0,0,0,278,434,261,367,367,401,492,514,300,208,279,197,0,
1,1775671349120,-5829,516,18755,5301088,291993,1286482,0,0,0,430,430,243,388,378,482,186,211,401,178,148,471,0,
2,1775671349120,4063,1373,13706,2277305,76969,-491135,0,0,0,295,448,292,377,372,405,519,519,297,217,282,214,0,
1,1775671349136,-7671,23,20851,5957157,510683,1670105,0,0,0,405,419,235,386,387,460,190,176,397,179,136,423,0,
2,1775671349136,2450,430,11739,1387885,-106290,68416,0,0,0,309,461,312,392,386,422,534,532,305,227,285,242,0,
1,1775671349152,-9002,71,22703,6603453,753807,2161241,0,0,0,355,406,237,354,332,435,189,169,355,157,120,323,0,
2,1775671349152,593,492,10528,608421,-254119,166155,0,0,0,335,465,321,402,388,435,539,539,315,238,284,263,0,
1,1775671349168,-8490,703,24192,7109249,916297,2568077,0,0,0,290,371,229,309,281,394,202,180,332,142,136,274,0,
2,1775671349168,933,679,10356,125838,-280998,31764,0,0,0,356,475,328,410,395,436,528,528,320,366,344,261,0,
1,1775671349184,-7480,2110,24977,7468438,1084896,2800206,0,0,0,251,333,218,283,242,333,235,210,306,147,169,194,0,
2,1775671349184,1148,1100,10337,-84299,-265115,-20769,0,0,0,367,477,336,411,393,437,545,539,308,288,340,276,0,
1,1775671349200,-8049,3718,22694,7806857,1367116,2962696,0,0,0,238,294,231,247,188,283,293,245,274,181,192,140,0,
2,1775671349200,933,1493,10313,-91629,-177150,-6108,0,0,0,374,480,337,414,392,439,548,544,312,268,321,284,0,
1,1775671349216,-10212,5580,16707,7827627,1494176,3155729,0,0,0,239,291,239,240,182,280,301,265,270,170,217,125,0,
2,1775671349216,1000,1617,10270,-45204,-98960,0,0,0,0,379,481,342,415,390,440,554,544,311,303,355,279,0,
1,1775671349232,-11304,8671,10916,6974859,1103222,3337767,0,0,0,238,302,243,244,195,288,297,282,271,157,239,123,0,
2,1775671349232,1091,1679,10198,7330,-92851,-7330,0,0,0,386,481,341,414,391,441,553,540,308,314,356,280,0,
1,1775671349248,-8035,14563,9997,3866776,354301,2376265,0,0,0,236,308,242,244,202,289,298,293,271,155,249,123,0,
2,1775671349248,1038,1775,10145,102625,-102625,-17104,0,0,0,398,488,345,416,395,442,554,537,308,293,326,299,0,
1,1775671349264,-4331,17487,10418,-346971,324980,216246,0,0,0,232,310,237,244,206,289,299,296,268,154,250,123,0,
2,1775671349264,966,1799,10136,213802,-85521,-25656,0,0,0,409,493,345,419,397,446,552,540,317,260,290,309,0,
1,1775671349280,-5666,12936,9346,-3423288,961501,-1815491,0,0,0,226,310,233,245,210,290,298,295,266,155,252,123,0,
2,1775671349280,899,1694,10122,320093,-37873,-34208,0,0,0,417,495,344,421,398,450,553,535,325,244,271,312,0,
1,1775671349296,-8734,7274,7054,-4494746,864985,-2340835,0,0,0,222,310,233,245,209,290,300,294,268,157,254,123,0,
2,1775671349296,899,1574,10031,355523,6108,-35430,0,0,0,422,498,346,425,401,452,554,525,327,248,270,318,0,
1,1775671349312,-8997,3957,5259,-4173431,-340862,-1310916,0,0,0,225,311,235,251,210,294,301,292,269,158,254,122,0,
2,1775671349312,990,1483,9949,362853,37873,-36651,0,0,0,425,501,346,430,404,456,553,517,333,251,263,331,0,
1,1775671349328,-5183,4656,6637,-4304156,-827111,-485026,0,0,0,226,311,238,258,208,293,303,288,268,163,256,123,0,
2,1775671349328,1091,1454,9920,350636,24434,-42760,0,0,0,427,504,343,435,411,461,553,506,334,256,246,352,0,
1,1775671349344,-3187,5355,8303,-4875926,-598647,-306654,0,0,0,223,312,240,251,215,293,302,289,268,162,257,123,0,
2,1775671349344,1139,1430,9920,351858,-3665,-52534,0,0,0,434,509,341,443,422,469,547,497,340,259,247,352,0,
1,1775671349360,-3326,5211,9605,-5521000,-548556,-471587,0,0,0,216,312,241,243,217,297,295,299,269,159,262,126,0,
2,1775671349360,1148,1392,9920,364075,-45204,-61086,0,0,0,436,515,345,439,413,474,546,479,338,244,221,367,0,
1,1775671349376,-3129,4718,10825,-5892406,-955393,-669508,0,0,0,216,314,244,243,222,302,295,300,271,159,262,127,0,
2,1775671349376,1134,1344,9920,377514,-84299,-64751,0,0,0,444,519,345,445,412,473,545,466,340,244,208,376,0,
1,1775671349392,-2014,4259,12132,-6034126,-1375668,-910189,0,0,0,217,316,241,245,223,300,294,304,268,160,263,124,0,
2,1775671349392,1100,1292,9930,393397,-111177,-68416,0,0,0,451,522,355,449,419,483,542,453,348,243,197,392,0,
1,1775671349408,-1402,3713,13510,-6123313,-1492954,-1156978,0,0,0,218,315,243,246,220,301,294,302,268,165,265,129,0,
2,1775671349408,1038,1249,9978,420275,-124616,-73303,0,0,0,455,526,349,448,427,488,540,434,351,248,196,410,0,
1,1775671349424,-1253,3211,15089,-6202725,-1566258,-1254717,0,0,0,225,317,251,245,209,301,302,296,273,166,264,132,0,
2,1775671349424,961,1172,10002,459370,-113620,-72082,0,0,0,458,534,352,452,430,496,539,420,360,247,189,429,0,
1,1775671349440,-741,2751,17238,-6283359,-1637118,-1116661,0,0,0,226,321,250,243,210,295,302,301,273,162,269,127,0,
2,1775671349440,961,1076,10026,485026,-83077,-67195,0,0,0,464,531,351,453,434,499,529,398,363,244,183,441,0,
1,1775671349456,-110,2043,19765,-6377433,-1616349,-919963,0,0,0,226,320,246,245,214,291,299,303,269,164,272,123,0,
2,1775671349456,1048,995,10083,503352,-57421,-70860,0,0,0,475,533,358,456,442,502,521,376,360,245,176,451,0,
1,1775671349472,-67,1215,21765,-6442184,-1554041,-963945,0,0,0,226,320,244,248,214,291,296,300,264,168,272,123,0,
2,1775671349472,1182,928,10155,532674,-42760,-89186,0,0,0,481,537,360,460,446,502,517,355,361,248,169,459,0,
1,1775671349488,-1038,-196,23704,-6422637,-1600466,-1662775,0,0,0,225,322,244,247,215,291,295,300,263,166,271,123,0,
2,1775671349488,1311,856,10265,585208,-36651,-130725,0,0,0,481,543,352,462,449,502,510,333,364,254,167,479,0,
1,1775671349504,-2651,-2809,25881,-6284581,-1743409,-2685363,0,0,0,226,324,245,244,216,288,298,304,266,162,268,121,0,
2,1775671349504,1421,784,10428,662177,-52534,-186924,0,0,0,485,553,350,470,458,512,503,312,374,259,166,501,0,
1,1775671349520,-4345,-8121,28446,-5997474,-1864360,-3616322,0,0,0,226,327,244,241,215,287,302,306,268,161,273,120,0,
2,1775671349520,1373,708,10586,779464,-98960,-254119,0,0,0,495,558,355,480,470,526,497,294,388,309,179,501,0,
1,1775671349536,-6044,-18406,29169,-5562538,-1683544,-3638313,0,0,0,223,325,242,240,217,286,307,309,268,163,275,119,0,
2,1775671349536,1172,559,10796,918741,-118507,-284663,0,0,0,504,556,350,483,477,524,480,270,392,370,199,503,0,
1,1775671349552,-7528,-29303,25632,-5020090,-1431868,-2591290,0,0,0,223,326,243,240,217,283,305,307,266,161,272,118,0,
2,1775671349552,1134,497,11261,1086118,-102625,-290771,0,0,0,511,557,335,487,483,526,458,252,396,265,168,535,0,
1,1775671349568,-3632,-35405,18626,-3954741,-1715309,-693942,0,0,0,222,326,237,247,220,290,312,307,269,165,275,117,0,
2,1775671349568,1191,516,12060,1335351,-69638,-300545,0,0,0,510,557,324,491,490,529,430,238,394,275,175,553,0,
1,1775671349584,4484,-36520,14156,-2586403,-1942551,702495,0,0,0,223,325,239,247,217,289,312,307,269,169,275,117,0,
2,1775671349584,1014,464,12691,1695761,-34208,-313984,0,0,0,516,561,305,492,496,525,410,239,398,278,176,563,0,
1,1775671349600,9786,-37023,13194,-1204626,-1164309,1154535,0,0,0,224,319,237,251,219,293,330,280,273,241,237,144,0,
2,1775671349600,861,421,13199,2119702,-32986,-296880,0,0,0,527,571,287,489,504,535,362,236,394,278,189,586,0,
1,1775671349616,9652,-36458,13601,43982,87964,1042136,0,0,0,229,296,233,252,189,275,361,328,265,251,303,108,0,
2,1775671349616,1306,330,13826,2643824,-107512,-271224,0,0,0,535,574,287,483,515,530,318,222,386,271,180,585,0,
1,1775671349632,5001,-25599,16515,1423316,1238834,561996,0,0,0,233,272,215,257,171,284,417,396,268,279,372,107,0,
2,1775671349632,1890,172,14319,3174055,-201585,-316428,0,0,0,536,582,270,486,531,535,295,228,398,271,184,585,0,
1,1775671349648,-3077,5125,14783,3061656,2149023,-75747,0,0,0,248,262,180,267,163,260,455,450,261,309,407,92,0,
2,1775671349648,2067,105,15008,3739716,-299323,-421497,0,0,0,534,571,257,475,525,529,269,215,385,265,179,585,0,
1,1775671349664,-4163,14591,11433,4212526,2244318,-238237,0,0,0,249,259,165,269,189,248,468,468,262,344,421,91,0,
2,1775671349664,2684,177,16424,4458094,-430049,-560774,0,0,0,536,557,265,469,525,528,254,191,384,248,167,568,0,
1,1775671349680,631,3503,16405,5236336,1088561,97738,0,0,0,252,262,174,281,183,260,477,476,277,377,430,94,0,
2,1775671349680,3991,224,18482,5235115,-592539,-779464,0,0,0,536,547,274,464,521,526,246,169,377,230,152,518,0,
1,1775671349696,2033,-3776,22947,4951673,-128281,663399,0,0,0,264,269,196,297,166,273,486,486,298,399,435,98,0,
2,1775671349696,5441,-162,22091,6190508,-835663,-1130100,0,0,0,504,527,259,456,510,515,245,167,368,215,145,455,0,
1,1775671349712,-2512,-1957,21052,3265685,-276111,879645,0,0,0,268,275,229,304,175,299,492,493,322,413,439,111,0,
2,1775671349712,6824,-1919,26676,7106806,-922406,-1456302,0,0,0,444,505,241,440,486,493,257,169,353,201,137,410,0,
1,1775671349728,-4417,492,13314,1656666,2443,274889,0,0,0,269,282,260,313,188,340,499,499,335,426,445,134,0,
2,1775671349728,7700,-2010,29729,7826405,-507018,-1780061,0,0,0,376,481,224,410,447,453,276,187,319,180,126,364,0,
1,1775671349744,-2866,603,9523,862541,64751,-146607,0,0,0,287,296,264,332,199,348,516,516,325,431,457,163,0,
2,1775671349744,6231,1995,30748,8202698,-19547,-2125811,0,0,0,306,450,218,364,400,404,297,238,287,141,114,274,0,
1,1775671349760,-1995,138,9949,436157,40317,-136833,0,0,0,309,313,267,349,209,352,530,530,330,444,472,183,0,
2,1775671349760,7465,5518,28121,8455596,285884,-2487443,0,0,0,266,430,231,331,368,378,313,281,279,108,105,202,0,
1,1775671349776,-2057,531,10634,125838,63529,-36651,0,0,0,327,308,284,359,203,357,537,533,320,443,478,190,0,
2,1775671349776,10701,8805,18406,8257676,339641,-3067765,0,0,0,276,435,239,326,366,380,316,292,282,111,111,203,0,
1,1775671349792,-2244,1095,10351,21991,74525,-8552,0,0,0,325,315,276,361,218,362,531,530,319,453,479,196,0,
2,1775671349792,9576,13419,10748,6294355,-238237,-3613878,0,0,0,272,437,238,330,369,382,317,293,274,132,123,201,0,
1,1775671349808,-2196,1287,9892,48869,50090,-14660,0,0,0,322,310,269,355,203,361,546,530,342,441,487,205,0,
2,1775671349808,5685,18918,8892,2293188,-767246,-3056769,0,0,0,278,438,237,336,371,379,321,295,270,202,159,197,0,
1,1775671349824,-2148,1330,9940,135612,35430,9773,0,0,0,323,319,267,357,217,369,546,514,330,426,488,217,0,
2,1775671349824,2211,19406,10241,-2917492,-1237612,-1021366,0,0,0,277,439,238,341,373,380,324,294,270,117,112,197,0,
1,1775671349840,-2033,1344,10212,238237,8552,47647,0,0,0,328,332,270,365,222,371,540,508,334,425,475,230,0,
2,1775671349840,4422,11036,8121,-5285206,-1536936,904080,0,0,0,275,439,238,340,373,379,324,293,268,117,112,199,0,
1,1775671349856,-1904,1306,10236,344527,-90408,64751,0,0,0,329,338,274,367,222,379,529,498,342,425,458,256,0,
2,1775671349856,7647,4594,4163,-5083620,-978606,1401324,0,0,0,262,435,233,337,371,380,326,300,271,116,114,198,0,
1,1775671349872,-1962,1287,9629,379958,-153938,64751,0,0,0,328,340,273,363,224,374,536,483,343,416,444,270,0,
2,1775671349872,7011,4211,3704,-4405560,139277,910189,0,0,0,259,437,235,334,370,377,327,304,271,114,114,198,0,
1,1775671349888,-2139,1273,8494,307876,-69638,64751,0,0,0,326,352,274,361,241,378,533,477,348,406,436,286,0,
2,1775671349888,4666,5632,5594,-4465424,822224,529009,0,0,0,259,440,237,336,372,379,329,307,271,115,114,196,0,
1,1775671349904,-2211,1115,8858,306654,-58643,58643,0,0,0,329,354,273,372,240,381,531,468,345,400,429,290,0,
2,1775671349904,3220,6637,8064,-5261993,825889,470366,0,0,0,262,442,241,339,375,381,328,307,271,117,116,198,0,
1,1775671349920,-2153,961,9566,316428,-79412,58643,0,0,0,330,352,273,374,232,379,532,448,339,398,419,288,0,
2,1775671349920,3943,5656,9093,-5910732,891863,504574,0,0,0,262,441,240,337,375,379,328,306,268,116,116,197,0,
1,1775671349936,-2100,914,9667,285884,-57421,67195,0,0,0,325,352,272,364,251,380,528,433,341,396,407,295,0,
2,1775671349936,4144,4661,10026,-6191730,1264491,491135,0,0,0,261,440,239,337,375,379,327,307,267,116,116,195,0,
1,1775671349952,-2081,947,9533,251676,-17104,75747,0,0,0,321,347,269,364,271,385,528,430,345,393,396,302,0,
2,1775671349952,3412,4441,11509,-6273586,1611462,564439,0,0,0,259,440,238,338,375,381,329,309,269,117,118,197,0,
1,1775671349968,-2029,938,9605,249233,-3665,76969,0,0,0,322,352,271,373,256,392,527,420,346,388,386,313,0,
2,1775671349968,3101,4335,13093,-6392093,1802052,734260,0,0,0,259,440,238,337,375,381,332,311,272,116,118,198,0,
1,1775671349984,-1966,899,9719,261450,-18325,75747,0,0,0,326,355,279,379,255,405,525,416,350,382,370,327,0,
2,1775671349984,3350,4087,15065,-6543588,1993864,956614,0,0,0,259,441,239,337,374,381,332,311,274,115,117,197,0,
1,1775671350000,-1952,871,9743,279776,-47647,69638,0,0,0,328,359,271,390,261,414,526,408,352,381,361,335,0,
2,1775671350000,3321,4010,17425,-6671870,2210110,1078788,0,0,0,257,441,239,338,373,381,333,310,275,115,116,195,0,
1,1775671350016,-1971,856,9758,304210,-70860,67195,0,0,0,333,361,278,385,251,414,525,391,359,366,349,348,0,
2,1775671350016,3168,3967,20780,-6888116,2414139,1196074,0,0,0,256,441,240,343,377,385,336,313,278,113,116,193,0,
1,1775671350032,-2005,794,9796,337197,-91629,70860,0,0,0,332,361,276,393,258,424,518,371,365,357,331,368,0,
2,1775671350032,3211,3732,24096,-7105584,2522873,1317025,0,0,0,260,443,244,339,375,383,339,314,279,119,119,197,0,
1,1775671350048,-2053,679,9815,366519,-108734,81855,0,0,0,338,362,286,389,258,432,524,356,373,364,309,369,0,
2,1775671350048,3153,3230,28183,-7215540,2619390,1610240,0,0,0,259,441,242,345,376,387,339,310,280,134,142,199,0,
1,1775671350064,-2139,626,9815,395840,-117286,100181,0,0,0,346,370,302,397,267,447,523,338,377,359,302,391,0,
2,1775671350064,2120,1062,32677,-7236309,2747671,2200336,0,0,0,257,440,238,345,374,387,339,298,280,141,153,196,0,
1,1775671350080,-2278,655,9877,444709,-106290,133168,0,0,0,348,387,304,399,282,459,513,312,403,338,289,413,0,
2,1775671350080,397,-5709,35845,-7009067,2797762,2818532,0,0,0,263,442,241,351,375,393,348,298,290,154,131,196,0,
1,1775671350096,-2445,641,10035,546113,-90408,191811,0,0,0,355,391,310,412,287,478,505,287,403,319,258,442,0,
2,1775671350096,392,-17501,36266,-6461732,2287079,3017674,0,0,0,264,441,239,354,375,394,350,300,292,126,115,196,0,
1,1775671350112,-2488,507,10236,681725,-109955,272445,0,0,0,361,399,312,417,303,486,499,262,405,304,233,473,0,
2,1775671350112,4819,-34185,28963,-5321857,1145983,2014633,0,0,0,266,441,238,355,376,395,351,302,294,123,116,199,0,
1,1775671350128,-2502,402,10533,817337,-194255,338419,0,0,0,375,417,296,426,336,487,490,246,403,292,222,498,0,
2,1775671350128,2656,-44354,18564,-3348763,1339016,-507018,0,0,0,267,442,239,355,378,398,352,304,294,122,115,199,0,
1,1775671350144,-2450,358,11155,1012814,-287106,400727,0,0,0,396,424,272,444,359,498,460,235,407,284,208,522,0,
2,1775671350144,-9504,-44575,16013,-1409876,1661553,-2433687,0,0,0,263,439,236,353,377,397,334,315,295,123,123,196,0,
1,1775671350160,-2038,282,11945,1312138,-345749,415388,0,0,0,416,414,259,454,368,520,433,223,426,277,195,542,0,
2,1775671350160,-18176,-38726,18923,186924,266337,-2583959,0,0,0,255,431,230,351,377,392,358,378,286,132,157,189,0,
1,1775671350176,-1789,157,12634,1645670,-432492,384845,0,0,0,432,407,252,460,387,536,425,216,436,268,190,555,0,
2,1775671350176,-8379,-25211,21588,1682322,-2072054,-1412320,0,0,0,247,408,214,345,364,379,407,447,270,178,238,178,0,
1,1775671350192,-2354,95,13366,2067167,-541226,356745,0,0,0,434,397,231,458,392,528,382,206,444,262,175,569,0,
2,1775671350192,4355,1502,18817,3159395,-3800803,-177150,0,0,0,250,384,193,340,346,369,438,473,263,204,283,172,0,
1,1775671350208,-3407,181,14079,2607172,-552222,472809,0,0,0,432,404,209,468,385,524,354,187,440,270,172,578,0,
2,1775671350208,6436,11375,11820,3908315,-3783699,836885,0,0,0,260,382,186,344,342,376,466,484,271,181,265,177,0,
1,1775671350224,-4192,186,14788,3296228,-460592,707381,0,0,0,419,389,212,474,368,535,306,179,444,250,148,573,0,
2,1775671350224,-928,3977,11715,4707327,-2458121,1463633,0,0,0,266,389,194,352,344,390,485,493,290,198,298,182,0,
1,1775671350240,-4675,177,15630,3979176,-300545,970053,0,0,0,422,393,212,459,367,543,259,159,444,230,130,562,0,
2,1775671350240,-7145,-1895,19200,4651127,-990823,637743,0,0,0,262,389,204,357,346,397,497,505,299,232,333,185,0,
1,1775671350256,-5608,330,17573,4791626,-168598,1295034,0,0,0,428,374,212,421,352,524,217,153,426,189,108,516,0,
2,1775671350256,-4412,-105,19904,4084244,-411723,-431270,0,0,0,263,395,215,364,354,396,502,503,292,207,305,189,0,
1,1775671350272,-7312,325,20689,5626068,-119729,1649336,0,0,0,400,371,215,392,358,505,195,150,421,159,95,455,0,
2,1775671350272,2455,2464,16089,3315776,-174707,-816115,0,0,0,278,418,257,376,361,410,523,524,301,211,308,193,0,
1,1775671350288,-9265,224,23728,6475171,-87964,2106263,0,0,0,365,362,202,364,347,452,186,153,390,144,100,380,0,
2,1775671350288,4053,1182,13519,2116037,-144164,-169820,0,0,0,292,438,294,381,371,418,525,525,310,218,304,218,0,
1,1775671350304,-9605,397,25948,7183775,-9773,2574186,0,0,0,321,341,199,341,300,404,192,160,349,135,109,297,0,
2,1775671350304,2144,339,11663,1045801,-246789,254119,0,0,0,300,451,323,389,377,424,531,531,311,221,304,229,0,
1,1775671350320,-8226,1091,27355,7649254,163711,2884505,0,0,0,270,319,205,305,254,357,219,193,306,133,140,215,0,
2,1775671350320,531,593,10547,421497,-349414,227241,0,0,0,317,461,321,408,392,432,541,541,312,228,305,239,0,
1,1775671350336,-8303,3105,26652,7997447,392175,3046995,0,0,0,240,292,210,261,211,298,266,236,276,142,193,145,0,
2,1775671350336,961,914,10471,228463,-362853,63529,0,0,0,333,465,321,414,393,437,547,547,314,235,307,253,0,
1,1775671350352,-10906,6484,21344,8246680,328645,3240029,0,0,0,233,280,220,244,185,277,300,258,271,156,229,118,0,
2,1775671350352,1105,1177,10461,106290,-318871,1221,0,0,0,344,468,325,412,393,440,553,553,315,238,309,261,0,
1,1775671350368,-11825,10949,12696,7706675,-213802,3689626,0,0,0,236,292,228,256,188,292,307,258,278,164,231,127,0,
2,1775671350368,1052,1464,10370,40317,-197920,0,0,0,0,352,470,327,412,394,441,554,554,316,239,309,265,0,
1,1775671350384,-8671,15362,9514,5585751,-434936,3579670,0,0,0,237,296,224,258,187,286,311,257,272,165,223,124,0,
2,1775671350384,1072,1603,10260,37873,-133168,-6108,0,0,0,358,472,328,415,393,441,553,553,317,241,306,272,0,
1,1775671350400,-3335,19143,10399,395840,463035,1409876,0,0,0,233,295,227,249,189,286,307,255,272,165,221,125,0,
2,1775671350400,1062,1670,10212,81855,-103847,-23212,0,0,0,362,474,328,417,394,443,556,555,319,244,299,278,0,
1,1775671350416,-3053,16008,10385,-3534466,1771509,-871093,0,0,0,233,293,224,249,188,286,311,259,271,167,221,127,0,
2,1775671350416,1000,1761,10169,169820,-42760,-35430,0,0,0,369,477,328,418,396,445,557,553,320,282,309,279,0,
1,1775671350432,-6585,9337,8016,-4946786,2389704,-1789835,0,0,0,232,295,226,249,188,286,310,256,270,167,221,127,0,
2,1775671350432,1000,1770,10102,278554,26878,-40317,0,0,0,378,480,331,420,396,446,557,549,323,348,333,276,0,
1,1775671350448,-8935,5355,5412,-4746422,1484402,-1125213,0,0,0,232,295,232,251,187,292,307,252,271,168,219,126,0,
2,1775671350448,1081,1651,10002,351858,67195,-35430,0,0,0,384,484,333,420,396,449,551,540,328,243,277,300,0,
1,1775671350464,-7829,4532,5254,-4693888,270002,-353080,0,0,0,231,295,231,252,187,293,313,256,274,166,223,126,0,
2,1775671350464,1186,1545,9920,383623,64751,-29321,0,0,0,393,485,333,422,399,452,548,530,329,240,266,305,0,
1,1775671350480,-5321,4670,7116,-5104389,-68416,-161268,0,0,0,231,294,233,252,186,292,316,260,275,169,226,128,0,
2,1775671350480,1258,1435,9873,387288,24434,-29321,0,0,0,397,486,331,423,399,455,555,516,340,237,253,314,0,
1,1775671350496,-4484,4374,8901,-5668829,185703,-354301,0,0,0,238,290,238,258,182,294,330,254,275,189,221,129,0,
2,1775671350496,1268,1354,9849,376292,-8552,-39095,0,0,0,407,487,332,426,399,455,548,503,332,239,240,330,0,
1,1775671350512,-5786,3642,9629,-6034126,153938,-638965,0,0,0,241,292,237,261,184,293,329,253,272,194,222,126,0,
2,1775671350512,1292,1320,9834,367740,-46425,-51312,0,0,0,417,491,335,431,402,459,548,488,334,240,234,349,0,
1,1775671350528,-6671,2756,10519,-6278472,-371406,-900415,0,0,0,238,295,238,258,187,296,320,256,272,183,227,128,0,
2,1775671350528,1282,1306,9858,373849,-85521,-61086,0,0,0,424,496,337,440,409,470,552,475,344,242,223,363,0,
1,1775671350544,-6097,2129,11954,-6349333,-1091005,-1159422,0,0,0,234,297,237,256,189,297,317,259,272,174,227,128,0,
2,1775671350544,1201,1258,9897,393397,-103847,-68416,0,0,0,433,502,339,444,413,477,514,446,360,239,208,377,0,
1,1775671350560,-5685,1775,13998,-6427524,-1396437,-1490511,0,0,0,232,299,231,255,191,292,317,259,269,171,226,123,0,
2,1775671350560,1119,1210,9935,419053,-94073,-73303,0,0,0,441,504,340,449,420,484,530,438,363,241,198,398,0,
1,1775671350576,-6250,1340,16166,-6546031,-1598023,-1747074,0,0,0,230,302,232,254,194,292,318,260,271,172,227,123,0,
2,1775671350576,1115,1172,10007,456927,-64751,-70860,0,0,0,445,508,342,447,423,490,550,430,361,282,229,414,0,
1,1775671350592,-6925,713,18401,-6615670,-1892460,-1749518,0,0,0,231,301,232,256,197,292,321,262,271,179,230,123,0,
2,1775671350592,1143,1086,10054,497244,-34208,-69638,0,0,0,454,511,340,450,428,495,549,411,369,273,209,433,0,
1,1775671350608,-7126,-33,21287,-6609561,-2193006,-1648114,0,0,0,238,299,233,257,192,291,326,257,270,184,223,117,0,
2,1775671350608,1201,961,10083,533896,-1221,-74525,0,0,0,465,516,347,460,439,504,546,388,379,245,173,456,0,
1,1775671350624,-7212,-842,24355,-6520375,-2269975,-1651779,0,0,0,242,299,235,261,192,292,329,254,270,194,220,119,0,
2,1775671350624,1277,875,10160,576656,28099,-87964,0,0,0,472,522,352,467,450,511,544,360,387,249,171,475,0,
1,1775671350640,-7992,-2761,27461,-6379876,-2221106,-2004859,0,0,0,241,303,235,266,193,294,332,251,270,197,220,119,0,
2,1775671350640,1354,827,10275,638965,64751,-112399,0,0,0,479,526,342,470,456,513,537,329,392,251,165,492,0,
1,1775671350656,-8480,-6719,30054,-6199060,-2477669,-2537534,0,0,0,243,302,234,271,191,294,334,251,271,202,217,118,0,
2,1775671350656,1502,765,10433,718377,108734,-152716,0,0,0,488,531,348,473,462,517,527,298,386,255,161,516,0,
1,1775671350672,-7355,-14256,31323,-5955936,-2970026,-2880840,0,0,0,238,301,227,264,191,294,331,256,275,187,217,118,0,
2,1775671350672,1785,674,10701,813672,133168,-210137,0,0,0,496,533,353,476,472,516,513,275,387,277,173,542,0,
1,1775671350688,-5465,-23641,29064,-5622403,-3061656,-2767219,0,0,0,235,302,229,267,197,298,331,252,276,188,220,119,0,
2,1775671350688,1675,674,11543,1053131,63529,-273667,0,0,0,502,542,329,481,484,520,478,257,392,304,194,561,0,
1,1775671350704,-2646,-34634,22129,-4879591,-2852740,-1876578,0,0,0,234,300,229,267,198,300,333,251,278,191,218,119,0,
2,1775671350704,1488,650,12184,1402546,-50090,-287106,0,0,0,511,553,320,488,493,526,460,242,398,290,190,581,0,
1,1775671350720,3077,-42847,15764,-3554013,-2692693,-277332,0,0,0,238,299,229,271,194,298,336,252,278,196,219,120,0,
2,1775671350720,1344,526,12514,1798387,-101403,-277332,0,0,0,511,548,298,493,503,533,425,242,412,274,181,584,0,
1,1775671350736,13151,-45943,14113,-1532050,-1578475,1451415,0,0,0,236,292,223,267,192,290,343,273,274,208,246,115,0,
2,1775671350736,1277,373,13050,2238210,-42760,-273667,0,0,0,511,553,277,496,513,542,379,235,406,270,176,591,0,
1,1775671350752,14194,-40468,16324,238237,472809,1756848,0,0,0,239,279,196,267,178,266,392,338,262,240,307,96,0,
2,1775671350752,1698,387,13979,2757445,34208,-307876,0,0,0,515,553,261,494,522,543,334,220,394,274,179,594,0,
1,1775671350768,7776,-21545,18726,2079385,2900388,1273043,0,0,0,241,262,163,272,165,243,448,418,249,276,372,81,0,
2,1775671350768,2301,406,15041,3354871,8552,-399505,0,0,0,519,555,250,487,516,535,305,213,398,276,177,598,0,
1,1775671350784,-4757,10926,15037,3805690,5181358,20769,0,0,0,235,249,155,272,164,248,462,461,255,299,410,83,0,
2,1775671350784,2790,392,16223,4042706,-128281,-541226,0,0,0,525,548,245,481,516,538,281,197,396,271,177,593,0,
1,1775671350800,-2852,10337,12610,4792848,4305378,-608421,0,0,0,238,248,163,278,156,265,472,472,276,333,418,90,0,
2,1775671350800,3589,564,17750,4796513,-256563,-718377,0,0,0,525,542,251,474,510,533,269,173,392,260,170,571,0,
1,1775671350816,4369,-157,18348,5502674,1995085,-405614,0,0,0,242,248,165,288,161,277,477,477,278,370,428,93,0,
2,1775671350816,4900,703,20425,5736024,-388510,-1000597,0,0,0,510,527,258,472,498,530,262,159,391,242,158,519,0,
1,1775671350832,3675,-2421,23196,4740314,304210,652404,0,0,0,256,259,193,296,167,289,489,490,281,390,431,94,0,
2,1775671350832,5833,559,25173,6856351,-496022,-1361007,0,0,0,468,508,248,464,485,517,260,159,382,220,143,449,0,
1,1775671350848,-2914,-588,19243,3306002,-54977,977384,0,0,0,255,277,222,305,183,309,496,497,310,398,436,106,0,
2,1775671350848,6010,1129,29112,7743327,-354301,-1605353,0,0,0,403,485,222,441,458,482,272,169,356,196,130,383,0,
1,1775671350864,-5996,373,11677,1912008,169820,276111,0,0,0,258,276,247,323,192,349,518,518,318,404,449,132,0,
2,1775671350864,5436,2574,31213,8548448,112399,-1794722,0,0,0,335,453,207,403,417,437,291,201,317,165,116,314,0,
1,1775671350880,-3110,-14,9274,1025031,296880,-279776,0,0,0,281,295,267,335,200,356,521,521,350,416,460,180,0,
2,1775671350880,6231,3689,30624,9098226,755029,-2020742,0,0,0,289,432,220,357,382,400,303,250,283,127,105,239,0,
1,1775671350896,-1354,-234,10370,474031,290771,-249233,0,0,0,304,303,274,346,202,361,531,530,357,419,468,203,0,
2,1775671350896,8801,5943,25297,9269269,1589471,-2481334,0,0,0,280,424,236,331,362,381,314,277,279,108,105,197,0,
1,1775671350912,-1828,339,10839,179594,270002,-62308,0,0,0,319,309,280,357,201,360,540,525,342,427,479,211,0,
2,1775671350912,9423,10720,15888,8481252,1624901,-3365867,0,0,0,280,429,238,334,366,389,318,296,283,108,110,196,0,
1,1775671350928,-2134,899,10418,47647,240680,-6108,0,0,0,322,313,274,363,208,359,545,520,337,429,481,220,0,
2,1775671350928,5451,16027,11165,6106208,549778,-3849672,0,0,0,277,430,238,334,366,383,319,297,275,108,110,196,0,
1,1775671350944,-2033,1206,9968,86742,161268,-20769,0,0,0,328,318,273,368,215,362,550,513,338,425,479,235,0,
2,1775671350944,631,21540,10136,1265712,-1142317,-2647489,0,0,0,279,432,234,340,366,385,319,294,267,113,110,196,0,
1,1775671350960,-1928,1177,10083,213802,84299,8552,0,0,0,334,328,277,373,220,372,552,501,345,422,477,253,0,
2,1775671350960,2115,17994,10131,-4015828,-2399478,-304210,0,0,0,279,433,234,338,367,381,321,294,267,112,110,193,0,
1,1775671350976,-1871,1129,10251,309097,23212,40317,0,0,0,337,340,277,376,226,382,546,487,353,418,463,269,0,
2,1775671350976,6106,9533,8657,-6609561,-2651155,956614,0,0,0,272,434,234,338,367,381,324,298,267,112,111,194,0,
1,1775671350992,-1876,1129,10145,375071,-64751,53756,0,0,0,344,342,280,382,227,386,537,475,352,416,440,286,0,
2,1775671350992,8092,4383,5723,-6219829,-1721418,510683,0,0,0,263,437,236,338,370,384,327,302,270,112,111,195,0,
1,1775671351008,-1928,1081,9485,395840,-117286,58643,0,0,0,355,340,284,394,225,390,526,461,352,416,420,301,0,
2,1775671351008,7681,3359,4312,-5591860,-560774,-217468,0,0,0,259,437,234,340,373,386,328,306,271,113,113,196,0,
1,1775671351024,-1981,966,9121,390953,-134390,62308,0,0,0,354,347,283,389,227,393,523,459,356,409,399,314,0,
2,1775671351024,5618,4517,5690,-5588195,326202,-626747,0,0,0,260,437,235,342,374,388,327,307,272,113,115,196,0,
1,1775671351040,-2010,827,9504,384845,-136833,62308,0,0,0,354,348,281,396,243,398,526,441,358,403,389,319,0,
2,1775671351040,3656,4785,8035,-6004805,667064,-477696,0,0,0,261,439,237,342,375,387,329,308,273,112,114,194,0,
1,1775671351056,-2043,713,9672,357967,-118507,62308,0,0,0,359,346,272,401,243,394,518,419,357,406,381,316,0,
2,1775671351056,2713,4431,9437,-6217386,866206,-105068,0,0,0,260,440,237,341,375,387,328,308,271,113,115,195,0,
1,1775671351072,-2081,660,9552,312763,-74525,67195,0,0,0,360,348,270,401,244,391,523,405,357,393,375,319,0,
2,1775671351072,2799,4292,10423,-6258925,1211956,419053,0,0,0,259,439,237,341,373,387,325,306,269,115,116,196,0,
1,1775671351088,-2053,641,9495,262672,-21991,75747,0,0,0,351,351,279,401,250,394,528,399,355,384,367,323,0,
2,1775671351088,2766,4594,11868,-6379876,1616349,878424,0,0,0,258,439,236,339,373,386,330,310,274,114,116,196,0,
1,1775671351104,-1971,626,9581,224798,4886,81855,0,0,0,338,370,277,397,284,398,525,393,359,374,362,329,0,
2,1775671351104,2354,4694,14103,-6615670,1914451,1282817,0,0,0,258,439,237,342,377,390,332,313,277,115,117,196,0,
1,1775671351120,-1914,626,9643,199142,6108,79412,0,0,0,336,376,274,392,295,398,526,394,362,373,358,337,0,
2,1775671351120,2345,4091,16348,-6747617,1962099,1450194,0,0,0,258,439,237,341,374,388,331,310,275,111,115,192,0,
1,1775671351136,-1885,636,9662,186924,1221,70860,0,0,0,348,373,274,394,287,402,528,391,364,378,349,343,0,
2,1775671351136,2656,3531,18884,-6864903,2010968,1414763,0,0,0,259,438,237,340,372,388,331,312,276,111,116,191,0,
1,1775671351152,-1890,607,9724,190589,-7330,64751,0,0,0,351,370,277,399,272,415,529,379,365,375,340,354,0,
2,1775671351152,2943,3139,22273,-7094588,2059837,1219287,0,0,0,258,437,240,346,377,392,337,312,279,115,120,191,0,
1,1775671351168,-1923,564,9801,210137,-24434,67195,0,0,0,345,373,277,403,262,418,526,367,364,369,336,368,0,
2,1775671351168,3230,2541,26575,-7359704,2017077,1150870,0,0,0,262,437,240,343,371,388,337,309,279,142,131,187,0,
1,1775671351184,-1986,545,9830,254119,-37873,87964,0,0,0,354,380,275,400,265,412,520,352,360,363,328,382,0,
2,1775671351184,3627,703,30715,-7459886,1991420,1437976,0,0,0,265,440,242,348,371,388,339,306,278,119,118,190,0,
1,1775671351200,-2072,555,9849,324980,-31764,125838,0,0,0,367,389,284,396,270,427,514,327,364,344,306,402,0,
2,1775671351200,4020,-4919,33342,-7272961,2208888,2144136,0,0,0,260,435,234,352,374,393,346,304,283,116,116,191,0,
1,1775671351216,-2153,555,9949,421497,-15882,173485,0,0,0,372,392,297,401,272,440,509,302,373,332,290,428,0,
2,1775671351216,3981,-13735,34711,-6797708,2503325,2724458,0,0,0,263,435,235,354,375,397,348,305,288,117,113,191,0,
1,1775671351232,-2153,516,10112,546113,-20769,223576,0,0,0,383,398,307,410,295,458,503,275,394,323,266,459,0,
2,1775671351232,3866,-27580,31543,-5678603,2140471,2626720,0,0,0,267,436,237,354,373,398,349,304,291,134,119,192,0,
1,1775671351248,-2096,392,10366,695164,-96516,266337,0,0,0,401,407,298,414,316,476,502,253,405,304,231,479,0,
2,1775671351248,2790,-39884,23665,-4078136,1665218,1657888,0,0,0,266,436,236,354,371,398,350,303,293,131,118,195,0,
1,1775671351264,-2249,339,10739,823446,-191811,295658,0,0,0,398,438,290,430,332,486,487,245,413,299,220,508,0,
2,1775671351264,-3129,-46264,16444,-2086715,1598023,-81855,0,0,0,268,437,238,352,371,396,350,304,293,121,115,197,0,
1,1775671351280,-2512,287,11342,1032362,-219911,348193,0,0,0,415,428,273,451,353,495,465,223,403,382,211,519,0,
2,1775671351280,-9562,-44838,16171,-441044,763581,-1266934,0,0,0,267,436,241,350,372,392,361,339,286,134,151,190,0,
1,1775671351296,-2249,129,12021,1312138,-167377,399505,0,0,0,437,439,260,466,361,498,437,212,404,318,198,551,0,
2,1775671351296,-9255,-38061,18143,1029918,-607200,-1590693,0,0,0,255,421,228,347,371,383,388,414,274,160,216,180,0,
1,1775671351312,-2086,19,13046,1700648,-146607,406836,0,0,0,443,453,250,462,377,508,396,212,415,274,194,559,0,
2,1775671351312,-2105,-10993,21579,2759889,-2258979,-985936,0,0,0,247,393,204,342,357,373,422,466,270,176,248,177,0,
1,1775671351328,-2522,0,13955,2162462,-167377,442266,0,0,0,439,452,237,453,398,520,357,202,431,265,189,568,0,
2,1775671351328,5589,13926,14649,3557679,-3274237,164933,0,0,0,255,373,195,336,337,373,453,479,274,173,260,175,0,
1,1775671351344,-3139,153,14697,2761110,-146607,560774,0,0,0,438,463,235,438,416,524,308,200,434,261,193,568,0,
2,1775671351344,5216,12452,8982,4351803,-3061656,1170417,0,0,0,256,376,182,342,339,375,476,492,276,198,294,177,0,
1,1775671351360,-3828,215,15391,3401297,-24434,756251,0,0,0,436,464,230,421,420,510,244,198,421,241,190,556,0,
2,1775671351360,-3752,-2694,14591,5065294,-1307251,1398881,0,0,0,261,379,196,357,340,390,494,499,281,270,351,181,0,
1,1775671351376,-4747,287,16635,4153883,109955,1027475,0,0,0,427,436,245,403,391,505,200,177,413,199,154,539,0,
2,1775671351376,-7341,-2493,21296,4570493,-101403,167377,0,0,0,262,385,216,351,339,398,490,519,286,312,415,176,0,
1,1775671351392,-6499,406,19286,5060407,255341,1415985,0,0,0,418,412,278,385,355,510,185,158,411,168,121,504,0,
2,1775671351392,-1541,2014,19870,3767816,125838,-878424,0,0,0,266,401,240,367,351,409,515,533,298,296,393,183,0,
1,1775671351408,-8868,-23,22598,5963266,455705,1885130,0,0,0,398,393,261,372,335,480,177,157,394,159,114,431,0,
2,1775671351408,4029,1938,15017,2736676,26878,-553443,0,0,0,286,431,282,374,359,417,533,535,313,274,363,215,0,
1,1775671351424,-10313,-9,25508,6767165,681725,2422691,0,0,0,339,371,219,342,310,425,177,168,352,150,123,345,0,
2,1775671351424,3239,287,12084,1699427,-84299,58643,0,0,0,306,446,298,391,368,428,540,548,307,329,409,232,0,
1,1775671351440,-9538,1239,26972,7402464,834441,2872288,0,0,0,282,340,217,312,262,381,204,185,314,143,135,275,0,
2,1775671351440,871,-339,11232,753807,-167377,249233,0,0,0,331,458,314,403,379,438,547,552,309,329,398,255,0,
1,1775671351456,-8279,3254,27370,7910704,1012814,3177720,0,0,0,241,314,204,274,232,328,253,223,266,148,176,179,0,
2,1775671351456,880,478,10882,304210,-219911,92851,0,0,0,347,464,322,407,384,443,560,559,315,329,396,270,0,
1,1775671351472,-9868,5015,23565,8224689,1291369,3349984,0,0,0,230,285,222,245,186,277,289,243,263,157,208,126,0,
2,1775671351472,1095,1095,10447,134390,-216246,3665,0,0,0,357,468,323,407,386,442,565,563,317,337,402,279,0,
1,1775671351488,-12419,7006,16496,8192924,1329242,3621209,0,0,0,235,292,233,250,188,285,305,260,271,163,222,125,0,
2,1775671351488,1206,1320,10236,87964,-156381,1221,0,0,0,364,471,326,409,388,443,564,563,317,340,402,283,0,
1,1775671351504,-11524,10241,11342,6979746,686612,3751934,0,0,0,232,301,233,248,195,290,300,259,272,169,227,128,0,
2,1775671351504,1215,1407,10208,59864,-140499,7330,0,0,0,371,473,330,413,390,447,557,559,322,342,401,288,0,
1,1775671351520,-6633,15309,9691,3916867,175929,2623055,0,0,0,235,303,230,250,198,289,303,261,275,171,228,126,0,
2,1775671351520,1105,1521,10227,67195,-150272,-6108,0,0,0,376,477,330,412,389,446,549,552,324,347,403,293,0,
1,1775671351536,-2574,17664,9203,-718377,594982,-150272,0,0,0,242,302,226,266,197,288,311,262,270,172,226,126,0,
2,1775671351536,976,1631,10212,152716,-87964,-29321,0,0,0,379,479,331,411,389,446,565,553,316,350,401,293,0,
1,1775671351552,-5393,12447,7145,-3574783,1314581,-2267531,0,0,0,242,302,225,274,198,288,318,264,268,174,226,126,0,
2,1775671351552,952,1636,10174,255341,-4886,-41538,0,0,0,385,480,334,414,391,450,566,548,323,325,370,297,0,
1,1775671351568,-8963,6738,4824,-4530176,1022588,-2646268,0,0,0,241,305,227,272,201,289,317,270,267,172,235,124,0,
2,1775671351568,985,1531,10045,331088,65973,-41538,0,0,0,386,480,332,414,390,449,566,548,331,266,307,312,0,
1,1775671351584,-8848,4264,3780,-4368908,-144164,-1640784,0,0,0,234,308,230,262,203,290,309,272,267,192,237,133,0,
2,1775671351584,1076,1459,9911,353080,89186,-31764,0,0,0,393,481,332,414,390,449,563,538,332,239,257,323,0,
1,1775671351600,-6087,4331,4594,-4323704,-690277,-796568,0,0,0,224,308,230,250,203,292,306,271,271,202,229,141,0,
2,1775671351600,1143,1392,9834,370184,85521,-28099,0,0,0,398,483,331,423,394,454,555,521,331,234,242,326,0,
1,1775671351616,-4560,4364,6082,-4569271,-634078,-389732,0,0,0,224,308,230,250,206,294,309,272,274,166,233,126,0,
2,1775671351616,1167,1277,9786,370184,72082,-36651,0,0,0,402,484,331,425,398,459,560,518,339,240,239,347,0,
1,1775671351632,-5029,4264,7690,-5149593,-569326,-425162,0,0,0,233,307,231,254,205,296,311,271,272,169,238,126,0,
2,1775671351632,1206,1196,9758,350636,59864,-47647,0,0,0,407,483,329,429,398,461,558,513,342,275,273,352,0,
1,1775671351648,-5412,3986,9413,-5776341,-812450,-602313,0,0,0,242,303,228,260,204,292,317,272,272,175,237,123,0,
2,1775671351648,1282,1167,9777,323758,30543,-54977,0,0,0,416,485,329,430,398,463,557,500,340,257,244,362,0,
1,1775671351664,-5307,3340,11040,-6180734,-1183856,-912632,0,0,0,225,308,231,252,205,294,312,273,274,166,238,123,0,
2,1775671351664,1316,1134,9820,298102,-24434,-59864,0,0,0,420,487,331,436,400,469,558,492,343,244,224,374,0,
1,1775671351680,-5321,2368,12596,-6342002,-1502728,-1339016,0,0,0,229,309,232,249,203,291,309,273,271,170,244,130,0,
2,1775671351680,1273,1086,9834,277332,-69638,-63529,0,0,0,428,489,330,443,404,477,556,481,347,245,220,385,0,
1,1775671351696,-5695,1392,14400,-6420193,-1799608,-1727526,0,0,0,229,309,235,250,204,291,308,270,271,166,239,124,0,
2,1775671351696,1201,1048,9853,261450,-86742,-65973,0,0,0,436,494,330,447,409,481,555,475,350,247,217,396,0,
1,1775671351712,-6235,631,16630,-6459289,-2061059,-1953547,0,0,0,229,309,241,251,203,299,306,269,275,162,234,131,0,
2,1775671351712,1172,1038,9892,261450,-84299,-68416,0,0,0,440,498,331,448,413,485,557,469,355,247,210,408,0,
1,1775671351728,-6719,-105,19463,-6520375,-2321287,-1998751,0,0,0,225,309,239,238,235,288,311,280,272,162,248,126,0,
2,1775671351728,1167,1038,9978,287106,-69638,-72082,0,0,0,444,501,335,447,416,493,556,458,363,249,202,425,0,
1,1775671351744,-6963,-1067,22574,-6566801,-2515543,-2002416,0,0,0,223,304,244,244,212,298,308,274,276,160,242,131,0,
2,1775671351744,1177,1005,10050,332310,-51312,-74525,0,0,0,456,509,341,458,425,503,557,444,373,256,201,447,0,
1,1775671351760,-7351,-2459,25829,-6470284,-2514321,-2221106,0,0,0,235,304,241,257,195,294,322,264,272,180,228,125,0,
2,1775671351760,1191,957,10093,388510,-30543,-81855,0,0,0,466,514,343,471,433,507,554,427,369,255,190,463,0,
1,1775671351776,-8102,-4824,28987,-6254038,-2619390,-2722015,0,0,0,243,304,236,263,194,287,334,259,268,195,221,120,0,
2,1775671351776,1244,894,10131,447153,-3665,-95294,0,0,0,470,518,342,465,440,506,551,414,368,267,186,480,0,
1,1775671351792,-8245,-8777,31897,-6085439,-2977357,-3178942,0,0,0,237,304,234,262,197,288,330,259,269,183,221,119,0,
2,1775671351792,1373,842,10222,516791,20769,-119729,0,0,0,479,524,343,471,453,514,553,385,377,332,201,492,0,
1,1775671351808,-6944,-15668,33022,-6029239,-3290120,-3295007,0,0,0,229,306,233,261,198,293,327,260,274,176,220,117,0,
2,1775671351808,1502,818,10413,615752,41538,-150272,0,0,0,485,527,348,482,464,520,543,347,384,270,178,517,0,
1,1775671351824,-4594,-26848,27508,-5743354,-3056769,-2678033,0,0,0,229,308,235,263,198,297,332,260,278,184,220,120,0,
2,1775671351824,1670,794,10763,751364,75747,-190589,0,0,0,494,535,344,479,474,519,525,306,387,273,176,548,0,
1,1775671351840,-1497,-37118,20157,-4915021,-2846632,-1424537,0,0,0,232,309,233,267,201,298,333,262,279,188,223,119,0,
2,1775671351840,1789,703,11246,905302,122173,-240680,0,0,0,499,536,339,491,487,531,498,265,389,291,192,565,0,
1,1775671351856,7197,-45369,14472,-3165503,-2559525,684169,0,0,0,233,310,231,268,202,296,333,263,276,189,226,118,0,
2,1775671351856,1584,612,11878,1189965,119729,-290771,0,0,0,506,545,327,490,493,530,454,253,394,275,180,577,0,
1,1775671351872,15812,-44723,15238,-1221730,-1017701,1841147,0,0,0,233,309,231,269,202,298,332,264,273,185,226,120,0,
2,1775671351872,1354,574,12557,1563815,140499,-311541,0,0,0,508,551,298,493,504,534,429,240,395,268,183,584,0,
1,1775671351888,14725,-38640,16640,656069,1350012,1986533,0,0,0,233,308,235,263,200,297,331,267,273,185,231,120,0,
2,1775671351888,1622,492,13524,2062281,218689,-324980,0,0,0,515,554,277,493,514,534,399,229,401,268,187,592,0,
1,1775671351904,3445,-26872,17276,2190562,2990796,1535715,0,0,0,233,291,246,266,192,313,372,329,282,236,306,121,0,
2,1775671351904,2359,411,14381,2696359,205250,-421497,0,0,0,457,512,335,491,523,535,357,220,400,270,186,601,0,
1,1775671351920,-6771,6479,18281,2894279,3224146,747699,0,0,0,238,271,182,267,177,261,430,402,263,268,360,93,0,
2,1775671351920,2517,397,14840,3304780,79412,-553443,0,0,0,450,501,333,487,528,539,317,206,397,276,184,606,0,
1,1775671351936,-10457,31198,13452,2533869,3632204,-704938,0,0,0,247,262,160,273,170,243,454,448,255,284,397,81,0,
2,1775671351936,2636,397,15726,3991393,-62308,-674395,0,0,0,521,543,245,484,521,541,292,188,396,277,181,601,0,
1,1775671351952,-2010,14099,7934,3232698,3809355,-1530828,0,0,0,247,260,154,281,171,252,463,463,263,315,411,79,0,
2,1775671351952,3622,555,17281,4723210,-146607,-823446,0,0,0,514,535,241,487,507,542,278,166,387,269,171,588,0,
1,1775671351968,6312,-3105,12644,4569271,2863736,-977384,0,0,0,246,261,149,292,172,258,472,472,270,346,419,82,0,
2,1775671351968,5259,722,19856,5629734,-227241,-1115439,0,0,0,505,519,249,481,488,534,271,155,389,249,154,542,0,
1,1775671351984,6326,-4345,20588,4624249,1275486,425162,0,0,0,256,269,163,308,174,264,487,487,270,373,430,85,0,
2,1775671351984,5671,636,23857,6638883,-270002,-1457524,0,0,0,473,499,246,469,471,519,267,156,391,224,140,454,0,
1,1775671352000,-1971,756,20234,3419623,551000,949284,0,0,0,265,281,200,317,185,288,502,502,284,388,438,97,0,
2,1775671352000,5144,1172,27566,7505090,-81855,-1661553,0,0,0,401,472,216,447,450,496,271,161,379,204,134,385,0,
1,1775671352016,-5537,588,15941,2068389,313984,311541,0,0,0,263,287,235,324,201,328,514,514,307,394,447,126,0,
2,1775671352016,4230,2330,29916,8266228,419053,-1745852,0,0,0,345,448,204,406,416,450,291,179,333,179,120,341,0,
1,1775671352032,-2287,-617,12136,1086118,144164,-249233,0,0,0,270,289,249,340,211,360,527,526,322,400,459,172,0,
2,1775671352032,4790,2919,29786,8732929,1056796,-1892460,0,0,0,281,427,216,354,384,402,300,242,284,136,120,245,0,
1,1775671352048,-938,23,10246,551000,-103847,-248011,0,0,0,300,297,264,354,209,374,539,532,337,402,460,221,0,
2,1775671352048,6743,4551,26125,8919854,1788613,-2224771,0,0,0,270,420,232,331,361,383,315,274,283,180,136,196,0,
1,1775671352064,-1995,823,9959,486248,-173485,-72082,0,0,0,313,303,281,356,205,398,551,525,346,405,461,254,0,
2,1775671352064,7901,9265,16788,8597317,2081828,-2926044,0,0,0,274,426,237,330,364,391,318,295,289,112,116,198,0,
1,1775671352080,-2636,789,9901,438601,-65973,-3665,0,0,0,317,314,269,363,221,393,552,512,346,400,455,285,0,
2,1775671352080,4613,14319,12553,6747617,618195,-3584557,0,0,0,270,428,234,335,367,394,316,295,277,108,118,194,0,
1,1775671352096,-2325,579,9901,334754,57421,0,0,0,0,325,317,285,363,215,387,564,495,347,389,444,294,0,
2,1775671352096,1320,19999,10543,2734232,-1259604,-3174055,0,0,0,269,430,231,339,368,388,321,295,272,113,119,194,0,
1,1775671352112,-2019,693,9432,237015,84299,17104,0,0,0,322,329,278,369,237,412,555,478,371,402,442,326,0,
2,1775671352112,1895,18798,9518,-2871066,-2388483,-1538158,0,0,0,271,431,231,336,369,383,321,295,268,117,122,195,0,
1,1775671352128,-2024,880,9538,228463,54977,41538,0,0,0,326,335,288,374,233,415,556,455,377,402,435,334,0,
2,1775671352128,3589,11964,8872,-6108652,-2626720,-377514,0,0,0,274,434,234,340,370,383,326,297,269,120,124,195,0,
1,1775671352144,-2043,990,10179,359188,-43982,52534,0,0,0,324,341,283,382,250,415,553,439,371,390,410,346,0,
2,1775671352144,4824,5441,7542,-6552140,-2531425,-128281,0,0,0,273,437,237,342,370,383,332,299,269,121,126,194,0,
1,1775671352160,-2019,923,10279,496022,-161268,59864,0,0,0,327,341,276,385,243,412,550,427,376,381,379,354,0,
2,1775671352160,6604,3551,5431,-5919284,-2265088,-353080,0,0,0,268,437,236,342,370,384,334,301,270,121,126,194,0,
1,1775671352176,-2072,732,9901,529009,-215024,70860,0,0,0,328,338,271,388,240,415,547,398,368,368,352,356,0,
2,1775671352176,8336,4039,4910,-5793445,-1552819,-488692,0,0,0,266,435,233,343,372,385,334,303,272,121,127,196,0,
1,1775671352192,-2182,555,9557,486248,-190589,83077,0,0,0,328,334,267,394,243,419,547,381,366,361,335,365,0,
2,1775671352192,8379,4426,6537,-6190508,-596204,-367740,0,0,0,267,436,233,343,372,385,333,304,272,121,131,195,0,
1,1775671352208,-2239,459,9466,437379,-144164,91629,0,0,0,328,332,265,396,243,419,548,372,368,357,326,375,0,
2,1775671352208,7264,3670,8796,-6554584,107512,128281,0,0,0,268,438,235,343,373,387,330,307,272,120,129,194,0,
1,1775671352224,-2244,435,9518,397062,-105068,96516,0,0,0,329,334,265,395,241,422,546,357,369,354,317,384,0,
2,1775671352224,7159,2761,9987,-6673091,486248,712268,0,0,0,266,438,235,343,373,389,332,307,275,117,129,194,0,
1,1775671352240,-2239,402,9585,361632,-68416,106290,0,0,0,331,337,267,399,245,433,543,339,374,349,307,392,0,
2,1775671352240,7753,2215,10887,-6669426,913854,1240056,0,0,0,269,440,240,346,375,390,332,307,275,120,129,195,0,
1,1775671352256,-2201,363,9652,338419,-34208,117286,0,0,0,336,340,266,403,252,442,537,324,380,339,296,398,0,
2,1775671352256,7968,1947,12376,-6659652,1374446,1624901,0,0,0,270,440,242,340,371,387,332,307,279,123,133,198,0,
1,1775671352272,-2105,325,9686,322536,-19547,119729,0,0,0,334,338,262,408,262,443,535,315,384,341,283,410,0,
2,1775671352272,7944,1713,14654,-6666983,1734857,1791056,0,0,0,265,438,240,342,372,388,331,307,278,126,134,197,0,
1,1775671352288,-2029,277,9724,307876,-28099,114842,0,0,0,336,344,261,408,269,445,539,304,384,344,279,417,0,
2,1775671352288,7901,1378,17429,-6725626,1993864,1665218,0,0,0,263,438,240,346,375,390,335,311,279,122,132,195,0,
1,1775671352304,-2024,239,9796,305432,-56199,109955,0,0,0,345,350,265,422,260,440,534,290,378,337,265,422,0,
2,1775671352304,7633,1191,20368,-6807482,2184454,1418429,0,0,0,261,436,237,344,372,388,339,312,282,123,132,197,0,
1,1775671352320,-2096,196,9834,327423,-102625,119729,0,0,0,343,348,261,414,261,449,534,283,384,320,258,443,0,
2,1775671352320,7398,1158,23900,-6875899,2313957,1161865,0,0,0,262,436,237,346,373,390,340,311,281,123,134,196,0,
1,1775671352336,-2196,148,9825,360410,-139277,142942,0,0,0,349,349,262,412,268,452,534,270,392,310,234,452,0,
2,1775671352336,7781,492,28375,-6866125,2517986,1127657,0,0,0,264,436,239,347,373,392,340,307,280,125,133,196,0,
1,1775671352352,-2325,81,9853,399505,-164933,177150,0,0,0,347,357,263,415,269,464,534,258,407,304,216,470,0,
2,1775671352352,8370,-2134,31849,-6805038,2790432,1286482,0,0,0,264,436,239,348,373,393,342,305,286,125,129,196,0,
1,1775671352368,-2498,43,10007,452040,-193033,223576,0,0,0,350,378,251,430,296,470,531,249,413,294,209,483,0,
2,1775671352368,7307,-10117,32505,-6502049,3326772,1545489,0,0,0,265,436,239,350,373,396,344,303,293,124,128,197,0,
1,1775671352384,-2632,33,10327,571769,-201585,288328,0,0,0,360,398,252,434,343,492,509,242,428,284,204,508,0,
2,1775671352384,3024,-20349,31557,-5772676,3764151,1583362,0,0,0,269,439,240,352,375,399,345,301,294,126,130,199,0,
1,1775671352400,-2608,19,10710,768468,-178372,354301,0,0,0,364,411,248,440,366,502,506,231,432,274,197,534,0,
2,1775671352400,-3972,-32419,27317,-4245513,3169168,1117883,0,0,0,273,439,240,352,376,399,347,302,295,129,130,201,0,
1,1775671352416,-2321,0,11194,990823,-169820,387288,0,0,0,372,409,246,448,353,501,488,217,419,279,185,552,0,
2,1775671352416,-8389,-40263,21344,-2682920,2040289,270002,0,0,0,273,435,237,354,375,401,351,305,299,129,130,200,0,
1,1775671352432,-2105,-105,11768,1247386,-238237,381179,0,0,0,379,409,243,457,359,512,458,214,418,279,181,563,0,
2,1775671352432,-9887,-43814,16439,-1156978,841772,-901637,0,0,0,271,433,236,355,374,400,358,318,296,131,133,197,0,
1,1775671352448,-2024,-248,12194,1549154,-338419,356745,0,0,0,378,407,227,475,359,524,440,214,425,272,177,572,0,
2,1775671352448,-11442,-39291,17721,415388,-7330,-1639562,0,0,0,259,419,230,351,373,392,388,417,279,139,184,181,0,
1,1775671352464,-2359,-363,12457,1903456,-417831,340862,0,0,0,383,402,210,486,349,526,412,202,434,265,163,579,0,
2,1775671352464,-12237,-19033,22407,2183232,-1720196,-1136209,0,0,0,252,382,200,344,348,368,423,471,260,194,262,173,0,
1,1775671352480,-3149,-473,12931,2359161,-460592,439822,0,0,0,400,411,207,471,375,534,363,187,458,244,156,577,0,
2,1775671352480,-2522,11572,17597,3562566,-4116009,547335,0,0,0,256,370,184,336,336,368,461,478,268,176,258,182,0,
1,1775671352496,-3555,-593,13740,2897944,-485026,619417,0,0,0,405,415,214,458,376,541,333,185,465,238,150,575,0,
2,1775671352496,2378,11864,9303,4398229,-3802025,1538158,0,0,0,260,370,183,341,333,375,467,499,275,198,324,173,0,
1,1775671352512,-3943,-579,14840,3533244,-471587,819781,0,0,0,411,420,202,465,394,528,277,175,459,236,131,568,0,
2,1775671352512,-3216,167,13290,5119050,-1794722,1303586,0,0,0,261,377,193,353,340,391,493,506,284,224,354,178,0,
1,1775671352528,-4685,-392,16472,4254065,-467922,1061683,0,0,0,403,394,205,447,383,529,239,154,459,191,112,548,0,
2,1775671352528,-6154,-2215,20837,4798957,-384845,94073,0,0,0,265,385,212,366,347,402,510,511,296,216,345,187,0,
1,1775671352544,-5963,-335,19133,5048190,-541226,1352455,0,0,0,400,359,208,415,355,522,207,138,448,162,97,507,0,
2,1775671352544,-1062,732,21517,3839898,-31764,-756251,0,0,0,267,399,239,370,353,410,518,517,309,219,342,193,0,
1,1775671352560,-7968,-411,22991,6042678,-701273,1753183,0,0,0,406,359,184,398,334,467,207,139,411,155,97,429,0,
2,1775671352560,4283,1832,16420,2590068,-149051,-478918,0,0,0,278,421,275,378,366,419,531,530,313,228,344,213,0,
1,1775671352576,-9298,-354,26350,6936985,-751364,2188119,0,0,0,331,342,186,370,310,446,182,146,379,134,97,338,0,
2,1775671352576,3120,851,11988,1477072,-186924,100181,0,0,0,298,442,298,396,379,431,545,545,315,272,371,231,0,
1,1775671352592,-9112,-378,28552,7538077,-671951,2592512,0,0,0,293,319,190,325,262,386,207,171,330,127,112,250,0,
2,1775671352592,1311,358,10318,745255,-235793,277332,0,0,0,318,453,307,411,388,438,553,554,313,308,394,244,0,
1,1775671352608,-8834,1258,29140,7937582,-649960,2927266,0,0,0,249,293,185,284,219,319,260,217,285,137,167,152,0,
2,1775671352608,1009,564,10447,334754,-334754,138055,0,0,0,339,460,315,413,390,438,530,541,322,313,392,257,0,
1,1775671352624,-10375,5580,24757,8164824,-955393,3238807,0,0,0,243,277,200,266,190,289,295,237,281,154,211,119,0,
2,1775671352624,1229,1028,10457,100181,-415388,21991,0,0,0,355,468,324,413,390,437,517,533,333,316,391,267,0,
1,1775671352640,-10882,10806,16601,7960795,-1387885,3683517,0,0,0,242,279,216,266,184,290,308,246,284,193,217,133,0,
2,1775671352640,1038,1411,10279,12217,-375071,-2443,0,0,0,364,472,329,418,396,444,564,565,311,327,398,273,0,
1,1775671352656,-7647,14788,10662,6444628,-1299921,3927863,0,0,0,235,285,223,266,188,295,309,251,281,191,217,135,0,
2,1775671352656,928,1584,10284,36651,-222354,-4886,0,0,0,373,478,333,420,401,448,566,568,311,346,410,273,0,
1,1775671352672,-2976,18248,10528,2283414,50090,2409252,0,0,0,230,289,224,259,191,297,305,251,282,158,222,125,0,
2,1775671352672,985,1646,10256,106290,-123394,-17104,0,0,0,376,478,333,421,398,450,565,564,316,327,392,279,0,
1,1775671352688,-2340,17592,10782,-2291966,1543045,74525,0,0,0,226,295,222,254,192,298,306,253,287,157,223,127,0,
2,1775671352688,1000,1679,10184,206472,-67195,-28099,0,0,0,381,478,333,418,395,449,561,553,319,319,380,291,0,
1,1775671352704,-5431,11758,9078,-4849048,2150245,-1409876,0,0,0,228,299,221,251,190,296,308,255,289,158,225,129,0,
2,1775671352704,957,1679,10136,305432,0,-25656,0,0,0,387,480,330,421,397,452,567,547,326,303,356,295,0,
1,1775671352720,-7126,6929,6369,-4952895,1558928,-1060462,0,0,0,228,296,220,251,192,295,306,254,288,162,229,128,0,
2,1775671352720,1019,1617,10088,388510,62308,-17104,0,0,0,396,482,332,421,397,451,558,539,328,259,302,314,0,
1,1775671352736,-6412,5628,5594,-4915021,827111,-398284,0,0,0,230,296,217,250,207,291,308,254,278,161,228,120,0,
2,1775671352736,1148,1483,9968,430049,67195,-8552,0,0,0,405,483,329,421,397,451,557,527,330,245,275,321,0,
1,1775671352752,-5087,5312,6264,-5133711,327423,15882,0,0,0,228,298,221,242,217,284,315,260,286,164,234,125,0,
2,1775671352752,1239,1349,9853,439822,35430,-8552,0,0,0,416,486,333,425,401,456,558,516,335,244,257,339,0,
1,1775671352768,-4211,4924,7781,-5585751,186924,8552,0,0,0,231,301,224,254,193,292,311,257,282,166,237,125,0,
2,1775671352768,1273,1244,9815,415388,-12217,-23212,0,0,0,421,487,335,431,402,458,556,503,335,241,232,354,0,
1,1775671352784,-4508,4197,9155,-6023131,133168,-262672,0,0,0,230,298,231,254,189,302,312,253,288,166,230,131,0,
2,1775671352784,1244,1206,9839,384845,-51312,-39095,0,0,0,427,491,337,436,405,465,553,489,336,240,217,367,0,
1,1775671352800,-5178,3436,10361,-6359107,-79412,-574213,0,0,0,228,302,224,253,190,294,313,257,282,161,231,120,0,
2,1775671352800,1186,1191,9873,371406,-75747,-52534,0,0,0,434,495,337,443,410,475,552,477,341,241,208,381,0,
1,1775671352816,-5685,2727,11696,-6598566,-476474,-897971,0,0,0,227,299,219,254,196,288,313,257,279,164,236,119,0,
2,1775671352816,1105,1148,9892,376292,-69638,-58643,0,0,0,440,499,343,444,413,480,551,462,346,238,199,393,0,
1,1775671352832,-5972,1990,13424,-6718295,-849102,-1188743,0,0,0,228,300,220,255,192,288,312,258,278,164,236,119,0,
2,1775671352832,1057,1105,9920,388510,-50090,-57421,0,0,0,447,503,349,443,416,483,545,442,347,236,190,406,0,
1,1775671352848,-6412,1268,15472,-6768386,-1188743,-1435533,0,0,0,225,301,219,259,199,293,312,259,280,165,238,121,0,
2,1775671352848,1086,1081,9968,412944,-30543,-52534,0,0,0,456,506,341,449,425,493,539,424,352,241,180,425,0,
1,1775671352864,-7006,698,18296,-6827029,-1536936,-1623679,0,0,0,226,300,220,259,198,294,312,257,284,165,235,122,0,
2,1775671352864,1134,1019,10045,456927,-18325,-51312,0,0,0,463,512,347,450,427,497,540,402,355,244,177,445,0,
1,1775671352880,-7623,153,21287,-6913772,-1767844,-1780061,0,0,0,230,300,223,256,190,292,315,258,288,167,232,121,0,
2,1775671352880,1177,923,10088,497244,-3665,-56199,0,0,0,480,519,358,458,436,503,539,385,366,245,171,459,0,
1,1775671352896,-8585,-713,24599,-6958976,-1879021,-1965764,0,0,0,232,301,224,257,189,292,316,258,288,169,231,120,0,
2,1775671352896,1253,799,10112,542448,23212,-78190,0,0,0,483,524,351,467,448,508,536,362,371,257,172,483,0,
1,1775671352912,-10131,-2924,28399,-6882007,-1913229,-2256536,0,0,0,231,301,224,261,192,295,313,255,284,167,230,119,0,
2,1775671352912,1335,732,10150,585208,56199,-107512,0,0,0,491,527,346,478,464,518,531,338,376,259,170,504,0,
1,1775671352928,-11241,-7255,31007,-6764721,-2200336,-2574186,0,0,0,231,303,226,261,195,297,314,254,286,168,233,119,0,
2,1775671352928,1435,689,10294,636521,91629,-145385,0,0,0,492,534,354,485,467,525,520,307,376,262,170,521,0,
1,1775671352944,-9461,-15482,31921,-6524040,-2995683,-2649933,0,0,0,230,304,226,259,195,300,320,254,292,176,237,121,0,
2,1775671352944,1569,612,10624,728151,91629,-186924,0,0,0,500,540,347,492,486,535,507,281,386,271,176,546,0,
1,1775671352960,-5331,-26192,29571,-5965709,-3295007,-2366491,0,0,0,230,300,225,265,196,304,326,256,298,182,236,124,0,
2,1775671352960,1598,569,11146,893084,52534,-226020,0,0,0,505,541,333,488,487,531,485,257,388,282,182,565,0,
1,1775671352976,-325,-37315,22947,-4893030,-2831971,-1609019,0,0,0,232,302,224,271,197,308,322,252,292,185,232,123,0,
2,1775671352976,1502,588,11897,1205847,25656,-254119,0,0,0,514,545,319,491,493,534,459,238,393,278,181,580,0,
1,1775671352992,6331,-46379,15984,-3105638,-1941329,-98960,0,0,0,235,302,228,266,197,304,325,255,297,184,233,125,0,
2,1775671352992,1234,607,12586,1587027,64751,-261450,0,0,0,513,549,301,494,500,542,434,234,399,273,179,588,0,
1,1775671353008,12787,-49695,13754,-1142317,-670730,1351233,0,0,0,235,286,219,260,186,288,349,291,290,208,280,115,0,
2,1775671353008,1067,488,13184,2043955,147829,-241902,0,0,0,511,553,280,503,514,545,395,232,397,271,178,595,0,
1,1775671353024,12950,-38621,18248,1083674,1474628,1550375,0,0,0,239,265,178,273,174,255,411,360,260,260,341,93,0,
2,1775671353024,1698,402,13988,2566855,144164,-246789,0,0,0,515,558,263,503,522,545,343,223,393,272,181,602,0,
1,1775671353040,3704,-10677,18951,3224146,3975510,559552,0,0,0,243,252,151,277,164,242,447,420,254,292,381,83,0,
2,1775671353040,2569,411,15070,3197268,9773,-333532,0,0,0,520,560,255,488,518,545,299,212,397,274,188,606,0,
1,1775671353056,-6025,12955,13692,4604702,5026199,-807563,0,0,0,241,248,140,279,164,240,463,456,259,318,408,79,0,
2,1775671353056,3278,358,16204,3852116,-200363,-491135,0,0,0,525,555,255,483,519,541,275,197,395,274,188,603,0,
1,1775671353072,-1325,7408,13811,5528330,3136182,-1367116,0,0,0,246,246,144,287,164,259,472,472,285,349,422,86,0,
2,1775671353072,4225,512,17578,4602258,-410501,-730594,0,0,0,526,543,260,478,512,537,262,172,387,262,171,575,0,
1,1775671353088,6661,-1789,20023,5740911,842994,-811229,0,0,0,253,254,160,297,168,278,483,483,294,374,427,92,0,
2,1775671353088,5049,689,19856,5490456,-603534,-1060462,0,0,0,514,528,253,470,499,525,258,156,389,238,150,520,0,
1,1775671353104,5565,-3263,24512,4564385,-360410,807563,0,0,0,257,271,192,306,181,297,494,494,292,392,433,100,0,
2,1775671353104,5130,631,23967,6527705,-740368,-1391551,0,0,0,477,507,247,469,493,518,266,155,392,211,136,451,0,
1,1775671353120,-4455,-689,18315,2668259,-157603,935845,0,0,0,261,283,231,321,199,334,504,504,311,407,443,126,0,
2,1775671353120,5766,1148,28154,7451334,-561996,-1567480,0,0,0,391,485,214,445,467,487,275,168,358,198,134,382,0,
1,1775671353136,-6073,-129,11509,1262047,31764,2443,0,0,0,264,294,250,337,215,362,519,517,319,408,458,158,0,
2,1775671353136,6503,1995,30117,8207585,-29321,-1771509,0,0,0,341,459,207,399,427,438,297,192,329,172,122,332,0,
1,1775671353152,-2211,-167,9404,596204,76969,-345749,0,0,0,284,308,264,354,215,377,530,518,341,411,465,205,0,
2,1775671353152,7351,2790,30433,8754920,878424,-2145358,0,0,0,277,431,223,351,382,393,305,259,284,130,120,228,0,
1,1775671353168,-1129,153,10035,322536,68416,-155159,0,0,0,299,310,257,365,222,368,545,507,350,403,470,233,0,
2,1775671353168,8600,5111,27159,9028588,1679879,-2696359,0,0,0,273,431,237,338,369,388,310,273,283,110,105,202,0,
1,1775671353184,-2033,732,10452,276111,58643,19547,0,0,0,306,311,268,372,225,385,549,502,350,423,462,265,0,
2,1775671353184,8973,9700,18171,8598539,1382998,-3440393,0,0,0,275,432,240,336,368,393,316,292,288,107,110,200,0,
1,1775671353200,-2354,957,10208,300545,74525,51312,0,0,0,319,331,263,373,228,389,552,487,352,418,470,290,0,
2,1775671353200,6360,13658,13074,6577796,-406836,-3931528,0,0,0,271,432,237,336,369,393,315,296,280,107,109,198,0,
1,1775671353216,-1952,823,9959,322536,42760,20769,0,0,0,317,339,256,373,253,394,556,476,350,412,444,315,0,
2,1775671353216,4125,18143,10078,2781880,-1721418,-3298672,0,0,0,269,433,236,337,370,392,313,294,268,108,109,195,0,
1,1775671353232,-1880,837,9940,324980,-23212,26878,0,0,0,322,338,264,380,258,403,554,455,355,414,423,333,0,
2,1775671353232,4283,17717,8226,-2274862,-1694540,-1514945,0,0,0,267,434,233,339,371,392,315,295,266,110,110,196,0,
1,1775671353248,-2053,985,8911,304210,-12217,68416,0,0,0,325,337,262,387,257,406,551,442,353,406,407,345,0,
2,1775671353248,4819,12141,7523,-5374392,-1145983,-81855,0,0,0,263,435,232,341,373,392,319,298,269,110,110,196,0,
1,1775671353264,-2014,947,9145,372627,-47647,85521,0,0,0,331,341,262,392,253,410,548,422,352,403,389,363,0,
2,1775671353264,5034,6542,6518,-5787337,-812450,366519,0,0,0,260,438,235,339,373,391,319,300,271,109,110,194,0,
1,1775671353280,-1966,808,9897,463035,-129503,81855,0,0,0,335,346,264,393,263,416,544,402,355,402,368,377,0,
2,1775671353280,5637,4379,4752,-5242445,-605978,171042,0,0,0,259,440,236,337,372,389,320,302,270,111,113,195,0,
1,1775671353296,-2077,631,9949,481361,-157603,73303,0,0,0,334,347,263,392,267,419,539,387,361,392,349,382,0,
2,1775671353296,6192,4058,4450,-5054298,-168598,-65973,0,0,0,260,439,235,339,377,391,319,303,268,112,115,193,0,
1,1775671353312,-2191,512,9609,443488,-109955,74525,0,0,0,334,349,263,394,252,419,534,375,366,375,335,387,0,
2,1775671353312,5881,4249,5800,-5202128,544891,-212581,0,0,0,259,439,236,338,386,391,320,303,270,115,118,195,0,
1,1775671353328,-2182,454,9471,395840,-32986,86742,0,0,0,334,358,265,396,256,423,533,362,365,363,318,396,0,
2,1775671353328,4465,4848,8145,-5584530,1061683,-35430,0,0,0,258,439,234,340,372,392,308,298,268,111,114,191,0,
1,1775671353344,-2072,425,9624,378736,-7330,97738,0,0,0,339,361,264,400,252,430,525,336,364,355,306,406,0,
2,1775671353344,3972,5173,9964,-6007248,1268156,375071,0,0,0,260,440,236,342,375,393,323,305,270,111,117,191,0,
1,1775671353360,-2005,411,9739,368962,-2443,103847,0,0,0,342,356,268,407,260,437,523,324,365,347,292,416,0,
2,1775671353360,4556,4838,11189,-6337115,1541823,799011,0,0,0,258,439,236,343,378,396,324,307,270,111,118,192,0,
1,1775671353376,-2038,392,9777,370184,-13439,108734,0,0,0,349,361,268,408,263,437,522,311,369,346,290,418,0,
2,1775671353376,4589,4450,12854,-6575353,1936442,1133765,0,0,0,255,438,234,341,374,393,325,307,272,112,116,193,0,
1,1775671353392,-2038,344,9777,387288,-29321,118507,0,0,0,360,362,267,412,264,442,521,297,379,349,276,442,0,
2,1775671353392,3948,4144,15247,-6747617,2244318,1387885,0,0,0,256,438,235,343,376,395,326,307,272,113,119,194,0,
1,1775671353408,-1966,277,9806,408057,-52534,128281,0,0,0,356,360,267,411,271,452,510,275,386,337,255,443,0,
2,1775671353408,3752,3747,18104,-6910107,2310292,1525941,0,0,0,257,441,238,345,378,397,327,307,274,113,117,192,0,
1,1775671353424,-1962,191,9873,431270,-100181,142942,0,0,0,356,369,270,410,269,457,504,262,396,324,235,453,0,
2,1775671353424,3967,3244,21138,-7071376,2357939,1528384,0,0,0,257,442,239,344,376,396,327,305,273,113,117,194,0,
1,1775671353440,-2053,105,9949,459370,-161268,171042,0,0,0,361,383,273,416,285,469,504,255,397,311,226,469,0,
2,1775671353440,4249,2780,25364,-7239974,2406809,1472185,0,0,0,257,442,240,343,374,395,329,306,276,111,117,194,0,
1,1775671353456,-2187,71,10035,508239,-195476,206472,0,0,0,362,391,268,425,305,473,498,247,403,308,222,484,0,
2,1775671353456,4651,2134,30227,-7406130,2439795,1558928,0,0,0,258,441,239,346,374,395,334,307,280,110,114,193,0,
1,1775671353472,-2330,9,10078,592539,-188146,252898,0,0,0,370,394,260,427,313,477,488,236,414,305,214,509,0,
2,1775671353472,4359,-823,33696,-7588167,2660928,1938886,0,0,0,258,441,239,350,377,398,339,303,284,112,111,193,0,
1,1775671353488,-2388,-81,10236,687834,-178372,310319,0,0,0,384,397,258,433,317,484,476,223,430,294,202,532,0,
2,1775671353488,1287,-10289,36075,-7454999,3221703,2570520,0,0,0,261,441,240,352,379,400,343,298,290,114,111,194,0,
1,1775671353504,-2426,-153,10509,795346,-172263,364075,0,0,0,396,406,256,452,326,493,466,214,447,286,192,540,0,
2,1775671353504,-1301,-23737,36204,-6719517,2918714,2839301,0,0,0,264,442,239,354,380,398,345,299,297,119,112,198,0,
1,1775671353520,-2364,-229,10777,944397,-168598,414166,0,0,0,402,414,250,472,344,506,458,212,451,289,187,550,0,
2,1775671353520,622,-41124,27465,-4872261,1470963,1653001,0,0,0,264,443,239,357,382,399,347,301,298,120,117,200,0,
1,1775671353536,-2311,-287,11251,1126435,-163711,444709,0,0,0,396,429,258,484,359,512,438,207,445,289,190,556,0,
2,1775671353536,-1320,-50284,18348,-2774549,1048244,-596204,0,0,0,267,445,239,357,381,399,350,305,298,122,114,200,0,
1,1775671353552,-2086,-358,11945,1411098,-171042,450818,0,0,0,390,446,245,481,358,522,417,201,436,284,184,565,0,
2,1775671353552,-11859,-49638,15960,-767246,1076344,-2539977,0,0,0,259,440,233,355,381,400,348,319,295,116,118,199,0,
1,1775671353568,-1665,-473,12419,1738522,-211359,417831,0,0,0,398,453,226,495,380,521,383,199,442,295,204,571,0,
2,1775671353568,-15520,-39703,19861,847880,-395840,-2161241,0,0,0,255,436,229,356,382,393,383,429,278,135,181,184,0,
1,1775671353584,-1952,-569,12840,2131919,-289550,365297,0,0,0,424,452,210,505,408,530,342,191,448,295,186,566,0,
2,1775671353584,-6585,-13467,22622,2329840,-2387261,-922406,0,0,0,243,387,191,347,357,373,435,468,267,160,229,175,0,
1,1775671353600,-2933,-641,13582,2614503,-350636,405614,0,0,0,423,449,211,489,396,548,305,183,463,271,180,581,0,
2,1775671353600,6470,17496,15860,3199712,-3938859,340862,0,0,0,250,371,185,339,340,378,467,480,285,184,274,180,0,
1,1775671353616,-3933,-631,14898,3257133,-340862,596204,0,0,0,418,442,213,465,412,536,230,175,453,233,151,573,0,
2,1775671353616,5269,13036,8604,4273613,-3837455,1032362,0,0,0,256,371,185,345,338,384,490,492,289,202,326,180,0,
1,1775671353632,-5245,-425,16506,4035375,-216246,904080,0,0,0,429,409,212,450,392,523,207,153,435,215,123,554,0,
2,1775671353632,-3010,-497,13773,5218010,-2403143,1092227,0,0,0,262,379,196,352,337,392,492,510,299,264,393,177,0,
1,1775671353648,-6657,-421,18679,4827057,-97738,1297477,0,0,0,428,401,221,438,384,514,197,141,423,193,121,505,0,
2,1775671353648,-6422,-2948,21842,4952895,-855211,250454,0,0,0,262,385,214,359,341,401,511,528,300,306,424,180,0,
1,1775671353664,-8480,-732,22426,5756794,28099,1777617,0,0,0,404,394,217,423,361,484,194,139,400,179,121,440,0,
2,1775671353664,-1048,1296,21722,3838677,-156381,-570548,0,0,0,270,399,246,369,351,411,535,538,301,281,392,198,0,
1,1775671353680,-10428,-660,25785,6624222,210137,2257757,0,0,0,355,372,210,373,320,439,180,148,361,152,110,351,0,
2,1775671353680,4216,2225,15266,2491108,-125838,-345749,0,0,0,287,426,283,381,366,421,542,542,312,239,347,225,0,
1,1775671353696,-11227,-100,28868,7442782,465479,2838079,0,0,0,295,343,207,316,274,388,188,173,323,132,120,261,0,
2,1775671353696,2455,382,11658,1423316,-166155,149051,0,0,0,301,449,306,396,383,430,546,545,319,237,339,247,0,
1,1775671353712,-10356,2129,30160,7979121,623082,3259576,0,0,0,248,302,204,268,219,318,244,211,289,138,166,174,0,
2,1775671353712,813,-105,10768,720820,-185703,243124,0,0,0,322,460,323,405,388,440,549,549,322,244,341,265,0,
1,1775671353728,-11600,5010,27676,8403062,604756,3554013,0,0,0,239,264,205,243,170,261,303,244,266,154,211,107,0,
2,1775671353728,847,607,10725,355523,-216246,100181,0,0,0,343,467,325,406,389,441,556,557,317,247,341,273,0,
1,1775671353744,-13606,9566,17444,7974234,58643,3870442,0,0,0,268,270,214,266,175,277,315,254,272,164,223,114,0,
2,1775671353744,1206,1134,10332,222354,-268780,23212,0,0,0,358,472,340,412,393,447,558,562,326,249,335,287,0,
1,1775671353760,-11672,13778,10122,6065891,-690277,3761708,0,0,0,264,280,215,267,181,278,312,255,271,165,225,119,0,
2,1775671353760,1143,1320,10189,149051,-246789,6108,0,0,0,370,476,357,414,395,445,530,550,325,248,328,291,0,
1,1775671353776,-4776,17195,10720,1899790,-240680,1682322,0,0,0,259,282,216,266,182,282,307,255,268,165,224,118,0,
2,1775671353776,1033,1402,10284,146607,-175929,1221,0,0,0,378,480,357,416,395,449,569,570,317,252,325,300,0,
1,1775671353792,-1631,16233,11418,-2084272,1431868,-1188743,0,0,0,255,283,216,264,182,280,307,248,266,166,225,121,0,
2,1775671353792,971,1517,10351,221133,-118507,-18325,0,0,0,387,484,360,414,391,448,564,561,317,252,313,309,0,
1,1775671353808,-6144,10399,7977,-3828903,2753780,-2874731,0,0,0,246,289,220,259,186,283,312,258,272,166,231,121,0,
2,1775671353808,904,1579,10279,311541,-41538,-30543,0,0,0,394,492,361,424,402,457,568,552,323,283,333,308,0,
1,1775671353824,-10040,6178,3795,-3600439,1628566,-2175901,0,0,0,234,292,220,254,188,284,310,260,273,163,232,124,0,
2,1775671353824,952,1526,10122,389732,40317,-25656,0,0,0,391,490,351,425,402,459,562,540,327,257,297,321,0,
1,1775671353840,-8427,4986,2756,-3407406,3665,-992045,0,0,0,229,297,220,256,200,284,314,266,274,165,237,122,0,
2,1775671353840,1076,1402,9968,450818,79412,-18325,0,0,0,400,493,345,431,404,463,557,528,330,249,275,329,0,
1,1775671353856,-4312,5881,4651,-3804468,-340862,-416610,0,0,0,232,302,220,251,221,280,316,266,271,167,239,121,0,
2,1775671353856,1172,1258,9863,466701,53756,-14660,0,0,0,404,492,338,432,406,464,556,520,337,243,254,345,0,
1,1775671353872,-2981,6508,6594,-4519181,75747,-355523,0,0,0,231,299,221,253,213,282,314,264,271,168,240,122,0,
2,1775671353872,1215,1115,9786,443488,8552,-18325,0,0,0,413,496,340,436,411,466,556,511,343,239,231,361,0,
1,1775671353888,-4446,6350,7743,-5220454,191811,-487470,0,0,0,234,297,221,259,199,284,313,262,271,170,237,123,0,
2,1775671353888,1220,1024,9772,395840,-32986,-25656,0,0,0,423,501,341,443,415,470,553,495,345,238,214,373,0,
1,1775671353904,-5068,5752,9351,-5952270,-353080,-559552,0,0,0,238,297,221,262,194,284,313,261,269,173,235,123,0,
2,1775671353904,1229,1014,9834,364075,-75747,-37873,0,0,0,428,504,337,449,419,479,548,476,348,239,204,383,0,
1,1775671353920,-4431,4838,11280,-6536258,-891863,-667064,0,0,0,239,297,221,263,194,286,314,261,269,174,239,122,0,
2,1775671353920,1210,1033,9916,365297,-107512,-50090,0,0,0,435,508,337,449,426,485,546,460,354,238,194,395,0,
1,1775671353936,-3622,3656,13137,-6866125,-1154535,-880867,0,0,0,240,298,223,265,195,286,315,261,270,172,239,121,0,
2,1775671353936,1143,1028,9997,388510,-125838,-58643,0,0,0,445,519,341,445,427,485,545,444,361,237,187,411,0,
1,1775671353952,-3862,2751,14989,-6956533,-1266934,-1120326,0,0,0,235,297,224,262,199,288,311,258,268,171,240,120,0,
2,1775671353952,1067,942,10040,423940,-114842,-63529,0,0,0,459,520,348,450,433,495,541,426,357,239,182,432,0,
1,1775671353968,-4675,2268,17348,-7017619,-1434311,-1284038,0,0,0,234,294,224,260,198,287,313,261,272,169,239,117,0,
2,1775671353968,1086,866,10074,464257,-91629,-68416,0,0,0,468,526,361,457,440,505,536,410,366,243,175,451,0,
1,1775671353984,-5608,1938,20847,-7160562,-1635897,-1381777,0,0,0,234,297,224,255,187,282,312,259,267,171,241,119,0,
2,1775671353984,1206,770,10102,516791,-70860,-86742,0,0,0,471,528,340,455,448,505,528,380,366,245,175,473,0,
1,1775671354000,-6728,1186,24891,-7341378,-1754404,-1583362,0,0,0,236,298,229,263,191,288,319,261,272,170,236,116,0,
2,1775671354000,1282,641,10078,558330,-52534,-117286,0,0,0,482,534,347,466,462,508,526,359,373,252,175,488,0,
1,1775671354016,-9083,-971,29351,-7412238,-1787391,-2092824,0,0,0,236,295,229,263,190,291,319,259,273,169,230,117,0,
2,1775671354016,1273,526,10064,588874,-26878,-155159,0,0,0,488,538,343,474,466,515,523,331,377,260,174,507,0,
1,1775671354032,-12242,-5551,33084,-7319387,-2069611,-2795319,0,0,0,236,295,226,264,191,290,319,257,272,169,230,115,0,
2,1775671354032,1253,483,10251,638965,7330,-185703,0,0,0,502,546,350,485,473,523,515,310,381,280,174,524,0,
1,1775671354048,-13395,-13907,35242,-7038389,-3007900,-3343876,0,0,0,235,296,226,265,194,293,321,259,276,174,231,118,0,
2,1775671354048,1320,478,10591,735481,21991,-215024,0,0,0,515,546,364,477,477,520,501,280,383,283,180,551,0,
1,1775671354064,-9107,-27465,34008,-6372546,-3787364,-3279124,0,0,0,235,299,227,262,194,295,319,256,283,180,233,116,0,
2,1775671354064,1378,435,10988,886976,9773,-240680,0,0,0,521,552,351,484,487,526,482,253,393,284,179,567,0,
1,1775671354080,-2292,-40693,27221,-5141041,-3569896,-2657263,0,0,0,236,303,228,265,197,300,329,261,287,183,232,119,0,
2,1775671354080,1416,392,11658,1130100,21991,-262672,0,0,0,519,552,332,490,497,531,457,234,393,273,172,574,0,
1,1775671354096,4785,-48432,18391,-3169168,-2823419,-1328021,0,0,0,233,305,227,264,200,299,333,263,288,184,233,119,0,
2,1775671354096,1335,430,12534,1458746,74525,-282219,0,0,0,520,556,309,492,505,535,414,232,387,277,178,588,0,
1,1775671354112,10370,-51002,14103,-1226617,-1725083,194255,0,0,0,240,297,224,273,192,294,337,263,283,192,238,115,0,
2,1775671354112,1129,378,13338,1951103,129503,-287106,0,0,0,522,561,290,491,515,538,379,230,391,280,185,599,0,
1,1775671354128,12203,-47408,15180,458148,-161268,1277930,0,0,0,246,285,215,281,182,284,363,301,272,217,281,106,0,
2,1775671354128,1301,291,14032,2477669,111177,-278554,0,0,0,526,563,274,492,523,539,349,227,395,275,183,604,0,
1,1775671354144,6757,-24709,19818,2195449,1861917,1076344,0,0,0,241,267,196,272,175,262,411,375,258,257,357,93,0,
2,1775671354144,2345,229,14931,3136182,-30543,-343306,0,0,0,529,563,260,491,522,537,309,225,387,273,182,608,0,
1,1775671354160,-4570,16439,18899,3589444,4142888,-345749,0,0,0,242,250,169,271,165,242,448,430,259,291,398,81,0,
2,1775671354160,3139,196,15975,3802025,-208915,-507018,0,0,0,525,559,255,480,518,531,278,201,386,273,183,599,0,
1,1775671354176,-6044,22115,11380,4265061,4555832,-1362229,0,0,0,243,253,147,279,168,244,466,466,277,320,413,76,0,
2,1775671354176,3646,363,17353,4577824,-389732,-742812,0,0,0,522,547,256,479,517,529,267,179,391,265,175,582,0,
1,1775671354192,4235,540,14079,5629734,2394591,-1120326,0,0,0,240,261,157,282,173,266,473,473,281,364,427,88,0,
2,1775671354192,4666,540,19640,5533217,-555887,-1056796,0,0,0,523,535,260,473,498,529,262,154,390,247,159,544,0,
1,1775671354208,8499,-6379,22770,5445252,202807,48869,0,0,0,249,254,180,290,165,281,488,488,285,388,433,95,0,
2,1775671354208,5431,344,23153,6502049,-671951,-1379333,0,0,0,506,526,261,472,490,525,251,152,383,218,141,469,0,
1,1775671354224,478,-1689,22445,3809355,-261450,994488,0,0,0,259,270,222,305,180,297,505,504,297,397,443,100,0,
2,1775671354224,6192,392,27590,7452555,-547335,-1660331,0,0,0,415,491,229,448,471,493,266,162,376,208,139,399,0,
1,1775671354240,-6173,445,16712,2139250,-87964,696386,0,0,0,257,284,256,314,196,356,511,512,319,406,454,147,0,
2,1775671354240,6781,1732,30193,8252789,63529,-1925447,0,0,0,354,465,211,409,432,452,283,183,333,184,128,350,0,
1,1775671354256,-4613,-33,10691,1006705,142942,-239459,0,0,0,292,289,265,348,200,360,527,526,317,416,469,188,0,
2,1775671354256,7556,3043,30858,8851437,770911,-2263866,0,0,0,290,436,216,361,390,405,295,234,287,146,123,266,0,
1,1775671354272,-1584,-86,9786,532674,57421,-305432,0,0,0,309,304,270,358,206,370,537,511,326,421,479,218,0,
2,1775671354272,9045,4795,26752,9154426,1662775,-2886949,0,0,0,277,428,232,334,368,384,310,267,278,118,108,214,0,
1,1775671354288,-1488,550,10284,299323,-12217,-94073,0,0,0,321,314,266,368,214,372,541,500,326,429,483,243,0,
2,1775671354288,10011,8542,18506,8872206,1871691,-3723834,0,0,0,282,429,239,333,365,384,316,288,281,110,109,199,0,
1,1775671354304,-2459,1028,10289,249233,42760,7330,0,0,0,331,325,271,371,219,385,546,492,330,439,477,268,0,
2,1775671354304,7571,12490,13137,7484320,918741,-4548502,0,0,0,284,430,238,336,366,386,317,297,277,109,110,196,0,
1,1775671354320,-2435,1110,9954,262672,113620,9773,0,0,0,338,330,284,379,221,390,553,488,339,438,466,287,0,
2,1775671354320,2096,19497,10552,3263242,-662177,-3462384,0,0,0,280,428,232,324,386,373,318,298,270,110,110,196,0,
1,1775671354336,-2053,1024,9949,296880,107512,8552,0,0,0,344,336,286,391,229,385,556,475,343,433,460,298,0,
2,1775671354336,1191,21162,9049,-2053728,-1871691,-974940,0,0,0,280,430,233,326,387,372,318,297,268,113,111,197,0,
1,1775671354352,-1957,1033,10131,327423,68416,21991,0,0,0,348,350,280,394,247,387,548,447,343,427,444,312,0,
2,1775671354352,5163,13481,8418,-5485569,-2100154,1015258,0,0,0,284,434,236,341,368,383,320,296,268,116,110,199,0,
1,1775671354368,-2053,1148,10452,384845,4886,50090,0,0,0,350,353,280,396,259,391,539,428,346,414,412,325,0,
2,1775671354368,8370,5838,6762,-6392093,-1486845,1357342,0,0,0,281,435,236,341,368,383,323,299,268,115,110,199,0,
1,1775671354384,-1976,1196,12050,377514,-13439,73303,0,0,0,345,359,276,400,265,401,536,407,353,407,398,338,0,
2,1775671354384,8164,3297,4881,-5749463,-332310,361632,0,0,0,274,438,239,343,371,385,326,305,271,114,111,199,0,
1,1775671354400,-1899,1110,12170,372627,-50090,84299,0,0,0,350,361,279,402,260,404,534,390,353,388,378,352,0,
2,1775671354400,5862,3890,5604,-5610186,443488,-416610,0,0,0,266,440,239,341,370,384,328,306,271,115,115,200,0,
1,1775671354416,-1962,851,10189,441044,-134390,76969,0,0,0,351,358,269,405,268,408,535,375,355,377,361,361,0,
2,1775671354416,4015,4235,7580,-5874080,718377,-638965,0,0,0,259,438,236,340,373,387,327,307,275,114,115,198,0,
1,1775671354432,-2053,670,9102,465479,-166155,76969,0,0,0,349,357,271,410,260,416,534,364,353,386,350,368,0,
2,1775671354432,2943,4422,9552,-6212499,769690,-432492,0,0,0,260,439,238,340,374,387,324,308,278,114,116,198,0,
1,1775671354448,-2100,617,9370,425162,-129503,87964,0,0,0,349,368,271,417,262,425,529,346,357,374,327,378,0,
2,1775671354448,3460,4771,10452,-6442184,990823,21991,0,0,0,262,442,242,341,378,387,329,309,274,115,116,199,0,
1,1775671354464,-2100,612,9657,400727,-90408,100181,0,0,0,349,366,267,419,270,425,527,341,359,367,313,394,0,
2,1775671354464,4268,4943,11519,-6670648,1536936,502131,0,0,0,261,440,239,338,373,385,328,308,273,115,113,195,0,
1,1775671354480,-2053,593,9681,395840,-67195,111177,0,0,0,349,372,263,424,289,429,522,350,355,352,308,398,0,
2,1775671354480,3823,4565,13816,-6850242,2152689,955393,0,0,0,261,440,239,342,376,388,330,311,277,115,117,199,0,
1,1775671354496,-1990,555,9662,403171,-65973,114842,0,0,0,358,366,261,418,287,433,519,324,360,342,291,414,0,
2,1775671354496,3177,3962,16333,-6945537,2376265,1318247,0,0,0,262,441,241,311,364,388,333,313,278,116,116,201,0,
1,1775671354512,-1981,488,9767,412944,-90408,117286,0,0,0,363,367,264,418,284,438,516,296,368,342,275,428,0,
2,1775671354512,3345,3206,18784,-6989520,2355496,1522276,0,0,0,258,442,239,327,369,388,333,313,279,114,116,198,0,
1,1775671354528,-2024,435,9887,422718,-120951,129503,0,0,0,358,377,262,422,289,442,511,282,372,338,262,439,0,
2,1775671354528,3981,2345,21689,-7017619,2464230,1480737,0,0,0,257,440,239,342,375,388,332,313,279,114,116,197,0,
1,1775671354544,-2120,363,9935,441044,-140499,149051,0,0,0,356,381,262,423,298,448,505,266,372,326,246,450,0,
2,1775671354544,4101,1933,25154,-7045719,2618168,1389107,0,0,0,257,440,240,345,376,389,334,313,280,115,116,197,0,
1,1775671354560,-2268,291,9944,471587,-144164,185703,0,0,0,364,384,270,427,317,460,501,249,376,320,232,462,0,
2,1775671354560,3957,1689,29695,-7119023,2654820,1499063,0,0,0,258,440,239,347,376,390,339,312,284,117,116,198,0,
1,1775671354576,-2368,224,9964,529009,-122173,243124,0,0,0,375,397,268,429,341,466,498,243,387,319,219,486,0,
2,1775671354576,3464,-1182,32883,-7236309,2753780,2054950,0,0,0,262,440,239,347,373,389,342,308,288,117,115,198,0,
1,1775671354592,-2388,153,10098,615752,-107512,305432,0,0,0,384,404,273,432,334,473,491,234,404,301,205,501,0,
2,1775671354592,1923,-8054,34898,-7111693,3105638,2669481,0,0,0,266,439,240,350,373,392,345,301,290,116,113,196,0,
1,1775671354608,-2316,86,10394,740368,-128281,366519,0,0,0,401,406,262,453,345,484,480,234,407,291,199,513,0,
2,1775671354608,947,-21741,34170,-6321233,2778215,2823419,0,0,0,270,438,239,353,377,396,343,301,290,119,112,198,0,
1,1775671354624,-2105,9,10835,886976,-172263,389732,0,0,0,418,428,259,458,361,488,479,220,407,294,202,538,0,
2,1775671354624,2708,-37137,27245,-4877148,1772730,1947438,0,0,0,275,439,241,353,376,396,337,303,291,119,114,198,0,
1,1775671354640,-2014,-28,11390,1078788,-224798,386066,0,0,0,416,430,260,460,362,508,453,209,404,283,190,554,0,
2,1775671354640,1019,-46972,17568,-2785545,1470963,-180816,0,0,0,276,437,240,353,376,397,349,309,291,122,121,200,0,
1,1775671354656,-2005,-67,11950,1353677,-285884,366519,0,0,0,424,421,243,476,365,527,426,221,404,270,178,569,0,
2,1775671354656,-10260,-46015,17094,-869872,1402546,-1831373,0,0,0,253,414,224,344,364,384,381,401,283,157,197,188,0,
1,1775671354672,-1727,-220,12256,1694540,-371406,328645,0,0,0,434,425,232,473,375,529,388,208,422,270,184,572,0,
2,1775671354672,-18568,-40181,23809,1076344,-602313,-1791056,0,0,0,246,388,204,344,354,371,415,460,267,202,272,171,0,
1,1775671354688,-1880,-311,12691,2051285,-455705,274889,0,0,0,426,429,226,473,380,526,353,194,427,273,178,574,0,
2,1775671354688,-8198,-14166,21282,3338989,-3973067,-344527,0,0,0,251,365,179,338,339,363,456,475,261,178,260,172,0,
1,1775671354704,-3062,-320,13524,2502104,-445931,318871,0,0,0,432,434,217,466,386,516,308,183,428,272,176,589,0,
2,1775671354704,3536,9384,13826,4616919,-4993212,739146,0,0,0,256,367,182,343,336,374,480,484,276,208,309,177,0,
1,1775671354720,-4359,-330,14544,3111747,-346971,511905,0,0,0,426,429,222,473,395,524,252,177,424,253,164,582,0,
2,1775671354720,2388,8528,12773,5082398,-3062878,1036027,0,0,0,262,375,188,351,338,387,492,493,288,204,307,186,0,
1,1775671354736,-5379,-224,15821,3888768,-180816,877202,0,0,0,424,430,229,462,388,529,210,167,422,221,141,561,0,
2,1775671354736,-5398,-617,20928,5071403,-766025,456927,0,0,0,262,382,206,358,340,398,499,499,296,205,309,192,0,
1,1775671354752,-6245,-110,17999,4692666,-46425,1288925,0,0,0,422,417,230,441,372,512,192,152,416,202,121,523,0,
2,1775671354752,-4484,-1579,23244,4262617,-3665,-422718,0,0,0,262,387,223,365,347,406,509,510,303,210,308,197,0,
1,1775671354768,-7666,-320,21478,5521000,57421,1674992,0,0,0,403,391,222,417,364,488,187,142,403,181,111,457,0,
2,1775671354768,2455,1459,17295,2935818,-34208,-664621,0,0,0,272,403,253,370,352,414,522,523,310,216,304,214,0,
1,1775671354784,-10102,-296,24881,6451958,195476,2162462,0,0,0,365,373,217,372,343,459,182,148,378,150,106,369,0,
2,1775671354784,3742,1789,10863,1857030,-73303,-41538,0,0,0,289,428,285,378,362,420,533,533,314,223,304,236,0,
1,1775671354800,-10648,-4,27197,7250970,337197,2704911,0,0,0,309,353,222,327,291,412,184,167,341,136,115,281,0,
2,1775671354800,2268,670,9657,1158200,-204028,255341,0,0,0,313,449,310,393,377,425,545,550,310,258,328,248,0,
1,1775671354816,-9183,1239,28537,7760431,444709,3086091,0,0,0,254,329,206,291,255,357,215,205,309,133,156,214,0,
2,1775671354816,1244,95,10935,582765,-400727,213802,0,0,0,339,460,329,406,385,436,558,565,307,324,383,253,0,
1,1775671354832,-9820,3551,27441,8195368,631634,3307224,0,0,0,229,289,188,259,203,274,287,248,271,149,208,113,0,
2,1775671354832,942,607,11146,193033,-483805,87964,0,0,0,348,464,327,411,388,444,562,563,311,357,412,262,0,
1,1775671354848,-12208,7341,20746,8317541,663399,3528357,0,0,0,250,285,219,267,187,288,311,255,281,162,219,125,0,
2,1775671354848,942,1296,10351,86742,-350636,25656,0,0,0,362,471,330,411,387,438,565,565,307,372,426,265,0,
1,1775671354864,-11596,12213,12050,7164227,284663,3668856,0,0,0,236,297,219,262,194,290,310,263,283,156,222,124,0,
2,1775671354864,1028,1478,10193,75747,-232128,13439,0,0,0,364,473,329,412,389,442,565,565,309,404,462,258,0,
1,1775671354880,-7068,16922,9944,3991393,111177,2520429,0,0,0,235,302,221,263,194,291,308,261,277,160,221,120,0,
2,1775671354880,1072,1478,10299,98960,-169820,1221,0,0,0,372,476,329,417,394,446,563,564,309,354,400,277,0,
1,1775671354896,-3828,17626,11107,-767246,856433,-406836,0,0,0,233,306,219,262,197,289,305,256,271,161,221,121,0,
2,1775671354896,985,1550,10236,163711,-120951,-17104,0,0,0,379,477,336,415,394,446,559,559,321,354,373,281,0,
1,1775671354912,-5206,13074,9624,-3477044,1623679,-2394591,0,0,0,230,306,219,260,195,288,308,256,273,161,222,123,0,
2,1775671354912,914,1627,10136,259006,-43982,-31764,0,0,0,383,477,333,418,396,449,566,559,329,255,285,304,0,
1,1775671354928,-8442,7566,5943,-3908315,1502728,-2547308,0,0,0,229,308,220,257,195,286,309,258,274,165,227,126,0,
2,1775671354928,923,1593,10050,355523,41538,-31764,0,0,0,387,482,335,422,400,454,564,555,329,243,268,314,0,
1,1775671354944,-8102,5522,4005,-3706730,383623,-1462411,0,0,0,230,308,222,257,197,290,310,260,276,165,228,126,0,
2,1775671354944,1067,1426,9973,398284,80634,-19547,0,0,0,397,486,335,425,400,453,561,544,326,241,257,322,0,
1,1775671354960,-5077,5608,4809,-4048814,-273667,-642630,0,0,0,229,307,224,258,198,293,311,259,276,164,228,125,0,
2,1775671354960,1191,1311,9906,408057,68416,-13439,0,0,0,402,485,335,426,399,453,513,501,348,237,241,324,0,
1,1775671354976,-3091,5843,6637,-4797735,-53756,-433714,0,0,0,226,307,225,259,198,295,311,259,274,169,226,126,0,
2,1775671354976,1215,1210,9849,392175,18325,-19547,0,0,0,406,489,333,428,402,457,528,500,346,240,235,337,0,
1,1775671354992,-3866,5144,7968,-5534439,234572,-482583,0,0,0,224,305,225,261,199,296,310,259,274,172,224,125,0,
2,1775671354992,1206,1172,9825,367740,-19547,-29321,0,0,0,415,492,335,433,406,461,556,506,337,243,230,351,0,
1,1775671355008,-4814,4268,9093,-6032905,17104,-513126,0,0,0,222,305,222,258,201,294,309,259,274,166,226,123,0,
2,1775671355008,1210,1148,9858,350636,-51312,-39095,0,0,0,424,494,336,437,407,463,556,492,338,243,219,365,0,
1,1775671355024,-4589,3608,10715,-6388428,-483805,-625526,0,0,0,221,309,223,252,197,294,310,261,276,160,229,123,0,
2,1775671355024,1210,1091,9897,345749,-84299,-48869,0,0,0,428,498,335,437,408,466,556,480,339,244,208,379,0,
1,1775671355040,-4211,3024,12400,-6673091,-811229,-866206,0,0,0,222,310,226,250,197,296,310,262,276,156,228,123,0,
2,1775671355040,1162,1062,9920,349414,-109955,-57421,0,0,0,435,503,336,441,415,473,556,468,353,243,201,386,0,
1,1775671355056,-4441,2239,14304,-6860016,-1064127,-1175304,0,0,0,223,311,229,251,200,297,311,262,278,163,231,127,0,
2,1775671355056,1110,1072,9935,375071,-120951,-58643,0,0,0,446,513,340,448,425,479,554,452,376,243,195,402,0,
1,1775671355072,-4943,1469,16444,-6924768,-1370781,-1396437,0,0,0,223,311,229,251,201,298,311,263,278,164,231,125,0,
2,1775671355072,1115,1005,10002,426383,-109955,-51312,0,0,0,449,517,349,454,430,488,549,438,354,244,187,421,0,
1,1775671355088,-5412,827,18918,-6877120,-1674992,-1463633,0,0,0,226,317,231,253,210,299,309,265,275,164,230,125,0,
2,1775671355088,1119,894,10054,466701,-98960,-51312,0,0,0,458,517,349,456,435,498,544,417,354,243,178,443,0,
1,1775671355104,-6039,71,22225,-6812369,-1841147,-1496619,0,0,0,224,312,232,253,202,298,309,262,275,163,228,123,0,
2,1775671355104,1115,827,10064,496022,-80634,-65973,0,0,0,474,526,364,461,448,510,543,398,366,247,180,463,0,
1,1775671355120,-7087,-1091,26073,-6743952,-1808161,-1661553,0,0,0,226,311,232,256,200,298,311,260,275,166,228,123,0,
2,1775671355120,1134,794,10122,543670,-51312,-85521,0,0,0,482,533,352,469,457,510,531,366,368,255,176,483,0,
1,1775671355136,-8446,-3517,29207,-6636439,-1703092,-2052507,0,0,0,227,311,234,257,200,300,310,258,276,168,224,123,0,
2,1775671355136,1244,732,10260,618195,-9773,-113620,0,0,0,490,535,349,475,464,516,528,345,378,258,170,501,0,
1,1775671355152,-10031,-8820,31758,-6470284,-1940107,-2538755,0,0,0,223,313,231,257,204,304,310,259,280,169,225,126,0,
2,1775671355152,1421,593,10447,708603,30543,-158824,0,0,0,499,542,352,480,470,524,515,313,380,261,171,532,0,
1,1775671355168,-10069,-17473,32017,-6210056,-2580294,-2675589,0,0,0,221,315,228,258,205,305,308,258,284,172,228,127,0,
2,1775671355168,1555,473,10720,807563,46425,-212581,0,0,0,506,546,345,490,477,521,500,278,381,273,176,549,0,
1,1775671355184,-5355,-28604,27743,-5584530,-3010343,-2178345,0,0,0,224,315,230,259,205,306,306,257,284,173,230,124,0,
2,1775671355184,1512,469,11160,972497,14660,-262672,0,0,0,511,547,332,488,491,525,477,250,385,274,174,569,0,
1,1775671355200,3551,-38745,21095,-4447098,-2908940,-1354899,0,0,0,224,317,230,261,208,308,307,261,285,171,230,122,0,
2,1775671355200,1450,459,11734,1255938,-8552,-290771,0,0,0,517,552,320,490,499,530,446,234,388,272,174,581,0,
1,1775671355216,11964,-45460,15520,-2591290,-1518610,-107512,0,0,0,223,316,229,260,205,304,309,262,283,174,233,126,0,
2,1775671355216,1335,430,12519,1606575,32986,-311541,0,0,0,523,558,309,494,503,532,411,226,389,270,176,591,0,
1,1775671355232,14132,-46972,13515,-679282,212581,1242499,0,0,0,224,308,224,266,200,298,325,281,279,192,253,122,0,
2,1775671355232,1378,325,13472,2079385,80634,-329867,0,0,0,525,561,291,495,512,534,372,222,389,272,180,604,0,
1,1775671355248,11280,-38808,15874,965167,1516167,1971872,0,0,0,226,286,203,261,194,272,376,359,271,240,340,102,0,
2,1775671355248,1794,287,14443,2634050,26878,-362853,0,0,0,524,563,271,496,521,537,331,220,387,274,187,612,0,
1,1775671355264,2335,-9504,18123,2664594,3242472,1231504,0,0,0,242,255,158,266,165,236,448,422,275,287,388,82,0,
2,1775671355264,2431,330,15247,3266907,-141720,-453262,0,0,0,529,565,259,488,523,539,292,212,385,269,185,608,0,
1,1775671355280,-6417,14280,13883,3900985,4425107,-100181,0,0,0,246,258,148,274,164,238,462,462,248,310,414,80,0,
2,1775671355280,2737,330,16128,3963293,-310319,-602313,0,0,0,528,561,248,478,520,529,268,195,388,270,178,595,0,
1,1775671355296,-2608,7418,13218,5032307,3075095,-967610,0,0,0,244,254,143,284,163,251,472,471,270,352,423,82,0,
2,1775671355296,3306,483,17554,4710992,-427605,-774577,0,0,0,521,547,252,472,514,524,259,168,389,258,162,569,0,
1,1775671355312,5082,-2115,19444,5523443,926071,-758694,0,0,0,250,255,157,298,163,267,479,479,276,376,428,87,0,
2,1775671355312,4517,636,19999,5578421,-532674,-1012814,0,0,0,516,533,253,464,500,517,259,162,396,235,152,511,0,
1,1775671355328,3498,-2230,22593,4443433,-80634,450818,0,0,0,260,271,191,303,173,291,494,494,295,398,434,97,0,
2,1775671355328,5460,440,24560,6665761,-654847,-1341460,0,0,0,470,513,243,464,498,511,256,160,384,218,148,444,0,
1,1775671355344,-3239,-416,18817,2872288,-76969,795346,0,0,0,265,282,230,316,186,326,503,502,312,419,439,119,0,
2,1775671355344,6278,827,29035,7648032,-529009,-1607797,0,0,0,395,486,214,434,458,476,270,164,351,202,137,380,0,
1,1775671355360,-5570,-9,11887,1376890,185703,-4886,0,0,0,277,292,253,336,198,353,514,514,324,425,455,169,0,
2,1775671355360,6671,2526,31117,8504465,76969,-1901012,0,0,0,335,459,209,389,425,435,288,207,310,206,140,326,0,
1,1775671355376,-2397,-392,10126,697608,174707,-305432,0,0,0,300,302,262,351,203,361,526,514,327,428,472,209,0,
2,1775671355376,7671,3694,30418,9045692,778242,-2265088,0,0,0,274,430,222,344,380,393,302,248,284,145,128,233,0,
1,1775671355392,-1115,-110,10351,262672,124616,-180816,0,0,0,317,310,273,359,207,366,536,510,329,433,479,225,0,
2,1775671355392,9260,5508,25283,9250943,1510058,-2825862,0,0,0,270,425,234,331,364,383,315,278,282,113,114,202,0,
1,1775671355408,-1876,679,10562,131946,103847,-4886,0,0,0,319,314,278,360,210,375,544,511,340,440,476,246,0,
2,1775671355408,9830,10083,15979,8522791,1445307,-3721391,0,0,0,279,430,238,332,369,386,318,305,283,112,118,202,0,
1,1775671355424,-2297,1081,10227,145385,95294,20769,0,0,0,319,322,276,363,214,385,548,501,342,450,469,273,0,
2,1775671355424,6704,14792,11462,6492275,660956,-4234517,0,0,0,277,433,236,333,374,383,315,316,273,111,119,199,0,
1,1775671355440,-2091,1067,9944,233350,85521,8552,0,0,0,328,336,286,370,230,392,543,491,341,443,462,287,0,
2,1775671355440,1330,20378,10112,1461189,-822224,-2786767,0,0,0,275,433,232,334,374,379,315,315,264,112,118,198,0,
1,1775671355456,-1847,966,10098,295658,46425,36651,0,0,0,329,342,279,373,240,396,546,478,357,441,452,307,0,
2,1775671355456,1215,18573,9758,-4062253,-2298075,-127059,0,0,0,276,433,234,335,370,379,319,309,264,114,116,199,0,
1,1775671355472,-1785,995,10275,346971,-28099,59864,0,0,0,321,360,276,372,247,401,538,468,351,426,433,321,0,
2,1775671355472,6006,10423,8025,-6228381,-2563190,1249830,0,0,0,277,436,237,336,369,381,322,303,268,148,133,197,0,
1,1775671355488,-1837,1024,9423,400727,-124616,65973,0,0,0,321,371,269,372,257,393,535,441,349,420,421,326,0,
2,1775671355488,9356,3766,4517,-5864306,-1295034,801455,0,0,0,272,438,237,338,372,382,321,303,269,184,154,195,0,
1,1775671355504,-1966,918,7135,395840,-135612,64751,0,0,0,328,367,268,380,251,400,536,434,356,408,397,328,0,
2,1775671355504,8461,2412,3330,-5116607,-21991,-36651,0,0,0,261,437,232,336,372,381,324,306,269,115,116,198,0,
1,1775671355520,-2043,794,7403,405614,-117286,63529,0,0,0,332,371,263,378,255,397,534,415,362,395,389,347,0,
2,1775671355520,5479,3287,4929,-4861265,679282,-511905,0,0,0,258,438,234,340,375,385,324,310,270,115,118,199,0,
1,1775671355536,-2000,684,9495,441044,-120951,67195,0,0,0,334,359,271,390,253,403,532,397,367,379,365,348,0,
2,1775671355536,3823,4187,6905,-5127602,734260,-401949,0,0,0,263,439,234,338,374,384,324,310,270,115,117,199,0,
1,1775671355552,-1962,593,10074,423940,-111177,74525,0,0,0,333,352,266,389,255,403,534,385,369,371,352,353,0,
2,1775671355552,4077,4599,8379,-5629734,729373,74525,0,0,0,263,439,239,340,375,387,327,311,270,115,117,200,0,
1,1775671355568,-1986,559,9609,371406,-76969,84299,0,0,0,336,349,263,397,256,408,528,371,371,370,340,362,0,
2,1775671355568,5288,4259,9471,-6020687,1287703,614530,0,0,0,263,441,240,340,373,384,326,310,269,115,118,199,0,
1,1775671355584,-2019,559,9495,351858,-36651,94073,0,0,0,343,350,267,405,259,418,526,359,375,367,331,377,0,
2,1775671355584,5101,3881,11136,-6208834,1965764,1026253,0,0,0,261,440,238,337,373,384,322,310,268,115,119,199,0,
1,1775671355600,-1957,540,9667,355523,-6108,101403,0,0,0,347,359,268,412,264,422,519,356,382,372,328,390,0,
2,1775671355600,3613,3776,13754,-6323676,2322509,1428202,0,0,0,264,441,238,339,375,386,319,310,269,117,118,196,0,
1,1775671355616,-1842,469,9748,348193,1221,97738,0,0,0,344,373,262,410,278,423,517,347,380,362,322,393,0,
2,1775671355616,3038,3804,16123,-6502049,2364048,1703092,0,0,0,264,442,241,338,374,386,322,311,271,115,118,197,0,
1,1775671355632,-1785,392,9772,340862,-14660,87964,0,0,0,345,381,266,399,288,427,523,327,375,341,309,399,0,
2,1775671355632,3244,3656,18813,-6796486,2423913,1782504,0,0,0,263,442,240,338,374,387,326,310,273,114,118,199,0,
1,1775671355648,-1856,339,9849,354301,-51312,87964,0,0,0,354,382,279,401,281,429,520,304,376,343,290,419,0,
2,1775671355648,3259,2981,22163,-7119023,2537534,1682322,0,0,0,261,442,240,339,376,387,328,309,277,114,118,199,0,
1,1775671355664,-2000,282,9906,383623,-83077,106290,0,0,0,354,385,273,407,289,437,520,285,382,343,268,437,0,
2,1775671355664,2943,1861,26298,-7269296,2466673,1569923,0,0,0,259,441,241,340,376,387,332,310,281,114,117,199,0,
1,1775671355680,-2163,229,9916,417831,-96516,149051,0,0,0,347,384,272,410,301,456,513,271,388,342,260,448,0,
2,1775671355680,2842,880,30069,-7237531,2285857,1672549,0,0,0,259,442,240,341,375,387,335,307,282,114,115,197,0,
1,1775671355696,-2268,186,9916,458148,-81855,213802,0,0,0,366,407,269,414,339,462,505,267,406,331,257,469,0,
2,1775671355696,2723,-2440,33874,-7191105,2193006,2230879,0,0,0,263,444,241,345,376,389,337,302,283,114,112,196,0,
1,1775671355712,-2359,143,10021,519235,-48869,287106,0,0,0,382,423,266,416,351,455,505,251,391,319,260,482,0,
2,1775671355712,2517,-10054,35884,-7092145,2360383,2878397,0,0,0,266,444,240,350,378,394,342,297,287,117,111,198,0,
1,1775671355728,-2402,95,10270,615752,-18325,364075,0,0,0,402,424,257,427,358,467,493,235,391,308,237,503,0,
2,1775671355728,3048,-25154,32763,-6351776,2057394,2922379,0,0,0,267,444,239,353,381,397,343,297,290,118,113,198,0,
1,1775671355744,-2321,19,10648,755029,-6108,432492,0,0,0,418,430,295,433,355,480,471,225,405,291,216,522,0,
2,1775671355744,3819,-40823,24082,-4803844,1549154,1977981,0,0,0,268,445,239,353,380,397,347,299,294,120,114,200,0,
1,1775671355760,-2177,-23,11232,938289,-7330,481361,0,0,0,419,448,271,439,376,491,455,221,414,287,208,542,0,
2,1775671355760,-1799,-50858,15577,-2487443,1765400,1221,0,0,0,270,446,242,349,377,394,347,301,294,120,117,200,0,
1,1775671355776,-1780,-62,11816,1180191,-17104,476474,0,0,0,415,464,247,444,413,496,431,219,412,279,205,558,0,
2,1775671355776,-13563,-48432,16846,-466701,1296256,-1296256,0,0,0,250,435,229,353,384,395,362,393,283,131,161,195,0,
1,1775671355792,-1134,-215,12280,1500285,-73303,415388,0,0,0,410,462,241,448,411,503,395,209,416,271,196,570,0,
2,1775671355792,-14879,-36692,22311,1422094,-827111,-1298699,0,0,0,242,407,205,344,364,374,403,459,268,198,270,182,0,
1,1775671355808,-1182,-349,12869,1838704,-180816,306654,0,0,0,415,448,235,450,398,512,359,203,422,262,189,578,0,
2,1775671355808,-2378,-7891,21564,3276681,-3412293,-582765,0,0,0,247,376,184,336,345,366,442,476,264,192,277,179,0,
1,1775671355824,-2526,-215,14022,2346944,-240680,298102,0,0,0,421,438,224,448,403,519,315,202,425,268,198,573,0,
2,1775671355824,6575,11950,12423,4333478,-4333478,19547,0,0,0,252,370,181,337,337,374,463,493,273,198,296,176,0,
1,1775671355840,-3843,-124,14998,2938261,-163711,456927,0,0,0,418,434,220,447,411,520,257,194,424,273,196,566,0,
2,1775671355840,3283,5905,11447,5034751,-3277902,483805,0,0,0,260,379,186,347,341,386,486,496,282,200,306,184,0,
1,1775671355856,-4800,-157,15860,3638313,-10995,759916,0,0,0,420,427,239,448,407,521,210,179,420,230,155,566,0,
2,1775671355856,-4235,-2043,19521,5136154,-1304808,450818,0,0,0,260,389,208,362,351,401,506,506,297,207,313,194,0,
1,1775671355872,-5470,-9,17712,4492302,128281,1166752,0,0,0,416,408,272,423,375,512,194,155,428,188,118,526,0,
2,1775671355872,-4527,-947,22895,4370129,-287106,-190589,0,0,0,267,407,246,372,359,414,522,521,307,213,315,210,0,
1,1775671355888,-6992,-224,20641,5301088,277332,1533271,0,0,0,405,406,244,406,349,492,199,145,384,173,108,476,0,
2,1775671355888,1636,1670,19353,2747671,-13439,-569326,0,0,0,287,437,282,389,375,428,535,534,317,219,311,235,0,
1,1775671355904,-9408,-497,24087,6178291,493579,2012190,0,0,0,362,382,211,384,330,450,179,152,353,165,114,383,0,
2,1775671355904,3450,760,12916,1236391,-102625,-14660,0,0,0,309,457,302,410,392,442,544,545,324,229,307,261,0,
1,1775671355920,-10136,215,26393,6972415,674395,2552194,0,0,0,308,358,208,331,290,402,186,172,337,141,118,311,0,
2,1775671355920,1512,-38,10131,510683,-211359,277332,0,0,0,330,465,312,418,399,448,552,552,322,244,312,279,0,
1,1775671355936,-8647,2029,27662,7595498,797790,2970026,0,0,0,266,334,196,314,255,348,230,207,296,152,157,234,0,
2,1775671355936,536,425,10351,266337,-216246,146607,0,0,0,348,472,320,420,400,449,556,556,323,294,337,285,0,
1,1775671355952,-8810,3847,27231,8120842,1073901,3219259,0,0,0,232,301,217,262,204,293,275,235,271,151,189,149,0,
2,1775671355952,842,1186,10533,131946,-175929,1221,0,0,0,364,479,327,420,401,450,562,563,328,346,348,285,0,
1,1775671355968,-11299,6001,20861,8274780,1417207,3385415,0,0,0,225,297,229,246,191,287,287,248,272,147,210,127,0,
2,1775671355968,1196,1569,10279,68416,-118507,-17104,0,0,0,373,481,334,422,404,455,565,568,324,244,304,305,0,
1,1775671355984,-11452,8561,13204,7574728,1387885,3530801,0,0,0,227,302,233,249,197,294,290,254,277,151,220,130,0,
2,1775671355984,1162,1617,10169,94073,-63529,4886,0,0,0,380,483,336,429,405,460,565,565,330,259,327,313,0,
1,1775671356000,-8236,12026,10787,5511226,1009149,2748893,0,0,0,225,306,231,250,203,296,293,259,276,155,226,132,0,
2,1775671356000,1115,1622,10179,173485,-48869,-1221,0,0,0,380,481,338,425,402,458,567,567,332,247,293,319,0,
1,1775671356016,-4675,15864,10289,1386664,735481,251676,0,0,0,224,308,227,251,206,295,295,260,273,158,228,132,0,
2,1775671356016,1072,1603,10179,261450,-46425,-25656,0,0,0,387,487,331,429,404,463,568,567,340,247,285,328,0,
1,1775671356032,-3900,14534,8887,-2315179,927293,-2250427,0,0,0,226,310,227,252,207,293,297,261,271,159,228,131,0,
2,1775671356032,1033,1612,10160,326202,-4886,-35430,0,0,0,391,487,332,431,405,465,565,553,337,251,276,344,0,
1,1775671356048,-6307,8700,6274,-3695734,1103222,-3059213,0,0,0,225,311,227,252,207,292,300,263,271,159,230,130,0,
2,1775671356048,1033,1593,10112,382401,48869,-35430,0,0,0,399,490,334,435,406,469,563,533,339,248,254,359,0,
1,1775671356064,-7695,5206,4197,-3822794,742812,-2586403,0,0,0,223,310,226,253,205,294,300,263,273,158,230,130,0,
2,1775671356064,1081,1445,9968,422718,96516,-35430,0,0,0,404,492,334,434,404,468,563,518,343,247,239,367,0,
1,1775671356080,-6853,4522,3479,-3717725,106290,-1584584,0,0,0,223,310,226,256,207,296,302,263,273,161,232,130,0,
2,1775671356080,1167,1320,9849,432492,118507,-41538,0,0,0,409,489,330,439,407,475,563,505,346,242,225,376,0,
1,1775671356096,-5039,5015,4623,-4043927,-50090,-910189,0,0,0,223,310,226,255,208,296,306,264,273,161,233,126,0,
2,1775671356096,1306,1287,9820,428827,100181,-48869,0,0,0,415,490,331,442,411,481,558,490,349,238,213,387,0,
1,1775671356112,-4268,5168,6207,-4601036,101403,-586430,0,0,0,228,310,228,255,206,296,302,264,273,163,233,127,0,
2,1775671356112,1387,1253,9844,417831,29321,-53756,0,0,0,422,494,331,445,416,484,555,478,354,239,203,398,0,
1,1775671356128,-4910,4642,7915,-5294979,189368,-552222,0,0,0,230,309,226,255,202,294,308,267,273,164,235,127,0,
2,1775671356128,1373,1158,9849,397062,-39095,-57421,0,0,0,433,500,331,451,423,489,555,467,358,239,194,409,0,
1,1775671356144,-5757,3862,9480,-5866749,-18325,-630412,0,0,0,228,312,227,255,202,292,306,266,270,167,236,129,0,
2,1775671356144,1306,1062,9858,370184,-84299,-62308,0,0,0,441,506,336,455,428,496,553,450,364,235,190,421,0,
1,1775671356160,-6097,3149,10954,-6262590,-393397,-818559,0,0,0,230,313,230,256,203,295,309,265,273,164,232,125,0,
2,1775671356160,1229,1019,9873,350636,-97738,-64751,0,0,0,444,507,337,456,432,503,552,438,369,236,184,433,0,
1,1775671356176,-6245,2479,12481,-6566801,-709825,-1161865,0,0,0,228,311,231,257,205,298,310,266,275,164,233,128,0,
2,1775671356176,1158,1005,9916,350636,-85521,-67195,0,0,0,456,512,340,454,430,506,542,421,367,236,176,445,0,
1,1775671356192,-7106,1560,14352,-6778160,-1012814,-1637118,0,0,0,229,315,232,258,206,296,310,267,276,165,235,127,0,
2,1775671356192,1167,981,10016,377514,-47647,-67195,0,0,0,459,515,334,462,440,506,546,402,375,255,179,453,0,
1,1775671356208,-8178,550,16721,-6852686,-1442863,-1953547,0,0,0,228,314,231,256,206,295,311,268,277,163,234,125,0,
2,1775671356208,1253,923,10102,412944,-23212,-69638,0,0,0,467,525,350,471,449,522,545,386,376,247,171,469,0,
1,1775671356224,-8796,-172,19621,-6867347,-1874134,-2094046,0,0,0,230,313,232,253,213,294,312,270,278,163,232,124,0,
2,1775671356224,1397,856,10155,452040,-14660,-84299,0,0,0,472,524,345,471,452,514,537,353,377,252,171,487,0,
1,1775671356240,-9265,-703,23570,-6913772,-2213775,-2178345,0,0,0,229,312,235,253,211,295,312,266,277,163,229,124,0,
2,1775671356240,1646,780,10112,489913,8552,-135612,0,0,0,483,524,337,471,460,516,533,325,382,253,166,499,0,
1,1775671356256,-10107,-1737,27609,-6969972,-2441017,-2294409,0,0,0,227,310,234,255,203,297,313,263,277,164,226,126,0,
2,1775671356256,1732,655,10122,522900,53756,-218689,0,0,0,485,531,338,474,468,517,524,305,381,261,170,515,0,
1,1775671356272,-10504,-4991,31452,-6956533,-2846632,-2438574,0,0,0,227,313,233,257,207,299,315,265,281,166,226,126,0,
2,1775671356272,1493,603,10471,603534,85521,-291993,0,0,0,497,542,339,481,476,523,514,283,400,265,170,532,0,
1,1775671356288,-8111,-11385,34453,-6798930,-3626096,-2472782,0,0,0,227,318,231,258,209,300,318,265,281,165,227,123,0,
2,1775671356288,1359,665,10983,840550,10995,-294437,0,0,0,506,546,335,484,481,526,496,258,400,290,188,558,0,
1,1775671356304,-2799,-22091,34146,-6500827,-3739716,-2312735,0,0,0,228,317,229,261,205,300,322,262,282,170,224,122,0,
2,1775671356304,1598,603,11170,1077566,-94073,-289550,0,0,0,509,547,327,489,488,530,473,236,394,290,189,571,0,
1,1775671356320,689,-35276,27805,-5839871,-2879618,-1804495,0,0,0,229,314,229,261,201,300,323,257,282,177,224,122,0,
2,1775671356320,1608,478,11596,1325577,-124616,-315206,0,0,0,510,552,315,496,499,536,451,229,397,279,182,581,0,
1,1775671356336,3354,-46853,18023,-4105014,-2032959,-153938,0,0,0,229,318,229,267,209,302,328,264,284,178,229,125,0,
2,1775671356336,1301,397,12232,1635897,-57421,-335975,0,0,0,518,557,298,497,506,539,414,257,399,274,177,593,0,
1,1775671356352,11572,-50729,13869,-1835039,-1505171,1663996,0,0,0,226,300,216,267,200,296,339,277,284,200,253,119,0,
2,1775671356352,971,306,12873,2052507,94073,-316428,0,0,0,524,559,278,493,507,538,371,264,398,272,173,601,0,
1,1775671356368,16027,-42450,18166,422718,408057,1830152,0,0,0,225,283,199,265,189,279,394,354,270,236,326,107,0,
2,1775671356368,1296,258,13625,2497217,200363,-296880,0,0,0,519,556,260,491,514,536,348,208,405,273,177,605,0,
1,1775671356384,6479,-17138,20339,2654820,3513696,874759,0,0,0,239,261,165,262,172,246,435,412,249,268,374,88,0,
2,1775671356384,2244,229,14773,3070208,177150,-344527,0,0,0,523,550,246,495,524,542,311,192,398,273,178,611,0,
1,1775671356400,-7355,12505,14477,4135557,5629734,-313984,0,0,0,246,256,149,271,166,244,458,453,254,298,403,79,0,
2,1775671356400,3053,201,16022,3789807,32986,-503352,0,0,0,522,539,245,489,520,542,285,180,400,271,178,606,0,
1,1775671356416,-3584,9313,12395,4963890,4423886,-761138,0,0,0,243,254,144,280,164,254,478,478,265,343,418,81,0,
2,1775671356416,3895,392,17530,4649906,-101403,-751364,0,0,0,515,528,238,486,504,538,274,163,406,261,171,586,0,
1,1775671356432,5733,-2134,18774,5368283,1855808,-511905,0,0,0,244,258,154,290,169,267,489,489,272,372,425,84,0,
2,1775671356432,4508,574,20052,5541769,-164933,-1045801,0,0,0,521,526,251,486,493,531,269,158,400,260,165,548,0,
1,1775671356448,4087,-2364,22694,4332256,548556,426383,0,0,0,255,275,179,302,185,284,491,492,280,387,431,98,0,
2,1775671356448,5053,550,24120,6588792,-163711,-1323134,0,0,0,469,497,244,472,477,524,271,153,402,226,149,459,0,
1,1775671356464,-2201,-564,20014,2861292,111177,748920,0,0,0,261,287,217,314,197,316,496,497,299,400,439,117,0,
2,1775671356464,5541,1086,28221,7535633,94073,-1518610,0,0,0,406,469,212,448,447,490,273,158,375,210,135,389,0,
1,1775671356480,-5561,258,12677,1353677,123394,78190,0,0,0,267,291,249,330,203,349,508,508,319,408,449,147,0,
2,1775671356480,5388,2048,30720,8286997,540004,-1692096,0,0,0,347,448,205,405,413,450,291,177,332,174,117,334,0,
1,1775671356496,-2766,0,9624,678060,174707,-299323,0,0,0,286,298,255,351,210,360,520,520,327,416,460,190,0,
2,1775671356496,6049,2613,31098,8874650,1158200,-1949881,0,0,0,280,428,217,357,381,401,298,231,290,137,121,239,0,
1,1775671356512,-1292,129,9786,288328,207694,-207694,0,0,0,306,305,256,366,214,365,529,529,328,424,469,204,0,
