sole_id,timestamp,accel_x,accel_y,accel_z,gyro_x,gyro_y,gyro_z,magn_x,magn_y,magn_z,pressure_01,pressure_02,pressure_03,pressure_04,pressure_05,pressure_06,pressure_07,pressure_08,pressure_09,pressure_10,pressure_11,pressure_12,corrupt,grass
1,1775670637872,-1957,842,9724,15882,-35430,10995,0,0,0,368,442,292,401,311,457,501,364,353,372,361,365,0,
2,1775670637872,1497,1263,9844,-3665,-54977,-9773,0,0,0,466,507,345,454,413,480,543,486,337,235,196,375,0,
1,1775670637888,-1952,823,9724,13439,-31764,10995,0,0,0,370,442,294,402,311,458,502,365,353,373,361,366,0,
2,1775670637888,1502,1268,9815,-15882,-54977,-10995,0,0,0,466,507,345,455,414,480,543,487,337,234,196,372,0,
1,1775670637904,-1952,823,9743,12217,-31764,10995,0,0,0,368,441,292,403,312,457,501,367,351,373,362,366,0,
2,1775670637904,1493,1277,9796,-29321,-57421,-8552,0,0,0,464,505,345,456,414,480,541,487,334,236,199,372,0,
1,1775670637920,-1952,837,9748,9773,-28099,8552,0,0,0,368,441,290,403,312,455,500,369,350,373,363,365,0,
2,1775670637920,1493,1296,9801,-35430,-59864,-7330,0,0,0,466,507,346,457,413,479,535,503,345,273,224,374,0,
1,1775670637936,-1952,842,9753,8552,-25656,6108,0,0,0,371,443,292,402,311,455,501,369,350,373,364,363,0,
2,1775670637936,1493,1316,9815,-32986,-62308,-8552,0,0,0,466,506,344,456,410,477,537,502,345,268,221,373,0,
1,1775670637952,-1947,837,9758,8552,-24434,4886,0,0,0,372,443,293,400,309,455,498,365,350,372,363,362,0,
2,1775670637952,1493,1340,9830,-19547,-63529,-9773,0,0,0,468,507,344,458,412,478,540,488,334,237,201,370,0,
1,1775670637968,-1947,837,9763,12217,-24434,4886,0,0,0,372,444,295,398,308,454,488,361,354,373,363,364,0,
2,1775670637968,1497,1344,9844,-6108,-62308,-10995,0,0,0,468,507,344,459,414,481,538,488,333,235,199,368,0,
1,1775670637984,-1962,851,9777,17104,-24434,7330,0,0,0,368,443,294,397,309,454,500,366,352,373,362,363,0,
2,1775670637984,1488,1349,9863,3665,-58643,-13439,0,0,0,463,502,338,457,412,478,543,493,337,236,199,368,0,
1,1775670638000,-1952,851,9782,21991,-23212,8552,0,0,0,368,444,292,397,311,454,503,367,353,374,358,361,0,
2,1775670638000,1488,1340,9868,12217,-56199,-15882,0,0,0,466,504,343,455,411,477,540,492,336,237,200,369,0,
1,1775670638016,-1947,847,9772,25656,-23212,9773,0,0,0,368,443,291,404,316,458,500,361,351,370,360,362,0,
2,1775670638016,1497,1325,9849,18325,-57421,-17104,0,0,0,466,505,344,459,414,481,519,477,333,234,196,369,0,
1,1775670638032,-1943,832,9758,29321,-23212,9773,0,0,0,369,445,292,399,312,454,499,363,352,366,361,364,0,
2,1775670638032,1488,1325,9834,20769,-57421,-17104,0,0,0,464,505,342,458,416,480,536,490,335,234,196,369,0,
1,1775670638048,-1943,832,9758,31764,-23212,10995,0,0,0,368,446,293,401,313,456,496,358,352,366,356,363,0,
2,1775670638048,1488,1335,9834,21991,-58643,-15882,0,0,0,467,508,344,455,411,479,546,497,342,237,199,371,0,
1,1775670638064,-1947,832,9748,31764,-19547,10995,0,0,0,366,445,291,402,314,456,473,348,357,362,354,361,0,
2,1775670638064,1497,1335,9839,23212,-61086,-14660,0,0,0,464,504,342,459,414,482,544,496,336,237,201,371,0,
1,1775670638080,-1943,823,9734,29321,-15882,10995,0,0,0,367,445,292,401,311,455,479,349,355,363,354,362,0,
2,1775670638080,1497,1325,9839,21991,-63529,-14660,0,0,0,464,504,341,460,415,484,529,486,338,234,197,369,0,
1,1775670638096,-1943,818,9748,28099,-15882,10995,0,0,0,366,442,291,401,310,455,492,352,351,366,355,364,0,
2,1775670638096,1483,1320,9844,20769,-64751,-14660,0,0,0,467,507,349,459,413,484,538,493,338,236,200,371,0,
1,1775670638112,-1938,818,9767,25656,-14660,10995,0,0,0,367,438,288,403,312,453,493,351,350,368,354,362,0,
2,1775670638112,1478,1320,9849,18325,-63529,-14660,0,0,0,467,507,350,459,413,484,541,494,336,237,201,371,0,
1,1775670638128,-1938,818,9782,25656,-14660,10995,0,0,0,371,435,285,404,312,446,492,351,348,367,351,354,0,
2,1775670638128,1478,1325,9844,15882,-62308,-13439,0,0,0,467,507,345,460,415,485,542,495,338,237,201,371,0,
1,1775670638144,-1938,823,9786,28099,-13439,10995,0,0,0,369,432,283,401,309,441,489,350,346,361,347,350,0,
2,1775670638144,1478,1316,9839,13439,-59864,-12217,0,0,0,465,505,340,460,417,486,543,496,339,235,201,372,0,
1,1775670638160,-1933,818,9782,29321,-12217,10995,0,0,0,369,432,283,403,308,442,489,347,342,364,342,353,0,
2,1775670638160,1478,1316,9839,8552,-57421,-10995,0,0,0,463,504,337,460,415,485,543,494,337,234,201,371,0,
1,1775670638176,-1928,818,9782,30543,-10995,12217,0,0,0,370,431,285,402,306,441,488,352,342,362,335,352,0,
2,1775670638176,1493,1325,9839,4886,-57421,-10995,0,0,0,464,505,338,460,414,484,541,492,335,236,201,370,0,
1,1775670638192,-1923,823,9777,34208,-13439,13439,0,0,0,368,430,281,404,307,441,485,346,342,366,332,352,0,
2,1775670638192,1502,1330,9844,0,-61086,-9773,0,0,0,464,507,338,463,430,478,541,496,335,238,202,372,0,
1,1775670638208,-1923,818,9777,35430,-14660,13439,0,0,0,368,430,283,402,304,441,490,335,347,368,325,351,0,
2,1775670638208,1483,1325,9844,-6108,-64751,-7330,0,0,0,461,504,337,466,447,465,544,501,336,241,203,372,0,
1,1775670638224,-1928,804,9782,39095,-13439,14660,0,0,0,372,430,285,399,300,438,481,337,342,361,324,349,0,
2,1775670638224,1459,1330,9825,-15882,-64751,-6108,0,0,0,463,506,339,457,412,479,545,495,340,240,206,371,0,
1,1775670638240,-1919,804,9772,39095,-10995,14660,0,0,0,373,430,282,401,301,438,479,327,343,360,325,346,0,
2,1775670638240,1450,1340,9801,-34208,-59864,-1221,0,0,0,463,506,339,461,417,483,541,489,334,239,209,367,0,
1,1775670638256,-1904,804,9772,40317,-10995,14660,0,0,0,386,427,281,403,302,439,468,325,344,357,323,347,0,
2,1775670638256,1464,1359,9801,-47647,-59864,0,0,0,0,464,508,340,459,416,479,541,488,336,239,208,363,0,
1,1775670638272,-1895,794,9786,41538,-12217,14660,0,0,0,383,429,284,402,302,440,466,321,346,353,322,343,0,
2,1775670638272,1488,1373,9825,-56199,-62308,2443,0,0,0,455,502,338,458,415,483,543,489,336,239,216,367,0,
1,1775670638288,-1899,780,9791,41538,-13439,14660,0,0,0,375,431,284,400,304,441,464,317,345,354,321,339,0,
2,1775670638288,1483,1373,9834,-61086,-64751,2443,0,0,0,457,502,339,459,415,477,543,490,334,240,215,358,0,
1,1775670638304,-1919,780,9791,41538,-10995,13439,0,0,0,371,431,279,400,305,438,459,314,342,354,318,332,0,
2,1775670638304,1459,1378,9830,-63529,-65973,3665,0,0,0,457,500,342,459,415,475,542,491,334,242,217,354,0,
1,1775670638320,-1914,780,9801,42760,-6108,13439,0,0,0,372,431,277,401,304,434,456,310,339,353,313,323,0,
2,1775670638320,1454,1407,9820,-67195,-63529,6108,0,0,0,457,503,341,459,412,470,545,495,334,241,215,350,0,
1,1775670638336,-1904,784,9830,47647,-6108,14660,0,0,0,373,433,278,400,303,431,457,308,337,350,310,317,0,
2,1775670638336,1474,1450,9834,-67195,-64751,8552,0,0,0,461,504,339,460,413,470,547,496,332,241,217,347,0,
1,1775670638352,-1909,765,9849,53756,-6108,15882,0,0,0,368,432,281,392,300,425,445,308,330,334,308,310,0,
2,1775670638352,1464,1469,9858,-65973,-65973,9773,0,0,0,463,503,336,459,412,468,549,501,332,244,224,347,0,
1,1775670638368,-1933,756,9858,61086,-6108,19547,0,0,0,375,431,295,389,301,419,429,298,323,325,305,307,0,
2,1775670638368,1445,1478,9853,-59864,-65973,7330,0,0,0,458,498,332,458,411,467,544,500,328,243,226,345,0,
1,1775670638384,-1981,775,9877,75747,1221,31764,0,0,0,365,425,271,394,308,427,422,303,330,327,306,308,0,
2,1775670638384,1454,1497,9834,-46425,-65973,3665,0,0,0,454,496,329,460,413,468,545,503,328,242,226,345,0,
1,1775670638400,-2053,804,9954,101403,20769,48869,0,0,0,368,422,268,392,301,415,423,301,327,323,297,293,0,
2,1775670638400,1459,1512,9834,-29321,-67195,2443,0,0,0,455,499,331,463,415,471,550,509,330,242,226,344,0,
1,1775670638416,-2134,813,10141,151494,72082,80634,0,0,0,374,422,265,397,305,418,416,295,326,325,299,289,0,
2,1775670638416,1450,1517,9825,-13439,-67195,1221,0,0,0,457,501,331,464,415,474,548,507,328,241,227,341,0,
1,1775670638432,-2081,813,10318,216246,145385,106290,0,0,0,388,409,258,398,297,408,404,293,319,320,293,281,0,
2,1775670638432,1450,1526,9815,0,-65973,0,0,0,0,458,502,334,465,417,475,550,507,328,244,231,342,0,
1,1775670638448,-1981,818,10480,305432,218689,122173,0,0,0,372,415,260,393,295,401,384,293,317,307,293,273,0,
2,1775670638448,1450,1517,9825,4886,-63529,0,0,0,0,457,501,339,462,415,471,549,506,328,240,225,340,0,
1,1775670638464,-1890,799,10653,416610,255341,134390,0,0,0,365,406,253,384,294,395,369,290,313,302,298,273,0,
2,1775670638464,1450,1502,9839,6108,-59864,0,0,0,0,455,501,334,467,420,477,546,503,325,245,228,345,0,
1,1775670638480,-1813,756,10844,541226,272445,145385,0,0,0,370,403,244,381,287,378,361,289,302,304,300,253,0,
2,1775670638480,1450,1502,9839,7330,-57421,0,0,0,0,455,499,343,467,419,478,549,511,330,240,226,343,0,
1,1775670638496,-1770,703,10993,674395,295658,147829,0,0,0,374,400,241,380,285,361,358,286,293,305,300,256,0,
2,1775670638496,1454,1521,9830,15882,-57421,0,0,0,0,455,499,331,463,434,469,544,509,327,240,225,345,0,
1,1775670638512,-1751,622,11040,792903,343306,146607,0,0,0,371,404,237,375,293,355,354,283,286,303,298,249,0,
2,1775670638512,1450,1526,9830,25656,-56199,-1221,0,0,0,462,503,335,458,420,475,543,508,329,239,225,347,0,
1,1775670638528,-1742,545,11093,915076,401949,142942,0,0,0,371,401,239,367,290,356,349,283,282,299,298,236,0,
2,1775670638528,1435,1517,9815,28099,-50090,-2443,0,0,0,460,503,337,457,417,474,545,508,331,239,223,348,0,
1,1775670638544,-1703,430,11155,1028697,463035,138055,0,0,0,373,391,244,355,281,355,346,288,283,293,307,236,0,
2,1775670638544,1430,1507,9815,28099,-43982,-3665,0,0,0,460,503,342,455,413,472,545,509,330,242,228,352,0,
1,1775670638560,-1708,306,11241,1134987,519235,136833,0,0,0,365,396,245,336,286,352,343,291,284,283,314,227,0,
2,1775670638560,1445,1512,9825,29321,-40317,-3665,0,0,0,461,503,341,455,414,472,547,508,330,240,224,356,0,
1,1775670638576,-1737,148,11337,1244943,585208,142942,0,0,0,363,383,271,325,266,354,345,277,289,287,308,215,0,
2,1775670638576,1469,1526,9849,36651,-36651,-4886,0,0,0,463,504,342,454,413,473,546,506,329,241,223,359,0,
1,1775670638592,-1608,0,11418,1347568,687834,152716,0,0,0,360,368,262,324,259,342,346,287,285,283,310,203,0,
2,1775670638592,1474,1521,9853,43982,-34208,-7330,0,0,0,463,506,342,454,413,477,545,506,329,242,225,359,0,
1,1775670638608,-1373,-105,11500,1425759,839328,136833,0,0,0,330,365,242,310,245,330,343,290,278,271,312,183,0,
2,1775670638608,1478,1512,9853,50090,-34208,-10995,0,0,0,462,506,339,458,417,480,545,506,329,243,226,359,0,
1,1775670638624,-1206,-205,11452,1451415,1038470,72082,0,0,0,334,342,241,314,239,323,350,289,276,282,323,169,0,
2,1775670638624,1488,1512,9863,61086,-41538,-13439,0,0,0,463,505,338,460,417,479,546,506,331,245,227,363,0,
1,1775670638640,-1215,-339,11170,1411098,1251052,-32986,0,0,0,298,338,290,297,231,354,352,295,337,272,323,177,0,
2,1775670638640,1493,1507,9858,69638,-46425,-15882,0,0,0,462,506,340,460,415,480,550,509,334,247,230,366,0,
1,1775670638656,-1210,-349,10787,1352455,1444085,-145385,0,0,0,288,321,234,312,217,312,373,294,274,276,319,132,0,
2,1775670638656,1493,1483,9830,69638,-51312,-17104,0,0,0,462,505,345,461,420,488,550,509,336,248,230,371,0,
1,1775670638672,-981,-19,10447,1247386,1604132,-280998,0,0,0,274,309,246,295,207,313,368,298,280,269,323,133,0,
2,1775670638672,1493,1478,9834,68416,-53756,-17104,0,0,0,470,510,345,464,423,492,554,513,339,250,229,377,0,
1,1775670638688,-1282,799,9853,1067792,1737300,-472809,0,0,0,264,303,242,290,207,308,372,302,282,268,325,127,0,
2,1775670638688,1483,1507,9882,84299,-56199,-21991,0,0,0,470,514,350,461,423,493,553,511,338,248,226,384,0,
1,1775670638704,-2703,2325,8805,791681,1626123,-706160,0,0,0,258,306,243,286,208,306,371,303,278,267,326,129,0,
2,1775670638704,1454,1521,9930,120951,-45204,-28099,0,0,0,474,518,357,465,426,494,551,505,334,254,227,384,0,
1,1775670638720,-4379,3948,7748,406836,959058,-1067792,0,0,0,256,310,246,285,210,306,369,304,278,266,326,131,0,
2,1775670638720,1459,1483,9944,149051,-26878,-32986,0,0,0,469,514,344,465,428,496,555,509,344,256,228,392,0,
1,1775670638736,-4718,4484,7374,105068,357967,-1517389,0,0,0,255,311,244,285,212,306,371,306,280,265,325,130,0,
2,1775670638736,1502,1440,9920,153938,-17104,-31764,0,0,0,468,515,344,464,430,493,554,510,344,257,225,393,0,
1,1775670638752,-4608,4388,7336,-101403,75747,-2054950,0,0,0,254,311,243,285,211,305,372,306,279,266,326,130,0,
2,1775670638752,1541,1402,9887,144164,-24434,-26878,0,0,0,469,512,345,464,431,493,555,505,347,255,225,400,0,
1,1775670638768,-4618,4484,7465,-310319,-39095,-2379930,0,0,0,253,311,243,286,210,303,371,308,276,269,327,129,0,
2,1775670638768,1541,1378,9873,133168,-39095,-24434,0,0,0,472,512,352,465,429,493,554,502,344,253,219,400,0,
1,1775670638784,-4565,4637,7757,-647517,-133168,-2423913,0,0,0,254,313,243,286,213,302,371,310,276,268,330,127,0,
2,1775670638784,1512,1354,9849,120951,-50090,-20769,0,0,0,471,512,351,463,430,491,556,504,345,251,214,400,0,
1,1775670638800,-4431,4541,8030,-961501,-228463,-2309070,0,0,0,259,312,245,290,212,304,374,309,277,273,332,126,0,
2,1775670638800,1493,1325,9830,106290,-53756,-18325,0,0,0,470,512,348,465,434,493,559,505,350,251,214,401,0,
1,1775670638816,-4240,4254,8332,-1220508,-315206,-2138028,0,0,0,257,315,244,289,214,304,374,315,277,268,333,126,0,
2,1775670638816,1497,1306,9815,89186,-54977,-15882,0,0,0,474,512,350,466,434,495,554,501,352,248,212,400,0,
1,1775670638832,-4168,3881,8676,-1420872,-395840,-1966986,0,0,0,250,312,244,289,217,307,370,314,275,262,333,127,0,
2,1775670638832,1507,1296,9806,67195,-56199,-13439,0,0,0,480,515,355,463,433,494,552,501,353,246,210,400,0,
1,1775670638848,-4206,3541,9054,-1571145,-485026,-1816713,0,0,0,250,314,244,293,217,307,370,314,274,258,331,124,0,
2,1775670638848,1507,1296,9810,51312,-61086,-12217,0,0,0,481,518,358,465,435,495,558,506,353,248,213,402,0,
1,1775670638864,-4326,3168,9499,-1668883,-591317,-1690874,0,0,0,253,315,244,287,214,303,370,316,273,255,330,123,0,
2,1775670638864,1493,1311,9834,43982,-62308,-10995,0,0,0,480,519,358,465,438,497,558,506,351,246,214,401,0,
1,1775670638880,-4469,2766,9987,-1714087,-693942,-1590693,0,0,0,253,313,246,284,214,300,369,310,274,255,328,125,0,
2,1775670638880,1488,1330,9849,43982,-59864,-10995,0,0,0,480,522,360,463,432,497,559,505,353,241,211,403,0,
1,1775670638896,-4594,2412,10504,-1698205,-775798,-1529606,0,0,0,254,312,244,289,213,300,367,305,271,251,325,125,0,
2,1775670638896,1497,1344,9882,54977,-50090,-10995,0,0,0,471,522,354,471,441,507,564,503,361,246,212,416,0,
1,1775670638912,-4761,2072,10993,-1650557,-842994,-1527163,0,0,0,261,313,243,305,211,301,371,302,270,252,322,124,0,
2,1775670638912,1493,1344,9906,73303,-39095,-10995,0,0,0,480,524,363,459,429,493,562,498,348,251,214,410,0,
1,1775670638928,-4958,1675,11361,-1580919,-918741,-1583362,0,0,0,265,312,243,313,208,300,373,298,269,255,321,124,0,
2,1775670638928,1488,1330,9916,95294,-21991,-13439,0,0,0,475,516,352,476,437,501,557,496,344,254,212,412,0,
1,1775670638944,-5096,1316,11615,-1490511,-987158,-1684766,0,0,0,260,310,242,301,207,299,367,295,268,249,320,125,0,
2,1775670638944,1507,1306,9897,112399,-7330,-17104,0,0,0,474,515,354,470,439,503,560,497,351,248,206,417,0,
1,1775670638960,-5116,1028,11945,-1402546,-1070235,-1831373,0,0,0,253,313,244,284,210,301,360,294,267,238,315,125,0,
2,1775670638960,1531,1282,9882,123394,0,-19547,0,0,0,478,519,358,472,441,503,557,491,344,251,209,420,0,
1,1775670638976,-4967,717,12208,-1359786,-1130100,-1971872,0,0,0,255,316,245,286,210,302,360,294,267,237,307,125,0,
2,1775670638976,1545,1263,9882,131946,1221,-21991,0,0,0,481,522,362,473,440,504,556,486,344,251,206,423,0,
1,1775670638992,-4584,124,12304,-1290147,-1145983,-2091602,0,0,0,252,315,243,283,209,299,362,297,267,247,305,128,0,
2,1775670638992,1560,1253,9901,144164,0,-23212,0,0,0,482,520,362,473,442,506,557,484,349,247,201,425,0,
1,1775670639008,-4044,-603,12366,-1153313,-1109331,-2173458,0,0,0,252,313,241,284,209,299,362,297,267,236,306,128,0,
2,1775670639008,1569,1239,9911,153938,0,-26878,0,0,0,478,517,358,471,441,506,556,480,361,247,199,428,0,
1,1775670639024,-3632,-1306,12414,-994488,-1005484,-2225992,0,0,0,252,313,242,284,209,299,363,298,267,240,306,128,0,
2,1775670639024,1588,1215,9920,164933,-1221,-31764,0,0,0,477,518,359,474,441,507,554,477,364,249,200,436,0,
1,1775670639040,-3929,-1617,12141,-962723,-976162,-2216219,0,0,0,251,313,243,285,213,300,360,301,268,236,306,124,0,
2,1775670639040,1593,1182,9920,177150,-2443,-35430,0,0,0,483,522,368,477,444,509,554,474,357,253,202,443,0,
1,1775670639056,-3747,-2220,11950,-1003040,-1064127,-2173458,0,0,0,251,310,241,282,211,298,333,285,273,236,305,121,0,
2,1775670639056,1574,1148,9897,185703,-3665,-41538,0,0,0,486,524,373,474,443,505,553,468,357,257,199,450,0,
1,1775670639072,-2976,-3847,11552,-855211,-1016479,-2202780,0,0,0,251,310,241,279,207,295,353,298,271,240,308,125,0,
2,1775670639072,1579,1124,9897,190589,0,-41538,0,0,0,483,527,366,473,442,506,550,457,359,255,195,459,0,
1,1775670639088,-3125,-4723,10772,-571769,-930958,-2258979,0,0,0,251,311,244,281,210,297,362,304,270,242,306,127,0,
2,1775670639088,1627,1100,9920,197920,0,-42760,0,0,0,483,528,363,472,443,508,550,447,359,254,193,465,0,
1,1775670639104,-3732,-3479,10169,-445931,-907745,-2193006,0,0,0,253,314,251,278,211,295,363,302,272,242,305,128,0,
2,1775670639104,1655,1057,9925,207694,-3665,-46425,0,0,0,483,524,359,481,446,521,549,435,368,252,185,466,0,
1,1775670639120,-3579,-1986,9868,-629191,-838107,-1892460,0,0,0,250,317,249,277,213,295,360,304,274,239,310,127,0,
2,1775670639120,1655,1019,9925,213802,-9773,-53756,0,0,0,486,540,356,483,451,521,549,435,365,253,183,462,0,
1,1775670639136,-2861,-2230,9351,-685390,-769690,-1590693,0,0,0,249,318,245,279,214,297,361,308,274,238,310,125,0,
2,1775670639136,1646,995,9944,221133,-12217,-59864,0,0,0,487,539,349,485,453,513,546,419,368,256,184,469,0,
1,1775670639152,-1923,-2799,9150,-458148,-769690,-1530828,0,0,0,250,317,245,281,213,298,362,307,272,240,305,126,0,
2,1775670639152,1646,966,9949,232128,-12217,-65973,0,0,0,485,539,347,478,454,513,544,402,369,256,179,472,0,
1,1775670639168,-1201,-2967,9246,-190589,-723264,-1714087,0,0,0,249,316,244,282,212,299,352,296,274,240,301,128,0,
2,1775670639168,1679,923,9949,246789,-12217,-72082,0,0,0,488,543,358,476,453,510,537,390,369,257,181,480,0,
1,1775670639184,-1301,-3158,9265,21991,-623082,-2023185,0,0,0,250,314,243,282,212,299,341,286,279,238,298,126,0,
2,1775670639184,1718,885,9978,262672,-9773,-79412,0,0,0,492,546,358,482,456,522,532,374,369,254,177,487,0,
1,1775670639200,-2340,-3838,8930,240680,-553443,-2214997,0,0,0,252,314,246,285,214,301,365,302,275,240,302,127,0,
2,1775670639200,1756,847,10021,285884,-4886,-89186,0,0,0,499,548,366,486,460,524,526,365,373,260,180,494,0,
1,1775670639216,-3005,-4498,8710,419053,-588874,-2153910,0,0,0,254,316,252,284,214,299,360,301,270,236,302,127,0,
2,1775670639216,1785,808,10078,322536,8552,-108734,0,0,0,502,546,365,491,464,525,523,348,382,364,219,486,0,
1,1775670639232,-2617,-5159,8753,590095,-638965,-1954768,0,0,0,254,316,249,281,216,299,360,302,270,236,304,127,0,
2,1775670639232,1799,770,10155,375071,43982,-139277,0,0,0,507,545,353,486,462,529,523,334,387,340,204,496,0,
1,1775670639248,-1828,-5910,8906,790459,-619417,-1750739,0,0,0,246,305,235,284,213,299,367,304,271,241,305,127,0,
2,1775670639248,1837,746,10265,470366,91629,-174707,0,0,0,507,547,345,483,461,528,517,319,383,261,169,512,0,
1,1775670639264,-325,-6810,9552,1020144,-431270,-1622458,0,0,0,249,300,234,279,205,289,377,319,270,242,314,123,0,
2,1775670639264,1890,713,10375,574213,114842,-200363,0,0,0,503,548,337,489,465,526,504,303,379,260,168,523,0,
1,1775670639280,3062,-7705,11074,1437976,260228,-1682322,0,0,0,253,293,236,281,197,280,408,338,263,254,334,110,0,
2,1775670639280,1914,622,10471,676838,131946,-219911,0,0,0,503,547,324,490,469,526,485,292,385,280,197,533,0,
1,1775670639296,4575,-4857,12160,1982868,1231504,-2029294,0,0,0,253,289,230,291,195,278,424,354,254,273,356,104,0,
2,1775670639296,1986,492,10576,779464,169820,-244346,0,0,0,503,545,313,494,474,529,466,275,397,315,249,532,0,
1,1775670639312,3799,3369,12179,2150245,1147204,-2146580,0,0,0,254,289,232,294,193,281,432,370,255,289,373,105,0,
2,1775670639312,2153,402,10782,906524,206472,-283441,0,0,0,504,547,310,492,474,534,456,278,406,308,237,546,0,
1,1775670639328,4225,6709,11945,1993864,470366,-1631010,0,0,0,259,298,237,294,194,283,433,374,256,297,390,106,0,
2,1775670639328,2440,325,11021,1051909,196698,-332310,0,0,0,501,541,298,499,484,537,443,280,411,289,197,550,0,
1,1775670639344,4345,3187,12423,1962099,-58643,-486248,0,0,0,261,304,242,296,200,287,437,383,257,301,398,103,0,
2,1775670639344,2761,186,11213,1225395,144164,-408057,0,0,0,501,533,282,486,484,533,430,271,410,266,181,546,0,
1,1775670639360,2392,435,13165,1875356,-432492,417831,0,0,0,263,306,251,300,206,297,443,392,262,314,396,107,0,
2,1775670639360,2732,52,11380,1434311,73303,-505796,0,0,0,505,538,283,490,480,540,402,266,394,265,169,561,0,
1,1775670639376,-985,-181,13184,1447750,-763581,724486,0,0,0,272,312,257,307,209,302,444,386,261,330,397,113,0,
2,1775670639376,2517,-52,11615,1649336,3665,-574213,0,0,0,515,528,268,487,486,543,382,265,398,265,171,559,0,
1,1775670639392,-2971,516,11892,889419,-834441,525344,0,0,0,290,318,250,322,219,296,447,387,256,324,396,108,0,
2,1775670639392,2565,-205,11959,1886351,-52534,-618195,0,0,0,510,519,262,483,487,544,361,260,382,261,173,568,0,
1,1775670639408,-2617,1301,10160,605978,-553443,278554,0,0,0,309,321,268,323,223,305,451,394,269,335,401,135,0,
2,1775670639408,2885,-397,12476,2219884,-74525,-700051,0,0,0,505,527,260,483,489,545,347,249,383,250,169,566,0,
1,1775670639424,-1823,1316,9595,572991,-338419,205250,0,0,0,325,329,262,336,228,323,458,384,292,348,394,163,0,x
2,1775670639424,3043,-478,13146,2590068,-69638,-806342,0,0,0,508,526,256,476,490,533,331,238,387,247,165,555,0,x
1,1775670639440,-1631,832,9758,494800,-208915,177150,0,0,0,329,334,264,348,233,322,470,392,274,342,395,173,0,
2,1775670639440,3273,-626,14189,3089756,-37873,-937067,0,0,0,504,512,256,464,481,519,309,222,385,243,155,538,0,
1,1775670639456,-1952,550,9806,290771,-100181,116064,0,0,0,335,340,295,349,231,338,477,392,284,350,394,194,0,
2,1775670639456,3924,-971,15343,3622430,52534,-1082453,0,0,0,489,502,253,461,475,519,295,195,383,231,146,501,0,
1,1775670639472,-1895,708,9600,139277,28099,41538,0,0,0,335,350,291,359,246,348,484,400,289,360,405,206,0,
2,1775670639472,5345,-1421,16525,4217413,283441,-1306029,0,0,0,466,495,247,455,468,518,288,170,382,217,138,454,0,
1,1775670639488,-1698,641,9806,51312,102625,-1221,0,0,0,345,347,282,393,242,356,500,407,297,379,398,208,0,
2,1775670639488,6503,-1359,17535,4717101,641408,-1638340,0,0,0,430,483,240,441,451,502,286,166,377,206,131,410,0,
1,1775670639504,-1450,598,10145,-7330,78190,-25656,0,0,0,354,341,306,393,246,373,503,406,309,391,403,231,0,
2,1775670639504,7274,-1354,18119,5061629,951728,-1995085,0,0,0,389,469,223,430,440,479,292,178,364,195,131,366,0,
1,1775670639520,-1335,756,10299,-29321,-6108,-41538,0,0,0,353,346,328,394,246,389,514,407,320,400,399,249,0,
2,1775670639520,8279,-2019,17946,5247332,1381777,-2425134,0,0,0,354,453,211,408,420,453,300,205,338,175,123,323,0,
1,1775670639536,-1464,976,10279,2443,-124616,-50090,0,0,0,350,354,334,403,255,401,523,408,328,402,395,262,0,
2,1775670639536,7896,-1775,16721,5132489,2169793,-3010343,0,0,0,322,435,215,374,401,420,311,254,307,147,116,286,0,
1,1775670639552,-1742,1000,10141,68416,-166155,-39095,0,0,0,352,365,329,403,267,409,525,408,335,412,398,277,0,
2,1775670639552,6546,-373,14290,4817283,2858849,-3558900,0,0,0,275,414,216,348,370,387,325,294,283,133,121,208,0,
1,1775670639568,-1919,923,10031,113620,-142942,-24434,0,0,0,362,374,330,398,269,414,527,410,337,421,402,288,0,
2,1775670639568,5063,1909,10557,4190535,3139847,-3984063,0,0,0,263,412,224,334,362,385,330,311,280,210,172,187,0,
1,1775670639584,-1904,823,9997,133168,-72082,-6108,0,0,0,371,384,333,399,273,414,531,415,331,416,403,290,0,
2,1775670639584,3163,5714,7709,3075095,2779436,-4291939,0,0,0,256,419,226,334,362,385,334,311,282,122,127,191,0,
1,1775670639600,-1804,799,10026,139277,-17104,3665,0,0,0,373,403,328,407,285,406,530,416,329,416,403,292,0,
2,1775670639600,1268,11921,8379,834441,1672549,-4320038,0,0,0,256,420,225,334,364,382,330,310,274,114,124,186,0,
1,1775670639616,-1737,823,10054,145385,1221,8552,0,0,0,373,405,343,418,287,417,528,420,336,421,404,302,0,
2,1775670639616,-234,14166,10294,-2167349,561996,-3778812,0,0,0,255,424,228,335,366,381,330,312,272,114,124,185,0,
1,1775670639632,-1722,823,10035,158824,1221,9773,0,0,0,366,410,344,400,285,429,532,419,343,417,407,311,0,
2,1775670639632,-1363,11366,9428,-3627317,40317,-3163060,0,0,0,257,424,226,336,369,381,331,315,272,118,126,188,0,
1,1775670639648,-1722,799,10011,175929,1221,15882,0,0,0,374,410,357,393,277,435,528,413,348,417,410,328,0,
2,1775670639648,-2220,8269,7250,-3707952,-29321,-2522873,0,0,0,254,425,226,337,368,380,332,315,273,117,123,187,0,
1,1775670639664,-1689,741,9940,175929,0,23212,0,0,0,376,407,323,397,277,427,522,405,343,426,410,321,0,
2,1775670639664,-2747,7901,6475,-3560122,164933,-1952325,0,0,0,252,428,228,337,369,381,332,316,274,113,122,187,0,
1,1775670639680,-1651,689,9844,157603,0,32986,0,0,0,386,418,332,396,280,434,521,394,348,421,401,327,0,
2,1775670639680,-3091,8954,7312,-3764151,507018,-1419650,0,0,0,252,430,229,337,371,382,331,317,275,114,124,188,0,
1,1775670639696,-1617,665,9777,127059,-2443,43982,0,0,0,382,413,335,397,287,437,522,390,351,413,397,332,0,
2,1775670639696,-3038,8882,8231,-4140444,762359,-952949,0,0,0,252,429,229,339,370,383,333,319,277,126,139,190,0,
1,1775670639712,-1617,665,9763,105068,-2443,50090,0,0,0,385,416,341,402,289,435,517,384,349,409,390,324,0,
2,1775670639712,-2847,8442,8906,-4387234,951728,-598647,0,0,0,253,429,230,338,368,383,331,319,278,140,160,190,0,
1,1775670639728,-1636,655,9772,92851,2443,54977,0,0,0,390,416,338,399,281,429,518,378,344,409,388,325,0,
2,1775670639728,-2971,8212,9786,-4601036,1144761,-332310,0,0,0,253,429,230,338,368,382,328,316,277,141,162,188,0,
1,1775670639744,-1627,655,9786,84299,19547,57421,0,0,0,399,428,330,395,305,423,520,383,343,406,391,325,0,
2,1775670639744,-3699,7949,11141,-4940678,1313360,-107512,0,0,0,251,428,231,341,370,386,338,322,280,139,159,188,0,
1,1775670639760,-1569,660,9791,75747,29321,57421,0,0,0,403,440,321,397,329,423,515,387,344,406,396,328,0,
2,1775670639760,-4402,7307,12510,-5257106,1403768,87964,0,0,0,253,428,231,343,369,388,338,323,282,142,160,191,0,
1,1775670639776,-1512,660,9796,68416,25656,51312,0,0,0,396,433,325,404,327,426,511,383,345,409,396,331,0,
2,1775670639776,-4948,6451,14103,-5464800,1376890,301767,0,0,0,258,431,235,342,368,386,340,322,284,142,164,190,0,
1,1775670639792,-1512,660,9834,65973,15882,41538,0,0,0,395,427,340,405,324,423,514,379,346,410,391,331,0,
2,1775670639792,-5029,5771,15764,-5580864,1227839,500909,0,0,0,261,432,237,345,369,388,344,320,284,142,158,189,0,
1,1775670639808,-1541,641,9839,67195,15882,34208,0,0,0,397,438,329,401,313,418,510,371,344,408,388,333,0,
2,1775670639808,-4446,5149,17315,-5673716,1018923,638965,0,0,0,258,429,235,345,366,389,347,320,286,142,156,190,0,
1,1775670639824,-1541,622,9834,74525,20769,32986,0,0,0,387,438,338,399,299,429,507,365,350,406,381,333,0,
2,1775670639824,-3570,4024,19095,-5747020,855211,697608,0,0,0,258,429,234,345,367,390,344,319,287,143,156,192,0,
1,1775670639840,-1521,636,9882,92851,23212,34208,0,0,0,385,451,345,396,302,429,499,358,344,399,376,333,0,
2,1775670639840,-3029,2613,20947,-5690820,728151,759916,0,0,0,257,425,235,345,367,390,347,319,289,144,156,193,0,
1,1775670639856,-1526,674,9944,130725,17104,37873,0,0,0,400,450,361,408,328,431,498,350,357,376,372,341,0,
2,1775670639856,-2249,1057,22679,-5492900,532674,900415,0,0,0,260,426,236,349,367,392,350,318,290,143,153,190,0,
1,1775670639872,-1536,689,9964,177150,10995,45204,0,0,0,398,437,350,414,292,435,494,339,342,383,355,357,0,
2,1775670639872,-263,-1947,23723,-5268101,288328,1062905,0,0,0,262,425,235,350,368,393,350,317,288,142,150,189,0,
1,1775670639888,-1526,655,9973,227241,3665,56199,0,0,0,399,440,406,405,277,442,438,302,360,360,333,360,0,
2,1775670639888,4187,-7992,23718,-5079955,10995,996932,0,0,0,260,423,235,351,368,394,351,318,289,139,146,188,0,
1,1775670639904,-1507,593,10035,283441,-10995,73303,0,0,0,400,442,413,404,280,453,480,310,358,362,319,384,0,
2,1775670639904,9317,-16305,21316,-4662123,129503,291993,0,0,0,259,423,233,351,367,393,347,318,289,136,143,188,0,
1,1775670639920,-1459,550,10131,346971,-51312,92851,0,0,0,397,446,403,408,291,467,478,306,357,352,310,389,0,
2,1775670639920,9116,-22593,17999,-3820351,739146,-664621,0,0,0,260,424,232,353,369,395,347,320,288,134,140,188,0,
1,1775670639936,-1416,497,10198,404392,-107512,107512,0,0,0,405,463,400,407,321,463,468,287,362,347,303,405,0,
2,1775670639936,861,-24445,15410,-2499660,1408655,-1211956,0,0,0,261,426,234,355,369,398,353,321,288,133,139,187,0,
1,1775670639952,-1507,435,10246,461814,-153938,113620,0,0,0,413,467,410,417,323,470,456,271,373,338,278,416,0,
2,1775670639952,-7599,-24278,14510,-977384,1026253,-643851,0,0,0,265,427,236,354,368,396,353,321,286,131,137,187,0,
1,1775670639968,-1684,354,10313,532674,-171042,127059,0,0,0,411,487,401,442,346,484,446,267,388,329,267,424,0,
2,1775670639968,-6034,-25048,13347,101403,26878,-3665,0,0,0,263,426,237,352,368,394,356,332,285,133,146,185,0,
1,1775670639984,-1770,268,10485,634078,-125838,161268,0,0,0,415,498,358,447,380,492,436,263,395,318,263,435,0,
2,1775670639984,-641,-22885,12557,1061683,-486248,-54977,0,0,0,256,420,234,351,369,390,360,378,272,170,221,175,0,
1,1775670640000,-1684,205,10806,772133,-32986,194255,0,0,0,426,484,317,438,382,490,419,254,397,307,253,451,0,
2,1775670640000,-248,-10849,14491,2010968,-637743,-184481,0,0,0,253,418,225,353,367,383,397,441,262,210,262,169,0,
1,1775670640016,-1622,172,11217,961501,80634,213802,0,0,0,434,486,302,455,368,486,400,243,402,308,243,472,0,
2,1775670640016,76,12256,13472,2447126,-949284,180816,0,0,0,259,404,216,347,359,370,435,465,265,173,225,172,0,
1,1775670640032,-1828,119,11677,1210734,195476,229685,0,0,0,446,499,304,496,360,494,386,233,403,313,229,484,0,
2,1775670640032,2096,18028,7982,2436130,-1242499,566882,0,0,0,264,394,213,347,348,377,449,474,277,186,253,173,0,
1,1775670640048,-2301,9,12213,1492954,328645,268780,0,0,0,436,496,308,500,392,495,361,235,393,309,229,492,0,
2,1775670640048,1387,6891,7796,3276681,-1208291,511905,0,0,0,263,396,213,351,351,383,465,483,272,197,281,171,0,
1,1775670640064,-2881,-86,12735,1814269,513126,371406,0,0,0,439,480,272,460,407,502,304,233,392,286,235,492,0,
2,1775670640064,-1038,-2354,14611,4056145,-687834,222354,0,0,0,263,405,233,353,353,391,477,497,275,228,310,178,0,
1,1775670640080,-3134,-138,13457,2240653,736703,563217,0,0,0,439,480,250,446,397,502,279,222,368,265,216,486,0,
2,1775670640080,-1722,-899,18832,3382971,-222354,-171042,0,0,0,270,416,258,355,353,393,493,504,280,240,320,181,0,
1,1775670640096,-3417,-167,14591,2717128,889419,763581,0,0,0,442,455,234,431,430,461,304,222,385,264,215,458,0,
2,1775670640096,52,2072,17147,2447126,-129503,-463035,0,0,0,285,429,281,364,358,396,506,513,284,239,317,192,0,
1,1775670640112,-4455,-143,16625,3424510,1072679,1059240,0,0,0,431,458,251,387,428,462,245,214,353,210,207,403,0,
2,1775670640112,2282,2129,12897,1685988,-92851,-324980,0,0,0,300,439,298,378,367,411,514,519,293,245,311,217,0,
1,1775670640128,-5546,-215,18698,4078136,1319468,1380555,0,0,0,416,439,254,355,409,435,222,200,324,190,185,338,0,
2,1775670640128,2139,1086,10739,1158200,-48869,-36651,0,0,0,317,445,308,392,374,427,523,523,303,256,311,243,0,
1,1775670640144,-6360,-1005,20315,4664566,1622458,1721418,0,0,0,381,414,246,343,337,412,219,197,309,181,165,293,0,
2,1775670640144,1273,617,10356,653625,-90408,86742,0,0,0,335,453,316,400,376,432,534,533,309,253,309,262,0,
1,1775670640160,-6561,-1387,21052,5241223,1793500,2112371,0,0,0,346,384,252,325,282,379,224,196,284,180,163,272,0,
2,1775670640160,1110,985,10504,260228,-186924,57421,0,0,0,346,458,322,404,378,437,543,542,314,244,301,277,0,
1,1775670640176,-6197,-751,21808,5767789,1820378,2442239,0,0,0,312,355,248,297,249,350,247,213,271,195,199,247,0,
2,1775670640176,933,1234,10538,94073,-193033,21991,0,0,0,354,463,330,410,382,442,545,546,321,262,318,283,0,
1,1775670640192,-7159,550,21880,5959601,2392148,2579073,0,0,0,278,318,237,272,214,313,285,242,262,203,240,186,0,
2,1775670640192,875,1402,10437,42760,-62308,0,0,0,0,358,463,334,411,382,440,546,546,343,285,337,275,0,
1,1775670640208,-7504,1957,19052,5780006,3306002,2537534,0,0,0,265,288,235,265,186,285,314,261,253,200,261,134,0,
2,1775670640208,1091,1588,10294,24434,15882,-7330,0,0,0,363,465,339,417,388,447,548,552,341,284,337,279,0,
1,1775670640224,-7336,4053,13692,5203350,4205196,2254092,0,0,0,271,282,238,272,179,286,322,264,256,203,267,131,0,
2,1775670640224,1244,1765,10203,46425,-2443,-9773,0,0,0,364,465,341,414,382,447,551,552,325,287,337,288,0,
1,1775670640240,-10227,7188,9183,3998723,4068362,1319468,0,0,0,265,286,240,271,179,289,325,261,258,205,258,134,0,
2,1775670640240,1057,1832,10174,113620,-14660,-14660,0,0,0,365,462,341,415,383,450,551,551,322,285,332,296,0,
1,1775670640256,-12663,11026,7920,1667662,1649336,-828333,0,0,0,265,291,240,270,182,287,326,260,258,205,258,134,0,
2,1775670640256,918,1785,10126,180816,30543,-29321,0,0,0,368,465,336,417,384,450,551,550,321,288,329,298,0,
1,1775670640272,-9231,10016,7087,-444709,-122173,-3141069,0,0,0,257,294,238,277,183,287,326,261,258,208,261,138,0,
2,1775670640272,985,1684,10069,222354,101403,-45204,0,0,0,375,470,332,422,385,446,551,546,319,281,316,301,0,
1,1775670640288,-7729,6226,4479,-1297477,-378736,-4057366,0,0,0,241,292,248,269,189,297,330,269,267,204,262,139,0,
2,1775670640288,1095,1608,10002,241902,131946,-53756,0,0,0,374,468,332,423,386,453,548,529,320,339,376,306,0,
1,1775670640304,-7169,5025,3426,-1345125,-613308,-3067765,0,0,0,241,293,244,269,185,293,326,267,262,209,267,139,0,
2,1775670640304,1177,1564,9911,250454,131946,-59864,0,0,0,374,467,334,412,409,449,547,522,326,346,380,310,0,
1,1775670640320,-4728,5771,4144,-1870469,-962723,-1943773,0,0,0,242,297,245,269,188,298,326,267,263,210,270,140,0,
2,1775670640320,1186,1564,9834,263893,117286,-70860,0,0,0,379,467,336,416,405,455,552,519,329,306,329,321,0,
1,1775670640336,-2971,6623,5317,-2731789,-883311,-1396437,0,0,0,239,299,243,266,190,300,324,267,261,207,271,138,0,
2,1775670640336,1201,1588,9806,295658,100181,-90408,0,0,0,383,467,341,425,383,465,548,509,325,303,319,328,0,
1,1775670640352,-3062,6164,6015,-3475823,-791681,-1133765,0,0,0,238,301,242,265,191,298,323,268,258,203,270,136,0,
2,1775670640352,1249,1564,9830,329867,81855,-111177,0,0,0,385,466,345,425,383,465,544,501,327,286,298,332,0,
1,1775670640368,-2847,5336,6925,-3999945,-944397,-930958,0,0,0,240,301,243,265,191,297,324,268,258,205,270,137,0,
2,1775670640368,1311,1454,9806,338419,46425,-119729,0,0,0,387,466,338,428,387,469,550,500,349,236,241,342,0,
1,1775670640384,-2206,4532,8083,-4334699,-1098335,-928515,0,0,0,240,300,243,265,190,295,326,270,260,209,272,138,0,
2,1775670640384,1325,1363,9772,318871,2443,-116064,0,0,0,388,465,332,430,387,474,552,494,364,234,235,351,0,
1,1775670640400,-2100,3709,9212,-4610810,-1172861,-1082453,0,0,0,237,303,242,264,190,292,329,272,262,209,273,138,0,
2,1775670640400,1287,1316,9777,288328,-31764,-106290,0,0,0,393,467,344,443,390,488,550,496,344,241,233,368,0,
1,1775670640416,-2718,2837,10375,-4812396,-1279151,-1302364,0,0,0,236,309,242,264,193,294,331,273,265,210,274,140,0,
2,1775670640416,1268,1287,9796,266337,-56199,-98960,0,0,0,399,468,336,447,388,483,553,494,349,241,228,376,0,
1,1775670640432,-3407,2091,11931,-4939456,-1503950,-1424537,0,0,0,238,309,245,267,195,297,332,272,266,209,271,138,0,
2,1775670640432,1263,1249,9820,252898,-73303,-91629,0,0,0,407,469,343,446,387,490,551,486,349,242,221,397,0,
1,1775670640448,-3752,1464,13754,-5059185,-1725083,-1441641,0,0,0,238,308,247,266,194,297,334,276,268,207,269,135,0,
2,1775670640448,1263,1210,9877,245567,-83077,-81855,0,0,0,413,471,348,449,391,494,550,479,349,242,213,404,0,
1,1775670640464,-3972,641,15640,-5177693,-1828930,-1390329,0,0,0,239,307,247,265,193,298,332,274,265,208,269,139,0,
2,1775670640464,1263,1206,9954,259006,-85521,-79412,0,0,0,420,474,354,453,395,498,550,472,350,242,205,411,0,
1,1775670640480,-4493,-196,17238,-5226562,-1857030,-1368338,0,0,0,238,307,243,265,191,295,334,273,264,208,269,139,0,
2,1775670640480,1258,1201,10035,289550,-79412,-84299,0,0,0,422,475,343,454,399,494,561,460,353,244,197,419,0,
1,1775670640496,-5465,-871,18659,-5159367,-1877799,-1412320,0,0,0,238,307,243,267,194,295,334,276,264,213,270,140,0,
2,1775670640496,1268,1148,10064,324980,-63529,-94073,0,0,0,434,483,346,458,406,502,558,449,357,245,192,429,0,
1,1775670640512,-6604,-1196,20229,-5002986,-2014633,-1573588,0,0,0,238,307,246,267,192,297,334,273,264,208,268,139,0,
2,1775670640512,1282,1110,10069,361632,-46425,-105068,0,0,0,437,491,347,457,409,507,557,437,366,240,187,448,0,
1,1775670640528,-7351,-1541,21880,-4897917,-2229658,-1809382,0,0,0,237,305,245,248,229,288,333,270,266,214,272,141,0,
2,1775670640528,1296,1091,10088,410501,-28099,-117286,0,0,0,443,495,349,461,408,512,558,428,373,242,182,468,0,
1,1775670640544,-7494,-2608,23493,-4889365,-2474004,-2103819,0,0,0,237,302,233,264,200,280,335,266,255,222,279,133,0,
2,1775670640544,1282,995,10117,472809,0,-131946,0,0,0,449,498,349,467,411,518,555,413,373,248,178,481,0,
1,1775670640560,-6733,-6101,24876,-4885700,-2682920,-2287079,0,0,0,241,304,232,269,193,285,336,266,258,222,276,132,0,
2,1775670640560,1296,880,10150,524122,36651,-147829,0,0,0,457,504,356,472,418,521,544,393,373,250,170,489,0,
1,1775670640576,-4814,-11241,24393,-4594928,-2620611,-2051285,0,0,0,241,306,232,270,197,289,334,265,261,220,271,133,0,
2,1775670640576,1411,804,10198,581543,89186,-172263,0,0,0,467,510,361,479,429,521,535,371,376,250,162,503,0,
1,1775670640592,-3273,-15850,22397,-4195422,-2593733,-1444085,0,0,0,240,312,231,271,210,290,335,270,262,219,268,130,0,
2,1775670640592,1584,760,10313,671951,150272,-211359,0,0,0,474,515,356,488,440,526,531,349,381,251,157,519,0,
1,1775670640608,110,-20631,19353,-3718947,-2722015,-466701,0,0,0,241,316,228,272,221,291,338,275,264,220,268,129,0,
2,1775670640608,1655,708,10495,792903,191811,-257785,0,0,0,478,525,353,496,451,532,526,326,386,249,159,527,0,
1,1775670640624,5369,-26767,16022,-2951700,-2356718,588874,0,0,0,241,312,227,274,215,292,339,275,264,221,269,130,0,
2,1775670640624,1603,646,10811,937067,218689,-285884,0,0,0,490,535,344,500,467,537,514,299,393,254,166,555,0,
1,1775670640640,10184,-31978,13778,-1891238,-1593136,1484402,0,0,0,241,304,229,274,198,291,339,271,263,221,271,132,0,
2,1775670640640,1627,536,11280,1164309,228463,-295658,0,0,0,489,524,340,500,456,538,494,267,406,254,156,573,0,
1,1775670640656,11696,-32256,13199,-598647,-398284,1879021,0,0,0,239,303,231,270,193,285,342,275,262,226,283,130,0,
2,1775670640656,2091,320,11907,1506393,218689,-334754,0,0,0,488,517,306,506,467,556,454,251,406,250,162,574,0,
1,1775670640672,6915,-26149,13773,919963,1012814,1835039,0,0,0,234,292,225,271,191,275,360,301,257,237,303,118,0,
2,1775670640672,2459,201,12672,1910786,199142,-427605,0,0,0,502,520,294,505,479,557,426,246,419,244,160,585,0,
1,1775670640688,2153,-14481,16257,2251649,2273640,1426981,0,0,0,240,276,202,282,185,258,420,364,235,261,335,100,0,
2,1775670640688,2526,90,13290,2388483,163711,-552222,0,0,0,507,519,279,508,480,566,395,238,457,248,158,590,0,
1,1775670640704,-4039,7642,15022,2895501,3665191,155159,0,0,0,236,269,154,257,215,218,450,428,238,277,378,84,0,
2,1775670640704,2316,-67,13749,2939483,193033,-679282,0,0,0,529,524,283,497,480,565,371,219,440,245,152,599,0,
1,1775670640720,-7403,21316,10772,2879618,4148996,-1317025,0,0,0,243,255,154,273,167,227,455,441,248,298,391,79,0,
2,1775670640720,2268,-110,14510,3453832,243124,-767246,0,0,0,526,509,261,497,487,564,338,201,441,243,154,598,0,
1,1775670640736,-1890,11251,10184,3208264,3475823,-1745852,0,0,0,249,258,161,293,165,243,466,451,252,336,412,83,0,
2,1775670640736,3072,-9,16132,4127005,246789,-872315,0,0,0,521,497,251,491,481,567,306,174,438,240,147,583,0,
1,1775670640752,5053,-148,16554,3825238,2084272,-907745,0,0,0,254,268,174,301,182,252,474,471,256,355,421,82,0,
2,1775670640752,4187,244,18645,4922352,235793,-1058018,0,0,0,510,486,251,482,460,560,282,153,432,232,143,543,0,
1,1775670640768,4675,-1392,19870,3197268,824668,124616,0,0,0,258,272,181,311,193,263,481,481,255,361,426,84,0,
2,1775670640768,5245,62,21852,5817880,271224,-1287703,0,0,0,477,472,242,475,443,543,272,145,414,219,137,481,0,
1,1775670640784,-827,1048,16592,1962099,180816,467922,0,0,0,258,287,195,313,203,275,496,488,257,368,435,88,0,
2,1775670640784,6025,196,25450,6791599,511905,-1546710,0,0,0,426,457,221,464,435,514,273,149,382,205,128,404,0,
1,1775670640800,-3603,1469,12840,1241278,-117286,237015,0,0,0,255,296,221,318,208,299,506,485,272,378,443,101,0,
2,1775670640800,5120,1038,28044,7519751,868650,-1767844,0,0,0,375,441,204,437,420,471,280,164,350,184,121,333,0,
1,1775670640816,-3163,789,10299,924849,-152716,-116064,0,0,0,265,296,237,326,211,317,517,478,282,377,454,118,0,
2,1775670640816,4618,866,28121,7936361,1165530,-1926668,0,0,0,326,427,208,389,390,423,296,204,310,151,110,279,0,
1,1775670640832,-2273,598,9786,651182,-32986,-141720,0,0,0,287,300,241,337,211,324,531,487,285,378,470,144,0,
2,1775670640832,5537,1110,26154,8057312,1656666,-2117258,0,0,0,276,411,215,350,369,386,302,259,275,116,104,201,0,
1,1775670640848,-2282,794,9925,411723,62308,-83077,0,0,0,304,303,252,347,211,334,539,502,289,391,479,176,0,
2,1775670640848,6795,4450,19583,7986452,2131919,-2428800,0,0,0,269,417,233,332,363,379,311,274,278,104,109,182,0,
1,1775670640864,-2455,1043,10112,283441,149051,-51312,0,0,0,310,302,266,346,216,345,540,500,291,401,484,189,0,
2,1775670640864,5460,9188,11978,7497759,1595580,-3028669,0,0,0,269,417,232,328,357,379,307,279,278,144,191,189,0,
1,1775670640880,-2148,1134,10289,233350,188146,-21991,0,0,0,322,307,278,359,220,362,540,498,303,408,486,205,0,
2,1775670640880,1751,13917,10184,5665164,-195476,-3348763,0,0,0,265,416,229,328,356,379,306,279,270,140,180,185,0,
1,1775670640896,-1880,1206,10337,224798,116064,10995,0,0,0,322,313,293,354,224,367,546,492,302,390,476,222,0,
2,1775670640896,693,18516,9562,1503950,-2140471,-2689028,0,0,0,267,416,226,326,354,371,302,277,260,144,185,182,0,
1,1775670640912,-1890,1311,10299,243124,3665,36651,0,0,0,326,322,279,366,229,370,546,490,302,389,472,235,0,
2,1775670640912,3809,15745,8413,-3689626,-2527760,-1403768,0,0,0,273,420,228,327,357,371,298,277,256,149,189,183,0,
1,1775670640928,-2086,1354,10208,296880,-87964,56199,0,0,0,327,331,272,363,229,366,542,476,305,395,446,246,0,
2,1775670640928,4857,9102,8432,-6191730,-2108706,-789237,0,0,0,271,422,228,330,359,373,304,277,256,150,188,184,0,
1,1775670640944,-2172,1296,10050,353080,-117286,69638,0,0,0,323,332,272,358,224,368,546,472,313,388,435,265,0,
2,1775670640944,4130,4326,7537,-6173404,-1976759,-807563,0,0,0,266,424,230,329,357,372,309,280,257,152,187,184,0,
1,1775670640960,-2206,1158,9801,383623,-107512,79412,0,0,0,326,339,273,363,225,374,534,447,319,387,424,281,0,
2,1775670640960,4781,3034,5733,-5652946,-1933999,-904080,0,0,0,264,426,233,327,356,370,310,283,258,151,187,182,0,
1,1775670640976,-2225,1033,9629,375071,-78190,89186,0,0,0,324,339,272,365,224,379,538,440,320,381,415,287,0,
2,1775670640976,6216,3474,5063,-5517334,-1373225,-907745,0,0,0,264,428,233,327,356,370,309,284,258,151,187,182,0,
1,1775670640992,-2177,966,9595,334754,-40317,96516,0,0,0,328,338,263,366,232,385,541,437,314,372,406,302,0,
2,1775670640992,5484,4024,6824,-5800776,-366519,-659734,0,0,0,263,430,231,329,360,371,310,285,259,154,191,182,0,
1,1775670641008,-2124,961,9619,299323,-17104,98960,0,0,0,324,344,269,362,240,386,540,430,320,375,398,317,0,
2,1775670641008,3967,4077,8691,-6035348,244346,-89186,0,0,0,262,432,230,330,363,372,312,288,260,156,195,182,0,
1,1775670641024,-2134,976,9624,278554,-1221,95294,0,0,0,319,350,290,364,244,392,539,427,336,381,391,329,0,
2,1775670641024,4139,3565,9413,-6061004,596204,662177,0,0,0,262,426,231,331,361,373,312,288,260,158,194,183,0,
1,1775670641040,-2139,933,9600,273667,14660,90408,0,0,0,326,345,291,372,249,397,538,420,337,376,378,335,0,
2,1775670641040,4513,3326,10332,-6039013,1086118,1257160,0,0,0,261,427,231,332,361,375,312,289,260,161,194,182,0,
1,1775670641056,-2081,890,9600,268780,26878,86742,0,0,0,329,340,274,374,254,391,543,403,327,374,359,334,0,
2,1775670641056,3828,3522,12218,-6063448,1502728,1674992,0,0,0,261,426,231,334,361,375,314,291,263,162,197,184,0,
1,1775670641072,-2029,861,9619,271224,29321,81855,0,0,0,326,346,269,371,257,400,543,395,337,374,349,344,0,
2,1775670641072,3149,3594,14099,-6128200,1595580,1901012,0,0,0,262,427,234,335,362,376,317,291,263,162,199,185,0,
1,1775670641088,-1990,827,9657,284663,14660,75747,0,0,0,332,356,270,374,265,394,539,382,355,370,344,353,0,
2,1775670641088,3172,3321,16008,-6218608,1527163,1875356,0,0,0,264,427,231,336,365,380,318,293,266,166,201,185,0,
1,1775670641104,-1976,775,9705,306654,-12217,76969,0,0,0,334,355,291,379,281,416,535,373,331,367,343,361,0,
2,1775670641104,3292,3000,18564,-6373767,1517389,1560149,0,0,0,264,427,232,332,361,376,318,291,264,164,199,183,0,
1,1775670641120,-2029,717,9739,329867,-34208,87964,0,0,0,345,352,302,381,258,414,537,372,341,371,335,372,0,
2,1775670641120,3172,2842,21287,-6550918,1481959,1243721,0,0,0,264,428,235,334,363,376,319,293,265,163,199,183,0,
1,1775670641136,-2110,670,9724,356745,-34208,109955,0,0,0,363,360,294,386,265,427,541,349,362,364,331,401,0,
2,1775670641136,3378,2531,24297,-6681643,1414763,1089783,0,0,0,262,425,232,335,361,375,322,293,266,164,198,181,0,
1,1775670641152,-2191,631,9758,394618,-17104,135612,0,0,0,375,366,308,391,266,429,540,340,364,355,305,409,0,
2,1775670641152,4077,646,27618,-6713408,1428202,1307251,0,0,0,261,424,231,337,361,375,311,293,272,167,195,181,0,
1,1775670641168,-2263,607,9897,449596,-1221,168598,0,0,0,414,383,293,393,277,429,519,322,368,343,294,420,0,
2,1775670641168,4733,-4268,29853,-6605896,1670105,1836260,0,0,0,263,425,232,340,360,377,321,289,274,170,195,182,0,
1,1775670641184,-2316,559,10088,529009,-12217,219911,0,0,0,407,413,293,401,314,443,510,309,367,331,288,435,0,
2,1775670641184,4843,-12639,30830,-6250373,2083050,2304183,0,0,0,267,426,233,342,360,381,332,284,277,172,194,185,0,
1,1775670641200,-2325,454,10246,623082,-41538,279776,0,0,0,393,423,299,417,333,458,505,303,378,324,278,458,0,
2,1775670641200,4498,-26388,28643,-5254662,2025629,2194227,0,0,0,268,425,232,343,361,384,332,283,282,172,193,187,0,
1,1775670641216,-2354,378,10409,733038,-65973,328645,0,0,0,415,419,314,431,329,473,496,280,383,320,266,480,0,
2,1775670641216,2244,-37420,22210,-3721391,1734857,1312138,0,0,0,268,425,232,345,363,387,333,284,284,172,194,188,0,
1,1775670641232,-2368,382,10734,896750,-78190,359188,0,0,0,442,422,324,440,335,490,480,250,378,308,246,494,0,
2,1775670641232,-4249,-41497,17420,-1879021,1415985,142942,0,0,0,269,425,235,347,362,387,335,286,283,172,193,187,0,
1,1775670641248,-2325,258,11184,1132544,-130725,383623,0,0,0,448,431,306,455,344,493,456,244,385,295,219,507,0,
2,1775670641248,-8494,-41493,15592,-205250,547335,-540004,0,0,0,266,424,235,347,362,385,339,309,277,163,192,183,0,
1,1775670641264,-2368,52,11753,1395216,-180816,406836,0,0,0,453,443,292,470,342,490,435,239,393,293,205,519,0,
2,1775670641264,-6709,-36750,15721,1202182,-421497,-581543,0,0,0,262,424,231,347,367,380,361,394,269,143,188,169,0,
1,1775670641280,-2766,-119,12572,1754404,-145385,459370,0,0,0,451,467,270,472,357,500,409,225,399,291,205,534,0,
2,1775670641280,-2292,-17171,19057,2638937,-1056796,-234572,0,0,0,259,413,222,351,363,372,415,468,263,159,214,167,0,
1,1775670641296,-3187,-148,13366,2232101,0,592539,0,0,0,452,480,241,471,368,508,374,216,406,283,196,546,0,
2,1775670641296,3479,15745,16611,3381749,-1632231,271224,0,0,0,259,385,207,339,335,376,447,475,266,190,273,163,0,
1,1775670641312,-3326,-167,14213,2789210,125838,763581,0,0,0,450,447,222,487,374,522,312,203,412,268,183,545,0,
2,1775670641312,4599,21048,8796,3491705,-1557706,657290,0,0,0,265,388,209,344,335,376,451,487,263,199,292,166,0,
1,1775670641328,-3996,-234,15611,3488040,191811,973719,0,0,0,453,462,199,489,385,514,270,208,416,238,173,529,0,
2,1775670641328,71,4900,10887,4489859,-607200,747699,0,0,0,270,393,219,357,341,388,480,490,272,199,306,170,0,
1,1775670641344,-5427,-105,17420,4213748,302989,1249830,0,0,0,443,440,224,437,359,491,241,184,400,211,157,501,0,
2,1775670641344,-4111,-3819,19219,4880813,296880,212581,0,0,0,266,402,227,359,343,393,502,510,280,245,345,175,0,
1,1775670641360,-7810,-124,19975,5064072,547335,1694540,0,0,0,433,441,243,417,344,475,221,170,400,196,137,452,0,
2,1775670641360,-2450,-1162,20866,4097684,338419,-709825,0,0,0,279,420,254,371,352,405,506,531,279,336,428,190,0,
1,1775670641376,-10088,-995,22541,5804441,693942,2252871,0,0,0,391,419,235,387,321,452,208,159,373,184,129,384,0,
2,1775670641376,2928,2876,15841,2849075,15882,-951728,0,0,0,317,441,275,384,368,414,512,539,282,388,467,219,0,
1,1775670641392,-11165,-526,24953,6504493,678060,2901609,0,0,0,374,384,227,356,293,417,201,161,341,163,122,316,0,
2,1775670641392,3680,1177,12816,1743409,120951,-335975,0,0,0,353,457,287,394,378,422,521,548,290,396,468,254,0,
1,1775670641408,-9964,1430,26355,7023728,723264,3462384,0,0,0,314,350,230,314,262,369,219,186,302,152,144,250,0,
2,1775670641408,2144,-521,11706,866206,230907,50090,0,0,0,384,467,297,405,383,429,529,555,297,394,458,275,0,
1,1775670641424,-8844,2957,26336,7508755,811229,3747047,0,0,0,259,313,223,277,234,313,263,235,268,150,200,169,0,
2,1775670641424,1469,-90,11103,406836,151494,24434,0,0,0,404,471,302,412,385,431,534,556,298,404,459,282,0,
1,1775670641440,-8796,5336,22761,7838622,937067,3927863,0,0,0,250,287,219,259,206,276,301,271,258,165,237,121,0,
2,1775670641440,1727,837,10490,224798,21991,-30543,0,0,0,413,471,305,414,385,434,536,558,299,414,468,290,0,
1,1775670641456,-8413,8274,14338,7247305,1758070,3936415,0,0,0,259,291,229,254,192,275,304,284,268,173,241,124,0,
2,1775670641456,1732,1162,10294,129503,8552,-19547,0,0,0,421,472,309,417,386,437,539,560,304,416,467,302,0,
1,1775670641472,-9437,11060,8748,5728694,2329840,3521027,0,0,0,260,301,231,255,197,280,301,289,269,158,244,122,0,
2,1775670641472,1694,1296,10303,103847,26878,-7330,0,0,0,428,476,310,420,388,437,543,557,308,415,461,312,0,
1,1775670641488,-8839,15563,7958,1890017,1165530,1705535,0,0,0,257,299,231,261,194,283,308,269,267,164,232,123,0,
2,1775670641488,1689,1526,10256,182037,-48869,-28099,0,0,0,431,476,309,418,390,436,541,547,306,409,441,318,0,
1,1775670641504,-5532,15496,8212,-2129476,246789,-825889,0,0,0,252,296,228,258,190,283,312,270,268,168,235,126,0,
2,1775670641504,1502,1560,10212,288328,-96516,-48869,0,0,0,437,477,314,422,400,439,546,543,310,426,436,319,0,
1,1775670641520,-5781,9638,6202,-4031710,599869,-2439795,0,0,0,241,302,228,254,195,285,310,267,266,168,235,125,0,
2,1775670641520,1316,1469,10179,366519,-26878,-59864,0,0,0,436,482,316,426,397,447,545,538,315,348,365,341,0,
1,1775670641536,-8954,4364,3302,-4032932,485026,-2318844,0,0,0,233,307,229,253,203,286,313,276,269,166,239,125,0,
2,1775670641536,1320,1387,10102,422718,69638,-72082,0,0,0,438,483,321,427,401,454,544,527,315,298,303,359,0,
1,1775670641552,-7867,3393,3120,-3612657,-680503,-1214400,0,0,0,232,307,230,251,202,286,315,278,273,167,238,125,0,
2,1775670641552,1402,1292,9954,467922,133168,-94073,0,0,0,441,484,317,432,408,455,540,512,316,250,236,371,0,
1,1775670641568,-4613,4398,4910,-3817907,-1112996,-701273,0,0,0,228,305,232,253,201,290,311,276,269,171,240,125,0,
2,1775670641568,1416,1196,9844,499687,175929,-123394,0,0,0,439,485,310,429,400,456,540,501,323,239,214,384,0,
1,1775670641584,-3594,5096,6882,-4603480,-748920,-911410,0,0,0,228,305,233,254,201,288,316,276,267,170,237,123,0,
2,1775670641584,1531,1153,9815,513126,206472,-145385,0,0,0,443,489,316,429,398,461,537,484,330,238,205,398,0,
1,1775670641600,-4484,4603,8059,-5281540,-681725,-1241278,0,0,0,228,305,231,257,201,287,316,276,267,171,240,124,0,
2,1775670641600,1775,1110,9806,507018,178372,-157603,0,0,0,447,494,316,434,404,466,536,471,335,238,198,409,0,
1,1775670641616,-4690,3474,8944,-5524665,-1166752,-1446528,0,0,0,230,302,231,260,198,288,317,274,268,174,240,125,0,
2,1775670641616,1990,971,9753,481361,50090,-162490,0,0,0,453,499,320,435,406,469,530,461,336,239,192,419,0,
1,1775670641632,-3948,2636,10126,-5553986,-1666440,-1606575,0,0,0,232,301,233,261,198,290,321,274,270,174,237,123,0,
2,1775670641632,1962,842,9710,443488,-91629,-166155,0,0,0,460,504,325,436,407,470,528,452,337,239,190,428,0,
1,1775670641648,-3043,2297,11787,-5539325,-1973094,-1712866,0,0,0,228,301,232,263,199,292,322,276,272,174,235,121,0,
2,1775670641648,1722,756,9710,401949,-175929,-162490,0,0,0,467,506,329,441,411,473,528,445,339,243,190,436,0,
1,1775670641664,-2699,2115,13979,-5678603,-2096489,-1626123,0,0,0,225,301,229,264,199,295,318,275,271,186,234,126,0,
2,1775670641664,1555,693,9748,367740,-211359,-151494,0,0,0,473,508,335,447,415,481,527,437,343,248,188,450,0,
1,1775670641680,-2397,1584,16286,-5896071,-2168571,-1314581,0,0,0,227,303,231,262,201,295,318,273,271,195,232,131,0,
2,1775670641680,1541,665,9844,348193,-207694,-135612,0,0,0,476,513,330,453,418,487,530,430,353,267,198,466,0,
1,1775670641696,-1785,382,18281,-6062226,-2146580,-777020,0,0,0,231,304,233,260,200,292,323,274,272,178,235,126,0,
2,1775670641696,1603,650,9949,351858,-194255,-131946,0,0,0,480,517,333,457,423,488,525,413,353,296,222,473,0,
1,1775670641712,-1497,-626,19679,-6063448,-2009746,-411723,0,0,0,235,305,232,261,198,290,324,273,270,184,238,124,0,
2,1775670641712,1631,607,10021,378736,-184481,-145385,0,0,0,486,518,342,459,425,490,522,397,353,280,204,486,0,
1,1775670641728,-2282,-1158,20971,-5887519,-1854586,-426383,0,0,0,232,305,235,259,198,289,328,275,273,184,238,127,0,
2,1775670641728,1579,536,10083,417831,-161268,-164933,0,0,0,495,528,352,463,434,500,516,377,354,256,177,493,0,
1,1775670641744,-3814,-1502,22742,-5628512,-1931555,-891863,0,0,0,232,304,235,265,201,296,317,274,271,179,240,126,0,
2,1775670641744,1574,497,10174,471587,-116064,-184481,0,0,0,500,532,346,466,439,506,521,367,377,264,177,514,0,
1,1775670641760,-5159,-2794,25087,-5380501,-2214997,-1562593,0,0,0,234,304,233,263,197,292,331,274,272,184,233,125,0,
2,1775670641760,1631,492,10289,544891,-54977,-216246,0,0,0,502,531,350,472,440,504,508,347,377,258,167,528,0,
1,1775670641776,-5336,-7135,27657,-5155702,-2588846,-2245540,0,0,0,236,306,232,266,200,290,338,277,275,186,232,124,0,
2,1775670641776,1641,425,10413,640186,31764,-254119,0,0,0,512,531,342,465,448,513,494,308,372,260,160,542,0,
1,1775670641792,-5101,-15501,27193,-4856378,-2635272,-2450791,0,0,0,241,304,229,274,197,292,349,265,273,211,227,118,0,
2,1775670641792,1636,320,10643,752585,142942,-284663,0,0,0,520,540,350,469,450,514,484,283,377,271,169,555,0,
1,1775670641808,-4335,-24589,24125,-4509407,-2746450,-2083050,0,0,0,245,302,225,279,195,292,357,262,273,221,223,117,0,
2,1775670641808,1627,277,11112,940732,277332,-310319,0,0,0,516,536,331,478,455,517,464,265,379,281,179,573,0,
1,1775670641824,1215,-33515,18932,-3583335,-2729345,-1248608,0,0,0,243,304,228,274,196,292,353,270,274,206,226,119,0,
2,1775670641824,1636,268,11907,1273043,412944,-324980,0,0,0,514,540,319,479,461,520,438,250,385,293,189,578,0,
1,1775670641840,7843,-39454,14673,-1941329,-2053728,-270002,0,0,0,232,302,222,267,196,288,347,281,273,198,243,118,0,
2,1775670641840,1579,177,12668,1710422,509461,-327423,0,0,0,516,544,307,478,471,526,394,251,385,303,203,585,0,
1,1775670641856,10591,-40717,14280,-357967,-956614,572991,0,0,0,227,290,216,266,191,284,364,313,273,213,285,113,0,
2,1775670641856,1665,62,13146,2197893,509461,-298102,0,0,0,521,544,291,481,487,534,356,248,386,293,202,595,0,
1,1775670641872,11294,-32572,18310,1635897,1291369,1005484,0,0,0,237,274,215,268,182,274,407,375,269,247,343,100,0,
2,1775670641872,2345,-134,13907,2824640,467922,-299323,0,0,0,525,541,276,479,492,541,327,234,393,272,184,597,0,
1,1775670641888,3479,-7652,17650,3351206,4029267,361632,0,0,0,243,259,177,274,167,250,450,425,251,290,383,84,0,
2,1775670641888,3129,-205,14960,3390302,381179,-394618,0,0,0,522,533,262,475,488,550,291,220,400,260,171,593,0,
1,1775670641904,-6484,16611,12428,3999945,4588819,-847880,0,0,0,246,252,161,274,160,246,461,462,254,306,410,76,0,
2,1775670641904,4402,-124,16692,4227187,205250,-638965,0,0,0,520,526,257,478,500,556,262,192,406,251,166,577,0,
1,1775670641920,-3833,12428,11921,4387234,2594955,-1554041,0,0,0,254,258,157,293,162,249,475,475,254,344,421,76,0,
2,1775670641920,6082,-52,18755,5092172,108734,-987158,0,0,0,527,516,250,468,497,538,252,162,409,241,156,544,0,
1,1775670641936,5106,-492,17870,4673119,430049,-1154535,0,0,0,248,274,178,295,187,270,491,491,265,364,433,79,0,
2,1775670641936,8021,-86,22268,6162408,89186,-1502728,0,0,0,504,503,251,463,480,536,262,155,407,228,152,489,0,
1,1775670641952,5881,-3196,21320,3944967,-129503,-86742,0,0,0,255,282,191,318,201,287,513,513,311,386,448,91,0,
2,1775670641952,8858,-47,27020,7178888,196698,-2019520,0,0,0,436,471,228,451,456,510,262,154,370,212,136,396,0,
1,1775670641968,-1899,-717,19042,2277305,109955,697608,0,0,0,260,286,219,338,205,313,523,519,329,400,460,113,0,
2,1775670641968,7781,693,31208,7905817,365297,-2376265,0,0,0,371,454,219,417,421,465,274,166,342,180,118,351,0,
1,1775670641984,-5948,-33,14256,1136209,12217,302989,0,0,0,283,293,235,348,213,334,527,525,313,410,474,143,0,
2,1775670641984,6752,2340,32567,8405505,437379,-2576629,0,0,0,316,430,219,366,390,420,291,227,298,142,106,274,0,
1,1775670642000,-3790,172,10801,717155,-119729,-193033,0,0,0,301,299,248,354,212,342,536,530,303,408,485,167,0,
2,1775670642000,8600,4450,29724,8813563,926071,-2885727,0,0,0,273,410,225,328,353,374,304,262,272,110,101,199,0,
1,1775670642016,-2364,440,10002,583987,-18325,-156381,0,0,0,317,303,258,358,215,344,537,532,306,406,494,183,0,
2,1775670642016,9451,8073,20823,8662069,1108109,-3392745,0,0,0,269,413,232,325,352,373,312,289,275,115,122,189,0,
1,1775670642032,-2636,727,9897,455705,147829,-18325,0,0,0,324,312,270,355,219,356,536,529,318,410,496,199,0,
2,1775670642032,8915,11667,12007,7695680,320093,-3980397,0,0,0,269,417,231,329,357,376,316,300,276,116,129,191,0,
1,1775670642048,-3082,971,9786,354301,317649,19547,0,0,0,322,321,283,359,220,370,542,523,326,420,496,209,0,
2,1775670642048,6231,17697,8542,4839274,-592539,-3881437,0,0,0,264,418,228,329,360,372,312,295,264,116,131,187,0,
1,1775670642064,-2455,933,10054,334754,367740,10995,0,0,0,325,326,285,374,228,370,544,519,323,428,496,208,0,
2,1775670642064,2651,21665,8250,-836885,-965167,-2211332,0,0,0,262,419,226,328,361,370,306,292,258,117,129,184,0,
1,1775670642080,-2019,918,10289,335975,290771,28099,0,0,0,327,337,279,375,237,371,539,508,328,426,488,214,0,
2,1775670642080,1306,16463,9193,-5470909,-1455080,-343306,0,0,0,265,422,227,329,362,372,309,295,260,116,126,184,0,
1,1775670642096,-2115,1052,10361,370184,160046,59864,0,0,0,322,342,289,370,243,390,534,488,339,420,464,229,0,
2,1775670642096,2632,7652,8341,-6794043,-1944994,432492,0,0,0,266,423,229,332,362,372,317,297,261,118,126,185,0,
1,1775670642112,-2292,1167,10318,442266,70860,89186,0,0,0,328,349,275,368,244,377,536,471,329,413,439,236,0,
2,1775670642112,4240,4278,5647,-6200282,-1703092,114842,0,0,0,263,424,228,334,364,374,313,299,260,118,126,186,0,
1,1775670642128,-2268,1081,10232,443488,98960,106290,0,0,0,320,349,259,372,257,395,537,465,336,393,429,251,0,
2,1775670642128,4790,3929,4446,-5770233,-923628,-316428,0,0,0,257,427,232,331,365,373,308,300,260,115,127,186,0,
1,1775670642144,-2234,890,9901,461814,94073,111177,0,0,0,326,359,268,376,257,399,531,457,351,392,416,267,0,
2,1775670642144,3709,4331,5991,-5863084,-92851,-510683,0,0,0,259,429,234,331,364,373,318,306,261,116,129,187,0,
1,1775670642160,-2254,698,9533,508239,51312,107512,0,0,0,344,362,288,385,251,394,525,443,357,382,390,274,0,
2,1775670642160,2345,4565,8049,-6081774,321315,-425162,0,0,0,257,428,233,336,366,377,318,307,262,121,136,187,0,
1,1775670642176,-2249,626,9542,492357,58643,111177,0,0,0,332,365,294,381,256,397,524,419,352,370,373,277,0,
2,1775670642176,1617,4771,9633,-6265033,436157,-53756,0,0,0,260,430,236,335,366,377,319,308,264,126,142,190,0,
1,1775670642192,-2206,564,9600,453262,84299,119729,0,0,0,321,366,269,381,261,387,517,396,353,367,363,271,0,
2,1775670642192,2349,4967,10452,-6396980,621860,498466,0,0,0,260,430,235,334,363,375,319,303,262,149,147,182,0,
1,1775670642208,-2100,497,9619,408057,98960,127059,0,0,0,323,369,266,385,263,383,520,384,347,367,365,280,0,
2,1775670642208,3125,4862,11572,-6550918,1026253,949284,0,0,0,256,427,233,336,363,376,319,303,262,128,139,185,0,
1,1775670642224,-2000,430,9614,370184,76969,125838,0,0,0,333,374,274,392,262,395,525,366,350,362,351,293,0,
2,1775670642224,3019,4292,13663,-6679200,1478293,1264491,0,0,0,257,427,236,336,364,377,320,304,264,123,135,186,0,
1,1775670642240,-1990,402,9624,349414,54977,123394,0,0,0,337,388,286,396,266,412,523,349,359,349,333,312,0,
2,1775670642240,2694,3670,16128,-6758613,1717753,1440420,0,0,0,258,428,238,336,365,377,325,309,267,121,131,187,0,
1,1775670642256,-1995,392,9700,354301,35430,124616,0,0,0,337,400,301,396,277,425,519,342,365,342,324,332,0,
2,1775670642256,2699,2914,19095,-6873455,1761735,1451415,0,0,0,258,429,238,335,363,377,327,311,268,120,127,189,0,
1,1775670642272,-1995,344,9791,373849,12217,131946,0,0,0,341,404,299,395,285,427,519,336,369,349,319,353,0,
2,1775670642272,3086,2220,21593,-7016398,1747074,1359786,0,0,0,256,426,237,337,364,378,328,310,268,122,130,189,0,
1,1775670642288,-2091,272,9825,403171,-4886,156381,0,0,0,347,412,280,406,293,422,520,328,369,353,315,372,0,
2,1775670642288,3656,1636,25163,-7099475,1771509,1407433,0,0,0,257,425,237,339,364,378,329,308,268,125,132,189,0,
1,1775670642304,-2177,201,9815,434936,-1221,194255,0,0,0,363,412,283,429,299,428,520,317,375,356,309,366,0,
2,1775670642304,3996,531,29126,-7106806,1864360,1852143,0,0,0,260,426,237,341,363,379,335,304,271,123,126,190,0,
1,1775670642320,-2206,124,9830,477696,29321,245567,0,0,0,362,410,300,427,298,452,507,314,388,346,296,385,0,
2,1775670642320,4781,-5379,32352,-6991963,2163684,2736676,0,0,0,260,426,235,344,363,384,342,302,276,121,121,190,0,
1,1775670642336,-2239,33,9906,535117,67195,296880,0,0,0,385,421,289,429,309,457,504,296,386,347,286,403,0,
2,1775670642336,5503,-16764,34041,-6588792,2409252,3253468,0,0,0,262,425,234,348,366,388,342,302,281,123,123,190,0,
1,1775670642352,-2325,-14,10031,619417,100181,348193,0,0,0,378,440,324,453,306,458,496,286,388,324,274,431,0,
2,1775670642352,5747,-30930,29887,-5491678,1970651,2730567,0,0,0,260,424,232,350,366,388,342,308,283,131,137,192,0,
1,1775670642368,-2388,9,10447,775798,133168,406836,0,0,0,395,453,308,438,367,443,475,280,395,310,273,423,0,
2,1775670642368,2770,-41756,22057,-3641978,1717753,1486845,0,0,0,256,422,227,344,365,386,347,332,280,138,157,192,0,
1,1775670642384,-2440,52,11055,978606,150272,454483,0,0,0,394,449,294,454,358,459,486,240,399,309,241,453,0,
2,1775670642384,-5833,-45513,17942,-1329242,1547932,51312,0,0,0,245,411,215,337,359,375,371,414,265,156,200,184,0,
1,1775670642400,-2450,-76,11615,1230282,144164,509461,0,0,0,401,461,272,461,359,474,473,231,430,343,215,490,0,
2,1775670642400,-10873,-45996,20617,1183856,-180816,-327423,0,0,0,251,406,219,344,359,376,403,462,264,155,210,178,0,
1,1775670642416,-2096,-358,12179,1480737,129503,561996,0,0,0,411,468,266,473,367,505,444,221,412,306,198,520,0,
2,1775670642416,-5943,-30858,19157,3640756,-1858252,-153938,0,0,0,251,382,199,342,344,371,437,464,261,179,248,174,0,
1,1775670642432,-2100,-492,13424,1883908,118507,576656,0,0,0,409,460,268,477,365,521,401,209,407,276,188,538,0,
2,1775670642432,1828,1708,16104,4701218,-2160019,31764,0,0,0,254,373,196,338,330,371,433,493,254,279,368,164,0,
1,1775670642448,-2627,-387,15013,2474004,80634,636521,0,0,0,402,450,244,467,365,510,353,202,411,261,180,540,0,
2,1775670642448,3555,14094,14979,4893030,-1755626,157603,0,0,0,256,374,186,342,330,372,440,505,253,323,426,160,0,
1,1775670642464,-3383,57,16874,3370754,64751,818559,0,0,0,398,442,222,438,383,495,290,196,409,236,169,525,0,
2,1775670642464,-435,3584,17439,4977329,-836885,240680,0,0,0,258,379,200,346,330,381,458,511,265,333,437,168,0,
1,1775670642480,-4776,569,18693,4388455,145385,1098335,0,0,0,410,423,226,418,387,484,247,187,403,205,147,483,0,
2,1775670642480,-2885,-2144,18836,4548502,-42760,40317,0,0,0,260,391,216,357,334,395,488,520,279,323,425,184,0,
1,1775670642496,-7236,760,20727,5549099,329867,1552819,0,0,0,426,394,222,415,355,463,238,167,391,184,114,417,0,
2,1775670642496,-1383,181,16128,3693291,216246,-401949,0,0,0,268,413,227,377,356,415,510,532,293,327,431,212,0,
1,1775670642512,-9724,-660,23273,6587570,445931,2098932,0,0,0,405,378,222,378,334,453,191,148,381,166,107,360,0,
2,1775670642512,2115,2479,13065,2781880,31764,-514348,0,0,0,299,439,243,397,375,432,523,546,299,374,475,243,0,
1,1775670642528,-10777,-2919,26901,7370699,362853,2729345,0,0,0,343,357,216,348,314,416,193,158,341,159,113,306,0,
2,1775670642528,2900,-248,12892,1514945,-245567,-151494,0,0,0,339,457,258,408,380,438,533,559,302,432,523,267,0,
1,1775670642544,-10256,-2005,29241,7789753,328645,3249803,0,0,0,281,334,199,313,280,348,220,200,285,164,150,238,0,
2,1775670642544,1569,-1627,12720,554665,-362853,47647,0,0,0,362,466,265,413,383,445,542,568,315,450,529,283,0,
1,1775670642560,-10251,1938,28494,8026769,536339,3607770,0,0,0,251,296,211,273,213,298,273,232,265,162,193,158,0,
2,1775670642560,631,-354,11639,219911,-246789,21991,0,0,0,381,471,272,413,381,445,552,575,315,448,533,290,0,
1,1775670642576,-12170,6867,21244,8052425,862541,3941302,0,0,0,268,278,214,263,189,270,299,266,261,168,227,128,0,
2,1775670642576,655,804,10825,145385,-68416,-24434,0,0,0,393,475,277,418,384,447,552,574,321,453,540,301,0,
1,1775670642592,-12438,10409,12634,7403686,1062905,4252843,0,0,0,260,289,218,262,199,270,303,283,262,169,244,126,0,
2,1775670642592,1057,985,10701,130725,18325,-29321,0,0,0,403,476,277,424,385,454,545,567,302,458,540,304,0,
1,1775670642608,-9964,13768,9150,4721988,818559,3458718,0,0,0,261,291,223,257,197,272,303,284,265,164,243,131,0,
2,1775670642608,1081,990,10514,120951,0,-26878,0,0,0,414,478,282,423,388,455,548,568,307,455,531,306,0,
1,1775670642624,-6527,16846,9231,734260,335975,1191187,0,0,0,265,294,221,258,195,271,304,282,261,167,243,128,0,
2,1775670642624,966,1105,10327,162490,-40317,-40317,0,0,0,413,478,280,423,388,449,546,558,307,456,529,317,0,
1,1775670642640,-4876,14563,8614,-2979800,476474,-1692096,0,0,0,259,298,218,260,197,272,306,282,260,171,244,125,0,
2,1775670642640,899,1158,10318,233350,-62308,-57421,0,0,0,419,483,282,427,396,454,538,548,315,447,520,319,0,
1,1775670642656,-8231,8212,5230,-3908315,566882,-2547308,0,0,0,245,301,217,261,202,279,311,284,264,170,245,132,0,
2,1775670642656,885,1067,10265,276111,-62308,-64751,0,0,0,424,488,281,429,400,458,519,534,316,421,473,326,0,
1,1775670642672,-9609,4824,3058,-3828903,-395840,-1885130,0,0,0,238,300,215,261,206,281,312,284,264,173,246,136,0,
2,1775670642672,856,1005,10122,284663,-59864,-67195,0,0,0,422,490,279,430,400,456,513,521,316,403,447,327,0,
1,1775670642688,-6063,5245,4048,-3892433,-1462411,-883311,0,0,0,237,299,214,261,205,277,311,284,258,178,250,130,0,
2,1775670642688,827,995,10021,285884,-56199,-68416,0,0,0,424,493,289,431,401,459,512,517,318,347,390,336,0,
1,1775670642704,-2053,6034,6446,-4548502,-1369559,-689055,0,0,0,232,300,217,259,205,280,315,287,262,176,250,130,0,
2,1775670642704,818,952,9964,298102,-43982,-72082,0,0,0,425,498,284,434,404,461,512,510,318,291,309,356,0,
1,1775670642720,-947,5637,8083,-5153259,-1001818,-902858,0,0,0,227,301,220,257,205,282,314,292,265,170,249,127,0,
2,1775670642720,832,894,9892,310319,-30543,-75747,0,0,0,425,501,277,436,409,463,509,502,320,275,273,369,0,
1,1775670642736,-1167,4857,9035,-5430591,-1106887,-1136209,0,0,0,228,300,222,260,205,282,314,288,264,174,251,132,0,
2,1775670642736,880,832,9810,316428,-30543,-79412,0,0,0,426,502,282,437,412,468,507,495,327,267,256,375,0,
1,1775670642752,-722,4718,10098,-5595525,-1378111,-1296256,0,0,0,230,304,221,259,205,282,315,290,264,173,248,129,0,
2,1775670642752,918,799,9777,320093,-50090,-86742,0,0,0,430,502,286,434,411,469,503,481,332,291,274,379,0,
1,1775670642768,-430,4742,11351,-5792224,-1532050,-1414763,0,0,0,229,303,220,259,205,282,315,286,263,177,250,130,0,
2,1775670642768,923,789,9810,324980,-79412,-94073,0,0,0,438,506,290,432,409,469,497,464,333,353,339,385,0,
1,1775670642784,-478,4264,13093,-6025574,-1642005,-1395216,0,0,0,231,306,222,258,202,281,310,288,265,178,251,131,0,
2,1775670642784,928,741,9858,333532,-109955,-96516,0,0,0,448,513,295,442,420,479,505,464,342,245,210,415,0,
1,1775670642800,-378,3699,15089,-6191730,-1712866,-1238834,0,0,0,235,308,221,258,202,278,313,292,268,178,251,128,0,
2,1775670642800,890,660,9920,348193,-135612,-97738,0,0,0,460,519,306,448,421,484,507,453,342,244,203,417,0,
1,1775670642816,-306,2991,17128,-6313903,-1712866,-1005484,0,0,0,234,310,225,258,200,282,310,289,268,179,252,134,0,
2,1775670642816,813,583,10016,360410,-138055,-101403,0,0,0,468,526,308,447,426,483,505,446,345,250,206,437,0,
1,1775670642832,-631,1919,18980,-6432410,-1661553,-836885,0,0,0,233,310,224,259,202,282,310,290,268,178,252,132,0,
2,1775670642832,813,536,10107,377514,-125838,-108734,0,0,0,479,532,316,452,427,486,502,430,349,247,194,448,0,
1,1775670642848,-1665,871,20425,-6458067,-1588249,-878424,0,0,0,232,310,223,262,203,282,311,292,268,179,252,133,0,
2,1775670642848,928,526,10189,410501,-120951,-124616,0,0,0,478,527,312,455,432,492,492,407,348,249,192,464,0,
1,1775670642864,-3407,-263,22732,-6257703,-1643227,-1345125,0,0,0,229,308,223,262,201,284,314,295,268,175,249,133,0,
2,1775670642864,1019,502,10284,477696,-134390,-157603,0,0,0,486,531,306,460,439,497,489,391,355,260,183,483,0,
1,1775670642880,-5068,-1756,25642,-5905845,-1828930,-2180788,0,0,0,231,309,223,261,201,282,313,291,266,176,248,131,0,
2,1775670642880,1033,449,10380,548556,-140499,-197920,0,0,0,491,534,311,466,446,500,483,355,358,297,218,504,0,
1,1775670642896,-6235,-5575,28805,-5566204,-2098932,-3036000,0,0,0,234,311,223,261,203,282,311,290,267,180,250,131,0,
2,1775670642896,1115,402,10500,621860,-120951,-244346,0,0,0,507,540,330,471,452,508,472,325,372,292,202,521,0,
1,1775670642912,-6518,-14879,31045,-5247332,-2151467,-3556457,0,0,0,232,311,223,262,210,287,310,303,270,179,252,129,0,
2,1775670642912,1368,277,10744,723264,-75747,-318871,0,0,0,514,548,330,470,460,515,448,288,390,310,211,531,0,
1,1775670642928,-5451,-27159,27590,-5021312,-1804495,-2877175,0,0,0,231,314,224,264,218,289,305,305,269,181,257,127,0,
2,1775670642928,1804,134,11184,856433,-43982,-414166,0,0,0,511,555,315,468,464,521,425,253,390,331,227,550,0,
1,1775670642944,2053,-38482,20894,-4278500,-1794722,-1059240,0,0,0,230,316,227,265,216,292,308,296,274,185,251,128,0,
2,1775670642944,1966,0,12227,1150870,-10995,-580321,0,0,0,516,568,303,472,471,523,409,238,381,302,200,568,0,
1,1775670642960,12476,-44469,15783,-2630385,-1163087,565661,0,0,0,229,313,225,266,212,290,315,292,273,187,255,130,0,
2,1775670642960,1052,162,13275,1590693,-37873,-665843,0,0,0,528,574,296,480,484,523,383,237,384,266,171,577,0,
1,1775670642976,14792,-45393,15171,-659734,218689,1521054,0,0,0,219,300,215,257,207,282,336,364,272,217,332,114,0,
2,1775670642976,282,315,14041,2169793,-151494,-575435,0,0,0,528,562,289,482,494,528,347,238,385,274,183,593,0,
1,1775670642992,10528,-36817,17391,1382998,1944994,2086715,0,0,0,224,277,181,281,191,253,424,406,246,287,389,94,0,
2,1775670642992,497,296,14960,2808758,-202807,-474031,0,0,0,525,560,276,469,501,529,312,231,378,281,205,591,0,
1,1775670643008,-2488,-5431,17573,3246137,3837455,2020742,0,0,0,235,264,156,277,175,238,457,451,247,317,412,87,0,
2,1775670643008,1550,335,16372,3552792,-169820,-485026,0,0,0,536,553,263,466,516,526,264,223,367,268,204,598,0,
1,1775670643024,-11012,15874,15496,3891211,4280943,1055575,0,0,0,247,267,165,283,171,249,479,479,255,344,429,83,0,
2,1775670643024,2756,612,18492,4514294,-230907,-648738,0,0,0,534,553,261,453,507,508,244,206,362,255,169,584,0,
1,1775670643040,-6427,6944,17989,4505742,3010343,-307876,0,0,0,251,271,175,294,177,253,497,497,269,378,442,81,0,
2,1775670643040,4187,808,21028,5550321,-401949,-890641,0,0,0,524,539,262,449,490,507,244,178,369,236,153,516,0,
1,1775670643056,2579,-2502,22890,4157548,1182635,-889419,0,0,0,253,277,191,304,189,272,507,506,273,394,451,91,0,
2,1775670643056,5728,301,25182,6742730,-590095,-1260825,0,0,0,497,513,251,439,486,490,239,162,354,225,152,445,0,
1,1775670643072,4393,-2282,20784,2520429,96516,-464257,0,0,0,255,291,218,315,202,300,514,504,281,404,459,108,0,
2,1775670643072,7762,-899,29710,7844731,-557109,-1677435,0,0,0,414,494,240,420,458,462,259,176,339,194,132,371,0,
1,1775670643088,-751,1655,12529,1258382,-65973,-21991,0,0,0,268,300,238,329,209,317,522,499,295,414,467,133,0,
2,1775670643088,8758,38,32495,8677951,-41538,-2212553,0,0,0,345,462,216,372,413,418,275,230,295,154,116,307,0,
1,1775670643104,-3024,1703,8389,796568,-118507,-42760,0,0,0,295,305,250,349,215,330,530,499,304,416,475,166,0,
2,1775670643104,7374,4130,31500,9187413,454483,-2759889,0,0,0,285,428,219,343,374,381,298,257,263,126,106,229,0,
1,1775670643120,-2244,62,9643,603534,-112399,-158824,0,0,0,310,317,267,359,226,343,538,497,313,424,479,195,0,
2,1775670643120,8547,8513,24694,9312029,538783,-3231477,0,0,0,271,421,229,331,361,368,307,274,258,130,133,199,0,
1,1775670643136,-1751,904,10815,395840,-31764,-98960,0,0,0,311,314,266,352,225,351,548,487,319,425,472,217,0,
2,1775670643136,10753,10179,15405,8690168,-41538,-3738495,0,0,0,279,427,232,331,369,368,313,293,261,133,139,197,0,
1,1775670643152,-1823,1890,10471,381179,57421,-6108,0,0,0,325,317,291,349,224,361,558,471,336,434,460,245,0,
2,1775670643152,7700,12012,11643,6828251,-1062905,-3815464,0,0,0,276,428,229,322,385,361,314,302,257,122,121,193,0,
1,1775670643168,-1775,1627,10054,447153,76969,21991,0,0,0,330,326,283,348,229,362,564,463,345,430,456,266,0,
2,1775670643168,3345,18425,8753,2961474,-1705535,-2295631,0,0,0,271,429,227,319,384,359,309,302,253,118,122,190,0,
1,1775670643184,-1713,1273,10131,444709,51312,23212,0,0,0,343,335,283,360,234,370,557,454,334,428,446,277,0,
2,1775670643184,3512,18324,7992,-2028072,-2004859,410501,0,0,0,272,428,226,336,367,371,312,301,254,119,121,189,0,
1,1775670643200,-1727,1349,10327,416610,24434,35430,0,0,0,331,341,295,355,234,380,545,436,344,437,435,297,0,
2,1775670643200,6905,10811,7767,-5716476,-2069611,2454456,0,0,0,273,427,226,338,366,372,310,300,257,122,125,189,0,
1,1775670643216,-1670,1517,10232,456927,-1221,64751,0,0,0,327,333,297,359,238,383,545,419,352,422,411,315,0,
2,1775670643216,9236,4374,6633,-6107430,-1578475,2252871,0,0,0,264,428,232,332,367,376,295,302,264,123,136,187,0,
1,1775670643232,-1641,1464,10050,511905,-45204,85521,0,0,0,327,338,303,360,255,386,545,411,358,390,394,325,0,
2,1775670643232,8092,3493,5699,-5762902,-708603,1199739,0,0,0,259,430,228,331,369,372,312,302,252,131,149,187,0,
1,1775670643248,-1722,1234,9839,530231,-81855,96516,0,0,0,329,344,300,366,258,389,541,395,360,371,372,342,0,
2,1775670643248,6623,3694,6073,-5794667,-213802,568104,0,0,0,255,430,231,331,369,372,314,309,255,126,144,188,0,
1,1775670643264,-1809,1057,9710,505796,-80634,106290,0,0,0,326,358,300,368,258,394,536,385,363,355,363,345,0,
2,1775670643264,6197,3378,7087,-6047565,30543,295658,0,0,0,254,430,231,331,369,372,314,306,254,127,143,188,0,
1,1775670643280,-1832,966,9648,452040,-39095,120951,0,0,0,325,370,305,368,268,400,534,380,366,351,360,343,0,
2,1775670643280,5824,3115,8389,-6267477,527787,218689,0,0,0,252,431,229,333,372,373,315,309,256,128,145,188,0,
1,1775670643296,-1799,928,9633,411723,-1221,128281,0,0,0,330,363,307,375,274,403,535,370,370,357,346,356,0,
2,1775670643296,4690,3412,9834,-6412863,1093448,381179,0,0,0,252,431,229,335,372,374,316,310,254,127,143,185,0,
1,1775670643312,-1761,899,9638,387288,21991,133168,0,0,0,334,358,306,382,275,404,536,360,370,343,336,367,0,
2,1775670643312,4000,3512,11184,-6554584,1457524,834441,0,0,0,255,435,233,332,369,373,317,314,256,129,147,188,0,
1,1775670643328,-1651,871,9696,376292,24434,139277,0,0,0,339,365,291,387,285,394,541,352,363,339,326,364,0,
2,1775670643328,3914,3086,12543,-6654765,1771509,1309695,0,0,0,255,434,233,335,372,375,319,316,257,128,145,190,0,
1,1775670643344,-1579,856,9753,375071,6108,140499,0,0,0,340,363,280,390,296,399,539,341,366,342,315,373,0,
2,1775670643344,3737,2560,14242,-6615670,2054950,1612684,0,0,0,252,433,233,337,374,378,319,318,259,126,145,189,0,
1,1775670643360,-1584,837,9791,381179,-12217,131946,0,0,0,339,376,288,383,302,407,529,334,383,342,317,391,0,
2,1775670643360,3225,2383,16400,-6538701,2234545,1759291,0,0,0,250,433,235,337,374,380,320,318,262,127,144,190,0,
1,1775670643376,-1622,770,9810,392175,-21991,122173,0,0,0,346,395,299,381,302,412,517,319,370,334,302,402,0,
2,1775670643376,2656,2680,18975,-6542366,2229658,1750739,0,0,0,252,433,237,337,374,382,322,315,264,128,142,193,0,
1,1775670643392,-1631,655,9873,411723,-37873,131946,0,0,0,364,385,280,395,293,416,519,315,380,332,290,417,0,
2,1775670643392,2421,3254,22206,-6707300,2140471,1690874,0,0,0,252,432,237,334,370,380,324,313,267,128,145,192,0,
1,1775670643408,-1684,545,9920,444709,-79412,166155,0,0,0,344,380,285,397,298,446,512,292,385,314,277,424,0,
2,1775670643408,2440,3426,26503,-6950424,2069611,1684766,0,0,0,253,431,236,334,368,376,327,311,267,129,145,191,0,
1,1775670643424,-1804,478,9906,482583,-134390,218689,0,0,0,351,394,285,402,312,453,507,278,394,310,260,450,0,
2,1775670643424,2565,1220,31093,-7141014,2061059,1827708,0,0,0,256,431,234,339,369,378,330,309,267,132,143,189,0,
1,1775670643440,-1947,478,9968,535117,-182037,290771,0,0,0,361,392,303,421,312,473,511,264,411,310,258,472,0,
2,1775670643440,2660,-6896,34754,-7097032,2084272,2032959,0,0,0,256,429,231,343,369,379,336,308,270,141,151,188,0,
1,1775670643456,-2110,488,10189,632856,-178372,371406,0,0,0,370,395,303,423,312,487,506,250,416,300,248,483,0,
2,1775670643456,3761,-18693,34754,-6734178,1800830,1919338,0,0,0,261,433,234,348,374,384,336,308,272,141,150,188,0,
1,1775670643472,-2234,416,10399,784350,-134390,453262,0,0,0,386,401,291,429,323,484,498,242,413,294,225,501,0,
2,1775670643472,5963,-33548,27877,-5517334,1359786,1040914,0,0,0,262,436,238,348,375,389,338,308,278,143,157,192,0,
1,1775670643488,-2096,272,10758,989601,-112399,515570,0,0,0,403,408,284,447,335,485,490,242,414,292,205,523,0,
2,1775670643488,2282,-44311,19128,-3467271,1673770,-371406,0,0,0,261,435,237,350,376,392,339,309,277,144,161,193,0,
1,1775670643504,-1789,186,11356,1247386,-162490,541226,0,0,0,406,420,290,453,338,501,477,235,417,282,197,529,0,
2,1775670643504,-9609,-45895,16152,-1277930,2023185,-1384220,0,0,0,261,433,238,347,370,386,341,310,277,146,158,191,0,
1,1775670643520,-1430,110,11959,1574810,-290771,519235,0,0,0,398,424,293,453,353,512,461,217,424,270,192,535,0,
2,1775670643520,-14304,-42904,17674,328645,536339,-1075122,0,0,0,251,427,233,343,371,386,347,364,272,144,177,184,0,
1,1775670643536,-1186,-201,12495,1977981,-470366,448375,0,0,0,397,423,260,462,376,523,418,215,448,251,184,551,0,
2,1775670643536,-7925,-33629,19416,1942551,-1185078,-365297,0,0,0,243,417,218,346,372,377,387,435,260,151,202,175,0,
1,1775670643552,-1670,-416,13280,2378709,-646295,415388,0,0,0,408,408,266,470,357,538,387,204,459,245,170,565,0,
2,1775670643552,167,-2163,21091,3367089,-1960877,296880,0,0,0,242,386,204,342,349,370,420,473,254,218,296,171,0,
1,1775670643568,-2613,-291,14563,2945592,-751364,519235,0,0,0,409,414,220,486,394,536,344,195,452,250,176,554,0,
2,1775670643568,5063,26283,12304,3693291,-2449569,1115439,0,0,0,249,372,200,342,334,371,450,494,256,264,358,167,0,
1,1775670643584,-3699,-138,16051,3671300,-668286,708603,0,0,0,416,417,206,496,398,534,306,179,444,221,144,546,0,
2,1775670643584,1612,14568,8858,4418999,-2406809,1373225,0,0,0,254,379,204,351,336,381,489,512,266,294,391,166,0,
1,1775670643600,-5661,-138,17621,4515515,-414166,1004262,0,0,0,411,419,222,486,401,551,256,163,441,184,121,514,0,
2,1775670643600,-5360,-5336,18080,5379279,-1610240,838107,0,0,0,263,400,233,364,347,392,515,528,277,321,416,176,0,
1,1775670643616,-8825,-607,20296,5488013,-189368,1552819,0,0,0,406,409,220,469,367,512,275,141,424,167,111,450,0,
2,1775670643616,-4953,-4881,24307,4438546,-496022,-307876,0,0,0,278,423,267,378,362,407,524,539,285,331,414,200,0,
1,1775670643632,-11911,-1574,23991,6390872,-156381,2265088,0,0,0,393,376,199,413,335,492,211,131,408,196,113,408,0,
2,1775670643632,1009,1000,19731,2649933,140499,-768468,0,0,0,304,442,284,394,373,426,533,544,295,320,394,234,0,
1,1775670643648,-12160,-1526,27901,7035945,-113620,3001791,0,0,0,347,378,186,383,329,434,196,150,357,166,114,308,0,
2,1775670643648,4326,2201,13213,1259604,235793,-338419,0,0,0,343,459,299,407,380,440,539,546,302,296,365,271,0,
1,1775670643664,-9801,1110,31088,7400021,278554,3568674,0,0,0,282,344,188,330,298,363,219,194,303,144,136,226,0,
2,1775670643664,2598,559,9949,624304,45204,177150,0,0,0,365,463,313,413,388,450,544,558,308,298,357,296,0,
1,1775670643680,-9270,3426,31036,7812966,533896,3748269,0,0,0,238,298,199,271,234,297,258,232,271,139,182,153,0,
2,1775670643680,1301,717,9944,426383,-53756,139277,0,0,0,377,462,315,417,397,454,544,569,311,299,352,304,0,
1,1775670643696,-11447,6034,24000,8255232,124616,3852116,0,0,0,237,280,221,251,191,299,289,246,280,144,214,127,0,
2,1775670643696,1521,1306,10289,260228,-139277,34208,0,0,0,394,468,325,419,395,456,544,569,315,314,364,316,0,
1,1775670643712,-9313,9844,13299,8046316,127059,3947411,0,0,0,241,284,232,257,189,320,297,250,293,148,220,134,0,
2,1775670643712,1775,1765,10361,169820,-200363,0,0,0,0,410,473,325,423,390,454,551,571,312,318,355,330,0,
1,1775670643728,-5077,13266,10117,5909510,1682322,2709798,0,0,0,229,289,219,256,196,295,296,256,279,147,221,123,0,
2,1775670643728,1569,1837,10212,208915,-166155,10995,0,0,0,413,474,325,427,391,456,552,567,316,399,385,324,0,
1,1775670643744,-5690,17013,9892,1880243,2684141,185703,0,0,0,231,294,220,256,197,293,296,258,277,149,221,123,0,
2,1775670643744,1416,1775,10179,274889,-133168,2443,0,0,0,419,478,335,436,397,465,550,557,321,307,318,349,0,
1,1775670643760,-7681,15994,8801,-2175901,2141693,-1971872,0,0,0,230,294,231,258,198,297,302,264,279,149,227,125,0,
2,1775670643760,1325,1823,10227,324980,-94073,-20769,0,0,0,419,477,326,438,399,467,544,534,338,352,377,343,0,
1,1775670643776,-7173,9490,6082,-4003610,1424537,-2329840,0,0,0,230,294,222,257,196,301,302,264,279,150,228,126,0,
2,1775670643776,1268,1866,10174,393397,2443,-48869,0,0,0,429,483,330,440,405,472,548,525,333,303,308,365,0,
1,1775670643792,-6786,5216,3933,-4155105,1198517,-1662775,0,0,0,230,299,214,258,197,285,302,262,267,155,233,118,0,
2,1775670643792,1296,1761,10026,461814,101403,-70860,0,0,0,436,488,332,443,409,477,546,514,327,260,246,388,0,
1,1775670643808,-6523,4230,3383,-3985284,901637,-797790,0,0,0,233,296,215,272,197,292,306,262,270,156,229,120,0,
2,1775670643808,1421,1608,9882,505796,162490,-95294,0,0,0,441,493,334,440,408,477,540,498,331,248,225,400,0,
1,1775670643824,-5379,4891,4599,-4329812,535117,-331088,0,0,0,231,296,220,258,200,297,309,265,275,158,234,123,0,
2,1775670643824,1569,1531,9834,538783,177150,-122173,0,0,0,444,496,336,441,408,480,539,485,338,238,204,410,0,
1,1775670643840,-4503,5144,6168,-4939456,389732,-238237,0,0,0,229,296,219,257,199,294,304,263,271,158,236,123,0,
2,1775670643840,1694,1488,9830,557109,139277,-138055,0,0,0,443,495,331,447,413,486,537,472,346,236,192,418,0,
1,1775670643856,-4761,4374,7528,-5539325,284663,-463035,0,0,0,231,298,216,258,199,283,306,265,263,156,237,117,0,
2,1775670643856,1785,1354,9782,554665,78190,-147829,0,0,0,443,496,328,452,417,490,531,453,351,240,189,427,0,
1,1775670643872,-5269,3287,8576,-5899736,-15882,-786794,0,0,0,235,297,216,258,197,280,311,267,265,157,235,117,0,
2,1775670643872,1818,1210,9758,532674,6108,-155159,0,0,0,448,501,335,450,417,490,529,437,352,244,188,439,0,
1,1775670643888,-5642,2392,9499,-5999918,-467922,-1165530,0,0,0,233,298,216,257,198,281,310,269,265,159,236,117,0,
2,1775670643888,1761,1167,9767,505796,-46425,-160046,0,0,0,450,498,344,453,418,495,528,421,359,242,181,445,0,
1,1775670643904,-5915,1569,10839,-6036570,-981049,-1562593,0,0,0,230,297,220,258,201,284,309,269,265,159,238,119,0,
2,1775670643904,1679,1139,9791,494800,-72082,-163711,0,0,0,461,506,330,452,425,496,521,401,355,247,173,467,0,
1,1775670643920,-5967,990,12653,-6075665,-1367116,-1848478,0,0,0,230,298,224,260,202,286,310,269,266,158,238,119,0,
2,1775670643920,1593,1067,9844,498466,-64751,-167377,0,0,0,462,508,351,451,432,501,517,385,366,247,169,470,0,
1,1775670643936,-6412,555,14611,-6199060,-1551597,-1914451,0,0,0,231,301,223,260,204,286,312,271,267,157,238,117,0,
2,1775670643936,1541,952,9940,510683,-29321,-164933,0,0,0,468,512,335,458,443,507,516,370,367,253,173,491,0,
1,1775670643952,-6862,57,16625,-6344446,-1721418,-1811826,0,0,0,231,300,218,259,202,286,313,272,268,160,236,118,0,
2,1775670643952,1569,847,10031,533896,23212,-163711,0,0,0,479,519,338,461,446,505,514,349,367,255,168,498,0,
1,1775670643968,-7016,-363,18746,-6403089,-1872912,-1657888,0,0,0,232,302,221,259,201,287,313,270,268,174,232,120,0,
2,1775670643968,1660,780,10093,568104,75747,-169820,0,0,0,484,520,333,461,446,503,504,327,367,253,164,508,0,
1,1775670643984,-7269,-799,21349,-6381098,-1984090,-1644449,0,0,0,232,302,222,261,202,288,313,271,270,159,235,118,0,
2,1775670643984,1809,708,10165,626747,114842,-195476,0,0,0,493,520,330,462,453,510,490,307,371,298,201,526,0,
1,1775670644000,-7796,-1703,24646,-6273586,-2041511,-1903456,0,0,0,229,303,222,261,202,289,316,270,272,157,229,115,0,
2,1775670644000,1933,626,10241,703716,149051,-237015,0,0,0,502,527,333,466,458,516,472,281,372,330,226,536,0,
1,1775670644016,-8212,-4455,28030,-6152634,-2285857,-2428800,0,0,0,229,303,218,262,202,289,314,264,269,159,224,114,0,
2,1775670644016,2148,449,10385,819781,200363,-305432,0,0,0,500,530,333,474,466,519,458,258,375,335,231,545,0,
1,1775670644032,-7614,-10997,31347,-6073222,-2830749,-2949257,0,0,0,229,311,223,263,205,300,312,262,279,161,225,122,0,
2,1775670644032,2340,258,10662,965167,243124,-387288,0,0,0,500,533,329,485,477,524,446,242,383,334,231,560,0,
1,1775670644048,-5905,-22703,30643,-5949827,-2959031,-2818532,0,0,0,228,313,219,267,210,294,316,262,275,167,227,118,0,
2,1775670644048,2402,248,11222,1166752,193033,-450818,0,0,0,511,542,323,495,487,535,428,234,389,329,219,576,0,
1,1775670644064,-3431,-35458,25417,-5326744,-2654820,-1904677,0,0,0,227,313,220,264,207,296,318,264,280,168,227,119,0,
2,1775670644064,2483,315,11983,1490511,34208,-492357,0,0,0,519,545,312,500,499,544,407,239,396,311,198,586,0,
1,1775670644080,2866,-44321,18320,-3743382,-2333505,-157603,0,0,0,225,310,219,263,207,298,322,268,283,167,227,120,0,
2,1775670644080,2124,282,12648,1905899,-45204,-532674,0,0,0,524,544,301,494,505,537,373,233,407,288,199,591,0,
1,1775670644096,11476,-46857,15716,-1646892,-1437976,1387885,0,0,0,223,310,214,265,206,292,327,284,277,178,237,117,0,
2,1775670644096,1440,153,13156,2392148,37873,-515570,0,0,0,523,544,283,488,499,543,336,220,413,291,212,594,0,
1,1775670644112,14472,-45723,16353,245567,106290,2063502,0,0,0,230,292,211,273,199,281,367,322,264,219,295,106,0,
2,1775670644112,1454,162,13979,2926044,131946,-455705,0,0,0,532,537,262,485,502,555,309,220,409,270,181,599,0,
1,1775670644128,7982,-28322,19952,2024407,2163684,1613905,0,0,0,235,267,182,275,181,251,424,381,248,268,363,90,0,
2,1775670644128,2732,124,15175,3552792,112399,-447153,0,0,0,532,538,261,487,503,556,292,194,415,289,189,601,0,
1,1775670644144,-4211,7169,18444,3257133,4012162,695164,0,0,0,239,253,143,274,165,223,456,438,240,300,398,77,0,
2,1775670644144,4111,-52,16683,4335921,73303,-647517,0,0,0,532,532,264,481,503,544,279,177,421,250,162,589,0,
1,1775670644160,-8595,24422,10787,3585778,4333478,-350636,0,0,0,251,247,138,291,159,229,467,466,248,337,415,72,0,
2,1775670644160,5259,-157,19018,5276653,157603,-971275,0,0,0,519,505,253,487,469,546,268,154,431,247,148,543,0,
1,1775670644176,-229,6642,11940,4789183,2952922,-720820,0,0,0,258,246,154,306,158,252,478,477,259,380,427,78,0,
2,1775670644176,6728,-502,23019,6287025,492357,-1357342,0,0,0,496,487,253,469,470,534,254,149,403,219,144,469,0,
1,1775670644192,6350,-7360,22220,5468465,1025031,-299323,0,0,0,258,258,181,301,168,274,494,495,267,396,440,90,0,
2,1775670644192,7843,-784,28169,7301061,1149648,-1788613,0,0,0,438,467,224,447,447,500,255,155,372,198,132,392,0,
1,1775670644208,1526,-3685,22928,3619987,215024,241902,0,0,0,256,272,194,312,187,283,513,512,285,402,450,93,0,
2,1775670644208,8762,-976,32371,8224689,1793500,-2202780,0,0,0,371,448,208,410,417,452,271,172,337,178,120,337,0,
1,1775670644224,-3603,756,16410,1655444,52534,161268,0,0,0,256,278,234,326,191,344,520,504,318,426,461,127,0,
2,1775670644224,9456,-52,34917,8922297,2520429,-2687807,0,0,0,304,424,211,367,385,406,287,211,297,138,104,255,0,
1,1775670644240,-3115,1115,11237,982271,30543,-161268,0,0,0,301,301,255,337,210,335,515,512,307,425,461,155,0,
2,1775670644240,8140,6202,32352,9187413,2939483,-3420845,0,0,0,271,411,222,340,363,382,299,243,269,112,95,197,0,
1,1775670644256,-1842,306,9935,791681,-18325,-207694,0,0,0,309,303,255,351,210,343,528,504,301,430,464,179,0,
2,1775670644256,7049,13644,21919,8681616,1679879,-4069584,0,0,0,277,415,232,334,357,376,307,263,264,114,101,194,0,
1,1775670644272,-1895,181,10461,627969,1221,-80634,0,0,0,323,311,261,350,214,343,529,500,309,429,459,198,0,
2,1775670644272,9289,12079,13840,7487986,-1067792,-4637688,0,0,0,285,419,234,332,357,372,310,283,267,116,112,198,0,
1,1775670644288,-2479,741,10165,403171,164933,-4886,0,0,0,329,320,303,350,218,377,521,492,336,434,453,241,0,
2,1775670644288,9241,12782,10614,5381722,-2311514,-4737870,0,0,0,283,419,228,329,359,370,305,288,261,112,113,190,0,
1,1775670644304,-2278,1076,9949,320093,284663,26878,0,0,0,332,329,298,353,226,387,527,485,335,422,445,264,0,
2,1775670644304,5465,18463,6862,851546,-1890017,-3185051,0,0,0,278,419,230,329,360,372,302,290,256,113,118,187,0,
1,1775670644320,-1718,1119,10141,367740,257785,46425,0,0,0,338,341,284,366,230,385,534,474,331,419,425,279,0,
2,1775670644320,3570,18047,5532,-4145331,-1701870,-915076,0,0,0,280,420,229,332,364,371,304,289,255,123,135,189,0,
1,1775670644336,-1670,1057,10351,427605,108734,59864,0,0,0,340,345,280,373,235,387,539,454,334,418,403,297,0,
2,1775670644336,4905,10447,7102,-7249748,-2008524,686612,0,0,0,281,422,229,333,361,371,301,281,253,141,169,194,0,
1,1775670644352,-1837,1076,10351,471587,1221,74525,0,0,0,341,348,279,372,241,391,538,438,339,409,386,315,0,
2,1775670644352,6810,4848,7465,-7582059,-1952325,675616,0,0,0,273,424,229,305,390,352,306,288,258,139,165,194,0,
1,1775670644368,-1871,1048,10160,535117,-59864,89186,0,0,0,346,355,290,379,243,398,532,435,346,397,373,335,0,
2,1775670644368,7260,3034,6168,-7232644,-1251052,306654,0,0,0,266,424,230,327,366,371,301,283,257,146,175,194,0,
1,1775670644384,-1885,938,9920,583987,-95294,96516,0,0,0,350,357,292,387,243,402,528,426,349,383,361,346,0,
2,1775670644384,6168,2641,5585,-6698748,-167377,36651,0,0,0,265,424,230,331,360,372,303,283,257,147,177,192,0,
1,1775670644400,-1976,741,9523,577878,-94073,103847,0,0,0,354,362,273,389,250,398,525,412,345,375,349,345,0,
2,1775670644400,4417,2440,6915,-6389650,563217,4886,0,0,0,265,427,232,331,361,373,305,287,258,144,174,192,0,
1,1775670644416,-2024,612,8494,496022,-34208,116064,0,0,0,352,366,273,377,259,404,521,405,349,374,338,359,0,
2,1775670644416,2828,2881,9083,-6390872,781907,224798,0,0,0,263,429,232,331,364,374,304,290,258,142,171,191,0,
1,1775670644432,-1966,545,8284,432492,17104,127059,0,0,0,356,369,274,385,255,411,520,382,356,368,328,369,0,
2,1775670644432,2818,3397,10232,-6539923,867428,591317,0,0,0,261,430,232,330,366,375,305,293,259,137,164,191,0,
1,1775670644448,-1842,492,9356,447153,-2443,128281,0,0,0,359,362,273,385,260,412,523,362,356,439,316,358,0,
2,1775670644448,3393,3594,11308,-6671870,1175304,957836,0,0,0,259,428,232,329,365,375,314,297,263,133,160,190,0,
1,1775670644464,-1785,454,9925,449596,-37873,125838,0,0,0,362,362,273,382,268,411,518,349,355,359,308,379,0,
2,1775670644464,3474,3493,12955,-6741508,1596801,1108109,0,0,0,256,426,230,329,365,376,320,298,267,135,164,188,0,
1,1775670644480,-1818,449,9820,427605,-47647,125838,0,0,0,363,367,269,385,286,414,518,335,353,348,300,399,0,
2,1775670644480,3172,3335,15046,-6817256,1891238,1089783,0,0,0,253,425,229,329,363,376,320,296,266,140,170,188,0,
1,1775670644496,-1818,406,9715,419053,-46425,125838,0,0,0,366,376,270,393,293,421,520,327,359,346,294,408,0,
2,1775670644496,2598,3086,17822,-6939429,2034181,923628,0,0,0,253,425,231,329,362,375,318,293,266,144,174,188,0,
1,1775670644512,-1789,320,9767,423940,-54977,124616,0,0,0,364,392,268,393,311,425,519,314,367,342,293,418,0,
2,1775670644512,2067,2928,21349,-7078706,2006081,789237,0,0,0,255,425,232,333,362,378,311,288,264,150,181,190,0,
1,1775670644528,-1871,210,9849,439822,-84299,141720,0,0,0,380,405,270,397,320,431,520,301,377,338,289,432,0,
2,1775670644528,2005,2766,25632,-7202101,1902234,855211,0,0,0,255,424,232,335,363,378,314,288,266,148,178,190,0,
1,1775670644544,-2057,148,9858,471587,-107512,188146,0,0,0,380,414,288,400,332,452,519,292,382,330,279,450,0,
2,1775670644544,2507,1545,30500,-7292509,1820378,1314581,0,0,0,260,425,234,339,362,377,319,289,267,146,169,188,0,
1,1775670644560,-2206,129,9887,526565,-102625,254119,0,0,0,383,421,305,399,350,470,508,285,387,316,264,472,0,
2,1775670644560,3967,-4565,34252,-7299839,1997529,2183232,0,0,0,262,427,235,344,362,384,324,277,271,162,177,192,0,
1,1775670644576,-2282,52,10045,621860,-84299,335975,0,0,0,403,427,295,411,368,470,502,273,393,308,251,488,0,
2,1775670644576,5417,-15563,35778,-7079928,2294409,2736676,0,0,0,265,429,236,346,363,383,327,278,275,166,185,193,0,
1,1775670644592,-2297,-86,10232,735481,-84299,419053,0,0,0,405,433,279,428,387,473,503,252,388,304,240,497,0,
2,1775670644592,6144,-31729,31452,-6014579,2085493,2442239,0,0,0,265,423,230,351,365,388,333,283,282,168,186,193,0,
1,1775670644608,-2211,-181,10686,883311,-109955,485026,0,0,0,431,434,299,427,368,489,481,241,392,288,218,516,0,
2,1775670644608,2842,-44771,22483,-3997502,2021963,1426981,0,0,0,266,425,231,352,368,392,334,286,285,169,186,193,0,
1,1775670644624,-2038,-191,11304,1083674,-135612,513126,0,0,0,440,440,281,436,395,505,468,228,398,272,193,528,0,
2,1775670644624,-7638,-49198,16731,-1491732,2153910,166155,0,0,0,259,424,229,347,369,391,332,305,282,172,209,194,0,
1,1775670644640,-1660,-253,11825,1380555,-173485,497244,0,0,0,440,447,248,445,375,521,444,220,392,271,189,540,0,
2,1775670644640,-13261,-46752,18521,222354,840550,-280998,0,0,0,257,420,228,347,368,386,357,382,273,180,232,185,0,
1,1775670644656,-1330,-454,12275,1704314,-250454,426383,0,0,0,465,453,243,465,384,504,411,205,431,272,179,541,0,
2,1775670644656,-10911,-34792,22574,1959655,-1084896,-359188,0,0,0,250,407,210,345,363,373,406,445,264,177,239,178,0,
1,1775670644672,-1876,-564,13199,2094046,-342084,367740,0,0,0,460,449,212,475,406,515,371,208,423,323,196,540,0,
2,1775670644672,-1019,933,20789,3591887,-2769662,-288328,0,0,0,250,390,201,341,348,368,440,470,264,178,254,175,0,
1,1775670644688,-3115,-445,14481,2673146,-397062,471587,0,0,0,479,455,193,485,428,515,333,205,431,279,186,541,0,
2,1775670644688,4666,21349,11500,4097684,-2829527,-255341,0,0,0,257,385,208,342,338,374,463,487,271,209,305,172,0,
1,1775670644704,-4211,-392,15994,3457497,-414166,717155,0,0,0,473,458,202,462,424,526,280,187,451,239,167,540,0,
2,1775670644704,2469,10045,11203,5031086,-1457524,-81855,0,0,0,260,396,218,353,345,385,489,500,277,252,362,172,0,
1,1775670644720,-5809,-617,17980,4359134,-403171,1076344,0,0,0,473,437,212,428,421,518,217,162,444,197,144,502,0,
2,1775670644720,-1722,-2900,20703,5216789,97738,-78190,0,0,0,268,411,244,361,349,395,504,513,286,289,397,182,0,
1,1775670644736,-9093,-1043,21339,5334075,-513126,1644449,0,0,0,452,406,219,397,396,496,199,152,424,167,128,456,0,
2,1775670644736,-914,-3163,23603,4004832,625526,-485026,0,0,0,287,425,280,367,349,402,511,543,290,346,443,198,0,
1,1775670644752,-11466,-641,25063,6250373,-564439,2397035,0,0,0,387,380,209,368,353,469,193,149,390,153,123,393,0,
2,1775670644752,3450,2416,16262,2487443,266337,-552222,0,0,0,314,437,304,377,355,413,517,554,289,379,464,218,0,
1,1775670644768,-11155,110,27417,6905220,-75747,3031113,0,0,0,318,357,198,335,316,417,190,154,347,140,122,308,0,
2,1775670644768,3799,1651,11083,1609019,155159,-45204,0,0,0,338,450,307,396,367,427,531,559,303,365,438,242,0,
1,1775670644784,-11088,842,28451,7440338,353080,3513696,0,0,0,269,328,199,299,277,347,221,184,302,133,136,215,0,
2,1775670644784,2445,-244,10447,1011592,123394,199142,0,0,0,356,459,315,401,380,439,547,549,317,294,367,275,0,
1,1775670644800,-10792,4364,27805,7833735,477696,3916867,0,0,0,239,291,193,268,219,296,271,230,260,143,184,133,0,
2,1775670644800,1742,-253,11318,547335,56199,111177,0,0,0,370,467,318,404,380,439,550,552,315,298,367,281,0,
1,1775670644816,-10705,8456,21622,7808079,945619,4156327,0,0,0,254,275,206,262,190,270,301,257,264,151,219,117,0,
2,1775670644816,2158,1124,10591,313984,-74525,1221,0,0,0,383,471,336,404,388,441,551,552,323,299,359,289,0,
1,1775670644832,-11380,10356,12060,7325495,1674992,4263839,0,0,0,245,278,213,264,190,280,303,265,269,155,221,118,0,
2,1775670644832,2211,1564,10007,239459,-161268,-3665,0,0,0,388,469,342,407,384,445,552,556,319,305,358,295,0,
1,1775670644848,-10949,12538,8509,5404935,1307251,3847229,0,0,0,247,285,223,264,190,296,299,265,274,158,223,124,0,
2,1775670644848,2081,1454,10102,243124,-212581,0,0,0,0,399,475,341,408,382,445,554,559,318,317,360,299,0,
1,1775670644864,-6441,16917,8638,1364672,400727,2063502,0,0,0,254,289,215,267,195,283,306,274,269,157,224,122,0,
2,1775670644864,1909,1430,10198,277332,-256563,-24434,0,0,0,405,478,340,408,382,450,553,550,325,383,423,299,0,
1,1775670644880,-3220,15257,8566,-2765997,901637,-671951,0,0,0,251,289,215,264,195,285,306,274,270,160,224,122,0,
2,1775670644880,1732,1569,10145,343306,-226020,-57421,0,0,0,412,481,342,406,379,453,547,534,326,377,407,306,0,
1,1775670644896,-5599,9255,6475,-4803844,1714087,-2350609,0,0,0,239,292,214,264,200,283,307,275,271,161,227,127,0,
2,1775670644896,1651,1660,10112,444709,-131946,-79412,0,0,0,425,486,346,410,383,458,548,526,330,301,313,331,0,
1,1775670644912,-9964,4139,3603,-4737870,1196074,-2167349,0,0,0,227,293,220,255,197,296,302,275,274,159,228,126,0,
2,1775670644912,1679,1531,10064,553443,-23212,-89186,0,0,0,432,489,344,416,388,463,550,515,338,272,266,357,0,
1,1775670644928,-8719,3608,3345,-4416555,-195476,-1253495,0,0,0,225,292,226,256,198,299,305,276,279,160,230,132,0,
2,1775670644928,1737,1268,9911,582765,35430,-94073,0,0,0,432,491,340,417,388,465,538,495,342,280,262,367,0,
1,1775670644944,-5364,4187,4814,-4525289,-863763,-679282,0,0,0,228,293,222,258,200,288,308,279,274,162,232,126,0,
2,1775670644944,1823,1091,9767,563217,63529,-103847,0,0,0,436,495,345,418,388,468,528,480,344,259,233,378,0,
1,1775670644960,-4268,4546,6709,-5072624,-510683,-810007,0,0,0,227,294,224,259,202,288,309,278,272,162,232,123,0,
2,1775670644960,1904,1052,9724,527787,51312,-112399,0,0,0,440,497,351,418,388,470,534,470,342,237,202,398,0,
1,1775670644976,-5154,4288,8140,-5624847,-425162,-1094670,0,0,0,226,294,231,259,201,294,309,277,277,161,231,127,0,
2,1775670644976,1981,976,9743,503352,17104,-119729,0,0,0,446,499,344,422,391,476,533,459,349,245,198,409,0,
1,1775670644992,-6092,3522,9332,-5995031,-948062,-1346346,0,0,0,226,294,232,258,197,294,310,279,278,159,231,126,0,
2,1775670644992,2043,875,9767,481361,-28099,-131946,0,0,0,448,500,346,416,389,479,529,441,349,256,197,416,0,
1,1775670645008,-5541,2546,10811,-6124534,-1551597,-1521054,0,0,0,225,293,231,259,197,293,313,279,276,159,231,121,0,
2,1775670645008,2010,813,9777,466701,-72082,-146607,0,0,0,453,503,349,341,371,475,535,440,369,248,188,433,0,
1,1775670645024,-4996,1617,12615,-6159965,-1905899,-1651779,0,0,0,225,292,232,261,197,294,317,279,276,160,229,118,0,
2,1775670645024,1885,780,9791,458148,-97738,-157603,0,0,0,453,500,336,441,408,492,495,404,358,240,172,441,0,
1,1775670645040,-4982,1038,14931,-6161186,-2076941,-1667662,0,0,0,222,290,229,257,195,291,322,282,276,160,231,119,0,
2,1775670645040,1742,727,9834,455705,-90408,-156381,0,0,0,467,512,347,435,396,492,525,411,363,244,172,450,0,
1,1775670645056,-5039,636,17090,-6210056,-2206445,-1613905,0,0,0,226,294,227,260,199,290,321,282,275,160,231,118,0,
2,1775670645056,1722,622,9858,448375,-57421,-141720,0,0,0,469,517,347,435,398,490,524,402,359,245,173,459,0,
1,1775670645072,-5092,110,19478,-6287025,-2293188,-1538158,0,0,0,230,293,223,264,198,286,317,279,270,163,233,114,0,
2,1775670645072,1809,536,9887,441044,-30543,-130725,0,0,0,473,516,347,442,404,493,525,392,370,242,169,463,0,
1,1775670645088,-5436,-373,21703,-6230825,-2310292,-1607797,0,0,0,230,293,223,264,197,286,318,276,270,164,231,115,0,
2,1775670645088,1928,531,9968,454483,-20769,-139277,0,0,0,474,516,346,446,410,500,522,382,376,239,161,471,0,
1,1775670645104,-5972,-1033,24445,-6035348,-2401922,-1870469,0,0,0,230,297,226,263,198,286,317,276,267,162,229,112,0,
2,1775670645104,2029,531,10064,494800,-25656,-162490,0,0,0,493,517,347,458,413,512,512,364,370,264,180,486,0,
1,1775670645120,-6082,-2522,27886,-5791002,-2659707,-2342057,0,0,0,225,295,227,264,203,291,317,277,269,162,229,115,0,
2,1775670645120,2024,430,10098,551000,-25656,-191811,0,0,0,504,519,348,462,419,515,507,347,373,270,182,509,0,
1,1775670645136,-5034,-7437,31840,-5720142,-2872288,-2886949,0,0,0,228,287,205,268,196,280,334,283,261,178,253,107,0,
2,1775670645136,2019,344,10179,626747,-17104,-223576,0,0,0,496,522,345,462,427,514,501,335,377,257,166,529,0,
1,1775670645152,-3254,-18722,33941,-5649281,-2415361,-3072652,0,0,0,226,287,212,270,196,290,329,271,265,184,258,109,0,
2,1775670645152,2100,306,10423,734260,-30543,-249233,0,0,0,495,525,342,466,436,520,491,313,375,260,164,545,0,
1,1775670645168,-3058,-33395,24666,-4696331,-1161865,-2084272,0,0,0,225,295,217,271,203,297,321,264,272,187,257,115,0,
2,1775670645168,2301,287,10863,900415,-81855,-273667,0,0,0,512,528,337,467,449,521,479,271,384,266,170,566,0,
1,1775670645184,-3517,-39880,15486,-3794694,-2043955,-116064,0,0,0,226,300,214,274,208,298,325,269,275,188,256,115,0,
2,1775670645184,2536,196,11237,1103222,-135612,-316428,0,0,0,515,526,318,474,458,525,457,253,393,264,168,581,0,
1,1775670645200,8825,-40401,14558,-2968805,-3326772,1503950,0,0,0,230,295,208,277,204,292,339,284,272,192,263,111,0,
2,1775670645200,2330,43,11739,1419650,-162490,-390953,0,0,0,509,540,304,478,466,546,422,234,398,267,171,594,0,
1,1775670645216,19736,-41631,17353,-874759,-580321,1457524,0,0,0,232,282,195,279,194,279,372,331,264,213,300,102,0,
2,1775670645216,2239,-62,12591,1766622,-140499,-431270,0,0,0,527,543,309,477,472,535,372,235,400,295,192,593,0,
1,1775670645232,14568,-34113,19033,1843591,3336545,913854,0,0,0,227,264,174,276,184,263,423,403,254,250,357,86,0,
2,1775670645232,2388,-124,13850,2271196,-119729,-476474,0,0,0,524,541,287,484,489,549,343,237,396,286,203,615,0,
1,1775670645248,-2081,-1627,16807,3513696,5368283,543670,0,0,0,230,245,140,271,161,231,456,449,252,290,388,77,0,
2,1775670645248,2584,-47,15151,2945592,-136833,-549778,0,0,0,522,547,261,479,499,547,284,207,407,292,224,604,0,
1,1775670645264,-8413,18592,14256,3777590,4969999,138055,0,0,0,243,246,147,279,156,252,467,467,263,318,415,98,0,
2,1775670645264,2971,71,16400,3736051,-219911,-642630,0,0,0,527,539,261,469,509,540,259,199,394,272,208,600,0,
1,1775670645280,-2814,10562,15410,4139222,3054326,-437379,0,0,0,247,244,152,301,162,256,484,484,263,357,422,74,0,
2,1775670645280,4130,287,18133,4591263,-345749,-791681,0,0,0,530,534,262,505,517,511,249,182,393,250,168,567,0,
1,1775670645296,3881,-2622,20808,4291939,1163087,-656069,0,0,0,251,254,176,304,168,268,487,487,271,362,425,81,0,
2,1775670645296,6168,545,20947,5652946,-553443,-1094670,0,0,0,511,526,252,477,499,515,246,160,385,233,150,504,0,
1,1775670645312,3565,-3211,20354,3208264,360410,-270002,0,0,0,252,263,199,305,177,281,498,498,287,373,436,86,0,
2,1775670645312,7815,325,24809,6778160,-684169,-1540602,0,0,0,461,509,237,453,480,503,250,157,368,214,143,428,0,
1,1775670645328,-1244,1186,13807,1742187,81855,130725,0,0,0,256,275,202,308,185,284,511,511,303,389,446,94,0,
2,1775670645328,8494,349,29145,7899709,-485026,-2036624,0,0,0,395,480,222,424,447,471,263,168,343,209,132,366,0,
1,1775670645344,-3565,2024,9203,1165530,-2443,9773,0,0,0,256,279,216,313,195,299,521,522,320,401,451,104,0,
2,1775670645344,7169,1206,30442,8597317,239459,-2416582,0,0,0,331,451,218,384,409,432,277,207,307,167,116,297,0,
1,1775670645360,-2636,440,9298,1020144,106290,-188146,0,0,0,254,286,237,318,198,317,535,528,327,407,464,123,0,
2,1775670645360,6135,2493,29164,9049357,1336573,-2802649,0,0,0,281,428,224,341,377,392,292,256,276,116,106,223,0,
1,1775670645376,-1751,4,10595,753807,215024,-195476,0,0,0,263,294,248,323,204,324,545,524,344,415,470,140,0,
2,1775670645376,6810,6422,22828,8988271,2152689,-3257133,0,0,0,266,420,233,325,363,375,304,281,270,111,116,190,0,
1,1775670645392,-1746,808,11007,520457,217468,-103847,0,0,0,280,295,259,331,207,334,545,515,353,426,470,163,0,
2,1775670645392,5345,10873,14635,7963239,1393994,-3706730,0,0,0,271,425,236,331,365,384,306,289,274,119,131,195,0,
1,1775670645408,-1789,1206,10524,467922,160046,-37873,0,0,0,294,296,272,343,205,348,541,511,344,430,469,188,0,
2,1775670645408,1464,15462,10921,5367061,-678060,-3392745,0,0,0,269,427,233,331,366,383,308,289,266,120,131,191,0,
1,1775670645424,-1593,985,10313,459370,74525,0,0,0,0,304,305,273,353,214,355,540,507,341,429,467,201,0,
2,1775670645424,1928,18822,9308,-79412,-2444682,-1463633,0,0,0,269,427,232,336,365,379,314,283,261,135,139,195,0,
1,1775670645440,-1617,914,10356,437379,-17104,17104,0,0,0,308,315,271,352,226,364,540,497,346,426,463,221,0,
2,1775670645440,4929,15046,8925,-4586376,-2635272,219911,0,0,0,261,428,231,330,364,378,308,287,261,136,151,194,0,
1,1775670645456,-1775,1076,10318,459370,-84299,36651,0,0,0,317,315,292,356,227,381,540,476,355,414,445,247,0,
2,1775670645456,6412,6925,8360,-6447071,-2015855,770911,0,0,0,257,427,231,332,364,379,309,288,261,141,166,192,0,
1,1775670645472,-1856,1158,10160,535117,-117286,57421,0,0,0,314,318,276,368,252,387,540,454,354,397,426,273,0,
2,1775670645472,5958,3144,6015,-5863084,-1698205,279776,0,0,0,253,428,235,328,364,375,309,285,259,143,170,192,0,
1,1775670645488,-1837,1005,9992,613308,-145385,72082,0,0,0,322,319,276,364,243,387,540,434,350,391,401,294,0,
2,1775670645488,6159,2560,4379,-5392718,-1401324,-160046,0,0,0,253,429,235,331,366,376,309,285,259,146,174,193,0,
1,1775670645504,-1871,741,9853,634078,-168598,79412,0,0,0,322,323,267,359,249,381,542,436,349,374,395,311,0,
2,1775670645504,6144,3441,4833,-5512447,-844215,-343306,0,0,0,253,431,237,332,367,379,308,290,259,145,173,193,0,
1,1775670645520,-1943,555,9739,594982,-163711,87964,0,0,0,321,333,263,363,262,388,542,423,353,368,374,326,0,
2,1775670645520,4910,3871,6848,-5947383,-359188,-46425,0,0,0,249,428,235,332,367,377,311,293,262,145,172,190,0,
1,1775670645536,-1995,430,9643,524122,-133168,100181,0,0,0,323,333,261,372,269,401,541,408,355,358,358,332,0,
2,1775670645536,4603,3594,8207,-6227160,-94073,557109,0,0,0,253,432,235,334,369,379,311,294,260,146,173,191,0,
1,1775670645552,-1990,397,9691,454483,-97738,114842,0,0,0,321,332,263,376,274,402,542,398,356,356,347,338,0,
2,1775670645552,5695,2871,8767,-6312681,271224,1202182,0,0,0,256,433,237,333,371,379,311,295,261,145,172,192,0,
1,1775670645568,-1914,411,10318,339641,-47647,133168,0,0,0,320,329,270,379,274,405,544,383,364,355,335,350,0,
2,1775670645568,6101,2067,10011,-6313903,1026253,1690874,0,0,0,252,431,235,333,371,380,312,297,262,143,171,190,0,
1,1775670645584,-1832,416,10337,306654,-54977,140499,0,0,0,321,328,269,381,273,407,544,367,369,352,327,358,0,
2,1775670645584,5130,1574,11801,-6255260,1480737,1910786,0,0,0,250,431,233,333,369,380,312,297,262,143,171,189,0,
1,1775670645600,-1852,378,9834,340862,-96516,133168,0,0,0,323,331,260,383,276,410,544,360,369,350,321,366,0,
2,1775670645600,4398,1287,13802,-6174625,1545489,1942551,0,0,0,251,432,235,333,367,379,313,295,261,144,171,191,0,
1,1775670645616,-1919,325,9633,353080,-102625,125838,0,0,0,322,339,258,384,282,419,542,350,373,344,312,380,0,
2,1775670645616,4355,1081,15759,-6177069,1545489,1761735,0,0,0,250,431,237,333,367,382,312,295,261,145,171,192,0,
1,1775670645632,-1943,277,9724,348193,-83077,124616,0,0,0,324,345,258,379,288,414,543,335,372,340,303,387,0,
2,1775670645632,4273,1048,17889,-6274807,1573588,1332907,0,0,0,250,430,238,335,370,384,314,297,262,143,168,191,0,
1,1775670645648,-1914,224,9820,353080,-72082,123394,0,0,0,337,341,254,395,302,418,542,328,374,339,296,395,0,
2,1775670645648,4096,1129,20282,-6335894,1583362,904080,0,0,0,252,431,238,335,370,382,314,295,262,145,168,190,0,
1,1775670645664,-1895,153,9820,372627,-87964,127059,0,0,0,340,343,255,409,318,434,539,329,384,333,292,410,0,
2,1775670645664,4398,1086,23302,-6300464,1621236,658512,0,0,0,253,430,242,334,367,380,316,294,264,153,177,187,0,
1,1775670645680,-1876,71,9820,400727,-123394,146607,0,0,0,331,352,265,394,317,462,528,328,385,327,291,431,0,
2,1775670645680,5465,-86,27207,-6240599,1679879,686612,0,0,0,252,429,238,334,366,380,314,289,261,156,187,189,0,
1,1775670645696,-1904,19,9853,437379,-164933,172263,0,0,0,345,365,272,399,317,475,537,312,411,323,280,449,0,
2,1775670645696,6714,-3622,29447,-6228381,1745852,819781,0,0,0,253,429,238,338,367,384,321,290,270,156,180,191,0,
1,1775670645712,-2014,0,9940,488692,-204028,205250,0,0,0,350,373,266,415,325,480,536,301,420,315,274,455,0,
2,1775670645712,6882,-11428,28925,-6086661,2189341,907745,0,0,0,255,430,238,341,368,385,322,290,272,162,190,193,0,
1,1775670645728,-2148,-38,10064,568104,-229685,244346,0,0,0,364,378,269,414,319,490,539,278,414,305,250,470,0,
2,1775670645728,2388,-22143,26489,-5280319,2756223,718377,0,0,0,257,428,236,343,367,390,322,285,271,170,190,191,0,
1,1775670645744,-2211,-95,10251,676838,-248011,283441,0,0,0,380,385,274,436,331,503,537,260,418,308,227,489,0,
2,1775670645744,-4675,-31945,22488,-3871663,2653598,445931,0,0,0,259,429,239,345,367,390,325,288,275,170,192,192,0,
1,1775670645760,-2258,-114,10672,850324,-260228,307876,0,0,0,389,408,258,441,353,496,526,249,422,300,224,513,0,
2,1775670645760,-8743,-38305,17760,-2167349,1558928,84299,0,0,0,258,428,238,343,366,390,325,289,276,168,194,194,0,
1,1775670645776,-2278,-172,11155,1100779,-266337,327423,0,0,0,398,416,239,440,376,499,503,237,436,276,209,527,0,
2,1775670645776,-8571,-41670,14630,-535117,444709,-456927,0,0,0,255,427,235,341,365,387,324,293,275,172,203,194,0,
1,1775670645792,-2225,-392,11691,1417207,-294437,345749,0,0,0,405,405,229,441,375,513,483,229,446,259,188,534,0,
2,1775670645792,-6968,-38444,14926,1076344,-145385,-956614,0,0,0,251,423,236,343,369,387,347,361,272,165,210,187,0,
1,1775670645808,-2412,-574,12500,1769065,-357967,382401,0,0,0,403,405,224,441,373,527,458,220,449,245,181,539,0,
2,1775670645808,-6044,-22005,19751,2513099,-714712,-619417,0,0,0,248,411,227,343,368,381,395,450,264,157,219,177,0,
1,1775670645824,-2852,-569,13448,2217440,-467922,480140,0,0,0,401,428,218,447,398,536,409,206,459,224,172,543,0,
2,1775670645824,177,15544,20784,3516140,-2034181,554665,0,0,0,248,390,208,338,351,366,436,470,257,174,249,176,0,
1,1775670645840,-2986,-497,14563,2838079,-602313,670730,0,0,0,414,452,209,464,426,526,351,188,468,212,151,553,0,
2,1775670645840,4000,24359,10753,3507588,-2631607,1336573,0,0,0,254,378,209,340,336,375,455,484,262,198,290,170,0,
1,1775670645856,-3350,-469,15960,3535688,-642630,841772,0,0,0,421,444,216,472,434,508,330,170,468,207,137,543,0,
2,1775670645856,-67,7901,8513,4543615,-1964542,1335351,0,0,0,257,383,214,352,340,383,478,510,270,278,383,166,0,
1,1775670645872,-5130,-277,18018,4442212,-596204,1076344,0,0,0,452,423,200,471,438,502,305,167,435,197,133,509,0,
2,1775670645872,-6929,-7384,19329,5404935,-287106,444709,0,0,0,250,401,233,348,342,389,514,540,296,295,400,170,0,
1,1775670645888,-8016,-148,21071,5436700,-565661,1512502,0,0,0,421,414,216,404,400,492,209,144,437,170,125,446,0,
2,1775670645888,-3254,-2574,23412,4114788,64751,-714712,0,0,0,272,424,264,380,358,414,525,547,295,350,440,205,0,
1,1775670645904,-10701,-818,24512,6415306,-648738,2083050,0,0,0,401,386,187,389,374,458,204,156,411,152,124,379,0,
2,1775670645904,4235,2373,18454,2250427,-219911,-950506,0,0,0,304,441,288,395,368,428,526,551,306,362,445,235,0,
1,1775670645920,-10830,-1411,28652,7272961,-704938,2703689,0,0,0,319,362,197,340,320,435,185,161,374,133,116,315,0,
2,1775670645920,4374,1115,13012,1191187,-172263,-173485,0,0,0,337,453,306,406,378,439,536,554,317,350,428,257,0,
1,1775670645936,-9719,-402,31294,7799527,-558330,3144734,0,0,0,257,329,185,299,295,353,211,190,308,124,130,215,0,
2,1775670645936,1856,234,10270,641408,-18325,228463,0,0,0,357,459,306,413,382,434,540,560,346,338,407,264,0,
1,1775670645952,-9715,3283,30112,8036543,-208915,3446501,0,0,0,233,283,186,266,212,283,275,220,271,139,167,137,0,
2,1775670645952,851,603,10246,465479,47647,108734,0,0,0,380,466,330,411,377,435,546,568,331,345,402,273,0,
1,1775670645968,-10533,9021,21799,8012108,450818,3648087,0,0,0,233,274,201,259,187,273,303,239,271,150,196,119,0,
2,1775670645968,1842,1115,10423,339641,-64751,1221,0,0,0,390,470,324,411,381,439,549,568,316,352,407,287,0,
1,1775670645984,-10954,12639,11701,7520972,1226617,3750712,0,0,0,234,279,207,264,189,282,305,248,276,153,209,119,0,
2,1775670645984,2096,1416,10289,256563,-167377,-4886,0,0,0,404,474,329,417,384,445,550,564,313,356,407,299,0,
1,1775670646000,-10409,15003,8202,5238780,1276708,3352428,0,0,0,232,281,209,264,188,285,299,252,272,152,212,119,0,
2,1775670646000,1765,1536,10107,254119,-217468,15882,0,0,0,416,477,336,421,387,448,552,558,317,363,406,307,0,
1,1775670646016,-6953,18104,8628,983493,605978,1921782,0,0,0,229,284,219,259,190,292,297,254,271,150,211,123,0,
2,1775670646016,1536,1545,10155,293215,-227241,0,0,0,0,420,479,332,426,392,452,553,547,321,371,403,315,0,
1,1775670646032,-3450,15314,8437,-2939483,873537,-40317,0,0,0,230,286,223,258,190,294,304,256,272,151,211,126,0,
2,1775670646032,1373,1622,10232,337197,-189368,-28099,0,0,0,423,483,333,427,394,455,546,534,321,373,395,325,0,
1,1775670646048,-3862,9231,6613,-4741535,1692096,-1244943,0,0,0,236,288,213,261,192,280,309,256,266,158,217,120,0,
2,1775670646048,1363,1622,10179,386066,-109955,-46425,0,0,0,431,492,339,429,396,458,540,524,322,349,359,339,0,
1,1775670646064,-7217,4862,4321,-4612032,1762957,-1226617,0,0,0,235,287,215,263,189,281,310,258,267,158,217,120,0,
2,1775670646064,1450,1478,9992,449596,-41538,-56199,0,0,0,435,495,336,436,403,466,541,513,326,291,287,356,0,
1,1775670646080,-8107,4288,3895,-4327369,541226,-599869,0,0,0,231,289,212,263,192,286,308,258,267,160,217,126,0,
2,1775670646080,1521,1325,9844,486248,-24434,-64751,0,0,0,440,499,334,435,403,466,531,496,324,286,276,364,0,
1,1775670646096,-5934,5029,5250,-4558276,-381179,-248011,0,0,0,231,289,220,263,192,292,308,259,272,160,214,127,0,
2,1775670646096,1560,1210,9767,472809,-40317,-72082,0,0,0,445,503,339,437,406,469,529,488,329,246,228,376,0,
1,1775670646112,-3517,5518,7279,-5197241,-441044,-377514,0,0,0,230,290,226,263,192,293,310,263,274,163,221,128,0,
2,1775670646112,1603,1129,9743,443488,-64751,-80634,0,0,0,448,502,338,442,419,477,524,474,329,235,197,385,0,
1,1775670646128,-3752,4819,8820,-5872858,-219911,-803898,0,0,0,230,289,223,264,192,291,312,260,271,161,221,126,0,
2,1775670646128,1631,1086,9791,416610,-97738,-95294,0,0,0,448,502,342,443,414,479,528,462,339,240,196,397,0,
1,1775670646144,-4623,3723,10016,-6276029,-482583,-1131322,0,0,0,231,289,222,265,193,293,310,260,270,165,224,126,0,
2,1775670646144,1588,1086,9882,419053,-119729,-112399,0,0,0,452,505,336,447,417,481,523,447,340,241,197,402,0,
1,1775670646160,-4412,2742,11428,-6420193,-1044579,-1308473,0,0,0,230,289,221,266,194,294,310,261,271,163,224,127,0,
2,1775670646160,1521,1033,9930,436157,-123394,-128281,0,0,0,460,508,336,450,421,485,522,430,348,277,204,407,0,
1,1775670646176,-4048,1986,13022,-6470284,-1373225,-1370781,0,0,0,230,288,219,268,195,294,311,260,270,165,224,125,0,
2,1775670646176,1454,933,9935,444709,-105068,-131946,0,0,0,462,511,334,453,424,487,519,417,352,259,188,423,0,
1,1775670646192,-4063,1440,15027,-6508158,-1536936,-1265712,0,0,0,228,288,226,266,193,299,315,262,275,164,223,128,0,
2,1775670646192,1454,861,9968,448375,-86742,-127059,0,0,0,469,517,335,457,430,491,515,400,352,240,173,441,0,
1,1775670646208,-4087,952,17410,-6625444,-1710422,-923628,0,0,0,226,289,231,262,191,300,320,267,278,158,221,128,0,
2,1775670646208,1574,823,10045,466701,-86742,-127059,0,0,0,478,521,339,463,437,498,509,378,351,240,169,449,0,
1,1775670646224,-3689,291,19588,-6729291,-1855808,-591317,0,0,0,227,290,226,263,193,294,320,271,273,157,221,123,0,
2,1775670646224,1698,713,10122,504574,-103847,-149051,0,0,0,485,520,338,462,439,501,503,355,354,247,171,459,0,
1,1775670646240,-3388,-454,21789,-6674313,-1879021,-582765,0,0,0,227,291,231,262,196,299,316,267,277,156,221,126,0,
2,1775670646240,1742,603,10193,548556,-123394,-186924,0,0,0,488,522,336,462,444,503,500,335,361,256,176,475,0,
1,1775670646256,-3881,-1450,24546,-6418971,-1853365,-1067792,0,0,0,228,290,238,262,196,306,306,260,286,158,225,126,0,
2,1775670646256,1694,559,10284,624304,-146607,-237015,0,0,0,491,531,345,472,456,513,498,318,370,259,173,492,0,
1,1775670646272,-4886,-3776,28016,-6025574,-1948660,-2021963,0,0,0,229,292,218,265,196,291,320,274,274,174,241,125,0,
2,1775670646272,1703,559,10433,729373,-162490,-285884,0,0,0,496,541,345,470,460,514,489,300,382,264,167,519,0,
1,1775670646288,-4345,-12835,31825,-5425705,-1965764,-3144734,0,0,0,226,292,219,265,198,292,319,280,275,178,257,127,0,
2,1775670646288,1823,512,10696,874759,-180816,-333532,0,0,0,509,541,340,481,467,518,456,269,383,267,171,525,0,
1,1775670646304,-4469,-25695,30480,-4822170,-1743409,-3457497,0,0,0,223,305,208,264,208,285,317,297,267,183,281,122,0,
2,1775670646304,1976,339,11127,1058018,-210137,-390953,0,0,0,508,544,332,488,474,530,431,245,375,296,199,550,0,
1,1775670646320,-3359,-38391,24149,-4246735,-1771509,-2684141,0,0,0,224,293,204,266,197,281,329,307,267,199,286,119,0,
2,1775670646320,1933,172,11768,1284038,-197920,-456927,0,0,0,514,555,325,490,479,526,421,233,390,316,208,558,0,
1,1775670646336,6240,-47795,17645,-2747671,-1469741,-1472185,0,0,0,234,273,174,274,184,257,372,350,255,265,328,99,0,
2,1775670646336,1340,186,12490,1660331,-109955,-489913,0,0,0,519,558,311,497,485,533,393,227,398,281,191,562,0,
1,1775670646352,14256,-52395,13491,-197920,46425,-482583,0,0,0,243,260,170,282,171,248,429,399,248,294,371,88,0,
2,1775670646352,880,201,13074,2127032,-14660,-453262,0,0,0,520,563,298,480,486,537,363,236,388,269,183,579,0,
1,1775670646368,12763,-43804,15084,2772106,2107485,238237,0,0,0,239,260,156,280,172,242,459,447,239,320,407,78,0,
2,1775670646368,923,153,13874,2643824,37873,-382401,0,0,0,527,564,274,485,508,548,314,239,384,262,182,595,0,
1,1775670646384,3709,-12289,18827,4840496,2940705,596204,0,0,0,247,262,153,290,169,244,467,466,242,351,423,77,0,
2,1775670646384,1737,196,15180,3276681,2443,-354301,0,0,0,526,557,260,480,509,545,276,223,378,264,187,590,0,
1,1775670646400,-2766,9217,20842,5000542,2177123,537561,0,0,0,256,268,165,300,174,256,477,476,252,364,429,79,0,
2,1775670646400,2971,282,16807,3988950,-124616,-415388,0,0,0,522,557,260,469,502,531,252,201,380,255,174,573,0,
1,1775670646416,-2249,4474,21110,4543615,879645,213802,0,0,0,255,282,186,305,197,284,488,483,265,371,437,92,0,
2,1775670646416,5001,378,19210,4950451,-387288,-663399,0,0,0,518,540,259,462,496,525,245,176,382,243,156,529,0,
1,1775670646432,459,-4623,19516,3441614,160046,-41538,0,0,0,267,300,210,318,223,325,494,481,284,391,448,143,0,
2,1775670646432,6704,162,22545,5982814,-610865,-1097113,0,0,0,498,518,251,453,489,513,246,162,374,225,143,463,0,
