sole_id,timestamp,accel_x,accel_y,accel_z,gyro_x,gyro_y,gyro_z,magn_x,magn_y,magn_z,pressure_01,pressure_02,pressure_03,pressure_04,pressure_05,pressure_06,pressure_07,pressure_08,pressure_09,pressure_10,pressure_11,pressure_12,corrupt,brick
1,1775670882592,-1861,1244,9672,-17104,0,0,0,0,0,349,356,289,359,228,351,513,462,317,383,450,189,0,
2,1775670882592,1454,1186,9873,-6108,-59864,-9773,0,0,0,447,496,360,444,401,500,547,488,369,248,214,375,0,
1,1775670882608,-1856,1244,9691,-10995,-2443,0,0,0,0,348,354,293,358,225,352,513,461,313,380,448,185,0,
2,1775670882608,1445,1177,9873,0,-59864,-10995,0,0,0,451,499,366,445,404,503,548,487,364,250,218,376,0,
1,1775670882624,-1866,1249,9710,-6108,-6108,0,0,0,0,349,354,293,357,226,349,514,461,311,377,448,181,0,
2,1775670882624,1440,1162,9873,2443,-63529,-12217,0,0,0,449,496,362,441,400,499,487,457,385,242,211,371,0,
1,1775670882640,-1866,1249,9715,0,-4886,0,0,0,0,348,354,296,356,223,347,513,459,308,375,449,179,0,
2,1775670882640,1445,1162,9868,0,-67195,-10995,0,0,0,448,496,361,441,400,497,525,476,368,246,213,375,0,
1,1775670882656,-1856,1258,9724,4886,-2443,0,0,0,0,350,359,294,357,225,347,510,460,307,378,449,175,0,
2,1775670882656,1445,1167,9863,0,-69638,-9773,0,0,0,449,495,363,443,401,500,548,491,363,248,218,374,0,
1,1775670882672,-1837,1263,9715,10995,-2443,0,0,0,0,348,359,293,361,228,354,506,463,307,379,449,180,0,
2,1775670882672,1440,1186,9873,4886,-72082,-10995,0,0,0,445,491,358,442,402,501,551,496,366,247,217,371,0,
1,1775670882688,-1823,1273,9696,17104,-2443,0,0,0,0,348,357,287,360,226,346,503,463,302,383,447,177,0,
2,1775670882688,1421,1201,9887,20769,-70860,-12217,0,0,0,443,490,356,444,404,503,553,497,368,246,217,374,0,
1,1775670882704,-1813,1268,9691,20769,-6108,1221,0,0,0,348,357,287,361,232,346,503,463,303,381,448,174,0,
2,1775670882704,1421,1201,9901,39095,-69638,-14660,0,0,0,445,494,359,446,406,505,549,494,364,244,215,374,0,
1,1775670882720,-1818,1249,9691,20769,-8552,1221,0,0,0,347,356,292,361,228,347,508,462,304,380,448,173,0,
2,1775670882720,1426,1186,9901,53756,-69638,-15882,0,0,0,445,494,357,447,405,506,547,491,362,243,214,371,0,
1,1775670882736,-1828,1244,9696,21991,-9773,1221,0,0,0,351,356,289,362,227,347,510,462,305,378,448,174,0,
2,1775670882736,1435,1172,9901,69638,-73303,-18325,0,0,0,445,491,351,447,404,505,552,495,366,244,215,372,0,
1,1775670882752,-1813,1258,9696,30543,-9773,1221,0,0,0,358,358,293,363,226,344,512,459,303,378,447,173,0,
2,1775670882752,1430,1167,9906,79412,-80634,-19547,0,0,0,446,496,351,446,403,502,549,491,362,243,213,373,0,
1,1775670882768,-1804,1263,9710,42760,-13439,1221,0,0,0,361,360,293,362,225,343,508,456,302,381,448,174,0,
2,1775670882768,1426,1162,9911,86742,-86742,-20769,0,0,0,450,499,343,446,407,499,549,488,359,247,216,379,0,
1,1775670882784,-1804,1244,9734,54977,-18325,0,0,0,0,363,359,289,363,224,342,510,452,301,383,448,176,0,
2,1775670882784,1426,1153,9930,94073,-89186,-18325,0,0,0,450,496,337,450,410,499,548,487,360,248,215,378,0,
1,1775670882800,-1789,1225,9710,48869,-19547,0,0,0,0,371,357,288,368,223,341,496,426,305,386,446,175,0,
2,1775670882800,1421,1139,9944,103847,-92851,-17104,0,0,0,449,497,342,453,415,501,547,481,360,246,210,376,0,
1,1775670882816,-1785,1225,9691,45204,-19547,0,0,0,0,373,356,291,370,225,342,485,414,309,388,444,176,0,
2,1775670882816,1421,1124,9949,114842,-94073,-17104,0,0,0,443,494,334,452,407,498,546,476,360,240,206,376,0,
1,1775670882832,-1785,1225,9705,45204,-23212,0,0,0,0,369,354,291,366,229,343,514,451,301,383,446,182,0,
2,1775670882832,1416,1105,9944,118507,-95294,-17104,0,0,0,449,494,342,458,404,502,546,465,360,245,202,376,0,
1,1775670882848,-1794,1215,9724,46425,-32986,0,0,0,0,372,351,294,370,224,348,513,448,301,385,445,186,0,
2,1775670882848,1416,1081,9944,123394,-101403,-18325,0,0,0,452,498,353,450,408,505,538,446,361,244,200,379,0,
1,1775670882864,-1809,1206,9719,43982,-37873,0,0,0,0,371,355,296,372,228,349,515,448,302,383,445,188,0,
2,1775670882864,1421,1072,9954,129503,-107512,-21991,0,0,0,452,499,353,448,409,502,533,433,364,242,191,385,0,
1,1775670882880,-1809,1196,9715,37873,-35430,0,0,0,0,363,356,300,374,236,358,515,454,308,390,449,195,0,
2,1775670882880,1411,1052,9959,138055,-111177,-25656,0,0,0,453,500,350,448,410,501,531,422,366,238,181,384,0,
1,1775670882896,-1809,1191,9719,30543,-35430,-2443,0,0,0,368,356,292,383,231,349,516,449,302,383,445,189,0,
2,1775670882896,1411,1019,9964,149051,-112399,-32986,0,0,0,455,498,342,448,408,498,528,409,364,242,178,385,0,
1,1775670882912,-1804,1182,9729,21991,-41538,-6108,0,0,0,364,356,285,389,239,350,521,451,311,393,441,205,0,
2,1775670882912,1421,1005,9987,168598,-112399,-43982,0,0,0,456,498,334,449,408,497,521,397,362,242,174,387,0,
1,1775670882928,-1804,1182,9705,8552,-50090,-9773,0,0,0,361,351,288,375,227,355,522,441,309,392,441,215,0,
2,1775670882928,1421,1019,10064,204028,-120951,-54977,0,0,0,460,500,336,448,406,496,509,383,361,238,171,387,0,
1,1775670882944,-1809,1182,9691,0,-56199,-13439,0,0,0,358,354,292,370,228,354,522,443,312,390,442,218,0,
2,1775670882944,1435,1005,10102,224798,-153938,-62308,0,0,0,464,503,340,445,403,493,499,372,359,237,171,387,0,
1,1775670882960,-1828,1191,9691,0,-61086,-18325,0,0,0,355,350,302,371,228,360,526,444,315,393,441,217,0,
2,1775670882960,1454,961,10112,241902,-189368,-72082,0,0,0,463,505,339,443,402,491,490,365,359,237,169,388,0,
1,1775670882976,-1837,1206,9691,0,-68416,-19547,0,0,0,362,348,314,373,228,373,524,446,325,395,438,231,0,
2,1775670882976,1464,938,10174,279776,-204028,-90408,0,0,0,460,504,346,438,402,491,477,354,362,233,165,391,0,
1,1775670882992,-1842,1206,9691,0,-78190,-20769,0,0,0,367,349,313,377,232,376,522,445,331,394,430,233,0,
2,1775670882992,1526,947,10323,346971,-219911,-118507,0,0,0,455,502,343,437,408,495,465,342,364,227,158,389,0,
1,1775670883008,-1852,1201,9662,0,-81855,-20769,0,0,0,360,348,300,382,238,367,529,438,326,397,423,221,0,
2,1775670883008,1708,1024,10619,452040,-248011,-163711,0,0,0,461,507,318,435,412,484,444,332,352,233,164,395,0,
1,1775670883024,-1856,1196,9643,-2443,-81855,-21991,0,0,0,359,345,297,383,242,364,534,432,324,405,418,234,0,
2,1775670883024,2019,1043,11174,645073,-331088,-244346,0,0,0,459,502,307,424,407,473,437,327,351,227,159,392,0,
1,1775670883040,-1861,1186,9652,-12217,-83077,-21991,0,0,0,359,334,297,386,234,364,538,426,324,407,415,241,0,
2,1775670883040,2397,871,11797,882089,-452040,-342084,0,0,0,459,501,306,421,405,466,414,322,340,226,163,389,0,
1,1775670883056,-1890,1201,9681,-21991,-89186,-21991,0,0,0,354,341,307,380,240,370,538,434,329,407,420,229,0,
2,1775670883056,2684,679,12385,1115439,-470366,-478918,0,0,0,458,498,293,409,402,451,407,325,328,223,159,380,0,
1,1775670883072,-1933,1253,9729,-17104,-89186,-17104,0,0,0,353,366,304,386,256,375,537,412,329,410,417,237,0,
2,1775670883072,2857,679,12653,1342681,-433714,-646295,0,0,0,455,490,294,408,401,448,395,318,322,220,158,366,0,
1,1775670883088,-1971,1277,9767,1221,-74525,-8552,0,0,0,369,368,311,385,241,376,535,426,333,424,429,237,0,
2,1775670883088,2943,626,12452,1549154,-421497,-819781,0,0,0,443,479,274,405,396,434,386,319,312,219,161,354,0,
1,1775670883104,-1962,1249,9801,20769,-53756,-1221,0,0,0,357,370,309,376,292,382,535,425,334,423,430,252,0,
2,1775670883104,3105,272,12184,1731192,-433714,-1003040,0,0,0,426,467,263,399,394,424,387,332,307,203,159,311,0,
1,1775670883120,-1928,1215,9786,25656,-46425,1221,0,0,0,356,365,313,374,264,390,543,429,348,414,437,245,0,
2,1775670883120,3694,-23,11648,1882686,-392175,-1263269,0,0,0,397,461,264,388,389,409,387,343,297,187,158,268,0,
1,1775670883136,-1928,1215,9753,30543,-46425,4886,0,0,0,358,359,323,375,260,391,551,430,349,410,433,254,0,
2,1775670883136,4469,-464,10691,1925447,-299323,-1590693,0,0,0,351,450,261,374,382,395,388,354,291,172,158,236,0,
1,1775670883152,-1952,1234,9753,47647,-48869,10995,0,0,0,366,362,325,378,255,387,544,422,344,413,423,272,0,
2,1775670883152,4666,-670,10035,1865582,-228463,-1974316,0,0,0,313,442,260,361,374,391,368,353,295,161,162,213,0,
1,1775670883168,-1976,1234,9758,72082,-47647,20769,0,0,0,367,371,319,394,257,380,541,416,346,418,421,285,0,
2,1775670883168,3747,1756,10098,1572367,-480140,-2206445,0,0,0,299,442,264,359,371,395,366,354,295,156,163,204,0,
1,1775670883184,-1981,1210,9739,90408,-37873,29321,0,0,0,376,375,320,408,255,379,539,416,350,422,419,289,0,
2,1775670883184,4024,6953,9227,792903,-1209513,-1966986,0,0,0,296,443,265,363,375,396,391,366,287,154,157,205,0,
1,1775670883200,-1952,1196,9739,103847,-25656,36651,0,0,0,380,380,325,401,253,388,540,416,363,417,413,298,0,
2,1775670883200,6226,9887,6867,-149051,-1367116,-1486845,0,0,0,294,443,264,363,375,393,391,366,284,155,157,204,0,
1,1775670883216,-1952,1186,9767,119729,-20769,39095,0,0,0,381,374,336,402,251,402,542,414,368,411,408,311,0,
2,1775670883216,7307,9538,5039,-830776,-555887,-966388,0,0,0,294,441,264,362,374,395,388,363,280,157,162,206,0,
1,1775670883232,-1966,1162,9791,134390,-17104,42760,0,0,0,389,358,349,414,253,415,541,413,358,412,406,319,0,
2,1775670883232,5876,8456,5197,-1099557,321315,-342084,0,0,0,295,444,271,361,376,405,387,363,286,152,159,206,0,
1,1775670883248,-1957,1124,9753,139277,-7330,43982,0,0,0,386,373,337,396,276,426,547,412,364,406,410,321,0,
2,1775670883248,4828,8140,5943,-1248608,724486,221133,0,0,0,289,444,264,361,375,392,389,367,280,150,159,200,0,
1,1775670883264,-1933,1095,9700,138055,0,43982,0,0,0,389,406,335,392,300,411,541,408,357,401,410,305,0,
2,1775670883264,4063,8102,6953,-1467298,978606,657290,0,0,0,289,444,264,363,381,395,388,367,282,151,160,202,0,
1,1775670883280,-1909,1067,9681,129503,0,37873,0,0,0,384,393,343,393,266,394,547,407,354,397,408,314,0,
2,1775670883280,3110,7977,8044,-1721418,1197295,977384,0,0,0,287,444,263,360,377,394,390,369,282,154,163,200,0,
1,1775670883296,-1909,1052,9681,120951,-3665,32986,0,0,0,382,397,335,401,266,399,543,399,354,400,400,328,0,
2,1775670883296,2096,7810,9078,-1984090,1310916,1216843,0,0,0,288,445,264,360,377,394,389,368,281,154,164,203,0,
1,1775670883312,-1904,1028,9652,109955,-7330,28099,0,0,0,386,388,328,409,279,401,553,408,354,402,404,335,0,
2,1775670883312,1560,7580,9964,-2213775,1309695,1425759,0,0,0,289,446,265,358,377,393,383,364,282,152,160,202,0,
1,1775670883328,-1904,1005,9624,94073,-6108,25656,0,0,0,379,382,345,393,258,406,555,408,360,398,401,325,0,
2,1775670883328,1282,7087,10969,-2416582,1310916,1609019,0,0,0,289,443,266,360,377,395,386,364,281,152,162,201,0,
1,1775670883344,-1909,1000,9633,74525,-1221,23212,0,0,0,381,383,353,393,254,410,552,408,364,393,396,318,0,
2,1775670883344,942,6231,12021,-2577851,1321912,1736079,0,0,0,289,444,267,361,378,397,388,365,282,156,169,201,0,
1,1775670883360,-1904,1005,9686,56199,0,19547,0,0,0,379,385,359,394,255,407,548,410,364,398,397,319,0,
2,1775670883360,569,5092,13012,-2701246,1263269,1833817,0,0,0,288,444,267,356,374,393,387,363,283,165,180,201,0,
1,1775670883376,-1895,1009,9743,45204,0,18325,0,0,0,385,390,379,390,259,418,547,416,369,402,399,332,0,
2,1775670883376,660,4139,13807,-2781880,1159422,1866804,0,0,0,287,444,266,354,371,391,388,363,283,173,190,201,0,
1,1775670883392,-1899,1009,9748,41538,-1221,18325,0,0,0,400,396,379,396,258,421,548,417,372,401,397,333,0,
2,1775670883392,1028,3029,14367,-2849075,1036027,1786169,0,0,0,285,442,263,357,374,394,387,361,283,184,202,201,0,
1,1775670883408,-1904,1019,9753,41538,0,18325,0,0,0,399,396,362,401,267,416,540,409,370,399,397,326,0,
2,1775670883408,1340,1631,14529,-2872288,880867,1588249,0,0,0,285,442,263,358,374,394,385,357,282,193,213,199,0,
1,1775670883424,-1895,1024,9767,47647,0,21991,0,0,0,397,396,355,398,276,411,537,399,367,400,395,324,0,
2,1775670883424,1698,220,14175,-2792875,722042,1257160,0,0,0,287,444,267,357,372,393,387,356,284,192,213,198,0,
1,1775670883440,-1885,1019,9782,58643,-1221,24434,0,0,0,404,398,362,395,269,411,545,393,368,400,391,327,0,
2,1775670883440,1971,-1067,13677,-2656042,614530,901637,0,0,0,287,444,267,357,372,394,388,356,285,191,209,198,0,
1,1775670883456,-1890,1005,9786,70860,-3665,26878,0,0,0,404,394,371,395,261,415,543,384,370,397,388,326,0,
2,1775670883456,1856,-2426,12969,-2431243,555887,542448,0,0,0,290,446,268,358,373,394,391,360,287,188,206,201,0,
1,1775670883472,-1895,995,9786,83077,-2443,30543,0,0,0,404,389,371,395,269,417,538,374,368,400,384,323,0,
2,1775670883472,1052,-3474,12242,-2106263,516791,332310,0,0,0,290,447,268,360,374,396,388,357,284,190,208,201,0,
1,1775670883488,-1885,990,9786,100181,0,31764,0,0,0,393,393,353,391,273,413,538,371,370,401,373,324,0,
2,1775670883488,186,-4455,11505,-1692096,425162,267558,0,0,0,287,444,266,356,371,391,392,358,285,193,208,201,0,
1,1775670883504,-1876,995,9806,123394,0,35430,0,0,0,397,395,356,391,271,414,535,359,377,392,361,334,0,
2,1775670883504,-172,-5666,10681,-1199739,304210,348193,0,0,0,286,444,266,356,371,392,386,356,282,190,204,200,0,
1,1775670883520,-1847,995,9791,147829,0,39095,0,0,0,406,390,370,391,264,423,527,350,377,390,367,343,0,
2,1775670883520,-148,-7083,9964,-643851,260228,403171,0,0,0,289,445,266,357,372,393,390,360,286,189,204,200,0,
1,1775670883536,-1756,1033,9384,116064,32986,46425,0,0,0,409,392,369,410,271,433,521,328,374,375,359,340,0,
2,1775670883536,-392,-7925,9600,-72082,239459,392175,0,0,0,288,446,266,360,373,395,391,360,285,186,202,200,0,
1,1775670883552,-1722,1024,9399,147829,6108,52534,0,0,0,403,411,352,406,289,436,520,319,371,384,342,348,0,
2,1775670883552,-856,-7791,9700,401949,138055,394618,0,0,0,291,448,268,362,375,397,391,360,284,187,202,201,0,
1,1775670883568,-1765,961,9839,267558,-87964,61086,0,0,0,435,412,359,424,285,436,520,306,379,362,307,374,0,
2,1775670883568,-732,-7518,9758,792903,-43982,455705,0,0,0,290,446,265,363,378,396,394,375,282,170,183,198,0,
1,1775670883584,-1871,909,10093,356745,-145385,70860,0,0,0,435,402,377,428,276,443,513,291,379,352,284,397,0,
2,1775670883584,244,-6968,9997,1156978,-216246,519235,0,0,0,283,442,258,359,379,392,403,407,278,159,182,193,0,
1,1775670883600,-1971,842,10093,397062,-134390,84299,0,0,0,425,389,372,424,293,447,499,270,389,344,261,407,0,
2,1775670883600,1507,-1014,10830,1643227,-384845,488692,0,0,0,276,436,253,351,375,392,418,441,279,213,231,191,0,
1,1775670883616,-2053,751,10064,432492,-75747,111177,0,0,0,425,389,371,432,308,458,483,250,390,330,242,408,0,
2,1775670883616,1933,6719,9949,2015855,-742812,339641,0,0,0,272,429,245,344,367,390,429,461,279,237,256,190,0,
1,1775670883632,-2215,746,10332,511905,0,146607,0,0,0,427,402,368,441,308,458,468,245,385,318,238,417,0,
2,1775670883632,780,6934,8676,2254092,-1104444,59864,0,0,0,271,422,234,343,363,379,434,469,272,173,228,187,0,
1,1775670883648,-2306,751,10691,637743,114842,193033,0,0,0,432,432,337,444,333,452,454,250,395,315,245,434,0,
2,1775670883648,311,2445,10342,2530203,-937067,-215024,0,0,0,272,420,232,345,364,383,444,473,272,180,240,187,0,
1,1775670883664,-2091,698,11079,819781,243124,244346,0,0,0,440,465,297,446,361,454,436,248,402,312,241,444,0,
2,1775670883664,957,1363,12313,2582738,-615752,-327423,0,0,0,277,422,238,353,366,389,453,479,279,190,254,186,0,
1,1775670883680,-1799,617,11505,1061683,280998,276111,0,0,0,440,459,278,447,340,460,413,237,391,302,225,455,0,
2,1775670883680,1421,2014,12849,2411695,-390953,-339641,0,0,0,281,430,259,349,361,394,453,483,279,222,293,185,0,
1,1775670883696,-1732,531,11931,1336573,274889,290771,0,0,0,439,446,271,449,350,486,388,231,396,293,219,470,0,
2,1775670883696,1627,2239,13041,2161241,-146607,-313984,0,0,0,285,436,264,353,360,394,474,494,286,239,298,186,0,
1,1775670883712,-1947,492,12419,1632231,278554,310319,0,0,0,431,435,234,440,335,480,374,225,386,297,220,483,0,
2,1775670883712,1957,1761,13074,1815491,-7330,-243124,0,0,0,294,443,281,353,358,392,480,494,281,247,304,186,0,
1,1775670883728,-2297,469,12974,1985312,301767,364075,0,0,0,451,438,243,437,331,501,343,215,390,281,205,501,0,
2,1775670883728,2134,1397,12002,1408655,-84299,-118507,0,0,0,299,448,303,364,362,409,492,497,289,214,266,209,0,
1,1775670883744,-2761,425,13534,2399478,331088,481361,0,0,0,438,420,261,433,333,494,306,210,388,264,186,497,0,
2,1775670883744,1861,1407,10619,1048244,-175929,-9773,0,0,0,309,451,317,376,366,414,505,504,296,203,255,220,0,
1,1775670883760,-3091,354,14237,2849075,370184,656069,0,0,0,445,418,251,423,339,485,295,210,377,245,193,479,0,x
2,1775670883760,1622,1258,10107,735481,-245567,39095,0,0,0,328,453,320,385,363,416,516,505,298,226,273,225,0,x
1,1775670883776,-3306,191,15194,3382971,481361,850324,0,0,0,429,397,259,409,325,486,262,197,380,224,172,457,0,
2,1775670883776,1507,1009,10145,406836,-284663,57421,0,0,0,348,460,323,396,367,422,524,513,308,229,276,235,0,
1,1775670883792,-3584,-181,16276,3891211,618195,1018923,0,0,0,426,394,257,403,323,473,257,191,371,217,165,409,0,
2,1775670883792,1311,1000,10184,101403,-257785,37873,0,0,0,363,467,328,402,372,427,530,520,312,235,277,242,0,
1,1775670883808,-4072,-445,17118,4289495,728151,1155757,0,0,0,404,402,249,377,333,433,255,195,356,208,168,355,0,
2,1775670883808,1201,1215,10078,-79412,-184481,12217,0,0,0,374,472,332,406,375,429,536,526,312,258,295,246,0,
1,1775670883824,-4790,-373,17717,4693888,883311,1324355,0,0,0,367,389,251,350,303,399,252,198,339,197,164,305,0,
2,1775670883824,1292,1469,10045,-127059,-92851,0,0,0,0,383,476,333,409,378,433,538,529,313,287,329,248,0,
1,1775670883840,-4714,-143,18013,5073846,1109331,1517389,0,0,0,335,360,254,325,254,378,263,203,321,193,170,260,0,
2,1775670883840,1387,1574,10064,-81855,-34208,0,0,0,0,387,480,333,409,379,437,539,524,314,321,365,247,0,
1,1775670883856,-4690,-23,17903,5440365,1390329,1683544,0,0,0,300,341,245,290,241,346,287,223,305,198,197,213,0,
2,1775670883856,1426,1627,9987,-18325,-1221,0,0,0,0,390,480,337,408,383,440,545,528,323,346,392,248,0,
1,1775670883872,-5474,-306,16601,5562538,1767844,1775174,0,0,0,265,317,240,267,226,307,315,253,283,203,224,164,0,
2,1775670883872,1440,1636,9911,40317,7330,0,0,0,0,399,485,353,413,385,444,537,527,314,374,423,248,0,
1,1775670883888,-5833,-210,14079,5468465,2258979,1828930,0,0,0,269,275,245,264,174,279,338,263,266,202,241,126,0,
2,1775670883888,1507,1579,9935,73303,-2443,0,0,0,0,406,487,346,417,386,445,540,533,317,364,414,251,0,
1,1775670883904,-6537,2641,10366,4985882,2886949,1739744,0,0,0,273,278,254,268,174,284,334,261,259,199,243,124,0,
2,1775670883904,1579,1521,9944,89186,-34208,0,0,0,0,412,489,351,418,388,452,536,524,316,372,416,254,0,
1,1775670883920,-9944,9499,8451,3436727,2493551,1060462,0,0,0,273,287,245,275,181,289,342,262,267,208,241,128,0,
2,1775670883920,1598,1526,9944,100181,-81855,-3665,0,0,0,416,490,359,419,389,453,541,524,324,377,415,262,0,
1,1775670883936,-11060,14505,8312,853989,1022588,-158824,0,0,0,265,288,245,272,181,289,341,262,267,203,241,126,0,
2,1775670883936,1517,1574,9968,133168,-122173,-13439,0,0,0,427,495,360,420,387,457,545,528,326,377,413,262,0,
1,1775670883952,-8356,12687,7791,-1568701,43982,-1372003,0,0,0,263,297,246,274,185,292,341,263,267,206,242,126,0,
2,1775670883952,1411,1579,10016,178372,-122173,-29321,0,0,0,432,500,356,425,391,460,545,523,327,382,409,275,0,
1,1775670883968,-7250,8767,6101,-2580294,-114842,-1674992,0,0,0,250,293,245,282,191,299,347,259,263,208,240,124,0,
2,1775670883968,1378,1541,10011,222354,-78190,-39095,0,0,0,433,504,348,422,393,462,540,509,328,381,401,293,0,
1,1775670883984,-6771,6087,4972,-2742784,-333532,-1130100,0,0,0,239,296,246,275,193,298,339,261,263,206,244,128,0,
2,1775670883984,1407,1497,9968,272445,-35430,-50090,0,0,0,436,505,356,430,401,473,546,509,339,283,287,329,0,
1,1775670884000,-4737,5963,5987,-2940705,-657290,-575435,0,0,0,240,302,251,269,194,297,333,266,267,203,246,130,0,
2,1775670884000,1450,1435,9911,318871,-13439,-59864,0,0,0,442,512,357,435,407,481,552,508,345,246,237,349,0,
1,1775670884016,-3029,6178,7489,-3303559,-746477,-403171,0,0,0,242,304,253,269,195,298,333,268,269,205,246,130,0,
2,1775670884016,1464,1359,9877,337197,-14660,-64751,0,0,0,445,515,352,438,407,485,555,502,346,271,254,357,0,
1,1775670884032,-2881,6106,8580,-3646865,-811229,-583987,0,0,0,241,301,250,269,194,297,334,268,268,207,247,131,0,
2,1775670884032,1474,1287,9868,333532,-28099,-69638,0,0,0,445,513,350,441,409,489,554,498,352,269,246,369,0,
1,1775670884048,-2919,5939,9624,-3954741,-1018923,-791681,0,0,0,240,301,251,267,195,297,334,269,270,207,248,131,0,
2,1775670884048,1493,1244,9868,307876,-52534,-68416,0,0,0,451,516,352,441,413,492,554,493,361,242,212,381,0,
1,1775670884064,-2699,5527,11055,-4315152,-1326799,-994488,0,0,0,239,304,252,266,195,298,334,270,271,206,248,130,0,
2,1775670884064,1507,1215,9877,287106,-83077,-65973,0,0,0,459,520,352,439,415,491,554,484,364,243,207,388,0,
1,1775670884080,-2211,4618,12691,-4689001,-1565036,-1089783,0,0,0,238,307,249,268,197,297,336,270,276,205,249,128,0,
2,1775670884080,1502,1196,9892,282219,-116064,-63529,0,0,0,459,520,347,448,419,497,548,476,368,240,202,395,0,
1,1775670884096,-1679,3316,14338,-4961447,-1661553,-965167,0,0,0,236,304,246,271,196,296,339,272,278,209,249,129,0,
2,1775670884096,1469,1158,9930,289550,-136833,-59864,0,0,0,465,520,349,453,420,501,548,466,360,243,191,402,0,
1,1775670884112,-1148,2215,16147,-5094616,-1685988,-568104,0,0,0,237,304,246,269,196,298,338,270,282,215,247,129,0,
2,1775670884112,1426,1115,9987,306654,-140499,-59864,0,0,0,474,524,357,455,423,504,544,449,375,265,197,401,0,
1,1775670884128,-531,1512,17788,-5176472,-1660331,-161268,0,0,0,240,304,249,269,198,300,341,274,288,261,236,157,0,
2,1775670884128,1402,1095,10040,333532,-122173,-63529,0,0,0,469,523,345,454,429,510,540,432,365,397,264,399,0,
1,1775670884144,-134,866,18760,-5220454,-1580919,-24434,0,0,0,242,304,249,273,197,302,341,274,285,260,234,156,0,
2,1775670884144,1426,1057,10064,366519,-94073,-68416,0,0,0,473,533,361,453,427,510,535,413,367,251,184,433,0,
1,1775670884160,-574,-124,18990,-5094616,-1554041,-338419,0,0,0,241,304,250,274,197,302,342,272,280,216,248,130,0,
2,1775670884160,1478,985,10078,401949,-75747,-74525,0,0,0,485,539,359,458,435,508,527,392,367,252,179,455,0,
1,1775670884176,-1277,-1086,19100,-4816061,-1663996,-868650,0,0,0,240,306,251,275,200,302,342,274,281,212,246,130,0,
2,1775670884176,1521,914,10093,434936,-74525,-84299,0,0,0,487,544,363,463,441,521,516,371,367,243,169,462,0,
1,1775670884192,-1856,-2139,19473,-4433659,-1832595,-1513724,0,0,0,240,307,252,274,198,302,341,272,280,213,246,128,0,
2,1775670884192,1526,842,10112,466701,-70860,-101403,0,0,0,488,547,363,463,443,520,512,356,374,247,172,474,0,
1,1775670884208,-2373,-3761,20162,-4092797,-1903456,-2138028,0,0,0,242,307,254,276,198,303,344,272,281,214,247,127,0,
2,1775670884208,1569,780,10208,508239,-59864,-128281,0,0,0,493,548,359,466,450,519,500,340,378,255,174,489,0,
1,1775670884224,-2895,-6398,20736,-3970624,-1876578,-2546086,0,0,0,246,306,254,282,195,304,345,270,282,218,247,129,0,
2,1775670884224,1574,727,10366,577878,-59864,-156381,0,0,0,500,549,358,475,452,521,488,318,379,258,169,503,0,
1,1775670884240,-2857,-11605,20258,-4065919,-1759291,-2437352,0,0,0,246,305,253,281,192,305,345,268,284,218,246,130,0,
2,1775670884240,1560,650,10533,719599,-97738,-184481,0,0,0,510,554,353,476,451,520,475,301,381,261,167,515,0,
1,1775670884256,-1727,-17611,18655,-3929085,-1632231,-1936442,0,0,0,243,305,254,274,193,305,345,270,285,214,245,126,0,
2,1775670884256,1655,536,10720,857654,-145385,-208915,0,0,0,519,556,347,481,456,527,461,287,384,275,182,526,0,
1,1775670884272,660,-22105,16544,-3338989,-1485624,-1362229,0,0,0,242,307,254,274,195,304,343,272,283,213,245,125,0,
2,1775670884272,1713,483,11079,1015258,-179594,-241902,0,0,0,520,553,336,489,465,538,446,276,387,284,191,540,0,
1,1775670884288,3670,-25264,13826,-2087937,-1038470,-653625,0,0,0,241,309,254,277,199,311,345,272,285,215,246,127,0,
2,1775670884288,1502,540,11753,1258382,-202807,-273667,0,0,0,518,558,315,487,475,542,429,275,386,276,175,560,0,
1,1775670884304,4867,-26264,12404,-951728,-474031,76969,0,0,0,242,307,255,275,198,310,348,271,288,225,246,126,0,
2,1775670884304,1421,411,12122,1557706,-248011,-272445,0,0,0,520,578,306,489,488,541,406,273,381,279,180,583,0,
1,1775670884320,5714,-25613,12041,28099,112399,724486,0,0,0,241,305,253,279,197,306,347,274,283,224,255,124,0,
2,1775670884320,1464,253,12471,1897347,-276111,-274889,0,0,0,527,569,288,480,491,530,367,273,378,268,179,580,0,
1,1775670884336,5340,-22675,12476,891863,707381,1025031,0,0,0,227,289,245,281,191,304,345,309,270,238,325,116,0,
2,1775670884336,1694,138,12921,2266310,-274889,-311541,0,0,0,532,571,287,504,508,535,334,274,378,266,179,574,0,
1,1775670884352,2684,-10782,14352,1623679,1312138,852767,0,0,0,235,278,221,280,186,278,405,391,263,279,354,99,0,
2,1775670884352,1928,43,13405,2680476,-298102,-368962,0,0,0,537,587,279,477,510,527,302,278,374,252,182,574,0,
1,1775670884368,-2627,10433,13208,2210110,2035402,399505,0,0,0,251,265,210,276,169,260,445,423,261,300,379,94,0,
2,1775670884368,1933,0,14099,3139847,-353080,-431270,0,0,0,538,581,264,474,526,550,289,272,379,265,190,570,0,
1,1775670884384,-4781,15037,9605,2856405,2128254,46425,0,0,0,254,259,201,280,167,260,459,447,263,322,407,91,0,
2,1775670884384,2345,-100,15094,3717725,-432492,-503352,0,0,0,542,562,260,462,518,525,269,248,373,260,182,569,0,
1,1775670884400,-1488,3857,13290,4074471,1255938,-6108,0,0,0,259,260,202,290,169,265,468,463,270,354,420,88,0,
2,1775670884400,3402,-339,16463,4421442,-543670,-670730,0,0,0,543,552,265,456,506,521,250,211,372,240,161,536,0,
1,1775670884416,1641,-2474,19559,4266282,256563,248011,0,0,0,264,266,216,298,171,275,475,473,273,366,423,93,0,
2,1775670884416,4091,-665,18722,5153259,-686612,-932180,0,0,0,531,539,275,452,497,520,241,180,367,216,146,488,0,
1,1775670884432,-713,-406,18511,2944370,-50090,551000,0,0,0,264,270,236,304,177,288,482,478,280,375,426,103,0,
2,1775670884432,4924,-1124,22378,5941275,-780685,-1175304,0,0,0,483,524,253,448,479,508,244,167,351,202,140,423,0,
1,1775670884448,-3618,1301,13433,1569923,-117286,386066,0,0,0,264,278,253,311,188,306,492,482,289,385,431,111,0,
2,1775670884448,6326,-837,24991,6565579,-709825,-1403768,0,0,0,425,503,228,425,456,479,258,173,328,186,129,362,0,
1,1775670884464,-3239,1273,9571,1010371,17104,-7330,0,0,0,268,290,262,320,200,323,500,485,294,388,439,122,0,
2,1775670884464,7772,435,25403,7134905,-443488,-1758070,0,0,0,366,480,217,389,431,438,276,212,300,166,123,318,0,
1,1775670884480,-2230,631,9270,643851,186924,-166155,0,0,0,279,298,273,330,203,328,512,491,296,392,453,141,0,
2,1775670884480,6695,1856,24953,7666358,89186,-2245540,0,0,0,299,449,217,352,396,397,299,272,279,139,123,252,0,
1,1775670884496,-1765,598,10653,194255,197920,-100181,0,0,0,300,299,287,341,200,335,532,502,297,407,467,147,0,
2,1775670884496,4704,2426,22957,7926587,344527,-2640159,0,0,0,261,429,230,331,371,376,321,309,275,114,121,195,0,
1,1775670884512,-1832,1134,10792,-70860,102625,-34208,0,0,0,306,306,275,348,203,342,534,511,308,418,474,152,0,
2,1775670884512,5733,6379,14812,7048163,-357967,-2835636,0,0,0,264,431,236,329,370,380,324,312,275,111,121,193,0,
1,1775670884528,-2000,1545,10136,-73303,6108,-9773,0,0,0,308,302,284,337,206,341,539,511,334,413,479,175,0,
2,1775670884528,6862,13472,8915,4404338,-1114218,-2802649,0,0,0,261,434,235,328,371,379,323,310,268,112,120,191,0,
1,1775670884544,-1995,1512,9954,4886,-13439,0,0,0,0,313,298,287,339,201,332,524,524,335,421,476,181,0,
2,1775670884544,5388,17075,9763,-139277,-1378111,-1885130,0,0,0,261,435,235,331,374,378,326,313,265,112,120,188,0,
1,1775670884560,-1966,1569,9997,69638,-34208,21991,0,0,0,318,308,284,345,204,332,537,494,320,413,484,172,0,
2,1775670884560,4527,13630,9873,-3681073,-1550375,-623082,0,0,0,260,433,234,332,372,378,327,312,266,116,128,189,0,
1,1775670884576,-1919,1698,10078,172263,-86742,52534,0,0,0,314,310,284,349,201,340,539,484,320,415,472,184,0,
2,1775670884576,6001,6786,6379,-4579045,-1414763,205250,0,0,0,259,432,232,333,370,378,329,312,266,115,120,189,0,
1,1775670884592,-1938,1608,9944,295658,-158824,67195,0,0,0,330,317,285,371,204,345,539,481,334,419,464,183,0,
2,1775670884592,6690,4656,3967,-4020715,-618195,196698,0,0,0,260,434,235,332,370,375,333,315,267,115,121,189,0,
1,1775670884608,-2029,1454,9739,364075,-193033,70860,0,0,0,335,320,284,378,209,361,529,484,326,409,456,202,0,
2,1775670884608,5513,5087,4316,-3859446,218689,107512,0,0,0,256,433,233,333,373,379,332,315,268,116,124,190,0,
1,1775670884624,-2091,1335,9581,350636,-158824,69638,0,0,0,336,318,285,378,209,362,530,485,322,393,448,211,0,
2,1775670884624,3804,6355,6403,-4368908,614530,207694,0,0,0,255,433,233,334,374,378,329,315,263,116,125,189,0,
1,1775670884640,-2086,1253,9528,302989,-112399,69638,0,0,0,335,315,285,380,209,366,535,475,324,390,441,222,0,
2,1775670884640,3555,6259,7882,-5115385,725707,500909,0,0,0,256,435,235,333,373,379,331,317,267,116,124,190,0,
1,1775670884656,-2043,1220,9562,244346,-80634,72082,0,0,0,336,314,285,383,208,368,538,460,322,386,432,231,0,
2,1775670884656,3819,5388,8777,-5561317,979827,723264,0,0,0,257,436,236,334,373,380,332,318,267,118,126,190,0,
1,1775670884672,-2038,1244,9585,210137,-68416,74525,0,0,0,336,314,285,383,205,363,535,443,320,378,422,238,0,
2,1775670884672,3340,4891,9949,-5699372,1339016,842994,0,0,0,256,436,236,335,374,380,333,318,265,120,129,190,0,
1,1775670884688,-2029,1263,9609,193033,-57421,76969,0,0,0,331,315,283,382,207,362,528,426,322,374,416,243,0,
2,1775670884688,2598,4809,11495,-5845980,1604132,989601,0,0,0,255,436,235,336,374,380,334,318,264,121,129,191,0,
1,1775670884704,-2005,1210,9590,180816,-47647,73303,0,0,0,328,313,278,387,207,367,533,415,320,376,414,245,0,
2,1775670884704,1928,4891,13630,-6111095,1754404,1237612,0,0,0,256,436,236,337,375,380,335,317,263,120,128,191,0,
1,1775670884720,-1995,1148,9547,156381,-40317,61086,0,0,0,328,313,279,387,207,369,543,411,330,389,415,261,0,
2,1775670884720,1746,4508,15568,-6349333,1806939,1445307,0,0,0,257,437,238,337,373,380,337,316,265,128,138,191,0,
1,1775670884736,-2010,1134,9518,127059,-28099,46425,0,0,0,339,319,278,390,209,370,540,421,336,381,420,269,0,
2,1775670884736,1770,3814,17573,-6502049,1849699,1563815,0,0,0,254,436,238,335,369,377,335,312,267,145,164,189,0,
1,1775670884752,-2029,1153,9576,114842,-9773,40317,0,0,0,342,327,276,401,208,370,528,415,335,377,411,269,0,
2,1775670884752,2033,3297,19813,-6559470,1898569,1556484,0,0,0,254,436,240,332,369,377,337,314,272,148,171,190,0,
1,1775670884768,-2033,1158,9700,119729,0,43982,0,0,0,333,327,280,405,215,373,533,413,338,377,414,279,0,
2,1775670884768,2359,3268,22502,-6642548,1947438,1566258,0,0,0,257,436,240,335,368,378,336,313,273,146,167,188,0,
1,1775670884784,-1995,1134,9777,138055,-15882,58643,0,0,0,336,325,286,403,215,402,537,404,364,377,405,302,0,
2,1775670884784,2670,3278,25651,-6800151,1964542,1734857,0,0,0,258,438,241,338,368,381,344,318,275,138,151,189,0,
1,1775670884800,-2000,1105,9767,161268,-42760,76969,0,0,0,333,332,290,403,225,420,535,390,367,400,386,314,0,
2,1775670884800,2909,1593,28494,-6871012,1937664,2141693,0,0,0,257,434,239,341,368,384,347,317,280,137,146,189,0,
1,1775670884816,-2043,1095,9729,197920,-70860,105068,0,0,0,336,336,287,406,232,409,537,384,369,382,384,333,0,
2,1775670884816,3163,-2225,30681,-6717074,1924225,2532647,0,0,0,259,434,239,349,373,391,349,317,287,135,142,192,0,
1,1775670884832,-2057,1119,9753,268780,-91629,130725,0,0,0,338,336,297,409,239,411,539,374,385,367,367,352,0,
2,1775670884832,4082,-9767,31466,-6252816,1809382,2591290,0,0,0,262,435,240,351,374,397,352,317,290,139,142,195,0,
1,1775670884848,-2062,1119,9820,364075,-113620,150272,0,0,0,349,337,304,410,264,422,546,354,397,364,340,378,0,
2,1775670884848,5800,-21756,27422,-5324301,1507615,1653001,0,0,0,262,433,239,348,371,396,349,313,287,143,149,192,0,
1,1775670884864,-2072,1124,9978,494800,-146607,160046,0,0,0,361,344,309,405,268,444,555,329,415,356,313,411,0,
2,1775670884864,3637,-31251,21277,-4029267,1518610,85521,0,0,0,265,434,241,349,372,396,351,314,289,147,153,193,0,
1,1775670884880,-2134,1115,10189,620639,-190589,173485,0,0,0,364,352,307,407,245,470,548,304,440,334,279,440,0,
2,1775670884880,-5154,-34457,17697,-2415361,1419650,-1425759,0,0,0,266,434,239,351,372,395,354,316,292,146,154,193,0,
1,1775670884896,-2187,1024,10485,736703,-259006,195476,0,0,0,367,357,288,423,261,487,520,271,446,306,234,462,0,
2,1775670884896,-11543,-34558,16755,-979827,547335,-2032959,0,0,0,265,433,240,330,388,381,355,317,291,144,155,191,0,
1,1775670884912,-2273,866,10945,944397,-387288,207694,0,0,0,370,360,274,427,286,504,510,234,445,289,207,493,0,
2,1775670884912,-8595,-32538,16295,298102,-794124,-1755626,0,0,0,261,433,245,326,389,380,357,338,288,139,154,189,0,
1,1775670884928,-2488,670,11572,1218065,-521678,229685,0,0,0,376,364,251,453,309,511,510,225,442,284,190,521,0,
2,1775670884928,-1459,-24953,16176,1629788,-1308473,-1462411,0,0,0,254,429,239,346,372,388,376,391,280,148,176,184,0,
1,1775670884944,-2814,636,12500,1600466,-604756,310319,0,0,0,380,372,233,459,324,524,482,224,445,283,190,546,0,
2,1775670884944,2201,-4714,18181,2722015,-1563815,-902858,0,0,0,251,414,221,345,366,376,409,445,267,168,214,178,0,
1,1775670884960,-3024,765,13304,2031737,-610865,433714,0,0,0,393,372,220,477,339,556,424,214,448,247,175,546,0,
2,1775670884960,5020,19975,14218,2977357,-2036624,274889,0,0,0,254,393,210,341,352,369,428,462,262,169,234,174,0,
1,1775670884976,-3235,622,13706,2489886,-568104,572991,0,0,0,379,386,208,529,340,550,398,198,443,263,171,567,0,
2,1775670884976,3460,14907,7097,3496592,-2039068,1155757,0,0,0,256,389,205,340,348,376,448,467,267,186,270,175,0,
1,1775670884992,-3905,425,14137,3046995,-459370,756251,0,0,0,382,395,193,526,391,546,376,198,450,275,170,565,0,
2,1775670884992,-1713,425,9772,4660901,-1290147,1152091,0,0,0,256,390,205,345,351,379,465,478,270,215,305,172,0,
1,1775670885008,-4532,516,14759,3655417,-261450,989601,0,0,0,405,397,198,491,396,548,325,186,444,238,152,554,0,
2,1775670885008,-4422,-2967,17473,4635245,-508239,229685,0,0,0,256,394,205,352,352,384,483,485,277,207,329,179,0,
1,1775670885024,-5159,617,15845,4261395,-21991,1241278,0,0,0,393,381,202,459,381,544,252,159,447,195,122,517,0,
2,1775670885024,-1861,703,19253,3843564,-175929,-715934,0,0,0,259,399,231,350,346,390,479,514,269,342,444,167,0,
1,1775670885040,-6628,502,18104,5010316,180816,1567480,0,0,0,393,368,205,429,343,518,239,147,429,180,110,459,0,
2,1775670885040,3431,3206,16712,3000570,-80634,-867428,0,0,0,265,411,263,350,347,400,439,484,319,340,451,175,0,
1,1775670885056,-8714,320,20856,5759237,283441,1973094,0,0,0,381,357,206,395,309,475,214,139,401,169,104,393,0,
2,1775670885056,4077,1521,13979,2182010,-112399,-217468,0,0,0,278,424,285,365,357,405,505,521,298,294,404,193,0,
1,1775670885072,-9786,76,23125,6384763,283441,2449569,0,0,0,351,354,204,361,308,429,190,148,372,150,106,315,0,
2,1775670885072,2282,751,11323,1357342,-261450,200363,0,0,0,292,439,305,378,369,415,526,528,295,269,376,207,0,
1,1775670885088,-9609,186,24675,6983411,200363,2902831,0,0,0,304,344,203,326,290,387,209,174,333,137,121,246,0,
2,1775670885088,1091,827,10442,737925,-372627,195476,0,0,0,314,449,323,389,373,421,536,535,306,270,377,217,0,
1,1775670885104,-8978,961,26264,7395134,180816,3237585,0,0,0,256,310,204,288,223,333,257,206,295,144,153,185,0,
2,1775670885104,1296,938,10667,310319,-333532,65973,0,0,0,334,458,330,394,374,424,541,542,308,284,386,229,0,
1,1775670885120,-10686,2627,23890,7555181,621860,3488040,0,0,0,248,280,210,260,184,281,308,243,276,157,197,118,0,
2,1775670885120,1478,1263,10519,80634,-237015,0,0,0,0,346,464,328,398,377,426,541,542,304,303,399,236,0,
1,1775670885136,-11686,7384,15745,7395134,1020144,3765373,0,0,0,263,275,227,260,175,281,312,246,275,165,213,124,0,
2,1775670885136,1383,1521,10222,59864,-136833,0,0,0,0,353,466,325,405,383,430,542,542,300,312,407,236,0,
1,1775670885152,-9528,12237,10088,6202725,1496619,3538131,0,0,0,262,278,226,263,178,281,312,250,274,166,217,123,0,
2,1775670885152,1411,1646,10078,61086,-80634,-7330,0,0,0,358,469,326,408,388,432,544,545,300,308,406,235,0,
1,1775670885168,-7882,16601,9217,3296228,1835039,2103819,0,0,0,260,277,222,272,186,290,312,248,269,169,215,123,0,
2,1775670885168,1435,1684,10045,68416,-70860,-18325,0,0,0,365,475,330,406,385,431,546,547,306,312,405,238,0,
1,1775670885184,-7083,16750,9729,-1025031,1567480,-324980,0,0,0,261,283,221,273,186,286,320,256,269,168,217,121,0,
2,1775670885184,1378,1718,10021,98960,-46425,-26878,0,0,0,370,476,333,410,385,437,549,549,311,321,402,241,0,
1,1775670885200,-6661,12376,8150,-3503923,1336573,-1732413,0,0,0,250,280,240,265,183,297,316,253,277,168,217,130,0,
2,1775670885200,1359,1732,10002,152716,-7330,-32986,0,0,0,376,476,333,419,390,439,548,547,309,332,399,241,0,
1,1775670885216,-7499,6987,4938,-3897320,1132544,-1726305,0,0,0,246,285,230,265,183,289,315,252,272,171,220,127,0,
2,1775670885216,1411,1718,9949,208915,17104,-35430,0,0,0,382,484,335,419,394,441,545,545,311,317,377,248,0,
1,1775670885232,-7786,5484,4000,-3673743,485026,-917519,0,0,0,245,287,226,267,186,287,318,256,270,170,221,124,0,
2,1775670885232,1493,1627,9863,238237,2443,-31764,0,0,0,386,487,335,418,393,439,544,537,308,302,359,252,0,
1,1775670885248,-5862,5628,5336,-3974289,-189368,-279776,0,0,0,246,288,228,266,186,286,322,258,270,171,224,124,0,
2,1775670885248,1541,1560,9815,237015,-36651,-30543,0,0,0,391,491,335,417,392,437,543,530,305,288,341,256,0,
1,1775670885264,-3847,5848,7394,-4719544,-186924,-348193,0,0,0,247,290,229,266,185,286,322,258,270,171,224,124,0,
2,1775670885264,1517,1541,9810,226020,-80634,-35430,0,0,0,392,492,334,413,390,437,541,527,312,258,291,266,0,
1,1775670885280,-3546,5130,8915,-5462356,-57421,-728151,0,0,0,245,291,228,266,186,286,309,251,271,174,225,125,0,
2,1775670885280,1459,1526,9806,228463,-105068,-46425,0,0,0,399,494,335,417,394,441,536,522,316,241,264,276,0,
1,1775670885296,-4393,4000,9681,-5794667,-327423,-1104444,0,0,0,243,290,228,266,187,286,304,247,272,177,226,126,0,
2,1775670885296,1416,1507,9777,241902,-102625,-57421,0,0,0,408,492,336,424,394,450,543,514,317,252,266,279,0,
1,1775670885312,-4264,3172,10849,-5924171,-867428,-1424537,0,0,0,244,289,228,270,189,289,326,262,272,175,221,123,0,
2,1775670885312,1402,1474,9753,254119,-94073,-63529,0,0,0,412,496,332,424,396,451,543,498,321,296,306,284,0,
1,1775670885328,-3871,2450,12352,-5984035,-1255938,-1701870,0,0,0,242,288,227,270,188,290,325,262,274,178,227,124,0,
2,1775670885328,1411,1445,9748,263893,-97738,-63529,0,0,0,416,500,327,428,400,456,546,493,323,276,278,299,0,
1,1775670885344,-3890,1809,14223,-6006027,-1435533,-1804495,0,0,0,244,289,229,273,193,292,322,256,269,178,228,125,0,
2,1775670885344,1421,1402,9767,274889,-114842,-54977,0,0,0,424,505,328,433,406,468,545,490,330,249,238,327,0,
1,1775670885360,-4120,1340,16252,-6073222,-1552819,-1714087,0,0,0,241,295,226,273,194,292,323,257,269,179,228,123,0,
2,1775670885360,1411,1354,9825,291993,-128281,-50090,0,0,0,434,510,332,436,411,475,541,483,339,272,237,354,0,
1,1775670885376,-4254,698,18726,-6216164,-1643227,-1496619,0,0,0,244,296,229,275,196,291,328,261,271,175,228,118,0,
2,1775670885376,1392,1335,9920,320093,-128281,-51312,0,0,0,441,513,337,440,414,478,541,469,344,294,237,374,0,
1,1775670885392,-4417,-62,20937,-6302907,-1665218,-1419650,0,0,0,245,301,231,274,199,292,325,260,272,178,230,122,0,
2,1775670885392,1387,1301,10031,367740,-108734,-58643,0,0,0,450,521,348,449,422,486,539,448,357,275,230,401,0,
1,1775670885408,-4857,-1014,22962,-6240599,-1651779,-1654223,0,0,0,245,298,231,275,197,293,328,260,274,179,227,123,0,
2,1775670885408,1411,1273,10112,426383,-89186,-74525,0,0,0,462,529,344,460,426,496,539,430,374,241,184,422,0,
1,1775670885424,-5340,-2565,25039,-5971818,-1748296,-2291966,0,0,0,245,295,232,275,194,293,324,256,272,180,228,121,0,
2,1775670885424,1488,1253,10189,513126,-70860,-97738,0,0,0,469,535,358,461,427,503,527,403,359,251,181,450,0,
1,1775670885440,-5900,-5781,27370,-5612629,-1921782,-3072652,0,0,0,249,295,232,277,194,294,328,254,272,187,226,122,0,
2,1775670885440,1598,1196,10294,623082,-61086,-130725,0,0,0,475,549,351,470,445,513,523,371,370,265,182,482,0,
1,1775670885456,-6992,-12184,28997,-5276653,-1981646,-3541796,0,0,0,252,296,232,281,196,296,333,253,279,192,223,125,0,
2,1775670885456,1746,1057,10433,747699,-51312,-177150,0,0,0,490,562,354,485,452,513,511,339,370,275,182,504,0,
1,1775670885472,-8624,-21622,26441,-5009094,-1932777,-2956587,0,0,0,250,297,233,282,194,299,334,251,283,195,222,126,0,
2,1775670885472,1919,909,10734,871093,-37873,-238237,0,0,0,505,554,355,487,456,518,491,312,374,271,174,536,0,
1,1775670885488,-6202,-29246,21703,-4713436,-2307848,-1607797,0,0,0,248,298,236,281,192,304,334,250,286,195,221,126,0,
2,1775670885488,1899,851,11208,1036027,-45204,-304210,0,0,0,513,553,342,493,469,522,465,286,381,359,205,547,0,
1,1775670885504,3953,-34845,17075,-3751934,-2465452,-29321,0,0,0,245,296,232,280,191,304,339,254,285,197,230,123,0,
2,1775670885504,1722,827,11859,1296256,-56199,-349414,0,0,0,516,552,323,499,480,534,443,268,388,313,194,565,0,
1,1775670885520,11490,-39205,14362,-2185675,-1490511,981049,0,0,0,241,286,213,280,187,284,361,281,274,219,266,110,0,
2,1775670885520,1574,775,12907,1727526,13439,-387288,0,0,0,516,565,302,499,488,538,416,261,389,279,186,575,0,
1,1775670885536,11457,-41033,15285,-290771,342084,1481959,0,0,0,243,272,196,278,175,258,406,357,261,263,322,96,0,
2,1775670885536,1584,808,14075,2298075,86742,-419053,0,0,0,518,574,281,489,503,547,378,261,386,286,202,584,0,
1,1775670885552,5982,-26049,16841,2191784,2894279,1562593,0,0,0,251,257,164,278,163,237,441,429,248,297,371,85,0,
2,1775670885552,1756,851,14912,2883283,8552,-425162,0,0,0,520,577,267,477,511,549,332,255,381,295,225,595,0,
1,1775670885568,-3709,3015,14630,4339586,4794070,1185078,0,0,0,250,244,183,275,147,247,459,441,262,321,403,91,0,
2,1775670885568,2254,851,15659,3590665,-145385,-449596,0,0,0,524,571,262,471,506,541,291,240,374,285,220,594,0,
1,1775670885584,-4723,8509,14003,4968777,3733608,415388,0,0,0,258,243,172,286,147,248,472,470,263,356,420,80,0,
2,1775670885584,3508,794,16836,4356690,-249233,-598647,0,0,0,533,553,260,467,504,541,267,222,376,261,187,576,0,
1,1775670885600,-86,1890,17621,5209458,1738522,-29321,0,0,0,257,244,166,292,151,253,475,475,271,373,425,79,0,
2,1775670885600,4934,875,18822,5186245,-355523,-877202,0,0,0,531,543,252,460,505,538,252,191,390,253,174,550,0,
1,1775670885616,1694,-1789,21043,4313930,337197,277332,0,0,0,264,252,190,291,158,272,481,482,281,397,430,79,0,
2,1775670885616,5915,1129,22277,6274807,-557109,-1301142,0,0,0,501,524,253,460,483,515,250,164,375,234,157,494,0,
1,1775670885632,-1340,-899,18367,2820975,69638,504574,0,0,0,261,262,213,298,171,290,489,489,283,404,432,90,0,
2,1775670885632,6441,1186,26207,7261965,-712268,-1604132,0,0,0,459,510,253,439,470,496,256,164,366,204,139,405,0,
1,1775670885648,-3910,674,11825,1385442,243124,171042,0,0,0,265,272,240,313,186,319,506,492,295,406,445,119,0,
2,1775670885648,7212,1206,29657,8142833,-546113,-1885130,0,0,0,379,478,221,408,434,459,270,174,329,183,124,343,0,
1,1775670885664,-2636,598,9332,678060,216246,-184481,0,0,0,290,283,255,338,196,333,513,501,301,419,453,144,0,
2,1775670885664,7532,1943,30619,8695055,53756,-2162462,0,0,0,309,449,219,360,401,411,290,238,290,142,114,275,0,
1,1775670885680,-1617,335,9911,293215,157603,-200363,0,0,0,310,289,260,351,196,336,522,509,306,434,456,167,0,
2,1775670885680,8978,4618,28446,8956506,1183856,-2643824,0,0,0,267,423,228,329,365,378,307,272,265,112,104,201,0,
1,1775670885696,-1679,693,10734,45204,163711,-69638,0,0,0,317,298,265,355,196,350,533,511,319,434,459,189,0,
2,1775670885696,9126,9370,20818,8725599,1682322,-3368310,0,0,0,269,424,237,327,365,380,314,294,271,110,115,193,0,
1,1775670885712,-1895,1186,10361,-37873,184481,-23212,0,0,0,324,314,270,363,202,362,536,510,325,425,457,193,0,
2,1775670885712,7039,13065,13237,7330382,342084,-3899763,0,0,0,269,426,235,328,367,380,315,299,271,111,120,195,0,
1,1775670885728,-1804,1407,10093,-12217,129503,-14660,0,0,0,326,309,267,359,201,344,547,511,317,422,457,192,0,
2,1775670885728,4608,17415,9451,4246735,-1104444,-3441614,0,0,0,269,429,234,329,367,378,315,300,265,112,118,193,0,
1,1775670885744,-1727,1430,10126,78190,35430,9773,0,0,0,320,300,263,356,202,342,548,508,317,414,462,197,0,
2,1775670885744,3426,20095,8403,-1236391,-1782504,-1507615,0,0,0,270,431,233,332,368,376,317,299,261,113,115,191,0,
1,1775670885760,-1727,1407,10141,167377,-37873,35430,0,0,0,338,308,277,361,199,350,535,492,320,419,453,208,0,
2,1775670885760,4575,14352,8164,-4637688,-1577254,80634,0,0,0,270,431,233,334,369,376,319,299,260,115,116,191,0,
1,1775670885776,-1775,1407,10078,240680,-92851,51312,0,0,0,347,307,275,378,206,358,541,481,325,434,435,226,0,
2,1775670885776,6125,7049,6302,-5826432,-1164309,675616,0,0,0,268,431,234,334,368,376,320,300,260,118,119,192,0,
1,1775670885792,-1818,1407,9973,310319,-128281,59864,0,0,0,332,315,267,369,206,363,542,481,328,411,434,232,0,
2,1775670885792,6508,3967,4134,-5227784,-519235,211359,0,0,0,265,431,233,335,369,377,323,303,262,116,119,191,0,
1,1775670885808,-1866,1349,9825,362853,-138055,61086,0,0,0,326,316,263,374,205,355,510,425,328,405,426,233,0,
2,1775670885808,5235,4197,4426,-4919908,243124,-313984,0,0,0,262,433,234,337,373,379,325,306,264,115,120,190,0,
1,1775670885824,-1904,1229,9705,364075,-112399,63529,0,0,0,322,319,257,369,220,348,535,419,324,398,415,250,0,
2,1775670885824,3579,4800,6460,-5198463,678060,-474031,0,0,0,260,433,234,334,372,376,325,310,263,120,123,194,0,
1,1775670885840,-1904,1115,9648,355523,-92851,67195,0,0,0,331,322,259,372,215,356,538,412,332,389,403,263,0,
2,1775670885840,2833,4785,8336,-5634620,767246,-270002,0,0,0,264,436,237,334,372,376,326,312,263,118,122,191,0,
1,1775670885856,-1885,1057,9633,344527,-87964,72082,0,0,0,326,325,260,376,215,373,536,402,337,383,390,275,0,
2,1775670885856,2957,4489,9542,-5908288,928515,70860,0,0,0,261,435,236,336,376,379,326,317,266,114,125,189,0,
1,1775670885872,-1885,1038,9638,329867,-79412,78190,0,0,0,324,332,266,374,214,378,537,404,344,377,388,286,0,
2,1775670885872,3421,4297,10528,-6008470,1312138,504574,0,0,0,260,435,236,333,375,376,321,316,263,110,125,187,0,
1,1775670885888,-1871,1000,9652,316428,-67195,80634,0,0,0,321,346,270,369,238,385,534,403,351,370,380,301,0,
2,1775670885888,3201,4283,12246,-6136752,1694540,985936,0,0,0,258,432,233,333,374,376,321,314,262,114,125,188,0,
1,1775670885904,-1852,961,9667,307876,-62308,80634,0,0,0,317,353,270,368,250,396,532,391,358,366,356,320,0,
2,1775670885904,3139,4024,14271,-6311459,1877799,1467298,0,0,0,258,433,234,336,378,378,328,319,264,117,126,189,0,
1,1775670885920,-1842,938,9691,312763,-73303,79412,0,0,0,319,342,271,373,228,403,535,380,363,364,334,337,0,
2,1775670885920,3871,3622,16506,-6528927,1970651,1762957,0,0,0,259,435,236,336,376,379,328,317,264,116,124,188,0,
1,1775670885936,-1847,899,9763,331088,-97738,81855,0,0,0,325,326,276,381,226,415,534,372,366,359,326,352,0,
2,1775670885936,4603,3182,19128,-6786712,2136806,1875356,0,0,0,258,435,236,336,373,378,333,316,264,116,125,188,0,
1,1775670885952,-1856,813,9825,342084,-120951,85521,0,0,0,328,326,269,390,234,441,533,347,379,350,312,375,0,
2,1775670885952,4900,2526,22579,-7017619,2299296,1898569,0,0,0,255,434,234,336,372,376,342,322,268,121,129,190,0,
1,1775670885968,-1895,732,9820,350636,-140499,92851,0,0,0,341,327,261,394,243,462,530,333,387,350,302,397,0,
2,1775670885968,5364,1588,27116,-7059158,2263866,2080607,0,0,0,254,432,235,334,371,375,341,320,270,119,123,188,0,
1,1775670885984,-1952,689,9748,370184,-155159,114842,0,0,0,328,336,277,398,262,471,531,325,392,330,295,429,0,
2,1775670885984,6350,-435,31026,-7049384,2255314,2471560,0,0,0,255,432,236,334,371,376,337,312,269,114,117,186,0,
1,1775670886000,-2019,674,9772,406836,-163711,146607,0,0,0,332,346,273,395,243,476,533,304,395,324,270,432,0,
2,1775670886000,5862,-7102,33141,-6956533,2816088,2956587,0,0,0,257,433,235,339,372,380,340,307,271,116,116,187,0,
1,1775670886016,-2144,655,9916,458148,-169820,183259,0,0,0,336,346,277,403,253,482,538,279,414,324,248,470,0,
2,1775670886016,3890,-17630,34060,-6500827,3119077,3138625,0,0,0,259,434,235,343,373,384,343,305,278,117,116,190,0,
1,1775670886032,-2301,564,10088,540004,-189368,234572,0,0,0,349,340,282,409,254,487,524,262,412,305,232,476,0,
2,1775670886032,3560,-31897,29609,-5378057,2168571,2616946,0,0,0,259,436,234,345,372,387,344,305,279,119,118,188,0,
1,1775670886048,-2354,521,10466,659734,-245567,291993,0,0,0,365,347,270,449,273,505,515,243,419,292,200,489,0,
2,1775670886048,3866,-42000,18970,-3552792,1363451,730594,0,0,0,259,434,233,342,375,388,348,305,283,122,122,189,0,
1,1775670886064,-2340,559,11055,838107,-315206,335975,0,0,0,375,351,262,474,284,513,499,228,436,279,180,517,0,
2,1775670886064,-1550,-44689,13864,-1839926,1506393,-1268156,0,0,0,261,432,239,327,391,383,346,306,291,124,127,194,0,
1,1775670886080,-2062,516,12012,1194852,-373849,359188,0,0,0,384,362,251,481,297,521,478,219,449,273,172,541,0,
2,1775670886080,-11160,-41349,15568,-123394,1222952,-2561968,0,0,0,262,433,244,344,373,393,344,320,296,124,130,193,0,
1,1775670886096,-1885,373,12605,1551597,-449596,342084,0,0,0,395,380,240,486,325,535,458,213,460,266,169,556,0,
2,1775670886096,-10878,-31773,19267,1343903,-480140,-1826487,0,0,0,256,427,240,340,369,381,399,439,273,265,272,183,0,
1,1775670886112,-2421,263,13065,1960877,-570548,354301,0,0,0,396,395,221,485,346,542,433,204,471,255,162,564,0,
2,1775670886112,-3699,-6211,22210,2724458,-2232101,-323758,0,0,0,248,376,205,334,339,363,431,462,255,169,224,170,0,
1,1775670886128,-3575,215,13649,2447126,-674395,502131,0,0,0,387,410,194,484,369,537,398,190,474,249,157,562,0,
2,1775670886128,3450,16874,14812,3248581,-3329215,1095892,0,0,0,263,369,187,339,332,366,458,470,260,181,265,173,0,
1,1775670886144,-4254,244,14845,3084869,-643851,781907,0,0,0,384,417,190,486,405,529,356,179,470,245,152,559,0,
2,1775670886144,1507,12356,8576,4031710,-3338989,1577254,0,0,0,259,372,185,346,336,375,477,483,270,234,332,170,0,
1,1775670886160,-5111,492,16381,3858224,-504574,1106887,0,0,0,387,381,190,460,365,522,309,166,471,218,128,547,0,
2,1775670886160,-5742,-1330,15295,4861265,-1616349,768468,0,0,0,258,378,208,355,340,392,496,497,288,271,366,179,0,
1,1775670886176,-6633,866,18530,4789183,-311541,1513724,0,0,0,401,362,195,443,361,529,287,148,449,186,113,493,0,
2,1775670886176,-5656,-2560,22100,4607145,-229685,-371406,0,0,0,264,392,240,360,344,400,480,506,306,284,370,182,0,
1,1775670886192,-8557,961,21349,5795889,-157603,1985312,0,0,0,387,364,203,430,337,498,211,140,425,165,96,418,0,
2,1775670886192,1847,1804,21124,3352428,95294,-900415,0,0,0,272,408,270,367,350,405,500,518,306,270,352,197,0,
1,1775670886208,-10217,670,24857,6712187,-186924,2484999,0,0,0,345,339,203,392,283,465,210,120,389,158,90,374,0,
2,1775670886208,4221,1871,14639,2030516,-72082,-244346,0,0,0,289,429,295,381,362,414,529,529,315,247,326,219,0,
1,1775670886224,-10265,617,27556,7369478,-450818,2959031,0,0,0,323,325,193,348,273,401,206,153,343,136,102,273,0,
2,1775670886224,2569,952,10605,1165530,-172263,252898,0,0,0,315,449,311,397,376,428,535,535,327,254,327,240,0,
1,1775670886240,-9246,1947,29049,7750658,-472809,3373197,0,0,0,268,302,209,294,233,343,239,203,309,143,155,193,0,
2,1775670886240,804,368,10260,649960,-201585,280998,0,0,0,338,459,319,407,384,437,541,541,320,286,353,256,0,
1,1775670886256,-9782,4718,27015,7892378,195476,3678630,0,0,0,250,274,216,262,182,290,292,228,282,156,184,141,0,
2,1775670886256,1206,871,10634,302989,-202807,89186,0,0,0,353,467,319,412,391,439,544,544,316,297,365,260,0,
1,1775670886272,-11744,8509,17865,7853283,1133765,3910759,0,0,0,245,266,225,257,169,282,312,249,279,162,207,127,0,
2,1775670886272,1646,1483,10284,67195,-213802,-10995,0,0,0,366,474,322,417,392,441,549,549,316,303,369,265,0,
1,1775670886288,-12959,12294,8767,7336491,1618792,4210083,0,0,0,240,278,230,258,176,288,312,255,282,162,217,130,0,
2,1775670886288,1474,1627,10093,23212,-179594,6108,0,0,0,368,474,324,418,391,438,543,546,319,303,367,262,0,
1,1775670886304,-9906,16798,8169,4615697,948062,3557679,0,0,0,241,286,231,258,178,288,310,253,278,163,217,130,0,
2,1775670886304,1383,1694,10122,20769,-157603,6108,0,0,0,373,475,325,414,390,436,505,525,328,306,365,262,0,
1,1775670886320,-5068,19928,8714,208915,575435,1578475,0,0,0,244,285,231,260,179,289,312,254,276,165,218,131,0,
2,1775670886320,1335,1765,10179,54977,-146607,-17104,0,0,0,380,481,329,414,394,438,548,548,312,308,366,270,0,
1,1775670886336,-2569,16453,8513,-4031710,1219287,-1073901,0,0,0,248,285,230,262,180,290,320,258,279,168,219,132,0,
2,1775670886336,1263,1847,10117,123394,-103847,-43982,0,0,0,376,481,325,414,394,438,548,548,312,305,356,270,0,
1,1775670886352,-6231,8700,5977,-5152037,1813048,-2127032,0,0,0,246,285,232,261,180,293,316,260,279,167,222,132,0,
2,1775670886352,1258,1837,9978,204028,-31764,-52534,0,0,0,378,483,328,415,392,438,545,544,310,304,351,270,0,
1,1775670886368,-9547,4479,3881,-4860043,1028697,-1690874,0,0,0,238,286,232,260,181,291,319,259,282,166,221,129,0,
2,1775670886368,1296,1770,9853,256563,4886,-46425,0,0,0,375,480,325,411,389,437,541,534,312,365,411,263,0,
1,1775670886384,-7786,4221,4647,-4627915,-349414,-821002,0,0,0,238,286,233,261,179,292,319,257,282,166,220,131,0,
2,1775670886384,1354,1703,9763,279776,6108,-37873,0,0,0,379,482,327,411,390,436,527,519,313,353,394,263,0,
1,1775670886400,-4273,4737,6910,-4894252,-902858,-458148,0,0,0,239,284,230,264,182,291,322,258,278,170,224,133,0,
2,1775670886400,1411,1622,9705,283441,-17104,-35430,0,0,0,384,487,324,419,398,440,529,521,312,284,317,271,0,
1,1775670886416,-2699,4670,9102,-5508782,-581543,-789237,0,0,0,239,286,230,263,183,291,322,260,278,172,224,131,0,
2,1775670886416,1426,1526,9696,260228,-48869,-39095,0,0,0,386,487,321,420,398,440,530,512,313,350,379,266,0,
1,1775670886432,-3005,3843,10490,-5973040,-449596,-1260825,0,0,0,236,286,228,264,186,293,317,259,276,169,224,126,0,
2,1775670886432,1421,1469,9691,224798,-83077,-43982,0,0,0,396,490,332,419,397,442,535,509,322,365,390,268,0,
1,1775670886448,-3632,2857,11399,-6079330,-810007,-1610240,0,0,0,236,287,228,265,186,292,317,261,278,169,224,125,0,
2,1775670886448,1407,1469,9696,190589,-120951,-48869,0,0,0,411,497,337,428,404,448,541,513,330,291,309,282,0,
1,1775670886464,-3192,2550,12878,-6008470,-1229060,-1760513,0,0,0,235,287,226,266,186,292,322,257,279,191,221,132,0,
2,1775670886464,1368,1521,9748,188146,-151494,-53756,0,0,0,415,502,327,433,409,451,540,508,332,276,284,292,0,
1,1775670886480,-2904,2383,14792,-6039013,-1389107,-1824043,0,0,0,246,285,228,276,181,293,347,246,276,201,218,126,0,
2,1775670886480,1316,1531,9801,205250,-168598,-56199,0,0,0,422,508,331,428,409,453,541,502,335,257,258,306,0,
1,1775670886496,-3168,1837,17200,-6232047,-1375668,-1704314,0,0,0,254,285,230,284,178,292,364,243,276,203,217,120,0,
2,1775670886496,1277,1478,9849,240680,-168598,-52534,0,0,0,431,509,331,433,410,463,542,491,345,258,252,328,0,
1,1775670886512,-3484,995,19344,-6403089,-1363451,-1485624,0,0,0,255,286,230,282,178,290,364,243,276,199,214,117,0,
2,1775670886512,1253,1435,9887,274889,-155159,-48869,0,0,0,433,508,329,439,411,473,540,478,345,238,219,356,0,
1,1775670886528,-3838,76,21531,-6449515,-1345125,-1352455,0,0,0,253,286,234,278,177,290,358,241,276,195,212,117,0,
2,1775670886528,1258,1421,9959,322536,-135612,-50090,0,0,0,457,521,339,450,430,475,540,465,348,251,209,388,0,
1,1775670886544,-4627,-842,23838,-6321233,-1325577,-1631010,0,0,0,249,286,241,275,178,301,351,245,286,192,215,126,0,
2,1775670886544,1306,1407,10050,387288,-114842,-62308,0,0,0,457,525,356,454,428,491,540,452,362,249,198,404,0,
1,1775670886560,-5781,-2512,26283,-6117204,-1357342,-2250427,0,0,0,244,288,248,271,184,317,340,247,293,189,218,134,0,
2,1775670886560,1349,1359,10112,456927,-100181,-76969,0,0,0,469,537,349,454,436,499,536,427,366,249,186,427,0,
1,1775670886576,-7666,-6518,28379,-5852088,-1584584,-3017674,0,0,0,243,291,241,273,188,300,331,247,280,186,218,125,0,
2,1775670886576,1435,1292,10193,542448,-87964,-101403,0,0,0,480,538,353,468,455,500,536,407,372,256,182,451,0,
1,1775670886592,-9676,-13309,29222,-5594303,-1951103,-3380528,0,0,0,237,291,248,267,188,311,323,254,291,177,219,136,0,
2,1775670886592,1574,1210,10399,654847,-74525,-142942,0,0,0,487,538,347,477,449,511,516,359,367,252,173,474,0,
1,1775670886608,-9739,-22311,26867,-5307197,-2257757,-2823419,0,0,0,238,293,260,265,186,326,325,255,303,185,219,146,0,
2,1775670886608,1694,1143,10691,796568,-65973,-197920,0,0,0,496,546,367,483,450,524,500,323,375,260,171,501,0,
1,1775670886624,-2914,-31260,20818,-4473977,-2483778,-1319468,0,0,0,238,296,258,267,187,326,328,253,302,187,220,147,0,
2,1775670886624,1722,1119,11093,989601,-65973,-257785,0,0,0,512,552,353,490,463,525,478,294,381,270,174,527,0,
1,1775670886640,6432,-36573,15864,-3181386,-2206445,-10995,0,0,0,238,294,257,268,189,328,328,253,302,187,220,147,0,
2,1775670886640,1593,1009,11706,1260825,-53756,-310319,0,0,0,515,562,339,490,478,522,454,269,384,279,181,553,0,
1,1775670886656,11677,-39727,13084,-1620014,-1042136,847880,0,0,0,239,293,254,269,188,324,331,256,301,186,220,146,0,
2,1775670886656,1469,756,12505,1627344,-7330,-333532,0,0,0,510,570,314,494,490,525,425,254,386,283,184,573,0,
1,1775670886672,8351,-38655,13003,-78190,321315,1354899,0,0,0,243,283,235,276,184,294,357,290,279,220,274,121,0,
2,1775670886672,1598,780,13811,2153910,92851,-377514,0,0,0,516,569,286,499,497,532,384,249,384,281,182,581,0,
1,1775670886688,3661,-28332,15740,1464854,1313360,1544267,0,0,0,248,261,188,282,171,253,406,350,256,275,331,96,0,
2,1775670886688,1823,966,15051,2780658,111177,-433714,0,0,0,528,570,276,495,509,534,338,247,378,278,189,585,0,
1,1775670886704,-3460,961,16625,3061656,2846632,941954,0,0,0,246,244,170,275,159,238,440,404,250,295,370,84,0,
2,1775670886704,2072,1129,15821,3466049,-13439,-496022,0,0,0,530,569,265,485,520,534,304,244,374,275,200,586,0,
1,1775670886720,-6661,15692,11811,4089131,3885102,50090,0,0,0,244,243,170,272,155,241,458,444,258,312,401,84,0,
2,1775670886720,2684,1129,16692,4177096,-207694,-568104,0,0,0,528,555,262,466,516,525,278,235,373,264,188,579,0,
1,1775670886736,-1311,4895,12830,5034751,2773328,-414166,0,0,0,244,247,169,279,156,250,465,465,267,346,422,89,0,
2,1775670886736,4235,1062,18267,5011538,-434936,-742812,0,0,0,531,546,255,466,515,526,256,201,377,255,171,557,0,
1,1775670886752,4355,-3239,19100,5165476,863763,-211359,0,0,0,247,248,187,286,157,264,470,470,271,371,427,95,0,
2,1775670886752,6298,928,21435,6092769,-641408,-1175304,0,0,0,527,530,240,456,502,517,251,181,369,241,154,498,0,
1,1775670886768,2933,-1454,22067,4014606,-255341,684169,0,0,0,259,258,215,294,166,273,488,487,272,391,433,97,0,
2,1775670886768,7963,751,25479,7225314,-733038,-1682322,0,0,0,481,521,260,446,480,508,297,257,362,217,144,440,0,
1,1775670886784,-3479,488,17377,2586403,-138055,747699,0,0,0,259,275,228,301,182,300,497,496,280,405,442,111,0,
2,1775670886784,8963,1612,29437,8157494,-400727,-2128254,0,0,0,394,494,222,417,451,466,264,170,342,197,135,357,0,
1,1775670886800,-4848,248,12581,1525941,43982,144164,0,0,0,264,281,250,318,195,331,500,498,297,415,449,150,0,
2,1775670886800,7403,5082,31265,8775690,127059,-2547308,0,0,0,334,465,214,378,422,429,284,225,303,165,127,317,0,
1,1775670886816,-2526,-57,10270,812450,102625,-223576,0,0,0,298,291,251,351,202,332,524,501,299,422,465,187,0,
2,1775670886816,5460,6255,30117,9132435,168598,-2842966,0,0,0,269,429,228,337,374,383,303,266,275,122,111,215,0,
1,1775670886832,-1483,291,10011,332310,123394,-163711,0,0,0,302,296,299,342,197,363,526,513,319,431,473,211,0,
2,1775670886832,8245,6322,22478,9244834,32986,-3062878,0,0,0,262,429,239,330,368,383,312,293,276,114,114,197,0,
1,1775670886848,-2010,751,10327,136833,174707,-35430,0,0,0,308,307,268,348,205,350,536,518,311,438,487,207,0,
2,1775670886848,10490,10863,13079,8147720,241902,-3632204,0,0,0,262,432,239,331,371,386,314,299,277,113,119,198,0,
1,1775670886864,-2100,880,10217,62308,211359,-25656,0,0,0,319,321,268,353,212,352,542,522,310,439,494,218,0,
2,1775670886864,5623,18138,9289,5000542,-295658,-3591887,0,0,0,263,434,235,330,379,383,316,300,269,113,118,193,0,
1,1775670886880,-1899,1019,10078,48869,179594,-18325,0,0,0,331,321,270,361,209,356,541,514,311,433,488,237,0,
2,1775670886880,2541,21440,9408,-491135,-1529606,-1522276,0,0,0,265,433,229,332,377,381,319,299,264,113,116,190,0,
1,1775670886896,-1785,1158,10126,114842,103847,13439,0,0,0,325,328,275,360,213,374,544,498,322,434,478,258,0,
2,1775670886896,4709,16439,8772,-4673119,-1992642,518013,0,0,0,265,432,228,334,370,380,320,298,265,115,117,191,0,
1,1775670886912,-1756,1253,10241,211359,20769,41538,0,0,0,324,333,280,359,221,386,544,479,334,437,465,275,0,
2,1775670886912,7915,7346,6278,-6001140,-1369559,1301142,0,0,0,267,435,236,332,367,377,320,296,263,114,118,191,0,
1,1775670886928,-1746,1292,10265,339641,-85521,57421,0,0,0,326,336,283,358,223,389,543,461,346,425,439,289,0,
2,1775670886928,7193,3747,4082,-5138598,-333532,654847,0,0,0,268,437,247,329,367,376,316,294,259,117,127,189,0,
1,1775670886944,-1780,1172,9303,397062,-152716,58643,0,0,0,324,349,283,357,238,391,539,449,352,410,419,300,0,
2,1775670886944,5422,4139,4364,-4757418,280998,108734,0,0,0,265,439,247,331,370,377,315,296,260,134,152,191,0,
1,1775670886960,-1785,1019,7240,326202,-116064,61086,0,0,0,324,363,284,360,273,391,533,440,349,405,411,305,0,
2,1775670886960,3723,5345,6633,-5222897,569326,-7330,0,0,0,262,438,244,333,370,378,318,302,260,135,153,190,0,
1,1775670886976,-1852,880,7571,287106,-87964,59864,0,0,0,322,364,291,359,282,391,534,422,348,395,396,311,0,
2,1775670886976,2885,5403,8518,-5769011,733038,147829,0,0,0,261,440,245,328,369,375,317,302,259,133,153,189,0,
1,1775670886992,-1957,789,9619,311541,-91629,58643,0,0,0,316,358,280,367,248,408,530,410,357,384,391,326,0,
2,1775670886992,3072,4647,9399,-5974262,956614,401949,0,0,0,262,442,247,329,369,375,320,305,262,151,158,187,0,
1,1775670887008,-1947,780,9863,283441,-59864,67195,0,0,0,321,364,276,368,258,400,529,418,351,376,384,320,0,
2,1775670887008,3034,4316,10394,-5927836,1368338,660956,0,0,0,261,440,245,329,368,375,315,300,260,132,151,186,0,
1,1775670887024,-1890,784,9619,239459,-26878,76969,0,0,0,317,361,281,371,263,407,528,417,351,376,381,332,0,
2,1775670887024,2488,4508,12041,-5976705,1717753,963945,0,0,0,260,439,245,330,370,376,315,301,260,132,154,188,0,
1,1775670887040,-1818,775,9495,199142,-9773,79412,0,0,0,327,360,278,378,253,408,531,386,351,371,373,331,0,
2,1775670887040,2187,4781,14524,-6298020,1875356,1348790,0,0,0,260,440,246,331,371,378,317,302,258,129,149,185,0,
1,1775670887056,-1775,751,9638,179594,-19547,73303,0,0,0,314,389,281,376,270,424,531,388,360,362,368,338,0,
2,1775670887056,2656,4474,16932,-6684087,1952325,1593136,0,0,0,262,440,245,332,371,378,318,304,261,126,142,186,0,
1,1775670887072,-1751,741,9724,160046,-36651,62308,0,0,0,312,392,287,376,269,426,531,396,367,353,363,347,0,
2,1775670887072,3378,3431,19803,-7007846,2102598,1618792,0,0,0,260,439,241,334,372,380,326,309,268,124,135,188,0,
1,1775670887088,-1785,741,9772,155159,-54977,57421,0,0,0,315,376,284,382,262,409,529,385,364,359,356,345,0,
2,1775670887088,3546,2407,23125,-7099475,2219884,1488067,0,0,0,255,437,237,335,372,382,330,309,268,132,151,187,0,
1,1775670887104,-1871,713,9786,177150,-67195,69638,0,0,0,321,374,292,389,256,410,528,381,363,366,367,352,0,
2,1775670887104,3799,1722,27188,-7156897,2207666,1464854,0,0,0,254,437,237,335,372,381,331,306,268,138,158,187,0,
1,1775670887120,-1943,674,9767,215024,-68416,97738,0,0,0,331,376,294,400,258,422,533,368,365,363,347,367,0,
2,1775670887120,4187,38,31337,-7248526,2130697,1803274,0,0,0,255,436,239,339,373,384,335,304,275,132,143,190,0,
1,1775670887136,-1952,646,9753,260228,-61086,135612,0,0,0,342,380,295,407,262,430,537,352,368,361,317,384,0,
2,1775670887136,4493,-4752,34189,-7214318,2228436,2373822,0,0,0,259,437,241,343,373,391,338,302,290,124,127,195,0,
1,1775670887152,-1957,646,9825,327423,-59864,174707,0,0,0,355,382,303,411,268,436,533,334,374,356,300,400,0,
2,1775670887152,4455,-15931,35027,-6714630,2513099,2889392,0,0,0,266,439,243,345,371,395,341,302,304,122,122,200,0,
1,1775670887168,-1986,665,10007,434936,-80634,211359,0,0,0,370,381,314,412,281,448,523,306,388,342,283,421,0,
2,1775670887168,4034,-31265,29715,-5444031,2178345,2464230,0,0,0,264,436,240,347,373,399,345,302,308,126,127,202,0,
1,1775670887184,-2129,693,10356,575435,-124616,244346,0,0,0,377,387,318,408,301,463,515,275,408,331,257,456,0,
2,1775670887184,1512,-43335,20880,-3737273,1846034,1231504,0,0,0,264,435,239,350,374,399,347,305,308,127,128,203,0,
1,1775670887200,-2287,693,10801,748920,-193033,291993,0,0,0,379,400,298,421,322,471,511,245,421,314,230,497,0,
2,1775670887200,-6322,-48044,14725,-1747074,1705535,-570548,0,0,0,262,434,240,346,372,395,344,309,301,129,130,202,0,
1,1775670887216,-2325,583,11241,961501,-262672,343306,0,0,0,409,410,296,443,353,477,502,234,417,294,216,517,0,
2,1775670887216,-11907,-44632,15903,-92851,542448,-1587027,0,0,0,247,431,238,346,378,399,352,354,297,129,151,198,0,
1,1775670887232,-2239,325,11926,1295034,-272445,382401,0,0,0,409,396,270,458,329,507,475,214,423,282,183,530,0,
2,1775670887232,-9652,-33845,19363,1457524,-1032362,-1765400,0,0,0,239,411,216,339,364,376,388,437,265,235,313,177,0,
1,1775670887248,-2392,215,12940,1685988,-263893,426383,0,0,0,393,410,239,471,363,516,438,203,439,266,168,554,0,
2,1775670887248,-665,-2182,20133,2852740,-2729345,-1066570,0,0,0,246,379,205,337,345,368,432,461,265,174,252,173,0,
1,1775670887264,-2651,172,13936,2146580,-305432,514348,0,0,0,410,399,216,487,371,532,391,204,426,257,165,561,0,
2,1775670887264,6518,19195,12926,3720169,-3844785,-63529,0,0,0,252,374,186,336,337,365,460,469,265,181,273,169,0,
1,1775670887280,-3129,220,14836,2750115,-373849,660956,0,0,0,406,409,210,481,393,527,353,191,448,244,170,569,0,
2,1775670887280,3134,7298,9049,4652349,-3109304,645073,0,0,0,257,376,196,343,336,377,479,488,273,231,333,174,0,
1,1775670887296,-3967,469,15951,3470936,-354301,890641,0,0,0,428,404,217,467,392,529,313,186,439,242,154,556,0,
2,1775670887296,-3464,-2723,17396,4984660,-1222952,519235,0,0,0,260,381,211,354,343,387,493,496,281,222,334,179,0,
1,1775670887312,-5068,842,17726,4318817,-272445,1200961,0,0,0,415,405,209,450,382,509,304,170,426,222,139,537,0,
2,1775670887312,-4024,-1976,22699,4356690,-129503,-123394,0,0,0,266,393,235,361,347,395,506,506,291,211,321,182,0,
1,1775670887328,-7016,1148,20492,5331631,-146607,1609019,0,0,0,397,381,218,417,349,491,268,150,416,194,121,474,0,
2,1775670887328,1430,2225,19789,3077539,-57421,-586430,0,0,0,275,413,268,367,356,404,519,519,293,238,319,198,0,
1,1775670887344,-9217,981,23833,6337115,-3665,2119702,0,0,0,371,359,227,383,312,462,217,146,392,169,107,390,0,
2,1775670887344,3192,1809,13505,2002416,-172263,-177150,0,0,0,290,433,295,381,370,418,527,527,307,243,321,222,0,
1,1775670887360,-10265,1162,26556,7181331,45204,2648711,0,0,0,324,346,217,347,284,409,201,160,352,150,110,304,0,
2,1775670887360,1928,330,10409,1064127,-122173,196698,0,0,0,314,449,312,400,381,430,536,536,325,232,316,247,0,
1,1775670887376,-9514,2230,28207,7714006,-21991,3099530,0,0,0,271,323,203,306,255,353,231,192,310,142,145,217,0,
2,1775670887376,1201,263,10701,458148,-102625,157603,0,0,0,336,457,320,410,384,435,543,543,325,239,309,263,0,
1,1775670887392,-9160,4139,28614,8056090,294437,3434284,0,0,0,240,296,203,271,212,306,272,228,278,148,187,149,0,
2,1775670887392,1373,995,10571,141720,-162490,50090,0,0,0,348,461,325,411,386,437,542,543,317,270,318,268,0,
1,1775670887408,-10658,6882,22608,8184372,1164309,3616322,0,0,0,235,275,219,250,179,277,310,244,271,156,209,120,0,
2,1775670887408,1497,1512,10069,64751,-222354,7330,0,0,0,356,468,329,415,386,439,547,548,317,330,335,263,0,
1,1775670887424,-12275,10485,12433,7739662,1852143,3826459,0,0,0,232,284,233,247,195,287,308,251,281,160,220,127,0,
2,1775670887424,1301,1564,10098,40317,-162490,8552,0,0,0,368,470,336,417,388,439,547,547,323,252,305,276,0,
1,1775670887440,-11959,14702,8877,5955936,1565036,3640756,0,0,0,225,285,232,255,188,293,309,254,275,160,225,130,0,
2,1775670887440,1335,1655,10203,69638,-109955,0,0,0,0,377,472,343,419,388,439,547,548,315,246,301,275,0,
1,1775670887456,-7523,18645,9499,1844813,643851,2025629,0,0,0,225,286,227,255,189,291,311,257,275,158,225,127,0,
2,1775670887456,1373,1737,10174,147829,-111177,-15882,0,0,0,378,472,339,419,388,440,547,548,319,249,301,282,0,
1,1775670887472,-3436,17233,8858,-2456899,581543,-436157,0,0,0,230,287,229,257,189,291,311,257,274,162,225,128,0,
2,1775670887472,1253,1722,10122,238237,-86742,-25656,0,0,0,383,473,341,419,389,444,549,549,320,248,289,283,0,
1,1775670887488,-5025,10878,6374,-4161214,1125213,-1879021,0,0,0,230,291,230,260,190,294,313,255,272,165,226,129,0,
2,1775670887488,1182,1684,10074,295658,-17104,-28099,0,0,0,388,475,343,421,390,445,551,545,319,283,313,293,0,
1,1775670887504,-7394,6470,4675,-4603480,908967,-2097711,0,0,0,230,289,230,261,190,293,318,258,274,163,224,124,0,
2,1775670887504,1239,1612,9964,327423,39095,-23212,0,0,0,389,474,341,423,391,448,549,537,319,305,329,288,0,
1,1775670887520,-7461,4728,4675,-4601036,-18325,-1466076,0,0,0,228,288,232,262,189,293,306,250,272,167,228,124,0,
2,1775670887520,1349,1493,9825,348193,63529,-23212,0,0,0,389,473,337,423,391,450,549,525,319,307,323,288,0,
1,1775670887536,-5474,4422,6058,-4808731,-371406,-1016479,0,0,0,227,288,229,264,190,295,315,256,273,166,229,125,0,
2,1775670887536,1426,1392,9743,343306,48869,-30543,0,0,0,390,474,334,423,393,451,545,519,322,271,283,301,0,
1,1775670887552,-4479,4144,7504,-5165476,-342084,-877202,0,0,0,228,288,229,263,190,294,324,264,275,167,226,125,0,
2,1775670887552,1459,1368,9734,326202,18325,-45204,0,0,0,396,476,337,425,397,454,545,517,328,266,275,309,0,
1,1775670887568,-4546,3632,8805,-5572312,-375071,-983493,0,0,0,226,287,229,261,190,293,320,267,274,166,223,124,0,
2,1775670887568,1488,1363,9758,313984,-20769,-59864,0,0,0,404,478,343,428,397,460,551,510,336,265,269,316,0,
1,1775670887584,-4800,2866,9987,-5848423,-640186,-1191187,0,0,0,224,287,228,263,193,296,317,268,273,165,223,124,0,
2,1775670887584,1474,1306,9777,304210,-65973,-65973,0,0,0,410,480,347,430,395,466,552,500,342,239,235,329,0,
1,1775670887600,-4895,2215,11079,-5900958,-994488,-1439198,0,0,0,225,288,231,264,192,298,322,270,276,170,227,126,0,
2,1775670887600,1430,1249,9777,291993,-102625,-68416,0,0,0,416,485,346,433,398,473,552,490,344,238,225,342,0,
1,1775670887616,-5063,1861,12821,-5918062,-1297477,-1706757,0,0,0,223,287,232,263,191,301,321,265,274,171,230,126,0,
2,1775670887616,1359,1234,9791,290771,-116064,-67195,0,0,0,421,487,338,436,400,476,553,486,349,242,218,358,0,
1,1775670887632,-5474,1588,14802,-6017022,-1530828,-1874134,0,0,0,223,287,226,267,194,298,322,262,272,170,231,125,0,
2,1775670887632,1325,1234,9853,309097,-108734,-64751,0,0,0,427,491,339,439,399,477,553,479,352,251,221,371,0,
1,1775670887648,-5872,1052,17061,-6178291,-1761735,-1893682,0,0,0,223,287,226,267,194,296,318,260,272,168,232,121,0,
2,1775670887648,1349,1186,9944,345749,-92851,-64751,0,0,0,433,491,346,443,397,480,548,443,362,240,195,383,0,
1,1775670887664,-6054,162,19789,-6266255,-1957212,-1842369,0,0,0,229,292,230,265,196,295,320,268,275,168,241,120,0,
2,1775670887664,1392,1110,10026,388510,-74525,-72082,0,0,0,441,499,362,451,409,493,548,432,351,245,188,403,0,
1,1775670887680,-6374,-588,22593,-6222273,-2061059,-1904677,0,0,0,231,295,233,271,198,294,321,271,273,166,246,118,0,
2,1775670887680,1469,1024,10078,431270,-59864,-89186,0,0,0,452,506,364,449,410,493,546,416,356,241,176,424,0,
1,1775670887696,-6867,-1713,25876,-6111095,-2163684,-2235766,0,0,0,231,295,234,272,197,293,324,270,275,214,234,136,0,
2,1775670887696,1569,957,10126,481361,-57421,-119729,0,0,0,464,516,360,459,422,501,537,381,358,248,168,451,0,
1,1775670887712,-6920,-4216,29097,-6064670,-2404365,-2673146,0,0,0,233,295,230,279,198,291,330,267,273,189,236,123,0,
2,1775670887712,1660,899,10222,560774,-59864,-168598,0,0,0,469,518,360,460,430,502,531,351,375,251,167,474,0,
1,1775670887728,-6341,-9940,31758,-6113539,-2704911,-3018896,0,0,0,233,295,231,275,197,296,335,263,277,180,231,120,0,
2,1775670887728,1737,856,10404,658512,-61086,-217468,0,0,0,485,526,360,470,441,507,520,323,370,265,172,511,0,
1,1775670887744,-5786,-20200,29944,-6086661,-2521651,-2690250,0,0,0,229,292,231,274,195,300,338,262,282,182,228,119,0,
2,1775670887744,1832,871,10830,810007,-68416,-270002,0,0,0,497,529,358,482,456,516,498,298,369,296,195,541,0,
1,1775670887760,-4422,-32629,23627,-5524665,-2201558,-1527163,0,0,0,228,293,231,275,198,304,338,264,287,184,227,120,0,
2,1775670887760,1904,794,11337,1034805,-90408,-318871,0,0,0,497,530,341,485,462,523,476,262,376,317,214,553,0,
1,1775670887776,2842,-41770,17123,-3942524,-2089159,408057,0,0,0,229,295,232,275,202,306,337,265,290,186,227,123,0,
2,1775670887776,1627,684,11887,1317025,-95294,-362853,0,0,0,499,538,323,485,472,530,448,241,382,329,225,566,0,
1,1775670887792,13754,-45872,14434,-1859473,-1362229,1888795,0,0,0,229,291,228,275,199,297,341,274,284,197,249,117,0,
2,1775670887792,1277,593,12682,1707979,7330,-371406,0,0,0,508,551,309,488,488,534,415,240,390,355,228,571,0,
1,1775670887808,16668,-43421,15678,-47647,397062,1887573,0,0,0,228,276,216,273,186,279,370,317,274,230,305,103,0,
2,1775670887808,1454,579,13749,2193006,124616,-377514,0,0,0,515,556,286,494,499,540,380,237,395,350,215,571,0,
1,1775670887824,5829,-22852,19243,1936442,2723237,1160643,0,0,0,232,253,197,269,166,260,430,401,265,273,371,90,0,
2,1775670887824,2153,631,15175,2884505,70860,-414166,0,0,0,520,551,260,493,510,545,333,230,388,288,200,592,0,
1,1775670887840,-5556,7288,16611,3446501,4431216,533896,0,0,0,239,242,167,266,159,243,458,457,250,300,407,85,0,
2,1775670887840,2794,770,16324,3685960,-153938,-524122,0,0,0,524,550,248,473,513,541,290,216,385,272,197,592,0,
1,1775670887856,-5407,12462,12203,4608367,4245513,-1221,0,0,0,237,239,161,272,161,249,469,468,268,335,418,85,0,
2,1775670887856,3790,914,17669,4532620,-329867,-712268,0,0,0,527,548,258,468,506,536,269,198,387,262,185,586,0,
1,1775670887872,1761,751,16424,5577199,2263866,-227241,0,0,0,244,246,165,277,157,258,475,475,280,374,429,92,0,
2,1775670887872,5130,1148,20224,5490456,-471587,-1026253,0,0,0,516,532,248,477,507,528,253,167,389,247,161,544,0,
1,1775670887888,4991,-4709,23187,5232671,331088,239459,0,0,0,241,243,189,287,157,286,483,483,292,398,434,98,0,
2,1775670887888,6518,1014,23943,6644992,-592539,-1424537,0,0,0,498,522,252,452,481,515,246,156,378,218,142,467,0,
1,1775670887904,-1986,-760,20023,3441614,-94073,864985,0,0,0,254,270,224,300,172,304,498,498,296,406,439,104,0,
2,1775670887904,8810,339,27810,7788531,-409279,-1835039,0,0,0,408,496,222,434,472,498,262,166,360,202,140,387,0,
1,1775670887920,-6030,335,13165,1914451,117286,403171,0,0,0,268,272,245,316,185,335,515,506,325,418,455,143,0,
2,1775670887920,9715,1316,31232,8706051,638965,-2425134,0,0,0,351,469,209,401,436,448,282,190,328,175,124,334,0,
1,1775670887936,-3642,-196,10069,955393,202807,-210137,0,0,0,295,285,256,341,195,342,521,507,324,417,463,178,0,
2,1775670887936,7504,5470,32691,9150761,1492954,-3026226,0,0,0,287,434,218,357,390,405,298,244,284,132,110,249,0,
1,1775670887952,-1660,-52,9858,463035,166155,-289550,0,0,0,313,308,260,355,205,339,537,503,340,408,463,203,0,
2,1775670887952,6456,8748,28145,9040805,1422094,-3467271,0,0,0,268,422,231,337,370,384,311,271,273,115,107,206,0,
1,1775670887968,-1746,540,10509,274889,145385,-86742,0,0,0,317,317,259,361,213,355,544,500,345,412,464,223,0,
2,1775670887968,7494,10586,18798,8723155,557109,-3852116,0,0,0,271,425,236,333,367,382,318,289,276,115,115,198,0,
1,1775670887984,-2383,808,10284,210137,206472,-8552,0,0,0,323,328,265,370,218,372,544,497,342,428,458,247,0,
2,1775670887984,8241,12830,11060,7534411,-971275,-4178318,0,0,0,270,428,236,331,368,382,315,295,271,115,117,197,0,
1,1775670888000,-2258,933,10007,200363,228463,6108,0,0,0,327,344,274,370,236,377,544,486,343,443,449,269,0,
2,1775670888000,5585,19167,8647,3470936,-1747074,-3248581,0,0,0,268,428,234,332,370,380,315,295,262,113,114,193,0,
1,1775670888016,-1947,933,10107,254119,145385,18325,0,0,0,325,352,279,364,254,382,545,469,351,445,440,286,0,
2,1775670888016,3996,21086,7628,-2030516,-1784948,-1274264,0,0,0,270,428,232,334,370,376,320,296,259,114,114,192,0,
1,1775670888032,-1909,942,10251,323758,18325,39095,0,0,0,326,352,282,369,251,390,548,458,361,431,423,302,0,
2,1775670888032,4670,13945,7858,-6017022,-1494176,638965,0,0,0,271,429,231,334,368,375,323,298,262,115,114,195,0,
1,1775670888048,-2057,961,10265,373849,-57421,61086,0,0,0,329,351,285,377,248,393,544,448,360,416,409,315,0,
2,1775670888048,6274,6207,6652,-6307794,-1326799,1076344,0,0,0,272,431,232,335,369,379,323,299,267,116,115,199,0,
1,1775670888064,-2019,894,10102,405614,-102625,73303,0,0,0,327,351,284,390,249,392,538,422,354,400,410,326,0,
2,1775670888064,7351,3125,4675,-5619960,-917519,860098,0,0,0,271,434,238,338,372,383,323,301,270,116,117,198,0,
1,1775670888080,-2033,780,9844,434936,-156381,73303,0,0,0,330,356,277,384,256,399,534,413,361,378,396,332,0,
2,1775670888080,6848,3493,4441,-5114163,-73303,459370,0,0,0,269,435,238,338,372,384,325,301,275,117,117,200,0,
1,1775670888096,-2163,641,9629,421497,-157603,69638,0,0,0,330,358,270,382,254,397,531,402,361,365,380,350,0,
2,1775670888096,4938,4474,6317,-5236336,590095,312763,0,0,0,270,435,237,339,372,380,324,303,264,118,120,194,0,
1,1775670888112,-2254,540,9518,381179,-112399,73303,0,0,0,331,359,263,384,250,393,530,381,369,365,363,353,0,
2,1775670888112,3263,4953,8667,-5743354,770911,508239,0,0,0,265,433,233,338,372,379,322,303,261,118,120,191,0,
1,1775670888128,-2254,478,9504,331088,-46425,83077,0,0,0,330,364,264,385,261,396,531,375,377,360,357,354,0,
2,1775670888128,3536,4503,9643,-6048787,899193,835663,0,0,0,262,434,233,336,372,378,324,306,262,120,121,193,0,
1,1775670888144,-2177,449,9528,291993,-3665,90408,0,0,0,333,365,265,388,260,405,532,369,384,366,357,357,0,
2,1775670888144,3799,4235,10638,-6162408,1252273,1097113,0,0,0,260,434,234,339,375,379,325,307,265,117,122,193,0,
1,1775670888160,-2067,440,9566,256563,15882,96516,0,0,0,338,370,263,399,264,408,531,361,384,363,357,358,0,
2,1775670888160,3345,4474,12562,-6288246,1638340,1352455,0,0,0,260,435,236,339,376,380,327,309,263,117,123,193,0,
1,1775670888176,-2010,421,9600,224798,17104,91629,0,0,0,342,369,263,399,265,406,527,351,381,360,355,363,0,
2,1775670888176,3192,4489,14946,-6568023,1750739,1594358,0,0,0,261,435,237,338,374,379,329,311,265,118,124,193,0,
1,1775670888192,-1995,397,9643,202807,17104,85521,0,0,0,346,371,265,395,263,406,524,343,384,357,344,370,0,
2,1775670888192,3704,3938,17291,-6831916,1861917,1692096,0,0,0,260,435,235,338,373,378,329,310,264,119,123,192,0,
1,1775670888208,-2024,392,9763,211359,4886,90408,0,0,0,351,381,268,400,266,414,519,335,387,348,327,379,0,
2,1775670888208,4154,3019,20665,-7031058,2039068,1550375,0,0,0,260,435,235,339,374,380,330,308,264,120,125,190,0,
1,1775670888224,-2081,397,9882,249233,-17104,111177,0,0,0,350,385,270,409,277,430,512,325,388,334,314,393,0,
2,1775670888224,4426,2301,24723,-7183775,2086715,1364672,0,0,0,258,432,234,341,374,382,332,306,265,119,123,189,0,
1,1775670888240,-2201,402,9940,324980,-43982,153938,0,0,0,352,383,270,412,292,442,505,309,403,329,298,416,0,
2,1775670888240,5226,1344,29772,-7340156,2001194,1315803,0,0,0,260,430,235,342,372,382,334,303,268,122,124,189,0,
1,1775670888256,-2292,373,9906,412944,-43982,205250,0,0,0,371,381,271,425,282,453,502,276,410,330,267,447,0,
2,1775670888256,6278,-2321,33390,-7489207,2083050,1627344,0,0,0,262,431,239,342,370,383,335,299,275,125,127,191,0,
1,1775670888272,-2378,315,9968,513126,-50090,265115,0,0,0,371,403,279,433,309,469,517,260,406,326,250,457,0,
2,1775670888272,6446,-11428,35410,-7401243,2601064,2182010,0,0,0,260,430,238,342,369,389,334,295,287,125,126,194,0,
1,1775670888288,-2512,177,10189,620639,-84299,337197,0,0,0,386,415,280,465,333,484,503,241,420,328,231,465,0,
2,1775670888288,3886,-26235,34122,-6411641,2932153,2386039,0,0,0,260,430,237,350,373,398,342,295,297,133,134,200,0,
1,1775670888304,-2531,43,10480,729373,-112399,404392,0,0,0,399,418,281,459,335,495,495,227,420,303,220,498,0,
2,1775670888304,201,-39033,28188,-4846604,2549751,2007303,0,0,0,263,430,238,349,371,397,342,295,301,138,142,201,0,
1,1775670888320,-2435,0,11021,877202,-114842,459370,0,0,0,406,427,276,467,356,517,480,223,434,291,207,518,0,
2,1775670888320,-5805,-48705,18870,-2531425,1820378,917519,0,0,0,262,429,237,347,371,396,344,299,301,138,145,200,0,
1,1775670888336,-2134,-4,11835,1136209,-114842,483805,0,0,0,411,442,259,469,391,523,467,218,432,281,207,539,0,
2,1775670888336,-9863,-49289,15769,-624304,849102,-256563,0,0,0,259,428,234,347,371,395,344,312,289,153,170,194,0,
1,1775670888352,-1708,-67,12423,1434311,-146607,466701,0,0,0,427,434,248,476,383,527,440,200,431,281,187,554,0,
2,1775670888352,-9447,-43144,17147,928515,-241902,-1004262,0,0,0,250,420,226,342,370,387,372,406,265,201,278,181,0,
1,1775670888368,-1727,-157,13074,1843591,-217468,404392,0,0,0,420,429,233,467,376,544,397,185,446,280,181,567,0,
2,1775670888368,-4570,-16161,22416,2541199,-1703092,-959058,0,0,0,244,374,205,334,344,367,427,456,265,165,238,174,0,
1,1775670888384,-2598,-143,13912,2361605,-283441,400727,0,0,0,415,434,212,459,423,539,357,193,461,267,186,569,0,
2,1775670888384,3905,15276,16338,3429397,-3489262,61086,0,0,0,250,358,185,332,331,362,458,466,265,175,253,173,0,
1,1775670888400,-3670,-90,14831,2987131,-263893,551000,0,0,0,421,439,203,457,443,527,320,197,458,252,180,558,0,
2,1775670888400,4690,15151,9303,4205196,-3935193,858876,0,0,0,253,364,180,339,332,369,478,478,273,191,283,172,0,
1,1775670888416,-4804,4,16089,3754377,-179594,842994,0,0,0,413,433,217,450,408,535,264,184,448,232,157,541,0,
2,1775670888416,-2837,-306,13615,4998099,-2199114,884532,0,0,0,259,367,191,352,330,381,489,490,278,207,311,177,0,
1,1775670888432,-6403,229,17836,4590041,-114842,1235169,0,0,0,406,412,231,443,398,533,214,177,444,195,130,510,0,
2,1775670888432,-6652,-3603,20478,4851491,-461814,117286,0,0,0,261,371,211,362,334,394,500,501,289,216,320,185,0,
1,1775670888448,-8624,186,20679,5536882,-12217,1771509,0,0,0,411,397,235,417,374,509,218,158,416,170,122,436,0,
2,1775670888448,-670,1105,20339,3876550,-62308,-619417,0,0,0,268,390,245,367,343,404,516,517,300,219,316,197,0,
1,1775670888464,-10519,-315,24292,6436076,51312,2366491,0,0,0,370,382,222,369,330,469,177,142,388,149,112,379,0,
2,1775670888464,3852,1765,16453,2724458,-136833,-409279,0,0,0,284,417,279,378,357,414,529,530,308,225,314,220,0,
1,1775670888480,-10969,81,27006,7192327,56199,2917492,0,0,0,324,343,219,334,284,403,189,157,345,144,112,285,0,
2,1775670888480,2833,100,12289,1534493,-215024,232128,0,0,0,304,441,298,397,376,428,534,534,321,232,312,248,0,
1,1775670888496,-10050,2220,28614,7766540,163711,3445279,0,0,0,272,315,211,305,244,338,227,215,296,144,176,215,0,
2,1775670888496,655,-244,11060,761138,-172263,296880,0,0,0,335,456,313,409,386,439,542,541,325,239,310,273,0,
1,1775670888512,-9667,4369,27997,8068308,546113,3772703,0,0,0,239,277,210,259,183,276,290,226,266,158,192,131,0,
2,1775670888512,445,263,10667,329867,-128281,122173,0,0,0,351,465,324,410,387,444,552,552,318,243,309,285,0,
1,1775670888528,-11787,8155,19952,8016995,1253495,4001167,0,0,0,244,273,223,253,178,278,306,243,272,162,214,124,0,
2,1775670888528,1268,904,10327,157603,-164933,-10995,0,0,0,360,468,322,413,391,435,550,550,315,250,313,292,0,
1,1775670888544,-13711,11969,11658,7269296,1385442,4247956,0,0,0,248,277,224,259,184,286,307,251,274,165,223,128,0,
2,1775670888544,1220,1067,10193,84299,-213802,0,0,0,0,363,472,325,415,394,443,556,556,327,247,309,295,0,
1,1775670888560,-11170,16113,8829,4712214,416610,3798360,0,0,0,247,281,225,256,184,290,309,253,275,165,222,131,0,
2,1775670888560,1000,1206,10256,54977,-205250,8552,0,0,0,373,476,326,419,393,442,550,550,319,250,308,297,0,
1,1775670888576,-4044,18439,9585,138055,91629,1334129,0,0,0,247,284,227,255,186,292,311,258,275,161,229,133,0,
2,1775670888576,947,1373,10332,114842,-173485,-10995,0,0,0,379,478,326,420,391,442,557,557,319,272,319,300,0,
1,1775670888592,-1823,15065,8628,-3480710,1163087,-1499063,0,0,0,241,287,234,252,191,301,309,265,280,158,238,139,0,
2,1775670888592,856,1478,10323,238237,-120951,-31764,0,0,0,383,479,326,425,400,446,553,553,319,308,349,301,0,
1,1775670888608,-6546,8671,5599,-4630358,1910786,-2757445,0,0,0,234,291,233,249,195,299,306,272,279,157,245,137,0,
2,1775670888608,756,1478,10236,355523,-29321,-29321,0,0,0,383,480,326,425,407,451,555,553,328,256,284,309,0,
1,1775670888624,-9810,4714,3330,-4348138,485026,-1966986,0,0,0,233,292,223,253,197,287,309,277,270,160,250,125,0,
2,1775670888624,847,1316,10093,414166,54977,-8552,0,0,0,387,480,326,425,399,451,553,539,322,250,268,323,0,
1,1775670888640,-7121,4340,3996,-4117231,-861319,-979827,0,0,0,229,294,225,253,197,289,313,277,273,160,250,126,0,
2,1775670888640,1000,1148,9964,436157,85521,0,0,0,0,392,480,325,425,396,455,556,528,325,248,258,332,0,
1,1775670888656,-3819,5005,6140,-4417777,-856433,-627969,0,0,0,224,295,226,250,198,290,313,282,277,157,248,126,0,
2,1775670888656,1095,990,9853,428827,62308,-6108,0,0,0,397,482,325,430,401,459,555,512,331,265,271,337,0,
1,1775670888672,-3388,5211,8021,-5098281,-454483,-714712,0,0,0,223,295,227,249,195,291,315,282,278,161,250,128,0,
2,1775670888672,1100,923,9796,401949,32986,-23212,0,0,0,405,486,327,433,402,460,549,499,336,276,267,344,0,
1,1775670888688,-4503,4441,9365,-5788559,-555887,-959058,0,0,0,229,298,234,249,196,293,315,283,280,161,246,128,0,
2,1775670888688,1129,909,9796,376292,7330,-41538,0,0,0,415,488,326,435,400,466,548,489,342,258,232,359,0,
1,1775670888704,-4742,3287,10610,-6169738,-960280,-1191187,0,0,0,231,297,230,255,198,292,321,278,276,160,245,123,0,
2,1775670888704,1162,890,9873,361632,-20769,-57421,0,0,0,421,490,324,439,402,470,546,470,344,258,229,372,0,
1,1775670888720,-4297,2335,11931,-6223495,-1321912,-1478293,0,0,0,231,296,230,255,197,291,315,274,275,163,251,128,0,
2,1775670888720,1182,847,9930,355523,-54977,-72082,0,0,0,429,493,326,441,405,472,536,451,342,275,244,380,0,
1,1775670888736,-4446,2057,13682,-6219829,-1497841,-1824043,0,0,0,232,298,231,258,199,293,316,274,274,165,250,124,0,
2,1775670888736,1162,799,9944,354301,-91629,-83077,0,0,0,432,495,330,446,413,486,551,446,346,242,196,409,0,
1,1775670888752,-5077,1933,15951,-6305350,-1677435,-2112371,0,0,0,230,296,232,259,198,293,321,277,274,163,249,123,0,
2,1775670888752,1119,760,9968,365297,-103847,-90408,0,0,0,437,500,337,448,418,488,546,429,352,245,183,426,0,
1,1775670888768,-5843,1512,18822,-6472728,-1890017,-2217440,0,0,0,230,294,230,260,196,292,323,279,274,162,246,121,0,
2,1775670888768,1100,717,10054,398284,-95294,-103847,0,0,0,446,504,337,462,423,503,543,412,365,247,179,442,0,
1,1775670888784,-6475,799,22105,-6618113,-2061059,-2243097,0,0,0,232,295,230,263,195,291,323,274,275,163,246,119,0,
2,1775670888784,1148,655,10150,445931,-73303,-125838,0,0,0,464,514,339,459,428,506,535,384,369,247,171,466,0,
1,1775670888800,-7212,-143,25546,-6680422,-2108706,-2329840,0,0,0,229,293,236,260,193,297,320,268,278,165,245,124,0,
2,1775670888800,1220,569,10179,502131,-53756,-155159,0,0,0,470,518,336,465,436,507,531,359,371,252,169,483,0,
1,1775670888816,-8265,-2574,29365,-6651100,-2207666,-2621833,0,0,0,228,291,236,259,192,297,322,265,279,170,235,124,0,
2,1775670888816,1258,512,10270,568104,-36651,-189368,0,0,0,478,523,350,468,442,504,520,325,368,289,191,511,0,
1,1775670888832,-8600,-8083,32907,-6593679,-2630385,-2944370,0,0,0,234,291,231,267,190,293,333,262,277,178,222,120,0,
2,1775670888832,1363,473,10519,674395,-24434,-232128,0,0,0,485,530,345,473,447,508,504,293,377,333,218,526,0,
1,1775670888848,-7709,-17932,33060,-6502049,-2890614,-2863736,0,0,0,239,291,229,273,187,293,342,256,275,187,218,119,0,
2,1775670888848,1474,406,10854,807563,-24434,-277332,0,0,0,489,531,336,474,452,512,483,259,380,334,220,543,0,
1,1775670888864,-6326,-31227,28332,-6068335,-2753780,-2199114,0,0,0,239,294,231,273,185,296,343,249,277,195,218,118,0,
2,1775670888864,1483,344,11414,1026253,-26878,-327423,0,0,0,499,536,328,477,459,517,458,237,393,329,219,555,0,
1,1775670888880,-1555,-44364,19645,-4715879,-2643824,-615752,0,0,0,237,295,231,276,189,300,342,255,280,192,219,119,0,
2,1775670888880,1201,382,12299,1372003,19547,-351858,0,0,0,503,539,314,488,472,528,426,224,404,322,219,565,0,
1,1775670888896,10122,-48973,15137,-2465452,-2218662,1071457,0,0,0,238,292,228,277,191,299,343,257,275,194,229,117,0,
2,1775670888896,1172,349,13065,1773952,123394,-361632,0,0,0,502,542,296,496,487,542,394,218,402,305,214,580,0,
1,1775670888912,17693,-47001,15611,-127059,-387288,1736079,0,0,0,238,268,205,277,185,274,374,320,270,232,308,104,0,
2,1775670888912,1407,291,14118,2351831,248011,-403171,0,0,0,506,551,277,495,502,548,366,220,400,292,204,591,0,
1,1775670888928,9830,-29279,19377,1881464,2383596,1095892,0,0,0,240,253,189,263,160,264,436,400,265,263,375,96,0,
2,1775670888928,1895,358,15501,3026226,207694,-465479,0,0,0,508,551,254,491,517,540,330,215,396,276,192,594,0,
1,1775670888944,-2967,2067,16692,3926641,4905247,202807,0,0,0,248,245,169,270,156,244,457,443,264,299,403,86,0,
2,1775670888944,2747,473,17008,3854559,-6108,-581543,0,0,0,516,536,245,482,521,540,287,196,390,263,177,591,0,
1,1775670888960,-4015,9868,13524,5092172,4520402,-372627,0,0,0,242,243,159,276,155,247,468,466,264,355,424,94,0,
2,1775670888960,3900,751,18779,4814839,-191811,-806342,0,0,0,509,531,246,473,497,540,266,170,385,259,171,571,0,
1,1775670888976,2493,1703,18248,5759237,2310292,-400727,0,0,0,239,239,163,283,157,263,483,483,269,395,437,91,0,
2,1775670888976,5608,1048,21670,5999918,-338419,-1170417,0,0,0,507,526,248,469,500,526,258,167,387,242,158,520,0,
1,1775670888992,5082,-4178,25326,5159367,102625,377514,0,0,0,251,257,186,296,172,277,495,495,276,412,444,98,0,
2,1775670888992,7269,1119,25939,7228979,-343306,-1605353,0,0,0,468,499,240,457,466,512,262,156,374,217,141,427,0,
1,1775670889008,-1943,-1909,21387,3401297,-200363,685390,0,0,0,255,275,233,305,188,315,502,501,299,410,447,117,0,
2,1775670889008,8762,1277,30389,8302880,63529,-2014633,0,0,0,393,474,215,429,439,476,270,165,349,192,129,359,0,
1,1775670889024,-5599,-234,14242,1830152,-28099,205250,0,0,0,271,290,257,320,201,338,517,520,306,420,467,155,0,
2,1775670889024,9093,2660,33275,9121439,929736,-2504547,0,0,0,322,447,211,375,410,424,290,214,300,153,118,295,0,
1,1775670889040,-3503,-148,8954,791681,252898,-389732,0,0,0,294,307,257,331,218,339,537,539,309,436,486,189,0,
2,1775670889040,7130,5489,33050,9354790,1484402,-3059213,0,0,0,275,421,222,336,367,380,305,247,266,118,102,216,0,
1,1775670889056,-1703,-564,9992,324980,243124,-226020,0,0,0,307,314,260,336,223,339,547,543,319,439,492,208,0,
2,1775670889056,7705,9810,25561,9093339,1317025,-3560122,0,0,0,270,420,232,329,358,372,313,270,263,110,102,189,0,
1,1775670889072,-2105,143,10916,80634,191811,-4886,0,0,0,314,312,269,342,209,341,549,540,317,433,498,229,0,
2,1775670889072,10500,12232,13529,8481252,403171,-4217413,0,0,0,279,427,238,332,362,376,314,287,268,114,113,192,0,
1,1775670889088,-2469,813,10442,74525,160046,15882,0,0,0,318,331,274,342,223,348,549,530,322,426,502,246,0,
2,1775670889088,6728,14247,11514,6994406,-627969,-4282165,0,0,0,279,428,235,333,364,376,315,294,263,115,117,193,0,
1,1775670889104,-2412,1019,10011,146607,111177,7330,0,0,0,321,328,267,348,220,352,548,494,326,430,487,252,0,
2,1775670889104,1009,21344,9260,2930931,-1557706,-2434908,0,0,0,276,428,231,331,365,373,316,294,258,112,114,189,0,
1,1775670889120,-2177,918,9490,233350,69638,28099,0,0,0,325,327,265,356,228,364,545,477,335,433,470,261,0,
2,1775670889120,1483,22354,6934,-2704911,-2131919,813672,0,0,0,275,428,233,330,364,372,316,293,257,111,113,189,0,
1,1775670889136,-2129,923,7700,219911,64751,61086,0,0,0,326,348,271,365,242,377,536,461,337,425,447,280,0,
2,1775670889136,7035,12213,6676,-6389650,-1958433,2707354,0,0,0,276,428,231,333,364,374,321,296,258,115,116,190,0,
1,1775670889152,-2124,990,8379,309097,-18325,75747,0,0,0,323,347,277,366,242,383,500,424,350,392,412,306,0,
2,1775670889152,9652,4379,7044,-7170336,-1196074,2344500,0,0,0,278,429,232,335,364,375,321,296,260,116,115,191,0,
1,1775670889168,-2144,890,9959,447153,-119729,68416,0,0,0,317,356,270,368,262,387,517,433,350,385,402,313,0,
2,1775670889168,7523,3302,6657,-6598566,-277332,985936,0,0,0,273,428,230,337,366,375,322,299,260,113,114,189,0,
1,1775670889184,-2211,708,10107,485026,-136833,64751,0,0,0,318,355,274,373,256,385,525,413,357,380,391,311,0,
2,1775670889184,5288,3326,6752,-6307794,156381,239459,0,0,0,276,431,235,338,365,375,322,300,261,116,115,189,0,
1,1775670889200,-2297,531,9480,433714,-76969,68416,0,0,0,315,362,279,371,257,387,524,394,362,374,373,321,0,
2,1775670889200,3766,3029,7877,-6328563,300545,-127059,0,0,0,270,431,232,336,365,374,326,304,261,113,115,189,0,
1,1775670889216,-2316,469,9313,371406,-7330,76969,0,0,0,317,359,286,366,255,408,519,377,373,372,355,339,0,
2,1775670889216,3139,3149,9585,-6575353,469144,-219911,0,0,0,271,437,235,336,365,374,324,301,260,114,117,189,0,
1,1775670889232,-2278,430,9408,328645,40317,86742,0,0,0,320,353,287,373,253,409,515,368,371,365,349,348,0,
2,1775670889232,2708,3823,10993,-6754947,807563,-109955,0,0,0,266,432,240,337,367,378,324,301,261,115,118,189,0,
1,1775670889248,-2196,421,9533,300545,69638,96516,0,0,0,322,357,283,382,258,403,512,364,370,354,347,350,0,
2,1775670889248,2340,4407,12490,-6827029,1187522,271224,0,0,0,264,432,237,338,369,379,325,304,262,118,123,189,0,
1,1775670889264,-2105,435,9643,291993,83077,103847,0,0,0,326,365,281,390,263,409,511,356,372,348,339,359,0,
2,1775670889264,2258,4455,14151,-6880786,1473406,735481,0,0,0,264,431,240,339,370,381,328,306,264,119,124,190,0,
1,1775670889280,-2029,440,9739,320093,70860,108734,0,0,0,337,374,284,400,261,416,515,343,364,350,323,372,0,
2,1775670889280,2627,4082,16458,-6940650,1738522,1180191,0,0,0,265,431,243,339,369,381,332,310,270,119,124,191,0,
1,1775670889296,-2043,373,9839,375071,24434,120951,0,0,0,356,388,289,401,267,422,512,328,369,350,304,381,0,
2,1775670889296,3058,3756,19382,-7061602,1944994,1441641,0,0,0,264,432,244,337,368,380,332,309,271,119,124,190,0,
1,1775670889312,-2163,287,9920,433714,-19547,147829,0,0,0,360,396,282,407,289,427,509,301,376,341,294,401,0,
2,1775670889312,3742,3330,23440,-7282735,2009746,1552819,0,0,0,264,433,245,338,368,382,333,305,270,118,123,190,0,
1,1775670889328,-2354,215,9930,499687,-56199,201585,0,0,0,382,392,284,406,279,431,490,279,377,334,270,419,0,
2,1775670889328,5049,2062,28212,-7474547,1947438,1657888,0,0,0,264,432,246,339,367,383,337,304,271,117,120,189,0,
1,1775670889344,-2498,181,9964,566882,-76969,270002,0,0,0,395,404,282,416,325,446,488,264,377,326,253,449,0,
2,1775670889344,6302,-1464,32304,-7547850,2019520,1930334,0,0,0,264,431,243,341,366,383,341,302,274,118,119,188,0,
1,1775670889360,-2584,129,10107,649960,-69638,339641,0,0,0,386,443,272,423,363,455,486,260,398,319,244,466,0,
2,1775670889360,6657,-9705,34687,-7362147,2502104,2383596,0,0,0,265,430,240,346,369,387,342,297,275,121,116,189,0,
1,1775670889376,-2617,0,10337,766025,-37873,410501,0,0,0,401,435,280,438,386,469,448,258,412,309,230,479,0,
2,1775670889376,4369,-22187,35142,-6687752,2957809,2616946,0,0,0,269,431,238,352,372,392,346,297,282,119,112,188,0,
1,1775670889392,-2488,-153,10734,917519,-3665,478918,0,0,0,415,428,277,472,398,494,463,230,409,305,219,507,0,
2,1775670889392,732,-36262,31112,-5419596,2635272,2521651,0,0,0,273,432,238,352,370,392,346,297,283,127,126,195,0,
1,1775670889408,-2254,-205,11500,1119105,15882,509461,0,0,0,428,434,263,490,386,500,448,214,407,295,199,526,0,
2,1775670889408,-3302,-47427,20751,-3103195,1657888,1622458,0,0,0,272,431,236,353,369,392,347,299,283,120,113,194,0,
1,1775670889424,-2053,-181,12289,1390329,19547,514348,0,0,0,440,455,247,500,396,504,424,211,412,291,193,545,0,
2,1775670889424,-6503,-51098,14864,-978606,944397,280998,0,0,0,268,430,236,350,368,391,348,306,283,125,125,193,0,
1,1775670889440,-1789,-220,12802,1766622,-13439,496022,0,0,0,449,462,236,505,422,519,395,204,422,286,188,557,0,
2,1775670889440,-8825,-47331,15553,709825,248011,-956614,0,0,0,257,422,242,339,365,395,368,402,290,198,280,186,0,
1,1775670889456,-1818,-392,13280,2228436,-78190,448375,0,0,0,443,450,226,502,431,529,352,193,429,266,173,563,0,
2,1775670889456,-6590,-22766,21584,2327396,-1137431,-1138652,0,0,0,248,390,205,340,353,370,426,458,264,163,237,170,0,
1,1775670889472,-2656,-440,14046,2731789,-172263,474031,0,0,0,428,443,211,485,424,522,299,190,430,237,163,568,0,
2,1775670889472,2378,13850,18631,3596774,-3123964,-383623,0,0,0,254,369,189,334,335,365,458,472,268,176,265,174,0,
1,1775670889488,-3795,-296,15606,3452610,-271224,685390,0,0,0,427,444,209,449,410,520,239,187,436,212,154,555,0,
2,1775670889488,6508,18434,9437,4521624,-3863111,532674,0,0,0,260,369,183,344,334,372,485,489,271,244,349,168,0,
1,1775670889504,-5163,-33,17607,4280943,-274889,989601,0,0,0,437,432,242,417,371,530,196,166,431,194,125,518,0,
2,1775670889504,-1220,-220,14572,5801998,-1999972,871093,0,0,0,262,375,201,356,339,390,503,504,284,276,386,167,0,
1,1775670889520,-7575,100,20133,5292536,-144164,1447750,0,0,0,451,396,229,394,330,504,183,144,419,186,113,470,0,
2,1775670889520,-6456,-5355,23321,5671272,-237015,278554,0,0,0,270,395,235,368,348,406,491,514,305,245,347,190,0,
1,1775670889536,-9968,-449,23909,6334672,89186,2078163,0,0,0,401,381,224,402,327,479,182,140,402,152,101,391,0,
2,1775670889536,-1210,-272,22206,4117231,136833,-557109,0,0,0,283,426,270,384,366,420,506,525,317,224,313,223,0,
1,1775670889552,-11940,-727,27690,7277848,270002,2712241,0,0,0,344,377,217,340,298,445,166,149,366,142,109,323,0,
2,1775670889552,3584,1282,16544,2441017,-9773,-405614,0,0,0,304,449,296,399,381,433,535,535,320,233,310,253,0,
1,1775670889568,-12419,1210,30040,7979121,282219,3365867,0,0,0,278,339,209,308,247,369,203,181,305,138,129,251,0,
2,1775670889568,3029,-430,11600,995710,-109955,188146,0,0,0,337,461,317,407,384,441,543,548,319,254,319,278,0,
1,1775670889584,-10643,4379,30571,8368853,610865,3863111,0,0,0,245,297,198,264,202,292,280,233,273,149,180,144,0,
2,1775670889584,1086,-435,10327,437379,-70860,227241,0,0,0,370,472,343,409,385,444,552,567,314,277,337,294,0,
1,1775670889600,-11213,7614,25824,8564330,1367116,4091575,0,0,0,257,276,211,261,184,276,289,233,270,156,208,119,0,
2,1775670889600,909,382,10193,267558,-119729,81855,0,0,0,385,477,349,410,385,445,555,570,317,284,342,305,0,
1,1775670889616,-14256,11328,15242,7977900,1365894,4276056,0,0,0,259,272,227,264,179,285,299,245,273,164,217,126,0,
2,1775670889616,1363,961,10323,177150,-226020,-18325,0,0,0,394,480,353,409,382,445,557,569,318,294,355,313,0,
1,1775670889632,-12534,15271,8997,5541769,423940,4061032,0,0,0,255,278,236,261,180,294,306,256,276,165,216,133,0,
2,1775670889632,1292,1052,10289,91629,-218689,-3665,0,0,0,402,482,357,420,390,448,558,565,317,312,362,309,0,
1,1775670889648,-4962,18478,9877,739146,191811,1859473,0,0,0,255,282,234,262,185,294,311,263,274,164,222,132,0,
2,1775670889648,1210,1139,10299,113620,-190589,-1221,0,0,0,410,484,360,421,389,454,556,556,326,409,392,308,0,
1,1775670889664,-2301,15975,9461,-3232698,1296256,-994488,0,0,0,254,285,234,264,189,297,313,269,276,161,231,131,0,
2,1775670889664,1115,1263,10346,219911,-190589,-26878,0,0,0,422,488,356,423,389,451,558,544,322,302,329,338,0,
1,1775670889680,-7331,9518,5675,-4487416,1979203,-2394591,0,0,0,247,288,239,260,193,307,309,272,283,159,235,136,0,
2,1775670889680,976,1340,10313,322536,-158824,-40317,0,0,0,426,492,354,421,394,457,551,529,323,256,272,353,0,
1,1775670889696,-10591,5613,2474,-4207639,392175,-1645670,0,0,0,236,288,242,258,192,315,312,273,289,159,234,141,0,
2,1775670889696,914,1258,10203,404392,-81855,-32986,0,0,0,429,497,354,425,397,458,545,513,323,251,251,366,0,
1,1775670889712,-7695,5307,2914,-4127005,-1125213,-663399,0,0,0,231,288,242,261,190,322,311,265,292,161,224,143,0,
2,1775670889712,985,1062,10054,448375,-2443,-26878,0,0,0,430,495,351,429,399,460,539,498,327,249,237,374,0,
1,1775670889728,-3637,6130,5451,-4583932,-1226617,-370184,0,0,0,224,287,246,257,186,324,311,263,294,161,223,147,0,
2,1775670889728,1076,914,9940,456927,28099,-28099,0,0,0,437,498,350,436,403,470,541,489,333,249,230,380,0,
1,1775670889744,-2479,6235,7729,-5283984,-817337,-583987,0,0,0,226,296,246,258,189,323,312,263,292,161,223,143,0,
2,1775670889744,1162,832,9853,437379,9773,-35430,0,0,0,444,502,350,440,405,475,537,473,333,245,213,387,0,
1,1775670889760,-3431,5417,9121,-5817880,-979827,-902858,0,0,0,227,293,243,260,190,318,313,264,289,167,227,140,0,
2,1775670889760,1210,775,9825,415388,-19547,-41538,0,0,0,450,511,350,439,408,475,531,455,333,243,198,395,0,
1,1775670889776,-3263,4742,10696,-6170960,-1483180,-1164309,0,0,0,227,291,242,264,190,319,313,264,290,168,228,142,0,
2,1775670889776,1234,689,9830,390953,-57421,-51312,0,0,0,454,518,355,440,415,476,527,438,339,245,189,409,0,
1,1775670889792,-2306,4498,12562,-6417750,-1795943,-1469741,0,0,0,226,290,241,265,190,320,315,267,293,170,227,140,0,
2,1775670889792,1220,626,9849,364075,-98960,-67195,0,0,0,457,517,357,448,421,481,520,419,345,248,183,426,0,
1,1775670889808,-2541,4149,14601,-6655987,-1786169,-1806939,0,0,0,226,290,244,261,187,316,312,265,290,167,229,139,0,
2,1775670889808,1177,622,9916,355523,-127059,-83077,0,0,0,464,520,353,451,422,482,511,401,350,249,177,438,0,
1,1775670889824,-3632,3426,16980,-6847799,-1836260,-1963320,0,0,0,226,290,245,263,189,318,313,264,291,166,228,138,0,
2,1775670889824,1158,622,10045,384845,-127059,-96516,0,0,0,477,527,359,451,429,484,510,381,357,252,172,450,0,
1,1775670889840,-4608,2546,19736,-6982189,-2012190,-1819156,0,0,0,225,288,245,266,189,319,317,265,291,169,229,137,0,
2,1775670889840,1172,564,10126,421497,-109955,-113620,0,0,0,482,528,355,458,442,488,508,361,353,252,172,470,0,
1,1775670889856,-5340,1373,23603,-7177666,-2147802,-1584584,0,0,0,227,288,247,264,186,317,320,265,291,169,227,134,0,
2,1775670889856,1196,473,10150,454483,-74525,-140499,0,0,0,498,539,367,458,458,489,505,338,358,257,173,489,0,
1,1775670889872,-6278,-148,27532,-7321830,-2136806,-1643227,0,0,0,228,289,249,264,185,317,319,263,291,167,223,134,0,
2,1775670889872,1210,440,10203,493579,-54977,-167377,0,0,0,498,537,382,469,459,489,491,311,360,257,164,507,0,
1,1775670889888,-7887,-3034,30911,-7194770,-2178345,-2288301,0,0,0,228,290,245,267,187,310,320,263,286,170,222,130,0,
2,1775670889888,1234,387,10265,554665,-52534,-193033,0,0,0,497,544,372,461,453,501,483,289,358,252,163,531,0,
1,1775670889904,-9514,-8944,34252,-6813590,-2712241,-3260798,0,0,0,231,290,237,271,188,298,328,264,279,177,221,122,0,
2,1775670889904,1277,263,10409,647517,-34208,-226020,0,0,0,504,551,361,467,457,514,463,247,363,331,223,551,0,
1,1775670889920,-8667,-19995,35118,-6333450,-3430619,-3723834,0,0,0,230,293,230,276,189,300,333,261,283,184,221,121,0,
2,1775670889920,1387,186,10772,778242,-7330,-263893,0,0,0,507,555,346,474,472,522,449,233,370,332,225,560,0,
1,1775670889936,-4934,-34601,30710,-5674938,-3428175,-3307224,0,0,0,227,296,233,277,193,308,336,262,291,184,222,124,0,
2,1775670889936,1521,210,11586,1011592,-1221,-310319,0,0,0,511,562,346,477,487,523,435,228,376,327,220,576,0,
1,1775670889952,3163,-49169,21406,-4206418,-2704911,-1753183,0,0,0,227,294,238,278,192,318,336,259,297,183,222,127,0,
2,1775670889952,1397,287,12663,1362229,-18325,-350636,0,0,0,516,567,325,475,489,527,387,239,371,298,202,579,0,
1,1775670889968,12888,-54094,15740,-1846034,-1381777,271224,0,0,0,232,296,235,279,188,309,340,257,288,198,238,124,0,
2,1775670889968,1296,248,13457,1898569,-17104,-371406,0,0,0,523,570,303,482,499,531,360,232,376,286,196,591,0,
1,1775670889984,16300,-50236,15759,401949,452040,1681101,0,0,0,228,276,214,279,186,276,388,344,276,244,322,101,0,
2,1775670889984,1550,143,14300,2506990,-18325,-399505,0,0,0,531,575,279,485,513,535,330,217,379,277,193,597,0,
1,1775670890000,6278,-24398,19650,2232101,2432465,1499063,0,0,0,237,259,166,261,187,235,441,408,246,277,378,83,0,
2,1775670890000,2440,234,15917,3255911,-89186,-497244,0,0,0,528,570,262,479,521,538,290,207,381,266,186,596,0,
1,1775670890016,-5862,7284,16003,3761708,4001167,767246,0,0,0,242,252,151,264,164,232,460,453,247,311,409,78,0,
2,1775670890016,3541,521,17956,4162435,-249233,-693942,0,0,0,522,553,257,477,515,534,266,187,384,262,178,589,0,
1,1775670890032,-7805,14831,11423,5126381,4031710,12217,0,0,0,236,245,137,277,160,250,475,475,269,372,425,78,0,
2,1775670890032,4867,856,20540,5240002,-448375,-1020144,0,0,0,523,537,260,476,496,528,255,161,380,252,166,552,0,
1,1775670890048,880,1407,18449,6213721,1909564,-112399,0,0,0,245,251,175,293,166,275,494,494,278,415,445,100,0,
2,1775670890048,6202,942,23943,6433632,-613308,-1422094,0,0,0,506,523,261,463,484,520,252,157,380,231,153,484,0,
1,1775670890064,3694,-4828,25661,5711589,160046,401949,0,0,0,251,268,235,304,182,322,505,504,303,425,452,121,0,
2,1775670890064,7642,569,28566,7562511,-543670,-1804495,0,0,0,445,502,233,438,463,497,254,159,360,204,135,400,0,
1,1775670890080,-2431,-2852,22220,3407406,-191811,560774,0,0,0,265,287,267,323,198,356,519,511,333,429,464,168,0,
2,1775670890080,8791,2215,32720,8605869,127059,-2257757,0,0,0,355,473,214,409,437,462,270,177,323,180,126,338,0,
1,1775670890096,-5264,-631,14300,1472185,-8552,67195,0,0,0,292,310,279,343,206,370,535,513,344,437,477,225,0,
2,1775670890096,8145,5532,34371,9327912,692721,-2764776,0,0,0,296,445,214,358,405,414,288,240,281,135,112,268,0,
1,1775670890112,-2569,134,8442,540004,107512,-381179,0,0,0,313,325,288,357,215,379,543,506,348,442,480,267,0,
2,1775670890112,7901,8073,31342,9705426,856433,-3277902,0,0,0,259,419,229,327,361,373,304,267,264,110,106,194,0,
1,1775670890128,-1914,167,7561,450818,100181,-161268,0,0,0,318,326,290,368,228,394,543,496,355,437,479,291,0,
2,1775670890128,10380,10600,19966,9443976,664621,-3864333,0,0,0,261,427,235,330,368,382,311,286,273,112,116,197,0,
1,1775670890144,-2680,301,7733,372627,204028,29321,0,0,0,320,335,280,371,237,408,549,487,355,426,471,303,0,
2,1775670890144,9073,13620,13481,8268671,146607,-4320038,0,0,0,263,429,233,331,371,380,302,291,270,110,117,195,0,
1,1775670890160,-2622,559,9557,335975,233350,41538,0,0,0,325,353,300,380,257,402,562,449,356,443,460,327,0,
2,1775670890160,3345,20885,10471,3973067,-1049466,-3031113,0,0,0,262,431,231,333,369,379,308,291,260,113,114,194,0,
1,1775670890176,-2225,760,10557,349414,152716,25656,0,0,0,320,355,300,372,274,419,552,447,368,434,428,344,0,
2,1775670890176,2220,22833,8815,-1602910,-2057394,-509461,0,0,0,267,434,233,334,367,377,313,291,257,114,114,192,0,
1,1775670890192,-2144,808,10361,399505,45204,35430,0,0,0,347,364,309,380,289,419,550,426,380,427,407,354,0,
2,1775670890192,6657,14319,7858,-6017022,-2243097,1753183,0,0,0,269,436,235,336,369,378,315,292,257,114,113,192,0,
1,1775670890208,-2273,737,10045,445931,-1221,65973,0,0,0,344,368,308,385,301,421,542,416,373,412,384,365,0,
2,1775670890208,9155,6101,5752,-6172182,-1406211,1440420,0,0,0,266,435,234,339,371,379,318,295,259,141,127,191,0,
1,1775670890224,-2225,655,10031,469144,-52534,75747,0,0,0,339,369,305,383,304,421,537,397,365,386,363,374,0,
2,1775670890224,8695,3364,4020,-5550321,-498466,475253,0,0,0,264,435,233,337,371,378,320,298,261,149,134,191,0,
1,1775670890240,-2244,507,9892,470366,-119729,74525,0,0,0,349,368,292,386,299,413,536,373,370,376,334,381,0,
2,1775670890240,6953,3819,4134,-5233893,230907,-367740,0,0,0,264,437,234,337,370,377,320,298,261,117,120,193,0,
1,1775670890256,-2364,358,9681,461814,-149051,83077,0,0,0,349,369,286,391,303,418,531,352,370,369,316,383,0,
2,1775670890256,5628,4465,6312,-5624847,641408,-601091,0,0,0,261,435,233,340,373,379,323,299,261,120,122,195,0,
1,1775670890272,-2493,272,9552,456927,-128281,111177,0,0,0,346,371,277,392,300,421,526,333,377,362,307,386,0,
2,1775670890272,4895,4742,8475,-6118426,949284,-493579,0,0,0,260,436,236,337,373,379,323,302,263,120,125,194,0,
1,1775670890288,-2469,244,9552,454483,-97738,139277,0,0,0,348,373,270,393,298,422,522,323,379,352,298,389,0,
2,1775670890288,5063,4551,9729,-6407976,1363451,-124616,0,0,0,257,435,232,339,375,380,321,303,262,118,126,192,0,
1,1775670890304,-2435,201,9533,438601,-80634,164933,0,0,0,341,373,265,394,300,424,523,312,378,347,289,394,0,
2,1775670890304,5135,4139,11093,-6549697,1957212,334754,0,0,0,263,439,237,335,375,376,320,302,261,120,126,194,0,
1,1775670890320,-2431,148,9499,401949,-58643,188146,0,0,0,335,375,265,397,309,429,524,298,384,343,281,403,0,
2,1775670890320,4379,3747,13271,-6565579,2519208,850324,0,0,0,259,436,234,336,375,379,322,303,263,118,123,192,0,
1,1775670890336,-2373,90,9514,359188,-28099,208915,0,0,0,346,381,270,398,320,435,518,291,393,334,272,410,0,
2,1775670890336,3785,3776,16080,-6652322,2687807,1325577,0,0,0,259,437,235,337,373,379,323,304,263,117,122,192,0,
1,1775670890352,-2225,43,9614,337197,-14660,217468,0,0,0,351,379,264,397,310,432,514,283,397,328,263,417,0,
2,1775670890352,4039,3838,19028,-6858794,2775771,1634675,0,0,0,260,437,235,340,375,382,323,302,263,117,121,192,0,
1,1775670890368,-2129,4,9786,348193,-25656,212581,0,0,0,362,361,265,412,283,436,508,259,406,322,246,424,0,
2,1775670890368,4398,3493,23220,-7149566,2937040,1736079,0,0,0,258,435,236,339,374,380,325,301,264,116,119,191,0,
1,1775670890384,-2278,-14,9892,382401,-36651,216246,0,0,0,360,376,265,415,281,439,498,247,405,318,239,439,0,
2,1775670890384,4532,2881,28193,-7378030,3014009,1810604,0,0,0,254,435,235,338,372,380,327,299,267,115,116,189,0,
1,1775670890400,-2507,-33,9882,452040,-45204,260228,0,0,0,358,387,268,421,315,456,490,255,405,310,236,455,0,
2,1775670890400,4489,1019,33735,-7578394,3025004,2090380,0,0,0,254,436,235,338,371,379,331,297,271,116,117,190,0,
1,1775670890416,-2598,-86,9916,536339,-57421,323758,0,0,0,366,389,261,431,320,464,498,233,410,314,223,474,0,
2,1775670890416,3278,-5537,37257,-7646811,3353650,2687807,0,0,0,261,437,235,343,371,382,334,294,274,118,117,191,0,
1,1775670890432,-2613,-167,10117,637743,-63529,390953,0,0,0,393,412,263,448,336,496,496,254,427,304,221,505,0,
2,1775670890432,995,-17161,39583,-7327939,3507588,3281568,0,0,0,266,436,235,349,371,388,337,292,279,121,116,191,0,
1,1775670890448,-2646,-258,10538,773355,-56199,452040,0,0,0,404,434,282,452,343,500,474,258,425,286,216,535,0,
2,1775670890448,1344,-34577,34347,-6107430,2284635,3204599,0,0,0,268,435,235,352,373,392,341,295,282,122,118,193,0,
1,1775670890464,-2574,-349,11198,966388,-45204,505796,0,0,0,408,434,253,457,357,494,451,224,419,283,197,550,0,
2,1775670890464,2924,-51112,21990,-4064697,1226617,1973094,0,0,0,267,434,235,353,375,395,345,308,283,126,125,196,0,
1,1775670890480,-2321,-416,11907,1226617,-32986,525344,0,0,0,416,436,229,468,381,501,442,210,419,284,189,558,0,
2,1775670890480,-3900,-57937,13409,-1528384,1776396,-244346,0,0,0,253,423,224,347,373,387,359,359,278,143,166,193,0,
1,1775670890496,-1794,-488,12352,1584584,-67195,483805,0,0,0,421,435,224,482,399,512,421,201,419,281,181,564,0,
2,1775670890496,-16367,-48738,21196,739146,1056796,-1137431,0,0,0,245,408,220,337,359,378,392,434,267,226,317,177,0,
1,1775670890512,-1392,-607,12691,1966986,-188146,393397,0,0,0,423,437,223,491,422,518,383,194,424,282,184,570,0,
2,1775670890512,-13290,-22660,25891,2933374,-2152689,-603534,0,0,0,249,366,179,338,340,364,449,465,265,167,241,175,0,
1,1775670890528,-2345,-603,13783,2471560,-390953,337197,0,0,0,422,437,212,493,427,524,334,188,444,272,181,576,0,
2,1775670890528,402,5948,17860,4207639,-4834387,335975,0,0,0,257,362,180,337,330,366,476,477,267,185,278,172,0,
1,1775670890544,-4072,-454,15376,3106860,-511905,463035,0,0,0,420,431,198,478,412,533,282,171,457,232,156,573,0,
2,1775670890544,4211,10232,11768,4989547,-4598593,889419,0,0,0,264,368,189,348,330,380,493,493,283,238,336,176,0,
1,1775670890560,-5790,-177,17147,3952298,-509461,812450,0,0,0,421,424,204,451,403,530,238,155,441,197,144,549,0,
2,1775670890560,-3445,-1072,18099,5335296,-2096489,800233,0,0,0,263,377,213,361,339,397,507,506,303,219,320,184,0,
1,1775670890576,-7351,157,20172,5153259,-449596,1411098,0,0,0,408,379,217,439,347,520,210,141,428,181,111,499,0,
2,1775670890576,-4958,-2139,23847,4492302,-728151,56199,0,0,0,279,397,259,370,347,408,520,521,302,216,306,200,0,
1,1775670890592,-9203,100,23938,6200282,-392175,1932777,0,0,0,386,371,221,420,338,489,224,132,415,174,97,420,0,
2,1775670890592,-497,354,21091,2990796,-353080,-339641,0,0,0,289,430,290,379,364,417,538,543,299,315,399,212,0,
1,1775670890608,-11112,124,27839,7193549,-277332,2497217,0,0,0,335,352,184,391,299,422,216,131,357,156,98,317,0,
2,1775670890608,2794,1555,13668,1502728,-261450,-76969,0,0,0,308,451,303,397,379,426,539,542,312,306,363,239,0,
1,1775670890624,-11720,717,30461,7918035,-133168,3040887,0,0,0,324,326,196,332,251,364,249,161,319,163,120,240,0,
2,1775670890624,1651,636,9892,669508,-129503,191811,0,0,0,328,456,310,407,385,434,542,542,319,254,310,265,0,
1,1775670890640,-11194,3551,30466,8284554,149051,3495370,0,0,0,282,290,184,300,223,302,290,221,279,162,184,144,0,
2,1775670890640,622,344,9863,320093,-119729,168598,0,0,0,342,458,316,408,386,437,550,550,320,243,307,277,0,
1,1775670890656,-12218,7226,24579,8517904,893084,3831346,0,0,0,269,273,195,284,186,274,310,233,267,168,208,123,0,
2,1775670890656,861,1038,10524,167377,-218689,40317,0,0,0,352,463,322,410,386,437,556,556,321,245,304,281,0,
1,1775670890672,-14773,11170,14802,8294328,1373225,4159992,0,0,0,244,282,210,263,184,278,308,245,273,161,223,124,0,
2,1775670890672,1009,1574,10375,67195,-245567,1221,0,0,0,360,468,328,414,391,442,558,557,321,244,302,284,0,
1,1775670890688,-12648,14256,10815,6564357,649960,4161214,0,0,0,232,291,215,256,190,283,302,250,272,162,230,129,0,
2,1775670890688,923,1737,10193,68416,-156381,7330,0,0,0,365,470,332,417,394,445,556,555,321,243,297,290,0,
1,1775670890704,-5632,19014,9877,2350609,87964,2621833,0,0,0,234,293,213,258,193,281,304,249,269,166,229,127,0,
2,1775670890704,914,1761,10241,184481,-98960,-4886,0,0,0,368,468,335,418,395,449,559,556,324,257,304,298,0,
1,1775670890720,-2368,17697,9825,-2361605,1148426,-345749,0,0,0,239,291,212,262,192,281,309,250,268,167,226,125,0,
2,1775670890720,871,1756,10275,298102,-72082,-21991,0,0,0,374,473,331,421,398,457,559,549,325,316,345,308,0,
1,1775670890736,-5273,11270,7657,-5017647,2282192,-2377487,0,0,0,241,291,211,266,192,282,312,252,269,169,228,126,0,
2,1775670890736,823,1756,10217,382401,-20769,-29321,0,0,0,384,477,339,422,397,457,551,545,333,241,264,316,0,
1,1775670890752,-8858,6422,5029,-5057964,1610240,-2084272,0,0,0,237,295,211,267,193,281,314,254,269,171,230,127,0,
2,1775670890752,866,1646,10074,441044,47647,-28099,0,0,0,390,485,339,425,396,457,550,533,335,242,253,330,0,
1,1775670890768,-8657,4718,4187,-4927239,386066,-1299921,0,0,0,235,297,215,267,194,282,318,255,269,171,231,126,0,
2,1775670890768,942,1469,9925,467922,79412,-31764,0,0,0,390,481,341,427,396,461,551,513,333,243,252,332,0,
1,1775670890784,-5977,4651,5264,-5079955,-356745,-674395,0,0,0,235,298,218,266,193,282,319,259,271,181,233,129,0,
2,1775670890784,1005,1325,9825,455705,75747,-43982,0,0,0,390,480,341,428,396,465,550,503,339,240,236,339,0,
1,1775670890800,-4934,4340,7044,-5514891,-191811,-541226,0,0,0,234,296,218,266,194,283,322,259,273,197,229,135,0,
2,1775670890800,1076,1263,9806,427605,50090,-52534,0,0,0,396,483,337,434,401,475,547,487,343,239,226,348,0,
1,1775670890816,-5269,3847,8561,-5933944,-151494,-585208,0,0,0,236,297,220,267,194,283,323,260,272,170,227,125,0,
2,1775670890816,1148,1220,9830,403171,-1221,-58643,0,0,0,407,485,341,437,405,480,550,470,349,273,251,354,0,
1,1775670890832,-5628,3350,10093,-6322455,-493579,-751364,0,0,0,236,297,221,268,193,285,322,259,272,173,234,127,0,
2,1775670890832,1139,1158,9868,388510,-56199,-65973,0,0,0,416,488,342,434,403,478,552,458,354,268,234,371,0,
1,1775670890848,-5561,2818,11605,-6596122,-940732,-1043357,0,0,0,236,297,221,269,193,285,322,259,272,171,233,121,0,
2,1775670890848,1052,1105,9892,382401,-87964,-73303,0,0,0,424,493,339,434,407,478,551,450,356,245,203,387,0,
1,1775670890864,-5800,2038,13266,-6746395,-1341460,-1348790,0,0,0,233,296,219,265,195,286,322,259,273,168,233,120,0,
2,1775670890864,1024,1105,9916,387288,-98960,-75747,0,0,0,434,499,339,442,417,485,549,437,356,238,190,397,0,
1,1775670890880,-6235,1158,15501,-6740287,-1761735,-1525941,0,0,0,231,294,220,265,196,287,323,259,273,169,233,120,0,
2,1775670890880,1033,1067,9959,411723,-103847,-76969,0,0,0,439,506,339,450,422,492,543,416,357,288,199,407,0,
1,1775670890896,-6412,502,18133,-6707300,-2098932,-1572367,0,0,0,233,294,223,265,194,288,324,261,273,169,232,118,0,
2,1775670890896,1028,990,10035,447153,-96516,-89186,0,0,0,440,508,336,453,429,499,534,389,357,374,230,419,0,
1,1775670890912,-6508,-177,21430,-6695083,-2290744,-1587027,0,0,0,233,294,227,267,194,290,320,258,275,169,230,121,0,
2,1775670890912,1115,899,10107,491135,-59864,-114842,0,0,0,455,518,344,457,439,500,533,364,363,242,170,456,0,
1,1775670890928,-6977,-1158,24991,-6640105,-2287079,-1775174,0,0,0,232,295,227,267,193,291,324,257,277,169,227,121,0,
2,1775670890928,1316,808,10117,532674,-10995,-160046,0,0,0,466,524,355,464,447,506,525,332,364,253,169,476,0,
1,1775670890944,-7561,-3144,28748,-6471506,-2291966,-2223549,0,0,0,233,296,227,268,194,291,326,257,277,170,225,119,0,
2,1775670890944,1445,737,10232,583987,36651,-237015,0,0,0,473,528,371,465,444,508,512,299,364,285,189,496,0,
1,1775670890960,-7322,-7920,31706,-6265033,-2669481,-2817310,0,0,0,233,299,228,267,195,291,324,258,280,203,221,133,0,
2,1775670890960,1363,741,10581,679282,32986,-295658,0,0,0,476,529,360,472,460,520,503,275,373,303,204,519,0,
1,1775670890976,-6159,-15630,33194,-6153856,-3042108,-3159395,0,0,0,234,302,227,266,193,290,327,258,283,218,219,139,0,
2,1775670890976,1325,727,11117,885754,-34208,-322536,0,0,0,489,534,348,475,460,524,483,246,378,328,216,536,0,
1,1775670890992,-4297,-28164,29150,-5903401,-2783102,-2814867,0,0,0,239,302,224,272,192,291,329,252,283,179,225,120,0,
2,1775670890992,1306,670,11753,1167974,-46425,-348193,0,0,0,505,542,342,480,472,532,462,226,383,321,211,549,0,
1,1775670891008,-1119,-40885,21737,-5020090,-2432465,-1727526,0,0,0,237,304,222,278,197,295,326,255,283,180,228,120,0,
2,1775670891008,1182,598,12409,1499063,-9773,-370184,0,0,0,505,547,321,489,476,526,433,217,395,298,196,568,0,
1,1775670891024,7891,-50217,15324,-3089756,-2083050,76969,0,0,0,231,302,222,273,196,298,323,255,282,183,237,121,0,
2,1775670891024,971,512,12983,1897347,61086,-372627,0,0,0,507,554,306,492,489,531,398,210,391,298,204,582,0,
1,1775670891040,17252,-49810,15032,-610865,-486248,1293812,0,0,0,223,288,208,275,196,286,341,269,272,203,264,114,0,
2,1775670891040,1048,411,13716,2458121,117286,-354301,0,0,0,515,554,278,500,505,543,367,215,395,284,190,590,0,
1,1775670891056,13988,-39363,18066,1320690,1594358,1409876,0,0,0,234,275,187,281,185,265,399,359,262,254,343,99,0,
2,1775670891056,1809,416,14850,3040887,127059,-386066,0,0,0,519,551,254,492,513,553,327,209,393,264,175,598,0,
1,1775670891072,-995,-5943,18822,2897944,3456275,753807,0,0,0,238,240,161,265,155,235,448,423,251,287,391,84,0,
2,1775670891072,2881,574,16544,3802025,42760,-553443,0,0,0,513,546,242,478,508,552,286,189,387,256,175,598,0,
1,1775670891088,-9236,16788,13304,4031710,4178318,-62308,0,0,0,235,239,156,264,152,238,469,449,263,328,416,88,0,
2,1775670891088,3742,894,18530,4725653,-89186,-808785,0,0,0,512,535,243,476,497,544,264,168,386,254,170,576,0,
1,1775670891104,-3627,8901,11758,5329188,3071430,-635299,0,0,0,231,261,146,273,168,249,482,477,264,370,437,91,0,
2,1775670891104,4766,1258,21095,5764124,-218689,-1117883,0,0,0,510,517,247,473,487,536,259,156,386,241,151,523,0,
1,1775670891120,4307,-2469,19995,5838649,998153,-285884,0,0,0,239,253,207,288,167,271,500,499,277,404,450,89,0,
2,1775670891120,6255,1167,25316,7016398,-249233,-1501506,0,0,0,462,499,233,459,477,516,258,158,379,217,139,445,0,
1,1775670891136,2311,-3488,24474,4681671,-89186,706160,0,0,0,247,268,232,302,180,313,512,512,313,415,457,105,0,
2,1775670891136,7958,856,29853,8100073,112399,-1863138,0,0,0,394,479,220,436,452,486,267,166,355,193,132,376,0,
1,1775670891152,-4599,-1062,18669,2640159,64751,552222,0,0,0,259,290,243,318,198,335,531,518,331,427,474,148,0,
2,1775670891152,9155,2579,32912,9051801,1040914,-2338392,0,0,0,339,451,213,391,417,439,283,189,315,163,118,315,0,
