sole_id,timestamp,accel_x,accel_y,accel_z,gyro_x,gyro_y,gyro_z,magn_x,magn_y,magn_z,pressure_01,pressure_02,pressure_03,pressure_04,pressure_05,pressure_06,pressure_07,pressure_08,pressure_09,pressure_10,pressure_11,pressure_12,corrupt,dirt
2,1773253927424,1789,1373,9710,161268,-48869,-73303,0,0,0,439,530,364,465,429,508,598,573,347,283,303,376,0,
1,1773253927440,-4843,2282,12270,-4566828,-1683544,-1506393,0,0,0,269,334,258,272,198,297,355,278,288,211,253,141,0,
2,1773253927440,1794,1359,9633,147829,-7330,-86742,0,0,0,445,531,361,470,428,511,602,567,352,305,313,380,0,
1,1773253927456,-4326,1507,13701,-4767192,-1776396,-1208291,0,0,0,273,335,263,273,197,297,355,277,286,208,250,141,0,
2,1773253927456,1742,1282,9691,152716,-34208,-80634,0,0,0,454,530,359,477,429,514,604,562,355,327,324,386,0,
1,1773253927472,-3555,918,15319,-4853935,-1808161,-761138,0,0,0,274,336,265,279,201,305,353,275,276,208,247,142,0,
2,1773253927472,1770,1268,9729,172263,-73303,-72082,0,0,0,459,531,361,484,434,518,601,557,353,324,316,396,0,
1,1773253927488,-2900,459,16826,-4868595,-1783726,-430049,0,0,0,274,337,263,284,209,309,356,275,274,211,249,148,0,
2,1773253927488,1780,1249,9748,190589,-98960,-69638,0,0,0,458,534,369,486,438,518,600,554,354,292,283,407,0,
1,1773253927504,-2589,62,17927,-4790405,-1751961,-432492,0,0,0,271,337,257,286,212,309,360,280,278,219,247,151,0,
2,1773253927504,1737,1220,9777,207694,-113620,-69638,0,0,0,461,538,378,486,440,519,601,551,360,262,254,419,0,
1,1773253927520,-2172,-320,18731,-4648684,-1809382,-725707,0,0,0,269,340,251,284,208,309,362,285,281,224,250,150,0,
2,1773253927520,1713,1220,9830,240680,-113620,-73303,0,0,0,467,547,376,466,442,517,597,546,369,269,255,432,0,
1,1773253927536,-1325,-976,19545,-4426329,-1880243,-1297477,0,0,0,270,341,251,281,205,308,361,286,282,222,262,152,0,
2,1773253927536,1732,1186,9853,287106,-109955,-78190,0,0,0,471,544,375,395,426,515,585,545,385,278,262,447,0,
1,1773253927552,-880,-2388,20368,-4131892,-1769065,-2029294,0,0,0,266,341,256,280,205,313,357,286,286,221,263,155,0,
2,1773253927552,1761,1124,9882,335975,-109955,-87964,0,0,0,476,544,377,492,456,534,601,512,376,259,231,452,0,
1,1773253927568,-1095,-4536,20971,-3909537,-1582140,-2454456,0,0,0,257,343,263,281,206,328,354,281,302,219,259,158,0,
2,1773253927568,1780,1062,9892,373849,-117286,-103847,0,0,0,483,546,369,496,464,541,600,499,375,260,212,468,0,
1,1773253927584,-1311,-8370,20990,-3863111,-1306029,-2225992,0,0,0,257,346,263,278,208,324,352,282,305,210,253,158,0,
2,1773253927584,1828,1019,9882,419053,-144164,-120951,0,0,0,494,549,368,506,474,547,601,483,388,260,206,490,0,
1,1773253927600,-2187,-13634,19784,-3887546,-923628,-1551597,0,0,0,260,348,261,282,210,318,356,286,294,214,254,153,0,
2,1773253927600,1880,995,9925,480140,-182037,-131946,0,0,0,520,568,386,500,470,544,595,455,400,255,203,503,0,
1,1773253927616,-2483,-18525,17319,-3739716,-796568,-619417,0,0,0,260,349,257,285,212,318,352,283,286,230,248,153,0,
2,1773253927616,1880,947,10107,564439,-207694,-144164,0,0,0,525,568,378,506,473,540,587,417,414,267,199,531,0,
1,1773253927632,1301,-20689,14711,-2983465,-974940,43982,0,0,0,257,349,257,284,211,323,352,282,298,220,255,151,0,
2,1773253927632,1837,875,10279,654847,-193033,-160046,0,0,0,523,569,383,514,486,552,578,390,416,267,188,542,0,
1,1773253927648,5891,-21000,12385,-1654223,-799011,144164,0,0,0,255,350,259,283,213,326,353,285,300,218,258,150,0,
2,1773253927648,1799,760,10447,770911,-127059,-185703,0,0,0,532,578,370,517,506,557,565,358,419,262,174,563,0,
1,1773253927664,5216,-20483,11184,-491135,-256563,-162490,0,0,0,257,353,262,283,219,327,355,285,300,215,256,149,0,
2,1773253927664,1919,598,10667,888198,-43982,-222354,0,0,0,547,582,378,529,511,570,539,322,421,260,169,578,0,
1,1773253927680,3292,-19387,10610,403171,163711,-238237,0,0,0,258,352,263,283,215,329,354,283,297,216,260,151,0,
2,1773253927680,2187,402,11031,1034805,-14660,-282219,0,0,0,554,588,386,538,516,582,513,293,431,272,174,582,0,
1,1773253927696,1986,-17157,10662,1040914,436157,-86742,0,0,0,257,347,262,285,212,327,358,285,301,229,272,150,0,
2,1773253927696,2512,268,11672,1280373,-109955,-376292,0,0,0,554,591,374,532,521,579,494,277,436,276,175,587,0,
1,1773253927712,842,-13735,11251,1633453,625526,12217,0,0,0,252,341,251,289,215,316,374,319,290,248,309,137,0,
2,1773253927712,2483,272,12337,1657888,-316428,-469144,0,0,0,554,589,354,529,523,571,467,265,435,281,180,594,0,
1,1773253927728,-1899,-4900,12888,2244318,963945,2443,0,0,0,252,329,231,291,204,297,416,373,276,296,343,130,0,
2,1773253927728,2196,248,12653,2058615,-449596,-540004,0,0,0,556,589,332,541,532,575,433,261,439,288,186,597,0,
1,1773253927744,-5044,10351,12084,2538755,1813048,-4886,0,0,0,257,317,219,293,182,281,464,416,270,335,382,128,0,
2,1773253927744,1727,157,12797,2401922,-444709,-577878,0,0,0,557,588,304,543,542,578,404,268,443,265,170,596,0,
1,1773253927760,-4369,14807,10562,2792875,2853962,125838,0,0,0,260,316,224,295,174,278,489,449,265,351,432,118,0,
2,1773253927760,1526,14,13151,2773328,-439822,-554665,0,0,0,560,587,277,532,548,578,364,262,454,263,176,593,0,
1,1773253927776,-14,3560,13720,3270572,2621833,315206,0,0,0,267,318,233,303,179,290,502,480,269,391,443,113,0,
2,1773253927776,1943,-143,13677,3169168,-500909,-543670,0,0,0,566,582,259,533,551,577,327,251,424,270,181,592,0,
1,1773253927792,1311,-2474,19167,2993239,1139874,372627,0,0,0,271,325,249,312,181,302,507,489,269,388,442,110,0,
2,1773253927792,2512,-291,14673,3632204,-555887,-592539,0,0,0,566,584,265,527,554,571,308,227,428,259,168,580,0,
1,1773253927808,-550,-1057,17946,1937664,295658,417831,0,0,0,273,330,264,313,192,329,503,501,284,398,437,125,0,
2,1773253927808,3192,-536,16429,4230852,-569326,-728151,0,0,0,559,575,265,519,545,564,296,197,416,235,155,544,0,
1,1773253927824,-2321,2163,11643,1194852,120951,276111,0,0,0,266,341,269,326,212,339,516,515,286,402,447,121,0,
2,1773253927824,4144,-1148,18674,4941899,-580321,-929736,0,0,0,553,567,266,511,537,558,284,168,405,212,142,508,0,
1,1773253927840,-2335,2967,7705,1154535,101403,43982,0,0,0,287,341,290,330,214,361,520,515,308,422,450,143,0,
2,1773253927840,5522,-1914,21071,5709146,-531452,-1213178,0,0,0,505,559,252,493,528,540,289,164,395,203,130,453,0,
1,1773253927856,-1751,899,8877,1077566,67195,-89186,0,0,0,309,344,300,344,219,367,528,526,313,443,460,164,0,
2,1773253927856,6389,-2378,22818,6342002,-249233,-1552819,0,0,0,436,538,219,475,507,507,304,178,368,198,129,404,0,
1,1773253927872,-1584,-904,10878,546113,18325,-129503,0,0,0,322,346,306,358,224,368,546,531,311,470,486,185,0,
2,1773253927872,5618,-1923,23905,6780604,135612,-1868025,0,0,0,384,505,198,434,472,463,326,214,331,186,127,364,0,
1,1773253927888,-1866,-201,11107,-118507,-15882,-135612,0,0,0,331,349,308,362,223,363,560,542,304,493,492,190,0,
2,1773253927888,3938,-33,24393,7054271,378736,-2078163,0,0,0,326,466,208,395,431,427,342,266,298,143,114,276,0,
1,1773253927904,-1799,1143,10399,-162490,-42760,-119729,0,0,0,337,352,314,369,222,363,567,556,310,505,500,201,0,
2,1773253927904,4359,2297,22311,7023728,403171,-2197893,0,0,0,289,450,225,369,403,404,355,307,287,118,110,217,0,
1,1773253927920,-1823,1464,10256,-53756,-102625,-85521,0,0,0,337,352,322,372,223,368,571,563,319,505,507,209,0,
2,1773253927920,5135,4991,15305,6421415,-114842,-2354274,0,0,0,275,451,232,361,394,398,364,324,289,113,111,203,0,
1,1773253927936,-1995,1220,10433,4886,-131946,-47647,0,0,0,334,351,325,367,223,371,575,561,319,498,509,212,0,
2,1773253927936,5451,8657,8944,5032307,-1208291,-2471560,0,0,0,272,453,230,365,398,401,365,323,287,112,110,202,0,
1,1773253927952,-1986,1273,10270,14660,-124616,-9773,0,0,0,332,356,322,365,222,375,577,560,314,493,507,216,0,
2,1773253927952,6006,13634,9002,2061059,-1398881,-2087937,0,0,0,273,454,228,366,400,401,364,320,280,112,110,201,0,
1,1773253927968,-1895,1416,9940,64751,-134390,17104,0,0,0,335,365,318,365,228,381,579,560,319,493,494,213,0,
2,1773253927968,5168,14840,9753,-1990198,-1021366,-1319468,0,0,0,274,455,232,367,401,401,367,321,277,114,110,198,0,
1,1773253927984,-1880,1426,9806,157603,-164933,42760,0,0,0,332,368,316,363,235,383,580,558,326,493,498,223,0,
2,1773253927984,3972,9538,8059,-3931528,-879645,-653625,0,0,0,277,457,235,368,402,404,371,324,277,115,111,195,0,
1,1773253928000,-1919,1287,9786,217468,-186924,63529,0,0,0,331,367,316,363,231,390,577,548,333,487,496,244,0,
2,1773253928000,4848,5340,4915,-3861890,-866206,-334754,0,0,0,278,457,233,368,401,403,370,326,277,112,110,195,0,
1,1773253928016,-1966,1158,9724,221133,-184481,74525,0,0,0,331,367,319,362,235,390,576,538,338,471,487,238,0,
2,1773253928016,5484,4637,3742,-3716504,-361632,-156381,0,0,0,278,457,233,370,402,404,369,327,274,114,110,195,0,
1,1773253928032,-1976,1129,9619,193033,-162490,78190,0,0,0,327,362,329,363,232,383,573,527,339,462,475,235,0,
2,1773253928032,4364,5747,4972,-4004832,307876,89186,0,0,0,282,462,239,371,402,404,369,327,273,114,111,194,0,
1,1773253928048,-1966,1148,9590,171042,-145385,81855,0,0,0,330,365,313,354,228,370,567,519,330,462,459,245,0,
2,1773253928048,2986,5872,6503,-4493524,548556,561996,0,0,0,278,458,235,371,403,403,369,328,270,112,110,191,0,
1,1773253928064,-1971,1153,9614,155159,-136833,84299,0,0,0,334,374,302,363,232,371,553,523,337,468,456,248,0,
2,1773253928064,2876,5154,7303,-4822170,663399,1028697,0,0,0,277,458,234,369,400,399,373,331,274,114,110,192,0,
1,1773253928080,-1990,1158,9619,146607,-125838,86742,0,0,0,333,372,301,361,246,370,559,505,338,454,446,237,0,
2,1773253928080,3211,4302,7997,-4929682,992045,1315803,0,0,0,276,458,232,373,403,404,375,333,276,115,111,194,0,
1,1773253928096,-2000,1143,9552,141720,-108734,90408,0,0,0,330,370,301,364,235,369,565,499,334,447,437,238,0,
2,1773253928096,2780,4048,9198,-5011538,1319468,1479515,0,0,0,278,458,234,373,405,407,374,332,277,113,111,193,0,
1,1773253928112,-1971,1110,9456,130725,-89186,86742,0,0,0,331,372,301,368,233,370,567,499,340,428,438,233,0,
2,1773253928112,2043,4259,10705,-5172806,1392772,1599245,0,0,0,281,458,236,370,401,403,375,334,279,113,109,193,0,
1,1773253928128,-1971,1086,9442,116064,-69638,81855,0,0,0,330,373,299,370,233,385,565,501,348,418,444,235,0,
2,1773253928128,2010,4321,12184,-5420818,1288925,1688431,0,0,0,281,458,236,368,399,401,378,339,281,114,110,194,0,
1,1773253928144,-2005,1100,9495,112399,-46425,73303,0,0,0,335,371,303,374,233,390,568,499,345,418,446,243,0,
2,1773253928144,2459,4130,13706,-5677381,1286482,1657888,0,0,0,282,459,238,370,401,404,379,342,281,115,112,194,0,
1,1773253928160,-2019,1119,9571,127059,-18325,68416,0,0,0,339,365,310,379,234,383,577,493,336,413,444,250,0,
2,1773253928160,2613,3819,15730,-5921727,1401324,1456302,0,0,0,282,460,240,370,401,405,378,339,280,115,112,194,0,
1,1773253928176,-1957,1091,9667,152716,-7330,68416,0,0,0,336,360,316,378,233,393,586,488,335,412,441,263,0,
2,1773253928176,2421,3512,17870,-6114761,1440420,1230282,0,0,0,279,460,236,373,402,405,380,336,282,117,111,196,0,
1,1773253928192,-1933,1033,9729,182037,-34208,73303,0,0,0,337,367,324,372,233,398,585,478,343,416,433,285,0,
2,1773253928192,2383,3149,20177,-6227160,1379333,1025031,0,0,0,281,460,239,375,403,408,380,335,281,114,111,193,0,
1,1773253928208,-1986,1028,9748,224798,-64751,85521,0,0,0,340,363,339,376,230,412,581,473,353,401,422,305,0,
2,1773253928208,2928,2622,22474,-6194173,1358564,981049,0,0,0,281,460,240,374,401,407,383,335,287,115,113,193,0,
1,1773253928224,-2038,1048,9772,295658,-73303,109955,0,0,0,333,357,328,391,243,429,575,456,362,392,410,325,0,
2,1773253928224,3445,1550,25216,-6118426,1402546,1132544,0,0,0,281,459,240,375,401,406,383,332,280,117,112,193,0,
1,1773253928240,-2077,1062,9830,379958,-72082,140499,0,0,0,345,383,316,390,260,433,584,431,380,389,382,356,0,
2,1773253928240,3661,-1469,27853,-6092769,1490511,1583362,0,0,0,281,457,236,379,404,409,389,330,285,117,110,197,0,
1,1773253928256,-2129,1005,9906,486248,-61086,185703,0,0,0,364,395,322,398,258,441,584,415,378,380,362,388,0,
2,1773253928256,4178,-7628,29308,-6053674,1547932,1999972,0,0,0,286,457,235,381,399,408,394,329,290,119,108,194,0,
1,1773253928272,-2187,894,9959,594982,-53756,235793,0,0,0,372,403,352,402,249,464,592,384,412,367,341,423,0,
2,1773253928272,5963,-17817,27762,-5683490,1325577,1877799,0,0,0,284,457,239,382,399,410,395,329,294,120,108,198,0,
1,1773253928288,-2196,818,10026,713490,-74525,290771,0,0,0,374,417,340,406,265,456,594,338,402,378,303,436,0,
2,1773253928288,6412,-27365,21785,-4494746,1244943,745255,0,0,0,287,457,240,387,399,414,402,327,297,121,104,200,0,
1,1773253928304,-2091,770,10246,877202,-128281,324980,0,0,0,379,416,360,432,273,474,602,323,413,350,275,457,0,
2,1773253928304,76,-32385,16520,-2717128,1762957,-711047,0,0,0,288,457,240,391,403,419,403,325,296,120,103,198,0,
1,1773253928320,-2000,626,10662,1007927,-175929,320093,0,0,0,385,428,373,436,292,497,582,291,434,325,254,483,0,
2,1773253928320,-8786,-32486,16152,-1231504,1479515,-1139874,0,0,0,290,461,242,388,403,416,399,326,294,120,104,195,0,
1,1773253928336,-2033,445,11060,1158200,-260228,285884,0,0,0,405,447,344,458,326,515,560,259,437,311,231,508,0,
2,1773253928336,-11165,-32237,15855,67195,219911,-873537,0,0,0,289,461,244,384,400,412,396,328,291,121,107,195,0,
1,1773253928352,-2301,306,11304,1414763,-404392,282219,0,0,0,424,465,305,483,352,528,548,237,434,308,212,536,0,
2,1773253928352,-4915,-29638,14663,1320690,-1073901,-427605,0,0,0,284,461,241,380,402,408,402,374,286,124,134,190,0,
1,1773253928368,-2656,196,11787,1728748,-493579,329867,0,0,0,432,480,285,490,381,535,523,222,452,305,202,552,0,
2,1773253928368,344,-19296,15965,2500882,-1320690,-388510,0,0,0,274,452,218,381,402,399,433,445,277,175,210,175,0,
1,1773253928384,-2967,-14,12629,2127032,-405614,430049,0,0,0,434,491,268,502,422,551,480,219,484,285,196,551,0,
2,1773253928384,3886,3402,17367,3348763,-1929112,-39095,0,0,0,266,431,194,376,388,389,473,485,271,240,292,167,0,
1,1773253928400,-3048,-186,13539,2550973,-317649,552222,0,0,0,424,497,234,515,436,570,438,208,488,270,194,561,0,
2,1773253928400,6360,25958,12581,3380528,-2774549,860098,0,0,0,267,419,197,369,371,393,496,496,276,234,307,170,0,
1,1773253928416,-3082,-119,14419,3059213,-293215,696386,0,0,0,418,486,209,527,457,550,370,204,472,267,177,565,0,
2,1773253928416,938,11452,9743,3832568,-2274862,1248608,0,0,0,275,429,219,376,373,409,512,512,289,219,298,171,0,
1,1773253928432,-3905,-4,15113,3673743,-216246,875980,0,0,0,430,478,189,528,439,545,320,192,489,254,156,563,0,
2,1773253928432,-6168,-3278,16008,4728096,-1155757,874759,0,0,0,282,443,252,382,378,422,531,530,295,274,342,180,0,
1,1773253928448,-5001,47,16123,4290717,-67195,1111774,0,0,0,426,483,198,528,429,530,300,168,461,221,137,545,0,
2,1773253928448,-5144,-2804,21430,4125783,-403171,-151494,0,0,0,302,470,293,394,386,434,543,543,301,260,331,208,0,
1,1773253928464,-6427,0,18564,5059185,139277,1458746,0,0,0,442,482,214,478,431,506,273,157,459,202,120,504,0,x
2,1773253928464,201,1210,19636,2711019,-133168,-761138,0,0,0,337,487,312,414,401,452,555,559,304,246,327,245,0,x
1,1773253928480,-8432,-234,21450,5801998,340862,1843591,0,0,0,431,461,225,443,400,494,257,163,423,171,108,416,0,
2,1773253928480,3527,2187,13649,1372003,-4886,-425162,0,0,0,373,503,329,423,405,458,567,567,318,271,343,286,0,
1,1773253928496,-10031,-899,23862,6532592,548556,2375044,0,0,0,360,449,218,409,351,468,241,165,375,158,109,342,0,
2,1773253928496,2086,827,10265,766025,85521,62308,0,0,0,389,507,330,431,415,467,575,575,327,279,326,303,0,
1,1773253928512,-9265,-1564,25163,7139792,711047,2864957,0,0,0,303,402,223,349,298,413,254,194,338,158,124,290,0,
2,1773253928512,1091,311,9614,389732,14660,166155,0,0,0,400,512,335,439,416,468,581,582,313,268,314,317,0,
1,1773253928528,-7389,-789,26786,7494094,893084,3110525,0,0,0,273,354,221,310,249,352,311,229,294,174,182,188,0,
2,1773253928528,1244,799,10303,105068,-142942,69638,0,0,0,411,516,346,441,416,471,589,590,322,266,314,324,0,
1,1773253928544,-8844,2732,23809,7519751,1246165,3090978,0,0,0,270,324,234,286,217,317,342,254,289,190,229,138,0,
2,1773253928544,1296,1383,10404,-18325,-172263,36651,0,0,0,415,515,343,445,418,475,594,595,320,261,311,326,0,
1,1773253928560,-10878,6992,15553,7266852,1557706,3109304,0,0,0,270,317,248,278,210,315,342,265,309,185,246,140,0,
2,1773253928560,1153,1660,10208,-28099,-91629,32986,0,0,0,418,515,338,450,420,480,599,599,321,259,310,330,0,
1,1773253928576,-10342,9815,11055,6252816,1525941,2921157,0,0,0,265,320,250,283,210,322,340,267,323,178,248,148,0,
2,1773253928576,1249,1742,10122,43982,-42760,18325,0,0,0,421,517,338,451,421,483,601,601,327,257,306,335,0,
1,1773253928592,-8107,14419,9964,3568674,1069014,1830152,0,0,0,264,320,247,287,206,323,343,267,318,183,248,149,0,
2,1773253928592,1296,1847,10165,140499,-61086,-1221,0,0,0,426,520,341,448,422,482,598,598,328,256,299,343,0,
1,1773253928608,-4843,16755,10093,-747699,778242,-294437,0,0,0,261,325,254,282,209,327,345,269,304,186,251,149,0,
2,1773253928608,1172,1904,10208,259006,-63529,-25656,0,0,0,430,524,343,448,423,484,598,594,328,259,290,352,0,
1,1773253928624,-5010,11308,8198,-3426953,1282817,-1804495,0,0,0,251,329,264,276,209,337,347,269,310,196,248,160,0,
2,1773253928624,1057,1799,10165,342084,-6108,-40317,0,0,0,435,526,347,453,427,490,598,589,333,259,270,361,0,
1,1773253928640,-7619,5388,5029,-3861890,1297477,-1887573,0,0,0,252,331,250,280,215,323,350,272,303,241,234,166,0,
2,1773253928640,1052,1593,10011,383623,84299,-48869,0,0,0,438,527,345,452,428,490,587,572,337,254,244,375,0,
1,1773253928656,-7791,4541,4149,-3453832,376292,-1105666,0,0,0,253,334,248,279,211,319,355,277,306,188,250,142,0,
2,1773253928656,1139,1512,9897,392175,141720,-56199,0,0,0,435,522,338,458,432,494,589,559,338,246,231,385,0,
1,1773253928672,-6030,5422,5116,-3623652,-299323,-568104,0,0,0,249,328,248,283,212,322,357,277,308,190,249,144,0,
2,1773253928672,1273,1507,9863,406836,160046,-65973,0,0,0,437,528,338,462,436,497,595,552,346,244,225,394,0,
1,1773253928688,-4594,6326,6834,-4406781,-288328,-531452,0,0,0,256,337,251,284,212,322,329,261,308,188,248,144,0,
2,1773253928688,1426,1469,9858,427605,135612,-79412,0,0,0,440,533,340,467,436,502,587,537,346,237,212,395,0,
1,1773253928704,-5020,5742,7930,-5259549,-229685,-708603,0,0,0,257,338,250,287,211,322,353,271,304,193,252,145,0,
2,1773253928704,1454,1335,9820,417831,81855,-92851,0,0,0,443,538,340,473,441,507,587,522,352,241,207,403,0,
1,1773253928720,-5154,4541,8863,-5778785,-597426,-836885,0,0,0,256,339,249,288,211,322,360,274,302,189,250,141,0,
2,1773253928720,1440,1244,9777,394618,31764,-105068,0,0,0,448,545,340,475,445,512,589,511,357,232,193,414,0,
1,1773253928736,-4273,3675,9959,-5935166,-1026253,-959058,0,0,0,257,340,252,286,212,322,359,275,305,194,253,141,0,
2,1773253928736,1440,1229,9758,375071,-4886,-116064,0,0,0,458,542,341,476,443,513,582,493,362,230,186,416,0,
1,1773253928752,-3551,2857,11648,-6034126,-1323134,-1156978,0,0,0,256,341,254,280,212,323,356,276,306,194,257,143,0,
2,1773253928752,1450,1239,9763,373849,-36651,-119729,0,0,0,464,550,344,476,445,517,585,482,365,233,182,424,0,
1,1773253928768,-3330,2278,13529,-6093991,-1529606,-1265712,0,0,0,255,344,256,277,212,324,350,275,306,194,258,146,0,
2,1773253928768,1421,1215,9782,389732,-65973,-118507,0,0,0,468,552,349,483,449,530,587,471,366,233,174,439,0,
1,1773253928784,-3283,2029,15424,-6142860,-1642005,-1218065,0,0,0,253,344,255,277,213,327,349,275,307,194,257,148,0,
2,1773253928784,1383,1134,9839,419053,-73303,-116064,0,0,0,467,548,346,490,455,532,583,455,369,233,170,457,0,
1,1773253928800,-3287,1698,17386,-6225938,-1718974,-1102000,0,0,0,253,343,252,281,213,326,351,277,308,195,257,147,0,
2,1773253928800,1363,1038,9944,465479,-61086,-123394,0,0,0,472,553,346,495,468,538,577,435,372,241,172,472,0,
1,1773253928816,-3273,1024,19607,-6302907,-1742187,-962723,0,0,0,256,342,252,284,211,324,349,275,307,195,256,147,0,
2,1773253928816,1373,961,10045,524122,-35430,-136833,0,0,0,483,561,353,499,476,544,574,414,381,246,173,493,0,
1,1773253928832,-3546,138,21746,-6256481,-1718974,-988379,0,0,0,257,343,256,280,209,324,344,270,302,192,252,150,0,
2,1773253928832,1402,909,10122,593761,-6108,-149051,0,0,0,494,569,360,505,477,545,572,390,393,246,167,518,0,
1,1773253928848,-4393,-995,23675,-6040235,-1727526,-1310916,0,0,0,255,341,253,278,208,318,348,273,293,194,247,144,0,
2,1773253928848,1464,856,10208,670730,18325,-166155,0,0,0,506,574,364,508,478,549,568,366,413,248,162,534,0,
1,1773253928864,-5388,-3292,26073,-5672494,-1883908,-1951103,0,0,0,258,344,253,277,219,318,346,271,293,188,244,141,0,
2,1773253928864,1627,746,10342,762359,46425,-197920,0,0,0,516,572,364,509,483,551,558,339,436,253,163,547,0,
1,1773253928880,-5733,-7575,28633,-5315749,-2091602,-2626720,0,0,0,261,344,256,282,204,327,345,270,296,190,243,139,0,
2,1773253928880,1885,603,10543,872315,58643,-252898,0,0,0,522,580,361,515,499,555,542,306,418,273,175,575,0,
1,1773253928896,-6135,-14702,29542,-5156924,-2061059,-2915048,0,0,0,259,344,265,282,204,353,346,265,321,196,238,151,0,
2,1773253928896,2172,497,10878,1031140,12217,-337197,0,0,0,527,589,360,525,513,565,525,276,438,314,205,585,0,
1,1773253928912,-7762,-25020,25637,-5130046,-1828930,-2185675,0,0,0,258,344,257,284,204,338,336,264,324,199,244,151,0,
2,1773253928912,2354,373,11356,1262047,-102625,-434936,0,0,0,547,590,393,530,512,570,506,251,430,284,180,602,0,
1,1773253928928,-4632,-33639,19631,-4679227,-2164906,-726929,0,0,0,257,343,253,286,204,337,346,268,325,197,247,150,0,
2,1773253928928,2254,268,12002,1546710,-174707,-536339,0,0,0,548,589,343,538,526,577,477,241,438,273,172,613,0,
1,1773253928944,5427,-38233,15841,-3516140,-2463008,557109,0,0,0,255,345,253,287,209,335,351,270,326,198,247,148,0,
2,1773253928944,1560,306,12735,1910786,-200363,-581543,0,0,0,554,605,330,537,525,586,440,235,448,267,167,601,0,
1,1773253928960,14883,-41488,14692,-1566258,-1191187,1186300,0,0,0,252,330,233,289,197,314,380,306,297,257,304,134,0,
2,1773253928960,1201,239,13424,2389704,-256563,-507018,0,0,0,562,600,310,540,535,594,403,234,468,259,174,614,0,
1,1773253928976,14204,-38985,16707,387288,952949,1210734,0,0,0,244,316,216,286,183,296,431,372,281,299,369,121,0,
2,1773253928976,1584,95,14271,2924822,-345749,-436157,0,0,0,577,614,288,539,569,599,373,226,466,266,176,619,0,
1,1773253928992,6843,-22388,17487,2522873,3033556,1021366,0,0,0,237,298,187,281,173,275,466,436,264,321,407,104,0,
2,1773253928992,2144,119,15171,3479488,-467922,-444709,0,0,0,584,602,273,526,569,592,329,221,448,260,172,609,0,
1,1773253929008,-4962,11356,14783,4389677,3797138,625526,0,0,0,243,288,166,282,169,262,480,474,255,342,424,92,0,
2,1773253929008,2598,162,16094,4140444,-586430,-540004,0,0,0,579,590,262,518,563,588,294,201,436,257,174,610,0,
1,1773253929024,-4910,13003,14103,4849048,2526538,221133,0,0,0,253,290,172,293,167,273,493,492,269,370,435,94,0,
2,1773253929024,3627,191,17587,4962669,-654847,-726929,0,0,0,576,584,274,515,551,589,295,173,439,254,168,587,0,
1,1773253929040,411,-105,18238,5390274,847880,-34208,0,0,0,254,288,193,310,173,305,507,507,294,403,448,105,0,
2,1773253929040,5216,43,20196,5844758,-635299,-1061683,0,0,0,565,565,270,508,538,577,302,156,434,238,155,534,0,
1,1773253929056,947,-3838,21450,4331034,450818,173485,0,0,0,253,303,226,324,206,352,522,521,320,409,461,121,0,
2,1773253929056,6815,-540,24431,6916216,-522900,-1530828,0,0,0,513,539,244,495,518,550,298,154,407,219,141,466,0,
1,1773253929072,-2364,-2244,19439,2362826,485026,263893,0,0,0,253,330,233,332,244,373,535,534,329,422,477,155,0,
2,1773253929072,7001,-909,28824,7775092,-182037,-1930334,0,0,0,425,515,210,469,489,508,302,168,366,202,131,397,0,
1,1773253929088,-4331,603,13156,866206,416610,-65973,0,0,0,272,329,262,348,218,372,561,559,309,454,516,192,0,
2,1773253929088,6326,335,31117,8268671,337197,-2201558,0,0,0,349,480,188,422,457,451,327,210,322,164,120,319,0,
1,1773253929104,-2646,923,9633,608421,246789,-250454,0,0,0,293,334,277,358,226,376,568,567,332,470,516,213,0,
2,1773253929104,5675,4211,30868,8561887,1271821,-2508212,0,0,0,290,445,209,373,403,403,350,280,289,119,101,223,0,
1,1773253929120,-1899,344,9499,439822,249233,-196698,0,0,0,295,339,325,355,221,402,571,571,326,490,532,232,0,
2,1773253929120,6288,8403,24666,8440935,1714087,-2971248,0,0,0,286,450,233,362,394,403,359,304,291,113,106,204,0,
1,1773253929136,-2077,224,10701,163711,342084,-86742,0,0,0,298,347,335,352,225,412,573,573,364,500,535,245,0,
2,1773253929136,4809,11768,15716,7555181,548556,-3386636,0,0,0,286,453,232,366,395,408,361,311,293,123,123,204,0,
1,1773253929152,-2086,823,10658,-19547,291993,-52534,0,0,0,324,351,322,378,219,408,572,572,377,494,533,253,0,
2,1773253929152,3292,16343,11280,4635245,-1734857,-2836858,0,0,0,280,453,229,365,393,400,363,310,288,118,111,202,0,
1,1773253929168,-1966,1292,10246,-24434,155159,-34208,0,0,0,329,357,315,385,219,400,576,576,360,486,533,253,0,
2,1773253929168,4895,18994,11127,-1149648,-2576629,-851546,0,0,0,279,451,229,368,397,401,365,310,283,124,116,204,0,
1,1773253929184,-1966,1454,10246,92851,37873,0,0,0,0,330,361,315,379,224,405,579,573,352,477,533,265,0,
2,1773253929184,5814,14146,10748,-4857600,-2230879,597426,0,0,0,281,459,233,368,396,399,361,307,278,137,135,204,0,
1,1773253929200,-1966,1478,10303,227241,-52534,40317,0,0,0,330,360,313,374,226,413,581,559,348,470,537,283,0,
2,1773253929200,5991,7446,7542,-5270545,-1881464,846659,0,0,0,283,458,234,370,397,401,366,312,280,122,115,201,0,
1,1773253929216,-1962,1359,10126,344527,-149051,68416,0,0,0,325,360,308,371,232,417,579,542,341,449,532,292,0,
2,1773253929216,6489,4508,4675,-4851491,-1506393,604756,0,0,0,282,456,234,370,400,404,369,317,282,117,107,202,0,
1,1773253929232,-2024,1215,9801,389732,-207694,75747,0,0,0,324,366,301,369,236,419,569,527,353,419,506,298,0,
2,1773253929232,6685,5034,4580,-4935791,-835663,353080,0,0,0,282,457,236,370,401,405,370,319,281,115,108,200,0,
1,1773253929248,-2148,1105,9614,378736,-201585,73303,0,0,0,323,373,289,367,230,417,564,514,372,411,476,305,0,
2,1773253929248,6039,5139,6274,-5549099,-268780,406836,0,0,0,283,456,236,372,402,405,373,322,282,115,106,197,0,
1,1773253929264,-2268,1033,9547,360410,-161268,72082,0,0,0,330,373,294,371,227,418,563,493,375,414,462,313,0,
2,1773253929264,5403,4245,7848,-6067113,207694,609643,0,0,0,283,456,236,371,403,404,373,324,282,114,104,196,0,
1,1773253929280,-2311,995,9533,338419,-97738,81855,0,0,0,337,379,300,385,231,416,556,462,378,399,446,316,0,
2,1773253929280,5230,3005,8734,-6177069,570548,855211,0,0,0,280,457,236,370,404,405,370,323,279,112,105,195,0,
1,1773253929296,-2258,985,9533,315206,-41538,94073,0,0,0,323,375,294,377,240,419,512,425,394,392,432,327,0,
2,1773253929296,4852,2048,9997,-6152634,1040914,1081231,0,0,0,279,457,234,372,404,409,369,323,277,114,108,195,0,
1,1773253929312,-2129,947,9562,291993,-8552,102625,0,0,0,332,376,300,377,235,413,550,452,388,403,424,338,0,
2,1773253929312,4206,1450,11548,-6128200,1423316,1230282,0,0,0,281,459,237,372,404,411,369,323,276,114,106,196,0,
1,1773253929328,-2029,899,9600,272445,-8552,103847,0,0,0,326,377,299,374,241,419,562,456,390,382,422,336,0,
2,1773253929328,3464,1253,13371,-6119647,1644449,1258382,0,0,0,278,457,234,372,405,411,371,325,279,114,109,197,0,
1,1773253929344,-2019,871,9590,256563,-28099,97738,0,0,0,331,380,306,376,237,422,559,439,392,385,414,375,0,
2,1773253929344,2842,1196,15338,-6169738,1797165,1176526,0,0,0,278,458,234,372,402,411,374,326,283,114,109,197,0,
1,1773253929360,-2048,837,9528,250454,-37873,91629,0,0,0,329,382,302,373,238,424,557,427,393,386,406,382,0,
2,1773253929360,2397,1086,17214,-6279694,1886351,950506,0,0,0,273,466,230,372,402,410,372,323,280,115,110,197,0,
1,1773253929376,-2033,808,9562,255341,-41538,86742,0,0,0,329,386,298,373,245,433,553,418,400,385,400,376,0,
2,1773253929376,1799,1009,19181,-6333450,1898569,665843,0,0,0,280,459,235,377,407,414,374,327,281,113,108,194,0,
1,1773253929392,-2014,775,9715,272445,-57421,85521,0,0,0,335,386,303,383,249,441,552,406,401,384,390,389,0,
2,1773253929392,1397,1158,21402,-6280916,1838704,540004,0,0,0,278,460,232,349,429,398,373,325,279,113,107,194,0,
1,1773253929408,-2086,746,9868,311541,-86742,98960,0,0,0,343,383,309,391,253,449,557,389,393,378,374,415,0,
2,1773253929408,1440,1287,24144,-6211277,1742187,708603,0,0,0,283,461,236,369,407,409,373,322,279,115,107,194,0,
1,1773253929424,-2287,756,9873,379958,-83077,139277,0,0,0,354,390,325,390,260,472,561,362,398,365,348,438,0,
2,1773253929424,1852,-47,27417,-6293133,1551597,1231504,0,0,0,285,458,236,377,401,412,378,322,282,113,104,193,0,
1,1773253929440,-2426,732,9877,456927,-48869,191811,0,0,0,363,399,354,394,267,503,563,331,417,356,316,458,0,
2,1773253929440,3402,-4800,29566,-6420193,1387885,1883908,0,0,0,287,458,234,383,402,413,381,319,283,117,103,190,0,
1,1773253929456,-2498,607,9983,558330,-6108,257785,0,0,0,365,406,362,415,296,503,557,314,418,347,302,483,0,
2,1773253929456,5355,-12677,29126,-6311459,1505171,2079385,0,0,0,290,459,234,388,404,416,384,319,288,119,106,191,0,
1,1773253929472,-2622,502,10160,674395,20769,326202,0,0,0,377,396,346,433,346,525,532,288,441,350,267,502,0,
2,1773253929472,5690,-25029,25685,-5541769,1692096,1506393,0,0,0,291,460,235,389,404,418,386,318,292,121,109,194,0,
1,1773253929488,-2876,454,10452,825889,53756,410501,0,0,0,386,420,365,448,341,517,540,259,451,310,235,518,0,
2,1773253929488,641,-32768,21177,-4147774,1891238,682947,0,0,0,291,461,236,389,404,420,386,318,294,123,112,197,0,
1,1773253929504,-3158,416,10873,1037249,117286,541226,0,0,0,404,442,348,471,327,529,518,233,454,288,204,562,0,
2,1773253929504,-6805,-37391,18181,-2484999,1775174,58643,0,0,0,290,460,232,389,406,418,388,330,296,127,122,197,0,
1,1773253929520,-3005,306,11418,1262047,153938,670730,0,0,0,418,473,307,474,370,552,489,233,475,278,201,564,0,
2,1773253929520,-12548,-39569,17090,-563217,587652,-182037,0,0,0,284,455,223,384,404,411,400,383,292,139,148,195,0,
1,1773253929536,-2249,124,12318,1585806,155159,742812,0,0,0,428,479,288,474,400,574,475,222,480,273,183,560,0,
2,1773253929536,-9093,-36558,18626,1093448,-910189,-213802,0,0,0,273,450,213,377,396,402,437,465,281,159,190,187,0,
1,1773253929552,-2010,-90,13333,2105041,120951,717155,0,0,0,434,504,258,496,407,587,432,200,492,270,179,566,0,
2,1773253929552,-2172,-18702,19320,3145955,-2199114,-354301,0,0,0,264,432,183,373,383,389,480,488,270,180,236,175,0,
1,1773253929568,-2182,-191,14146,2638937,67195,720820,0,0,0,447,503,237,503,419,589,394,188,484,258,168,574,0,
2,1773253929568,3905,8652,15041,4252843,-2855184,-434936,0,0,0,271,415,185,369,373,399,494,497,280,197,283,175,0,
1,1773253929584,-2359,-90,15017,3292563,70860,764803,0,0,0,449,492,213,491,431,579,344,179,470,231,148,579,0,
2,1773253929584,4111,13802,12222,4703662,-2521651,-272445,0,0,0,273,415,185,372,370,407,500,523,272,309,426,157,0,
1,1773253929600,-3048,157,16118,4003610,146607,845437,0,0,0,454,474,208,488,403,553,294,163,471,214,124,573,0,
2,1773253929600,-177,1316,15989,5154480,-1123992,24434,0,0,0,274,428,199,379,371,417,520,523,296,209,321,187,0,
1,1773253929616,-4436,291,17755,4724431,211359,1033583,0,0,0,470,439,225,491,354,530,273,148,472,205,101,535,0,
2,1773253929616,-2297,-4024,22469,4872261,-102625,0,0,0,0,285,451,238,394,386,429,537,537,309,229,321,214,0,
1,1773253929632,-6776,-392,21239,5634620,151494,1420872,0,0,0,449,421,215,469,343,521,258,144,444,180,94,465,0,
2,1773253929632,215,-105,21119,3297450,-180816,-322536,0,0,0,313,471,285,400,388,435,554,554,316,242,348,233,0,
1,1773253929648,-9858,-1081,24981,6531371,12217,1919338,0,0,0,389,415,213,432,331,492,256,149,390,172,100,394,0,
2,1773253929648,2378,2158,14582,1824043,-251676,-278554,0,0,0,352,493,310,411,397,444,568,568,320,250,324,276,0,
1,1773253929664,-11002,-861,26829,7236309,73303,2564412,0,0,0,334,412,203,389,337,443,247,164,334,157,114,323,0,
2,1773253929664,1823,976,10457,1112996,-50090,-31764,0,0,0,383,508,324,415,405,453,575,574,323,259,313,308,0,
1,1773253929680,-9317,-129,28585,7750658,273667,3083647,0,0,0,272,365,206,322,284,382,266,218,294,144,165,259,0,
2,1773253929680,1483,-220,10241,618195,0,37873,0,0,0,411,523,335,415,409,456,581,581,325,268,321,326,0,
1,1773253929696,-9112,2282,28422,8142833,436157,3318219,0,0,0,253,310,230,281,217,315,326,244,278,162,202,150,0,
2,1773253929696,1622,315,11007,310319,-139277,13439,0,0,0,427,531,342,417,412,456,586,586,324,271,326,333,0,
1,1773253929712,-10342,7575,22598,8111068,872315,3470936,0,0,0,269,296,236,282,190,307,345,264,295,182,241,149,0,
2,1773253929712,1488,1052,10748,78190,-197920,10995,0,0,0,433,534,345,419,416,458,590,590,320,271,325,336,0,
1,1773253929728,-11725,13079,13299,7101919,1500285,3596774,0,0,0,270,301,240,285,193,316,342,268,312,186,243,161,0,
2,1773253929728,1273,1507,10217,-26878,-130725,12217,0,0,0,437,537,347,420,415,457,592,593,319,275,329,335,0,
1,1773253929744,-11308,16329,9801,4686558,1225395,3231477,0,0,0,266,308,239,284,198,315,340,262,294,188,237,159,0,
2,1773253929744,1292,1641,10256,-7330,-48869,-4886,0,0,0,437,535,345,422,413,456,595,594,320,278,331,338,0,
1,1773253929760,-5876,18406,10758,50090,529009,1285260,0,0,0,265,310,239,285,198,319,345,261,297,193,235,161,0,
2,1773253929760,1344,1737,10308,59864,-1221,-30543,0,0,0,435,533,342,422,414,458,596,595,324,272,321,344,0,
1,1773253929776,-3933,14027,9265,-2999348,1220508,-945619,0,0,0,266,311,240,287,198,321,349,262,296,195,236,161,0,
2,1773253929776,1335,1775,10217,138055,10995,-48869,0,0,0,436,533,341,428,418,461,587,587,326,269,311,341,0,
1,1773253929792,-7781,7446,4867,-3847229,1661553,-2048842,0,0,0,261,314,240,286,201,319,349,262,287,194,236,155,0,
2,1773253929792,1296,1732,10026,210137,26878,-56199,0,0,0,434,532,341,433,418,463,584,584,325,274,304,346,0,
1,1773253929808,-9600,5537,3096,-3536909,569326,-1596801,0,0,0,251,316,242,282,202,318,349,263,288,190,236,153,0,
2,1773253929808,1316,1651,9868,263893,35430,-59864,0,0,0,436,530,333,428,417,463,586,585,331,289,329,346,0,
1,1773253929824,-6518,6350,4771,-3910759,-376292,-1188743,0,0,0,253,317,243,283,201,316,354,265,285,196,239,153,0,
2,1773253929824,1330,1555,9763,284663,28099,-61086,0,0,0,436,530,332,429,422,470,586,585,323,276,332,344,0,
1,1773253929840,-4599,6767,6901,-4735427,-334754,-1270599,0,0,0,250,314,239,285,205,317,354,265,285,205,236,153,0,
2,1773253929840,1349,1521,9700,294437,21991,-64751,0,0,0,435,533,331,430,422,471,578,577,333,246,263,359,0,
1,1773253929856,-5891,5451,8212,-5506339,-217468,-1521054,0,0,0,247,316,242,284,202,319,336,260,290,189,238,153,0,
2,1773253929856,1402,1483,9700,299323,4886,-70860,0,0,0,443,538,339,430,417,467,579,579,338,238,241,358,0,
1,1773253929872,-6546,3871,9327,-5905845,-632856,-1571145,0,0,0,246,316,241,284,204,319,355,268,289,191,240,154,0,
2,1773253929872,1430,1430,9705,299323,-17104,-76969,0,0,0,443,537,334,439,424,469,574,574,344,240,239,360,0,
1,1773253929888,-5757,2804,10758,-6124534,-1138652,-1538158,0,0,0,250,317,241,284,204,321,355,268,290,192,240,155,0,
2,1773253929888,1407,1387,9686,290771,-43982,-81855,0,0,0,446,538,336,433,422,475,574,567,342,238,233,372,0,
1,1773253929904,-5125,1919,12744,-6414085,-1339016,-1523497,0,0,0,250,316,242,287,203,319,355,272,285,196,242,154,0,
2,1773253929904,1368,1392,9667,287106,-52534,-83077,0,0,0,452,538,340,431,424,482,576,561,343,237,225,383,0,
1,1773253929920,-5340,952,14481,-6592457,-1434311,-1419650,0,0,0,250,314,240,288,205,322,351,273,283,191,241,150,0,
2,1773253929920,1363,1397,9696,301767,-56199,-81855,0,0,0,460,539,343,439,429,489,581,554,349,239,215,403,0,
1,1773253929936,-5508,33,16305,-6559470,-1646892,-1149648,0,0,0,247,314,238,286,205,334,346,270,281,187,238,145,0,
2,1773253929936,1373,1344,9758,332310,-64751,-81855,0,0,0,465,539,343,445,430,494,587,541,349,239,203,433,0,
1,1773253929952,-5240,-660,18334,-6439741,-1883908,-873537,0,0,0,247,317,252,289,207,341,345,271,287,189,237,147,0,
2,1773253929952,1340,1268,9815,366519,-64751,-87964,0,0,0,468,540,341,451,432,498,589,529,347,307,235,449,0,
1,1773253929968,-4766,-1072,20478,-6280916,-2032959,-802676,0,0,0,250,319,245,289,209,337,343,272,279,190,240,146,0,
2,1773253929968,1344,1225,9882,405614,-54977,-96516,0,0,0,478,547,344,460,441,503,589,516,354,388,280,460,0,
1,1773253929984,-4819,-1507,22871,-6006027,-2127032,-1144761,0,0,0,252,320,241,286,208,326,341,271,279,190,239,144,0,
2,1773253929984,1411,1206,9987,470366,-45204,-111177,0,0,0,492,555,352,463,445,510,593,494,364,249,178,509,0,
1,1773253930000,-4871,-2502,25551,-5610186,-2280970,-1722639,0,0,0,250,319,248,285,207,324,343,271,293,192,233,147,0,
2,1773253930000,1459,1143,10064,544891,-40317,-128281,0,0,0,504,563,359,464,452,514,589,476,373,251,173,532,0,
1,1773253930016,-4450,-5077,28494,-5177693,-2371378,-2422691,0,0,0,248,320,252,284,207,327,345,272,301,193,233,151,0,
2,1773253930016,1526,1057,10131,641408,-30543,-156381,0,0,0,516,572,367,474,464,526,584,436,380,259,174,552,0,
1,1773253930032,-4666,-9571,30500,-4946786,-2269975,-2922379,0,0,0,248,323,249,283,206,325,344,271,301,191,236,150,0,
2,1773253930032,1651,985,10294,748920,-10995,-194255,0,0,0,538,583,375,490,472,554,585,404,395,251,167,559,0,
1,1773253930048,-6618,-16865,29384,-5115385,-1933999,-2861292,0,0,0,248,324,247,287,207,330,344,269,307,191,232,150,0,
2,1773253930048,1818,866,10557,882089,4886,-241902,0,0,0,544,586,384,503,482,558,569,358,407,265,169,568,0,
1,1773253930064,-6427,-26589,23297,-5422039,-2061059,-1788613,0,0,0,249,325,242,296,212,333,343,266,303,191,229,150,0,
2,1773253930064,2033,756,10902,1044579,13439,-301767,0,0,0,545,594,392,505,499,564,561,317,415,271,172,587,0,
1,1773253930080,813,-34926,17774,-4962669,-2620611,-532674,0,0,0,257,325,242,306,212,332,351,269,296,199,233,147,0,
2,1773253930080,2153,646,11318,1242499,32986,-379958,0,0,0,555,600,376,523,517,572,532,286,419,278,176,598,0,
1,1773253930096,11375,-40980,14730,-3194825,-2160019,373849,0,0,0,255,323,242,308,206,331,352,269,294,202,228,147,0,
2,1773253930096,1761,569,11959,1510058,98960,-447153,0,0,0,560,605,357,518,522,578,496,263,435,286,180,610,0,
1,1773253930112,15525,-43086,13558,-1149648,-711047,839328,0,0,0,259,323,246,309,205,330,358,268,290,203,229,150,0,
2,1773253930112,1325,478,12854,1962099,179594,-434936,0,0,0,570,613,342,514,526,571,455,248,425,282,178,617,0,
1,1773253930128,10074,-37176,13979,779464,1037249,996932,0,0,0,257,323,245,305,204,331,355,263,301,205,233,154,0,
2,1773253930128,1641,287,13759,2478891,185703,-404392,0,0,0,574,611,306,519,546,573,400,242,448,293,185,618,0,
1,1773253930144,1813,-26235,15582,2315179,2030516,1043357,0,0,0,249,315,243,294,204,327,375,315,296,234,319,147,0,
2,1773253930144,2445,-9,14615,3092199,73303,-438601,0,0,0,584,614,280,521,557,579,349,238,455,290,187,617,0,
1,1773253930160,-3977,-8810,18233,3187494,2340835,803898,0,0,0,239,290,205,285,185,292,431,384,271,283,390,126,0,
2,1773253930160,2780,4,15094,3689626,-70860,-565661,0,0,0,595,621,270,520,552,582,316,231,434,274,183,614,0,
1,1773253930176,-9552,21464,15041,3123964,3139847,-96516,0,0,0,243,280,171,286,176,268,463,442,262,319,415,103,0,
2,1773253930176,3172,0,15807,4370129,-178372,-741590,0,0,0,592,617,265,517,546,586,298,213,437,265,183,606,0,
1,1773253930192,-8083,26149,8671,2856405,3615100,-836885,0,0,0,253,278,161,296,176,269,478,478,269,357,423,91,0,
2,1773253930192,4154,-33,17305,5033529,-172263,-949284,0,0,0,589,602,267,505,543,585,290,180,458,250,172,586,0,
1,1773253930208,205,6408,9169,3869220,2934596,-940732,0,0,0,263,276,174,312,175,282,504,504,277,404,443,89,0,
2,1773253930208,5924,-315,20258,5866749,-184481,-1291369,0,0,0,576,570,260,506,536,574,285,159,449,235,147,537,0,
1,1773253930224,5312,-4163,18310,4884478,1133765,-443488,0,0,0,270,282,202,329,180,304,529,528,284,450,474,94,0,
2,1773253930224,7240,-1167,24273,6734178,-139277,-1716531,0,0,0,515,541,242,496,510,558,281,148,411,218,130,472,0,
1,1773253930240,3048,-2234,22029,4164879,260228,227241,0,0,0,278,301,222,343,199,335,538,537,289,489,492,120,0,
2,1773253930240,6523,-823,28011,7430564,-30543,-2048842,0,0,0,435,524,219,473,487,520,294,165,387,199,124,409,0,
1,1773253930256,-1976,425,18238,2456899,186924,392175,0,0,0,291,322,247,355,230,361,548,546,307,487,500,186,0,
2,1773253930256,4345,689,30179,7986452,-76969,-2205223,0,0,0,371,493,191,433,456,457,315,211,329,182,129,363,0,
1,1773253930272,-3091,-473,13462,1145983,-9773,18325,0,0,0,309,346,257,369,241,376,556,550,317,476,503,230,0,
2,1773253930272,5345,1478,28801,8585100,240680,-2205223,0,0,0,298,450,202,377,411,409,345,285,290,126,108,238,0,
1,1773253930288,-1871,-402,10806,703716,-290771,-175929,0,0,0,327,347,267,376,234,390,564,542,329,502,489,286,0,
2,1773253930288,8145,3613,23790,8899084,1189965,-2470339,0,0,0,287,448,229,360,394,402,356,309,292,111,107,205,0,
1,1773253930304,-1895,603,9595,566882,-345749,-142942,0,0,0,332,366,272,392,256,400,571,522,332,481,478,314,0,
2,1773253930304,7226,8700,16798,8233241,1392772,-3105638,0,0,0,283,452,233,361,395,405,361,318,296,112,108,208,0,
1,1773253930320,-2560,789,9619,527787,-167377,-45204,0,0,0,335,381,304,381,255,426,565,513,353,484,479,357,0,
2,1773253930320,3747,15171,12830,5309640,-511905,-3076317,0,0,0,278,450,238,359,396,403,362,318,290,115,112,211,0,
1,1773253930336,-2574,402,9897,423940,12217,4886,0,0,0,340,376,337,377,261,434,575,503,363,490,472,383,0,
2,1773253930336,3374,20033,10734,307876,-2091602,-1993864,0,0,0,275,450,230,360,397,397,364,316,282,119,115,205,0,
1,1773253930352,-2100,492,10059,326202,51312,18325,0,0,0,340,377,333,383,265,424,579,488,352,481,464,391,0,
2,1773253930352,4656,16501,10399,-4601036,-2367713,-544891,0,0,0,277,451,226,362,397,394,362,314,276,136,139,200,0,
1,1773253930368,-1976,794,10184,329867,19547,28099,0,0,0,340,376,335,380,273,429,582,484,355,457,441,398,0,
2,1773253930368,4962,8284,8274,-5819102,-2228436,-129503,0,0,0,280,453,228,364,399,395,365,318,277,130,132,199,0,
1,1773253930384,-2019,899,10318,419053,-17104,51312,0,0,0,341,378,334,379,275,435,580,470,359,441,423,408,0,
2,1773253930384,5771,3933,5029,-5419596,-2059837,-257785,0,0,0,281,453,228,369,403,399,372,324,279,117,112,200,0,
1,1773253930400,-1928,775,10279,500909,-74525,72082,0,0,0,343,386,320,384,277,441,571,451,368,437,402,421,0,
2,1773253930400,6958,4402,3785,-5066516,-1376890,-452040,0,0,0,280,453,229,372,405,401,372,327,278,117,113,199,0,
1,1773253930416,-1861,583,9485,502131,-149051,79412,0,0,0,344,392,294,394,281,446,565,441,373,430,379,429,0,
2,1773253930416,6934,5340,4814,-5301088,-498466,-422718,0,0,0,281,454,231,369,403,399,371,329,275,151,128,195,0,
1,1773253930432,-1885,435,8394,414166,-168598,84299,0,0,0,344,391,277,404,282,443,562,437,367,419,374,428,0,
2,1773253930432,5886,5173,6714,-5709146,75747,-92851,0,0,0,284,456,233,371,403,400,375,334,278,196,150,190,0,
1,1773253930448,-2038,349,8844,371406,-182037,85521,0,0,0,340,390,290,404,286,448,555,429,376,414,369,435,0,
2,1773253930448,5556,4154,7757,-5831319,378736,422718,0,0,0,282,455,233,370,402,399,372,330,276,113,109,191,0,
1,1773253930464,-2191,296,9509,346971,-178372,87964,0,0,0,346,393,266,408,284,448,555,416,384,393,366,443,0,
2,1773253930464,5680,3196,8671,-5834984,796568,978606,0,0,0,279,454,235,370,404,402,372,332,280,116,112,195,0,
1,1773253930480,-2258,272,9614,290771,-123394,94073,0,0,0,342,393,262,407,284,451,550,410,386,383,353,450,0,
2,1773253930480,5604,2713,9916,-5823989,1287703,1395216,0,0,0,280,456,244,370,404,406,371,331,282,116,111,193,0,
1,1773253930496,-2211,258,9428,217468,-47647,100181,0,0,0,346,395,270,401,277,447,556,396,375,376,354,450,0,
2,1773253930496,5168,2579,11691,-5914397,1600466,1599245,0,0,0,276,454,239,373,406,408,372,331,283,117,111,196,0,
1,1773253930512,-2115,277,9413,156381,14660,105068,0,0,0,351,400,269,404,299,459,554,406,390,381,354,458,0,
2,1773253930512,4862,2536,13730,-6085439,1792278,1654223,0,0,0,278,455,239,373,404,407,374,331,286,116,112,198,0,
1,1773253930528,-1990,325,9619,142942,32986,103847,0,0,0,345,408,273,409,301,472,545,406,401,373,350,456,0,
2,1773253930528,4675,2278,15951,-6291911,1921782,1502728,0,0,0,281,457,243,372,407,405,375,332,285,117,113,197,0,
1,1773253930544,-1876,330,9810,169820,0,94073,0,0,0,345,409,309,408,300,479,543,396,407,363,346,460,0,
2,1773253930544,4393,1923,18344,-6455623,2029294,1233947,0,0,0,279,455,241,374,405,406,379,333,288,198,150,194,0,
1,1773253930560,-1856,296,9925,213802,-61086,90408,0,0,0,343,409,318,403,312,481,544,381,409,360,340,468,0,
2,1773253930560,4039,1943,21402,-6561914,2109928,955393,0,0,0,280,456,237,375,405,406,378,331,287,147,127,193,0,
1,1773253930576,-1976,224,9906,272445,-129503,106290,0,0,0,348,421,286,407,328,477,548,368,410,361,331,478,0,
2,1773253930576,3838,2096,25020,-6679200,2188119,894306,0,0,0,281,457,235,374,404,404,378,329,285,114,111,191,0,
1,1773253930592,-2124,177,9810,339641,-177150,139277,0,0,0,361,425,273,421,312,478,552,349,412,368,317,492,0,
2,1773253930592,3565,1177,29284,-6840468,2240653,1230282,0,0,0,283,458,235,375,404,403,380,326,284,115,108,190,0,
1,1773253930608,-2191,114,9763,404392,-193033,180816,0,0,0,366,430,270,430,307,478,558,324,414,358,297,501,0,
2,1773253930608,3637,-3957,32419,-6861238,2249205,1919338,0,0,0,284,457,233,377,404,404,384,324,287,135,128,189,0,
1,1773253930624,-2225,81,9877,488692,-210137,228463,0,0,0,368,439,270,437,324,492,560,316,415,337,277,514,0,
2,1773253930624,4235,-13194,33754,-6581462,2199114,2350609,0,0,0,285,456,232,379,404,405,387,322,292,139,133,189,0,
1,1773253930640,-2244,81,10131,598647,-251676,263893,0,0,0,379,443,277,446,329,516,550,307,421,321,256,535,0,
2,1773253930640,5436,-25058,30858,-5843536,1795943,2006081,0,0,0,288,457,233,383,405,408,391,323,296,120,109,192,0,
1,1773253930656,-2498,86,10653,769690,-332310,295658,0,0,0,390,448,269,455,328,518,538,267,435,301,232,549,0,
2,1773253930656,4594,-35903,22766,-4388455,1668883,665843,0,0,0,287,457,231,388,405,410,393,324,300,132,123,193,0,
1,1773253930672,-3048,90,11213,968832,-408057,356745,0,0,0,401,453,256,493,348,521,529,259,451,286,214,557,0,
2,1773253930672,-2048,-42459,16702,-2565634,2056172,-938289,0,0,0,284,457,228,386,404,411,389,319,298,159,158,190,0,
1,1773253930688,-3134,-52,11820,1240056,-505796,474031,0,0,0,404,456,271,504,374,539,491,249,453,275,198,564,0,
2,1773253930688,-12333,-43737,16415,-744033,1764178,-1936442,0,0,0,282,457,231,380,403,407,390,331,297,163,170,191,0,
1,1773253930704,-2187,-301,12433,1605353,-553443,514348,0,0,0,400,462,245,508,395,555,461,243,482,256,189,583,0,
2,1773253930704,-12969,-38985,17908,871093,-79412,-1703092,0,0,0,275,453,224,379,407,404,400,383,291,174,202,183,0,
1,1773253930720,-2091,-469,12964,2039068,-522900,476474,0,0,0,423,456,209,524,396,571,438,224,486,246,155,583,0,
2,1773253930720,-6661,-24938,20157,2506990,-1784948,-1092227,0,0,0,273,449,211,381,404,400,447,475,274,152,204,175,0,
1,1773253930736,-3000,-516,13476,2599842,-478918,513126,0,0,0,417,482,196,550,436,575,397,205,488,232,148,589,0,
2,1773253930736,1742,6202,20224,3660304,-2974913,-65973,0,0,0,268,409,177,365,372,383,484,485,273,171,249,172,0,
1,1773253930752,-3584,-497,14170,3170390,-455705,651182,0,0,0,435,474,197,548,428,556,368,193,494,230,138,587,0,
2,1773253930752,6446,25651,11509,3676187,-3444058,1299921,0,0,0,272,399,180,365,364,394,498,497,288,182,271,172,0,
1,1773253930768,-4039,-445,15391,3837455,-430049,857654,0,0,0,434,467,213,544,432,559,298,175,511,212,115,570,0,
2,1773253930768,1311,10595,8839,4249178,-3037221,1852143,0,0,0,277,409,183,382,366,410,514,513,300,204,303,181,0,
1,1773253930784,-5364,-368,17319,4631580,-359188,1120326,0,0,0,439,462,227,524,430,575,269,150,519,186,103,544,0,
2,1773253930784,-5675,-3058,17659,4781853,-1863138,1204626,0,0,0,282,427,213,391,372,425,534,533,316,216,323,204,0,
1,1773253930800,-7427,-545,20358,5568647,-372627,1518610,0,0,0,427,458,226,490,428,576,261,137,516,167,97,487,0,
2,1773253930800,-5848,-3723,23522,3836233,-723264,123394,0,0,0,294,454,256,404,383,442,557,556,335,228,336,239,0,
1,1773253930816,-9356,-1282,23665,6454402,-365297,1997529,0,0,0,390,444,217,461,395,536,257,143,459,159,91,413,0,
2,1773253930816,148,1258,19779,2089159,-257785,-367740,0,0,0,316,474,287,417,397,461,570,570,344,236,341,276,0,
1,1773253930832,-10787,-2531,27370,7217983,-226020,2471560,0,0,0,344,404,202,412,335,468,255,155,378,153,98,339,0,
2,1773253930832,2311,1718,13184,1067792,-164933,-8552,0,0,0,343,490,309,419,418,470,575,574,346,241,334,307,0,
1,1773253930848,-10997,-1694,29715,7601607,-217468,2891836,0,0,0,293,356,194,348,284,399,266,181,332,147,132,259,0,
2,1773253930848,1316,842,9820,643851,-149051,234572,0,0,0,363,500,322,424,427,474,581,581,349,248,324,331,0,
1,1773253930864,-10547,1943,29896,7852061,-266337,3280346,0,0,0,257,319,206,304,235,335,301,226,304,152,184,177,0,
2,1773253930864,722,698,10160,419053,-194255,142942,0,0,0,370,502,324,437,419,483,589,588,354,253,321,350,0,
1,1773253930880,-10806,8245,24900,8008443,-169820,3571118,0,0,0,271,280,224,277,181,295,342,254,290,171,233,140,0,
2,1773253930880,890,1110,10624,197920,-246789,45204,0,0,0,377,505,324,438,420,486,591,591,355,251,320,362,0,
1,1773253930896,-10519,12902,15261,7337713,177150,3727499,0,0,0,273,285,230,282,193,310,349,258,301,179,235,141,0,
2,1773253930896,947,1627,10476,52534,-233350,13439,0,0,0,383,511,328,437,419,486,592,593,350,251,319,357,0,
1,1773253930912,-8925,16410,9384,4863709,514348,3408628,0,0,0,264,298,219,289,194,306,350,265,287,178,227,141,0,
2,1773253930912,847,1765,10208,62308,-134390,12217,0,0,0,389,517,333,439,420,490,589,590,361,253,315,362,0,
1,1773253930928,-5451,18980,10054,379958,730594,1959655,0,0,0,264,305,224,287,197,306,355,264,284,181,231,141,0,
2,1773253930928,871,1823,10193,107512,-89186,-4886,0,0,0,397,526,341,438,423,496,589,589,365,249,304,378,0,
1,1773253930944,-3244,15372,10279,-3688404,1522276,-47647,0,0,0,265,308,225,287,198,313,355,264,293,179,228,143,0,
2,1773253930944,804,1938,10232,195476,-64751,-26878,0,0,0,395,523,334,440,424,490,592,590,365,248,285,376,0,
1,1773253930960,-5111,8968,7092,-4978551,2146580,-902858,0,0,0,260,310,226,288,196,313,356,266,290,183,230,143,0,
2,1773253930960,717,2000,10155,316428,-3665,-37873,0,0,0,408,519,337,438,424,490,582,583,365,247,269,383,0,
1,1773253930976,-7695,5498,4130,-4509407,1451415,-467922,0,0,0,253,312,230,285,197,311,362,270,292,184,236,141,0,
2,1773253930976,746,1885,10007,426383,64751,-36651,0,0,0,414,521,337,443,426,497,580,579,368,239,247,387,0,
1,1773253930992,-7154,4934,4010,-4311486,365297,-30543,0,0,0,257,316,233,284,198,313,359,267,293,187,239,145,0,
2,1773253930992,851,1655,9863,465479,95294,-32986,0,0,0,420,520,337,446,432,501,579,572,366,236,235,396,0,
1,1773253931008,-4379,5790,6106,-4649906,-268780,-58643,0,0,0,257,316,234,285,200,316,362,267,294,191,238,148,0,
2,1773253931008,957,1502,9777,455705,89186,-37873,0,0,0,420,520,333,447,433,502,581,562,374,241,229,406,0,
1,1773253931024,-3689,6101,8107,-5358509,-180816,-674395,0,0,0,254,316,236,285,200,318,363,267,294,191,238,146,0,
2,1773253931024,1052,1459,9748,423940,51312,-51312,0,0,0,424,524,336,451,436,509,579,555,380,239,218,415,0,
1,1773253931040,-4694,5518,9451,-6026796,-349414,-1275486,0,0,0,253,316,237,285,200,319,360,268,293,191,242,145,0,
2,1773253931040,1081,1464,9777,406836,-7330,-67195,0,0,0,430,527,338,455,437,513,579,539,380,240,210,423,0,
1,1773253931056,-4924,4115,10653,-6411641,-844215,-1587027,0,0,0,251,315,236,285,204,321,358,272,294,193,247,145,0,
2,1773253931056,1076,1478,9839,415388,-68416,-81855,0,0,0,436,532,339,457,437,516,580,520,378,239,200,433,0,
1,1773253931072,-4536,2689,11926,-6548475,-1196074,-1678657,0,0,0,249,314,235,285,203,321,355,269,297,193,243,148,0,
2,1773253931072,1057,1435,9877,448375,-106290,-86742,0,0,0,446,542,340,459,441,519,581,501,377,237,191,448,0,
1,1773253931088,-4283,1842,13294,-6532592,-1332907,-1521054,0,0,0,253,317,238,288,203,322,355,268,297,197,248,148,0,
2,1773253931088,976,1340,9873,482583,-131946,-87964,0,0,0,457,548,343,464,448,524,582,481,377,239,185,470,0,
1,1773253931104,-4268,1526,15352,-6574131,-1441641,-1143539,0,0,0,252,316,237,291,202,321,356,265,300,196,243,144,0,
2,1773253931104,847,1210,9887,510683,-127059,-83077,0,0,0,462,546,350,475,458,535,583,463,380,238,178,491,0,
1,1773253931120,-4225,1215,17903,-6646213,-1579697,-731816,0,0,0,255,316,239,288,201,317,358,270,302,191,240,137,0,
2,1773253931120,847,1129,9983,543670,-86742,-79412,0,0,0,468,551,345,485,465,537,587,447,390,236,168,505,0,
1,1773253931136,-4168,732,20363,-6662096,-1701870,-498466,0,0,0,254,318,240,285,202,312,319,251,302,189,243,139,0,
2,1773253931136,952,1081,10093,597426,-52534,-85521,0,0,0,484,561,355,487,476,550,580,406,402,243,166,525,0,
1,1773253931152,-4608,-253,23048,-6486167,-1833817,-693942,0,0,0,255,320,241,287,205,314,350,268,302,189,240,135,0,
2,1773253931152,1057,995,10189,671951,-26878,-105068,0,0,0,499,561,363,496,492,554,578,375,418,260,174,542,0,
1,1773253931168,-5183,-2024,26020,-6085439,-2091602,-1393994,0,0,0,258,319,241,288,205,316,356,273,293,189,239,139,0,
2,1773253931168,1100,894,10260,739146,0,-134390,0,0,0,514,573,372,496,492,560,570,345,440,258,165,565,0,
1,1773253931184,-5211,-5202,29308,-5637064,-2367713,-2288301,0,0,0,253,322,239,286,207,317,353,274,294,191,239,146,0,
2,1773253931184,1139,760,10457,841772,62308,-188146,0,0,0,520,588,376,509,503,569,559,314,432,268,175,579,0,
1,1773253931200,-5910,-11945,32323,-5253441,-2477669,-3081204,0,0,0,254,321,238,288,209,315,358,270,295,199,235,149,0,
2,1773253931200,1268,655,10926,1021366,140499,-243124,0,0,0,531,584,385,508,515,567,544,281,434,267,170,588,0,
1,1773253931216,-8456,-22129,29538,-5233893,-2228436,-2773328,0,0,0,255,320,237,291,208,315,358,266,293,203,228,146,0,
2,1773253931216,1588,555,11457,1257160,182037,-305432,0,0,0,540,597,377,515,528,572,510,258,437,268,170,607,0,
1,1773253931232,-7652,-32596,23359,-5380501,-2172236,-1543045,0,0,0,255,321,238,295,206,320,356,264,293,202,227,146,0,
2,1773253931232,1943,421,12117,1574810,156381,-399505,0,0,0,545,599,338,524,542,581,444,282,429,260,170,626,0,
1,1773253931248,1641,-40267,17568,-4828278,-2638937,-57421,0,0,0,256,320,238,299,204,323,358,265,296,202,232,151,0,
2,1773253931248,1579,378,12974,2029294,-12217,-467922,0,0,0,548,597,312,534,551,592,416,258,435,263,177,627,0,
1,1773253931264,14481,-45489,14955,-2549751,-1837482,763581,0,0,0,251,314,229,299,201,317,371,286,290,218,264,148,0,
2,1773253931264,928,358,13658,2546086,-239459,-436157,0,0,0,553,597,285,537,559,600,393,237,447,261,178,625,0,
1,1773253931280,16276,-46427,15223,-101403,63529,950506,0,0,0,242,300,205,298,194,298,405,350,272,269,354,127,0,
2,1773253931280,1024,320,14280,3029891,-342084,-361632,0,0,0,558,596,262,545,567,602,357,233,459,263,174,620,0,
1,1773253931296,8346,-30337,18463,2337170,2149023,871093,0,0,0,238,285,177,287,174,272,452,423,260,313,411,104,0,
2,1773253931296,1914,296,15151,3558900,-378736,-378736,0,0,0,562,593,261,545,565,600,324,217,457,267,176,613,0,
1,1773253931312,-2579,2349,16769,4161214,3597996,682947,0,0,0,245,279,155,286,158,258,481,481,250,362,426,93,0,
2,1773253931312,2938,201,16429,4192978,-409279,-551000,0,0,0,570,595,274,527,553,591,302,194,445,255,172,607,0,
1,1773253931328,-5283,14553,14926,4875926,3155729,389732,0,0,0,256,265,179,298,162,294,499,498,290,402,441,95,0,
2,1773253931328,3484,28,18444,4995655,-455705,-805120,0,0,0,572,594,293,515,542,585,294,171,449,237,157,581,0,
1,1773253931344,-1105,4982,19186,5422039,1598023,91629,0,0,0,271,282,198,314,160,298,515,514,282,440,457,90,0,
2,1773253931344,4379,-516,21569,5872858,-432492,-1066570,0,0,0,555,574,300,502,531,580,297,160,442,222,145,522,0,
1,1773253931360,2426,-5982,24541,4769635,184481,81855,0,0,0,277,293,246,330,192,324,519,519,297,458,465,106,0,
2,1773253931360,5723,-1028,25943,6787934,-233350,-1348790,0,0,0,501,547,251,496,518,555,288,168,410,216,140,468,0,
1,1773253931376,-1502,-3000,19487,2824640,-84299,255341,0,0,0,291,313,261,348,204,363,530,530,326,470,482,174,0,
2,1773253931376,6781,-1043,29485,7599163,39095,-1642005,0,0,0,429,522,215,475,487,515,296,161,379,208,135,389,0,
1,1773253931392,-4541,502,12562,1492954,-73303,64751,0,0,0,320,320,268,367,213,384,541,542,329,482,498,217,0,
2,1773253931392,6800,679,32093,8393288,392175,-2045176,0,0,0,357,484,181,416,442,445,321,214,310,185,137,333,0,
1,1773253931408,-3862,847,8791,873537,20769,-233350,0,0,0,321,330,283,366,220,399,550,546,334,491,509,241,0,
2,1773253931408,7446,4388,32261,8765916,844215,-2423913,0,0,0,291,448,211,357,386,395,347,286,288,134,147,207,0,
1,1773253931424,-2474,-215,9815,458148,95294,-184481,0,0,0,325,340,289,366,225,405,557,548,335,497,518,262,0,
2,1773253931424,8475,9825,26762,8607091,1147204,-2902831,0,0,0,291,448,222,368,392,404,366,313,291,138,158,206,0,
1,1773253931440,-2546,239,10504,169820,152716,-74525,0,0,0,333,345,293,372,227,408,562,552,336,502,523,286,0,
2,1773253931440,8164,14706,14702,7340156,378736,-3431840,0,0,0,288,450,225,367,398,405,361,318,290,137,155,210,0,
1,1773253931456,-2756,1081,10078,124616,184481,-30543,0,0,0,335,349,302,374,229,417,566,551,345,505,525,316,0,
2,1773253931456,5661,18257,9954,3662747,-952949,-3044552,0,0,0,284,449,222,368,401,402,360,317,284,138,155,208,0,
1,1773253931472,-2617,1387,9810,213802,172263,-2443,0,0,0,341,359,308,379,233,427,564,539,355,508,520,345,0,
2,1773253931472,3211,19238,10528,-1023810,-1648114,-1624901,0,0,0,285,453,225,369,403,398,363,321,279,134,152,202,0,
1,1773253931488,-2364,1143,10112,299323,106290,34208,0,0,0,346,370,309,390,239,430,556,525,355,502,501,360,0,
2,1773253931488,2857,13960,10413,-4465424,-2045176,178372,0,0,0,281,453,224,367,404,397,366,329,278,136,153,203,0,
1,1773253931504,-2258,1043,10413,346971,2443,65973,0,0,0,348,381,302,388,247,430,554,510,352,481,484,358,0,
2,1773253931504,6058,6925,5379,-4497189,-1985312,808785,0,0,0,279,454,225,367,405,397,367,330,280,139,157,206,0,
1,1773253931520,-2469,1201,11438,290771,-17104,86742,0,0,0,347,377,291,381,247,425,548,499,356,469,460,373,0,
2,1773253931520,7465,5025,2904,-3962071,-965167,541226,0,0,0,279,455,229,367,406,399,367,328,280,139,160,206,0,
1,1773253931536,-2579,1201,11251,276111,-14660,86742,0,0,0,350,377,291,401,251,430,543,484,360,457,429,373,0,
2,1773253931536,6106,5953,3996,-4086688,67195,287106,0,0,0,280,456,232,368,407,401,366,329,278,138,159,203,0,
1,1773253931552,-2507,995,9810,346971,-76969,75747,0,0,0,347,385,296,393,263,438,546,464,362,442,415,378,0,
2,1773253931552,3981,6958,6580,-4823391,531452,397062,0,0,0,281,457,233,369,407,401,368,331,279,135,157,200,0,
1,1773253931568,-2445,799,9083,337197,-76969,76969,0,0,0,349,381,315,380,260,434,550,445,365,442,407,386,0,
2,1773253931568,3905,6044,7753,-5391496,630412,719599,0,0,0,280,456,232,372,412,403,368,333,279,136,157,201,0,
1,1773253931584,-2474,775,9227,259006,-14660,87964,0,0,0,343,382,305,381,262,442,543,440,377,428,402,395,0,
2,1773253931584,4115,4843,8518,-5673716,938289,948062,0,0,0,279,455,231,370,411,403,369,333,280,136,160,202,0,
1,1773253931600,-2512,856,9499,210137,50090,97738,0,0,0,341,386,306,381,267,452,541,428,384,419,398,399,0,
2,1773253931600,3441,4149,9868,-5828876,1451415,1084896,0,0,0,279,455,230,371,409,402,370,332,279,137,159,198,0,
1,1773253931616,-2431,890,9552,227241,89186,103847,0,0,0,343,392,310,381,269,456,539,425,386,411,392,409,0,
2,1773253931616,2163,4225,11806,-6047565,1679879,1202182,0,0,0,279,454,229,369,408,399,370,332,280,137,157,198,0,
1,1773253931632,-2244,866,9581,251676,98960,105068,0,0,0,342,397,305,386,280,455,545,419,377,413,396,410,0,
2,1773253931632,1464,4206,13797,-6335894,1714087,1312138,0,0,0,281,458,234,370,410,402,371,332,282,137,159,198,0,
1,1773253931648,-2134,823,9657,268780,69638,92851,0,0,0,349,401,297,394,291,447,548,402,363,412,386,411,0,
2,1773253931648,1517,3689,15702,-6605896,1727526,1276708,0,0,0,281,458,231,373,411,403,372,333,286,137,160,198,0,
1,1773253931664,-2158,775,9739,295658,28099,85521,0,0,0,361,402,300,398,291,443,545,381,357,395,359,427,0,
2,1773253931664,1502,2952,17894,-6791599,1804495,1076344,0,0,0,282,459,235,374,411,404,373,334,286,137,160,196,0,
1,1773253931680,-2282,713,9791,349414,-8552,100181,0,0,0,362,417,298,394,291,444,540,353,357,379,344,444,0,
2,1773253931680,1229,2531,20435,-6888116,1843591,813672,0,0,0,279,457,233,373,411,405,373,332,285,137,160,196,0,
1,1773253931696,-2364,631,9758,400727,-14660,139277,0,0,0,367,438,290,392,298,447,533,328,366,372,329,456,0,
2,1773253931696,1234,2584,23857,-7011511,1803274,757472,0,0,0,280,458,235,374,411,407,374,330,285,137,157,196,0,
1,1773253931712,-2435,564,9715,452040,1221,185703,0,0,0,375,420,305,406,310,473,540,318,386,369,310,473,0,
2,1773253931712,1263,2211,27700,-7158118,1821600,1066570,0,0,0,281,458,235,376,411,407,375,330,285,137,156,196,0,
1,1773253931728,-2541,555,9777,525344,40317,239459,0,0,0,386,421,307,423,328,485,529,297,392,362,285,487,0,
2,1773253931728,1119,-660,32141,-7258300,1899790,1881464,0,0,0,284,458,235,379,411,407,378,327,286,140,154,196,0,
1,1773253931744,-2617,540,10026,670730,98960,316428,0,0,0,388,448,330,422,358,481,521,275,387,354,266,512,0,
2,1773253931744,1698,-9624,35127,-7116580,1975538,2730567,0,0,0,288,460,233,384,413,409,382,324,290,144,155,195,0,
1,1773253931760,-2656,492,10275,833220,147829,383623,0,0,0,431,461,330,448,373,503,521,258,434,361,250,547,0,
2,1773253931760,3551,-23680,34907,-6642548,1584584,2908940,0,0,0,288,458,232,387,414,411,385,324,293,144,156,194,0,
1,1773253931776,-2742,378,10600,1021366,179594,450818,0,0,0,428,482,348,439,374,522,501,239,426,327,231,565,0,
2,1773253931776,5781,-38621,26968,-5211902,993266,1756848,0,0,0,290,457,234,387,414,412,386,323,294,141,155,194,0,
1,1773253931792,-2766,172,11026,1214400,186924,515570,0,0,0,441,514,346,464,375,526,483,217,425,319,212,583,0,
2,1773253931792,1430,-47216,18497,-3031113,1350012,-41538,0,0,0,290,461,233,389,418,416,389,328,297,146,158,195,0,
1,1773253931808,-2517,9,11557,1409876,149051,566882,0,0,0,434,518,282,467,402,529,461,211,426,287,203,583,0,
2,1773253931808,-9767,-47499,16405,-916297,1567480,-1369559,0,0,0,286,461,230,387,421,415,390,337,294,162,176,193,0,
1,1773253931824,-2100,-119,12323,1654223,103847,583987,0,0,0,432,519,263,484,430,524,422,203,437,276,194,582,0,
2,1773253931824,-13218,-43134,17898,800233,-113620,-1362229,0,0,0,282,458,230,381,411,410,393,387,286,243,253,188,0,
1,1773253931840,-1775,-277,13457,2079385,74525,558330,0,0,0,449,526,246,503,450,539,382,191,447,272,186,576,0,
2,1773253931840,-3804,-28619,20330,2575407,-1973094,-927293,0,0,0,258,450,188,378,418,395,453,481,273,186,245,179,0,
1,1773253931856,-2412,-339,14161,2665815,75747,564439,0,0,0,453,525,226,503,467,558,333,184,456,257,176,576,0,
2,1773253931856,7092,7595,18104,3660304,-2780658,-802676,0,0,0,253,402,172,369,381,388,483,483,275,199,262,173,0,
1,1773253931872,-3196,-268,14864,3340211,61086,689055,0,0,0,451,510,222,489,466,560,276,176,457,238,163,579,0,
2,1773253931872,10126,26192,11753,3969402,-3358537,-559552,0,0,0,269,405,180,369,369,396,503,503,290,200,305,167,0,
1,1773253931888,-4000,-186,16286,4042706,102625,913854,0,0,0,460,493,222,484,436,556,248,164,447,225,149,569,0,
2,1773253931888,4029,11160,11136,4646241,-3264463,-7330,0,0,0,274,425,205,364,397,410,528,528,310,233,340,177,0,
1,1773253931904,-5599,-119,18109,4723210,233350,1164309,0,0,0,450,480,221,483,417,543,254,159,448,199,130,533,0,
2,1773253931904,-2656,-4867,22110,4846604,-1827708,515570,0,0,0,289,445,248,387,389,422,544,544,319,246,345,185,0,
1,1773253931920,-8528,-335,21028,5525886,456927,1580919,0,0,0,450,451,222,448,392,508,260,150,429,181,108,467,0,
2,1773253931920,-3972,-4426,24527,3479488,-748920,398284,0,0,0,308,465,287,401,387,435,557,557,318,256,340,217,0,
1,1773253931936,-11208,-473,24158,6276029,801455,2180788,0,0,0,381,439,207,406,369,475,244,152,371,155,106,374,0,
2,1773253931936,-1598,2450,16444,1786169,-201585,-92851,0,0,0,334,483,314,415,398,451,570,570,321,268,335,258,0,
1,1773253931952,-11926,-153,26522,6946759,1205847,2842966,0,0,0,324,439,209,363,351,429,237,180,339,153,136,325,0,
2,1773253931952,789,2330,10777,1242499,135612,-180816,0,0,0,356,495,328,424,409,462,580,580,330,281,335,291,0,
1,1773253931968,-9571,1306,28312,7528303,1472185,3340211,0,0,0,269,369,222,324,275,375,269,212,300,156,168,230,0,
2,1773253931968,1986,172,10169,908967,191811,-26878,0,0,0,370,502,338,430,415,471,586,586,339,287,334,307,0,
1,1773253931984,-8882,3895,28552,7996225,1576032,3511253,0,0,0,263,304,234,278,190,320,317,243,278,172,214,154,0,
2,1773253931984,1641,-148,11021,489913,-43982,125838,0,0,0,381,507,346,431,418,478,593,593,347,286,330,318,0,
1,1773253932000,-10567,7800,22450,8078081,1714087,3496592,0,0,0,275,301,245,284,189,320,334,258,310,187,236,153,0,
2,1773253932000,875,1177,10610,219911,-191811,92851,0,0,0,390,513,352,430,420,478,601,601,348,287,326,332,0,
1,1773253932016,-11658,11730,13740,6996850,1782504,3293785,0,0,0,275,309,244,289,195,325,338,260,317,189,236,157,0,
2,1773253932016,655,1861,10193,161268,-152716,31764,0,0,0,395,515,353,437,425,479,600,599,343,288,323,337,0,
1,1773253932032,-10083,16286,10801,4024380,1158200,2112371,0,0,0,271,315,243,288,200,327,341,266,312,186,242,157,0,
2,1773253932032,928,1765,10279,256563,-69638,4886,0,0,0,400,517,352,437,431,484,598,597,345,289,323,342,0,
1,1773253932048,-5551,17410,11141,-575435,802676,-576656,0,0,0,271,318,244,287,201,329,343,268,312,186,243,157,0,
2,1773253932048,942,1684,10361,337197,-58643,-2443,0,0,0,408,517,350,438,430,486,599,598,352,291,312,350,0,
1,1773253932064,-5197,13160,8944,-3236364,1280373,-2574186,0,0,0,271,320,246,288,200,331,347,268,316,189,241,160,0,
2,1773253932064,737,1751,10313,397062,-23212,-18325,0,0,0,419,522,353,441,434,487,594,592,351,277,288,359,0,
1,1773253932080,-8566,7360,4551,-3422067,1014036,-2619390,0,0,0,270,320,246,288,200,330,349,272,318,196,245,162,0,
2,1773253932080,660,1794,10208,464257,56199,-37873,0,0,0,426,524,355,449,435,491,592,580,350,255,254,375,0,
1,1773253932096,-8078,5441,3139,-3176499,-59864,-1777617,0,0,0,265,320,247,288,201,331,346,273,317,196,244,161,0,
2,1773253932096,737,1665,10054,536339,145385,-53756,0,0,0,428,531,352,449,436,503,591,564,366,241,230,386,0,
1,1773253932112,-4225,6398,4876,-3547905,-618195,-1170417,0,0,0,256,323,251,284,206,330,342,275,316,189,248,163,0,
2,1773253932112,808,1474,9920,563217,194255,-58643,0,0,0,432,528,353,452,434,499,583,536,363,259,267,387,0,
1,1773253932128,-3321,6982,7025,-4599815,-85521,-1286482,0,0,0,261,328,251,288,204,330,358,280,318,192,247,162,0,
2,1773253932128,942,1340,9830,564439,213802,-65973,0,0,0,432,529,349,452,435,500,588,524,373,244,210,403,0,
1,1773253932144,-4800,6149,8174,-5391496,37873,-1470963,0,0,0,256,328,252,280,204,334,341,283,325,188,246,161,0,
2,1773253932144,1134,1249,9810,551000,178372,-79412,0,0,0,434,531,348,449,436,504,587,507,376,241,189,415,0,
1,1773253932160,-5202,4728,9423,-5812993,-415388,-1579697,0,0,0,256,326,252,282,204,334,345,282,323,190,247,162,0,
2,1773253932160,1229,1119,9791,525344,98960,-97738,0,0,0,442,532,349,456,441,513,584,490,377,242,183,422,0,
1,1773253932176,-4934,3474,10930,-6093991,-795346,-1725083,0,0,0,257,324,252,283,201,335,340,278,321,191,243,163,0,
2,1773253932176,1244,1024,9777,498466,19547,-122173,0,0,0,451,537,351,462,444,519,586,477,381,239,175,432,0,
1,1773253932192,-5092,2383,12471,-6337115,-992045,-1808161,0,0,0,255,324,252,283,202,334,341,278,321,188,243,163,0,
2,1773253932192,1177,1009,9830,483805,-30543,-144164,0,0,0,461,545,361,465,447,524,587,460,382,235,171,444,0,
1,1773253932208,-5364,1201,14386,-6539923,-1186300,-1604132,0,0,0,259,326,253,286,202,332,346,281,325,191,245,162,0,
2,1773253932208,1129,990,9920,483805,-62308,-153938,0,0,0,471,549,371,468,451,527,587,437,381,235,169,458,0,
1,1773253932224,-5321,110,16645,-6635218,-1373225,-1193630,0,0,0,262,327,253,287,202,333,344,284,328,193,247,163,0,
2,1773253932224,1081,933,9987,498466,-78190,-151494,0,0,0,477,550,373,470,458,528,594,416,384,236,164,474,0,
1,1773253932240,-5235,-579,18712,-6596122,-1538158,-768468,0,0,0,261,327,252,289,203,333,342,283,322,193,249,162,0,
2,1773253932240,1009,818,10031,526565,-67195,-147829,0,0,0,481,553,377,478,468,533,595,400,390,238,161,491,0,
1,1773253932256,-5106,-1162,20818,-6462954,-1745852,-477696,0,0,0,259,324,248,289,204,329,343,279,309,193,246,156,0,
2,1773253932256,1033,717,10107,571769,-37873,-149051,0,0,0,486,559,370,486,471,536,589,380,398,243,160,509,0,
1,1773253932272,-5092,-1943,23062,-6241821,-1947438,-459370,0,0,0,258,322,246,283,219,321,346,277,302,194,242,153,0,
2,1773253932272,1162,670,10203,645073,-10995,-166155,0,0,0,494,569,368,496,478,540,576,352,406,249,167,522,0,
1,1773253932288,-5407,-3158,25450,-5944940,-2142915,-833220,0,0,0,257,323,245,275,240,313,349,276,303,194,242,157,0,
2,1773253932288,1225,626,10299,736703,8552,-194255,0,0,0,515,585,374,507,493,554,569,331,418,246,158,552,0,
1,1773253932304,-5374,-6135,28743,-5685933,-2471560,-1566258,0,0,0,257,323,245,289,204,323,352,272,308,195,241,157,0,
2,1773253932304,1215,559,10447,856433,37873,-226020,0,0,0,529,582,380,510,506,552,559,301,434,253,161,560,0,
1,1773253932320,-4776,-13022,30500,-5605299,-2565634,-2065946,0,0,0,261,326,250,298,201,330,354,273,314,192,228,157,0,
2,1773253932320,1282,416,10739,1018923,84299,-257785,0,0,0,529,581,363,510,511,567,548,273,450,278,178,578,0,
1,1773253932336,-5546,-20990,28375,-5644394,-2294409,-1914451,0,0,0,261,328,250,298,203,330,350,269,312,196,227,159,0,
2,1773253932336,1526,239,11170,1209513,127059,-300545,0,0,0,537,576,345,516,515,576,524,247,441,266,168,588,0,
1,1773253932352,-4517,-30370,22828,-5569869,-2377487,-801455,0,0,0,261,329,255,297,204,333,343,268,316,196,231,158,0,
2,1773253932352,1828,105,11825,1474628,150272,-373849,0,0,0,545,585,338,525,532,579,494,240,450,264,169,593,0,
1,1773253932368,6384,-38128,18066,-4408003,-2576629,353080,0,0,0,261,329,250,298,205,329,349,271,300,196,232,153,0,
2,1773253932368,1813,28,12486,1816713,127059,-447153,0,0,0,559,591,318,525,537,581,452,229,452,277,177,610,0,
1,1773253932384,16037,-43756,14936,-2316400,-1469741,847880,0,0,0,259,330,246,297,206,326,355,276,300,196,238,154,0,
2,1773253932384,1497,-43,13137,2243097,78190,-494800,0,0,0,567,592,283,527,547,584,411,224,453,283,184,624,0,
1,1773253932400,15879,-44048,13969,-190589,278554,803898,0,0,0,252,317,234,308,197,317,376,320,296,240,312,137,0,
2,1773253932400,1359,-33,14051,2802649,-35430,-478918,0,0,0,569,594,261,530,559,582,372,217,457,328,204,615,0,
1,1773253932416,9140,-31835,17252,1679879,1662775,715934,0,0,0,244,303,199,301,185,280,436,410,281,297,386,111,0,
2,1773253932416,1947,0,14965,3369532,-183259,-487470,0,0,0,567,594,257,527,559,586,332,203,463,316,201,614,0,
1,1773253932432,564,-2029,18535,3370754,3246137,372627,0,0,0,251,289,170,292,168,258,474,468,265,344,419,99,0,
2,1773253932432,2957,-129,15989,4050036,-294437,-618195,0,0,0,572,588,259,525,554,595,303,184,462,260,177,618,0,
1,1773253932448,-4828,16616,14486,4069584,3853337,-97738,0,0,0,262,283,167,295,158,266,498,499,262,376,442,93,0,
2,1773253932448,3565,-172,17860,4883256,-246789,-880867,0,0,0,578,578,267,527,546,594,295,167,452,252,162,598,0,
1,1773253932464,-2258,10093,15439,4861265,2695137,-389732,0,0,0,267,302,205,316,172,298,510,511,291,404,456,94,0,
2,1773253932464,4149,-23,20885,5806884,-174707,-1152091,0,0,0,558,566,280,524,532,582,299,153,442,235,146,552,0,
1,1773253932480,2924,-2598,22670,4840496,759916,-226020,0,0,0,272,311,232,335,188,322,519,519,311,427,464,100,0,
2,1773253932480,5403,-57,25474,6850242,-83077,-1426981,0,0,0,507,547,251,512,525,547,300,151,419,220,142,475,0,
1,1773253932496,1531,-4268,23081,3466049,-17104,216246,0,0,0,285,298,234,342,190,331,532,532,304,437,475,113,0,
2,1773253932496,7063,-402,29700,7849618,327423,-1734857,0,0,0,428,521,198,480,494,514,300,163,374,205,132,405,0,
1,1773253932512,-4039,349,15434,1778839,72082,274889,0,0,0,301,316,262,350,199,352,539,540,316,446,485,163,0,
2,1773253932512,7389,-4,31997,8652295,1015258,-2083050,0,0,0,363,489,186,423,443,446,322,209,324,174,121,339,0,
1,1773253932528,-4144,1072,10457,1221730,76969,-114842,0,0,0,306,338,279,354,216,380,546,546,350,459,495,243,0,
2,1773253932528,6666,1890,32596,9202073,2065946,-2590068,0,0,0,295,444,202,375,406,407,344,297,289,118,105,227,0,
1,1773253932544,-2646,110,9016,801455,79412,-290771,0,0,0,317,343,290,361,223,382,551,552,347,466,497,236,0,
2,1773253932544,5733,6130,28643,9136100,2241875,-3093421,0,0,0,284,448,226,361,397,403,360,313,297,114,109,208,0,
1,1773253932560,-2273,-181,10466,453262,169820,-164933,0,0,0,332,333,311,363,228,381,547,547,360,484,501,258,0,
2,1773253932560,5068,12356,18501,7997447,397062,-3464827,0,0,0,284,450,227,368,402,410,360,314,294,118,114,212,0,
1,1773253932576,-2531,665,10686,200363,235793,-59864,0,0,0,332,340,312,361,220,386,565,560,341,468,506,244,0,
2,1773253932576,5398,17817,11150,4532620,-2030516,-2864957,0,0,0,283,451,228,364,403,409,356,311,286,118,115,214,0,
1,1773253932592,-2512,1220,10203,140499,186924,-24434,0,0,0,333,357,301,368,228,390,563,557,349,472,507,257,0,
2,1773253932592,5833,20282,9461,-513126,-2706133,-1428202,0,0,0,283,450,222,364,403,402,359,313,281,121,116,217,0,
1,1773253932608,-2354,1239,10107,204028,98960,3665,0,0,0,338,356,309,365,230,387,567,550,346,462,507,265,0,
2,1773253932608,5039,15194,10705,-4990769,-2327396,108734,0,0,0,282,453,225,366,402,401,362,314,281,132,131,210,0,
1,1773253932624,-2230,1239,10217,280998,10995,45204,0,0,0,344,362,326,366,229,395,560,538,359,454,500,271,0,
2,1773253932624,5264,7236,7848,-5648059,-2433687,412944,0,0,0,283,456,228,367,403,401,364,316,282,141,146,206,0,
1,1773253932640,-2206,1306,10217,368962,-86742,84299,0,0,0,342,369,318,367,234,401,560,531,378,441,481,286,0,
2,1773253932640,7197,3484,3742,-5094616,-2278527,90408,0,0,0,285,459,230,366,402,401,359,315,279,142,151,203,0,
1,1773253932656,-2254,1239,9901,447153,-166155,96516,0,0,0,339,374,314,364,239,405,555,520,382,429,455,301,0,
2,1773253932656,8025,4422,3034,-4990769,-1215621,-327423,0,0,0,285,459,233,366,402,403,360,318,280,144,152,204,0,
1,1773253932672,-2335,1005,9667,456927,-195476,96516,0,0,0,341,376,312,362,237,408,548,502,374,416,436,313,0,
2,1773253932672,6479,5733,5077,-5483126,-90408,-431270,0,0,0,283,457,232,368,404,404,368,324,283,145,152,206,0,
1,1773253932688,-2435,832,10418,291993,-84299,97738,0,0,0,343,378,304,364,237,409,545,482,369,402,425,321,0,
2,1773253932688,4714,5527,7269,-5969375,324980,-72082,0,0,0,283,456,230,368,404,402,368,325,280,146,152,204,0,
1,1773253932704,-2493,856,10294,237015,-37873,100181,0,0,0,340,378,302,366,242,410,546,466,375,396,413,324,0,
2,1773253932704,4862,4302,8145,-6101322,587652,494800,0,0,0,284,458,233,371,405,403,370,328,281,149,155,203,0,
1,1773253932720,-2517,923,9451,300545,-50090,102625,0,0,0,339,375,308,367,236,414,548,451,384,398,400,333,0,
2,1773253932720,4958,3469,9188,-6139195,1073901,983493,0,0,0,282,458,230,372,406,406,369,330,284,141,152,204,0,
1,1773253932736,-2455,866,9227,300545,0,107512,0,0,0,340,379,322,364,234,418,556,434,375,394,395,342,0,
2,1773253932736,4259,3239,10878,-6211277,1473406,1334129,0,0,0,283,459,234,374,407,408,370,330,283,140,147,203,0,
1,1773253932752,-2335,808,9413,249233,58643,109955,0,0,0,338,383,321,357,233,423,565,424,379,399,388,349,0,
2,1773253932752,3713,3062,12711,-6318790,1650557,1579697,0,0,0,284,460,234,378,411,410,370,330,282,130,134,199,0,
1,1773253932768,-2196,794,9528,216246,81855,103847,0,0,0,340,384,328,357,235,421,571,421,378,388,378,359,0,
2,1773253932768,3694,2833,14630,-6448293,1710422,1623679,0,0,0,287,461,234,372,405,407,370,330,281,118,118,202,0,
1,1773253932784,-2105,799,9523,226020,52534,95294,0,0,0,338,394,347,373,259,427,559,415,385,388,374,380,0,
2,1773253932784,3761,2464,16970,-6585127,1849699,1386664,0,0,0,283,457,230,370,408,404,368,331,283,117,113,201,0,
1,1773253932800,-2081,770,9643,259006,0,89186,0,0,0,339,403,314,375,270,423,567,399,386,385,366,415,0,
2,1773253932800,3522,2043,19789,-6698748,1971872,1043357,0,0,0,286,459,237,370,403,405,368,329,284,114,111,198,0,
1,1773253932816,-2172,727,9772,309097,-52534,95294,0,0,0,350,409,324,380,276,445,563,386,379,364,359,432,0,
2,1773253932816,3464,1761,23330,-6719517,1966986,828333,0,0,0,283,458,234,374,405,406,371,329,283,116,111,196,0,
1,1773253932832,-2330,698,9796,378736,-79412,118507,0,0,0,356,399,346,373,271,456,557,357,385,363,343,451,0,
2,1773253932832,3699,1392,27829,-6735400,1914451,905302,0,0,0,284,458,234,373,405,407,374,327,282,117,111,195,0,
1,1773253932848,-2450,670,9801,475253,-73303,163711,0,0,0,365,389,348,385,276,463,555,333,405,354,316,460,0,
2,1773253932848,4010,-454,32395,-6864903,1816713,1494176,0,0,0,285,459,233,375,403,406,376,322,282,116,109,193,0,
1,1773253932864,-2507,617,9901,571769,-57421,213802,0,0,0,383,411,370,397,317,463,551,312,425,346,307,482,0,
2,1773253932864,5096,-7245,34213,-6963863,2041511,2298075,0,0,0,288,458,232,383,406,408,381,320,287,117,108,192,0,
1,1773253932880,-2569,569,10102,698829,-56199,277332,0,0,0,403,446,387,404,355,478,548,297,423,335,282,506,0,
2,1773253932880,5714,-17994,34132,-6690196,2302961,2667037,0,0,0,291,459,232,390,412,415,387,322,295,119,108,194,0,
1,1773253932896,-2636,478,10370,880867,-69638,335975,0,0,0,422,477,367,419,379,492,545,282,422,327,256,533,0,
2,1773253932896,5149,-32476,28159,-5458691,2007303,2032959,0,0,0,292,459,233,391,411,417,391,323,300,121,108,196,0,
1,1773253932912,-2742,354,10825,1119105,-95294,388510,0,0,0,435,484,330,444,422,505,540,260,439,319,239,558,0,
2,1773253932912,1876,-43129,19937,-3660304,1925447,690277,0,0,0,289,457,229,392,409,415,392,323,300,124,109,197,0,
1,1773253932928,-2703,224,11361,1380555,-120951,433714,0,0,0,400,450,335,458,452,528,525,241,451,299,221,571,0,
2,1773253932928,-7279,-48049,15171,-1361007,2069611,-1220508,0,0,0,281,454,222,392,412,414,394,349,295,131,125,195,0,
1,1773253932944,-2474,43,11887,1671327,-127059,458148,0,0,0,355,439,367,466,435,539,487,232,449,279,207,577,0,
2,1773253932944,-13266,-45470,18970,401949,625526,-1957212,0,0,0,272,452,215,376,419,407,416,435,287,151,190,186,0,
1,1773253932960,-2378,-244,12624,2040289,-107512,453262,0,0,0,434,512,288,492,466,539,431,212,455,285,199,582,0,
2,1773253932960,-11950,-30705,23278,2475225,-1955990,-1749518,0,0,0,263,439,186,380,404,401,455,482,274,206,268,175,0,
1,1773253932976,-2723,-406,13472,2481334,-112399,472809,0,0,0,427,511,242,503,488,557,374,184,473,290,189,584,0,
2,1773253932976,-129,4915,19569,4387234,-4455651,-970053,0,0,0,265,413,179,369,376,394,490,490,282,188,272,175,0,
1,1773253932992,-3436,-335,14247,3016452,-133168,583987,0,0,0,429,522,220,517,494,561,333,178,502,264,173,583,0,
2,1773253932992,6302,19128,12912,4570493,-4197865,-288328,0,0,0,276,419,187,374,375,409,508,508,293,192,297,173,0,
1,1773253933008,-4383,-172,15372,3694512,-64751,833220,0,0,0,443,504,225,502,484,556,256,170,474,243,146,586,0,
2,1773253933008,2153,6345,14553,4731762,-2537534,240680,0,0,0,278,434,203,389,383,425,528,528,303,223,327,190,0,
1,1773253933024,-5685,-229,17267,4437325,41538,1160643,0,0,0,455,506,234,510,433,556,252,152,472,221,115,562,0,
2,1773253933024,-4422,-5762,22742,4494746,-834441,311541,0,0,0,289,452,242,405,393,440,538,537,317,239,330,215,0,
1,1773253933040,-7150,-402,20421,5220454,125838,1544267,0,0,0,442,492,235,452,421,544,248,152,462,176,107,503,0,
2,1773253933040,-2742,-2287,22258,2955366,-337197,-180816,0,0,0,308,470,281,415,399,450,547,546,324,241,321,238,0,
1,1773253933056,-9207,-320,24173,6073222,289550,1996307,0,0,0,399,463,235,422,384,501,236,149,404,155,105,443,0,
2,1773253933056,1330,2469,14974,1576032,-191811,-362853,0,0,0,334,488,311,424,407,466,560,559,329,249,315,282,0,
1,1773253933072,-10547,382,26321,6776938,481361,2475225,0,0,0,349,433,228,379,334,456,233,158,360,141,112,356,0,
2,1773253933072,2158,2263,9777,1093448,-59864,-107512,0,0,0,358,501,327,429,414,472,572,573,338,257,314,319,0,
1,1773253933088,-9662,1445,27810,7419569,725707,2968805,0,0,0,292,385,219,339,289,397,254,199,320,139,147,262,0,
2,1773253933088,1804,478,9322,766025,-73303,53756,0,0,0,375,507,335,435,420,472,583,584,334,265,310,351,0,
1,1773253933104,-8528,3460,28265,7971791,818559,3274237,0,0,0,258,337,222,299,238,335,298,240,294,149,189,176,0,
2,1773253933104,1459,282,10835,350636,-265115,89186,0,0,0,386,509,341,436,419,473,590,590,331,270,310,361,0,
1,1773253933120,-9126,6532,23866,8307767,933402,3389080,0,0,0,264,315,232,283,199,309,331,262,296,164,226,138,0,
2,1773253933120,1162,1153,10882,96516,-353080,85521,0,0,0,396,512,347,433,417,478,592,593,340,270,312,351,0,
1,1773253933136,-10686,9337,15864,8113512,1033583,3488040,0,0,0,277,316,241,293,192,325,334,270,321,176,250,151,0,
2,1773253933136,885,1837,10160,-2443,-273667,65973,0,0,0,403,515,350,438,421,481,593,593,341,267,310,351,0,
1,1773253933152,-9983,13309,10978,6274807,769690,3292563,0,0,0,266,320,246,282,193,330,331,269,327,179,255,153,0,
2,1773253933152,952,1861,10208,18325,-158824,37873,0,0,0,410,517,353,439,424,482,589,591,336,265,305,353,0,
1,1773253933168,-5853,18970,10978,1457524,537561,1594358,0,0,0,266,320,236,283,207,316,333,267,295,178,254,144,0,
2,1773253933168,995,1943,10294,80634,-86742,8552,0,0,0,416,515,352,443,427,485,586,592,344,266,297,354,0,
1,1773253933184,-3531,17784,10969,-3197268,945619,-700051,0,0,0,269,319,233,278,240,304,340,268,291,182,252,144,0,
2,1773253933184,952,2019,10217,184481,-28099,-18325,0,0,0,415,515,354,436,420,478,592,591,341,272,299,363,0,
1,1773253933200,-6073,10150,7977,-4772079,1320690,-1846034,0,0,0,277,323,236,298,194,315,348,270,291,187,252,141,0,
2,1773253933200,914,1943,10054,278554,40317,-37873,0,0,0,424,519,353,442,424,482,589,589,341,265,283,363,0,
1,1773253933216,-8226,5369,4991,-4625471,726929,-1643227,0,0,0,270,323,238,291,195,322,342,265,294,191,258,144,0,
2,1773253933216,957,1832,9944,329867,91629,-47647,0,0,0,427,519,357,442,424,488,588,586,343,246,255,385,0,
1,1773253933232,-7035,4809,4647,-4364021,-233350,-998153,0,0,0,267,320,238,290,196,325,337,266,306,192,262,150,0,
2,1773253933232,1048,1732,9853,360410,109955,-50090,0,0,0,431,521,355,445,426,488,585,578,342,246,244,386,0,
1,1773253933248,-4546,5556,6628,-4861265,-406836,-818559,0,0,0,259,324,243,286,198,326,341,269,305,197,260,145,0,
2,1773253933248,1134,1670,9782,381179,98960,-53756,0,0,0,438,523,372,447,426,489,582,573,350,245,233,388,0,
1,1773253933264,-4273,5465,8351,-5546656,-152716,-961501,0,0,0,257,322,239,293,199,321,353,273,296,199,262,142,0,
2,1773253933264,1182,1612,9739,387288,70860,-64751,0,0,0,440,525,366,452,430,493,582,555,350,242,225,396,0,
1,1773253933280,-5388,4436,9437,-6053674,-183259,-1108109,0,0,0,258,322,241,294,199,324,356,274,300,200,264,143,0,
2,1773253933280,1206,1560,9729,376292,37873,-80634,0,0,0,440,529,361,457,433,496,585,542,350,238,217,402,0,
1,1773253933296,-5556,3216,10442,-6238155,-692721,-1138652,0,0,0,264,325,245,295,200,329,354,273,303,199,264,143,0,
2,1773253933296,1234,1531,9743,365297,0,-94073,0,0,0,443,532,360,460,435,499,585,528,359,240,209,409,0,
1,1773253933312,-5149,2445,11820,-6339559,-1049466,-1191187,0,0,0,263,325,244,297,201,329,356,274,304,200,264,144,0,
2,1773253933312,1244,1474,9777,359188,-36651,-100181,0,0,0,450,534,360,461,436,504,586,518,372,242,202,417,0,
1,1773253933328,-5211,1670,13620,-6450736,-1306029,-1225395,0,0,0,262,326,244,297,199,328,361,276,310,202,264,146,0,
2,1773253933328,1234,1407,9777,349414,-70860,-102625,0,0,0,456,534,356,465,439,512,590,513,379,240,195,424,0,
1,1773253933344,-5494,957,15525,-6515488,-1568701,-1134987,0,0,0,266,329,248,297,198,329,362,279,315,201,262,146,0,
2,1773253933344,1210,1349,9748,338419,-100181,-101403,0,0,0,458,534,350,473,445,516,577,509,383,241,189,436,0,
1,1773253933360,-5116,291,17764,-6488610,-1869247,-908967,0,0,0,267,330,249,298,200,330,359,279,311,199,261,144,0,
2,1773253933360,1158,1311,9782,337197,-119729,-98960,0,0,0,467,543,353,479,448,519,562,503,391,243,183,453,0,
1,1773253933376,-4393,-320,20114,-6401867,-2047620,-740368,0,0,0,267,333,250,292,200,327,352,275,303,196,261,143,0,
2,1773253933376,1105,1301,9897,360410,-120951,-106290,0,0,0,480,549,366,479,450,525,591,473,384,238,172,464,0,
1,1773253933392,-3991,-952,22416,-6205169,-2057394,-851546,0,0,0,260,333,253,283,204,332,334,272,312,189,261,149,0,
2,1773253933392,1095,1277,10021,412944,-96516,-125838,0,0,0,488,553,381,483,454,530,591,453,382,243,171,478,0,
1,1773253933408,-4192,-1923,24800,-5847202,-2153910,-1334129,0,0,0,256,331,250,286,204,328,308,252,302,195,260,150,0,
2,1773253933408,1186,1201,10054,478918,-72082,-150272,0,0,0,503,562,386,492,464,532,588,425,378,254,173,506,0,
1,1773253933424,-3766,-3876,27652,-5469687,-2360383,-1980425,0,0,0,262,330,251,282,196,326,332,268,300,188,244,143,0,
2,1773253933424,1292,1129,10088,554665,-65973,-178372,0,0,0,522,575,407,489,472,532,581,399,390,262,170,521,0,
1,1773253933440,-3345,-8432,30040,-5342627,-2296853,-2533869,0,0,0,261,330,256,288,200,336,345,272,316,188,228,154,0,
2,1773253933440,1421,1100,10203,660956,-83077,-213802,0,0,0,515,575,392,499,480,547,577,370,399,258,168,551,0,
1,1773253933456,-4795,-15817,29662,-5499008,-1940107,-2594955,0,0,0,262,330,252,292,198,329,347,273,306,188,228,145,0,
2,1773253933456,1612,1028,10543,830776,-116064,-262672,0,0,0,530,569,385,518,509,557,559,333,399,261,164,569,0,
1,1773253933472,-6111,-26288,24795,-5541769,-1847256,-1754404,0,0,0,261,331,248,293,202,331,345,278,303,189,232,145,0,
2,1773253933472,1651,909,11060,1029918,-141720,-312763,0,0,0,533,573,369,524,505,564,547,302,420,265,166,591,0,
1,1773253933488,794,-35596,18860,-4532620,-2388483,-430049,0,0,0,258,332,248,298,208,334,348,279,303,191,234,147,0,
2,1773253933488,1593,784,11591,1287703,-166155,-353080,0,0,0,544,584,379,523,509,569,525,271,432,277,174,597,0,
1,1773253933504,10830,-41569,14960,-2783102,-2139250,461814,0,0,0,260,333,250,296,205,334,350,280,309,191,235,149,0,
2,1773253933504,1579,650,12069,1591914,-191811,-389732,0,0,0,555,592,376,531,518,578,492,252,428,367,199,597,0,
1,1773253933520,14079,-42833,13974,-918741,-631634,658512,0,0,0,256,332,249,296,203,333,351,274,311,198,257,152,0,
2,1773253933520,1641,459,12912,2018298,-241902,-439822,0,0,0,563,596,349,548,534,583,450,243,425,336,191,610,0,
1,1773253933536,11428,-39430,14443,811229,981049,745255,0,0,0,247,324,241,292,201,327,368,315,317,230,314,144,0,
2,1773253933536,1856,277,14003,2538755,-335975,-494800,0,0,0,561,604,315,551,548,587,401,238,430,270,178,616,0,
1,1773253933552,2837,-23014,17860,2670702,2450791,846659,0,0,0,239,299,206,283,186,294,414,393,299,275,378,117,0,
2,1773253933552,2220,138,15132,3197268,-471587,-579100,0,0,0,565,607,285,543,560,590,346,234,435,268,182,614,0,
1,1773253933568,-5805,10906,16774,3601661,3320663,638965,0,0,0,240,277,168,280,170,260,459,448,263,310,411,93,0,
2,1773253933568,2368,296,16018,3871663,-532674,-717155,0,0,0,576,600,265,537,569,584,302,223,431,269,182,616,0,
1,1773253933584,-8619,23723,11763,3684739,3423288,117286,0,0,0,249,279,161,286,166,262,481,480,256,350,427,91,0,
2,1773253933584,2459,689,17214,4536285,-524122,-874759,0,0,0,570,603,265,521,563,574,285,204,425,261,181,604,0,
1,1773253933600,-3139,7154,12950,4480085,2167349,-491135,0,0,0,250,279,159,299,166,276,507,507,262,409,453,94,0,
2,1773253933600,3421,880,19344,5291314,-541226,-1044579,0,0,0,566,602,270,517,552,568,285,179,425,246,165,575,0,
1,1773253933616,3407,-5561,20569,5093394,546113,-718377,0,0,0,258,296,191,317,168,294,522,522,270,445,471,92,0,
2,1773253933616,5666,368,22636,6234490,-605978,-1343903,0,0,0,547,576,261,501,540,554,289,163,413,229,146,528,0,
1,1773253933632,2268,-2852,22196,3672521,272445,-43982,0,0,0,268,296,226,330,188,333,537,537,297,452,486,104,0,
2,1773253933632,7121,114,26192,7103140,-558330,-1706757,0,0,0,487,559,239,485,524,539,285,160,394,215,138,451,0,
1,1773253933648,-1966,258,17712,1959655,299323,318871,0,0,0,270,319,250,346,210,359,541,541,311,468,493,139,0,
2,1773253933648,7317,765,29399,7951021,-259006,-2119702,0,0,0,383,508,185,449,475,478,306,183,343,196,129,379,0,
1,1773253933664,-4000,813,11409,890641,133168,7330,0,0,0,280,322,261,349,214,362,567,566,312,491,510,190,0,
2,1773253933664,5948,2718,31323,8649851,185703,-2514321,0,0,0,335,468,203,396,422,429,337,246,300,151,113,296,0,
1,1773253933680,-2364,71,9987,704938,-40317,-194255,0,0,0,291,327,295,363,229,386,565,564,317,499,517,214,0,
2,1773253933680,5575,5881,30356,8895419,500909,-2809980,0,0,0,297,454,228,340,421,387,352,295,286,115,101,216,0,
1,1773253933696,-1909,28,10208,478918,-41538,-152716,0,0,0,302,332,284,361,231,388,573,572,318,507,522,219,0,
2,1773253933696,6661,10236,21818,8294328,-125838,-3083647,0,0,0,290,452,231,358,400,400,360,319,293,114,105,209,0,
1,1773253933712,-2263,588,10433,238237,46425,-58643,0,0,0,314,334,282,360,227,387,576,565,315,510,524,231,0,
2,1773253933712,7346,13505,12596,6773273,-1519832,-3182607,0,0,0,282,451,229,366,398,407,359,317,289,115,106,209,0,
1,1773253933728,-2340,1014,10102,162490,65973,-31764,0,0,0,327,340,290,368,224,382,579,556,314,505,530,240,0,
2,1773253933728,7169,18856,8341,2917492,-2151467,-2472782,0,0,0,283,455,232,368,403,406,359,315,285,113,106,206,0,
1,1773253933744,-2234,1148,9940,193033,48869,-9773,0,0,0,332,347,298,374,227,380,578,542,307,492,533,246,0,
2,1773253933744,4647,19272,10098,-2353052,-1590693,-627969,0,0,0,281,456,232,366,403,405,359,317,284,113,107,205,0,
1,1773253933760,-2033,1134,10160,262672,15882,29321,0,0,0,336,352,295,376,230,383,578,529,302,486,524,251,0,
2,1773253933760,4058,12490,9662,-5375614,-1609019,1022588,0,0,0,277,457,232,365,402,402,361,320,282,116,109,206,0,
1,1773253933776,-1880,1196,10313,320093,-58643,62308,0,0,0,341,358,288,379,229,387,579,517,306,483,500,262,0,
2,1773253933776,6939,5709,5699,-5216789,-1584584,1307251,0,0,0,276,459,235,368,402,402,363,322,280,117,110,206,0,
1,1773253933792,-1933,1229,10141,387288,-168598,79412,0,0,0,335,365,292,376,237,395,572,497,318,471,474,282,0,
2,1773253933792,8619,2694,3283,-4620584,-823446,905302,0,0,0,279,461,238,369,402,405,364,324,280,117,111,205,0,
1,1773253933808,-2029,1182,9729,423940,-216246,87964,0,0,0,327,368,307,371,250,410,563,488,330,457,466,296,0,
2,1773253933808,6714,3895,4804,-4621806,94073,439822,0,0,0,280,462,240,369,402,405,364,325,279,118,110,205,0,
1,1773253933824,-2062,1119,9021,371406,-147829,89186,0,0,0,323,363,324,372,241,416,560,488,342,427,450,306,0,
2,1773253933824,4848,4886,7011,-5189911,230907,553443,0,0,0,277,460,237,371,407,406,364,328,279,117,112,204,0,
1,1773253933840,-2077,952,9064,343306,-142942,87964,0,0,0,322,363,321,365,240,426,560,472,350,419,431,328,0,
2,1773253933840,5077,4541,7796,-5600412,344527,862541,0,0,0,276,459,237,367,402,404,364,325,276,113,111,201,0,
1,1773253933856,-2158,794,9418,340862,-180816,89186,0,0,0,320,367,316,361,240,420,558,457,358,397,418,328,0,
2,1773253933856,5470,3728,8585,-5798332,880867,1177748,0,0,0,276,460,238,366,402,403,364,328,277,114,110,199,0,
1,1773253933872,-2244,746,9485,306654,-158824,96516,0,0,0,320,361,314,368,241,423,560,449,360,393,410,334,0,
2,1773253933872,4953,3096,10054,-5929058,1411098,1467298,0,0,0,276,460,238,368,405,405,364,328,277,113,110,199,0,
1,1773253933888,-2206,756,9351,235793,-80634,102625,0,0,0,317,360,308,373,241,410,567,447,346,390,405,333,0,
2,1773253933888,4182,2794,11782,-6064670,1620014,1714087,0,0,0,277,459,238,370,410,407,361,328,277,117,111,200,0,
1,1773253933904,-2077,746,9351,174707,-31764,103847,0,0,0,324,364,292,377,246,409,567,440,340,391,402,332,0,
2,1773253933904,4063,2636,13673,-6305350,1631010,1870469,0,0,0,277,461,238,372,406,409,365,328,278,114,111,201,0,
1,1773253933920,-1971,760,9523,140499,-40317,94073,0,0,0,328,370,285,380,252,419,568,438,351,390,396,346,0,
2,1773253933920,4283,2230,15400,-6520375,1693318,1858252,0,0,0,278,461,239,370,404,407,367,329,281,114,110,199,0,
1,1773253933936,-1976,794,9691,142942,-67195,84299,0,0,0,330,363,285,384,248,431,570,433,358,381,396,366,0,
2,1773253933936,4412,1545,17611,-6631553,1839926,1645670,0,0,0,280,461,240,372,405,409,369,330,282,116,110,199,0,
1,1773253933952,-2033,808,9815,186924,-100181,85521,0,0,0,335,363,290,385,259,445,569,425,370,373,395,397,0,
2,1773253933952,4402,1143,20421,-6646213,1951103,1387885,0,0,0,279,462,239,371,403,409,367,324,279,138,145,196,0,
1,1773253933968,-2062,784,9825,265115,-140499,111177,0,0,0,334,370,287,388,273,453,569,412,377,373,375,413,0,
2,1773253933968,4575,1167,24512,-6660874,1976759,1257160,0,0,0,278,463,240,372,403,410,367,320,281,149,162,193,0,
1,1773253933984,-2129,756,9791,346971,-173485,152716,0,0,0,336,370,285,394,271,459,571,390,378,369,350,422,0,
2,1773253933984,4728,110,28791,-6811147,1974316,1516167,0,0,0,280,462,240,376,405,411,372,321,283,131,133,194,0,
1,1773253934000,-2278,708,9806,428827,-175929,200363,0,0,0,346,374,292,401,272,471,571,365,390,359,335,449,0,
2,1773253934000,4766,-4201,32232,-6925990,2084272,2004859,0,0,0,282,460,237,380,404,409,377,321,284,116,107,196,0,
1,1773253934016,-2440,689,9911,537561,-160046,254119,0,0,0,351,384,291,417,287,486,576,340,407,349,314,473,0,
2,1773253934016,4752,-12859,33821,-6728069,2266310,2307848,0,0,0,283,458,232,385,404,409,382,321,288,119,104,194,0,
1,1773253934032,-2593,665,10112,676838,-139277,309097,0,0,0,365,390,304,446,291,513,581,301,423,331,271,501,0,
2,1773253934032,5020,-26350,30500,-5812993,1930334,1799608,0,0,0,286,459,234,389,405,414,387,322,295,122,108,197,0,
1,1773253934048,-2761,626,10461,846659,-124616,349414,0,0,0,379,403,297,462,326,521,572,274,411,322,248,517,0,
2,1773253934048,3460,-37362,22943,-4342030,1737300,586430,0,0,0,287,461,234,391,409,418,387,323,297,120,107,197,0,
1,1773253934064,-2900,540,10978,1078788,-133168,389732,0,0,0,391,413,292,456,342,539,556,241,419,300,216,543,0,
2,1773253934064,-3570,-43019,16994,-2517986,1986533,-1014036,0,0,0,287,460,231,391,409,417,387,326,295,122,111,197,0,
1,1773253934080,-2790,339,11505,1369559,-183259,439822,0,0,0,404,434,268,498,388,540,538,229,443,296,208,568,0,
2,1773253934080,-12892,-43670,17013,-751364,1204626,-2056172,0,0,0,277,455,219,389,411,412,393,360,291,135,144,197,0,
1,1773253934096,-2321,23,12313,1758070,-280998,467922,0,0,0,438,438,251,505,394,544,502,224,454,271,182,585,0,
2,1773253934096,-15252,-39138,20133,937067,-775798,-2021963,0,0,0,267,451,216,376,407,403,438,457,285,145,184,187,0,
1,1773253934112,-2464,-196,13156,2166128,-373849,474031,0,0,0,442,443,233,523,402,560,466,202,471,262,166,587,0,
2,1773253934112,-5924,-15295,21555,2951700,-3662747,-994488,0,0,0,257,411,176,371,384,388,482,485,282,198,245,172,0,
1,1773253934128,-2981,-186,14022,2702467,-497244,566882,0,0,0,435,464,199,530,423,547,417,185,490,265,158,589,0,
2,1773253934128,5422,13692,16463,4028045,-5276653,-1221,0,0,0,265,394,183,366,367,398,494,495,288,198,267,172,0,
1,1773253934144,-3417,-81,14898,3313333,-616973,742812,0,0,0,430,458,196,512,427,551,362,162,497,246,141,589,0,
2,1773253934144,6590,19660,10098,4185648,-4495968,814894,0,0,0,271,394,184,368,358,407,519,519,297,226,320,169,0,
1,1773253934160,-4187,57,16271,4025601,-571769,961501,0,0,0,434,443,209,495,421,566,317,148,497,217,121,571,0,
2,1773253934160,-2971,2373,14252,4780631,-2130697,1106887,0,0,0,276,413,195,380,365,418,533,533,302,246,345,177,0,
1,1773253934176,-6125,291,18401,4960225,-361632,1276708,0,0,0,437,446,220,478,404,573,281,142,496,185,108,536,0,
2,1773253934176,-7552,-4316,20607,4773300,-537561,715934,0,0,0,283,438,215,400,380,433,547,546,315,252,343,200,0,
1,1773253934192,-9102,612,21660,5960823,-101403,1754404,0,0,0,421,443,227,454,377,559,256,138,478,165,101,479,0,
2,1773253934192,-3168,-464,20646,3474601,-213802,-106290,0,0,0,296,464,252,415,393,450,558,558,326,274,331,238,0,
1,1773253934208,-11198,325,25106,6822142,76969,2378709,0,0,0,373,409,225,424,354,513,247,151,420,160,102,392,0,
2,1773253934208,1430,1665,16238,2043955,-188146,-312763,0,0,0,321,485,285,424,405,465,571,571,332,273,312,288,0,
1,1773253934224,-11050,-81,27800,7478212,223576,2906496,0,0,0,309,391,204,375,331,443,249,179,348,136,122,311,0,
2,1773253934224,1789,516,11811,1080009,-98960,-18325,0,0,0,348,497,309,431,415,481,584,584,343,253,300,329,0,
1,1773253934240,-9370,894,29542,7893600,444709,3236364,0,0,0,263,362,206,327,276,379,264,205,307,138,145,233,0,
2,1773253934240,799,-416,10461,515570,-116064,131946,0,0,0,366,506,325,436,422,491,591,590,351,258,300,347,0,
1,1773253934256,-10217,2804,28308,8245458,348193,3436727,0,0,0,255,309,217,285,204,309,329,236,285,166,202,134,0,
2,1773253934256,540,268,10935,234572,-248011,70860,0,0,0,377,509,320,440,427,482,595,595,344,259,300,356,0,
1,1773253934272,-11586,7662,20569,8361523,-138055,3678630,0,0,0,273,305,228,289,190,309,350,256,300,179,230,140,0,
2,1773253934272,603,1139,10653,68416,-274889,23212,0,0,0,385,513,322,438,424,478,599,599,340,261,297,356,0,
1,1773253934288,-9179,13271,13218,7226535,21991,3755599,0,0,0,267,312,229,290,197,316,342,266,308,175,235,143,0,
2,1773253934288,574,1512,10337,-3665,-200363,9773,0,0,0,396,517,334,452,428,483,595,595,341,266,302,360,0,
1,1773253934304,-5608,18042,10916,4178318,690277,2662150,0,0,0,267,315,232,290,198,318,337,263,294,174,231,142,0,
2,1773253934304,550,1574,10318,18325,-105068,4886,0,0,0,396,517,330,441,429,486,596,597,346,267,303,367,0,
1,1773253934320,-3369,19880,10844,-478918,1413542,267558,0,0,0,265,316,233,290,201,319,346,267,289,175,233,142,0,
2,1773253934320,521,1651,10308,100181,-58643,-10995,0,0,0,397,517,331,441,429,486,594,593,344,264,296,367,0,
1,1773253934336,-4422,13917,9102,-4032932,1951103,-1908343,0,0,0,255,320,233,286,205,318,345,268,292,178,237,144,0,
2,1773253934336,459,1722,10241,200363,-9773,-23212,0,0,0,400,517,336,439,429,483,596,595,344,261,290,369,0,
1,1773253934352,-6958,7772,5752,-4579045,1838704,-2078163,0,0,0,249,323,236,283,205,321,344,270,306,175,238,145,0,
2,1773253934352,435,1679,10155,307876,56199,-26878,0,0,0,405,520,329,440,429,490,588,589,347,261,281,385,0,
1,1773253934368,-7470,5374,3871,-4153883,893084,-1087340,0,0,0,252,323,239,286,204,324,348,273,316,178,241,147,0,
2,1773253934368,521,1521,10035,361632,107512,-25656,0,0,0,409,521,319,447,436,489,585,585,340,259,267,395,0,
1,1773253934384,-5077,5608,4680,-4232074,69638,-248011,0,0,0,255,323,241,289,204,326,351,274,317,186,248,150,0,
2,1773253934384,622,1383,9901,368962,124616,-25656,0,0,0,418,522,323,445,435,486,589,579,329,254,252,405,0,
1,1773253934400,-3263,6422,6882,-5059185,221133,-199142,0,0,0,252,323,241,287,205,326,349,274,315,186,252,151,0,
2,1773253934400,703,1311,9801,343306,102625,-28099,0,0,0,421,524,325,445,432,485,590,573,331,247,235,410,0,
1,1773253934416,-3795,6073,8394,-5854532,373849,-345749,0,0,0,254,326,240,286,205,320,342,272,302,186,252,144,0,
2,1773253934416,784,1263,9758,320093,61086,-32986,0,0,0,423,526,324,448,433,487,588,568,341,244,227,414,0,
1,1773253934432,-4943,4795,9509,-6372546,8552,-461814,0,0,0,257,326,240,291,210,319,344,272,295,188,252,141,0,
2,1773253934432,832,1253,9767,301767,3665,-45204,0,0,0,427,529,324,454,439,493,582,563,348,247,222,425,0,
1,1773253934448,-4422,3627,10887,-6597344,-621860,-559552,0,0,0,252,325,239,284,215,319,342,272,300,188,252,144,0,
2,1773253934448,813,1268,9820,310319,-48869,-58643,0,0,0,434,534,328,460,445,499,582,547,348,282,251,432,0,
1,1773253934464,-4015,2708,12356,-6763499,-949284,-717155,0,0,0,254,326,237,289,210,319,345,275,296,188,254,144,0,
2,1773253934464,775,1258,9853,334754,-87964,-67195,0,0,0,444,540,332,459,446,499,591,527,349,313,281,438,0,
1,1773253934480,-4350,1794,14051,-6814812,-1174082,-825889,0,0,0,254,326,237,288,210,319,349,279,298,189,255,144,0,
2,1773253934480,698,1201,9877,365297,-100181,-69638,0,0,0,457,543,333,461,452,501,592,517,357,266,218,466,0,
1,1773253934496,-4651,1048,16180,-6735400,-1494176,-818559,0,0,0,255,330,238,288,211,319,344,277,295,188,259,143,0,
2,1773253934496,612,1143,9944,397062,-87964,-70860,0,0,0,460,545,341,473,459,521,588,498,366,245,188,490,0,
1,1773253934512,-4359,650,18554,-6638883,-1762957,-748920,0,0,0,254,330,239,292,211,322,347,274,299,190,256,142,0,
2,1773253934512,612,1105,10050,434936,-51312,-69638,0,0,0,469,551,352,478,461,525,588,481,375,247,183,499,0,
1,1773253934528,-4206,191,21177,-6605896,-1830152,-874759,0,0,0,254,328,240,290,214,323,345,273,301,188,253,142,0,
2,1773253934528,760,1072,10122,499687,-24434,-75747,0,0,0,493,560,360,484,469,521,589,463,382,255,178,512,0,
1,1773253934544,-5187,-588,23799,-6486167,-1875356,-1264491,0,0,0,255,330,243,288,213,323,344,274,300,186,250,144,0,
2,1773253934544,875,1000,10174,586430,-23212,-92851,0,0,0,496,561,346,491,485,537,583,432,397,251,170,533,0,
1,1773253934560,-6408,-2244,26857,-6179512,-2184454,-1929112,0,0,0,254,336,245,288,222,323,347,277,302,192,246,145,0,
2,1773253934560,861,890,10203,671951,-26878,-114842,0,0,0,511,572,367,494,485,529,575,387,393,266,179,567,0,
1,1773253934576,-6585,-5991,30648,-5786115,-2629163,-2812423,0,0,0,254,336,243,292,224,326,351,276,306,197,241,146,0,
2,1773253934576,837,765,10318,746477,12217,-138055,0,0,0,520,577,372,502,495,541,564,350,407,272,179,575,0,
1,1773253934592,-6604,-13859,32031,-5552765,-2613281,-3351206,0,0,0,256,331,243,298,210,329,354,271,305,193,238,147,0,
2,1773253934592,1028,626,10547,824668,83077,-179594,0,0,0,528,579,363,508,501,547,554,313,414,273,176,583,0,
1,1773253934608,-7647,-24096,29236,-5390274,-2321287,-3100751,0,0,0,256,331,243,301,207,329,355,268,305,194,233,147,0,
2,1773253934608,1450,536,11031,957836,142942,-265115,0,0,0,538,582,356,525,514,555,536,279,428,277,174,597,0,
1,1773253934624,-5714,-35118,22100,-4822170,-2410474,-1791056,0,0,0,260,329,240,308,208,329,361,265,305,197,232,140,0,
2,1773253934624,1612,512,11753,1186300,147829,-368962,0,0,0,548,590,351,536,523,565,511,259,438,280,173,610,0,
1,1773253934640,4536,-41263,16367,-3313333,-2657263,-158824,0,0,0,260,328,238,304,209,329,365,270,304,198,234,139,0,
2,1773253934640,1100,512,12629,1626123,53756,-421497,0,0,0,559,599,342,537,528,573,474,249,438,278,175,617,0,
1,1773253934656,14740,-44627,14300,-1357342,-1639562,1012814,0,0,0,247,317,218,299,203,314,373,291,294,237,297,137,0,
2,1773253934656,703,416,13352,2108706,-26878,-398284,0,0,0,565,603,319,538,542,579,440,244,449,272,177,623,0,
1,1773253934672,13476,-41402,17190,692721,814894,1307251,0,0,0,241,311,209,290,198,298,424,371,282,271,365,121,0,
2,1773253934672,914,325,14209,2648711,-74525,-356745,0,0,0,571,600,284,543,561,584,403,239,465,271,179,629,0,
1,1773253934688,3527,-21780,17884,3138625,3321885,1362229,0,0,0,249,276,173,292,178,261,454,435,262,308,404,95,0,
2,1773253934688,1598,335,15156,3269350,-197920,-382401,0,0,0,582,594,261,540,567,585,335,226,454,278,182,623,0,
1,1773253934704,-7221,7992,15137,4686558,4401894,1171639,0,0,0,256,272,161,295,169,261,469,468,259,343,419,92,0,
2,1773253934704,2373,248,16085,3966958,-362853,-485026,0,0,0,583,593,262,529,564,581,302,215,448,274,187,613,0,
1,1773253934720,-6379,12285,14912,4915021,3262020,423940,0,0,0,261,273,164,305,163,274,492,493,267,382,434,89,0,
2,1773253934720,3192,119,17377,4695110,-471587,-682947,0,0,0,577,604,253,529,569,589,286,188,428,245,164,595,0,
1,1773253934736,588,521,19947,5013981,1409876,-338419,0,0,0,261,280,181,310,168,292,510,510,282,416,457,109,0,
2,1773253934736,4173,-124,20363,5604077,-566882,-992045,0,0,0,560,587,245,524,555,572,284,164,430,237,156,560,0,
1,1773253934752,3029,-3651,22957,3947411,599869,-229685,0,0,0,274,296,209,332,196,324,518,518,305,425,462,126,0,
2,1773253934752,5393,-363,24412,6508158,-569326,-1309695,0,0,0,528,564,245,510,532,564,284,157,410,221,138,488,0,
1,1773253934768,234,-1531,19310,2370157,377514,136833,0,0,0,285,317,248,349,218,359,523,523,327,433,469,169,0,
2,1773253934768,6456,440,28633,7386582,-323758,-1663996,0,0,0,433,543,221,489,511,528,299,166,388,206,136,417,0,
1,1773253934784,-3302,1263,12304,1169196,172263,78190,0,0,0,296,329,276,359,223,381,534,534,336,449,485,220,0,
2,1773253934784,6255,2287,31093,8076860,-96516,-1976759,0,0,0,367,495,186,438,467,469,321,207,338,181,127,360,0,
1,1773253934800,-2847,727,9332,783129,26878,-254119,0,0,0,312,342,277,363,224,387,545,545,331,453,497,244,0,
2,1773253934800,5972,4666,31299,8638856,106290,-2257757,0,0,0,296,452,202,380,408,411,346,281,302,130,107,239,0,
1,1773253934816,-1823,-153,9858,465479,97738,-302989,0,0,0,321,359,273,362,230,393,548,547,327,449,499,252,0,
2,1773253934816,7982,7221,28154,8795237,540004,-2564412,0,0,0,287,447,221,367,394,404,359,315,297,119,109,213,0,
1,1773253934832,-1679,258,10897,161268,184481,-162490,0,0,0,325,360,287,368,236,400,552,549,332,458,504,273,0,
2,1773253934832,9806,11864,16755,7694458,757472,-3110525,0,0,0,289,451,227,369,398,409,358,319,294,120,113,213,0,
1,1773253934848,-1919,1220,10571,62308,116064,-63529,0,0,0,334,368,281,363,246,401,554,549,334,465,512,299,0,
2,1773253934848,6896,16721,9686,4561941,125838,-3310889,0,0,0,286,453,228,369,400,407,359,317,287,121,110,211,0,
1,1773253934864,-1976,1560,10112,131946,15882,-19547,0,0,0,336,363,284,371,230,408,560,548,339,456,508,334,0,
2,1773253934864,1928,18597,12108,-397062,-1273043,-1797165,0,0,0,284,453,227,369,401,405,362,318,284,120,109,209,0,
1,1773253934880,-1852,1397,10160,235793,-47647,10995,0,0,0,337,364,283,376,234,416,562,550,353,470,504,331,0,
2,1773253934880,2378,14151,11567,-3940080,-2590068,92851,0,0,0,282,454,227,368,402,405,353,321,287,118,111,207,0,
1,1773253934896,-1794,1306,10289,310319,-113620,45204,0,0,0,336,366,281,372,232,416,564,529,344,458,488,346,0,
2,1773253934896,7250,7413,5915,-4365242,-2420248,662177,0,0,0,278,455,228,366,402,405,345,323,288,128,127,208,0,
1,1773253934912,-1804,1325,10193,360410,-185703,69638,0,0,0,337,367,275,377,233,416,563,511,340,444,460,353,0,
2,1773253934912,9169,4245,2464,-4048814,-1119105,311541,0,0,0,275,457,230,366,400,404,360,326,286,147,156,205,0,
1,1773253934928,-1861,1234,10260,384845,-248011,76969,0,0,0,338,370,279,379,234,416,559,495,349,441,448,344,0,
2,1773253934928,6331,5044,3866,-4106236,216246,-128281,0,0,0,275,457,228,370,403,405,362,327,287,153,167,204,0,
1,1773253934944,-2029,1110,11447,312763,-223576,75747,0,0,0,336,372,273,381,237,418,556,491,348,431,439,343,0,
2,1773253934944,4058,5891,6317,-4724431,310319,152716,0,0,0,276,461,230,372,403,405,356,322,280,155,171,202,0,
1,1773253934960,-2105,1052,11064,267558,-197920,78190,0,0,0,333,370,267,380,238,420,552,480,349,424,427,350,0,
2,1773253934960,4747,5302,7154,-5254662,280998,620639,0,0,0,277,461,230,372,406,406,360,326,280,159,174,204,0,
1,1773253934976,-2077,1014,9528,277332,-200363,89186,0,0,0,331,367,262,381,241,422,547,473,355,416,420,351,0,
2,1773253934976,5838,4211,7729,-5511226,883311,927293,0,0,0,277,457,226,373,411,407,360,328,279,150,164,202,0,
1,1773253934992,-2053,971,8987,254119,-169820,97738,0,0,0,330,368,260,381,243,421,549,475,359,399,417,346,0,
2,1773253934992,5159,3632,9274,-5707924,1572367,1172861,0,0,0,279,458,233,375,413,412,364,334,288,141,149,207,0,
1,1773253935008,-2048,971,9365,183259,-105068,97738,0,0,0,328,370,262,379,244,421,556,477,368,384,411,346,0,
2,1773253935008,3862,3297,11036,-5902179,1826487,1453859,0,0,0,279,459,232,374,412,408,365,335,286,137,144,203,0,
1,1773253935024,-2043,1033,9581,140499,-53756,91629,0,0,0,325,369,265,379,244,426,560,477,372,381,405,356,0,
2,1773253935024,3723,2775,12500,-6078109,1792278,1721418,0,0,0,279,459,233,374,412,408,366,336,286,132,133,204,0,
1,1773253935040,-1990,1081,9590,162490,-26878,85521,0,0,0,328,371,263,381,243,432,562,466,358,383,399,373,0,
2,1773253935040,4015,2431,14017,-6216164,1863138,1803274,0,0,0,281,461,235,374,411,408,365,336,287,123,121,201,0,
1,1773253935056,-1890,1057,9657,211359,-25656,84299,0,0,0,335,383,265,382,257,438,558,461,362,387,394,394,0,
2,1773253935056,3991,2239,16219,-6387206,2041511,1698205,0,0,0,282,461,235,376,413,409,365,335,287,116,114,197,0,
1,1773253935072,-1813,981,9777,267558,-76969,92851,0,0,0,342,376,264,390,265,439,563,452,355,398,379,423,0,
2,1773253935072,3560,2167,18875,-6563136,2123367,1501506,0,0,0,280,466,233,353,434,398,369,335,289,116,113,198,0,
1,1773253935088,-1861,904,9839,324980,-149051,117286,0,0,0,336,379,264,391,272,443,561,414,371,420,374,429,0,
2,1773253935088,3259,2172,21775,-6680422,2146580,1356120,0,0,0,281,465,235,356,430,400,372,334,289,117,114,199,0,
1,1773253935104,-2072,847,9796,395840,-197920,152716,0,0,0,341,378,265,403,292,473,561,392,386,380,350,450,0,
2,1773253935104,2943,1789,25766,-6723182,2173458,1398881,0,0,0,283,460,237,379,407,411,374,333,290,116,111,197,0,
1,1773253935120,-2263,856,9786,488692,-182037,195476,0,0,0,390,378,275,425,280,468,565,381,402,352,319,479,0,
2,1773253935120,2258,-148,29930,-6736621,2211332,1687209,0,0,0,282,459,234,379,406,411,378,332,294,116,109,198,0,
1,1773253935136,-2364,875,9925,596204,-139277,240680,0,0,0,391,400,279,445,285,467,570,338,414,343,289,497,0,
2,1773253935136,1229,-5647,33926,-6692639,2244318,2180788,0,0,0,283,457,231,384,409,415,385,328,297,121,109,200,0,
1,1773253935152,-2392,794,10131,715934,-107512,279776,0,0,0,383,433,319,439,330,491,569,312,424,327,269,524,0,
2,1773253935152,981,-16243,34453,-6406754,1933999,2359161,0,0,0,289,461,232,388,409,414,395,331,303,123,108,196,0,
1,1773253935168,-2455,574,10457,878424,-120951,318871,0,0,0,406,440,287,474,331,502,570,276,448,327,242,543,0,
2,1773253935168,3699,-31418,29006,-5555208,984714,1716531,0,0,0,286,461,228,387,409,414,386,325,299,120,108,194,0,
1,1773253935184,-2598,344,10830,1058018,-168598,361632,0,0,0,416,449,259,503,334,510,549,246,454,318,211,550,0,
2,1773253935184,3900,-42789,19071,-3822794,989601,-327423,0,0,0,288,462,232,390,410,417,386,325,299,123,110,196,0,
1,1773253935200,-2675,244,11194,1271821,-186924,405614,0,0,0,423,467,256,518,360,523,518,227,452,300,191,559,0,
2,1773253935200,-5020,-46546,14950,-1971872,1648114,-2310292,0,0,0,287,459,227,388,407,417,388,325,297,124,110,198,0,
1,1773253935216,-2297,57,11835,1588249,-196698,439822,0,0,0,435,486,243,525,372,539,494,225,460,283,184,573,0,
2,1773253935216,-16922,-43938,17214,-186924,1080009,-2974913,0,0,0,284,458,227,387,409,413,393,369,295,129,137,192,0,
1,1773253935232,-1804,-57,12969,2021963,-324980,419053,0,0,0,438,493,217,529,375,554,465,223,474,275,176,582,0,
2,1773253935232,-13098,-33084,20550,1705535,-1306029,-1905899,0,0,0,274,453,217,387,411,409,428,460,276,151,193,181,0,
1,1773253935248,-2110,81,13979,2524095,-505796,414166,0,0,0,444,487,196,544,408,561,414,190,489,277,165,586,0,
2,1773253935248,-1550,-5637,21143,3309667,-3130073,-822224,0,0,0,264,416,183,376,383,397,473,483,272,179,239,176,0,
1,1773253935264,-2991,129,14486,3087312,-604756,515570,0,0,0,456,490,204,554,423,561,360,172,506,265,149,583,0,
2,1773253935264,7384,21493,13381,3737273,-3733608,-34208,0,0,0,271,402,181,370,370,401,493,492,283,187,270,178,0,
1,1773253935280,-3642,-201,15238,3761708,-553443,715934,0,0,0,461,477,213,540,416,577,353,159,522,245,130,571,0,
2,1773253935280,5977,16458,8604,4263839,-3137403,509461,0,0,0,278,405,185,372,367,409,507,507,298,199,296,184,0,
1,1773253935296,-4757,-555,17004,4503298,-463035,948062,0,0,0,453,467,233,504,389,570,327,143,507,206,110,563,0,
2,1773253935296,-1694,-2857,14869,5316971,-1543045,885754,0,0,0,280,418,196,383,370,421,525,525,311,213,313,201,0,
1,1773253935312,-6824,-478,20009,5227784,-488692,1273043,0,0,0,453,447,231,488,371,545,311,134,502,165,88,531,0,
2,1773253935312,-4087,-4316,22569,4764748,-770911,585208,0,0,0,289,444,238,402,382,441,544,544,325,227,319,230,0,
1,1773253935328,-9260,23,23306,6025574,-529009,1745852,0,0,0,415,445,212,469,348,528,251,127,467,161,92,472,0,
2,1773253935328,-1493,19,21981,3120299,-696386,-42760,0,0,0,311,471,285,418,394,459,563,563,338,239,318,265,0,
1,1773253935344,-11050,119,25852,6752504,-415388,2304183,0,0,0,367,411,196,425,323,476,236,141,407,159,97,395,0,
2,1773253935344,1679,1067,15204,1474628,-416610,-162490,0,0,0,337,485,312,425,401,468,576,576,342,248,314,302,0,
1,1773253935360,-10337,607,28327,7389025,-50090,2864957,0,0,0,312,375,203,367,306,419,248,169,359,144,105,314,0,
2,1773253935360,2048,263,10882,702495,-106290,41538,0,0,0,360,497,333,429,409,477,582,582,344,254,311,328,0,
1,1773253935376,-9456,2651,29284,7786088,382401,3227811,0,0,0,269,340,204,318,250,353,292,209,312,153,157,186,0,
2,1773253935376,1268,52,10074,498466,-89186,166155,0,0,0,375,504,343,433,412,478,589,589,341,257,309,343,0,
1,1773253935392,-10165,6963,27154,8087855,685390,3436727,0,0,0,270,300,221,291,194,322,331,237,315,170,202,147,0,
2,1773253935392,1206,617,10437,329867,-262672,98960,0,0,0,386,509,344,436,420,481,591,591,342,260,308,354,0,
1,1773253935408,-11481,11911,18597,8153829,796568,3602883,0,0,0,276,285,232,285,178,321,343,250,334,180,225,152,0,
2,1773253935408,1206,1005,10418,128281,-331088,34208,0,0,0,397,515,355,436,422,481,601,601,346,268,311,354,0,
1,1773253935424,-11529,15070,11299,7180110,800233,3715282,0,0,0,274,297,231,288,188,325,338,257,329,182,236,151,0,
2,1773253935424,1048,1206,10279,17104,-240680,10995,0,0,0,398,516,355,437,423,482,600,600,346,322,360,349,0,
1,1773253935440,-7829,19325,10485,3381749,679282,2693915,0,0,0,273,305,229,289,194,320,339,263,310,182,240,146,0,
2,1773253935440,1043,1440,10275,43982,-120951,1221,0,0,0,403,515,355,442,422,486,598,597,342,269,304,360,0,
1,1773253935456,-3091,20636,11064,-2201558,1244943,337197,0,0,0,274,303,226,293,193,314,352,266,294,185,239,141,0,
2,1773253935456,1110,1617,10270,138055,-57421,-12217,0,0,0,408,519,352,441,424,487,601,601,351,266,294,361,0,
1,1773253935472,-4541,14151,9126,-4743979,2258979,-1264491,0,0,0,277,307,225,299,196,313,359,261,287,190,240,139,0,
2,1773253935472,1086,1588,10227,227241,-36651,-26878,0,0,0,410,523,352,433,465,477,587,586,358,262,285,370,0,
1,1773253935488,-8164,8327,6144,-5313305,2221106,-1494176,0,0,0,273,308,230,291,192,312,349,266,299,185,238,138,0,
2,1773253935488,1052,1497,10093,280998,1221,-34208,0,0,0,413,525,355,435,442,484,586,585,353,255,271,378,0,
1,1773253935504,-9796,5364,4460,-5132489,930958,-769690,0,0,0,276,309,237,298,196,313,353,269,295,185,238,135,0,
2,1773253935504,1072,1430,9935,318871,31764,-36651,0,0,0,418,530,358,434,433,485,587,580,345,255,258,388,0,
1,1773253935520,-7260,4977,5762,-5283984,-113620,-221133,0,0,0,272,308,234,295,196,313,353,268,294,187,243,138,0,
2,1773253935520,1124,1359,9834,339641,34208,-37873,0,0,0,421,530,357,441,433,492,584,571,349,245,244,385,0,
1,1773253935536,-5082,5015,7810,-5712811,-326202,-146607,0,0,0,272,309,238,293,193,314,352,270,308,190,246,140,0,
2,1773253935536,1201,1287,9782,344527,15882,-39095,0,0,0,425,529,355,445,429,494,579,561,352,240,233,387,0,
1,1773253935552,-5398,4723,9609,-6316346,-279776,-476474,0,0,0,271,309,240,293,193,319,350,265,312,193,247,145,0,
2,1773253935552,1282,1210,9743,328645,-28099,-42760,0,0,0,429,531,357,446,430,493,581,550,351,241,225,396,0,
1,1773253935568,-6068,3910,11036,-6794043,-630412,-805120,0,0,0,265,312,248,291,194,318,347,265,311,190,249,142,0,
2,1773253935568,1296,1162,9743,307876,-90408,-52534,0,0,0,433,535,361,449,432,492,583,538,351,243,220,404,0,
1,1773253935584,-5948,2536,12644,-7054271,-1297477,-1058018,0,0,0,261,314,250,289,195,317,344,268,311,185,250,142,0,
2,1773253935584,1239,1153,9767,294437,-140499,-63529,0,0,0,438,539,364,453,431,491,582,528,351,250,216,413,0,
1,1773253935600,-5144,1411,14405,-6969972,-1666440,-1136209,0,0,0,261,315,245,293,197,320,354,272,315,187,248,143,0,
2,1773253935600,1115,1153,9806,294437,-162490,-74525,0,0,0,442,545,365,456,437,496,585,520,357,255,212,425,0,
1,1773253935616,-4541,737,16314,-6756169,-1898569,-1136209,0,0,0,260,316,242,290,205,322,355,273,319,192,249,142,0,
2,1773253935616,1038,1095,9820,301767,-146607,-75747,0,0,0,446,553,364,455,443,501,581,517,364,242,203,434,0,
1,1773253935632,-4163,545,18458,-6538701,-2096489,-1064127,0,0,0,258,316,243,286,207,325,351,272,326,190,248,144,0,
2,1773253935632,1038,1038,9853,323758,-128281,-75747,0,0,0,464,553,379,460,445,506,587,507,367,238,187,442,0,
1,1773253935648,-3665,421,21253,-6357885,-2217440,-1044579,0,0,0,258,316,242,292,200,326,356,271,323,187,244,144,0,
2,1773253935648,1086,1014,9973,370184,-120951,-80634,0,0,0,469,563,373,465,454,519,586,489,382,239,179,463,0,
1,1773253935664,-3780,-100,24077,-6113539,-2208888,-1279151,0,0,0,261,318,239,295,201,318,353,270,302,189,239,139,0,
2,1773253935664,1148,981,10064,423940,-120951,-92851,0,0,0,477,566,377,474,467,524,587,468,382,244,176,480,0,
1,1773253935680,-4182,-1411,27260,-5754350,-2256536,-1770287,0,0,0,257,323,244,289,205,322,347,271,313,188,237,145,0,
2,1773253935680,1196,909,10107,487470,-134390,-114842,0,0,0,493,569,377,483,471,529,582,433,395,252,177,501,0,
1,1773253935696,-4254,-4508,30945,-5364618,-2419026,-2537534,0,0,0,260,328,246,293,206,325,352,269,310,191,232,145,0,
2,1773253935696,1206,813,10141,566882,-146607,-145385,0,0,0,504,573,388,494,483,540,576,401,404,254,173,527,0,
1,1773253935712,-5206,-11299,33151,-5413487,-2399478,-3221703,0,0,0,263,327,245,300,202,323,360,262,296,196,224,140,0,
2,1773253935712,1306,760,10299,670730,-152716,-185703,0,0,0,520,580,403,493,485,535,575,361,413,278,171,541,0,
1,1773253935728,-7537,-21301,30782,-5849645,-2191784,-3158173,0,0,0,255,326,243,295,207,335,347,262,311,193,233,140,0,
2,1773253935728,1531,746,10600,786794,-164933,-248011,0,0,0,532,592,395,502,504,547,563,315,414,267,168,566,0,
1,1773253935744,-6360,-33424,23886,-5830097,-2395813,-2010968,0,0,0,255,326,242,299,208,337,356,267,313,198,232,143,0,
2,1773253935744,1670,670,10988,929736,-153938,-323758,0,0,0,536,591,415,511,512,558,538,271,421,316,202,583,0,
1,1773253935760,5661,-43775,17386,-4207639,-2654820,-254119,0,0,0,257,327,242,301,211,338,352,265,310,196,234,145,0,
2,1773253935760,1454,559,11600,1152091,-94073,-394618,0,0,0,543,592,403,522,519,564,513,246,427,297,190,596,0,
1,1773253935776,17583,-48590,14228,-1805717,-1480737,949284,0,0,0,254,325,242,299,207,340,357,268,316,199,236,145,0,
2,1773253935776,1024,497,12586,1579697,0,-405614,0,0,0,553,596,381,533,534,573,481,236,429,272,179,604,0,
1,1773253935792,15276,-44206,14510,311541,786794,1175304,0,0,0,245,319,227,296,206,321,368,299,318,224,291,128,0,
2,1773253935792,1134,454,13558,2048842,23212,-388510,0,0,0,562,602,356,530,542,578,436,224,430,274,181,609,0,
1,1773253935808,4991,-32878,16783,2059837,2419026,1208291,0,0,0,240,307,212,298,201,305,412,379,285,267,362,113,0,
2,1773253935808,1722,382,14529,2697580,-112399,-411723,0,0,0,572,608,319,521,546,579,381,216,429,275,178,612,0,
1,1773253935824,-5738,-8624,18214,3550348,3202155,1215621,0,0,0,242,295,185,291,181,279,454,446,262,309,406,100,0,
2,1773253935824,2024,277,15199,3385415,-333532,-483805,0,0,0,577,607,281,519,556,580,331,214,426,276,181,612,0,
1,1773253935840,-10543,17918,14893,4136779,3640756,678060,0,0,0,252,290,162,290,164,261,475,475,262,337,420,91,0,
2,1773253935840,2038,253,15855,4102570,-518013,-568104,0,0,0,570,597,254,517,556,568,297,209,424,267,178,613,0,
1,1773253935856,-7145,15486,12462,4403116,3252246,-248011,0,0,0,262,291,159,310,160,271,491,491,268,367,431,87,0,
2,1773253935856,2723,411,17233,4797735,-569326,-696386,0,0,0,562,594,253,511,551,561,284,190,429,260,173,593,0,
1,1773253935872,856,-1651,16362,4987103,1705535,-1015258,0,0,0,265,290,172,333,166,297,508,508,279,409,452,89,0,
2,1773253935872,3866,598,19774,5597969,-645073,-921184,0,0,0,567,596,267,499,545,556,282,164,417,243,158,568,0,
1,1773253935888,4560,-4426,20641,4437325,403171,-801455,0,0,0,266,302,194,334,192,327,521,521,301,428,470,124,0,
2,1773253935888,5393,363,23598,6509379,-766025,-1242499,0,0,0,519,564,258,482,525,538,284,154,395,231,147,494,0,
1,1773253935904,1722,-430,19229,2690250,25656,89186,0,0,0,280,320,219,356,216,355,534,534,319,446,481,184,0,
2,1773253935904,6460,-86,27685,7400021,-582765,-1610240,0,0,0,437,543,216,467,508,501,300,170,368,208,141,414,0,
1,1773253935920,-3043,258,13883,1191187,166155,191811,0,0,0,296,328,235,370,230,395,543,541,333,457,497,238,0,
2,1773253935920,6326,191,30040,8130616,-124616,-1914451,0,0,0,374,500,196,423,467,453,320,216,316,183,129,368,0,
1,1773253935936,-2962,-564,11026,510683,95294,-133168,0,0,0,300,344,252,371,234,414,559,549,338,473,514,284,0,
2,1773253935936,5953,1943,30873,8827002,540004,-2223549,0,0,0,295,455,206,382,416,411,344,281,295,131,111,246,0,
1,1773253935952,-1493,-129,10581,290771,-62308,-212581,0,0,0,318,342,260,379,238,423,573,561,342,495,521,309,0,
