sole_id,timestamp,accel_x,accel_y,accel_z,gyro_x,gyro_y,gyro_z,magn_x,magn_y,magn_z,pressure_01,pressure_02,pressure_03,pressure_04,pressure_05,pressure_06,pressure_07,pressure_08,pressure_09,pressure_10,pressure_11,pressure_12,corrupt,brick
1,1775234504016,-966,-7083,8997,967610,3665,-316428,0,0,0,247,313,208,286,212,286,367,318,281,261,317,116,0,
2,1775234504016,1459,-880,11954,1761735,-128281,-291993,0,0,0,491,564,250,472,500,520,324,247,353,274,192,566,0,
1,1775234504032,492,-4206,10619,1154535,219911,-387288,0,0,0,245,301,190,285,201,270,396,356,270,298,364,101,0,
2,1775234504032,1512,-1100,12026,1995085,-271224,-332310,0,0,0,488,560,245,463,500,515,314,250,358,277,199,569,0,
1,1775234504048,1665,4168,10849,1591914,954171,-561996,0,0,0,241,293,177,283,192,265,428,402,263,331,399,98,0,
2,1775234504048,1517,-1316,12376,2272418,-366519,-389732,0,0,0,490,556,234,463,502,517,293,242,356,272,197,570,0,
1,1775234504064,1622,7470,9729,2153910,1343903,-455705,0,0,0,243,293,181,286,193,271,452,438,273,357,418,96,0,
2,1775234504064,2081,-1426,13395,2634050,-454483,-467922,0,0,0,496,548,233,456,499,506,275,236,355,267,192,560,0,
1,1775234504080,1048,3330,11591,2748893,918741,166155,0,0,0,249,294,200,289,188,287,468,455,298,388,427,100,0,
2,1775234504080,2995,-1493,14926,3110525,-582765,-621860,0,0,0,494,545,236,446,493,495,271,222,356,255,182,533,0,
1,1775234504096,-1153,191,16262,2833192,400727,829554,0,0,0,250,293,226,288,186,309,481,480,303,400,434,117,0,
2,1775234504096,3632,-1507,17128,3760486,-767246,-861319,0,0,0,482,540,235,443,490,496,268,207,352,235,167,485,0,
1,1775234504112,-3512,-378,17281,2313957,177150,808785,0,0,0,256,305,227,300,201,290,486,482,277,421,439,114,0,
2,1775234504112,3876,-1622,19712,4528954,-976162,-1103222,0,0,0,454,527,229,438,485,485,261,195,339,223,166,425,0,
1,1775234504128,-3503,253,14017,1462411,4886,252898,0,0,0,264,319,243,311,212,303,494,488,281,422,446,127,0,
2,1775234504128,4359,-1631,22014,5318192,-1071457,-1299921,0,0,0,402,510,218,419,465,452,263,190,318,225,178,369,0,
1,1775234504144,-2646,679,10672,846659,-64751,-86742,0,0,0,288,315,290,340,207,337,496,487,294,438,455,170,0,
2,1775234504144,5211,-1603,22699,5971818,-691499,-1544267,0,0,0,344,483,206,389,436,423,278,207,290,217,184,325,0,
1,1775234504160,-2258,603,9298,535117,24434,-125838,0,0,0,301,318,296,340,211,340,508,491,298,448,469,179,0,
2,1775234504160,5077,-1282,22431,6432410,-122173,-1838704,0,0,0,302,452,209,354,400,392,300,232,261,198,189,284,0,
1,1775234504176,-2220,387,9700,256563,156381,-76969,0,0,0,327,325,272,362,215,326,518,488,278,468,481,173,0,
2,1775234504176,5340,909,20244,6599788,397062,-2204001,0,0,0,249,426,211,327,367,358,319,279,254,160,175,205,0,
1,1775234504192,-2177,607,10083,30543,204028,-46425,0,0,0,334,337,273,372,216,334,520,478,284,478,481,200,0,
2,1775234504192,6465,3034,15429,6382320,400727,-2607172,0,0,0,254,434,230,327,365,360,326,307,261,132,141,192,0,
1,1775234504208,-2081,1000,10011,-1221,184481,-25656,0,0,0,326,341,280,363,222,356,522,486,297,479,486,209,0,
2,1775234504208,7896,6350,8796,5390274,-223576,-3065321,0,0,0,257,441,236,327,364,354,319,302,254,120,124,184,0,
1,1775234504224,-1938,1153,9992,64751,129503,-4886,0,0,0,320,341,286,360,232,374,529,488,313,477,492,210,0,
2,1775234504224,6657,12601,7954,2307848,-448375,-2901609,0,0,0,256,441,231,327,368,354,321,305,253,116,122,181,0,
1,1775234504240,-1876,1110,10074,151494,24434,8552,0,0,0,321,346,282,362,237,365,540,485,324,465,497,209,0,
2,1775234504240,3129,14276,9777,-1544267,-634078,-1716531,0,0,0,252,439,227,328,378,356,327,309,253,118,124,184,0,
1,1775234504256,-1947,1091,10117,213802,-83077,19547,0,0,0,325,350,277,364,239,354,545,474,329,460,499,213,0,
2,1775234504256,3125,8662,8557,-3502701,-1143539,-147829,0,0,0,248,439,224,332,377,359,327,313,254,120,126,185,0,
1,1775234504272,-2062,1043,9992,280998,-166155,36651,0,0,0,328,352,283,369,241,367,542,458,339,469,491,227,0,
2,1775234504272,6709,4024,4532,-3051882,-733038,487470,0,0,0,246,439,225,334,377,361,327,314,256,122,127,185,0,
1,1775234504288,-2158,894,9705,296880,-155159,47647,0,0,0,333,356,291,372,240,380,538,456,343,462,478,237,0,
2,1775234504288,6666,4278,3718,-2598620,366519,463035,0,0,0,248,440,228,333,375,360,327,315,257,127,130,184,0,
1,1775234504304,-2206,775,9523,265115,-100181,57421,0,0,0,334,359,289,373,246,386,534,449,330,452,459,252,0,
2,1775234504304,3019,7044,6197,-3090978,1012814,483805,0,0,0,248,440,229,331,372,358,327,316,258,128,131,189,0,
1,1775234504320,-2153,784,9566,226020,-41538,67195,0,0,0,333,381,288,374,260,387,540,446,338,450,448,254,0,
2,1775234504320,1258,7925,8059,-4015828,957836,796568,0,0,0,246,439,226,330,372,358,329,317,259,122,128,189,0,
1,1775234504336,-2086,842,9672,224798,-15882,76969,0,0,0,337,380,277,394,274,383,543,430,334,446,438,269,0,
2,1775234504336,2057,6393,8513,-4520402,1010371,974940,0,0,0,245,439,225,333,374,360,330,318,258,119,125,181,0,
1,1775234504352,-2043,842,9739,255341,-26878,79412,0,0,0,340,397,275,400,298,388,517,437,339,467,414,288,0,
2,1775234504352,2100,5173,9327,-4669453,1296256,923628,0,0,0,246,439,227,335,376,363,331,319,258,118,124,183,0,
1,1775234504368,-2033,775,9729,277332,-47647,78190,0,0,0,343,404,275,394,312,405,527,426,358,451,410,318,0,
2,1775234504368,1249,5106,10591,-4706105,1496619,757472,0,0,0,247,440,228,332,373,362,334,322,261,117,123,184,0,
1,1775234504384,-2053,732,9581,283441,-54977,75747,0,0,0,344,400,266,383,308,397,533,404,334,428,400,320,0,
2,1775234504384,703,5503,12079,-4949230,1495398,635299,0,0,0,253,442,231,332,372,361,334,321,261,117,123,181,0,
1,1775234504400,-2057,737,9121,254119,-18325,81855,0,0,0,347,408,276,385,303,403,531,397,340,411,390,334,0,
2,1775234504400,818,5484,13314,-5258327,1470963,579100,0,0,0,245,439,226,336,382,367,339,324,263,126,128,185,0,
1,1775234504416,-2072,689,9270,295658,-20769,87964,0,0,0,350,409,288,386,330,406,525,388,359,400,380,351,0,
2,1775234504416,1335,5111,14563,-5550321,1527163,560774,0,0,0,247,442,230,336,376,365,339,324,263,119,125,185,0,
1,1775234504432,-2077,598,9796,387288,-64751,90408,0,0,0,350,401,289,391,321,419,520,373,368,390,367,365,0,
2,1775234504432,1636,4828,16333,-5782450,1696983,598647,0,0,0,246,441,228,337,376,365,339,324,262,118,125,182,0,
1,1775234504448,-2048,507,9858,410501,-81855,92851,0,0,0,351,399,289,399,293,441,519,356,372,387,349,385,0,
2,1775234504448,1737,4613,18339,-5998696,1844813,723264,0,0,0,248,441,229,336,376,365,341,324,262,118,126,183,0,
1,1775234504464,-2043,440,9753,400727,-81855,95294,0,0,0,354,406,296,401,305,453,520,341,380,389,331,408,0,
2,1775234504464,1957,4297,20526,-6203947,1936442,972497,0,0,0,247,440,230,336,373,364,342,324,264,121,125,184,0,
1,1775234504480,-2086,402,9786,400727,-83077,102625,0,0,0,355,409,302,396,302,458,516,323,388,374,320,417,0,
2,1775234504480,2258,3608,23034,-6365215,2003637,1464854,0,0,0,248,440,230,338,373,366,342,324,264,121,123,183,0,
1,1775234504496,-2153,378,9873,414166,-78190,113620,0,0,0,367,406,297,398,306,460,512,305,390,358,305,427,0,
2,1775234504496,2550,2215,24991,-6432410,2051285,2074498,0,0,0,247,438,228,339,374,368,344,322,265,120,123,183,0,
1,1775234504512,-2220,344,9959,444709,-64751,133168,0,0,0,391,402,281,404,308,453,493,292,387,344,289,432,0,
2,1775234504512,3149,-2144,26881,-6327342,2161241,2776993,0,0,0,249,439,229,319,390,359,347,321,267,121,125,183,0,
1,1775234504528,-2211,282,10035,508239,-73303,169820,0,0,0,394,402,267,419,318,457,485,260,389,333,252,457,0,
2,1775234504528,3283,-9370,28274,-6010913,2229658,2998126,0,0,0,252,441,230,316,395,358,348,322,270,121,124,184,0,
1,1775234504544,-2196,186,10112,596204,-112399,213802,0,0,0,386,414,274,412,324,482,474,246,394,325,240,469,0,
2,1775234504544,3374,-18607,27767,-5420818,1907121,2575407,0,0,0,253,441,230,343,375,370,348,321,272,121,122,184,0,
1,1775234504560,-2220,81,10184,686612,-152716,261450,0,0,0,378,416,264,408,331,485,467,239,424,302,225,485,0,
2,1775234504560,3206,-27307,22852,-4146553,1372003,1477072,0,0,0,258,444,233,344,374,370,349,321,274,120,121,184,0,
1,1775234504576,-2316,4,10385,784350,-183259,306654,0,0,0,407,434,263,433,385,463,455,218,406,285,196,496,0,
2,1775234504576,-239,-31074,18123,-2594955,1270599,315206,0,0,0,256,442,228,341,372,369,350,329,272,124,129,186,0,
1,1775234504592,-2287,-43,10930,939510,-232128,355523,0,0,0,401,431,256,416,355,486,435,210,411,268,181,527,0,
2,1775234504592,-5699,-32012,16391,-1115439,935845,-518013,0,0,0,241,426,209,334,370,361,363,371,266,138,162,186,0,
1,1775234504608,-2182,-105,11519,1182635,-271224,377514,0,0,0,402,440,239,423,359,497,408,205,421,273,193,542,0,
2,1775234504608,-9437,-33725,18391,321315,-106290,-884532,0,0,0,241,415,218,337,370,365,387,427,264,183,229,178,0,
1,1775234504624,-2225,-181,11907,1458746,-283441,389732,0,0,0,406,431,226,439,360,512,383,197,414,274,191,554,0,
2,1775234504624,-9069,-28365,20244,2520429,-2322509,-724486,0,0,0,239,398,188,333,354,348,416,463,246,195,245,170,0,
1,1775234504640,-2431,-196,12395,1815491,-259006,411723,0,0,0,411,430,220,452,369,523,355,187,419,266,180,560,0,
2,1775234504640,-674,-3326,15577,4129449,-3638313,-370184,0,0,0,246,392,186,335,349,352,446,478,252,192,276,167,0,
1,1775234504656,-2837,-234,12993,2204001,-194255,456927,0,0,0,415,447,216,454,380,522,310,183,440,251,174,561,0,
2,1775234504656,3575,9351,12782,4376238,-3121521,20769,0,0,0,246,392,182,340,349,360,460,480,258,189,290,168,0,
1,1775234504672,-3359,-382,13677,2686585,-73303,560774,0,0,0,424,450,214,450,373,514,261,179,437,239,166,559,0,
2,1775234504672,354,5144,15113,4357912,-1473406,311541,0,0,0,248,396,187,345,353,365,474,488,264,201,303,174,0,
1,1775234504688,-3919,-469,14328,3237585,70860,733038,0,0,0,454,444,211,455,389,502,244,168,410,243,157,538,0,
2,1775234504688,-3206,-617,19200,4196644,-416610,-51312,0,0,0,250,404,206,347,354,374,484,494,266,207,311,173,0,
1,1775234504704,-4608,-521,15252,3809355,195476,952949,0,0,0,466,459,210,441,442,485,230,181,405,212,150,516,0,x
2,1775234504704,-603,258,17980,3506366,-267558,-465479,0,0,0,254,412,227,353,355,383,490,503,262,211,326,177,0,x
1,1775234504720,-5374,-818,17018,4432438,293215,1232726,0,0,0,442,423,209,422,409,464,226,158,410,198,119,485,0,
2,1775234504720,2364,1737,13596,2609616,-295658,-270002,0,0,0,268,425,258,364,362,387,505,513,268,223,341,187,0,
1,1775234504736,-6671,-1249,19937,5198463,365297,1557706,0,0,0,414,383,206,414,361,460,206,158,396,190,113,441,0,
2,1775234504736,2340,1555,10720,1809382,-379958,74525,0,0,0,291,443,288,377,376,394,524,525,279,236,349,201,0,
1,1775234504752,-8714,-1292,22210,5916840,436157,1935221,0,0,0,388,385,202,379,347,438,207,157,380,166,121,360,0,
2,1775234504752,1110,382,10768,996932,-509461,212581,0,0,0,314,457,299,394,386,402,534,537,281,243,350,215,0,
1,1775234504768,-9810,-1368,23144,6464175,691499,2432465,0,0,0,335,380,216,342,330,395,208,178,362,160,132,310,0,
2,1775234504768,545,129,11328,295658,-538783,140499,0,0,0,331,462,308,404,386,405,541,543,287,250,348,227,0,
1,1775234504784,-8896,-837,24096,6852686,1042136,2875953,0,0,0,276,338,201,296,263,355,224,188,314,152,148,248,0,
2,1775234504784,320,765,11012,-9773,-431270,48869,0,0,0,339,462,315,402,389,411,546,547,292,251,347,238,0,
1,1775234504800,-7891,545,25034,7205766,1286482,3114190,0,0,0,245,302,197,260,212,288,281,227,276,163,192,149,0,
2,1775234504800,416,1363,10428,15882,-194255,1221,0,0,0,347,463,317,404,389,415,543,545,290,252,348,245,0,
1,1775234504816,-9882,3689,20334,7409795,993266,3211929,0,0,0,254,292,200,265,194,267,313,243,272,175,212,118,0,
2,1775234504816,660,1488,10241,51312,-48869,-8552,0,0,0,356,469,321,403,388,415,548,552,285,257,348,249,0,
1,1775234504832,-10346,7781,13400,6957755,659734,3323106,0,0,0,261,294,201,270,210,264,320,247,275,179,216,120,0,
2,1775234504832,789,1454,10145,54977,-12217,-17104,0,0,0,355,467,314,400,383,417,552,560,287,257,344,242,0,
1,1775234504848,-8561,13098,9973,4656014,452040,2489886,0,0,0,258,297,200,269,217,264,320,251,275,180,219,122,0,
2,1775234504848,737,1483,10040,61086,-13439,-26878,0,0,0,355,471,319,400,386,416,550,555,293,257,343,254,0,
1,1775234504864,-5685,16534,10078,722042,524122,235793,0,0,0,259,298,198,278,201,272,321,250,276,182,219,122,0,
2,1775234504864,698,1560,10031,106290,0,-31764,0,0,0,358,469,328,393,402,421,550,552,291,259,342,260,0,
1,1775234504880,-5762,13610,9466,-2243097,992045,-1874134,0,0,0,257,298,197,278,199,270,320,249,280,180,221,122,0,
2,1775234504880,727,1584,10083,179594,19547,-34208,0,0,0,359,470,333,401,389,423,548,554,287,258,340,260,0,
1,1775234504896,-8738,8183,6188,-3034778,736703,-2138028,0,0,0,256,300,200,274,199,268,320,251,280,180,219,121,0,
2,1775234504896,765,1464,10045,228463,40317,-31764,0,0,0,360,470,325,402,384,425,552,555,292,257,335,264,0,
1,1775234504912,-8394,6073,4752,-3169168,-226020,-1417207,0,0,0,254,300,202,273,199,269,321,251,279,183,221,119,0,
2,1775234504912,804,1373,9964,232128,48869,-29321,0,0,0,363,472,319,407,390,429,551,548,295,255,331,270,0,
1,1775234504928,-4637,6422,6231,-3867998,-689055,-918741,0,0,0,252,300,201,275,201,270,320,252,280,183,225,121,0,
2,1775234504928,851,1363,9949,215024,32986,-29321,0,0,0,366,475,317,409,392,429,551,541,298,251,320,273,0,
1,1775234504944,-2804,6365,8021,-4856378,-309097,-967610,0,0,0,252,306,202,275,201,271,320,252,280,185,229,122,0,
2,1775234504944,875,1359,9954,213802,12217,-32986,0,0,0,369,477,318,409,392,428,547,532,298,276,317,273,0,
1,1775234504960,-3780,5015,8781,-5517334,-47647,-1091005,0,0,0,250,305,200,271,201,271,318,252,281,181,225,123,0,
2,1775234504960,880,1349,9944,233350,-7330,-39095,0,0,0,373,477,317,412,396,430,544,524,297,272,286,281,0,
1,1775234504976,-4221,3498,9437,-5809328,-335975,-1033583,0,0,0,250,305,204,274,205,273,313,248,282,185,224,127,0,
2,1775234504976,875,1320,9916,256563,-23212,-45204,0,0,0,376,479,312,415,397,430,548,517,298,230,231,297,0,
1,1775234504992,-3120,2651,10614,-5847202,-864985,-937067,0,0,0,250,304,201,275,203,272,318,250,285,187,223,123,0,
2,1775234504992,856,1292,9916,277332,-32986,-51312,0,0,0,381,485,311,416,395,433,552,503,304,230,223,309,0,
1,1775234505008,-2024,2445,12270,-5924171,-1048244,-1027475,0,0,0,254,305,201,277,201,269,318,252,283,187,224,122,0,
2,1775234505008,837,1292,9949,304210,-34208,-58643,0,0,0,388,491,316,417,399,437,546,488,310,232,214,322,0,
1,1775234505024,-1919,2081,14041,-6052452,-1105666,-1148426,0,0,0,253,306,202,277,202,270,321,254,284,187,224,120,0,
2,1775234505024,842,1273,9983,343306,-26878,-58643,0,0,0,393,490,320,424,402,443,543,474,311,242,215,336,0,
1,1775234505040,-2335,1416,15817,-6148969,-1237612,-1115439,0,0,0,251,306,202,275,203,270,322,255,285,187,225,120,0,
2,1775234505040,880,1172,9997,376292,-29321,-56199,0,0,0,398,489,316,426,404,455,534,455,318,330,303,341,0,
1,1775234505056,-2479,670,17688,-6191730,-1402546,-963945,0,0,0,253,304,205,274,200,267,319,252,283,186,224,117,0,
2,1775234505056,904,1091,9997,392175,-47647,-50090,0,0,0,405,505,315,428,423,454,544,450,328,244,199,371,0,
1,1775234505072,-2574,-129,19521,-6179512,-1470963,-835663,0,0,0,255,303,208,274,198,267,319,248,282,184,219,115,0,
2,1775234505072,928,1052,10045,425162,-73303,-48869,0,0,0,417,507,317,429,417,455,535,427,336,234,183,380,0,
1,1775234505088,-3747,-1057,21153,-6062226,-1446528,-965167,0,0,0,256,305,205,277,200,273,322,248,283,189,221,118,0,
2,1775234505088,923,985,10122,476474,-74525,-58643,0,0,0,428,517,346,437,429,473,537,408,341,236,180,398,0,
1,1775234505104,-5532,-2292,23034,-5856975,-1529606,-1325577,0,0,0,252,305,205,273,198,277,319,250,290,187,221,120,0,
2,1775234505104,923,899,10203,532674,-52534,-79412,0,0,0,446,522,335,443,434,476,527,382,345,242,176,419,0,
1,1775234505120,-6676,-4522,25312,-5668829,-1758070,-1981646,0,0,0,252,305,208,277,203,276,323,251,291,192,222,120,0,
2,1775234505120,971,832,10246,598647,-18325,-107512,0,0,0,453,531,332,451,443,481,518,356,348,248,173,439,0,
1,1775234505136,-7456,-8561,27121,-5607742,-1946216,-2662150,0,0,0,253,307,206,288,197,272,329,249,292,196,222,120,0,
2,1775234505136,1100,784,10313,676838,9773,-140499,0,0,0,468,536,336,456,449,488,507,327,359,249,167,458,0,
1,1775234505152,-8466,-15051,26728,-5627290,-1993864,-2875953,0,0,0,245,310,206,276,199,273,323,250,289,195,222,122,0,
2,1775234505152,1306,713,10571,790459,26878,-194255,0,0,0,474,546,343,462,458,498,497,300,364,251,169,480,0,
1,1775234505168,-7250,-23847,22636,-5240002,-2210110,-2155132,0,0,0,248,311,207,280,204,278,330,248,296,201,221,123,0,
2,1775234505168,1335,617,10959,927293,25656,-252898,0,0,0,473,552,333,463,461,503,478,273,388,258,174,504,0,
1,1775234505184,-866,-30705,17774,-4212526,-2536312,-1072679,0,0,0,243,309,207,275,204,279,321,251,298,194,226,122,0,
2,1775234505184,938,579,11691,1172861,37873,-280998,0,0,0,485,554,316,464,472,510,453,255,398,259,172,525,0,
1,1775234505200,6905,-34697,14462,-2701246,-2058615,-185703,0,0,0,242,308,207,274,203,280,323,252,299,194,226,122,0,
2,1775234505200,670,564,12395,1505171,89186,-260228,0,0,0,496,562,302,473,491,518,428,250,382,257,171,542,0,
1,1775234505216,10203,-37535,12744,-1342681,-992045,526565,0,0,0,243,309,207,275,205,278,324,254,298,194,227,120,0,
2,1775234505216,885,521,12998,1921782,120951,-226020,0,0,0,497,571,275,478,499,516,397,248,385,263,179,557,0,
1,1775234505232,8580,-36381,12462,40317,344527,1214400,0,0,0,237,305,201,273,205,271,335,285,291,215,269,110,0,
2,1775234505232,1430,435,13725,2412917,102625,-235793,0,0,0,506,569,258,481,513,516,360,246,387,267,182,568,0,
1,1775234505248,5546,-26293,15290,1387885,1282817,1313360,0,0,0,232,284,181,271,191,252,380,355,271,262,333,97,0,
2,1775234505248,2010,315,14395,2956587,17104,-321315,0,0,0,502,556,239,479,507,504,318,238,373,268,185,575,0,
1,1775234505264,593,-2579,18798,2928487,2719572,543670,0,0,0,235,265,154,275,174,234,433,416,244,309,387,85,0,
2,1775234505264,2206,201,15084,3639535,-107512,-481361,0,0,0,506,563,234,495,531,487,285,233,366,267,189,576,0,
1,1775234505280,-3273,12342,14285,3888768,3429397,-626747,0,0,0,240,266,142,279,172,233,456,445,235,340,416,78,0,
2,1775234505280,2450,248,15979,4287052,-201585,-623082,0,0,0,498,556,234,458,508,510,269,219,369,267,190,571,0,
1,1775234505296,-330,7126,12907,4852713,2500882,-1056796,0,0,0,240,271,150,284,172,245,472,475,243,379,428,82,0,
2,1775234505296,3096,363,17693,5007873,-279776,-799011,0,0,0,492,535,242,458,508,519,260,190,378,252,176,526,0,
1,1775234505312,5101,-3388,19751,5323079,561996,-344527,0,0,0,245,278,171,291,177,264,481,481,254,413,436,88,0,
2,1775234505312,3967,306,21225,5963266,-401949,-1045801,0,0,0,478,514,231,459,489,509,257,169,366,226,155,454,0,
1,1775234505328,1110,-2502,22550,4078136,-102625,700051,0,0,0,252,296,194,298,191,281,494,493,265,412,441,103,0,
2,1775234505328,4819,124,25398,6839247,-417831,-1248608,0,0,0,420,498,210,445,468,480,262,163,345,228,163,390,0,
1,1775234505344,-4814,-172,17898,2367713,-34208,729373,0,0,0,269,301,237,320,203,311,502,500,285,430,452,135,0,
2,1775234505344,5020,540,28925,7571063,-278554,-1402546,0,0,0,356,474,197,408,440,442,268,174,314,218,169,345,0,
1,1775234505360,-4374,330,11629,1244943,95294,24434,0,0,0,293,301,249,336,199,320,521,486,273,462,485,166,0,
2,1775234505360,5326,2043,30361,8289441,-172263,-1574810,0,0,0,308,447,203,364,400,401,284,216,279,167,136,279,0,
1,1775234505376,-2359,-162,9217,587652,113620,-260228,0,0,0,306,314,254,345,201,325,532,493,292,479,494,177,0,
2,1775234505376,6752,3263,29504,8786685,156381,-1841147,0,0,0,281,427,216,334,367,367,305,266,264,126,112,215,0,
1,1775234505392,-1909,-339,10141,205250,156381,-107512,0,0,0,326,320,259,356,209,330,545,501,290,484,499,180,0,
2,1775234505392,9011,6728,22957,8919854,663399,-2373822,0,0,0,274,425,225,329,361,359,315,292,268,119,115,192,0,
1,1775234505408,-2392,454,10538,45204,215024,-9773,0,0,0,328,330,286,372,215,350,542,504,312,486,502,202,0,
2,1775234505408,9097,12184,14218,7811744,337197,-3068986,0,0,0,270,430,228,331,367,365,316,296,267,117,117,192,0,
1,1775234505424,-2445,1057,10227,62308,201585,0,0,0,0,327,341,285,374,222,355,541,503,317,489,504,223,0,
2,1775234505424,5307,18176,10705,3750712,-971275,-3055547,0,0,0,263,430,220,329,365,362,313,295,255,117,116,190,0,
1,1775234505440,-2191,1043,9959,168598,150272,8552,0,0,0,329,350,275,370,231,357,541,493,314,488,494,234,0,
2,1775234505440,3168,19444,10739,-1297477,-1918116,-1932777,0,0,0,259,428,217,330,365,359,313,294,252,114,115,186,0,
1,1775234505456,-2072,938,10064,237015,96516,29321,0,0,0,330,362,277,371,244,364,542,480,323,482,475,244,0,
2,1775234505456,4431,12821,10035,-4503298,-2056172,-579100,0,0,0,262,432,222,330,364,358,318,295,256,117,115,186,0,
1,1775234505472,-2091,1000,10279,301767,18325,47647,0,0,0,329,375,276,374,258,369,544,470,332,471,453,263,0,
2,1775234505472,6302,6207,7130,-5272988,-1528384,58643,0,0,0,257,433,220,330,363,356,321,300,256,141,128,184,0,
1,1775234505488,-2077,1038,9471,379958,-59864,56199,0,0,0,329,383,274,372,271,368,541,457,333,454,433,288,0,
2,1775234505488,6652,4154,4723,-4717101,-552222,6108,0,0,0,254,433,220,334,366,360,321,300,255,121,120,189,0,
1,1775234505504,-2077,885,7312,359188,-51312,58643,0,0,0,331,389,272,378,282,368,536,440,337,439,420,297,0,
2,1775234505504,5116,5288,5336,-4714657,206472,-86742,0,0,0,254,433,221,333,367,361,323,303,258,119,120,190,0,
1,1775234505520,-2129,722,7954,353080,-54977,53756,0,0,0,330,389,270,378,291,374,533,420,344,431,399,305,0,
2,1775234505520,3613,6135,6953,-5170363,541226,-41538,0,0,0,254,437,226,333,366,361,323,302,256,119,120,189,0,
1,1775234505536,-2177,646,9547,379958,-83077,53756,0,0,0,333,402,277,378,278,382,531,392,361,414,375,335,0,
2,1775234505536,3091,5757,8336,-5710368,679282,80634,0,0,0,255,439,227,336,369,363,320,302,256,119,121,189,0,
1,1775234505552,-2215,636,10131,392175,-79412,62308,0,0,0,333,416,277,376,275,384,518,380,355,388,362,344,0,
2,1775234505552,2976,4991,9284,-5962044,1031140,152716,0,0,0,253,438,223,337,370,365,321,307,256,120,121,189,0,
1,1775234505568,-2225,603,9705,390953,-36651,76969,0,0,0,333,436,274,378,330,393,512,370,348,380,370,368,0,
2,1775234505568,2459,4728,10495,-6089104,1382998,224798,0,0,0,254,439,226,338,370,366,322,308,258,120,121,189,0,
1,1775234505584,-2172,574,9590,403171,-12217,91629,0,0,0,342,434,278,389,326,394,508,345,348,379,349,380,0,
2,1775234505584,1785,4819,11969,-6186843,1569923,354301,0,0,0,257,438,227,339,366,363,327,303,257,121,121,187,0,
1,1775234505600,-2124,550,9763,433714,-13439,105068,0,0,0,345,422,283,397,296,403,505,328,351,370,323,383,0,
2,1775234505600,1636,4924,13764,-6370102,1626123,564439,0,0,0,258,437,226,338,365,362,327,301,256,120,121,187,0,
1,1775234505616,-2115,507,9863,477696,-21991,117286,0,0,0,349,421,276,397,283,404,500,308,348,363,305,385,0,
2,1775234505616,1995,4828,15640,-6609561,1722639,722042,0,0,0,257,438,229,337,368,366,324,306,257,119,121,188,0,
1,1775234505632,-2153,406,9906,527787,-36651,135612,0,0,0,362,425,263,402,289,408,490,287,354,350,284,398,0,
2,1775234505632,2421,4479,18028,-6817256,1904677,813672,0,0,0,255,437,230,339,367,368,328,311,260,121,121,189,0,
1,1775234505648,-2230,287,10007,576656,-57421,174707,0,0,0,380,426,261,413,299,416,482,271,362,338,262,422,0,
2,1775234505648,2794,4192,21019,-6974859,2106263,950506,0,0,0,255,435,228,338,366,366,329,312,262,121,122,187,0,
1,1775234505664,-2359,220,10136,640186,-65973,229685,0,0,0,388,425,262,426,313,428,469,252,369,325,249,443,0,
2,1775234505664,3153,4158,24847,-7142236,2267531,1254717,0,0,0,257,436,231,336,364,365,330,308,261,121,120,187,0,
1,1775234505680,-2412,205,10275,755029,-52534,298102,0,0,0,385,428,249,433,346,436,451,238,381,310,238,453,0,
2,1775234505680,3814,2837,29289,-7395134,2414139,1951103,0,0,0,254,436,227,339,367,367,335,309,267,120,118,186,0,
1,1775234505696,-2316,67,10380,901637,-47647,368962,0,0,0,391,433,235,435,366,443,444,236,388,303,220,470,0,
2,1775234505696,3972,-2694,33270,-7505090,2812423,2834414,0,0,0,257,436,224,344,370,367,340,308,269,119,118,183,0,
1,1775234505712,-2148,-95,10638,1031140,-76969,409279,0,0,0,406,420,244,437,331,462,437,216,398,305,204,504,0,
2,1775234505712,2306,-14319,35922,-7049384,3032335,3208264,0,0,0,260,436,222,343,368,365,346,308,272,148,127,179,0,
1,1775234505728,-2167,-239,10935,1199739,-128281,431270,0,0,0,427,446,241,433,349,464,418,213,407,302,202,530,0,
2,1775234505728,2876,-31189,34692,-6058561,2173458,2902831,0,0,0,260,433,215,346,368,370,345,309,271,127,122,186,0,
1,1775234505744,-2325,-373,11131,1375668,-153938,456927,0,0,0,435,442,234,444,376,482,400,203,401,296,197,545,0,
2,1775234505744,5872,-45168,25494,-4447098,1110553,1400103,0,0,0,263,435,217,350,372,372,348,312,274,124,122,187,0,
1,1775234505760,-2325,-449,11624,1613905,-129503,483805,0,0,0,429,462,225,441,373,512,367,195,412,287,185,550,0,
2,1775234505760,-1301,-48872,18166,-2218662,1485624,-860098,0,0,0,265,436,221,346,369,370,347,310,274,123,119,184,0,
1,1775234505776,-1976,-454,12251,1912008,-76969,474031,0,0,0,437,490,216,426,449,516,337,210,414,284,224,542,0,
2,1775234505776,-12012,-47188,17870,-366519,1226617,-1998751,0,0,0,249,426,214,337,378,365,381,402,265,156,168,175,0,
1,1775234505792,-1732,-492,12835,2254092,-32986,419053,0,0,0,444,474,215,437,427,513,280,198,437,278,204,549,0,
2,1775234505792,-14635,-37760,22933,1346346,-631634,-1561371,0,0,0,237,398,181,338,362,351,426,461,246,167,215,163,0,
1,1775234505808,-2555,-655,13539,2712241,-4886,405614,0,0,0,460,473,218,435,443,516,246,204,425,265,198,549,0,
2,1775234505808,-1770,-4326,20823,3163060,-3374419,-222354,0,0,0,241,380,167,339,342,348,463,478,251,179,261,164,0,
1,1775234505824,-3843,-808,14630,3331659,46425,548556,0,0,0,473,480,222,420,449,496,240,192,421,234,175,544,0,
2,1775234505824,6020,14505,12136,4268726,-4454429,707381,0,0,0,249,381,169,343,337,357,485,487,263,201,304,169,0,
1,1775234505840,-4675,-732,16300,4013384,134390,833220,0,0,0,475,468,214,403,429,485,213,177,412,206,148,524,0,
2,1775234505840,-14,6623,14180,5331631,-2967583,1006705,0,0,0,252,388,178,350,340,370,499,508,263,254,360,171,0,
1,1775234505856,-5714,-938,18645,4704884,259006,1137431,0,0,0,466,442,209,394,398,475,194,166,388,189,129,475,0,
2,1775234505856,-7743,-2703,23752,5673716,-659734,524122,0,0,0,255,394,209,352,338,377,508,537,262,336,432,170,0,
1,1775234505872,-8021,-1292,22254,5499008,447153,1508837,0,0,0,428,427,206,379,356,448,193,157,368,174,119,402,0,
2,1775234505872,-4402,-1478,25096,4428772,226020,-397062,0,0,0,268,414,252,357,343,380,514,549,271,352,440,178,0,
1,1775234505888,-10954,-617,25360,6352998,723264,2057394,0,0,0,355,417,205,345,311,416,192,157,358,160,122,336,0,
2,1775234505888,2196,1440,16061,2569299,118507,-408057,0,0,0,296,440,284,381,367,399,536,536,292,255,335,213,0,
1,1775234505904,-11744,134,27977,7165449,1243721,2674368,0,0,0,284,373,217,312,285,383,206,176,335,160,145,292,0,
2,1775234505904,2948,1277,9892,1277930,-19547,17104,0,0,0,315,454,301,390,375,410,544,544,293,255,328,234,0,
1,1775234505920,-11749,2196,28791,7909483,1620014,3187494,0,0,0,259,329,185,288,235,315,264,217,286,173,176,210,0,
2,1775234505920,1402,229,10040,668286,-162490,191811,0,0,0,333,455,314,392,377,413,556,560,290,271,340,253,0,
1,1775234505936,-11586,4996,27322,8448266,1624901,3578448,0,0,0,271,280,202,264,186,252,317,248,271,178,210,124,0,
2,1775234505936,684,378,10811,348193,-339641,160046,0,0,0,341,465,312,401,385,421,559,561,294,304,369,256,0,
1,1775234505952,-13050,9375,19774,8263784,1587027,3817907,0,0,0,269,288,202,275,194,268,313,248,279,185,224,128,0,
2,1775234505952,507,1158,10801,195476,-397062,64751,0,0,0,347,465,314,398,384,418,555,574,288,399,457,244,0,
1,1775234505968,-13184,14122,11442,5830097,572991,3572339,0,0,0,262,289,200,272,194,266,310,248,276,185,221,127,0,
2,1775234505968,574,1584,10342,116064,-271224,19547,0,0,0,353,467,318,403,383,422,560,573,295,415,465,247,0,
1,1775234505984,-7537,17401,10710,1974316,-262672,2140471,0,0,0,266,294,203,281,195,268,315,252,276,183,219,127,0,
2,1775234505984,689,1689,10198,120951,-179594,2443,0,0,0,360,468,328,402,381,421,562,560,315,386,426,259,0,
1,1775234506000,-3479,15362,10715,-1852143,574213,-439822,0,0,0,266,295,203,274,224,260,324,256,280,186,222,127,0,
2,1775234506000,607,1765,10313,226020,-146607,-12217,0,0,0,369,474,330,403,389,423,561,557,312,305,337,286,0,
1,1775234506016,-6336,10064,7604,-3654195,1385442,-2112371,0,0,0,268,297,204,278,203,266,321,255,277,185,223,128,0,
2,1775234506016,488,1799,10332,350636,-80634,-24434,0,0,0,375,476,333,409,392,432,560,547,305,254,274,311,0,
1,1775234506032,-10169,5982,4125,-3606548,531452,-1953547,0,0,0,265,299,208,279,195,276,320,256,282,186,224,132,0,
2,1775234506032,492,1708,10193,443488,20769,-26878,0,0,0,381,477,337,413,391,437,561,532,309,245,254,322,0,
1,1775234506048,-7312,5474,4254,-3501479,-918741,-1070235,0,0,0,258,299,209,277,196,278,319,256,283,185,224,130,0,
2,1775234506048,579,1541,10064,485026,94073,-23212,0,0,0,388,481,334,413,392,437,558,519,317,237,235,334,0,
1,1775234506064,-3613,6427,6288,-3973067,-1153313,-719599,0,0,0,253,298,207,278,197,276,318,256,281,185,225,128,0,
2,1775234506064,670,1378,9954,493579,131946,-25656,0,0,0,393,483,324,415,393,439,548,500,318,233,218,343,0,
1,1775234506080,-3953,6743,7963,-4830722,-791681,-939510,0,0,0,252,299,205,279,198,274,318,257,280,187,226,129,0,
2,1775234506080,780,1296,9877,477696,119729,-34208,0,0,0,396,482,318,422,398,441,544,476,317,259,226,347,0,
1,1775234506096,-4656,6068,9557,-5714033,-916297,-1142317,0,0,0,254,299,205,278,198,274,320,258,281,186,225,126,0,
2,1775234506096,885,1292,9868,465479,69638,-42760,0,0,0,393,484,319,424,399,443,543,455,325,302,253,355,0,
1,1775234506112,-4058,4551,10882,-6211277,-1372003,-1235169,0,0,0,256,301,207,278,198,275,320,257,282,193,226,128,0,
2,1775234506112,942,1273,9930,475253,3665,-51312,0,0,0,405,494,331,426,404,449,540,442,333,248,192,372,0,
1,1775234506128,-2799,3005,12352,-6399424,-1657888,-1303586,0,0,0,254,302,207,276,199,277,317,258,282,202,229,135,0,
2,1775234506128,947,1124,9949,487470,-64751,-65973,0,0,0,414,494,347,427,407,455,534,425,337,232,176,386,0,
1,1775234506144,-2000,2220,14170,-6493497,-1740965,-1321912,0,0,0,254,302,208,275,197,276,319,261,283,186,231,128,0,
2,1775234506144,885,1000,9920,492357,-114842,-81855,0,0,0,424,506,326,432,421,459,527,406,339,240,176,395,0,
1,1775234506160,-2005,2225,16314,-6569244,-1718974,-1265712,0,0,0,250,302,205,275,197,276,323,262,285,186,230,128,0,
2,1775234506160,808,957,9954,499687,-131946,-97738,0,0,0,426,511,316,432,423,461,523,394,344,235,173,410,0,
1,1775234506176,-2100,2086,19229,-6702413,-1819156,-1123992,0,0,0,256,305,210,279,197,276,324,263,284,187,225,125,0,
2,1775234506176,832,899,10050,514348,-114842,-112399,0,0,0,441,525,327,436,431,465,529,387,349,240,171,423,0,
1,1775234506192,-1828,1311,21713,-6817256,-1881464,-1038470,0,0,0,266,305,208,287,197,278,334,257,280,211,223,119,0,
2,1775234506192,933,794,10165,543670,-106290,-136833,0,0,0,452,531,320,436,436,462,514,369,346,251,177,450,0,
1,1775234506208,-2622,43,24063,-6820921,-1758070,-1194852,0,0,0,266,303,208,290,196,277,337,254,280,215,223,123,0,
2,1775234506208,995,698,10251,588874,-116064,-174707,0,0,0,467,539,333,442,441,471,500,345,345,255,175,467,0,
1,1775234506224,-4699,-1210,26537,-6717074,-1739744,-1616349,0,0,0,267,303,209,288,193,277,336,253,278,216,220,121,0,
2,1775234506224,928,650,10327,660956,-125838,-221133,0,0,0,473,542,327,459,472,463,499,319,351,258,169,484,0,
1,1775234506240,-7250,-3469,29633,-6603453,-2021963,-2343279,0,0,0,257,303,207,281,196,277,324,257,280,196,222,123,0,
2,1775234506240,918,660,10480,751364,-130725,-255341,0,0,0,473,544,316,467,482,474,494,295,357,263,177,502,0,
1,1775234506256,-8901,-9935,32332,-6503271,-2581516,-3125186,0,0,0,253,306,210,279,201,282,320,261,289,186,226,124,0,
2,1775234506256,981,559,10777,894306,-128281,-285884,0,0,0,482,554,327,462,474,495,470,272,361,263,181,518,0,
1,1775234506272,-8332,-20258,31945,-6265033,-2850297,-3202155,0,0,0,244,310,209,276,205,283,318,260,290,186,228,122,0,
2,1775234506272,933,392,11194,1078788,-111177,-317649,0,0,0,497,566,336,465,481,497,442,252,365,265,179,529,0,
1,1775234506288,-2507,-32720,26283,-5457470,-2693915,-2258979,0,0,0,237,317,208,274,210,282,319,260,289,187,229,122,0,
2,1775234506288,770,306,11720,1298699,-75747,-332310,0,0,0,500,567,309,470,485,503,421,242,369,275,188,539,0,
1,1775234506304,7575,-43096,18612,-3826459,-2238210,-977384,0,0,0,237,322,210,274,213,284,322,262,292,187,229,122,0,
2,1775234506304,593,339,12467,1648114,-59864,-320093,0,0,0,494,562,273,467,491,505,391,240,371,273,188,556,0,
1,1775234506320,13749,-45948,14333,-1844813,-1051909,168598,0,0,0,238,316,209,275,209,284,324,260,294,191,231,123,0,
2,1775234506320,559,291,13160,2076941,-92851,-283441,0,0,0,497,571,263,473,501,509,360,234,371,272,192,564,0,
1,1775234506336,14118,-44354,13644,-199142,412944,1193630,0,0,0,234,311,209,274,206,283,334,276,294,211,257,121,0,
2,1775234506336,818,272,13974,2550973,-116064,-261450,0,0,0,497,564,247,473,514,516,308,217,363,312,239,574,0,
1,1775234506352,8571,-33357,16563,1169196,1726305,1587027,0,0,0,232,300,192,270,201,265,374,368,273,274,355,104,0,
2,1775234506352,1732,287,15199,3189938,-128281,-333532,0,0,0,505,557,242,464,510,509,285,213,370,283,210,571,0,
1,1775234506368,-1229,-7528,18190,2652376,2873510,1287703,0,0,0,242,260,149,267,169,233,441,433,250,305,407,86,0,
2,1775234506368,2287,339,16367,3887546,-252898,-498466,0,0,0,513,550,238,455,507,503,263,210,377,254,181,569,0,
1,1775234506384,-8485,14467,13428,3819129,3583335,527787,0,0,0,239,269,136,281,178,245,464,463,250,362,424,76,0,
2,1775234506384,2689,402,17788,4657236,-401949,-682947,0,0,0,507,538,238,454,501,502,249,191,369,253,177,558,0,
1,1775234506400,-4063,7686,14529,5088507,2820975,-96516,0,0,0,240,274,143,296,179,256,486,486,255,396,437,76,0,
2,1775234506400,3618,282,20133,5552765,-525344,-910189,0,0,0,497,525,242,460,494,504,252,174,365,265,174,488,0,
1,1775234506416,3278,-3144,23239,5651725,990823,-122173,0,0,0,248,276,168,297,172,263,496,496,256,416,447,80,0,
2,1775234506416,5001,-28,24101,6537479,-552222,-1202182,0,0,0,462,514,230,451,477,488,255,164,353,233,154,428,0,
1,1775234506432,2220,-3670,25900,4315152,-34208,564439,0,0,0,256,293,199,306,184,289,503,503,271,435,457,96,0,
2,1775234506432,6116,315,28844,7567398,-301767,-1532050,0,0,0,391,492,209,431,457,462,267,170,328,203,141,371,0,
1,1775234506448,-3675,-90,17989,2410474,72082,531452,0,0,0,271,301,223,332,200,310,518,518,281,448,471,137,0,
2,1775234506448,7011,1440,32198,8553335,87964,-1877799,0,0,0,330,462,202,385,422,426,281,202,288,172,130,320,0,
1,1775234506464,-4594,880,10294,1150870,241902,-59864,0,0,0,292,305,244,354,205,329,533,532,293,454,483,172,0,
2,1775234506464,7781,4158,31667,9192300,585208,-2353052,0,0,0,277,435,211,336,377,377,292,239,261,131,111,238,0,
1,1775234506480,-2359,-205,9514,614530,234572,-222354,0,0,0,307,313,254,362,207,340,544,542,302,461,495,187,0,
2,1775234506480,8600,6269,27255,9446420,1060462,-2911383,0,0,0,259,424,225,321,357,355,306,271,261,113,106,188,0,
1,1775234506496,-1718,-114,10380,245567,219911,-109955,0,0,0,315,322,260,365,209,344,552,544,316,473,503,195,0,
2,1775234506496,9174,10054,18856,9057909,888198,-3628539,0,0,0,272,426,232,327,363,362,314,293,267,119,117,193,0,
1,1775234506512,-2153,832,10677,100181,199142,7330,0,0,0,326,332,267,370,208,350,555,539,332,483,505,216,0,
2,1775234506512,5963,15501,13189,6786712,-377514,-3858224,0,0,0,270,429,227,327,366,361,312,296,259,118,119,194,0,
1,1775234506528,-2311,1220,10112,173485,146607,8552,0,0,0,327,335,267,374,218,359,558,534,319,479,505,247,0,
2,1775234506528,2368,21799,9361,1869247,-1745852,-2488664,0,0,0,269,432,224,330,367,359,311,293,253,117,116,190,0,
1,1775234506544,-2177,1143,9940,268780,96516,10995,0,0,0,324,347,273,369,230,374,551,518,321,468,492,255,0,
2,1775234506544,2895,20167,9169,-3754377,-2466673,-12217,0,0,0,267,432,223,333,366,359,315,293,253,115,114,188,0,
1,1775234506560,-2048,1052,10160,327423,36651,35430,0,0,0,333,361,281,371,238,388,543,495,338,465,466,278,0,
2,1775234506560,6867,9815,8719,-6334672,-2256536,1409876,0,0,0,260,434,223,331,369,362,319,297,255,118,120,193,0,
1,1775234506576,-2014,1115,10236,377514,-36651,56199,0,0,0,345,347,281,387,236,388,542,472,342,462,443,290,0,
2,1775234506576,9188,2981,5824,-6025574,-1387885,1213178,0,0,0,250,435,221,331,372,363,319,301,255,117,121,193,0,
1,1775234506592,-2029,1119,9839,432492,-119729,65973,0,0,0,328,357,274,384,256,385,548,459,345,444,427,305,0,
2,1775234506592,8145,2775,4388,-5210680,-348193,423940,0,0,0,248,437,225,333,376,367,323,307,257,118,123,194,0,
1,1775234506608,-2100,990,9102,430049,-145385,67195,0,0,0,322,364,262,383,261,381,542,429,353,427,408,321,0,
2,1775234506608,6135,4307,5632,-5285206,246789,19547,0,0,0,245,436,221,333,375,367,320,307,257,118,122,193,0,
1,1775234506624,-2191,794,9116,416610,-150272,68416,0,0,0,323,369,256,384,263,380,540,411,349,421,394,332,0,
2,1775234506624,4867,5273,7872,-5951049,362853,113620,0,0,0,244,435,223,334,375,367,319,306,255,121,124,194,0,
1,1775234506640,-2230,679,9581,415388,-144164,74525,0,0,0,323,369,272,385,264,388,538,398,350,403,375,342,0,
2,1775234506640,4915,4556,9198,-6399424,636521,476474,0,0,0,244,434,224,331,372,364,318,305,253,120,121,191,0,
1,1775234506656,-2254,622,9691,399505,-111177,81855,0,0,0,331,372,287,390,267,405,527,392,361,385,360,363,0,
2,1775234506656,4833,3584,10270,-6486167,1158200,855211,0,0,0,245,435,225,331,373,364,318,306,254,120,122,192,0,
1,1775234506672,-2249,593,9557,376292,-69638,89186,0,0,0,329,372,291,389,271,409,523,376,364,378,348,375,0,
2,1775234506672,4101,3019,11744,-6379876,1705535,1260825,0,0,0,246,437,228,330,373,365,318,307,255,120,124,192,0,
1,1775234506688,-2191,550,9557,348193,-40317,91629,0,0,0,324,372,291,386,266,408,524,355,361,376,334,382,0,
2,1775234506688,3306,2981,13811,-6384763,1914451,1651779,0,0,0,247,437,228,332,374,367,321,309,257,120,123,194,0,
1,1775234506704,-2153,550,9667,340862,-29321,97738,0,0,0,330,377,291,388,261,410,516,340,359,371,322,389,0,
2,1775234506704,3220,2900,15826,-6536258,1920560,1816713,0,0,0,247,437,227,334,375,367,326,311,260,120,123,196,0,
1,1775234506720,-2129,536,9734,361632,-30543,105068,0,0,0,336,379,289,390,266,411,508,324,362,361,314,392,0,
2,1775234506720,3464,2636,18248,-6745173,1946216,1805717,0,0,0,249,437,229,334,373,365,328,312,262,121,124,194,0,
1,1775234506736,-2120,473,9739,387288,-46425,113620,0,0,0,339,379,295,389,268,425,508,316,373,360,312,412,0,
2,1775234506736,3866,2249,21115,-6944316,2035402,1588249,0,0,0,250,437,232,335,372,365,322,311,263,120,124,193,0,
1,1775234506752,-2129,406,9782,406836,-72082,125838,0,0,0,339,386,296,385,288,431,501,301,375,345,296,416,0,
2,1775234506752,4120,1981,24886,-7106806,2107485,1390329,0,0,0,251,437,232,337,374,367,308,308,266,121,123,192,0,
1,1775234506768,-2230,354,9930,439822,-103847,150272,0,0,0,341,389,273,392,294,433,495,286,387,336,270,435,0,
2,1775234506768,3986,928,29049,-7277848,2196671,1430646,0,0,0,253,437,232,338,371,370,330,307,262,121,122,192,0,
1,1775234506784,-2416,301,10035,499687,-125838,196698,0,0,0,341,391,257,399,293,437,485,270,382,320,257,454,0,
2,1775234506784,3302,-2991,32419,-7382917,2359161,1788613,0,0,0,248,432,226,340,372,371,334,308,264,121,121,192,0,
1,1775234506800,-2512,224,10126,618195,-120951,273667,0,0,0,367,395,266,411,295,445,466,243,379,302,223,477,0,
2,1775234506800,2512,-12055,34333,-7121466,2470339,2156354,0,0,0,253,434,228,345,373,376,338,305,269,120,118,188,0,
1,1775234506816,-2455,119,10208,763581,-124616,345749,0,0,0,381,410,251,426,330,468,467,229,391,308,205,501,0,
2,1775234506816,3096,-25269,32969,-6320011,2061059,2043955,0,0,0,256,435,225,345,373,374,339,304,270,120,118,188,0,
1,1775234506832,-2364,38,10442,891863,-169820,393397,0,0,0,385,414,252,433,334,479,466,217,396,301,192,532,0,
2,1775234506832,3268,-36970,25178,-4751309,1646892,941954,0,0,0,255,432,225,346,371,374,340,308,273,121,119,190,0,
1,1775234506848,-2263,-28,11261,1064127,-233350,415388,0,0,0,394,416,244,452,319,480,451,205,393,294,179,551,0,
2,1775234506848,-1904,-43761,18420,-2818532,1760513,-488692,0,0,0,260,434,227,346,368,374,344,309,273,122,118,189,0,
1,1775234506864,-2378,-76,12069,1341460,-289550,422718,0,0,0,403,428,232,469,348,492,423,214,398,285,183,557,0,
2,1775234506864,-11246,-44570,16487,-901637,1442863,-1540602,0,0,0,247,426,214,342,372,371,354,342,270,132,143,190,0,
1,1775234506880,-2345,-162,12414,1727526,-306654,434936,0,0,0,401,437,223,471,378,506,390,206,417,272,182,564,0,
2,1775234506880,-13759,-41411,17927,470366,15882,-1517389,0,0,0,239,408,199,339,371,362,389,420,258,146,183,182,0,
1,1775234506896,-2297,-234,12864,2119702,-288328,433714,0,0,0,397,439,212,465,370,509,348,179,431,261,165,576,0,
2,1775234506896,-7202,-20124,22024,2234545,-2171015,-652404,0,0,0,239,391,177,337,353,352,431,464,249,166,228,174,0,
1,1775234506912,-2885,-244,13644,2565634,-233350,460592,0,0,0,402,437,203,461,371,509,292,175,431,248,154,579,0,
2,1775234506912,2033,7858,17563,3687182,-3916867,393397,0,0,0,244,384,170,340,343,355,465,480,255,181,266,172,0,
1,1775234506928,-3857,-258,14831,3224146,-145385,620639,0,0,0,417,432,208,463,386,507,232,174,429,238,152,559,0,
2,1775234506928,1976,10232,12615,4807509,-3601661,1116661,0,0,0,250,389,177,347,344,366,487,493,264,194,304,172,0,
1,1775234506944,-4862,-172,16051,3952298,-54977,864985,0,0,0,429,433,216,460,360,507,208,166,426,231,127,542,0,
2,1775234506944,-5589,-713,18023,5536882,-1602910,967610,0,0,0,255,395,190,352,345,374,500,503,267,219,330,178,0,
1,1775234506960,-6183,-71,18406,4839274,47647,1253495,0,0,0,420,405,228,454,354,497,220,144,439,200,103,507,0,
2,1775234506960,-5360,-1871,22823,4863709,-357967,-119729,0,0,0,261,402,219,358,346,382,511,512,271,232,320,193,0,
1,1775234506976,-8159,-296,22239,5821545,146607,1717753,0,0,0,411,403,231,441,346,468,208,148,407,185,101,442,0,
2,1775234506976,837,981,19923,3589444,-64751,-638965,0,0,0,274,420,260,369,357,393,523,524,280,214,295,205,0,
1,1775234506992,-9657,-157,25513,6619335,230907,2167349,0,0,0,359,403,213,382,349,431,203,159,367,162,122,362,0,
2,1775234506992,3015,1450,13548,2290744,-174707,-155159,0,0,0,289,436,280,382,373,407,535,536,297,231,299,230,0,
1,1775234507008,-9830,402,28308,7397578,405614,2635272,0,0,0,300,353,206,338,280,390,209,160,338,150,115,285,0,
2,1775234507008,1895,421,10514,1293812,-245567,202807,0,0,0,317,453,290,391,382,414,545,544,297,237,297,263,0,
1,1775234507024,-9064,2627,29471,8030434,667064,3012787,0,0,0,267,322,182,302,243,328,247,199,308,157,158,198,0,
2,1775234507024,631,-469,10882,546113,-309097,200363,0,0,0,333,462,301,397,388,419,553,555,292,267,315,282,0,
1,1775234507040,-10035,5843,27556,8500800,834441,3231477,0,0,0,264,292,190,277,201,279,301,229,290,172,191,141,0,
2,1775234507040,670,425,10911,178372,-332310,58643,0,0,0,347,471,306,401,390,425,553,553,317,262,302,298,0,
1,1775234507056,-12093,9466,20406,8676729,917519,3494149,0,0,0,269,285,201,275,189,267,323,245,286,180,211,124,0,
2,1775234507056,760,1325,10370,40317,-266337,-7330,0,0,0,357,474,315,407,393,431,558,560,303,260,304,311,0,
1,1775234507072,-12715,13108,12380,7737219,791681,3806912,0,0,0,265,296,202,276,199,271,316,254,287,180,218,123,0,
2,1775234507072,813,1526,10098,36651,-145385,0,0,0,0,367,478,313,404,391,425,561,561,303,266,308,306,0,
1,1775234507088,-8858,18549,10327,3705508,408057,3152064,0,0,0,263,299,201,275,199,271,312,252,281,179,217,123,0,
2,1775234507088,875,1440,10208,59864,-108734,0,0,0,0,375,480,316,408,392,428,563,564,300,265,305,305,0,
1,1775234507104,-4221,18899,10949,-1393994,713490,921184,0,0,0,267,294,201,279,195,271,319,251,276,183,216,123,0,
2,1775234507104,837,1517,10270,124616,-112399,-19547,0,0,0,377,480,313,409,393,429,563,567,299,259,291,317,0,
1,1775234507120,-4225,13620,9729,-4317595,1430646,-1070235,0,0,0,263,295,201,281,197,274,324,255,279,185,216,123,0,
2,1775234507120,732,1593,10227,229685,-70860,-34208,0,0,0,384,482,310,412,393,430,562,562,300,255,273,324,0,
1,1775234507136,-8178,7039,6350,-4784296,1452637,-1776396,0,0,0,260,297,203,277,197,277,323,255,282,183,218,125,0,
2,1775234507136,713,1560,10145,324980,-2443,-35430,0,0,0,391,486,313,414,394,430,558,552,300,251,259,330,0,
1,1775234507152,-8872,5053,4915,-4489859,298102,-1269377,0,0,0,260,297,204,279,201,280,325,259,284,186,221,125,0,
2,1775234507152,794,1426,10040,372627,47647,-26878,0,0,0,391,488,312,414,395,429,550,538,299,245,249,337,0,
1,1775234507168,-6685,5168,5853,-4626693,-519235,-801455,0,0,0,260,297,203,285,202,280,330,258,283,185,220,126,0,
2,1775234507168,851,1325,9964,383623,57421,-23212,0,0,0,390,489,304,419,401,432,544,523,301,241,239,340,0,
1,1775234507184,-4934,5427,7920,-5238780,-504574,-757472,0,0,0,259,303,206,278,202,278,323,256,282,185,227,128,0,
2,1775234507184,909,1273,9920,400727,41538,-23212,0,0,0,395,494,302,425,408,437,544,511,306,243,228,351,0,
1,1775234507200,-4714,4919,9413,-5776341,-538783,-884532,0,0,0,259,303,206,280,200,278,330,258,283,190,227,128,0,
2,1775234507200,990,1210,9920,419053,2443,-25656,0,0,0,404,494,306,424,407,439,537,493,310,243,216,362,0,
1,1775234507216,-4680,3981,10763,-6196616,-948062,-1064127,0,0,0,261,302,205,285,202,279,331,259,286,186,224,123,0,
2,1775234507216,1005,1134,9935,422718,-46425,-31764,0,0,0,413,493,307,426,406,445,534,474,320,251,208,371,0,
1,1775234507232,-4125,3340,12179,-6488610,-1284038,-1163087,0,0,0,256,302,205,280,200,280,326,257,283,190,227,124,0,
2,1775234507232,985,1091,9992,432492,-79412,-43982,0,0,0,418,507,313,425,413,450,533,456,317,255,199,386,0,
1,1775234507248,-3718,2502,14099,-6776938,-1496619,-1187522,0,0,0,256,303,206,278,200,281,327,259,285,188,227,125,0,
2,1775234507248,947,1048,10026,458148,-87964,-58643,0,0,0,430,519,316,430,415,450,530,444,326,244,190,402,0,
1,1775234507264,-3929,1775,16152,-6833138,-1635897,-1031140,0,0,0,257,304,208,279,202,281,326,257,286,189,228,127,0,
2,1775234507264,909,995,10040,496022,-89186,-69638,0,0,0,435,518,310,434,421,456,520,427,331,240,185,415,0,
1,1775234507280,-4048,1273,18281,-6795264,-1853365,-824668,0,0,0,258,304,211,279,201,282,324,255,285,191,229,127,0,
2,1775234507280,933,938,10098,543670,-80634,-75747,0,0,0,447,521,325,439,427,466,515,402,336,245,178,430,0,
1,1775234507296,-3977,717,20660,-6748839,-2051285,-696386,0,0,0,258,305,211,278,198,281,325,256,284,192,230,127,0,
2,1775234507296,1019,818,10174,591317,-67195,-89186,0,0,0,450,524,328,443,439,474,510,378,343,248,176,451,0,
1,1775234507312,-4776,-57,23383,-6660874,-2144136,-878424,0,0,0,258,304,206,279,199,279,325,255,281,197,230,129,0,
2,1775234507312,1158,617,10193,620639,-34208,-128281,0,0,0,455,534,326,446,446,477,500,346,351,256,180,466,0,
1,1775234507328,-6369,-1411,26551,-6522819,-2332283,-1389107,0,0,0,259,303,208,279,199,280,326,252,283,198,224,125,0,
2,1775234507328,1201,536,10279,657290,-15882,-182037,0,0,0,462,543,326,448,452,479,487,314,352,260,182,481,0,
1,1775234507344,-7269,-5025,30088,-6421415,-2773328,-2315179,0,0,0,254,304,209,277,200,282,324,253,289,184,221,128,0,
2,1775234507344,1134,588,10500,748920,-42760,-235793,0,0,0,470,550,319,455,469,490,475,295,358,261,178,497,0,
1,1775234507360,-6714,-11509,32505,-6351776,-3141069,-3109304,0,0,0,249,306,209,277,200,282,318,250,289,185,221,128,0,
2,1775234507360,1028,559,10887,893084,-76969,-265115,0,0,0,479,551,311,460,481,498,454,273,371,263,175,514,0,
1,1775234507376,-5340,-22407,31744,-6130643,-3038443,-3290120,0,0,0,237,311,210,267,202,282,289,234,287,185,214,128,0,
2,1775234507376,1057,464,11328,1094670,-96516,-266337,0,0,0,487,552,302,465,484,500,426,245,374,270,179,532,0,
1,1775234507392,-2512,-35745,25144,-5266880,-2463008,-2287079,0,0,0,237,317,212,272,208,292,321,255,296,183,223,129,0,
2,1775234507392,1234,339,12065,1401324,-81855,-282219,0,0,0,489,558,281,473,498,506,399,238,366,276,184,548,0,
1,1775234507408,4130,-44742,18186,-3773925,-2018298,-828333,0,0,0,239,317,216,272,209,294,317,255,295,184,226,129,0,
2,1775234507408,1273,311,13003,1769065,-39095,-326202,0,0,0,490,563,262,474,512,508,370,240,366,272,187,561,0,
1,1775234507424,12644,-47963,14323,-1821600,-1188743,496022,0,0,0,227,319,193,271,212,278,337,288,285,224,281,119,0,
2,1775234507424,971,282,13711,2273640,-42760,-360410,0,0,0,495,561,254,475,499,505,335,230,360,272,188,572,0,
1,1775234507440,15285,-45446,16970,182037,507018,1003040,0,0,0,228,290,176,272,190,249,407,377,266,279,354,94,0,
2,1775234507440,1067,220,14233,2773328,-94073,-364075,0,0,0,494,560,243,467,506,504,304,232,369,276,193,577,0,
1,1775234507456,9322,-29313,19559,2425134,2712241,902858,0,0,0,230,266,148,271,176,232,447,439,245,309,398,76,0,
2,1775234507456,1828,311,15429,3347541,-189368,-403171,0,0,0,498,549,237,464,502,502,273,216,360,274,194,583,0,
1,1775234507472,-1679,473,15788,4569271,4289495,632856,0,0,0,238,262,137,283,170,238,470,470,249,356,423,72,0,
2,1775234507472,2857,416,17051,4039040,-318871,-529009,0,0,0,502,550,231,455,504,499,257,211,359,259,187,572,0,
1,1775234507488,-3747,9518,15678,5822767,3687182,409279,0,0,0,241,264,136,298,171,251,488,488,258,402,438,78,0,
2,1775234507488,3986,464,19009,4880813,-458148,-775798,0,0,0,500,544,235,455,495,495,252,188,354,272,194,522,0,
1,1775234507504,1392,-650,24699,5639507,1276708,509461,0,0,0,244,268,147,304,176,263,496,497,264,420,445,91,0,
2,1775234507504,5173,559,22565,6035348,-636521,-1163087,0,0,0,476,526,230,449,490,491,253,173,347,236,165,463,0,
1,1775234507520,296,-4158,25977,4101349,-13439,715934,0,0,0,255,276,183,312,179,284,499,500,278,425,447,112,0,
2,1775234507520,6116,832,27006,7114136,-740368,-1507615,0,0,0,411,500,214,433,470,470,263,172,332,208,145,388,0,
1,1775234507536,-4015,-1435,16889,2156354,-57421,432492,0,0,0,268,285,224,330,187,323,510,511,295,440,458,146,0,
2,1775234507536,6484,2029,30466,8062199,-554665,-1800830,0,0,0,347,473,205,395,437,431,274,186,305,202,159,337,0,
1,1775234507552,-3871,636,9274,1150870,193033,-98960,0,0,0,290,299,249,352,200,358,523,524,316,455,473,194,0,
2,1775234507552,6345,3804,31744,8809898,-197920,-2095267,0,0,0,291,445,206,358,397,387,291,224,272,161,138,265,0,
1,1775234507568,-2263,157,8193,607200,280998,-270002,0,0,0,308,304,271,365,204,362,540,538,323,462,485,208,0,
2,1775234507568,7427,5135,30586,9271712,274889,-2453234,0,0,0,265,430,218,339,370,363,306,260,257,121,109,205,0,
1,1775234507584,-1584,-282,10782,221133,243124,-117286,0,0,0,316,311,254,366,205,351,548,546,331,468,493,230,0,
2,1775234507584,10552,8088,22029,9215512,516791,-3054326,0,0,0,265,430,228,333,363,362,311,280,262,121,120,194,0,
1,1775234507600,-2033,799,10978,97738,158824,-3665,0,0,0,323,316,256,373,211,366,552,540,343,472,496,256,0,
2,1775234507600,9863,11179,15544,8420166,175929,-3720169,0,0,0,266,431,228,332,363,364,311,293,260,125,133,194,0,
1,1775234507616,-2225,1325,10136,196698,89186,18325,0,0,0,330,341,261,377,260,367,554,537,351,488,498,277,0,
2,1775234507616,3814,18415,11380,5211902,-890641,-3320663,0,0,0,265,433,224,335,367,361,310,293,252,123,130,189,0,
1,1775234507632,-2096,1062,9892,320093,21991,14660,0,0,0,326,360,260,374,304,374,548,507,360,480,485,286,0,
2,1775234507632,2043,21464,9509,-641408,-1826487,-957836,0,0,0,264,433,218,339,368,360,314,296,252,126,131,191,0,
1,1775234507648,-2096,938,10227,365297,-29321,29321,0,0,0,326,359,260,378,287,380,548,482,357,472,465,312,0,
2,1775234507648,4690,15032,9164,-5517334,-2086715,1391551,0,0,0,261,435,218,339,368,359,315,299,255,127,133,192,0,
1,1775234507664,-2100,1048,10399,393397,-64751,52534,0,0,0,329,348,263,381,260,397,547,462,363,453,434,346,0,
2,1775234507664,7705,5838,7638,-6274807,-1525941,1879021,0,0,0,258,436,219,340,371,361,318,301,255,129,135,194,0,
1,1775234507680,-2019,1033,10160,472809,-151494,63529,0,0,0,333,344,265,383,251,400,547,439,358,437,406,354,0,
2,1775234507680,7513,2924,4891,-5126381,-724486,1004262,0,0,0,251,436,219,338,373,361,319,305,257,129,137,194,0,
1,1775234507696,-2086,832,9863,526565,-232128,63529,0,0,0,333,349,258,382,265,395,543,422,355,425,389,357,0,
2,1775234507696,6360,3876,4455,-4747644,-174707,235793,0,0,0,251,438,223,338,373,361,318,307,253,125,137,192,0,
1,1775234507712,-2249,631,9676,503352,-226020,67195,0,0,0,332,356,252,385,280,395,539,409,360,406,377,367,0,
2,1775234507712,5412,5058,6594,-5409822,85521,-46425,0,0,0,249,437,224,338,375,361,319,311,257,126,138,192,0,
1,1775234507728,-2349,507,9571,445931,-168598,79412,0,0,0,331,353,255,390,273,400,538,391,363,390,360,375,0,
2,1775234507728,4895,5044,8614,-6079330,290771,-69638,0,0,0,247,437,221,338,374,362,318,311,254,127,136,192,0,
1,1775234507744,-2330,502,9590,401949,-113620,92851,0,0,0,328,347,257,391,257,403,537,365,362,384,339,383,0,
2,1775234507744,5039,4201,9523,-6357885,621860,103847,0,0,0,245,437,220,338,374,362,318,309,255,128,138,190,0,
1,1775234507760,-2306,488,9648,381179,-85521,106290,0,0,0,331,354,246,394,258,402,529,332,361,375,329,386,0,
2,1775234507760,4910,3431,10461,-6350555,1257160,434936,0,0,0,248,438,224,339,375,363,321,310,257,129,139,190,0,
1,1775234507776,-2335,454,9657,379958,-61086,122173,0,0,0,331,351,243,393,266,408,527,321,363,362,314,386,0,
2,1775234507776,4111,3216,12266,-6359107,1770287,858876,0,0,0,248,438,225,338,375,362,322,311,255,130,139,192,0,
1,1775234507792,-2292,411,9643,386066,-43982,142942,0,0,0,336,356,243,396,262,409,527,308,369,354,303,395,0,
2,1775234507792,3713,3374,14424,-6524040,1909564,1306029,0,0,0,247,437,224,339,376,362,323,311,257,128,138,190,0,
1,1775234507808,-2196,382,9705,398284,-51312,163711,0,0,0,351,355,245,399,260,423,516,293,372,348,290,409,0,
2,1775234507808,4024,3254,16511,-6756169,1993864,1644449,0,0,0,248,438,226,340,376,363,325,311,258,126,136,189,0,
1,1775234507824,-2144,354,9839,426383,-74525,171042,0,0,0,346,357,252,405,264,428,510,278,376,340,263,414,0,
2,1775234507824,4642,2670,19181,-6968750,2141693,1788613,0,0,0,248,438,228,338,375,363,325,311,257,162,154,188,0,
1,1775234507840,-2144,258,9954,466701,-91629,174707,0,0,0,350,353,245,405,264,423,502,270,381,330,263,424,0,
2,1775234507840,5025,2158,22775,-7016398,2243097,1755626,0,0,0,247,437,226,338,374,363,326,311,258,192,170,187,0,
1,1775234507856,-2153,138,10035,520457,-108734,184481,0,0,0,349,359,238,421,274,427,493,262,376,323,251,435,0,
2,1775234507856,5824,1541,27618,-7098254,2282192,1781283,0,0,0,248,437,227,340,372,362,330,310,261,127,133,189,0,
1,1775234507872,-2359,81,10059,610865,-128281,215024,0,0,0,350,374,237,429,287,438,491,240,374,313,217,454,0,
2,1775234507872,6374,-1177,31203,-7268074,2432465,2012190,0,0,0,246,436,225,340,372,362,331,307,261,129,135,187,0,
1,1775234507888,-2531,28,10069,713490,-147829,273667,0,0,0,358,374,235,420,288,464,488,223,384,298,193,481,0,
2,1775234507888,5187,-7523,33711,-7270518,2915048,2312735,0,0,0,251,437,225,343,374,365,332,304,263,153,143,183,0,
1,1775234507904,-2555,-95,10174,813672,-172263,340862,0,0,0,370,379,236,415,298,479,478,212,390,288,184,502,0,
2,1775234507904,1646,-19358,34457,-6626666,3061656,2399478,0,0,0,252,437,221,349,379,372,338,308,273,131,133,188,0,
1,1775234507920,-2388,-215,10538,923628,-212581,381179,0,0,0,383,391,242,432,312,490,458,201,397,286,176,519,0,
2,1775234507920,344,-31720,30758,-5530773,2306627,2013411,0,0,0,249,435,218,348,377,376,337,307,271,126,131,194,0,
1,1775234507936,-2421,-296,11083,1071457,-273667,401949,0,0,0,390,399,237,456,319,503,433,193,417,282,168,538,0,
2,1775234507936,536,-43546,21368,-3747047,1348790,603534,0,0,0,251,436,220,348,375,377,340,311,275,126,127,193,0,
1,1775234507952,-2708,-272,11753,1284038,-300545,431270,0,0,0,395,409,218,466,334,507,408,188,437,271,161,552,0,
2,1775234507952,-5202,-46810,16400,-1920560,1255938,-1293812,0,0,0,246,427,207,345,371,367,333,329,277,130,135,188,0,
1,1775234507968,-2541,-282,12289,1617571,-248011,475253,0,0,0,410,409,206,472,339,514,380,181,448,266,152,563,0,
2,1775234507968,-12859,-45001,17707,-215024,657290,-2278527,0,0,0,240,417,200,341,374,362,380,413,265,143,181,179,0,
1,1775234507984,-2038,-464,12677,2031737,-183259,470366,0,0,0,404,432,203,472,369,521,345,173,453,255,149,569,0,
2,1775234507984,-14654,-31887,24063,1666440,-1392772,-1621236,0,0,0,237,393,178,335,357,349,437,461,251,164,226,170,0,
1,1775234508000,-2622,-559,13409,2493551,-166155,443488,0,0,0,412,443,192,460,369,521,296,166,460,247,145,571,0,
2,1775234508000,-2292,-38,19559,3552792,-4348138,-87964,0,0,0,242,374,162,338,340,347,472,477,251,183,265,167,0,
1,1775234508016,-3795,-516,14615,3101973,-169820,546113,0,0,0,432,446,197,457,378,517,238,159,460,221,125,566,0,
2,1775234508016,4364,13515,12352,4597371,-5012760,831998,0,0,0,246,375,182,344,336,367,490,490,266,196,293,176,0,
1,1775234508032,-4895,-354,16190,3878994,-150272,833220,0,0,0,436,427,203,454,373,505,212,159,440,230,126,546,0,
2,1775234508032,-2249,3752,17051,5138598,-2822197,645073,0,0,0,251,383,204,349,337,379,503,503,279,206,306,188,0,
1,1775234508048,-5872,-196,18851,4814839,-95294,1215621,0,0,0,423,426,209,448,385,492,213,158,430,207,114,506,0,
2,1775234508048,-6106,-2163,23474,5027420,-693942,-17104,0,0,0,264,395,222,357,343,381,516,516,284,227,320,196,0,
1,1775234508064,-7781,-157,22976,5834984,-10995,1602910,0,0,0,408,395,208,434,342,458,214,141,397,192,102,436,0,
2,1775234508064,-1373,-406,22019,3813020,-20769,-496022,0,0,0,279,417,260,368,355,392,531,534,285,244,325,208,0,
1,1775234508080,-9897,43,26709,6828251,72082,2041511,0,0,0,375,374,196,390,297,424,210,146,372,171,102,356,0,
2,1775234508080,2694,1201,14300,2122145,-141720,-111177,0,0,0,297,437,288,380,371,400,540,546,285,250,323,222,0,
1,1775234508096,-10681,421,29686,7827627,217468,2601064,0,0,0,307,351,196,336,259,382,218,162,338,153,118,282,0,
2,1775234508096,2134,827,9911,1005484,-234572,233350,0,0,0,313,451,301,390,378,411,549,553,296,334,401,230,0,
1,1775234508112,-9418,2048,31155,8371297,422718,2965139,0,0,0,257,317,190,290,223,316,258,200,293,156,167,185,0,
2,1775234508112,507,95,9997,412944,-244346,223576,0,0,0,325,452,306,392,380,411,555,571,289,365,428,232,0,
1,1775234508128,-10212,5173,29628,8807455,724486,3192381,0,0,0,252,294,188,269,200,272,301,238,274,170,213,121,0,
2,1775234508128,579,713,10772,190589,-268780,64751,0,0,0,335,460,307,399,384,414,559,571,286,352,411,240,0,
1,1775234508144,-13156,10959,19506,8647408,696386,3453832,0,0,0,263,294,202,274,199,276,315,251,288,173,225,127,0,
2,1775234508144,827,1469,10500,76969,-261450,2443,0,0,0,347,471,319,400,378,415,561,574,288,356,417,244,0,
1,1775234508160,-12299,15596,11974,7117801,306654,3583335,0,0,0,261,294,202,277,203,279,314,256,288,171,226,126,0,
2,1775234508160,861,1651,10150,58643,-185703,12217,0,0,0,346,465,318,397,383,416,572,575,288,374,433,245,0,
1,1775234508176,-6456,20129,10380,2868623,151494,2492330,0,0,0,256,294,202,276,200,279,314,260,277,171,224,123,0,
2,1775234508176,823,1665,10136,94073,-128281,7330,0,0,0,350,466,318,395,383,415,572,568,288,377,433,250,0,
1,1775234508192,-2861,18277,11122,-1976759,1064127,23212,0,0,0,259,297,202,273,200,274,319,263,274,172,225,121,0,
2,1775234508192,732,1708,10256,185703,-87964,-14660,0,0,0,355,469,322,397,380,417,507,516,318,378,424,251,0,
1,1775234508208,-4479,11749,8915,-4421442,1905899,-1678657,0,0,0,259,298,202,275,203,277,321,263,271,177,227,125,0,
2,1775234508208,665,1770,10227,298102,-24434,-32986,0,0,0,358,472,317,403,386,423,535,532,303,315,350,270,0,
1,1775234508224,-7757,6345,5302,-4433659,1615127,-1756848,0,0,0,257,300,203,275,203,276,323,264,272,174,226,121,0,
2,1775234508224,727,1694,10069,395840,58643,-29321,0,0,0,363,474,317,408,393,429,558,544,300,257,280,288,0,
1,1775234508240,-7322,5278,4187,-4197865,525344,-1084896,0,0,0,254,299,204,272,200,275,322,264,274,177,229,122,0,
2,1775234508240,842,1502,9954,445931,105068,-23212,0,0,0,365,474,331,409,393,431,556,536,309,240,251,307,0,
1,1775234508256,-5254,5652,5264,-4445877,-48869,-674395,0,0,0,251,300,205,272,203,278,319,261,275,174,230,124,0,
2,1775234508256,918,1349,9882,433714,98960,-28099,0,0,0,370,476,332,411,392,430,555,524,312,240,237,317,0,
1,1775234508272,-4637,5819,7236,-5104389,106290,-719599,0,0,0,256,301,209,277,206,282,322,262,279,175,230,125,0,
2,1775234508272,976,1287,9834,400727,73303,-37873,0,0,0,379,480,322,415,394,430,553,509,313,238,224,322,0,
1,1775234508288,-5570,5312,8844,-5772676,89186,-889419,0,0,0,255,301,213,276,205,287,325,265,283,176,228,127,0,
2,1775234508288,1043,1301,9863,381179,34208,-41538,0,0,0,386,483,324,418,398,435,549,493,314,237,217,333,0,
1,1775234508304,-6006,4402,10624,-6366437,-423940,-1073901,0,0,0,255,301,213,273,204,288,327,266,284,177,227,126,0,
2,1775234508304,1100,1277,9925,376292,-24434,-48869,0,0,0,393,486,325,422,403,440,545,475,317,254,221,337,0,
1,1775234508320,-5537,3474,12471,-6846577,-839328,-1276708,0,0,0,257,302,210,275,203,285,325,265,280,180,230,125,0,
2,1775234508320,1067,1220,9987,397062,-78190,-56199,0,0,0,399,490,322,419,403,442,538,453,323,319,278,338,0,
1,1775234508336,-5273,2196,14352,-7221648,-1005484,-1461189,0,0,0,257,302,211,276,203,286,320,262,279,181,232,127,0,
2,1775234508336,1009,1153,9992,421497,-109955,-62308,0,0,0,412,498,329,424,410,449,540,447,327,233,186,367,0,
1,1775234508352,-5809,842,16199,-7312056,-1136209,-1391551,0,0,0,259,301,214,277,203,288,328,264,281,181,230,127,0,
2,1775234508352,942,1076,9959,448375,-116064,-67195,0,0,0,419,502,334,423,410,450,535,424,331,233,177,379,0,
1,1775234508368,-6140,-14,18597,-7226535,-1409876,-1125213,0,0,0,260,300,217,279,201,292,331,265,281,180,229,126,0,
2,1775234508368,914,1024,9987,478918,-102625,-74525,0,0,0,426,506,326,437,420,462,527,402,334,233,173,400,0,
1,1775234508384,-5886,-411,21526,-7105584,-1692096,-863763,0,0,0,260,302,212,276,204,289,319,262,279,178,228,124,0,
2,1775234508384,971,947,10093,515570,-75747,-84299,0,0,0,439,512,323,437,431,464,522,384,345,243,172,418,0,
1,1775234508400,-5920,-1196,24843,-7049384,-1778839,-934623,0,0,0,254,300,218,276,202,292,329,271,289,178,229,126,0,
2,1775234508400,1091,847,10179,559552,-54977,-103847,0,0,0,452,523,329,442,436,467,518,360,352,248,173,432,0,
1,1775234508416,-7063,-3005,28293,-6927211,-1836260,-1389107,0,0,0,254,301,220,277,203,293,319,259,281,181,230,131,0,
2,1775234508416,1167,727,10208,603534,-36651,-142942,0,0,0,461,527,326,450,444,476,508,332,355,251,171,451,0,
1,1775234508432,-8241,-7178,31241,-6670648,-2368935,-2161241,0,0,0,256,306,223,275,200,294,321,267,286,176,226,127,0,
2,1775234508432,1162,641,10265,657290,-19547,-194255,0,0,0,466,532,320,455,450,482,497,304,359,263,176,478,0,
1,1775234508448,-7714,-13869,32969,-6436076,-2996904,-2697580,0,0,0,253,308,226,273,202,296,324,267,293,175,223,126,0,
2,1775234508448,1191,626,10457,741590,-36651,-233350,0,0,0,471,537,323,457,456,485,484,278,362,271,180,502,0,
1,1775234508464,-5857,-24288,30428,-6091548,-2949257,-2519208,0,0,0,242,310,223,273,209,299,319,260,294,178,225,130,0,
2,1775234508464,1253,617,10973,897971,-58643,-266337,0,0,0,481,543,324,463,468,495,465,255,369,273,179,521,0,
1,1775234508480,-1971,-35706,23914,-5292536,-2693915,-1656666,0,0,0,239,314,223,272,209,300,318,259,293,180,228,131,0,
2,1775234508480,1100,622,12021,1197295,-57421,-296880,0,0,0,487,551,309,471,483,506,439,246,374,274,182,535,0,
1,1775234508496,6015,-44460,17047,-3806912,-2499660,-416610,0,0,0,240,314,225,270,208,300,317,258,293,180,229,132,0,
2,1775234508496,928,631,12873,1601688,-3665,-287106,0,0,0,487,558,293,474,496,512,410,244,372,273,189,547,0,
1,1775234508512,14644,-48140,13797,-1527163,-1192408,643851,0,0,0,248,314,222,276,205,294,321,253,289,187,229,132,0,
2,1775234508512,938,559,13462,2080607,59864,-280998,0,0,0,492,559,280,477,508,514,377,232,377,285,196,565,0,
1,1775234508528,13553,-44862,14027,368962,599869,1075122,0,0,0,249,307,209,281,200,284,345,291,281,215,275,119,0,
2,1775234508528,1215,469,14137,2624277,74525,-293215,0,0,0,497,558,244,477,508,511,340,231,378,327,214,571,0,
1,1775234508544,5580,-31217,17147,1941329,1909564,1102000,0,0,0,236,286,176,277,189,262,398,377,262,273,365,92,0,
2,1775234508544,2172,335,15142,3293785,-14660,-382401,0,0,0,498,551,237,479,515,519,297,223,373,270,186,583,0,
1,1775234508560,-4154,4503,18650,3268129,2922379,449596,0,0,0,242,266,143,278,170,234,449,436,239,336,411,74,0,
2,1775234508560,2770,402,16271,3992615,-135612,-551000,0,0,0,510,550,247,468,506,508,271,210,371,254,178,576,0,
1,1775234508576,-6704,19530,12825,4094018,3463605,-316428,0,0,0,247,267,143,286,169,242,468,469,250,364,424,70,0,
2,1775234508576,3187,674,17812,4770857,-262672,-761138,0,0,0,505,544,239,460,508,508,260,191,371,256,183,564,0,
1,1775234508592,894,3675,14946,5535660,2311514,-448375,0,0,0,243,273,139,298,179,256,484,484,257,402,435,80,0,
2,1775234508592,4446,679,20760,5797111,-379958,-1058018,0,0,0,501,526,247,456,494,505,257,166,370,238,163,492,0,
1,1775234508608,4632,-5321,23895,5750685,679282,237015,0,0,0,263,279,173,301,185,271,497,497,268,442,446,84,0,
2,1775234508608,5809,315,24953,6827029,-392175,-1378111,0,0,0,450,508,229,453,481,491,258,160,352,216,149,421,0,
1,1775234508624,-464,-3182,25340,4144109,-124616,941954,0,0,0,260,288,214,319,199,309,512,513,291,437,458,108,0,
2,1775234508624,7102,741,29265,7764097,-100181,-1682322,0,0,0,382,486,204,432,457,460,268,169,328,200,143,363,0,
1,1775234508640,-5283,100,16061,2017077,-67195,411723,0,0,0,282,297,233,342,204,337,527,527,298,457,484,182,0,
2,1775234508640,7303,3091,32184,8669399,375071,-2074498,0,0,0,320,455,203,378,414,415,283,205,290,165,129,303,0,
1,1775234508656,-4029,234,9825,896750,78190,-195476,0,0,0,306,313,251,357,205,341,541,536,314,470,499,207,0,
2,1775234508656,7571,5010,32285,9202073,680503,-2508212,0,0,0,276,426,214,337,375,375,297,246,266,128,112,231,0,
1,1775234508672,-1885,-488,9016,398284,130725,-272445,0,0,0,313,320,260,353,207,369,551,543,333,479,503,235,0,
2,1775234508672,8633,7614,27331,9216734,934623,-3060434,0,0,0,261,418,223,331,363,365,310,279,266,117,112,191,0,
1,1775234508688,-2124,349,10385,166155,127059,-41538,0,0,0,315,327,264,359,215,375,552,537,330,483,508,258,0,
2,1775234508688,9140,11222,17047,8704829,428827,-3771481,0,0,0,263,424,226,334,368,371,313,296,269,121,120,193,0,
1,1775234508704,-2565,1033,10380,168598,122173,15882,0,0,0,321,331,287,362,215,381,555,531,339,476,506,272,0,
2,1775234508704,6628,16410,11797,6327342,-657290,-3698178,0,0,0,263,427,220,334,369,368,310,295,262,120,120,193,0,
1,1775234508720,-2493,1201,9983,243124,97738,19547,0,0,0,329,334,295,361,215,386,560,522,354,467,496,284,0,
2,1775234508720,3134,22660,9121,684169,-1550375,-2146580,0,0,0,264,428,217,338,370,362,313,292,254,121,120,191,0,
1,1775234508736,-2201,1019,9882,321315,43982,25656,0,0,0,330,339,278,368,224,388,559,502,357,461,480,301,0,
2,1775234508736,2608,18851,10284,-4695110,-1942551,197920,0,0,0,266,432,219,336,368,362,314,295,253,138,130,192,0,
1,1775234508752,-2278,1019,10117,360410,-14660,47647,0,0,0,330,340,282,371,233,401,555,480,364,448,452,330,0,
2,1775234508752,5848,8470,8370,-6157521,-2040289,1248608,0,0,0,260,433,220,338,371,363,322,302,259,210,171,189,0,
1,1775234508768,-2311,1100,10294,412944,-70860,70860,0,0,0,328,345,278,366,243,398,553,461,374,427,426,350,0,
2,1775234508768,8767,2641,4589,-5586973,-1437976,963945,0,0,0,260,436,223,339,374,366,318,304,259,121,124,193,0,
1,1775234508784,-2134,1139,11720,411723,-92851,81855,0,0,0,323,354,275,366,246,399,546,435,376,416,415,344,0,
2,1775234508784,8174,3263,3838,-5070181,-265115,140499,0,0,0,255,434,220,339,373,368,318,303,259,121,121,191,0,
1,1775234508800,-2091,1052,11959,397062,-113620,83077,0,0,0,323,367,267,374,261,407,538,427,388,408,399,360,0,
2,1775234508800,5910,4747,5699,-5332853,470366,-282219,0,0,0,253,436,220,340,374,366,318,303,257,119,120,189,0,
1,1775234508816,-2287,808,10078,427605,-161268,78190,0,0,0,320,365,267,372,258,406,532,403,372,392,379,365,0,
2,1775234508816,4005,5087,8289,-5988922,609643,-205250,0,0,0,254,438,224,336,374,365,319,309,258,119,123,189,0,
1,1775234508832,-2445,641,9136,433714,-147829,78190,0,0,0,327,370,268,374,259,408,535,392,372,385,365,371,0,
2,1775234508832,4465,4111,9030,-6186843,788016,133168,0,0,0,252,436,223,339,375,365,321,310,259,120,124,190,0,
1,1775234508848,-2498,579,9274,410501,-85521,85521,0,0,0,325,368,265,379,260,412,529,374,378,373,347,381,0,
2,1775234508848,4666,3646,9978,-6233268,1307251,500909,0,0,0,251,435,222,339,377,367,314,308,257,118,122,189,0,
1,1775234508864,-2455,569,9624,389732,-20769,100181,0,0,0,328,370,267,378,268,418,523,354,378,362,335,388,0,
2,1775234508864,4024,3790,11667,-6357885,1787391,906524,0,0,0,252,438,223,337,376,366,315,309,258,118,122,189,0,
1,1775234508880,-2301,545,9648,386066,3665,117286,0,0,0,332,371,271,377,270,427,519,340,385,355,326,408,0,
2,1775234508880,3776,3508,13845,-6587570,1981646,1387885,0,0,0,251,439,223,338,376,368,322,312,259,120,123,190,0,
1,1775234508896,-2182,512,9638,383623,-8552,120951,0,0,0,334,370,272,383,276,431,515,326,383,350,309,411,0,
2,1775234508896,4091,3053,15711,-6691417,2114815,1635897,0,0,0,247,437,222,341,379,371,324,314,259,121,125,192,0,
1,1775234508912,-2187,464,9691,383623,-42760,114842,0,0,0,338,369,280,388,282,435,508,306,374,347,291,410,0,
2,1775234508912,4034,3015,18248,-6769608,2301740,1634675,0,0,0,246,436,224,340,379,371,326,315,263,122,126,193,0,
1,1775234508928,-2258,406,9796,400727,-91629,122173,0,0,0,340,371,278,393,287,442,502,289,371,342,273,425,0,
2,1775234508928,3866,3172,21670,-6943094,2434908,1540602,0,0,0,246,436,225,340,377,372,326,316,266,119,126,193,0,
1,1775234508944,-2359,315,9830,432492,-147829,149051,0,0,0,338,373,256,401,292,442,498,274,367,329,249,441,0,
2,1775234508944,3905,3091,26097,-7194770,2484999,1464854,0,0,0,247,437,228,341,378,371,327,315,266,118,125,193,0,
1,1775234508960,-2445,234,9810,466701,-200363,190589,0,0,0,345,376,254,394,285,439,486,252,363,321,235,455,0,
2,1775234508960,3661,1765,30212,-7347487,2568077,1594358,0,0,0,247,436,228,340,377,369,326,313,262,115,122,187,0,
1,1775234508976,-2426,177,9901,515570,-261450,240680,0,0,0,356,381,254,400,293,438,487,246,377,334,224,482,0,
2,1775234508976,1976,-3981,34577,-7269296,2812423,2106263,0,0,0,253,436,235,336,371,364,325,302,262,116,117,185,0,
1,1775234508992,-2541,210,10303,624304,-301767,280998,0,0,0,369,392,258,415,302,461,489,238,396,381,215,489,0,
2,1775234508992,689,-14180,36630,-6879564,2552194,2514321,0,0,0,257,438,233,341,372,367,333,300,266,123,121,185,0,
1,1775234509008,-2804,167,10591,779464,-289550,332310,0,0,0,389,403,272,432,316,489,476,211,403,297,189,524,0,
2,1775234509008,3488,-29083,33227,-6058561,1407433,2278527,0,0,0,253,439,225,348,380,375,340,307,273,124,122,188,0,
1,1775234509024,-2857,-4,10772,935845,-250454,388510,0,0,0,392,407,245,437,351,495,473,210,419,298,186,536,0,
2,1775234509024,7331,-42201,22842,-4520402,858876,748920,0,0,0,257,442,226,351,383,377,341,310,275,122,122,188,0,
1,1775234509040,-2861,-105,11203,1121548,-215024,436157,0,0,0,391,427,235,448,367,508,449,210,417,289,185,541,0,
2,1775234509040,-2952,-45800,16937,-2317622,1903456,-1389107,0,0,0,256,440,227,351,383,377,341,312,276,122,122,190,0,
1,1775234509056,-2785,-129,11768,1361007,-196698,467922,0,0,0,406,429,224,475,359,513,423,196,400,291,175,552,0,
2,1775234509056,-16132,-43929,17999,-538783,1591914,-2135584,0,0,0,248,434,224,350,384,378,348,339,273,130,143,193,0,
1,1775234509072,-2402,-282,12184,1694540,-190589,471587,0,0,0,404,444,211,474,368,521,383,187,398,279,167,568,0,
2,1775234509072,-16960,-38540,20129,921184,-596204,-1313360,0,0,0,239,419,204,346,380,368,381,413,261,144,178,184,0,
1,1775234509088,-2359,-406,12620,2045176,-171042,444709,0,0,0,403,441,211,478,387,516,336,178,425,270,161,576,0,
2,1775234509088,-3546,-13017,20918,2383596,-2502104,-251676,0,0,0,238,394,177,317,372,341,425,462,253,161,219,175,0,
1,1775234509104,-3273,-435,13481,2528982,-103847,485026,0,0,0,403,438,208,464,390,516,272,168,439,254,150,575,0,
2,1775234509104,7599,18329,14419,3440393,-3833790,685390,0,0,0,242,374,166,312,354,340,461,473,256,178,256,176,0,
1,1775234509120,-4163,-397,14524,3109304,-36651,634078,0,0,0,419,440,204,438,391,516,223,163,441,236,145,569,0,
2,1775234509120,3584,12261,9916,4317595,-3649308,1141096,0,0,0,247,371,170,339,337,362,480,490,261,221,315,177,0,
1,1775234509136,-5101,-248,15788,3889989,26878,917519,0,0,0,439,431,209,421,400,509,204,164,443,223,142,548,0,
2,1775234509136,-5379,-1694,14692,5207015,-2272418,1112996,0,0,0,252,376,176,349,338,368,495,510,267,255,357,180,0,
1,1775234509152,-6221,-148,17779,4701218,102625,1287703,0,0,0,439,423,218,413,401,496,208,163,437,209,131,510,0,
2,1775234509152,-7681,-3551,22139,4841717,-974940,195476,0,0,0,258,388,196,358,344,376,512,511,280,210,308,194,0,
1,1775234509168,-7815,-248,21062,5578421,164933,1710422,0,0,0,417,420,219,400,376,470,214,153,409,185,117,452,0,
2,1775234509168,-875,1086,21191,3696956,-643851,-541226,0,0,0,267,409,233,361,351,387,527,526,294,225,315,203,0,
1,1775234509184,-9451,-143,24704,6531371,228463,2196671,0,0,0,373,385,204,375,318,430,206,149,367,162,106,356,0,
2,1775234509184,3278,1856,16391,2410474,-411723,-362853,0,0,0,287,436,272,374,366,396,538,538,299,236,323,217,0,
1,1775234509200,-9973,0,27350,7369478,315206,2635272,0,0,0,312,369,186,342,294,382,207,170,332,149,115,288,0,
2,1775234509200,1876,516,12203,1297477,-219911,86742,0,0,0,305,449,294,387,378,410,548,548,297,252,339,235,0,
1,1775234509216,-8442,1033,29375,7975456,439822,2998126,0,0,0,253,335,186,297,254,335,239,199,291,149,150,222,0,
2,1775234509216,478,153,10519,555887,-160046,202807,0,0,0,325,452,299,394,380,420,556,556,297,283,364,248,0,
1,1775234509232,-8662,4321,28265,8367632,736703,3123964,0,0,0,254,283,192,267,187,267,302,230,284,168,193,125,0,
2,1775234509232,555,794,10413,261450,-213802,81855,0,0,0,340,455,308,398,380,412,566,567,295,279,356,255,0,
1,1775234509248,-11744,8528,21593,8583878,619417,3288898,0,0,0,264,289,199,275,196,273,313,246,285,175,215,122,0,
2,1775234509248,909,1306,10294,145385,-257785,10995,0,0,0,348,462,313,401,383,414,565,566,295,270,347,261,0,
1,1775234509264,-12112,12629,13486,7841066,200363,3596774,0,0,0,265,292,205,283,197,281,310,249,289,180,220,128,0,
2,1775234509264,871,1464,10222,78190,-219911,4886,0,0,0,350,466,316,397,382,413,569,570,292,283,357,265,0,
1,1775234509280,-7154,17745,10916,4009719,277332,2824640,0,0,0,270,292,202,298,194,275,321,250,278,188,217,124,0,
2,1775234509280,784,1545,10227,67195,-146607,4886,0,0,0,352,467,315,399,382,415,567,577,288,314,379,268,0,
1,1775234509296,-3326,19152,11337,-819781,1009149,777020,0,0,0,265,294,201,288,195,272,324,260,273,183,217,124,0,
2,1775234509296,765,1684,10227,119729,-98960,-8552,0,0,0,355,468,315,400,384,420,568,576,292,305,363,276,0,
1,1775234509312,-4723,13060,9652,-3861890,1859473,-1218065,0,0,0,260,296,203,277,195,275,326,263,275,180,217,128,0,
2,1775234509312,703,1789,10212,227241,-46425,-23212,0,0,0,357,468,316,398,386,422,563,568,297,275,330,286,0,
1,1775234509328,-7805,6838,6135,-4445877,1775174,-1725083,0,0,0,260,298,205,278,197,278,328,261,276,181,217,128,0,
2,1775234509328,698,1727,10145,337197,41538,-25656,0,0,0,358,469,318,399,389,424,556,558,297,253,301,294,0,
1,1775234509344,-7939,4919,4393,-4117231,783129,-1108109,0,0,0,257,300,205,280,201,280,322,258,276,181,220,128,0,
2,1775234509344,784,1584,10007,401949,111177,-23212,0,0,0,362,471,321,407,392,428,558,551,299,236,269,301,0,
1,1775234509360,-6183,5226,5106,-4272391,210137,-708603,0,0,0,256,300,206,280,203,282,315,253,279,182,223,130,0,
2,1775234509360,909,1435,9863,404392,123394,-23212,0,0,0,367,473,320,410,389,429,558,545,304,235,252,307,0,
1,1775234509376,-5144,5800,6896,-4938234,249233,-735481,0,0,0,258,301,208,279,199,280,324,260,280,182,221,128,0,
2,1775234509376,952,1344,9810,377514,90408,-29321,0,0,0,368,473,320,406,389,428,551,529,306,244,247,321,0,
1,1775234509392,-6355,5106,8274,-5736024,208915,-977384,0,0,0,258,301,205,282,202,282,324,258,275,185,222,129,0,
2,1775234509392,971,1320,9820,354301,50090,-36651,0,0,0,374,475,321,411,390,431,552,515,307,232,228,331,0,
1,1775234509408,-7025,3847,9471,-6249151,-234572,-1110553,0,0,0,259,302,207,278,200,278,326,260,276,184,222,124,0,
2,1775234509408,1014,1296,9858,340862,6108,-46425,0,0,0,383,479,324,417,391,434,551,505,315,236,219,342,0,
1,1775234509424,-6499,2641,10916,-6524040,-736703,-1178969,0,0,0,256,301,214,278,199,288,330,264,279,184,222,127,0,
2,1775234509424,1038,1220,9868,333532,-39095,-56199,0,0,0,389,483,323,422,394,445,548,488,312,234,205,358,0,
1,1775234509440,-6010,1799,12792,-6720739,-981049,-1273043,0,0,0,258,300,207,280,200,281,333,266,280,183,220,123,0,
2,1775234509440,1005,1172,9877,326202,-73303,-62308,0,0,0,392,485,323,427,399,452,552,480,327,241,205,377,0,
1,1775234509456,-6298,1225,14716,-6890559,-1163087,-1324355,0,0,0,259,298,204,282,201,280,328,264,280,185,222,122,0,
2,1775234509456,957,1172,9930,338419,-85521,-62308,0,0,0,402,490,319,431,408,449,550,466,328,243,196,376,0,
1,1775234509472,-6714,693,17353,-7022506,-1514945,-1254717,0,0,0,261,299,206,282,200,280,324,262,279,183,222,122,0,
2,1775234509472,938,1148,9987,371406,-86742,-63529,0,0,0,409,500,314,435,415,456,548,447,331,244,190,392,0,
1,1775234509488,-6652,38,20535,-7084815,-1879021,-1119105,0,0,0,262,302,208,280,200,280,327,264,280,184,223,122,0,
2,1775234509488,952,1057,10011,412944,-74525,-67195,0,0,0,416,506,320,440,421,465,546,432,341,272,192,401,0,
1,1775234509504,-6594,-1005,23962,-7060380,-2042733,-1134987,0,0,0,260,302,207,280,200,281,329,265,282,181,221,122,0,
2,1775234509504,1009,971,10040,447153,-54977,-79412,0,0,0,427,515,327,441,428,469,540,407,345,257,183,417,0,
1,1775234509520,-7398,-2943,27432,-6924768,-2124589,-1456302,0,0,0,256,301,207,281,200,283,327,263,280,177,217,120,0,
2,1775234509520,1081,938,10131,493579,-31764,-107512,0,0,0,438,521,326,447,438,476,538,386,347,244,177,437,0,
1,1775234509536,-8202,-6226,30102,-6669426,-2410474,-2050063,0,0,0,253,302,207,282,201,284,324,261,278,178,216,120,0,
2,1775234509536,1081,938,10275,568104,-18325,-135612,0,0,0,446,525,320,453,446,484,532,362,352,251,180,457,0,
1,1775234509552,-7331,-12663,32041,-6370102,-2856405,-2638937,0,0,0,254,307,210,279,201,284,324,264,282,182,221,123,0,
2,1775234509552,1110,885,10433,668286,13439,-162490,0,0,0,458,529,324,457,453,494,517,329,361,257,178,479,0,
1,1775234509568,-6403,-21607,31088,-6063448,-2797762,-2742784,0,0,0,248,309,211,276,205,289,323,264,288,182,223,125,0,
2,1775234509568,1249,789,10792,808785,89186,-200363,0,0,0,470,532,328,462,463,500,499,294,373,261,172,504,0,
1,1775234509584,-5273,-31217,25388,-5481904,-2436130,-1997529,0,0,0,246,312,212,277,206,294,321,259,291,184,222,129,0,
2,1775234509584,1320,741,11337,1011592,158824,-245567,0,0,0,470,537,311,467,469,505,475,264,373,269,180,533,0,
1,1775234509600,1555,-39602,17607,-3995058,-2609616,-470366,0,0,0,246,312,212,277,206,294,321,256,290,183,222,129,0,
2,1775234509600,1129,737,12017,1329242,210137,-280998,0,0,0,483,543,301,480,486,510,446,246,378,274,185,555,0,
1,1775234509616,11902,-43991,13821,-2114815,-2389704,684169,0,0,0,248,312,214,276,204,291,324,256,291,185,222,129,0,
2,1775234509616,1162,617,12715,1765400,287106,-283441,0,0,0,491,548,291,501,522,499,413,242,377,274,184,568,0,
1,1775234509632,15845,-42574,14314,-117286,-417831,860098,0,0,0,228,304,207,270,201,286,329,262,289,201,247,122,0,
2,1775234509632,1545,502,13649,2228436,324980,-305432,0,0,0,491,547,261,489,506,524,372,226,374,279,188,583,0,
1,1775234509648,9595,-34295,15769,1426981,1440420,696386,0,0,0,229,293,184,275,198,262,378,350,267,276,366,97,0,
2,1775234509648,2105,531,14716,2800206,207694,-375071,0,0,0,496,546,249,483,517,521,333,225,374,274,183,582,0,
1,1775234509664,1019,-6125,18578,2902831,2712241,331088,0,0,0,239,272,156,277,179,244,423,398,247,319,407,85,0,
2,1775234509664,2512,497,15314,3409849,-41538,-497244,0,0,0,496,550,231,475,518,517,299,215,376,270,188,583,0,
1,1775234509680,-4182,16735,14496,3883881,3587000,-251676,0,0,0,244,265,137,279,170,236,451,441,255,341,418,87,0,
2,1775234509680,2833,516,16214,4146553,-260228,-663399,0,0,0,499,548,236,464,508,516,272,198,373,259,182,575,0,
1,1775234509696,-1186,10638,11265,4710992,3208264,-500909,0,0,0,244,269,132,285,173,239,470,471,254,368,427,84,0,
2,1775234509696,3651,756,17965,4927239,-354301,-858876,0,0,0,496,531,236,464,500,513,260,175,370,247,170,538,0,
1,1775234509712,3436,-2244,18765,5180137,1363451,1221,0,0,0,244,273,144,294,177,252,486,487,249,402,441,81,0,
2,1775234509712,5068,856,21392,5952270,-404392,-1180191,0,0,0,480,511,243,467,491,516,265,163,377,234,155,480,0,
1,1775234509728,918,-3263,24197,4225965,288328,744033,0,0,0,251,278,174,302,180,273,502,502,269,424,456,95,0,
2,1775234509728,6039,938,26317,7166670,-366519,-1557706,0,0,0,425,488,223,453,474,497,268,161,365,218,149,409,0,
1,1775234509744,-3996,-483,19779,2627942,255341,614530,0,0,0,264,286,211,314,186,304,513,513,289,440,469,131,0,
2,1775234509744,6499,1464,30203,8071973,-36651,-1802052,0,0,0,366,469,204,421,444,459,274,171,332,204,148,351,0,
1,1775234509760,-4594,536,12184,1277930,245567,-37873,0,0,0,282,297,246,336,198,339,524,523,298,461,485,178,0,
2,1775234509760,6121,2675,32696,8919854,632856,-2107485,0,0,0,314,444,206,373,400,410,282,209,289,166,130,286,0,
1,1775234509776,-2435,-71,9925,750142,206472,-229685,0,0,0,302,308,264,349,197,348,537,527,308,466,494,195,0,
2,1775234509776,5924,3704,32093,9332799,1177748,-2419026,0,0,0,278,422,217,339,368,373,294,250,265,123,108,219,0,
1,1775234509792,-1708,-33,10088,305432,185703,-139277,0,0,0,311,310,274,354,201,350,545,531,313,474,505,201,0,
2,1775234509792,8255,7499,24666,9283929,1712866,-2901609,0,0,0,271,419,223,333,362,365,310,273,269,115,109,191,0,
1,1775234509808,-2287,670,10600,48869,182037,-3665,0,0,0,318,322,279,366,200,353,548,538,317,481,508,200,0,
2,1775234509808,8327,12136,15683,8594873,1464854,-3678630,0,0,0,270,423,223,335,363,370,314,293,271,119,119,193,0,
1,1775234509824,-2402,1110,10141,36651,161268,-3665,0,0,0,316,326,257,361,213,350,556,530,325,482,518,225,0,
2,1775234509824,3421,17879,11682,5549099,-421497,-3617543,0,0,0,267,427,218,336,366,367,309,293,261,120,118,190,0,
1,1775234509840,-2273,1258,9868,118507,123394,-3665,0,0,0,329,333,269,372,217,357,552,520,329,477,508,236,0,
2,1775234509840,1660,21847,9250,157603,-2238210,-2081828,0,0,0,266,427,215,334,364,363,298,294,260,115,114,184,0,
1,1775234509856,-2139,1225,10002,233350,76969,25656,0,0,0,332,341,277,372,228,369,548,506,341,467,500,249,0,
2,1775234509856,4661,17410,8595,-4797735,-2614503,-131946,0,0,0,262,426,214,338,366,364,317,295,256,120,116,187,0,
1,1775234509872,-2057,1182,10174,326202,6108,52534,0,0,0,332,342,273,368,227,367,550,490,344,451,477,262,0,
2,1775234509872,7121,8121,7188,-6312681,-1712866,453262,0,0,0,262,427,215,338,368,364,320,297,258,119,116,186,0,
1,1775234509888,-2077,1167,10083,382401,-87964,57421,0,0,0,331,347,270,368,234,369,550,464,345,450,455,276,0,
2,1775234509888,7245,3345,5005,-5844758,-722042,36651,0,0,0,258,429,216,336,367,362,319,300,256,119,118,185,0,
1,1775234509904,-2172,1000,9088,379958,-113620,51312,0,0,0,329,354,276,372,244,374,545,447,347,445,435,289,0,
2,1775234509904,6044,3522,4426,-5326744,-19547,-509461,0,0,0,254,429,216,342,371,366,321,303,258,120,121,188,0,
1,1775234509920,-2234,823,8815,355523,-101403,50090,0,0,0,327,359,278,376,249,378,539,439,349,431,423,300,0,
2,1775234509920,4297,4781,6216,-5624847,351858,-601091,0,0,0,254,432,218,343,374,368,320,304,257,117,120,186,0,
1,1775234509936,-2249,765,9408,340862,-90408,54977,0,0,0,327,366,271,375,261,386,533,429,357,421,415,309,0,
2,1775234509936,3244,5092,7997,-6030461,547335,-366519,0,0,0,253,431,216,343,373,368,321,304,258,118,119,185,0,
1,1775234509952,-2239,789,9676,321315,-73303,63529,0,0,0,329,371,272,371,267,390,531,415,361,408,399,317,0,
2,1775234509952,3560,4632,8968,-6185621,877202,64751,0,0,0,253,431,219,344,374,369,322,306,259,122,120,185,0,
1,1775234509968,-2220,813,9619,306654,-48869,74525,0,0,0,326,371,275,370,268,389,533,405,366,399,391,326,0,
2,1775234509968,3718,4431,10189,-6258925,1353677,493579,0,0,0,252,431,220,342,373,368,323,308,259,122,120,187,0,
1,1775234509984,-2167,760,9566,302989,-30543,80634,0,0,0,322,376,270,365,298,395,524,412,391,397,390,340,0,
2,1775234509984,3306,4508,12203,-6401867,1786169,976162,0,0,0,251,431,220,340,373,368,324,309,259,120,119,190,0,
1,1775234510000,-2100,698,9609,299323,-26878,81855,0,0,0,329,373,267,376,262,394,527,388,381,388,378,351,0,
2,1775234510000,3311,4335,14099,-6572909,1910786,1339016,0,0,0,249,432,219,342,375,370,324,309,260,122,122,189,0,
1,1775234510016,-2100,679,9667,302989,-36651,80634,0,0,0,332,380,266,381,271,405,527,377,384,386,366,367,0,
2,1775234510016,3685,3996,16573,-6758613,2061059,1584584,0,0,0,247,432,218,343,375,372,324,309,260,122,123,187,0,
1,1775234510032,-2105,674,9710,324980,-48869,80634,0,0,0,336,388,265,384,275,418,520,355,382,366,358,370,0,
2,1775234510032,3914,3675,19483,-6969972,2191784,1535715,0,0,0,248,433,221,343,374,373,325,310,263,119,121,189,0,
1,1775234510048,-2091,650,9806,360410,-70860,83077,0,0,0,340,390,268,380,274,419,520,339,370,361,335,389,0,
2,1775234510048,4120,3120,23278,-7260744,2265088,1422094,0,0,0,251,433,224,343,373,372,327,309,263,120,123,189,0,
1,1775234510064,-2134,564,9906,422718,-120951,95294,0,0,0,348,391,273,388,281,428,512,328,374,347,318,390,0,
2,1775234510064,4288,2019,27489,-7479433,2268753,1484402,0,0,0,246,431,220,343,372,371,329,309,265,120,122,188,0,
1,1775234510080,-2206,478,9911,494800,-183259,122173,0,0,0,350,389,267,401,280,435,506,303,384,339,285,405,0,
2,1775234510080,4331,-210,30925,-7583281,2345722,1839926,0,0,0,253,432,225,345,372,372,336,310,269,121,122,187,0,
1,1775234510096,-2359,459,9954,569326,-248011,169820,0,0,0,347,399,263,403,290,445,496,272,391,329,261,432,0,
2,1775234510096,3843,-5905,33505,-7468438,2711019,2516764,0,0,0,250,430,219,344,371,371,335,304,269,122,122,187,0,
1,1775234510112,-2641,449,10078,641408,-272445,228463,0,0,0,353,401,262,410,305,463,479,264,399,314,255,464,0,
2,1775234510112,2196,-16582,35309,-6860016,3076317,3076317,0,0,0,253,429,215,339,384,371,341,305,275,123,120,189,0,
1,1775234510128,-2833,349,10270,747699,-246789,310319,0,0,0,365,405,254,421,313,471,472,247,401,303,232,490,0,
2,1775234510128,2703,-31079,31883,-5525886,2124589,2748893,0,0,0,255,432,218,348,379,378,339,306,277,120,120,188,0,
1,1775234510144,-2689,134,10739,929736,-204028,394618,0,0,0,382,410,240,432,318,476,470,219,403,298,201,511,0,
2,1775234510144,3551,-43201,22541,-3704286,1238834,1307251,0,0,0,255,431,218,353,379,381,341,308,279,121,120,188,0,
1,1775234510160,-2407,28,11399,1133765,-191811,423940,0,0,0,398,413,231,445,327,491,449,207,408,294,188,531,0,
2,1775234510160,-2756,-47121,16008,-1847256,1395216,-773355,0,0,0,251,427,211,350,378,380,349,317,280,127,127,190,0,
1,1775234510176,-2124,71,12093,1398881,-223576,397062,0,0,0,404,439,220,455,344,501,412,196,407,285,175,548,0,
2,1775234510176,-13151,-44077,17205,-61086,681725,-1954768,0,0,0,244,420,204,320,391,359,371,391,267,140,166,182,0,
1,1775234510192,-2067,14,12596,1734857,-301767,354301,0,0,0,404,471,212,462,381,516,367,187,410,266,172,561,0,
2,1775234510192,-10256,-28571,21517,1620014,-1378111,-1453859,0,0,0,238,399,181,321,377,345,412,456,251,160,218,172,0,
1,1775234510208,-2694,-90,13137,2162462,-381179,355523,0,0,0,397,473,205,462,394,522,325,181,435,265,176,575,0,
2,1775234510208,-397,-1675,19746,3154508,-3558900,-515570,0,0,0,241,379,163,341,348,349,455,477,249,178,257,167,0,
1,1775234510224,-3637,-90,14185,2751337,-313984,491135,0,0,0,410,460,214,455,371,532,251,179,447,255,164,562,0,
2,1775234510224,7499,15774,11155,4323704,-4469090,593761,0,0,0,252,378,169,341,341,358,481,488,261,191,280,170,0,
1,1775234510240,-4513,9,15271,3420845,-147829,693942,0,0,0,419,477,210,432,380,534,221,171,439,233,157,551,0,
2,1775234510240,650,4599,14314,5028642,-2772106,1018923,0,0,0,256,384,178,347,339,368,499,499,270,206,297,179,0,
1,1775234510256,-5498,177,16400,4163657,59864,977384,0,0,0,446,440,210,437,368,502,208,157,436,219,133,531,0,
2,1775234510256,-6843,-3096,22488,5062851,-801455,698829,0,0,0,261,392,194,356,345,376,507,507,273,216,306,192,0,
1,1775234510272,-6738,157,18913,5040859,290771,1385442,0,0,0,432,432,221,445,360,476,209,146,411,205,109,478,0,
2,1775234510272,-4407,-301,23349,4037819,-288328,-270002,0,0,0,259,401,214,356,348,381,514,514,279,218,305,195,0,
1,1775234510288,-8815,-129,22344,5889962,477696,1806939,0,0,0,410,408,215,420,331,444,196,142,380,195,105,416,0,
2,1775234510288,1368,2029,15970,2719572,-250454,-425162,0,0,0,268,422,256,357,357,389,531,530,291,242,320,208,0,
1,1775234510304,-11150,-43,25441,6761056,634078,2368935,0,0,0,362,377,202,374,298,411,195,154,355,176,112,348,0,
2,1775234510304,2579,1684,10323,1690874,-112399,-80634,0,0,0,312,443,283,382,379,399,539,538,294,246,319,219,0,
1,1775234510320,-11170,641,27489,7454999,823446,2923601,0,0,0,294,356,204,319,265,384,214,179,335,160,131,292,0,
2,1775234510320,1392,306,9844,952949,-109955,150272,0,0,0,313,446,296,387,380,407,542,542,298,244,308,243,0,
1,1775234510336,-9332,2847,28078,7915591,1109331,3254689,0,0,0,249,323,204,276,223,322,260,224,297,158,169,201,0,
2,1775234510336,804,330,10930,404392,-285884,111177,0,0,0,321,452,308,395,384,419,551,551,298,258,315,253,0,
1,1775234510352,-9782,5465,25604,8297993,1404990,3439171,0,0,0,251,290,201,265,190,263,306,256,272,170,206,117,0,
2,1775234510352,641,1052,10839,117286,-366519,28099,0,0,0,334,461,313,399,388,419,555,556,296,296,346,256,0,
1,1775234510368,-12337,8987,16668,7954687,1341460,3629761,0,0,0,265,293,214,275,188,284,309,240,295,184,217,133,0,
2,1775234510368,641,1488,10351,72082,-263893,0,0,0,0,339,463,311,398,385,418,562,564,293,338,383,252,0,
1,1775234510384,-12127,13117,10480,6069557,740368,3612657,0,0,0,263,295,212,279,191,284,310,242,289,187,218,136,0,
2,1775234510384,679,1622,10217,72082,-149051,0,0,0,0,341,464,308,398,384,416,566,567,294,351,393,250,0,
1,1775234510400,-7126,17549,10078,2052507,156381,2458121,0,0,0,263,298,203,279,196,273,315,248,270,190,221,133,0,
2,1775234510400,717,1689,10246,102625,-80634,-8552,0,0,0,348,467,309,396,396,416,561,561,304,319,360,259,0,
1,1775234510416,-3378,15501,10323,-1958433,802676,108734,0,0,0,265,298,204,283,198,280,319,252,272,187,220,132,0,
2,1775234510416,650,1809,10189,188146,-42760,-25656,0,0,0,356,472,313,400,399,421,554,554,309,269,307,280,0,
1,1775234510432,-5144,9413,7566,-3705508,1543045,-1595580,0,0,0,263,299,203,281,200,274,316,252,275,189,220,127,0,
2,1775234510432,622,1823,10126,306654,25656,-35430,0,0,0,360,471,313,409,389,429,554,553,306,244,274,297,0,
1,1775234510448,-8805,4532,3756,-3337767,1045801,-1791056,0,0,0,259,300,202,281,201,275,316,251,278,189,224,131,0,
2,1775234510448,689,1675,10045,377514,89186,-28099,0,0,0,363,468,311,411,395,432,556,551,306,243,264,305,0,
1,1775234510464,-7848,4149,3230,-2951700,-70860,-1313360,0,0,0,259,302,205,280,201,275,310,246,277,186,224,130,0,
2,1775234510464,784,1512,9954,399505,118507,-23212,0,0,0,366,474,314,411,399,434,556,543,309,254,268,306,0,
1,1775234510480,-4694,5604,5221,-3353650,-367740,-1189965,0,0,0,258,303,208,282,202,277,314,248,277,186,223,130,0,
2,1775234510480,856,1416,9887,381179,111177,-26878,0,0,0,370,475,322,408,390,427,562,532,306,309,313,307,0,
1,1775234510496,-4670,6144,6862,-4233296,-75747,-1484402,0,0,0,257,304,205,279,203,275,316,250,278,186,224,129,0,
2,1775234510496,918,1363,9830,357967,89186,-31764,0,0,0,370,478,319,411,392,431,561,526,311,236,233,322,0,
1,1775234510512,-5920,5441,8088,-5141041,-142942,-1756848,0,0,0,259,305,204,279,203,274,318,252,279,187,224,128,0,
2,1775234510512,985,1316,9806,331088,41538,-35430,0,0,0,380,480,319,416,394,435,557,511,316,236,227,331,0,
1,1775234510528,-5891,4077,9294,-5694485,-583987,-1832595,0,0,0,260,305,205,280,202,276,321,255,280,188,224,126,0,
2,1775234510528,981,1296,9858,311541,-7330,-42760,0,0,0,376,473,319,424,401,445,552,497,315,235,214,338,0,
1,1775234510544,-5092,2723,10792,-6006027,-818559,-1910786,0,0,0,260,305,206,279,202,276,321,256,278,191,226,125,0,
2,1775234510544,942,1287,9906,301767,-42760,-52534,0,0,0,386,475,315,429,402,446,556,491,317,251,222,341,0,
1,1775234510560,-5005,1603,12347,-6225938,-916297,-1999972,0,0,0,259,306,205,279,202,274,318,253,277,195,230,126,0,
2,1775234510560,899,1258,9930,304210,-53756,-59864,0,0,0,392,477,316,427,398,446,553,470,316,249,205,355,0,
1,1775234510576,-5427,914,14122,-6396980,-1040914,-1981646,0,0,0,258,308,207,278,202,274,319,255,280,190,230,126,0,
2,1775234510576,899,1215,9949,309097,-57421,-57421,0,0,0,399,482,317,427,428,442,550,464,328,276,233,366,0,
1,1775234510592,-5891,339,16463,-6597344,-1242499,-1745852,0,0,0,258,308,204,278,202,273,320,254,279,191,231,126,0,
2,1775234510592,923,1186,9987,326202,-67195,-53756,0,0,0,407,494,319,432,424,453,549,449,334,257,206,383,0,
1,1775234510608,-6168,-459,18903,-6764721,-1455080,-1391551,0,0,0,260,308,203,282,202,273,323,254,278,199,229,124,0,
2,1775234510608,928,1162,10035,368962,-79412,-51312,0,0,0,414,501,320,439,421,464,548,429,339,237,181,398,0,
1,1775234510624,-6097,-1407,21191,-6792821,-1612684,-1153313,0,0,0,259,309,203,282,207,273,321,254,278,191,228,124,0,
2,1775234510624,938,1119,10117,426383,-81855,-56199,0,0,0,422,505,324,442,430,468,546,406,347,237,177,412,0,
1,1775234510640,-6269,-2479,23799,-6691417,-1764178,-1207069,0,0,0,258,307,203,280,201,271,322,251,277,193,226,124,0,
2,1775234510640,1005,1028,10217,509461,-61086,-80634,0,0,0,436,512,331,448,437,475,541,380,353,242,173,432,0,
1,1775234510656,-6733,-4240,26336,-6495940,-2045176,-1659109,0,0,0,254,307,205,280,202,275,314,245,278,194,221,125,0,
2,1775234510656,1105,909,10260,582765,-19547,-128281,0,0,0,453,522,330,454,446,485,531,353,356,249,172,454,0,
1,1775234510672,-6690,-8088,29088,-6301685,-2513099,-2167349,0,0,0,250,308,205,279,203,281,318,247,282,189,216,124,0,
2,1775234510672,1220,827,10313,651182,31764,-186924,0,0,0,461,530,324,459,458,491,516,319,360,255,171,479,0,
1,1775234510688,-6092,-15314,30313,-6145304,-2778215,-2245540,0,0,0,242,311,208,275,206,286,319,250,285,185,216,125,0,
2,1775234510688,1292,827,10571,734260,72082,-244346,0,0,0,470,533,318,466,471,500,498,284,367,261,169,505,0,
1,1775234510704,-5470,-25316,26637,-5776341,-2460565,-1397659,0,0,0,239,316,210,274,209,286,319,252,285,186,220,127,0,
2,1775234510704,1258,827,11237,948062,74525,-283441,0,0,0,476,536,314,464,476,507,485,259,380,266,174,530,0,
1,1775234510720,-1655,-34204,20890,-4932125,-2355496,-134390,0,0,0,240,319,210,274,211,285,320,253,283,189,224,127,0,
2,1775234510720,1115,775,12026,1280373,91629,-307876,0,0,0,482,542,304,485,485,524,451,243,373,261,181,544,0,
1,1775234510736,7566,-40267,15745,-3380528,-2244318,1053131,0,0,0,237,317,208,275,211,289,323,250,284,192,224,128,0,
2,1775234510736,1019,693,12682,1674992,178372,-317649,0,0,0,496,558,295,486,502,527,420,233,380,257,178,552,0,
1,1775234510752,13998,-42804,14151,-1501506,-1103222,1270599,0,0,0,233,309,200,273,207,282,334,275,286,207,257,119,0,
2,1775234510752,1210,626,13596,2193006,285884,-339641,0,0,0,487,551,265,487,518,523,384,228,380,262,178,564,0,
1,1775234510768,13433,-40555,15730,477696,638965,1011592,0,0,0,231,287,170,269,195,252,379,360,269,254,352,93,0,
2,1775234510768,1555,646,14716,2767219,215024,-365297,0,0,0,497,561,254,486,535,525,335,227,378,267,189,583,0,
1,1775234510784,4943,-16563,18071,2536312,3046995,466701,0,0,0,238,264,135,272,176,224,453,430,236,313,406,74,0,
2,1775234510784,2239,708,15888,3479488,29321,-450818,0,0,0,508,568,260,477,524,519,297,209,370,264,184,583,0,
1,1775234510800,-3378,9882,14635,4157548,4873482,-92851,0,0,0,240,265,128,283,175,231,474,474,238,353,421,74,0,
2,1775234510800,3101,885,17439,4339586,-144164,-625526,0,0,0,508,557,248,490,524,494,281,197,371,257,179,575,0,
1,1775234510816,-713,8174,14788,5125159,3941302,-224798,0,0,0,246,275,127,296,171,247,489,488,252,382,434,80,0,
2,1775234510816,4111,1229,19684,5269323,-282219,-879645,0,0,0,498,538,241,479,506,500,281,179,377,244,164,548,0,
1,1775234510832,3670,-875,21196,5459913,1835039,173485,0,0,0,241,269,141,307,180,266,497,497,262,399,449,87,0,
2,1775234510832,4919,1560,23957,6454402,-379958,-1211956,0,0,0,466,513,238,462,483,511,276,162,375,224,150,475,0,
1,1775234510848,421,-3000,24517,4232074,433714,703716,0,0,0,251,284,175,315,189,279,509,508,278,412,456,90,0,
2,1775234510848,5551,1837,29212,7662693,-255341,-1500285,0,0,0,400,487,215,443,463,486,273,166,352,223,148,385,0,
1,1775234510864,-4235,-1263,19975,2277305,43982,477696,0,0,0,262,291,212,322,197,310,514,513,300,425,462,128,0,
2,1775234510864,5340,2861,33036,8686503,316428,-1714087,0,0,0,336,462,194,400,431,441,282,188,315,206,139,324,0,
1,1775234510880,-4268,617,11653,962723,56199,-113620,0,0,0,274,300,229,346,203,328,527,527,301,438,480,166,0,
2,1775234510880,5144,4570,34290,9391442,916297,-1912008,0,0,0,296,435,206,348,390,393,292,228,277,138,115,264,0,
1,1775234510896,-2565,449,8518,585208,118507,-221133,0,0,0,294,304,240,354,202,337,533,533,307,445,490,185,0,
2,1775234510896,6231,6896,32687,9864251,1665218,-2261423,0,0,0,258,414,219,321,356,364,310,280,269,110,108,189,0,
1,1775234510912,-2057,33,9317,342084,224798,-113620,0,0,0,304,307,260,356,202,350,539,538,324,459,495,199,0,
2,1775234510912,6633,11830,23752,9378003,1540602,-2812423,0,0,0,266,420,224,335,362,375,321,294,277,118,114,193,0,
1,1775234510928,-2325,478,10519,90408,313984,-23212,0,0,0,309,313,268,358,201,352,550,543,336,466,502,211,0,
2,1775234510928,4666,17946,12835,6936985,-184481,-3235142,0,0,0,264,420,222,342,364,376,320,293,274,120,116,196,0,
1,1775234510944,-2273,1057,10418,19547,290771,-8552,0,0,0,315,318,261,358,201,351,559,543,340,466,508,224,0,
2,1775234510944,3728,20875,10476,1769065,-1831373,-2356718,0,0,0,259,422,217,338,367,373,315,291,262,116,114,192,0,
1,1775234510960,-2057,1306,10016,147829,156381,0,0,0,0,318,322,262,359,207,359,558,532,340,468,505,240,0,
2,1775234510960,4082,17525,10490,-3216816,-2408030,-1045801,0,0,0,260,426,217,338,364,367,320,294,261,116,116,192,0,
1,1775234510976,-2024,1129,10189,285884,29321,28099,0,0,0,322,329,261,363,211,365,552,507,339,454,483,254,0,
2,1775234510976,4675,9518,8805,-5134933,-2282192,-257785,0,0,0,259,427,217,339,368,368,324,297,262,192,154,187,0,
1,1775234510992,-2081,1067,10270,371406,-75747,47647,0,0,0,327,333,266,370,213,381,546,492,350,433,463,276,0,
2,1775234510992,5876,4627,4661,-4642575,-2118480,-311541,0,0,0,253,427,216,333,365,366,321,299,259,136,127,189,0,
1,1775234511008,-2158,1043,9973,409279,-145385,53756,0,0,0,327,341,266,366,218,384,538,470,348,416,454,291,0,
2,1775234511008,7121,4364,2689,-4400673,-1528384,-544891,0,0,0,249,428,220,335,369,369,322,303,264,119,121,190,0,
1,1775234511024,-2239,904,9724,390953,-153938,56199,0,0,0,326,343,253,375,220,376,538,454,351,406,428,281,0,
2,1775234511024,6403,5867,4187,-4980995,-496022,-559552,0,0,0,249,429,224,336,371,372,321,305,264,118,122,190,0,
1,1775234511040,-2311,746,9672,354301,-125838,57421,0,0,0,322,343,250,371,222,373,538,441,351,401,422,287,0,
2,1775234511040,5049,6130,6173,-5569869,91629,-280998,0,0,0,249,430,226,337,371,372,322,305,263,117,120,189,0,
1,1775234511056,-2335,717,9585,348193,-97738,59864,0,0,0,321,337,249,375,227,380,542,420,352,391,410,292,0,
2,1775234511056,4680,5077,7508,-5982814,354301,239459,0,0,0,247,429,225,336,370,370,323,307,263,115,118,187,0,
1,1775234511072,-2316,760,9562,345749,-52534,69638,0,0,0,331,335,244,381,233,379,537,410,349,384,397,307,0,
2,1775234511072,5226,4048,8312,-6162408,821002,632856,0,0,0,244,428,222,334,369,369,325,309,262,115,119,186,0,
1,1775234511088,-2278,751,9629,343306,-14660,76969,0,0,0,324,336,242,386,232,378,539,388,349,385,380,320,0,
2,1775234511088,4895,3575,9877,-6342002,1412320,948062,0,0,0,242,428,220,334,370,369,325,308,261,117,121,188,0,
1,1775234511104,-2196,679,9676,343306,-1221,83077,0,0,0,316,341,246,385,247,390,537,373,361,376,359,337,0,
2,1775234511104,4230,3555,11892,-6564357,1653001,1208291,0,0,0,242,428,219,334,370,369,326,308,261,116,121,188,0,
1,1775234511120,-2120,631,9700,346971,-14660,86742,0,0,0,317,345,248,379,248,394,521,357,368,365,341,354,0,
2,1775234511120,4225,3297,13807,-6795264,1709200,1381777,0,0,0,243,428,222,336,370,372,328,309,264,118,121,190,0,
1,1775234511136,-2115,583,9743,368962,-39095,85521,0,0,0,321,348,249,374,241,395,513,344,363,354,323,368,0,
2,1775234511136,4733,2689,15850,-6955311,1784948,1345125,0,0,0,242,428,222,337,372,374,328,310,267,117,120,188,0,
1,1775234511152,-2120,516,9767,409279,-62308,85521,0,0,0,330,352,255,376,245,404,521,332,364,346,306,387,0,
2,1775234511152,4905,2230,18645,-7005402,1970651,1143539,0,0,0,242,428,223,335,371,373,333,311,269,115,119,187,0,
1,1775234511168,-2120,440,9806,456927,-97738,94073,0,0,0,344,362,256,385,257,415,516,308,379,346,294,412,0,
2,1775234511168,4871,2081,22392,-7071376,2119702,1020144,0,0,0,247,430,228,335,368,373,333,308,269,115,119,188,0,
1,1775234511184,-2244,378,9887,513126,-160046,122173,0,0,0,346,378,253,401,292,428,506,288,380,337,280,427,0,
2,1775234511184,4728,1665,27078,-7222870,2222327,1205847,0,0,0,249,432,228,337,368,373,333,308,271,119,118,189,0,
1,1775234511200,-2536,354,9987,585208,-208915,178372,0,0,0,347,378,257,406,296,437,503,263,383,317,251,453,0,
2,1775234511200,4115,-1957,30744,-7343821,2497217,1870469,0,0,0,252,429,225,339,370,373,338,307,271,120,118,188,0,
1,1775234511216,-2943,258,10093,665843,-237015,282219,0,0,0,364,391,259,410,301,440,497,239,383,301,216,466,0,
2,1775234511216,2364,-10122,33759,-7153231,2924822,2637716,0,0,0,253,429,221,343,372,374,342,303,275,120,119,185,0,
1,1775234511232,-2919,95,10385,767246,-267558,411723,0,0,0,359,394,247,424,308,467,429,239,401,287,198,503,0,
2,1775234511232,1617,-23254,34438,-6331007,2436130,2820975,0,0,0,251,428,224,340,371,376,347,305,282,115,115,191,0,
1,1775234511248,-2345,-19,10763,928515,-261450,472809,0,0,0,381,401,256,423,324,486,453,215,401,282,185,530,0,
2,1775234511248,4369,-35142,29662,-5156924,1376890,2080607,0,0,0,251,428,224,339,370,376,350,308,281,116,114,188,0,
1,1775234511264,-2258,-19,11136,1150870,-204028,444709,0,0,0,402,409,241,440,321,496,462,200,406,289,179,542,0,
2,1775234511264,4345,-44627,20291,-3264463,1139874,31764,0,0,0,252,427,221,318,391,366,351,309,278,118,116,186,0,
1,1775234511280,-2349,-52,11706,1413542,-162490,419053,0,0,0,414,425,225,454,334,501,436,196,402,288,172,553,0,
2,1775234511280,-6929,-46101,17525,-1308473,1490511,-1565036,0,0,0,252,424,215,331,393,367,366,345,271,133,139,182,0,
1,1775234511296,-2139,-205,12356,1755626,-197920,392175,0,0,0,418,429,215,450,350,513,394,186,411,272,160,564,0,
2,1775234511296,-13912,-42536,19104,456927,508239,-1699427,0,0,0,245,409,195,351,373,366,398,419,258,154,188,173,0,
1,1775234511312,-2206,-296,12988,2131919,-255341,361632,0,0,0,426,428,211,462,376,529,342,178,442,264,157,576,0,
2,1775234511312,-9021,-21727,22957,2419026,-1932777,-601091,0,0,0,241,385,175,339,354,354,437,469,252,169,241,168,0,
1,1775234511328,-2957,-287,13792,2648711,-266337,410501,0,0,0,440,437,203,464,387,537,289,179,454,248,153,578,0,
2,1775234511328,2627,8442,15908,3858224,-3824016,437379,0,0,0,248,374,171,338,341,357,466,481,263,204,296,172,0,
1,1775234511344,-3866,-263,14764,3326772,-200363,564439,0,0,0,452,449,200,445,390,524,241,179,438,223,142,565,0,
2,1775234511344,3972,12524,10763,5066516,-3594331,982271,0,0,0,249,379,173,342,338,368,475,501,275,272,379,174,0,
1,1775234511360,-4986,-167,16018,4065919,-86742,824668,0,0,0,458,442,204,437,394,498,214,167,422,212,127,546,0,
2,1775234511360,-4221,110,18635,5678603,-1413542,769690,0,0,0,249,382,184,342,336,374,485,528,268,318,428,174,0,
1,1775234511376,-5953,-358,18224,4796513,-14660,1160643,0,0,0,452,425,202,433,367,490,229,148,416,202,107,514,0,
2,1775234511376,-6609,-3378,24986,5117828,-6108,-129503,0,0,0,253,398,205,351,346,385,520,520,282,207,311,202,0,
1,1775234511392,-7580,-598,22091,5712811,31764,1565036,0,0,0,440,439,210,421,367,455,225,146,409,193,111,443,0,
2,1775234511392,162,894,21124,3599217,133168,-850324,0,0,0,269,419,237,364,361,393,526,526,290,216,310,217,0,
1,1775234511408,-9906,-224,25527,6624222,161268,2030516,0,0,0,380,407,197,381,316,429,194,145,372,172,106,357,0,
2,1775234511408,3445,1933,13486,2309070,-24434,-376292,0,0,0,285,441,269,377,376,402,533,532,298,226,310,233,0,
1,1775234511424,-11002,47,28269,7451334,415388,2565634,0,0,0,300,382,195,327,277,392,191,167,346,147,111,296,0,
2,1775234511424,2469,655,9451,1237612,-133168,149051,0,0,0,304,445,286,385,377,406,549,564,285,354,428,232,0,
1,1775234511440,-10198,1866,29853,8003556,758694,3025004,0,0,0,269,336,185,305,247,319,242,207,293,153,151,210,0,
2,1775234511440,1072,-210,10562,555887,-244346,167377,0,0,0,340,454,297,392,378,410,555,571,285,388,454,234,0,
1,1775234511456,-10686,5876,27824,8410392,928515,3297450,0,0,0,266,290,199,275,197,280,298,230,293,164,181,146,0,
2,1775234511456,832,291,11055,177150,-349414,62308,0,0,0,344,465,308,396,380,413,561,565,293,349,411,246,0,
1,1775234511472,-12457,11117,20741,8519126,707381,3591887,0,0,0,265,286,207,273,191,280,312,247,299,171,208,128,0,
2,1775234511472,914,1148,10466,51312,-366519,3665,0,0,0,349,469,312,398,382,417,565,564,295,288,349,263,0,
1,1775234511488,-11433,14467,12457,6989520,213802,3881437,0,0,0,261,294,210,274,199,286,305,254,297,172,219,129,0,
2,1775234511488,847,1397,10198,28099,-260228,17104,0,0,0,355,469,316,398,382,414,566,566,295,257,319,275,0,
1,1775234511504,-7035,17267,9911,3467271,111177,3248581,0,0,0,263,297,209,283,199,285,307,257,294,176,219,130,0,
2,1775234511504,837,1464,10284,39095,-171042,17104,0,0,0,357,470,321,399,383,415,567,567,299,253,312,282,0,
1,1775234511520,-2474,17626,10935,-1369559,786794,1122770,0,0,0,261,295,222,283,196,292,313,259,302,176,219,136,0,
2,1775234511520,823,1536,10323,96516,-114842,-2443,0,0,0,359,472,325,401,384,419,567,568,297,251,302,285,0,
1,1775234511536,-4465,12390,9250,-3787364,1562593,-863763,0,0,0,256,297,229,276,198,300,318,262,311,173,221,140,0,
2,1775234511536,804,1588,10222,179594,-63529,-20769,0,0,0,364,475,327,400,383,420,564,567,293,246,288,285,0,
1,1775234511552,-8456,7178,5829,-4298047,1252273,-1477072,0,0,0,256,303,212,278,205,291,322,267,309,194,223,144,0,
2,1775234511552,804,1608,10088,290771,-6108,-28099,0,0,0,370,479,327,402,387,422,560,559,295,245,277,290,0,
1,1775234511568,-8379,5498,4584,-4145331,-4886,-873537,0,0,0,254,305,209,275,206,286,319,269,305,217,222,154,0,
2,1775234511568,832,1497,10031,355523,25656,-20769,0,0,0,374,483,317,406,391,420,558,553,297,242,265,296,0,
1,1775234511584,-5604,5680,5671,-4416555,-756251,-403171,0,0,0,253,306,209,275,210,286,319,278,301,173,233,129,0,
2,1775234511584,890,1349,9949,382401,42760,-17104,0,0,0,376,489,311,406,394,423,555,544,300,236,256,298,0,
1,1775234511600,-3555,6235,7824,-5116607,-706160,-434936,0,0,0,249,310,210,275,212,285,320,280,301,173,233,130,0,
2,1775234511600,947,1263,9882,375071,34208,-20769,0,0,0,382,485,310,409,393,423,557,529,300,232,240,302,0,
1,1775234511616,-4111,5771,9399,-5801998,-790459,-662177,0,0,0,254,312,210,276,210,285,322,278,302,176,233,130,0,
2,1775234511616,995,1229,9853,364075,0,-25656,0,0,0,394,492,315,415,400,429,542,513,304,237,229,319,0,
1,1775234511632,-4259,4876,10916,-6345668,-1288925,-783129,0,0,0,254,309,210,277,209,287,325,272,302,178,230,135,0,
2,1775234511632,1014,1201,9863,359188,-37873,-34208,0,0,0,398,495,312,419,402,427,537,492,304,240,220,326,0,
1,1775234511648,-3058,3938,12572,-6708522,-1787391,-811229,0,0,0,254,306,208,280,208,290,324,261,303,182,222,133,0,
2,1775234511648,990,1153,9911,370184,-70860,-46425,0,0,0,404,504,315,424,415,433,530,474,309,231,203,332,0,
1,1775234511664,-1603,3086,14419,-6880786,-1843591,-840550,0,0,0,255,305,208,281,207,289,327,260,305,181,222,132,0,
2,1775234511664,957,1095,9930,386066,-81855,-56199,0,0,0,413,511,318,426,414,432,526,458,309,233,194,345,0,
1,1775234511680,-1143,2421,16357,-6878342,-1715309,-861319,0,0,0,256,306,211,279,204,288,327,262,308,182,222,133,0,
2,1775234511680,957,1033,9930,399505,-90408,-63529,0,0,0,418,515,319,431,420,446,527,446,320,235,191,362,0,
1,1775234511696,-1636,2014,18401,-6805038,-1743409,-829554,0,0,0,257,308,213,279,205,288,325,261,307,183,222,132,0,
2,1775234511696,957,952,9930,411723,-105068,-64751,0,0,0,427,522,322,437,427,457,524,428,332,237,189,378,0,
1,1775234511712,-2057,1368,20847,-6803817,-1838704,-833220,0,0,0,257,308,219,280,203,293,326,258,308,183,219,133,0,
2,1775234511712,957,894,9987,434936,-113620,-70860,0,0,0,443,528,325,441,432,459,520,408,339,310,215,389,0,
1,1775234511728,-2924,435,23426,-6825808,-1864360,-1034805,0,0,0,257,306,219,281,202,294,327,256,308,181,216,132,0,
2,1775234511728,1043,861,10126,487470,-112399,-94073,0,0,0,456,534,329,444,438,462,518,387,346,321,214,408,0,
1,1775234511744,-5259,-1081,26575,-6707300,-1916895,-1627344,0,0,0,259,306,216,284,203,293,328,256,308,182,215,132,0,
2,1775234511744,1134,799,10236,547335,-105068,-133168,0,0,0,463,542,328,446,448,467,511,357,352,250,179,442,0,
1,1775234511760,-7748,-3914,30093,-6537479,-2239431,-2465452,0,0,0,257,307,218,282,202,296,326,254,311,184,215,136,0,
2,1775234511760,1196,722,10399,632856,-96516,-194255,0,0,0,470,546,328,448,457,476,499,322,355,260,180,472,0,
1,1775234511776,-8413,-10270,32955,-6407976,-2779436,-3236364,0,0,0,249,305,219,276,203,299,317,248,312,181,213,135,0,
2,1775234511776,1177,698,10677,756251,-109955,-241902,0,0,0,480,551,357,460,462,495,481,288,360,260,176,491,0,
1,1775234511792,-7552,-20363,32892,-6256481,-2910161,-3403741,0,0,0,241,310,220,270,208,298,316,247,313,182,212,135,0,
2,1775234511792,1086,665,11069,927293,-130725,-274889,0,0,0,490,556,338,466,475,497,463,259,356,268,180,516,0,
1,1775234511808,-4364,-33649,26566,-5629734,-2608394,-2383596,0,0,0,239,313,223,265,202,298,311,245,313,207,213,149,0,
2,1775234511808,947,617,11715,1186300,-140499,-284663,0,0,0,497,564,332,470,489,502,437,237,356,271,179,533,0,
1,1775234511824,2660,-44378,18956,-4293160,-2454456,-822224,0,0,0,239,312,220,271,206,298,319,251,312,183,219,136,0,
2,1775234511824,885,588,12557,1533271,-79412,-277332,0,0,0,500,574,321,468,489,502,406,228,356,274,190,552,0,
1,1775234511840,12864,-48954,13730,-2186897,-1805717,788016,0,0,0,236,305,204,266,200,292,330,251,304,193,229,135,0,
2,1775234511840,985,507,13314,1982868,13439,-285884,0,0,0,498,575,271,469,503,506,362,232,367,276,193,562,0,
1,1775234511856,14898,-45297,15180,-91629,184481,1390329,0,0,0,233,302,191,273,206,273,360,337,304,236,327,113,0,
2,1775234511856,1067,382,14036,2544864,53756,-311541,0,0,0,506,573,263,470,512,509,313,227,358,270,192,572,0,
1,1775234511872,8001,-29992,19889,2107485,2602285,1155757,0,0,0,236,270,151,270,179,236,427,408,252,287,392,83,0,
2,1775234511872,1459,435,15261,3196046,-72082,-333532,0,0,0,510,570,255,463,511,504,281,225,354,271,194,580,0,
1,1775234511888,-3263,-545,17544,4222300,4498411,520457,0,0,0,243,265,134,284,173,229,461,457,239,345,418,74,0,
2,1775234511888,2254,641,16702,3921754,-271224,-406836,0,0,0,513,567,248,453,508,503,261,222,354,265,192,573,0,
1,1775234511904,-4728,9911,14204,5396383,4112344,-65973,0,0,0,245,265,138,293,168,248,476,477,261,397,431,74,0,
2,1775234511904,3421,851,18391,4751309,-469144,-605978,0,0,0,514,556,245,445,505,503,251,205,357,249,179,549,0,
1,1775234511920,1909,1143,20009,5878967,1930334,-232128,0,0,0,250,269,154,294,195,260,483,484,274,423,441,86,0,
2,1775234511920,4737,1009,21014,5738468,-665843,-921184,0,0,0,494,537,241,442,496,497,250,186,351,241,176,494,0,
1,1775234511936,2904,-3082,25733,4736649,218689,355523,0,0,0,258,275,188,311,197,279,495,495,282,432,446,100,0,
2,1775234511936,5958,861,25771,6923546,-883311,-1325577,0,0,0,448,518,235,435,478,479,254,175,332,231,169,425,0,
1,1775234511952,-1952,-1842,21904,2884505,-160046,621860,0,0,0,267,281,224,333,184,311,511,511,294,443,458,132,0,
2,1775234511952,7427,1115,30054,7935139,-853989,-1672549,0,0,0,380,492,220,412,453,449,261,177,308,217,164,368,0,
1,1775234511968,-4369,454,12548,1318247,90408,72082,0,0,0,284,292,248,342,196,340,522,522,308,454,477,183,0,
2,1775234511968,8494,2833,32376,8795237,-401949,-2063502,0,0,0,304,456,202,371,416,409,273,201,279,194,168,310,0,
1,1775234511984,-2909,282,8585,660956,202807,-273667,0,0,0,303,303,263,353,203,352,534,533,317,457,488,206,0,
2,1775234511984,8734,5762,31830,9315694,222354,-2572964,0,0,0,267,430,213,337,376,368,295,249,256,126,111,223,0,
1,1775234512000,-1545,-363,9748,251676,245567,-191811,0,0,0,310,313,259,357,203,351,546,543,321,465,494,208,0,
2,1775234512000,9408,8480,26537,9450085,439822,-3163060,0,0,0,267,426,226,330,365,363,309,272,263,115,109,193,0,
1,1775234512016,-1909,579,10859,-13439,255341,-18325,0,0,0,316,317,259,359,204,349,550,541,319,483,503,216,0,
2,1775234512016,10634,10988,16951,8657182,-305432,-3835011,0,0,0,271,431,237,328,365,369,312,292,270,120,118,197,0,
1,1775234512032,-2129,1316,10437,-37873,197920,10995,0,0,0,322,327,260,360,204,357,549,546,319,483,504,237,0,
2,1775234512032,8480,15472,10595,6246707,-945619,-3824016,0,0,0,268,432,221,330,367,365,309,290,257,120,117,195,0,
1,1775234512048,-2081,1464,9906,78190,102625,-1221,0,0,0,325,334,262,368,218,364,546,534,334,483,502,245,0,
2,1775234512048,3393,21531,7930,800233,-1155757,-1890017,0,0,0,262,433,213,329,369,359,312,291,257,117,117,189,0,
1,1775234512064,-1971,1282,10045,215024,37873,21991,0,0,0,328,339,258,372,219,364,545,523,337,473,497,254,0,
2,1775234512064,3464,17286,8738,-3706730,-1347568,831998,0,0,0,263,435,217,329,369,359,316,295,257,118,117,191,0,
1,1775234512080,-1904,1201,10212,296880,-10995,51312,0,0,0,332,343,258,374,221,368,543,505,345,464,475,264,0,
2,1775234512080,6484,9495,7910,-5753128,-1341460,2305405,0,0,0,261,436,216,332,370,361,317,299,258,118,121,192,0,
1,1775234512096,-1861,1277,10208,349414,-95294,62308,0,0,0,331,345,255,375,225,373,535,476,341,451,452,276,0,
2,1775234512096,8710,3584,5417,-5507560,-643851,1985312,0,0,0,258,436,216,334,373,364,319,301,260,120,122,192,0,
1,1775234512112,-1899,1296,10303,371406,-153938,56199,0,0,0,331,347,258,373,226,373,535,454,350,441,438,286,0,
2,1775234512112,6350,3192,4962,-4995655,251676,946841,0,0,0,255,437,218,332,372,363,317,301,258,119,121,192,0,
1,1775234512128,-2005,1119,10054,382401,-167377,47647,0,0,0,329,349,253,375,230,378,532,442,358,432,426,291,0,
2,1775234512128,3555,3981,6173,-5049412,588874,295658,0,0,0,256,438,219,334,373,364,316,302,258,120,122,194,0,
1,1775234512144,-2110,880,9547,366519,-139277,47647,0,0,0,328,352,246,380,236,380,528,431,356,426,416,293,0,
2,1775234512144,2244,4728,8001,-5584530,505796,79412,0,0,0,254,437,219,334,374,366,317,303,259,119,123,193,0,
1,1775234512160,-2139,804,9399,316428,-85521,54977,0,0,0,331,355,246,383,239,377,529,420,353,421,404,302,0,
2,1775234512160,2646,4919,9155,-6043900,752585,136833,0,0,0,252,437,219,333,375,366,318,304,261,118,124,191,0,
1,1775234512176,-2110,823,9495,261450,-30543,61086,0,0,0,330,359,248,380,246,376,528,412,355,415,390,314,0,
2,1775234512176,2569,5068,10882,-6467841,1350012,343306,0,0,0,252,439,221,336,377,368,320,306,260,121,125,192,0,
1,1775234512192,-2057,842,9542,226020,9773,64751,0,0,0,325,373,248,377,261,376,522,410,363,418,389,305,0,
2,1775234512192,1765,4781,12802,-6715852,1736079,717155,0,0,0,254,440,224,335,378,367,320,307,258,119,123,191,0,
1,1775234512208,-1976,842,9581,212581,32986,69638,0,0,0,330,369,252,381,260,378,518,393,365,416,386,315,0,
2,1775234512208,1244,4144,14821,-6910107,1888795,1152091,0,0,0,254,439,223,335,375,365,315,307,259,118,124,191,0,
1,1775234512224,-1919,823,9648,217468,24434,67195,0,0,0,331,362,252,379,259,380,525,387,374,401,376,332,0,
2,1775234512224,1469,3421,16908,-7043276,1848478,1501506,0,0,0,249,438,220,331,374,365,301,308,265,116,123,188,0,
1,1775234512240,-1909,813,9729,234572,2443,62308,0,0,0,331,372,262,379,264,401,522,376,374,401,372,350,0,
2,1775234512240,2412,2713,19104,-7180110,1832595,1572367,0,0,0,248,438,220,333,375,366,323,309,262,120,123,190,0,
1,1775234512256,-1938,789,9806,274889,-21991,64751,0,0,0,339,380,259,390,269,405,527,348,372,387,347,359,0,
2,1775234512256,3579,1794,21990,-7319387,1910786,1497841,0,0,0,248,438,220,336,378,366,324,310,263,120,125,189,0,
1,1775234512272,-1986,737,9868,328645,-47647,80634,0,0,0,341,384,252,390,289,417,524,349,361,373,344,382,0,
2,1775234512272,4111,1129,25929,-7336491,2031737,1503950,0,0,0,246,438,220,335,377,367,321,306,261,117,123,185,0,
1,1775234512288,-2077,693,9916,399505,-67195,113620,0,0,0,344,393,270,385,293,431,519,330,379,370,322,398,0,
2,1775234512288,4173,-28,30265,-7346265,2118480,1891238,0,0,0,249,438,220,338,377,368,326,305,264,119,120,186,0,
1,1775234512304,-2254,660,9954,485026,-79412,162490,0,0,0,344,405,283,387,303,450,507,300,397,356,299,418,0,
2,1775234512304,3943,-5608,33677,-7378030,2478891,2669481,0,0,0,252,440,221,341,377,371,331,304,267,120,122,187,0,
1,1775234512320,-2483,612,10040,591317,-105068,249233,0,0,0,354,418,280,398,310,456,496,272,402,335,277,437,0,
2,1775234512320,2536,-15750,35510,-7136127,2774549,3122743,0,0,0,255,440,219,343,377,371,334,304,271,119,120,185,0,
1,1775234512336,-2392,531,10241,714712,-141720,348193,0,0,0,370,438,267,411,313,455,486,256,404,320,249,456,0,
2,1775234512336,1727,-30892,32533,-6136752,2157576,2884505,0,0,0,257,440,217,345,378,372,338,305,275,123,120,187,0,
1,1775234512352,-2234,430,10624,872315,-166155,408057,0,0,0,378,453,256,425,326,469,474,245,405,307,228,485,0,
2,1775234512352,2211,-42895,22833,-4095240,1433089,1436755,0,0,0,257,440,219,346,380,374,340,306,278,125,122,189,0,
1,1775234512368,-2249,378,11174,1054353,-184481,426383,0,0,0,387,453,251,440,343,487,465,223,408,294,211,516,0,
2,1775234512368,-2014,-46939,16362,-2031737,1370781,-461814,0,0,0,249,434,213,346,380,372,351,337,274,130,137,187,0,
1,1775234512384,-2105,296,12041,1308473,-221133,437379,0,0,0,390,456,236,448,365,499,451,206,422,288,187,533,0,
2,1775234512384,-10203,-44421,16381,-354301,906524,-1902234,0,0,0,236,419,198,343,375,364,376,405,260,145,174,182,0,
1,1775234512400,-1761,157,12864,1659109,-294437,419053,0,0,0,384,472,216,441,380,505,403,200,432,278,189,549,0,
2,1775234512400,-10787,-32021,21789,1576032,-1329242,-1635897,0,0,0,235,397,184,335,362,354,409,455,250,156,217,172,0,
1,1775234512416,-2024,100,13630,2127032,-399505,387288,0,0,0,406,460,204,446,392,501,363,184,422,273,173,567,0,
2,1775234512416,-1210,-5259,19530,3765373,-3931528,-681725,0,0,0,239,381,167,333,349,348,449,472,250,170,255,165,0,
1,1775234512432,-2904,138,14539,2736676,-438601,434936,0,0,0,406,459,209,450,380,519,292,182,437,240,169,562,0,
2,1775234512432,6604,12390,12916,4949230,-4613254,290771,0,0,0,248,386,168,341,345,360,474,485,259,187,284,169,0,
1,1775234512448,-4034,325,15616,3501479,-289550,637743,0,0,0,404,457,205,444,410,499,255,191,426,230,164,553,0,
2,1775234512448,114,4096,15970,5203350,-2553416,714712,0,0,0,249,393,180,345,349,370,478,489,270,198,298,183,0,
1,1775234512464,-5245,559,17037,4353025,-75747,946841,0,0,0,408,448,217,429,410,494,207,180,429,213,148,549,0,
2,1775234512464,-6580,-2048,21847,4944343,-522900,367740,0,0,0,252,395,197,351,348,381,422,491,300,213,303,192,0,
1,1775234512480,-6719,794,19267,5227784,167377,1339016,0,0,0,425,450,218,427,392,476,244,169,417,196,123,504,0,
2,1775234512480,-3292,52,20382,4083023,91629,-497244,0,0,0,254,411,229,358,352,399,497,502,292,216,304,211,0,
1,1775234512496,-9160,526,22904,6229603,472809,1893682,0,0,0,416,414,197,402,358,451,211,149,387,193,111,424,0,
2,1775234512496,2656,1919,15319,3011565,129503,-651182,0,0,0,278,440,266,370,373,402,525,526,292,224,305,235,0,
1,1775234512512,-10667,76,26144,7120245,715934,2466673,0,0,0,361,386,188,362,316,414,190,156,353,173,112,351,0,
2,1775234512512,3914,904,11538,1869247,-62308,-80634,0,0,0,306,455,283,390,386,417,538,538,299,236,302,268,0,
1,1775234512528,-10351,38,28561,7762875,805120,2880840,0,0,0,286,362,202,320,271,364,213,180,316,159,133,280,0,
2,1775234512528,1536,-732,10911,769690,-259006,254119,0,0,0,330,465,299,399,390,426,550,550,300,263,324,278,0,
1,1775234512544,-8877,2512,30437,8152607,952949,3145955,0,0,0,253,315,202,283,219,297,269,215,281,163,173,183,0,
2,1775234512544,311,14,11079,76969,-383623,108734,0,0,0,347,473,302,401,389,423,554,555,296,273,333,285,0,
