sole_id,timestamp,accel_x,accel_y,accel_z,gyro_x,gyro_y,gyro_z,magn_x,magn_y,magn_z,pressure_01,pressure_02,pressure_03,pressure_04,pressure_05,pressure_06,pressure_07,pressure_08,pressure_09,pressure_10,pressure_11,pressure_12,corrupt,brick
1,1775671689232,-3862,-9,12462,1029918,13439,4886,0,0,0,277,300,246,332,219,361,506,495,338,404,445,212,0,
1,1775671689248,-1919,234,9380,491135,-134390,-284663,0,0,0,309,313,256,351,218,369,515,495,338,432,440,236,0,
1,1775671689264,-1919,559,9389,313984,-118507,-131946,0,0,0,315,326,259,359,216,374,524,490,343,421,444,256,0,
1,1775671689280,-2416,679,9949,169820,-19547,-37873,0,0,0,324,330,266,361,221,380,538,491,365,416,447,273,0,
1,1775671689296,-2574,832,10002,70860,57421,-40317,0,0,0,322,324,268,365,225,395,537,493,360,425,442,299,0,
1,1775671689312,-2292,990,9839,56199,78190,-24434,0,0,0,327,330,274,367,228,395,537,485,353,428,443,301,0,
1,1775671689328,-2124,1048,9863,76969,58643,0,0,0,0,330,330,274,368,230,393,538,479,356,429,440,303,0,
1,1775671689344,-2120,1091,10031,107512,1221,13439,0,0,0,335,332,278,376,230,397,540,482,361,429,430,309,0,
1,1775671689360,-2177,1139,10136,169820,-86742,29321,0,0,0,335,335,278,377,234,398,541,470,361,430,425,315,0,
1,1775671689376,-2206,1129,10007,243124,-155159,45204,0,0,0,332,339,272,375,243,399,540,455,358,431,421,320,0,
1,1775671689392,-2287,1019,9686,298102,-175929,51312,0,0,0,330,342,270,376,251,403,539,449,361,428,415,323,0,
1,1775671689408,-2378,885,9466,293215,-142942,51312,0,0,0,331,341,272,374,252,409,541,444,369,422,409,325,0,
1,1775671689424,-2388,813,9442,234572,-81855,51312,0,0,0,334,343,269,376,254,409,542,444,363,416,405,327,0,
1,1775671689440,-2354,780,9442,134390,8552,59864,0,0,0,335,344,270,376,256,405,540,432,363,414,403,330,0,
1,1775671689456,-2268,818,9662,48869,92851,65973,0,0,0,330,339,291,383,247,413,543,421,369,416,395,333,0,
2,1775671689456,0,0,0,0,0,0,0,0,0,256,444,239,337,381,390,327,319,278,126,124,201,0,
1,1775671689472,-2167,880,9710,103847,57421,58643,0,0,0,330,333,299,383,247,414,546,420,369,413,389,334,0,
2,1775671689472,-492,-483,574,-3665,-4886,0,0,0,0,256,444,240,340,382,394,329,320,280,112,119,202,0,
1,1775671689488,-2134,894,9633,168598,3665,52534,0,0,0,326,335,305,383,262,422,546,414,373,406,379,341,0,
2,1775671689488,-4919,-4508,9456,-431270,-284663,210137,0,0,0,256,443,239,340,382,394,329,319,280,111,118,201,0,
1,1775671689504,-2134,875,9624,184481,-6108,50090,0,0,0,345,336,294,404,269,423,543,409,374,414,371,346,0,
2,1775671689504,-3244,-2206,16491,-2139250,-486248,897971,0,0,0,256,444,239,341,384,395,331,320,282,111,117,199,0,
1,1775671689520,-2120,847,9667,188146,-8552,46425,0,0,0,333,342,294,394,276,422,543,399,371,408,365,346,0,
2,1775671689520,2871,4048,18224,-5207015,610865,1639562,0,0,0,257,444,240,340,383,394,333,322,285,113,119,201,0,
1,1775671689536,-2115,808,9719,202807,-24434,43982,0,0,0,333,363,274,393,318,421,547,395,364,390,359,349,0,
2,1775671689536,4603,5154,18655,-6851464,2179567,1585806,0,0,0,254,443,238,339,381,392,333,322,284,115,118,203,0,
1,1775671689552,-2153,760,9739,232128,-54977,53756,0,0,0,335,368,267,403,319,423,548,385,363,383,349,365,0,
2,1775671689552,3527,3685,21469,-7095810,2686585,1346346,0,0,0,253,443,238,339,380,392,332,318,281,115,116,201,0,
1,1775671689568,-2220,717,9743,270002,-84299,74525,0,0,0,338,361,274,411,307,434,543,368,377,375,333,388,0,
2,1775671689568,2569,2622,25967,-6875899,2398256,1484402,0,0,0,251,442,238,341,382,395,333,316,283,112,116,199,0,
1,1775671689584,-2258,698,9700,324980,-112399,106290,0,0,0,344,359,276,413,318,448,537,349,390,363,314,405,0,
2,1775671689584,2258,1292,29719,-6838025,2329840,2046398,0,0,0,252,442,240,340,380,396,337,315,291,114,116,202,0,
1,1775671689600,-2239,665,9743,404392,-166155,146607,0,0,0,349,360,277,414,324,463,537,330,391,358,291,417,0,
2,1775671689600,1861,-3632,33098,-6728069,2608394,2894279,0,0,0,258,443,240,347,379,397,345,311,292,115,113,200,0,
1,1775671689616,-2187,607,9906,508239,-277332,195476,0,0,0,356,363,281,424,321,480,536,303,401,344,266,436,0,x
2,1775671689616,1885,-15190,34984,-6332229,2500882,3299894,0,0,0,258,443,237,353,381,401,348,309,293,118,114,201,0,x
1,1775671689632,-2230,516,10093,619417,-412944,228463,0,0,0,358,374,281,429,337,493,525,281,414,314,255,466,0,
2,1775671689632,4800,-30236,31394,-5560095,1535715,2808758,0,0,0,259,443,237,356,383,404,350,310,295,120,114,203,0,
1,1775671689648,-2402,459,10294,735481,-498466,239459,0,0,0,358,375,288,437,325,506,530,262,419,307,230,499,0,
2,1775671689648,6355,-43148,20593,-3726277,1121548,621860,0,0,0,261,442,237,357,383,406,351,310,297,121,113,206,0,
1,1775671689664,-2703,459,10552,867428,-488692,244346,0,0,0,393,382,264,447,330,507,519,244,441,297,212,528,0,
2,1775671689664,-1895,-46542,14548,-1624901,1672549,-1773952,0,0,0,253,441,234,355,384,403,356,330,295,122,125,205,0,
1,1775671689680,-2919,382,10916,1055575,-406836,261450,0,0,0,386,392,267,458,339,519,508,232,441,283,194,547,0,
2,1775671689680,-13764,-42196,16429,73303,1150870,-2631607,0,0,0,242,434,226,350,384,395,373,390,287,129,159,195,0,
1,1775671689696,-2785,210,11533,1317025,-296880,285884,0,0,0,386,402,245,459,367,535,485,225,455,285,191,553,0,
2,1775671689696,-10567,-26771,20626,1662775,-1301142,-1543045,0,0,0,241,411,212,345,373,386,408,457,275,146,204,184,0,
1,1775671689712,-2512,43,12347,1660331,-356745,305432,0,0,0,385,411,227,455,385,540,436,222,467,270,191,558,0,
2,1775671689712,1095,1612,18229,3243694,-3649308,-127059,0,0,0,246,383,196,340,352,372,444,477,269,167,242,180,0,
1,1775671689728,-2775,-14,12835,2012190,-469144,337197,0,0,0,415,408,213,462,387,537,392,213,486,266,181,561,0,
2,1775671689728,5695,12495,10433,4142888,-3791029,921184,0,0,0,257,383,186,346,350,377,468,488,274,182,278,180,0,
1,1775671689744,-3670,-33,13318,2470339,-443488,437379,0,0,0,420,405,205,483,390,538,351,199,492,271,166,565,0,
2,1775671689744,-765,3172,11706,4775744,-2224771,1185078,0,0,0,262,389,203,352,350,388,476,509,286,210,307,184,0,
1,1775671689760,-4761,-62,13955,3023782,-223576,679282,0,0,0,402,417,209,474,401,540,300,183,478,244,157,568,0,
2,1775671689760,-7743,-3977,19794,4784296,-561996,547335,0,0,0,262,391,210,363,355,398,504,516,286,283,371,183,0,
1,1775671689776,-5460,0,14941,3649308,21991,1022588,0,0,0,387,438,209,452,404,532,254,170,456,208,147,557,0,
2,1775671689776,-3943,-162,20693,3985284,-201585,-504574,0,0,0,264,405,233,370,360,405,515,515,302,208,303,196,0,
1,1775671689792,-6192,-43,17056,4312708,168598,1365894,0,0,0,388,437,203,441,388,511,228,160,439,192,129,517,0,
2,1775671689792,2316,2244,17262,2935818,-52534,-812450,0,0,0,274,422,265,376,364,418,528,528,307,210,292,219,0,
1,1775671689808,-7365,-43,20114,5076290,291993,1718974,0,0,0,383,405,206,417,359,489,211,146,418,176,114,456,0,
2,1775671689808,4221,1263,12644,1835039,-18325,-196698,0,0,0,289,441,286,388,377,428,537,538,312,219,290,246,0,
1,1775671689824,-9294,143,22809,5903401,397062,2116037,0,0,0,352,378,194,398,322,461,199,145,384,166,108,378,0,
2,1775671689824,1923,320,10792,1047023,-155159,201585,0,0,0,306,456,296,399,385,433,546,546,322,229,290,270,0,
1,1775671689840,-10256,47,24422,6594901,412944,2544864,0,0,0,307,355,194,363,303,414,189,163,348,144,108,291,0,
2,1775671689840,784,421,10500,540004,-299323,223576,0,0,0,326,464,304,406,393,442,554,554,325,233,288,288,0,
1,1775671689856,-9026,555,26436,7193549,346971,2967583,0,0,0,259,336,200,315,270,370,228,198,317,162,140,235,0,
2,1775671689856,837,866,10528,262672,-339641,96516,0,0,0,344,469,313,412,396,447,562,562,330,238,288,300,0,
1,1775671689872,-9490,2703,26360,7574728,609643,3236364,0,0,0,237,299,204,276,222,306,279,244,276,144,190,140,0,
2,1775671689872,885,1129,10327,106290,-277332,25656,0,0,0,356,473,318,417,398,450,565,565,330,243,290,307,0,
1,1775671689888,-11921,5943,20363,7765318,821002,3474601,0,0,0,236,291,227,260,201,305,306,259,293,150,216,136,0,
2,1775671689888,894,1316,10222,56199,-168598,14660,0,0,0,361,476,319,419,401,452,563,563,326,247,294,314,0,
1,1775671689904,-11500,9935,12672,7246083,803898,3654195,0,0,0,230,295,233,257,203,310,306,265,294,150,223,137,0,
2,1775671689904,923,1469,10193,62308,-109955,3665,0,0,0,366,480,323,419,402,454,563,563,329,248,293,321,0,
1,1775671689920,-8920,14419,9810,5229006,816115,2882062,0,0,0,227,301,230,253,209,308,306,268,291,149,226,140,0,
2,1775671689920,880,1564,10150,111177,-73303,-13439,0,0,0,375,485,327,421,403,456,567,567,333,248,285,326,0,
1,1775671689936,-6240,18037,10189,1376890,917519,686612,0,0,0,225,306,225,253,217,308,309,274,287,148,231,135,0,
2,1775671689936,808,1584,10117,189368,4886,-25656,0,0,0,375,483,325,421,404,455,565,563,330,244,274,327,0,
1,1775671689952,-5719,15199,9083,-2221106,1259604,-1651779,0,0,0,224,309,226,254,219,308,308,278,288,147,233,132,0,
2,1775671689952,827,1564,10083,266337,91629,-28099,0,0,0,377,483,323,426,410,462,566,560,330,254,272,329,0,
1,1775671689968,-7116,9834,6269,-3510031,1370781,-2376265,0,0,0,224,310,228,253,218,308,306,278,290,148,233,134,0,
2,1775671689968,971,1488,10007,327423,142942,-23212,0,0,0,383,485,323,425,407,459,575,554,337,359,324,319,0,
1,1775671689984,-8145,6058,3723,-3398854,698829,-1556484,0,0,0,223,310,228,251,218,309,306,277,291,149,235,136,0,
2,1775671689984,1100,1354,9906,350636,141720,-19547,0,0,0,385,487,323,423,404,457,572,550,339,240,249,346,0,
1,1775671690000,-6728,5197,3756,-3485597,-45204,-696386,0,0,0,223,309,230,252,219,313,306,278,293,149,236,137,0,
2,1775671690000,1167,1229,9815,335975,101403,-23212,0,0,0,385,487,321,431,410,464,569,542,342,241,246,351,0,
1,1775671690016,-4178,5412,5518,-4040262,-248011,-283441,0,0,0,222,307,234,252,217,316,307,279,294,149,236,137,0,
2,1775671690016,1182,1172,9767,296880,53756,-34208,0,0,0,388,488,323,432,411,465,564,531,337,240,238,357,0,
1,1775671690032,-3790,5163,7150,-4783074,123394,-392175,0,0,0,223,305,245,252,216,326,310,278,299,153,239,147,0,
2,1775671690032,1177,1182,9772,261450,13439,-46425,0,0,0,396,492,327,432,410,466,564,525,342,238,233,361,0,
1,1775671690048,-4996,4441,8308,-5420818,237015,-582765,0,0,0,223,305,253,252,214,334,309,277,308,156,238,152,0,
2,1775671690048,1177,1191,9791,239459,-18325,-56199,0,0,0,400,491,326,435,411,467,569,516,347,264,252,364,0,
1,1775671690064,-6087,3594,9475,-5828876,-261450,-740368,0,0,0,223,308,251,251,220,331,305,278,307,192,234,165,0,
2,1775671690064,1167,1191,9806,232128,-50090,-62308,0,0,0,410,490,325,436,410,471,573,508,350,251,231,374,0,
1,1775671690080,-6044,2928,11012,-6109874,-866206,-955393,0,0,0,223,308,255,250,218,331,306,278,307,152,235,149,0,
2,1775671690080,1110,1167,9834,243124,-73303,-63529,0,0,0,417,488,325,440,412,480,574,500,352,264,236,383,0,
1,1775671690096,-5728,2263,12849,-6315124,-1251052,-1290147,0,0,0,223,308,250,254,218,328,312,282,305,154,238,147,0,
2,1775671690096,1057,1139,9877,268780,-74525,-61086,0,0,0,424,491,326,449,422,490,575,493,352,263,228,395,0,
1,1775671690112,-6144,1344,14993,-6451958,-1466076,-1667662,0,0,0,224,308,248,255,219,319,308,277,293,155,239,138,0,
2,1775671690112,1038,1081,9930,291993,-54977,-57421,0,0,0,433,497,327,455,429,496,578,485,357,239,197,413,0,
1,1775671690128,-6905,483,17358,-6509379,-1696983,-1940107,0,0,0,226,310,241,256,221,316,308,276,288,155,239,135,0,
2,1775671690128,1072,1009,9968,312763,-26878,-56199,0,0,0,439,500,329,454,430,499,579,473,365,242,195,431,0,
1,1775671690144,-7614,-191,20181,-6497162,-1957212,-2041511,0,0,0,223,309,248,254,219,320,308,275,291,154,237,136,0,
2,1775671690144,1143,966,9987,339641,-14660,-62308,0,0,0,445,509,330,460,435,506,576,460,366,246,191,449,0,
1,1775671690160,-8202,-904,23297,-6449515,-2160019,-2098932,0,0,0,221,307,250,255,219,324,310,275,293,155,234,139,0,
2,1775671690160,1220,942,10026,395840,-21991,-80634,0,0,0,453,517,333,471,448,516,574,441,371,253,185,471,0,
1,1775671690176,-8518,-2053,26546,-6366437,-2277305,-2201558,0,0,0,221,307,248,254,218,323,314,276,296,155,232,140,0,
2,1775671690176,1282,904,10078,463035,-37873,-105068,0,0,0,464,520,332,476,468,519,565,413,389,253,179,489,0,
1,1775671690192,-7901,-5025,29896,-6302907,-2477669,-2483778,0,0,0,222,309,249,253,216,322,315,275,300,155,229,138,0,
2,1775671690192,1340,847,10198,551000,-43982,-140499,0,0,0,482,532,341,474,460,515,556,384,380,265,178,516,0,
1,1775671690208,-6470,-10581,32309,-6244264,-2719572,-2757445,0,0,0,223,318,242,263,221,325,317,270,301,159,228,135,0,
2,1775671690208,1421,808,10390,645073,-34208,-178372,0,0,0,485,535,344,483,475,527,542,341,373,268,176,539,0,
1,1775671690224,-4766,-19420,30093,-5954714,-2667037,-2621833,0,0,0,224,329,231,272,226,324,324,273,304,162,229,131,0,
2,1775671690224,1622,780,10696,763581,1221,-223576,0,0,0,501,548,343,493,485,537,529,304,381,272,179,556,0,
1,1775671690240,-2900,-31591,23335,-5231449,-2486221,-1749518,0,0,0,226,316,239,271,218,325,320,269,309,166,229,133,0,
2,1775671690240,1698,689,11246,935845,59864,-294437,0,0,0,511,550,332,503,495,546,509,272,402,273,176,570,0,
1,1775671690256,4307,-41895,16831,-3909537,-2417804,171042,0,0,0,229,319,239,272,219,325,318,268,308,166,228,132,0,
2,1775671690256,1296,650,11844,1203404,62308,-331088,0,0,0,514,551,320,502,502,546,474,248,401,273,174,585,0,
1,1775671690272,15764,-46374,14568,-2127032,-1550375,1870469,0,0,0,223,316,243,280,226,336,317,269,304,164,233,136,0,
2,1775671690272,1052,550,12577,1663996,54977,-304210,0,0,0,524,555,301,500,505,543,438,237,409,272,175,596,0,
1,1775671690288,18985,-41947,15592,9773,880867,2300518,0,0,0,226,307,231,267,213,316,335,300,304,185,267,125,0,
2,1775671690288,1474,478,13649,2173458,124616,-304210,0,0,0,522,559,276,506,519,549,400,229,409,268,177,604,0,
1,1775671690304,8423,-29628,17228,1682322,2987131,1874134,0,0,0,226,289,193,262,206,280,385,374,275,231,346,105,0,
2,1775671690304,2321,449,14941,2830749,210137,-425162,0,0,0,523,556,259,504,527,555,358,223,405,263,174,607,0,
1,1775671690320,-5699,1378,17200,2904053,4519181,1110553,0,0,0,236,273,162,269,190,256,443,429,262,273,388,88,0,
2,1775671690320,2440,550,15735,3530801,68416,-577878,0,0,0,533,552,255,493,524,553,317,210,404,262,173,608,0,
1,1775671690336,-9317,17697,11763,3547905,5181358,155159,0,0,0,243,270,149,279,181,249,464,459,269,329,410,80,0,
2,1775671690336,2981,646,16597,4290717,-146607,-715934,0,0,0,534,545,252,488,520,556,288,182,400,263,174,603,0,
1,1775671690352,-220,4867,13285,4598593,3749490,-460592,0,0,0,246,274,152,292,181,263,473,473,279,362,421,81,0,
2,1775671690352,3991,760,18731,5164254,-213802,-955393,0,0,0,524,532,249,492,506,558,274,156,398,254,166,567,0,
1,1775671690368,5733,-3508,20698,4952895,1585806,-204028,0,0,0,249,280,167,302,189,280,485,484,284,381,428,92,0,
2,1775671690368,4819,794,22522,6197838,-129503,-1252273,0,0,0,500,518,242,491,492,541,269,151,401,233,150,497,0,
1,1775671690384,1378,-1890,22373,3786142,354301,568104,0,0,0,254,289,196,313,204,306,493,493,293,398,437,110,0,
2,1775671690384,5379,957,27839,7283957,96516,-1499063,0,0,0,433,486,219,476,475,517,279,161,392,228,137,422,0,
1,1775671690400,-4154,0,17559,2167349,79412,557109,0,0,0,261,304,230,332,220,342,499,498,313,410,445,140,0,
2,1775671690400,5953,2239,30748,8123285,430049,-1696983,0,0,0,362,461,183,433,444,469,288,171,353,190,128,350,0,
1,1775671690416,-4067,248,11194,905302,193033,-94073,0,0,0,278,318,246,354,229,358,515,503,325,422,460,185,0,
2,1775671690416,6221,3728,31466,8836776,907745,-1996307,0,0,0,314,445,212,378,409,427,298,217,305,155,114,302,0,
1,1775671690432,-1818,205,9423,425162,87964,-213802,0,0,0,308,320,257,367,224,358,536,499,324,427,478,209,0,
2,1775671690432,6767,4709,29925,9255830,1552819,-2378709,0,0,0,265,422,228,334,369,386,310,263,283,105,95,198,0,
1,1775671690448,-1593,521,9901,233350,-4886,-75747,0,0,0,313,321,253,373,226,363,546,497,327,442,485,234,0,
2,1775671690448,8222,9026,21603,9108000,2017077,-2993239,0,0,0,266,430,238,337,374,396,318,289,294,108,108,203,0,
1,1775671690464,-2321,923,10323,217468,21991,-7330,0,0,0,321,321,263,380,230,378,551,503,331,436,484,257,0,
2,1775671690464,6934,12787,14189,8162381,1337794,-3766595,0,0,0,267,433,239,337,376,395,321,300,295,110,113,206,0,
1,1775671690480,-2368,1124,10150,229685,70860,4886,0,0,0,339,328,276,386,232,388,557,495,338,451,476,284,0,
2,1775671690480,2024,16544,12069,5634620,-741590,-3776368,0,0,0,268,435,234,337,377,390,319,301,284,109,112,201,0,
1,1775671690496,-2029,1052,9964,257785,58643,12217,0,0,0,332,326,272,379,232,385,573,483,343,451,463,289,0,
2,1775671690496,1617,20200,9121,65973,-2674368,-1965764,0,0,0,266,436,231,339,377,389,318,298,275,111,112,198,0,
1,1775671690512,-2005,1005,10069,277332,-13439,25656,0,0,0,331,326,275,379,234,396,570,471,359,444,447,302,0,
2,1775671690512,5058,16391,7614,-4883256,-2838079,-146607,0,0,0,264,437,232,339,377,392,319,299,273,114,113,200,0,
1,1775671690528,-2086,1072,10189,321315,-78190,42760,0,0,0,330,331,273,380,242,397,568,459,362,440,418,311,0,
2,1775671690528,6082,8657,7585,-6428745,-2048842,251676,0,0,0,263,439,233,339,379,391,322,303,275,119,116,202,0,
1,1775671690544,-2067,1100,10174,381179,-142942,56199,0,0,0,328,337,266,383,259,399,561,436,357,437,401,318,0,
2,1775671690544,5647,4091,6719,-6349333,-1661553,-26878,0,0,0,262,441,234,341,380,389,324,305,273,119,116,198,0,
1,1775671690560,-2057,1000,9973,445931,-222354,67195,0,0,0,337,350,262,390,279,400,543,428,361,434,395,332,0,
2,1775671690560,6298,3302,5580,-5926614,-1499063,-411723,0,0,0,261,442,235,340,380,389,324,306,272,110,114,197,0,
1,1775671690576,-2177,856,9633,460592,-257785,73303,0,0,0,339,353,259,396,279,405,538,419,372,425,391,341,0,
2,1775671690576,7403,3239,5623,-5877745,-984714,-648738,0,0,0,260,442,235,339,380,388,325,308,274,114,116,198,0,
1,1775671690592,-2292,799,8576,383623,-183259,84299,0,0,0,337,348,255,398,269,407,543,403,378,414,369,348,0,
2,1775671690592,7307,3488,7264,-6139195,-119729,-630412,0,0,0,262,443,236,343,382,392,326,307,273,113,114,198,0,
1,1775671690608,-2316,756,8475,342084,-112399,92851,0,0,0,336,345,251,400,268,406,545,385,375,404,337,354,0,
2,1775671690608,6298,3627,9212,-6415306,510683,-145385,0,0,0,261,442,237,342,381,392,326,307,271,112,116,197,0,
1,1775671690624,-2273,665,9389,362853,-95294,95294,0,0,0,334,346,256,402,270,414,540,372,380,398,328,358,0,
2,1775671690624,6192,3230,10672,-6607118,922406,576656,0,0,0,261,442,237,342,383,392,328,313,272,111,116,196,0,
1,1775671690640,-2244,588,9763,353080,-73303,97738,0,0,0,340,349,265,406,268,423,534,365,388,392,327,364,0,
2,1775671690640,6838,2464,11859,-6651100,1290147,1255938,0,0,0,261,443,236,339,382,390,332,315,278,110,115,196,0,
1,1775671690656,-2191,555,9605,318871,-41538,101403,0,0,0,343,352,267,409,273,416,539,359,375,372,323,369,0,
2,1775671690656,7413,2019,13591,-6585127,1789835,1703092,0,0,0,262,444,237,344,384,394,331,314,276,110,114,195,0,
1,1775671690672,-2120,526,9552,296880,-31764,100181,0,0,0,334,349,263,408,273,426,541,359,378,364,320,381,0,
2,1775671690672,7355,2062,15998,-6574131,2216219,1925447,0,0,0,261,444,238,343,385,394,331,310,277,113,116,199,0,
1,1775671690688,-2043,488,9672,287106,-51312,91629,0,0,0,341,353,271,415,279,433,538,336,375,364,309,399,0,
2,1775671690688,6800,2201,19315,-6721961,2439795,1964542,0,0,0,262,444,240,344,384,394,333,312,280,112,114,198,0,
1,1775671690704,-2048,459,9806,294437,-90408,81855,0,0,0,338,351,267,419,278,440,537,328,380,357,295,418,0,
2,1775671690704,6685,1933,22952,-6966307,2444682,1881464,0,0,0,260,442,238,345,383,395,333,311,281,113,114,198,0,
1,1775671690720,-2139,425,9887,320093,-133168,80634,0,0,0,354,350,260,432,285,450,537,318,378,357,295,432,0,
2,1775671690720,6982,1421,27623,-7165449,2524095,1816713,0,0,0,260,439,239,344,380,395,334,308,282,114,115,199,0,
1,1775671690736,-2268,368,9853,366519,-167377,101403,0,0,0,347,362,260,429,298,455,533,301,388,342,279,439,0,
2,1775671690736,6810,-1052,31892,-7230200,2748893,2054950,0,0,0,262,440,242,345,379,395,337,306,285,114,114,199,0,
1,1775671690752,-2359,291,9748,412944,-182037,134390,0,0,0,351,370,260,436,313,459,534,286,394,331,264,462,0,
2,1775671690752,5307,-7437,34199,-7115358,3240029,2571742,0,0,0,265,441,240,349,380,399,342,304,290,116,112,199,0,
1,1775671690768,-2483,234,9791,465479,-206472,180816,0,0,0,367,367,253,441,315,470,528,268,398,317,239,476,0,
2,1775671690768,1928,-19119,34998,-6502049,3428175,2996904,0,0,0,266,440,236,355,383,404,347,303,293,118,112,200,0,
1,1775671690784,-2627,191,10002,546113,-256563,250454,0,0,0,361,373,249,451,321,486,515,254,418,297,219,490,0,
2,1775671690784,330,-33012,30811,-5363396,2406809,2811201,0,0,0,266,442,237,359,388,406,348,303,296,121,115,202,0,
1,1775671690800,-2680,153,10337,654847,-311541,318871,0,0,0,360,389,251,460,342,500,518,242,440,286,207,513,0,
2,1775671690800,1014,-45211,19971,-3561344,1230282,1310916,0,0,0,268,443,238,362,389,410,348,303,296,121,114,204,0,
1,1775671690816,-2809,186,10935,834441,-339641,373849,0,0,0,371,407,245,466,373,513,513,232,452,280,202,538,0,
2,1775671690816,-4623,-48331,14960,-1666440,1386664,-956614,0,0,0,264,441,237,358,385,406,349,312,294,121,118,201,0,
1,1775671690832,-2531,172,11749,1100779,-337197,415388,0,0,0,378,416,231,475,398,528,482,224,456,274,200,550,0,
2,1775671690832,-11940,-45556,15869,94073,867428,-2450791,0,0,0,243,435,229,353,391,403,361,388,288,122,156,187,0,
1,1775671690848,-1899,0,12352,1423316,-370184,394618,0,0,0,383,419,225,485,403,543,452,215,453,269,197,559,0,
2,1775671690848,-12179,-30471,21660,1762957,-1066570,-2274862,0,0,0,242,406,201,358,371,380,424,468,272,158,206,184,0,
1,1775671690864,-2182,-172,12821,1848478,-476474,316428,0,0,0,388,419,214,490,395,555,415,211,458,265,190,565,0,
2,1775671690864,-502,4871,20301,3084869,-3491705,-730594,0,0,0,251,375,195,342,347,376,455,476,275,170,249,184,0,
1,1775671690880,-3273,-162,13409,2298075,-542448,346971,0,0,0,398,421,216,490,396,557,359,200,473,257,172,566,0,
2,1775671690880,7623,19511,10514,4036597,-4361577,756251,0,0,0,257,375,188,343,343,380,478,486,281,195,292,180,0,
1,1775671690896,-4187,-162,14218,2858849,-541226,533896,0,0,0,399,413,205,490,403,546,323,180,489,249,148,574,0,
2,1775671690896,933,4465,11194,5304753,-2563190,1340238,0,0,0,260,384,198,354,350,396,496,498,297,201,310,188,0,
1,1775671690912,-4958,0,15381,3619987,-410501,839328,0,0,0,433,398,194,471,404,557,266,173,473,223,138,562,0,
2,1775671690912,-7896,-5407,21335,5547878,-508239,777020,0,0,0,262,395,218,367,358,408,507,507,305,205,310,200,0,
1,1775671690928,-5929,306,17123,4433659,-227241,1196074,0,0,0,429,419,219,474,372,527,218,157,444,213,123,546,0,
2,1775671690928,-5436,-1541,24843,4315152,-37873,-547335,0,0,0,271,414,247,374,362,414,525,526,309,212,303,218,0,
1,1775671690944,-7623,569,20248,5419596,-45204,1633453,0,0,0,398,406,218,451,365,502,209,138,426,197,118,487,0,
2,1775671690944,2373,1588,17913,2741563,-116064,-670730,0,0,0,285,440,278,386,375,426,537,538,315,221,299,246,0,
1,1775671690960,-9858,440,23718,6363994,0,2098932,0,0,0,376,386,195,439,354,475,203,135,391,178,114,399,0,
2,1775671690960,4048,1143,11519,1497841,-70860,-34208,0,0,0,307,461,300,403,394,440,544,545,321,231,297,278,0,
1,1775671690976,-10916,354,27073,7197214,23212,2596177,0,0,0,325,362,181,382,327,429,193,153,354,147,113,311,0,
2,1775671690976,1694,-153,10241,747699,-122173,257785,0,0,0,336,472,309,414,403,447,557,558,321,264,322,297,0,
1,1775671690992,-9973,1196,29681,7883826,120951,3046995,0,0,0,268,335,182,325,285,370,215,193,313,136,138,233,0,
2,1775671690992,693,-157,10658,274889,-249233,169820,0,0,0,361,480,316,419,406,451,566,568,319,311,367,300,0,
1,1775671691008,-8829,3306,30083,8313875,436157,3347541,0,0,0,238,304,193,279,233,310,270,232,285,140,177,160,0,
2,1775671691008,1143,909,10729,47647,-345749,-13439,0,0,0,374,481,328,416,402,450,568,572,318,325,382,309,0,
1,1775671691024,-12069,6968,23847,8649851,465479,3521027,0,0,0,231,287,208,253,200,284,308,257,280,147,208,121,0,
2,1775671691024,1186,1292,10284,7330,-307876,-4886,0,0,0,383,487,333,417,400,451,569,575,319,338,399,305,0,
1,1775671691040,-13146,12390,13275,8254011,-114842,3919311,0,0,0,230,295,218,257,202,299,310,268,286,152,217,125,0,
2,1775671691040,1048,1373,10198,-9773,-211359,18325,0,0,0,385,486,334,422,405,450,571,575,319,326,382,307,0,
1,1775671691056,-8576,16798,10332,5663942,17104,3569896,0,0,0,224,302,222,256,207,305,305,270,285,151,216,131,0,
2,1775671691056,981,1383,10370,13439,-139277,7330,0,0,0,390,490,338,422,408,451,568,569,322,303,355,306,0,
1,1775671691072,-4331,20483,10260,949284,797790,1772730,0,0,0,223,305,226,251,212,304,301,262,283,151,216,135,0,
2,1775671691072,928,1478,10332,74525,-70860,-21991,0,0,0,385,486,325,422,408,444,569,572,362,294,342,300,0,
1,1775671691088,-4321,17463,10256,-3545461,1654223,-756251,0,0,0,223,308,218,253,217,303,305,267,279,153,222,134,0,
2,1775671691088,923,1512,10184,139277,9773,-37873,0,0,0,387,489,329,422,407,450,560,560,324,248,290,315,0,
1,1775671691104,-7260,9514,6867,-4732983,1566258,-1578475,0,0,0,223,308,221,253,215,303,308,268,281,153,224,134,0,
2,1775671691104,1005,1469,10021,197920,70860,-37873,0,0,0,389,494,329,422,409,449,559,560,332,242,283,312,0,
1,1775671691120,-8542,5297,4168,-4520402,759916,-1073901,0,0,0,224,309,223,253,215,306,310,267,281,158,225,137,0,
2,1775671691120,1081,1440,9901,241902,80634,-32986,0,0,0,385,490,321,420,408,448,558,561,324,269,304,309,0,
1,1775671691136,-7092,4776,4106,-4395786,-217468,-272445,0,0,0,225,310,226,255,216,307,313,269,283,157,225,140,0,
2,1775671691136,1129,1450,9830,282219,50090,-21991,0,0,0,388,493,319,422,413,450,549,552,329,254,284,313,0,
1,1775671691152,-4302,5331,6288,-4921130,-516791,-17104,0,0,0,226,309,227,256,216,309,313,270,284,157,226,137,0,
2,1775671691152,1172,1373,9801,310319,7330,-14660,0,0,0,391,495,321,423,413,451,548,547,327,239,262,319,0,
1,1775671691168,-2895,5250,8379,-5560095,-383623,-164933,0,0,0,227,309,232,258,215,310,313,270,284,161,229,139,0,
2,1775671691168,1210,1244,9777,306654,-32986,-19547,0,0,0,397,496,323,425,412,452,551,541,326,239,253,321,0,
1,1775671691184,-3345,4551,9681,-6012135,-348193,-478918,0,0,0,225,309,234,258,215,312,315,271,288,159,227,138,0,
2,1775671691184,1186,1177,9753,273667,-81855,-30543,0,0,0,408,499,327,427,413,454,552,531,329,251,260,322,0,
1,1775671691200,-3957,3728,11021,-6299242,-862541,-762359,0,0,0,227,309,232,259,215,311,316,272,288,159,227,135,0,
2,1775671691200,1134,1167,9748,250454,-112399,-40317,0,0,0,419,500,330,430,414,457,553,520,329,256,260,326,0,
1,1775671691216,-3464,3273,12610,-6495940,-1378111,-976162,0,0,0,228,310,231,258,215,309,315,272,285,159,228,133,0,
2,1775671691216,1095,1177,9763,246789,-125838,-46425,0,0,0,427,502,333,434,416,460,556,510,332,239,231,341,0,
1,1775671691232,-2962,2727,14993,-6717074,-1602910,-1230282,0,0,0,226,312,230,256,216,309,317,273,285,159,228,132,0,
2,1775671691232,1067,1158,9810,265115,-131946,-46425,0,0,0,440,508,342,438,421,466,557,505,338,239,219,365,0,
1,1775671691248,-3450,2115,17042,-6853907,-1628566,-1351233,0,0,0,224,311,233,257,217,313,321,277,290,158,228,134,0,
2,1775671691248,1028,1129,9897,293215,-130725,-46425,0,0,0,446,510,348,444,422,479,556,486,336,239,208,384,0,
1,1775671691264,-4402,1043,19626,-6941872,-1720196,-1306029,0,0,0,223,310,242,255,215,318,320,276,292,157,228,135,0,
2,1775671691264,1014,1100,10011,340862,-112399,-45204,0,0,0,443,511,338,450,431,488,559,475,345,236,196,401,0,
1,1775671691280,-5178,-239,22321,-6947981,-1802052,-1249830,0,0,0,226,311,240,255,213,316,317,272,290,159,226,134,0,
2,1775671691280,1062,1048,10083,399505,-89186,-50090,0,0,0,453,524,339,464,445,506,556,458,346,241,190,426,0,
1,1775671691296,-6226,-1703,25254,-6800151,-1775174,-1481959,0,0,0,228,313,234,261,215,311,322,274,287,159,225,131,0,
2,1775671691296,1110,961,10145,472809,-79412,-65973,0,0,0,475,527,342,466,453,506,559,432,368,249,185,455,0,
1,1775671691312,-7657,-3843,28442,-6553362,-1813048,-2092824,0,0,0,229,313,232,262,216,311,326,274,291,159,219,128,0,
2,1775671691312,1158,909,10227,557109,-65973,-91629,0,0,0,476,541,344,470,465,511,549,396,371,250,180,480,0,
1,1775671691328,-8901,-8092,31433,-6284581,-2249205,-3036000,0,0,0,224,313,232,258,217,315,320,270,292,159,220,134,0,
2,1775671691328,1249,851,10380,652404,-36651,-127059,0,0,0,489,548,354,478,472,521,542,366,376,254,170,500,0,
1,1775671691344,-7973,-16707,32318,-6026796,-2845410,-3590665,0,0,0,227,310,243,273,214,319,320,264,296,164,218,131,0,
2,1775671691344,1340,813,10648,773355,-1221,-164933,0,0,0,495,550,342,481,480,525,533,325,386,260,166,525,0,
1,1775671691360,-5561,-27652,28978,-5595525,-2819753,-3386636,0,0,0,228,313,242,276,216,322,322,265,299,166,220,130,0,
2,1775671691360,1483,756,11170,971275,26878,-202807,0,0,0,512,561,342,486,487,523,504,279,386,266,169,554,0,
1,1775671691376,-985,-39526,20545,-4491081,-2475225,-1953547,0,0,0,229,313,237,276,218,323,319,264,297,168,224,130,0,
2,1775671691376,1560,698,11811,1233947,30543,-243124,0,0,0,522,569,330,492,500,529,470,249,387,275,176,576,0,
1,1775671691392,6618,-46719,14032,-2867401,-2156354,67195,0,0,0,230,314,233,277,221,320,323,264,293,173,229,131,0,
2,1775671691392,1316,626,12672,1620014,12217,-284663,0,0,0,528,574,314,499,514,540,434,235,392,278,178,586,0,
1,1775671691408,14783,-47393,12988,-989601,-1034805,1709200,0,0,0,227,306,223,273,219,308,349,310,286,203,280,121,0,
2,1775671691408,1301,521,13888,2101376,24434,-304210,0,0,0,530,572,292,501,522,541,389,233,393,277,179,594,0,
1,1775671691424,12706,-36750,17286,959058,1340238,1831373,0,0,0,228,285,193,270,204,280,394,383,268,255,355,103,0,
2,1775671691424,1823,603,15357,2751337,15882,-348193,0,0,0,530,569,268,494,535,536,337,232,389,274,186,603,0,
1,1775671691440,622,-6379,18932,3277902,4006054,1148426,0,0,0,240,264,160,272,186,253,439,435,249,302,403,90,0,
2,1775671691440,2383,655,16037,3474601,-149051,-453262,0,0,0,535,572,259,485,545,532,295,228,385,270,190,606,0,
1,1775671691456,-6456,11505,13500,4724431,4487416,366519,0,0,0,243,256,157,282,179,257,464,458,261,339,417,82,0,
2,1775671691456,2981,713,16668,4230852,-408057,-592539,0,0,0,542,570,260,473,532,527,267,218,383,265,184,594,0,
1,1775671691472,-2919,6685,14481,5749463,3037221,-92851,0,0,0,240,254,148,293,180,264,479,478,271,390,429,87,0,
2,1775671691472,3919,914,18009,4976108,-679282,-780685,0,0,0,536,561,254,468,525,524,250,187,386,247,167,555,0,
1,1775671691488,4493,-4359,24029,5759237,635299,64751,0,0,0,245,267,175,301,186,287,490,489,278,407,435,94,0,
2,1775671691488,4977,1172,21162,5953492,-904080,-1104444,0,0,0,515,541,254,465,520,521,251,164,374,227,148,501,0,
1,1775671691504,689,-3359,24599,3707952,0,703716,0,0,0,257,289,224,307,195,325,493,488,301,424,439,124,0,
2,1775671691504,6135,875,25111,6954089,-1093448,-1422094,0,0,0,461,519,245,449,500,504,257,168,363,216,144,437,0,
1,1775671691520,-4446,-100,16458,1714087,-94073,497244,0,0,0,265,309,261,331,219,364,505,478,325,427,460,193,0,
2,1775671691520,7719,847,29231,7875274,-860098,-1782504,0,0,0,390,492,230,409,460,463,273,202,329,187,132,379,0,
1,1775671691536,-3809,732,9198,849102,-97738,-139277,0,0,0,293,318,274,353,223,373,521,478,336,437,469,218,0,
2,1775671691536,7805,2627,31016,8499578,-272445,-2158797,0,0,0,319,466,215,370,420,423,289,236,295,158,121,322,0,
1,1775671691552,-2282,-43,8188,458148,-12217,-278554,0,0,0,310,320,270,365,221,377,534,482,341,445,476,234,0,
2,1775671691552,7824,5044,29346,8945510,487470,-2586403,0,0,0,256,431,225,336,376,391,313,277,282,112,106,212,0,
1,1775671691568,-2077,4,9983,140499,147829,-112399,0,0,0,320,323,276,373,221,378,539,488,340,446,489,244,0,
2,1775671691568,8537,7126,21890,9106778,897971,-3224146,0,0,0,258,435,235,333,377,392,320,296,288,110,112,205,0,
1,1775671691584,-2292,818,10638,-72082,219911,-10995,0,0,0,329,324,286,376,228,386,544,491,340,454,489,257,0,
2,1775671691584,7944,10232,14950,8255232,335975,-3803246,0,0,0,258,438,235,334,377,391,321,303,283,111,115,204,0,
1,1775671691600,-2325,1416,10179,-25656,149051,-15882,0,0,0,334,335,295,381,233,391,544,490,341,465,480,276,0,
2,1775671691600,4733,16515,11241,4616919,-907745,-3325550,0,0,0,257,438,233,336,379,391,319,302,273,112,116,204,0,
1,1775671691616,-2196,1320,10035,140499,69638,0,0,0,0,338,351,298,384,242,393,542,485,347,474,474,291,0,
2,1775671691616,2962,19774,10026,-570548,-1773952,-1528384,0,0,0,256,436,230,338,379,390,321,301,270,114,113,202,0,
1,1775671691632,-2100,1115,10169,256563,-1221,29321,0,0,0,340,357,298,385,249,399,543,472,353,472,465,298,0,
2,1775671691632,4460,15328,9222,-4108679,-1936442,331088,0,0,0,257,439,233,339,378,392,320,296,269,133,148,201,0,
1,1775671691648,-2105,1095,10256,302989,-85521,51312,0,0,0,340,352,295,391,240,407,539,459,355,455,445,307,0,
2,1775671691648,7360,7465,6054,-4993212,-1386664,999375,0,0,0,254,439,233,340,378,393,318,291,268,155,189,201,0,
1,1775671691664,-2129,1172,10102,357967,-188146,64751,0,0,0,342,349,284,391,239,416,535,454,364,440,419,319,0,
2,1775671691664,8035,3866,3799,-4604702,-500909,577878,0,0,0,251,439,232,340,379,393,318,292,269,158,194,201,0,
1,1775671691680,-2172,1115,9820,398284,-249233,68416,0,0,0,345,342,281,395,238,421,536,440,361,434,399,320,0,
2,1775671691680,6202,4029,4474,-4405560,326202,-28099,0,0,0,253,442,236,342,382,395,320,297,271,153,184,201,0,
1,1775671691696,-2282,904,9844,343306,-199142,74525,0,0,0,343,343,283,403,237,409,535,430,366,427,385,328,0,
2,1775671691696,4599,4871,6269,-4725653,607200,-147829,0,0,0,251,442,234,342,382,394,324,305,271,143,169,201,0,
1,1775671691712,-2340,823,9901,298102,-149051,78190,0,0,0,343,338,272,409,243,409,535,419,365,420,377,332,0,
2,1775671691712,4044,5240,8073,-5360953,664621,116064,0,0,0,251,442,234,340,379,392,325,304,273,147,173,199,0,
1,1775671691728,-2359,832,9629,306654,-139277,76969,0,0,0,344,345,277,408,243,411,531,416,369,413,367,338,0,
2,1775671691728,4580,4656,8935,-5742133,995710,482583,0,0,0,253,443,235,341,381,392,323,302,269,154,180,198,0,
1,1775671691744,-2359,804,9375,291993,-97738,76969,0,0,0,337,346,274,404,251,412,531,401,370,408,360,341,0,
2,1775671691744,4651,4182,10074,-5966931,1549154,846659,0,0,0,253,444,234,347,385,399,324,304,269,147,171,197,0,
1,1775671691760,-2311,765,9399,248011,-35430,79412,0,0,0,337,348,278,398,254,421,527,393,373,412,359,349,0,
2,1775671691760,3857,4182,11892,-6139195,2050063,1224173,0,0,0,251,444,234,344,383,396,318,296,264,161,198,197,0,
1,1775671691776,-2254,756,9542,210137,4886,79412,0,0,0,356,344,280,403,254,419,527,390,373,418,354,354,0,
2,1775671691776,3091,4144,14032,-6389650,2147802,1617571,0,0,0,249,442,233,343,381,394,322,300,269,162,199,197,0,
1,1775671691792,-2191,751,9619,196698,23212,74525,0,0,0,354,344,284,405,259,419,533,382,374,420,349,357,0,
2,1775671691792,3091,3699,16104,-6612005,2111150,1937664,0,0,0,247,444,234,342,381,393,324,303,271,162,199,198,0,
1,1775671691808,-2139,732,9657,207694,23212,68416,0,0,0,347,350,283,406,264,426,537,381,376,404,337,364,0,
2,1775671691808,3709,3091,18449,-6737843,2177123,2025629,0,0,0,247,444,234,344,385,395,322,302,269,160,194,196,0,
1,1775671691824,-2096,689,9719,228463,0,62308,0,0,0,348,351,280,412,267,429,534,373,376,389,326,375,0,
2,1775671691824,4072,2622,21507,-6862460,2307848,1971872,0,0,0,248,443,233,344,383,395,324,302,270,164,198,199,0,
1,1775671691840,-2110,660,9796,256563,-43982,65973,0,0,0,349,352,277,418,281,432,515,349,379,377,315,388,0,
2,1775671691840,4283,2172,25398,-6987076,2324953,1901012,0,0,0,249,443,234,345,383,396,324,300,272,165,198,198,0,
1,1775671691856,-2191,622,9834,311541,-113620,86742,0,0,0,352,356,272,422,297,438,507,327,384,363,300,402,0,
2,1775671691856,4790,717,29504,-7021285,2252871,2045176,0,0,0,249,443,234,343,389,397,327,299,276,161,191,198,0,
1,1775671691872,-2311,579,9830,394618,-196698,128281,0,0,0,359,356,274,430,284,448,543,317,382,354,283,419,0,
2,1775671691872,4670,-3115,32926,-6980967,2453234,2365270,0,0,0,249,444,236,343,393,397,332,298,282,157,180,202,0,
1,1775671691888,-2407,555,9901,478918,-274889,183259,0,0,0,365,360,281,438,283,454,541,292,393,340,267,439,0,
2,1775671691888,2526,-12366,35381,-6786712,2891836,2665815,0,0,0,253,445,239,351,388,402,338,295,287,143,153,203,0,
1,1775671691904,-2502,521,10122,576656,-350636,241902,0,0,0,371,369,276,436,310,471,538,277,398,321,253,457,0,
2,1775671691904,981,-25336,33811,-6254038,2525316,2546086,0,0,0,257,445,238,356,388,407,345,300,291,126,124,203,0,
1,1775671691920,-2555,459,10466,704938,-406836,287106,0,0,0,384,386,276,438,334,485,522,277,427,308,243,487,0,
2,1775671691920,2842,-41124,24656,-4860043,1297477,1330464,0,0,0,260,444,237,357,389,406,344,298,289,138,139,205,0,
1,1775671691936,-2804,382,10796,869872,-443488,318871,0,0,0,384,393,260,455,358,510,512,256,427,297,226,509,0,
2,1775671691936,14,-48643,15008,-2602285,1170417,-1469741,0,0,0,258,443,236,357,390,404,346,303,287,138,141,204,0,
1,1775671691952,-2924,315,11304,1073901,-463035,366519,0,0,0,387,409,266,453,363,514,497,233,442,292,221,539,0,
2,1775671691952,-9849,-46896,14051,-788016,1240056,-3456275,0,0,0,248,440,230,352,386,398,355,339,283,138,153,198,0,
1,1775671691968,-2517,210,11921,1379333,-454483,406836,0,0,0,397,420,245,458,393,522,468,229,443,279,201,547,0,
2,1775671691968,-16171,-38229,19473,774577,-191811,-3463605,0,0,0,240,426,220,350,384,389,392,441,275,135,185,187,0,
1,1775671691984,-2053,28,12481,1743409,-515570,360410,0,0,0,403,414,225,459,382,526,426,214,459,274,182,569,0,
2,1775671691984,-5522,-10241,22124,2533869,-3380528,-1522276,0,0,0,240,380,196,338,353,368,394,457,283,154,223,177,0,
1,1775671692000,-2569,4,13184,2197893,-620639,312763,0,0,0,399,410,215,466,382,540,373,197,476,260,170,575,0,
2,1775671692000,7791,15472,14721,3760486,-5429370,587652,0,0,0,250,373,188,338,337,374,455,497,276,246,346,172,0,
1,1775671692016,-3632,-33,13816,2730567,-635299,420275,0,0,0,396,412,205,472,398,546,325,181,476,247,163,576,0,
2,1775671692016,6958,12199,8408,4607145,-4516737,1860695,0,0,0,259,381,188,349,339,385,496,516,284,273,375,176,0,
1,1775671692032,-4474,-47,14568,3420845,-568104,649960,0,0,0,397,417,201,462,405,542,269,173,471,229,148,575,0,
2,1775671692032,-6451,-2139,16980,5235115,-1916895,1684766,0,0,0,258,389,201,365,355,396,517,521,300,230,330,189,0,
1,1775671692048,-5168,81,15386,4113566,-399505,921184,0,0,0,400,417,208,446,403,537,230,171,462,205,125,561,0,
2,1775671692048,-10088,-3551,25431,4586376,-527787,272445,0,0,0,268,408,242,376,365,410,529,529,311,211,302,205,0,
1,1775671692064,-6288,263,17348,4856378,-232128,1253495,0,0,0,403,405,215,443,391,522,233,154,437,199,112,525,0,
2,1775671692064,-866,469,21579,2915048,-338419,-568104,0,0,0,280,433,282,387,374,427,540,540,324,215,295,235,0,
1,1775671692080,-8116,143,20961,5650503,-122173,1634675,0,0,0,392,400,208,432,380,489,208,139,413,201,115,455,0,
2,1775671692080,3761,1426,14419,1502728,-156381,-256563,0,0,0,296,454,298,403,389,441,549,549,327,222,291,271,0,
1,1775671692096,-10921,205,25025,6500827,52534,2141693,0,0,0,360,395,179,387,363,443,183,150,377,165,129,369,0,
2,1775671692096,2086,579,9930,723264,-29321,210137,0,0,0,322,467,301,416,401,450,560,561,323,229,288,298,0,
1,1775671692112,-11677,387,27829,7274183,372627,2717128,0,0,0,294,357,194,339,310,398,192,161,342,134,115,275,0,
2,1775671692112,617,282,9480,315206,-94073,195476,0,0,0,345,474,310,422,403,454,571,572,328,234,286,314,0,
1,1775671692128,-10002,1119,29394,7866722,847880,3121521,0,0,0,247,324,193,295,262,347,227,208,296,137,147,211,0,
2,1775671692128,894,847,10346,106290,-237015,13439,0,0,0,357,480,318,428,406,457,573,574,331,236,287,323,0,
1,1775671692144,-11246,3689,28327,8282110,1336573,3246137,0,0,0,237,282,208,257,198,289,290,239,277,143,188,134,0,
2,1775671692144,1148,1373,10390,-13439,-266337,-19547,0,0,0,365,484,318,429,406,458,576,577,333,242,292,321,0,
1,1775671692160,-13864,9739,20354,8354193,1565036,3422067,0,0,0,234,285,218,256,197,292,302,256,283,152,215,131,0,
2,1775671692160,1072,1555,10217,-45204,-182037,8552,0,0,0,370,485,323,426,407,457,576,577,330,240,293,321,0,
1,1775671692176,-13160,13677,12390,7224092,1403768,3618765,0,0,0,233,300,220,258,204,298,302,259,282,155,221,133,0,
2,1775671692176,1014,1603,10208,-6108,-113620,13439,0,0,0,370,487,323,429,411,462,577,577,334,237,292,324,0,
1,1775671692192,-9834,16956,9997,4356690,945619,2987131,0,0,0,232,304,221,256,209,298,296,258,277,155,219,133,0,
2,1775671692192,938,1713,10265,76969,-89186,-12217,0,0,0,382,490,328,426,406,456,574,572,335,245,292,324,0,
1,1775671692208,-5020,18535,10705,-39095,774577,1076344,0,0,0,233,304,224,255,208,298,298,259,276,154,217,133,0,
2,1775671692208,847,1770,10232,183259,-9773,-29321,0,0,0,386,490,329,423,406,454,573,571,331,241,279,326,0,
1,1775671692224,-3445,13965,9504,-3240029,1602910,-1012814,0,0,0,235,305,227,256,207,300,303,264,281,154,217,133,0,
2,1775671692224,856,1722,10098,280998,103847,-30543,0,0,0,390,494,330,429,410,461,567,561,326,243,272,330,0,
1,1775671692240,-5762,8183,6202,-4113566,2142915,-1765400,0,0,0,232,306,225,258,208,302,305,265,282,155,218,133,0,
2,1775671692240,985,1593,9935,345749,171042,-23212,0,0,0,387,492,325,430,411,465,570,559,335,240,267,331,0,
1,1775671692256,-7843,5809,4130,-3997502,1345125,-1237612,0,0,0,229,306,225,257,207,302,307,266,281,156,220,133,0,
2,1775671692256,1162,1488,9820,372627,172263,-14660,0,0,0,387,490,322,433,418,468,564,550,340,240,260,336,0,
1,1775671692272,-6858,5451,4460,-4238183,241902,-603534,0,0,0,229,306,227,255,205,303,312,270,285,158,222,134,0,
2,1775671692272,1292,1435,9767,362853,116064,-14660,0,0,0,390,493,323,434,421,469,562,539,340,238,251,344,0,
1,1775671692288,-4819,5556,6231,-4792848,69638,-459370,0,0,0,229,304,229,259,209,308,313,270,284,160,225,134,0,
2,1775671692288,1330,1397,9758,335975,35430,-23212,0,0,0,395,494,325,437,415,468,565,528,338,235,240,350,0,
1,1775671692304,-4417,5163,7776,-5373170,237015,-563217,0,0,0,230,306,229,262,211,311,312,269,283,158,225,135,0,
2,1775671692304,1316,1349,9786,313984,-29321,-36651,0,0,0,401,493,325,440,409,466,567,518,339,235,233,355,0,
1,1775671692320,-5719,4168,9002,-5883853,169820,-801455,0,0,0,227,305,244,256,207,319,305,267,289,160,227,141,0,
2,1775671692320,1277,1301,9820,298102,-78190,-48869,0,0,0,406,492,322,443,408,467,565,507,340,238,228,364,0,
1,1775671692336,-6149,3220,10284,-6168517,-356745,-1010371,0,0,0,230,308,241,256,215,315,306,270,287,158,228,138,0,
2,1775671692336,1196,1253,9815,290771,-102625,-58643,0,0,0,413,492,320,451,412,474,564,495,341,240,221,377,0,
1,1775671692352,-6006,2641,11835,-6404311,-758694,-1287703,0,0,0,229,302,243,258,209,320,308,268,290,162,227,141,0,
2,1775671692352,1091,1215,9801,291993,-95294,-58643,0,0,0,420,493,322,454,417,478,570,489,351,244,213,395,0,
1,1775671692368,-6221,2282,13826,-6693861,-962723,-1674992,0,0,0,229,303,238,259,208,315,313,269,287,160,224,138,0,
2,1775671692368,1072,1182,9844,304210,-72082,-52534,0,0,0,430,502,330,455,420,484,567,477,357,241,199,407,0,
1,1775671692384,-7264,1593,15979,-6967528,-1156978,-2015855,0,0,0,230,304,235,260,213,311,311,268,286,160,226,135,0,
2,1775671692384,1119,1153,9949,333532,-54977,-48869,0,0,0,434,505,329,461,429,495,567,465,354,243,194,421,0,
1,1775671692400,-8255,559,18530,-7083593,-1475850,-2217440,0,0,0,230,303,240,260,209,314,313,269,287,158,224,136,0,
2,1775671692400,1186,1134,10050,394618,-45204,-56199,0,0,0,447,514,341,467,435,501,564,443,355,261,192,446,0,
1,1775671692416,-8844,-473,21890,-6968750,-1778839,-2298075,0,0,0,230,303,240,260,207,314,316,271,288,157,222,131,0,
2,1775671692416,1249,1091,10107,466701,-39095,-72082,0,0,0,457,521,344,471,445,509,562,422,366,250,181,466,0,
1,1775671692432,-9595,-1746,26240,-6802595,-1924225,-2461786,0,0,0,230,301,240,260,207,313,316,267,287,157,218,130,0,
2,1775671692432,1340,985,10174,543670,-29321,-100181,0,0,0,470,529,345,474,453,508,556,391,375,251,171,488,0,
1,1775671692448,-10902,-4460,30035,-6699969,-1981646,-2827084,0,0,0,235,300,240,268,206,313,329,266,285,162,216,129,0,
2,1775671692448,1454,880,10251,624304,-3665,-147829,0,0,0,479,533,346,486,471,522,549,359,385,255,170,511,0,
1,1775671692464,-11447,-9987,32878,-6635218,-2560747,-3176499,0,0,0,239,303,235,275,206,311,339,267,285,179,215,131,0,
2,1775671692464,1579,808,10390,711047,34208,-212581,0,0,0,487,540,342,492,481,529,535,319,384,264,169,539,0,
1,1775671692480,-9112,-19004,33807,-6494719,-3341432,-3139847,0,0,0,235,307,231,270,209,312,320,263,290,190,212,138,0,
2,1775671692480,1679,770,10892,838107,91629,-271224,0,0,0,498,547,338,497,487,528,517,281,387,277,176,562,0,
1,1775671692496,-4556,-30868,28963,-5940053,-3139847,-2373822,0,0,0,236,307,238,275,208,319,318,260,292,166,217,129,0,
2,1775671692496,1890,713,11576,1034805,124616,-324980,0,0,0,504,552,328,506,497,533,491,255,393,282,176,577,0,
1,1775671692512,938,-42177,20780,-4808731,-2641381,-800233,0,0,0,239,307,231,279,211,319,320,263,292,166,220,126,0,
2,1775671692512,1574,703,12428,1401324,69638,-373849,0,0,0,505,553,311,510,508,539,459,239,396,280,178,589,0,
1,1775671692528,9987,-48628,15008,-2943148,-1773952,1477072,0,0,0,242,311,228,276,212,311,321,268,291,172,227,125,0,
2,1775671692528,1186,646,13127,1870469,37873,-378736,0,0,0,511,555,292,517,526,547,420,228,399,274,179,596,0,
1,1775671692544,15898,-48724,14103,-1067792,-175929,2855184,0,0,0,238,297,223,284,209,304,337,302,281,183,267,121,0,
2,1775671692544,1488,588,14027,2410474,83077,-373849,0,0,0,521,557,270,520,540,555,380,225,404,270,179,600,0,
1,1775671692560,11849,-38324,17090,863763,2039068,2867401,0,0,0,232,278,181,275,199,269,404,384,258,242,343,94,0,
2,1775671692560,2345,655,15156,3062878,-8552,-452040,0,0,0,526,556,253,509,540,553,339,221,403,272,182,608,0,
1,1775671692576,-2488,-3670,18487,2731789,4190535,1745852,0,0,0,227,258,154,266,181,252,442,436,252,297,394,87,0,
2,1775671692576,2799,670,15994,3732386,-178372,-583987,0,0,0,530,557,248,500,539,545,303,202,395,270,180,609,0,
1,1775671692592,-9719,17310,13395,3953519,5059185,511905,0,0,0,240,254,146,282,173,252,462,461,272,346,418,83,0,
2,1775671692592,3177,780,16898,4489859,-337197,-751364,0,0,0,526,554,250,494,532,545,288,183,397,263,173,596,0,
1,1775671692608,-2455,6810,13984,5412266,3301115,-309097,0,0,0,248,254,149,293,170,266,472,473,286,384,429,86,0,
2,1775671692608,4245,957,19042,5407379,-412944,-1005484,0,0,0,516,537,250,491,513,536,279,159,393,249,159,558,0,
1,1775671692624,5532,-4307,21856,5966931,671951,-185703,0,0,0,253,263,164,303,179,283,480,480,286,407,433,92,0,
2,1775671692624,4915,1186,22656,6398202,-434936,-1302364,0,0,0,495,513,242,484,492,545,279,159,390,232,147,485,0,
1,1775671692640,2814,-3680,24943,4647462,-518013,701273,0,0,0,261,278,205,318,195,320,490,489,307,417,438,117,0,
2,1775671692640,5666,1584,27183,7434229,-353080,-1554041,0,0,0,422,494,218,459,472,507,276,165,380,214,138,420,0,
1,1775671692656,-4618,-536,17712,2553416,-197920,616973,0,0,0,274,292,242,339,210,358,504,497,332,417,449,169,0,
2,1775671692656,6278,1981,30600,8306545,186924,-1788613,0,0,0,358,467,206,424,436,464,293,178,350,186,125,360,0,
1,1775671692672,-5159,-62,10748,1197295,125838,-109955,0,0,0,293,304,255,358,218,372,523,501,338,419,461,220,0,
2,1775671692672,6494,2876,32175,8995601,905302,-2089159,0,0,0,298,441,217,369,396,416,301,229,298,140,110,273,0,
1,1775671692688,-2282,-564,9274,596204,125838,-312763,0,0,0,315,313,265,365,218,378,517,499,344,428,463,257,0,
2,1775671692688,8092,5757,29317,9320581,1685988,-2591290,0,0,0,268,430,229,342,378,391,312,266,283,115,107,217,0,
1,1775671692704,-1722,-239,10088,257785,101403,-141720,0,0,0,328,317,281,370,217,389,491,492,352,435,456,292,0,
2,1775671692704,9313,9581,21483,9162978,1971872,-3310889,0,0,0,262,431,234,334,376,392,316,293,285,113,115,205,0,
1,1775671692720,-2531,540,10538,97738,131946,13439,0,0,0,330,323,280,381,225,400,546,498,349,444,449,313,0,
2,1775671692720,7183,11969,14213,8249124,950506,-4133114,0,0,0,259,434,235,336,379,395,320,303,288,113,116,205,0,
1,1775671692736,-2727,894,10122,111177,167377,18325,0,0,0,337,327,277,387,235,405,552,498,350,439,446,334,0,
2,1775671692736,1732,18219,11308,4376238,-1343903,-3511253,0,0,0,257,436,234,337,381,391,321,303,288,112,114,203,0,
1,1775671692752,-2254,837,9978,208915,131946,12217,0,0,0,347,322,278,387,235,405,553,487,352,446,438,339,0,
2,1775671692752,1698,21483,9246,-1165530,-2608394,-1431868,0,0,0,257,438,232,338,381,386,322,303,281,114,115,202,0,
1,1775671692768,-2053,756,10174,291993,21991,28099,0,0,0,336,330,282,381,248,414,554,474,365,436,422,358,0,
2,1775671692768,4857,15472,8719,-4834387,-2491108,199142,0,0,0,258,439,230,339,380,384,324,304,275,114,116,202,0,
1,1775671692784,-2234,832,10342,360410,-86742,53756,0,0,0,339,335,277,385,250,411,548,450,362,424,400,362,0,
2,1775671692784,7183,7111,7427,-6459289,-1919338,758694,0,0,0,259,440,232,340,381,385,322,303,274,112,114,201,0,
1,1775671692800,-2249,947,10906,373849,-117286,74525,0,0,0,339,336,273,391,253,411,548,427,362,416,388,372,0,
2,1775671692800,7173,3594,5441,-5949827,-1375668,85521,0,0,0,258,443,235,340,384,386,318,302,272,113,114,200,0,
1,1775671692816,-2191,866,10710,383623,-140499,79412,0,0,0,340,337,271,395,263,412,546,417,365,412,393,386,0,
2,1775671692816,6762,3417,4714,-5637064,-840550,-586430,0,0,0,259,442,235,345,387,389,326,307,273,117,119,202,0,
1,1775671692832,-2263,588,9791,453262,-208915,69638,0,0,0,345,338,268,403,269,422,544,405,365,401,367,386,0,
2,1775671692832,6298,3598,5642,-5727472,-274889,-857654,0,0,0,256,442,234,343,385,389,328,312,276,116,118,199,0,
1,1775671692848,-2388,368,9274,472809,-229685,68416,0,0,0,342,338,262,406,273,427,539,390,367,390,344,389,0,
2,1775671692848,5312,4034,7566,-5977927,315206,-685390,0,0,0,259,442,234,343,385,388,327,312,276,117,118,200,0,
1,1775671692864,-2464,339,9389,415388,-169820,83077,0,0,0,338,340,261,406,272,423,535,375,369,382,332,401,0,
2,1775671692864,4962,4398,9035,-6224716,750142,-200363,0,0,0,259,442,234,346,392,391,325,312,276,117,118,200,0,
1,1775671692880,-2469,344,9514,362853,-103847,101403,0,0,0,341,344,264,406,271,421,534,362,367,377,321,411,0,
2,1775671692880,5532,4278,10184,-6467841,1176526,467922,0,0,0,260,443,238,345,389,392,327,313,275,116,118,200,0,
1,1775671692896,-2392,320,9538,334754,-67195,109955,0,0,0,344,347,265,408,276,431,534,353,371,379,314,416,0,
2,1775671692896,5886,3632,11859,-6626666,1701870,1138652,0,0,0,261,444,239,343,385,392,328,314,276,117,119,201,0,
1,1775671692912,-2301,272,9566,305432,-45204,109955,0,0,0,343,344,269,409,275,443,536,346,379,377,309,421,0,
2,1775671692912,5685,3158,13869,-6671870,2051285,1609019,0,0,0,258,443,238,344,386,392,332,316,280,117,120,202,0,
1,1775671692928,-2249,253,9657,285884,-37873,100181,0,0,0,340,344,271,409,266,432,538,330,372,369,296,423,0,
2,1775671692928,5494,3096,16324,-6728069,2216219,1877799,0,0,0,258,444,239,347,388,395,332,315,281,116,120,201,0,
1,1775671692944,-2230,239,9758,293215,-46425,92851,0,0,0,340,349,273,410,275,442,530,318,374,346,278,437,0,
2,1775671692944,5699,3043,20100,-6989520,2345722,1918116,0,0,0,258,445,240,347,389,397,333,315,282,116,119,201,0,
1,1775671692960,-2278,186,9844,337197,-90408,100181,0,0,0,341,347,265,413,282,446,524,298,382,342,269,449,0,
2,1775671692960,6063,2546,24177,-7269296,2436130,1821600,0,0,0,256,444,239,349,390,397,335,313,284,116,117,200,0,
1,1775671692976,-2407,129,9853,401949,-163711,138055,0,0,0,337,360,257,420,305,457,520,287,385,337,268,463,0,
2,1775671692976,6776,1287,29308,-7406130,2499660,1764178,0,0,0,256,444,239,349,388,397,336,312,285,117,118,200,0,
1,1775671692992,-2474,62,9801,469144,-226020,185703,0,0,0,347,367,264,430,320,474,521,282,405,322,254,479,0,
2,1775671692992,7408,-1842,33787,-7401243,2678033,1883908,0,0,0,256,445,238,348,386,396,339,310,286,118,119,202,0,
1,1775671693008,-2517,0,9748,521678,-259006,228463,0,0,0,350,371,261,434,324,484,516,265,407,311,234,492,0,
2,1775671693008,5800,-9054,35812,-7247305,3307224,2230879,0,0,0,256,445,235,352,388,400,345,306,292,126,127,201,0,
1,1775671693024,-2689,-23,9978,585208,-263893,276111,0,0,0,355,381,263,442,334,502,509,247,412,297,210,511,0,
2,1775671693024,842,-22507,36463,-6644992,3587000,2614503,0,0,0,258,445,232,358,390,404,347,297,297,159,169,205,0,
1,1775671693040,-2928,-86,10323,701273,-234572,335975,0,0,0,366,380,252,443,342,508,495,235,420,284,190,533,0,
2,1775671693040,-646,-37506,31059,-5408600,2433687,2373822,0,0,0,258,444,231,359,392,404,347,299,300,163,177,208,0,
1,1775671693056,-2952,-201,10763,872315,-190589,397062,0,0,0,372,384,247,450,350,516,482,221,419,277,181,554,0,
2,1775671693056,-856,-49619,19344,-3172834,1510058,387288,0,0,0,260,445,234,360,392,406,346,298,298,161,176,206,0,
1,1775671693072,-2727,-234,11538,1114218,-175929,444709,0,0,0,390,391,240,465,362,525,467,214,425,273,176,568,0,
2,1775671693072,-7762,-52438,14745,-1161865,1444085,-1903456,0,0,0,258,445,234,358,389,402,343,297,295,167,186,206,0,
1,1775671693088,-2220,-268,12270,1437976,-234572,433714,0,0,0,402,398,232,477,371,536,439,205,443,265,168,576,0,
2,1775671693088,-15668,-46915,17343,452040,618195,-2962696,0,0,0,250,435,230,351,389,397,383,421,289,138,182,188,0,
1,1775671693104,-1947,-411,12720,1814269,-368962,382401,0,0,0,392,405,229,479,374,545,400,190,457,251,158,579,0,
2,1775671693104,-11351,-19645,23388,2206445,-1898569,-1942551,0,0,0,242,390,192,347,366,371,439,469,270,172,245,182,0,
1,1775671693120,-2713,-536,13146,2236988,-525344,354301,0,0,0,392,413,217,475,389,549,360,188,456,249,157,575,0,
2,1775671693120,871,14888,19827,3307224,-4277278,-256563,0,0,0,251,376,182,347,351,374,476,487,277,183,272,181,0,
1,1775671693136,-3910,-540,13831,2783102,-515570,497244,0,0,0,393,424,209,480,418,549,324,183,461,258,167,570,0,
2,1775671693136,6231,20038,9657,4227187,-4778187,963945,0,0,0,262,381,197,355,345,387,505,506,292,199,315,183,0,
1,1775671693152,-4728,-449,14807,3479488,-395840,744033,0,0,0,399,410,210,459,427,542,278,169,451,231,149,568,0,
2,1775671693152,-2569,885,15477,5773898,-2449569,966388,0,0,0,266,394,224,369,354,403,520,520,301,214,333,192,0,
1,1775671693168,-5790,-229,16448,4282165,-295658,1093448,0,0,0,395,416,221,459,392,552,252,156,458,219,136,547,0,
2,1775671693168,-6609,-5790,26719,5539325,-679282,169820,0,0,0,279,418,262,380,369,415,531,531,307,220,324,210,0,
1,1775671693184,-7173,-62,19487,5159367,-287106,1513724,0,0,0,401,399,208,439,389,502,221,141,443,192,123,493,0,
2,1775671693184,-555,-1167,23905,3193603,-317649,-284663,0,0,0,298,446,292,399,387,430,544,543,313,225,308,244,0,
1,1775671693200,-9394,43,23890,6118426,-295658,1970651,0,0,0,388,394,196,413,374,482,197,140,429,171,118,406,0,
2,1775671693200,3134,1966,13749,1281595,-199142,35430,0,0,0,318,463,307,417,397,444,555,557,316,271,336,274,0,
1,1775671693216,-11304,210,27451,6934542,-142942,2417804,0,0,0,326,360,195,366,332,435,188,151,374,150,116,327,0,
2,1775671693216,1990,890,7872,587652,-59864,362853,0,0,0,342,470,320,420,395,447,566,571,317,330,393,282,0,
1,1775671693232,-11227,454,29973,7745771,199142,2973691,0,0,0,271,336,208,318,277,388,210,179,331,133,128,247,0,
2,1775671693232,1110,67,9538,372627,-183259,196698,0,0,0,355,476,328,420,396,448,574,578,322,324,386,290,0,
1,1775671693248,-10882,2077,30370,8295549,399505,3374419,0,0,0,241,302,205,269,220,314,267,226,292,136,170,161,0,
2,1775671693248,1186,813,10792,151494,-372627,42760,0,0,0,362,479,331,424,400,456,586,584,326,326,382,294,0,
1,1775671693264,-11768,6393,26269,8557000,487470,3637091,0,0,0,234,288,207,254,200,287,301,253,282,149,206,127,0,
2,1775671693264,1067,1550,10509,4886,-354301,12217,0,0,0,370,478,336,423,400,458,582,580,322,319,369,297,0,
1,1775671693280,-12093,12653,15869,8126951,669508,3909537,0,0,0,235,294,218,261,207,299,305,259,289,157,221,132,0,
2,1775671693280,1033,1770,10189,-12217,-212581,10995,0,0,0,376,478,339,423,396,457,582,582,336,257,310,306,0,
1,1775671693296,-10098,15826,10873,5848423,801455,3732386,0,0,0,231,299,227,260,210,305,301,261,287,155,224,135,0,
2,1775671693296,1105,1708,10241,68416,-116064,-1221,0,0,0,381,480,340,427,399,461,578,579,334,246,294,312,0,
1,1775671693312,-6082,18726,10203,1667662,748920,2317622,0,0,0,227,303,232,255,210,309,296,261,283,152,223,136,0,
2,1775671693312,1009,1718,10332,162490,-62308,-26878,0,0,0,383,484,337,427,400,458,575,574,333,244,283,311,0,
1,1775671693328,-2948,17516,10256,-2499660,1134987,52534,0,0,0,226,305,235,255,210,310,300,264,286,157,227,139,0,
2,1775671693328,947,1780,10241,243124,26878,-42760,0,0,0,383,482,333,431,404,464,572,565,341,241,271,310,0,
1,1775671693344,-4422,11127,7537,-4393342,1848478,-1455080,0,0,0,224,302,249,252,205,320,305,266,296,156,227,145,0,
2,1775671693344,1009,1794,10078,326202,122173,-45204,0,0,0,383,484,332,430,403,466,567,556,339,236,262,314,0,
1,1775671693360,-7255,6743,4785,-4602258,1478293,-1381777,0,0,0,225,306,236,254,209,313,307,267,289,156,229,138,0,
2,1775671693360,1158,1675,9935,399505,144164,-29321,0,0,0,387,488,335,430,403,467,564,544,339,234,253,320,0,
1,1775671693376,-7619,5317,4111,-4651127,502131,-745255,0,0,0,230,307,238,254,211,315,312,270,291,157,228,142,0,
2,1775671693376,1296,1502,9834,430049,101403,-14660,0,0,0,387,488,332,434,406,470,564,530,341,233,242,326,0,
1,1775671693392,-5283,5441,5551,-5034751,-252898,-191811,0,0,0,226,307,238,257,211,316,309,269,291,157,226,139,0,
2,1775671693392,1392,1421,9777,423940,23212,-15882,0,0,0,391,490,332,438,411,474,559,515,344,237,230,337,0,
1,1775671693408,-3704,5226,7437,-5578421,-226020,-136833,0,0,0,226,315,242,254,216,318,308,271,291,157,232,139,0,
2,1775671693408,1440,1363,9772,411723,-73303,-26878,0,0,0,405,494,336,439,411,474,558,499,346,240,215,353,0,
1,1775671693424,-3632,4627,8911,-6002361,-201585,-272445,0,0,0,226,315,243,254,217,319,307,273,290,158,236,139,0,
2,1775671693424,1368,1340,9839,417831,-144164,-41538,0,0,0,419,499,338,439,410,473,560,481,345,239,204,366,0,
1,1775671693440,-4134,3991,10189,-6285803,-452040,-491135,0,0,0,223,317,243,254,217,319,308,273,291,159,234,138,0,
2,1775671693440,1244,1301,9906,434936,-178372,-56199,0,0,0,429,507,343,448,419,483,552,467,352,243,201,383,0,
1,1775671693456,-4350,3488,11830,-6541144,-893084,-770911,0,0,0,224,314,242,254,216,319,309,271,292,158,235,138,0,
2,1775671693456,1100,1225,9920,455705,-162490,-67195,0,0,0,434,508,343,456,424,494,556,443,354,239,188,397,0,
1,1775671693472,-4632,2943,13606,-6757391,-1243721,-1025031,0,0,0,226,314,243,256,217,319,308,271,290,158,235,136,0,
2,1775671693472,1019,1115,9911,472809,-114842,-69638,0,0,0,448,514,346,460,437,493,556,429,357,236,173,410,0,
1,1775671693488,-5197,2234,15716,-6889338,-1536936,-1177748,0,0,0,226,314,243,257,218,319,310,273,291,158,235,135,0,
2,1775671693488,1095,1019,9935,500909,-72082,-69638,0,0,0,451,517,348,456,430,497,550,408,365,238,172,430,0,
1,1775671693504,-5776,1435,18372,-6969972,-1842369,-1255938,0,0,0,222,309,246,255,216,322,313,273,295,159,234,136,0,
2,1775671693504,1234,961,9983,542448,-57421,-81855,0,0,0,463,529,348,460,438,507,548,389,371,246,173,455,0,
1,1775671693520,-6097,598,21684,-7039611,-2102598,-1345125,0,0,0,223,307,250,255,214,323,314,271,294,159,231,136,0,
2,1775671693520,1344,875,10021,585208,-57421,-112399,0,0,0,467,526,344,465,449,511,542,363,371,260,172,473,0,
1,1775671693536,-6484,-268,25613,-7114136,-2153910,-1676214,0,0,0,228,306,247,258,213,320,320,271,291,158,228,134,0,
2,1775671693536,1411,794,10088,621860,-41538,-156381,0,0,0,478,534,350,470,457,516,535,336,374,257,166,498,0,
1,1775671693552,-7590,-2129,29633,-7106806,-2096489,-2324953,0,0,0,226,305,247,256,212,319,320,271,294,158,224,134,0,
2,1775671693552,1459,737,10279,673173,-21991,-207694,0,0,0,491,540,367,477,469,517,524,305,375,255,161,521,0,
1,1775671693568,-8848,-7193,32438,-6893003,-2500882,-3242472,0,0,0,224,305,242,262,215,320,318,273,296,161,227,133,0,
2,1775671693568,1454,641,10638,785572,-29321,-255341,0,0,0,498,545,359,484,475,521,517,282,381,262,166,545,0,
1,1775671693584,-8432,-16018,33969,-6502049,-3208264,-3896098,0,0,0,227,306,252,270,215,328,316,271,304,164,226,133,0,
2,1775671693584,1330,579,11016,940732,-47647,-279776,0,0,0,502,548,347,491,485,531,505,263,388,274,174,562,0,
1,1775671693600,-6226,-27829,31581,-5885075,-3193603,-3749490,0,0,0,226,316,243,270,224,321,317,268,302,166,231,131,0,
2,1775671693600,1378,579,11490,1182635,-62308,-288328,0,0,0,506,551,336,503,501,539,480,241,391,279,175,572,0,
1,1775671693616,-2761,-40832,22924,-4649906,-2447126,-2287079,0,0,0,232,317,252,277,219,324,325,266,302,173,224,131,0,
2,1775671693616,1292,612,12256,1489289,-37873,-301767,0,0,0,513,557,320,514,513,544,447,227,390,277,174,583,0,
1,1775671693632,4929,-49121,15281,-2926044,-2007303,-64751,0,0,0,233,316,248,277,218,325,321,265,302,174,227,129,0,
2,1775671693632,1009,488,13003,1896125,-12217,-288328,0,0,0,518,560,298,516,515,550,411,224,389,278,174,593,0,
1,1775671693648,14189,-50365,13309,-1099557,-1044579,1715309,0,0,0,228,305,238,271,210,319,333,267,298,189,246,130,0,
2,1775671693648,1244,224,13697,2456899,-2443,-255341,0,0,0,522,557,276,506,512,552,368,219,393,276,175,603,0,
1,1775671693664,13041,-43436,15443,766025,1047023,2054950,0,0,0,222,292,221,269,206,297,378,338,281,233,321,105,0,
2,1775671693664,2033,296,14596,2963918,-35430,-290771,0,0,0,525,560,261,498,521,545,324,219,402,270,173,609,0,
1,1775671693680,2876,-18865,20023,2601064,2856405,1503950,0,0,0,227,267,179,271,189,263,425,409,270,278,383,91,0,
2,1775671693680,2881,392,15587,3608991,-250454,-454483,0,0,0,523,556,248,506,533,542,285,212,402,274,184,607,0,
1,1775671693696,-8413,19028,15807,3960850,4108679,389732,0,0,0,237,252,155,275,175,253,456,453,266,331,414,85,0,
2,1775671693696,3287,354,16424,4268726,-492357,-641408,0,0,0,526,555,247,495,528,547,267,193,394,263,169,597,0,
1,1775671693712,-5608,15931,11284,5133711,3656639,-256563,0,0,0,240,252,170,284,171,276,474,473,281,380,427,87,0,
2,1775671693712,4149,296,18052,5071403,-660956,-884532,0,0,0,524,550,246,481,516,539,259,166,387,256,172,572,0,
1,1775671693728,2718,-344,19880,6115982,1340238,-151494,0,0,0,248,264,200,298,179,303,485,485,302,411,436,104,0,
2,1775671693728,4809,363,21732,6029239,-745255,-1205847,0,0,0,507,543,251,473,514,533,263,164,387,229,151,499,0,
1,1775671693744,3455,-6623,27896,5174028,-499687,569326,0,0,0,265,291,233,315,199,336,493,494,316,428,444,141,0,
2,1775671693744,5460,732,26484,6977302,-790459,-1459967,0,0,0,435,523,225,454,502,493,273,169,369,212,143,420,0,
1,1775671693760,-4288,-2172,22105,2596177,-312763,684169,0,0,0,286,312,260,340,219,374,506,506,336,440,454,195,0,
2,1775671693760,7217,1861,29619,7842287,-605978,-1679879,0,0,0,368,491,210,418,465,459,285,180,341,188,137,371,0,
1,1775671693776,-4771,665,11337,987158,116064,-114842,0,0,0,330,308,265,368,229,376,526,525,340,442,460,239,0,
2,1775671693776,9380,2723,30279,8763472,246789,-2133141,0,0,0,305,454,217,368,411,416,297,222,301,148,117,289,0,
1,1775671693792,-2311,224,7743,546113,111177,-370184,0,0,0,322,323,264,369,229,382,542,535,337,448,458,267,0,
2,1775671693792,9791,3608,30150,9331577,1336573,-2773328,0,0,0,272,432,229,339,374,386,314,258,283,122,103,227,0,
1,1775671693808,-1847,-234,9681,333532,100181,-156381,0,0,0,335,325,281,376,231,390,547,525,343,458,462,299,0,
2,1775671693808,9327,8202,22995,9016370,1350012,-3698178,0,0,0,275,430,235,335,366,381,323,282,280,115,107,207,0,
1,1775671693824,-2474,488,10854,151494,162490,-2443,0,0,0,340,328,277,385,232,405,549,521,354,465,450,323,0,
2,1775671693824,10040,9983,16109,8285776,274889,-4516737,0,0,0,286,433,236,338,368,384,323,300,275,115,112,202,0,
1,1775671693840,-2651,1215,11423,109955,246789,18325,0,0,0,345,338,278,386,246,403,551,515,350,466,443,342,0,
2,1775671693840,8068,13218,12309,6610783,-460592,-4629136,0,0,0,285,435,234,339,370,383,322,303,272,117,111,201,0,
1,1775671693856,-2120,1210,12151,185703,260228,18325,0,0,0,355,344,289,386,255,403,549,489,351,458,428,350,0,
2,1775671693856,2177,20234,8695,1941329,-663399,-2265088,0,0,0,281,438,234,338,372,383,321,303,269,117,112,204,0,
1,1775671693872,-1837,1028,11069,313984,125838,30543,0,0,0,359,349,291,387,265,410,550,472,352,453,412,365,0,
2,1775671693872,1038,19277,7709,-3237585,-1464854,1083674,0,0,0,279,438,238,338,372,384,323,303,275,120,111,206,0,
1,1775671693888,-1899,995,10155,386066,-30543,45204,0,0,0,357,352,304,389,272,418,552,456,355,444,394,373,0,
2,1775671693888,6336,10562,7456,-5682268,-2013411,2623055,0,0,0,278,438,234,341,372,384,326,302,275,119,113,207,0,
1,1775671693904,-1981,995,9987,433714,-164933,57421,0,0,0,353,357,294,392,277,418,550,436,363,433,376,382,0,
2,1775671693904,10299,4613,6355,-6273586,-1448972,2193006,0,0,0,277,439,237,341,375,387,326,302,279,118,113,207,0,
1,1775671693920,-2062,923,10059,466701,-234572,61086,0,0,0,350,363,276,396,283,419,542,417,369,416,363,390,0,
2,1775671693920,9260,3900,5728,-6162408,-90408,718377,0,0,0,271,439,237,341,376,390,326,306,279,120,119,209,0,
1,1775671693936,-2163,737,9777,478918,-246789,67195,0,0,0,350,364,278,398,288,426,536,394,371,399,349,396,0,
2,1775671693936,5814,4063,7025,-6302907,542448,-130725,0,0,0,263,439,237,341,378,391,327,307,280,120,116,210,0,
1,1775671693952,-2254,593,9542,461814,-221133,81855,0,0,0,351,363,272,397,283,427,531,369,375,394,330,405,0,
2,1775671693952,3886,3350,8466,-6416528,621860,-478918,0,0,0,265,441,239,341,377,389,327,307,278,118,116,208,0,
1,1775671693968,-2297,531,9514,422718,-169820,98960,0,0,0,353,361,275,400,275,432,528,361,378,394,317,412,0,
2,1775671693968,3632,3402,9609,-6525262,817337,-426383,0,0,0,266,442,241,343,380,391,327,306,277,118,115,206,0,
1,1775671693984,-2316,483,9514,388510,-114842,112399,0,0,0,352,360,274,405,274,435,528,338,385,390,309,413,0,
2,1775671693984,3383,4158,10988,-6715852,1264491,-158824,0,0,0,265,443,242,341,380,389,323,306,275,120,116,204,0,
1,1775671694000,-2287,430,9518,364075,-57421,124616,0,0,0,350,360,267,410,273,429,521,316,374,374,297,413,0,
2,1775671694000,3172,4608,12639,-6903998,1723861,350636,0,0,0,263,444,243,340,380,388,326,309,276,118,116,203,0,
1,1775671694016,-2177,406,9552,351858,-25656,127059,0,0,0,354,360,267,410,273,429,527,308,374,364,281,413,0,
2,1775671694016,3321,4134,14773,-6955311,2076941,1020144,0,0,0,262,445,244,340,380,389,330,311,276,116,116,204,0,
1,1775671694032,-2038,387,9614,338419,-18325,125838,0,0,0,361,368,275,409,282,436,515,296,375,356,272,426,0,
2,1775671694032,3426,3780,17372,-7005402,2299296,1528384,0,0,0,262,447,244,340,381,388,331,312,275,118,119,205,0,
1,1775671694048,-2005,335,9724,332310,-46425,116064,0,0,0,358,376,267,416,300,443,514,288,386,347,267,438,0,
2,1775671694048,3728,3488,20540,-7228979,2379930,1797165,0,0,0,262,446,243,341,381,387,335,313,276,119,120,205,0,
1,1775671694064,-2129,287,9868,351858,-95294,122173,0,0,0,354,382,258,419,317,447,508,273,387,333,254,449,0,
2,1775671694064,4426,2756,24010,-7441560,2436130,1924225,0,0,0,262,445,243,345,383,388,337,311,276,121,119,203,0,
1,1775671694080,-2349,248,9954,408057,-134390,166155,0,0,0,359,386,263,424,326,455,501,258,387,327,243,469,0,
2,1775671694080,5269,1923,27987,-7479433,2495995,1964542,0,0,0,262,448,243,345,383,388,338,311,274,120,118,200,0,
1,1775671694096,-2550,191,9935,471587,-142942,228463,0,0,0,366,391,264,436,329,467,494,250,391,319,233,480,0,
2,1775671694096,6149,57,33495,-7447668,2508212,2202780,0,0,0,261,448,242,346,381,389,338,306,281,119,116,202,0,
1,1775671694112,-2632,114,9911,537561,-114842,298102,0,0,0,376,397,264,444,331,473,494,253,402,356,227,483,0,
2,1775671694112,6585,-5264,36549,-7397578,2706133,2607172,0,0,0,259,444,241,350,382,398,341,301,295,121,115,206,0,
1,1775671694128,-2474,33,10117,631634,-89186,365297,0,0,0,389,413,269,441,340,481,496,249,411,355,219,503,0,
2,1775671694128,4651,-16611,37142,-6983411,3274237,2894279,0,0,0,262,445,241,354,384,398,348,301,291,121,113,206,0,
1,1775671694144,-2373,-43,10423,751364,-69638,414166,0,0,0,396,432,264,446,371,497,485,231,415,291,207,533,0,
2,1775671694144,378,-33036,31935,-5654168,2971248,2607172,0,0,0,268,448,241,358,386,404,349,301,293,122,114,206,0,
1,1775671694160,-2254,-110,10839,905302,-47647,436157,0,0,0,402,444,254,457,404,509,467,220,424,294,210,549,0,
2,1775671694160,-2206,-47657,22469,-3810577,2119702,1528384,0,0,0,269,448,241,359,387,404,353,306,296,122,113,206,0,
1,1775671694176,-2062,-134,11457,1123992,-40317,421497,0,0,0,413,456,257,459,408,522,453,215,438,291,206,556,0,
2,1775671694176,-7288,-52677,16329,-1769065,1521054,-607200,0,0,0,263,441,228,354,384,399,358,327,294,127,125,209,0,
1,1775671694192,-1943,-201,11950,1407433,-69638,382401,0,0,0,416,442,244,456,419,529,427,212,448,282,194,566,0,
2,1775671694192,-12869,-47748,16678,130725,377514,-2415361,0,0,0,247,427,223,350,380,394,380,408,283,136,170,200,0,
1,1775671694208,-1636,-430,12352,1777617,-183259,323758,0,0,0,421,449,234,458,423,547,394,203,456,271,188,568,0,
2,1775671694208,-12663,-29016,23192,1887573,-1909564,-2349387,0,0,0,240,386,194,342,364,377,432,459,271,157,226,185,0,
1,1775671694224,-1995,-464,13084,2178345,-317649,268780,0,0,0,409,437,218,462,403,548,353,190,451,267,178,581,0,
2,1775671694224,-861,2928,19593,3503923,-4724431,-643851,0,0,0,248,360,178,338,344,370,479,482,276,186,281,181,0,
1,1775671694240,-3335,-349,14065,2670702,-357967,334754,0,0,0,415,435,215,468,406,548,291,180,443,240,150,579,0,
2,1775671694240,6125,13677,11418,4630358,-5384166,943175,0,0,0,260,366,184,347,336,383,501,502,292,201,311,186,0,
1,1775671694256,-4623,-282,15209,3390302,-251676,608421,0,0,0,410,441,241,448,411,556,224,165,452,220,143,563,0,
2,1775671694256,-1105,1129,14558,5645616,-2983465,1567480,0,0,0,267,379,190,363,342,395,517,517,306,205,316,196,0,
1,1775671694272,-5680,-191,16697,4161214,-127059,967610,0,0,0,415,426,234,442,401,535,208,152,458,204,128,550,0,
2,1775671694272,-7676,-3034,24264,5544212,-962723,629191,0,0,0,271,393,213,374,352,406,531,530,318,214,317,214,0,
1,1775671694288,-6666,-181,19731,5035973,-61086,1407433,0,0,0,409,420,218,428,388,504,206,146,435,193,123,502,0,
2,1775671694288,-2952,-47,24627,4134335,-244346,-579100,0,0,0,277,409,248,383,363,423,543,542,325,220,313,236,0,
1,1775671694304,-8997,-315,24972,6123313,9773,1875356,0,0,0,388,399,206,403,367,482,188,155,402,175,125,431,0,
2,1775671694304,2364,1268,16592,2521651,-302989,-257785,0,0,0,293,443,278,405,387,444,555,555,332,219,304,272,0,
1,1775671694320,-11399,626,27910,7007846,282219,2392148,0,0,0,336,368,202,362,331,440,180,168,361,147,120,339,0,
2,1775671694320,2526,138,10294,1072679,-194255,288328,0,0,0,312,460,292,415,398,452,564,565,335,205,292,300,0,
1,1775671694336,-11873,2244,30212,7808079,659734,2981022,0,0,0,274,341,197,315,288,376,203,195,320,133,137,250,0,
2,1775671694336,703,-492,10145,477696,-164933,244346,0,0,0,339,466,303,426,404,460,570,571,341,276,333,329,0,
1,1775671694352,-10265,4383,31002,8426275,1136209,3444058,0,0,0,248,304,205,279,237,324,252,238,291,141,186,179,0,
2,1775671694352,512,268,10600,210137,-256563,61086,0,0,0,367,482,313,427,404,460,577,577,345,251,299,345,0,
1,1775671694368,-11294,5489,26159,8967501,1662775,3567452,0,0,0,253,270,236,259,185,297,305,255,285,151,211,129,0,
2,1775671694368,856,1186,10495,123394,-301767,-19547,0,0,0,368,482,312,429,406,462,577,577,339,259,321,359,0,
1,1775671694384,-13740,9370,16941,8635191,1403768,3633426,0,0,0,246,285,230,264,193,303,308,261,289,157,220,131,0,
2,1775671694384,961,1421,10236,109955,-208915,4886,0,0,0,385,490,320,434,410,469,577,578,334,257,296,370,0,
1,1775671694400,-11581,14692,10701,6115982,373849,3407406,0,0,0,248,291,229,266,198,306,302,262,283,157,221,129,0,
2,1775671694400,890,1330,10284,173485,-152716,10995,0,0,0,391,490,322,442,412,469,580,580,340,257,284,380,0,
1,1775671694416,-4106,18233,11127,1020144,481361,1505171,0,0,0,247,298,226,256,199,299,301,267,283,157,226,133,0,
2,1775671694416,722,1359,10370,270002,-128281,-8552,0,0,0,396,492,323,445,413,470,579,573,335,256,272,387,0,
1,1775671694432,-2038,15348,10442,-2907718,1814269,-862541,0,0,0,236,297,246,256,199,312,303,270,291,153,224,141,0,
2,1775671694432,631,1454,10346,362853,-37873,-15882,0,0,0,407,492,319,447,413,473,578,561,336,255,257,394,0,
1,1775671694448,-6580,9035,6025,-3809355,2182010,-1668883,0,0,0,230,304,229,256,205,307,305,267,285,157,228,138,0,
2,1775671694448,689,1402,10251,447153,57421,-10995,0,0,0,416,494,315,448,418,476,574,543,338,253,242,402,0,
1,1775671694464,-9030,5618,2775,-3799581,1174082,-1252273,0,0,0,227,309,227,257,209,307,310,273,284,157,229,136,0,
2,1775671694464,842,1191,10054,508239,108734,-4886,0,0,0,422,499,315,448,424,479,569,524,340,250,230,412,0,
1,1775671694480,-7327,5235,2479,-3806912,-119729,-428827,0,0,0,227,308,239,255,207,311,308,274,286,153,231,138,0,
2,1775671694480,952,985,9877,505796,92851,-4886,0,0,0,426,503,315,453,429,485,566,508,349,248,219,420,0,
1,1775671694496,-4489,5781,4197,-4235739,-356745,-74525,0,0,0,228,309,236,255,210,309,308,274,286,156,233,137,0,
2,1775671694496,1024,899,9830,474031,61086,-12217,0,0,0,427,503,315,458,432,491,566,492,358,246,207,424,0,
1,1775671694512,-4101,5819,5709,-4754975,-151494,-134390,0,0,0,227,307,234,257,213,310,308,276,286,157,236,136,0,
2,1775671694512,1062,866,9873,445931,23212,-23212,0,0,0,433,507,319,455,430,490,565,480,364,245,201,432,0,
1,1775671694528,-5331,5350,7116,-5302310,-434936,-382401,0,0,0,227,306,242,255,210,313,308,276,290,157,237,139,0,
2,1775671694528,1100,789,9901,421497,-15882,-36651,0,0,0,439,511,320,459,434,493,560,463,361,243,193,436,0,
1,1775671694544,-5340,4891,8695,-5765346,-956614,-645073,0,0,0,227,306,245,252,206,313,308,273,289,160,235,141,0,
2,1775671694544,1081,708,9911,399505,-64751,-58643,0,0,0,443,512,321,460,434,492,560,453,361,244,184,444,0,
1,1775671694560,-4852,4201,10447,-6175847,-1260825,-1023810,0,0,0,227,305,243,255,207,312,308,272,287,161,234,139,0,
2,1775671694560,990,660,9911,382401,-87964,-73303,0,0,0,446,513,320,468,441,498,558,432,363,250,186,453,0,
1,1775671694576,-5053,3393,12165,-6481280,-1448972,-1408655,0,0,0,228,306,250,257,207,319,308,271,292,160,235,139,0,
2,1775671694576,942,631,9920,372627,-85521,-81855,0,0,0,453,514,318,470,445,500,555,417,363,245,175,460,0,
1,1775671694592,-5738,2737,14079,-6633996,-1682322,-1690874,0,0,0,228,307,247,256,207,316,310,271,291,161,234,138,0,
2,1775671694592,957,588,9959,372627,-65973,-90408,0,0,0,457,526,319,472,449,501,545,394,367,254,178,479,0,
1,1775671694608,-6436,2292,17238,-6740287,-2009746,-1913229,0,0,0,228,307,243,259,208,315,313,272,291,157,231,137,0,
2,1775671694608,971,540,10035,387288,-43982,-105068,0,0,0,463,528,319,479,455,505,545,373,366,260,178,493,0,
1,1775671694624,-7001,1866,20626,-6873455,-2212553,-2086715,0,0,0,234,307,244,265,210,312,315,269,289,163,232,130,0,
2,1775671694624,1000,512,10117,414166,-19547,-119729,0,0,0,473,532,320,483,464,508,542,354,371,265,176,507,0,
1,1775671694640,-7901,847,24958,-7073819,-2299296,-2333505,0,0,0,237,310,247,276,206,315,319,268,292,166,231,131,0,
2,1775671694640,1095,454,10155,459370,3665,-142942,0,0,0,480,535,320,485,474,511,537,331,379,268,178,520,0,
1,1775671694656,-9581,-1526,29968,-7187440,-2252871,-2744006,0,0,0,237,301,247,270,199,315,316,260,290,165,218,131,0,
2,1775671694656,1134,378,10232,515570,18325,-178372,0,0,0,483,537,317,487,480,520,528,312,382,264,171,530,0,
1,1775671694672,-11284,-5546,33955,-7149566,-2414139,-3292563,0,0,0,241,304,236,284,201,311,319,260,285,169,218,125,0,
2,1775671694672,1158,301,10380,602313,0,-211359,0,0,0,491,543,322,494,487,529,519,288,380,270,170,548,0,
1,1775671694688,-10844,-13563,36467,-6991963,-3242472,-3732386,0,0,0,232,305,240,271,205,318,323,263,293,164,215,122,0,
2,1775671694688,1316,234,10552,706160,-26878,-241902,0,0,0,498,549,323,500,493,532,506,263,382,276,174,565,0,
1,1775671694704,-7686,-25388,35759,-6670648,-3644422,-3652974,0,0,0,229,308,233,273,210,321,323,264,294,163,219,123,0,
2,1775671694704,1574,220,11074,847880,-17104,-298102,0,0,0,499,550,312,498,496,530,486,246,390,273,173,576,0,
1,1775671694720,-3005,-39468,28403,-5876523,-3034778,-2631607,0,0,0,230,308,233,274,210,321,322,264,296,164,223,128,0,
2,1775671694720,1368,311,12093,1098335,18325,-359188,0,0,0,505,553,302,500,504,535,457,235,399,272,174,587,0,
1,1775671694736,6350,-52146,17918,-3996280,-2213775,-30543,0,0,0,232,308,241,274,208,327,321,264,300,166,224,132,0,
2,1775671694736,971,272,12816,1535715,58643,-371406,0,0,0,518,561,288,512,521,543,421,224,402,279,177,594,0,
1,1775671694752,17630,-55458,13534,-1740965,-974940,2434908,0,0,0,228,300,231,271,208,318,335,292,291,184,264,122,0,
2,1775671694752,914,129,13256,1977981,94073,-359188,0,0,0,521,564,269,507,522,543,387,220,404,276,182,606,0,
1,1775671694768,16238,-44622,16870,344527,1275486,2851518,0,0,0,226,279,196,266,199,282,379,358,267,230,335,102,0,
2,1775671694768,1560,19,14352,2542421,53756,-371406,0,0,0,519,562,248,503,531,545,348,216,407,269,182,614,0,
1,1775671694784,3192,-15788,20296,2492330,3789807,2036624,0,0,0,237,264,161,269,179,250,438,425,248,284,384,88,0,
2,1775671694784,2383,57,15697,3222925,-79412,-460592,0,0,0,523,555,241,502,545,543,311,204,406,270,185,609,0,
1,1775671694800,-9174,13529,14941,4207639,5424483,842994,0,0,0,244,260,153,277,171,251,463,463,259,317,411,86,0,
2,1775671694800,2986,282,16917,4020715,-212581,-654847,0,0,0,523,552,236,497,531,545,282,173,391,274,185,616,0,
1,1775671694816,-5101,9131,13003,5888740,4213748,-67195,0,0,0,247,259,148,291,167,262,472,473,278,366,424,86,0,
2,1775671694816,3555,559,18616,4911356,-295658,-905302,0,0,0,525,544,247,496,512,538,276,161,391,258,169,584,0,
1,1775671694832,3699,-3374,21277,6535036,1556484,-300545,0,0,0,242,261,161,293,168,292,489,489,296,394,432,92,0,
2,1775671694832,4015,827,21713,5915618,-333532,-1163087,0,0,0,501,521,241,486,507,538,272,160,400,237,156,523,0,
1,1775671694848,2756,-4690,26149,5022533,316428,291993,0,0,0,254,276,196,313,184,315,498,497,316,405,434,107,0,
2,1775671694848,4766,1100,26355,7031058,-327423,-1372003,0,0,0,438,496,223,468,479,513,273,158,381,219,141,439,0,
1,1775671694864,-3560,-1560,20885,2478891,149051,433714,0,0,0,262,294,245,333,205,360,511,511,342,414,455,192,0,
2,1775671694864,5714,1966,31179,8128172,-24434,-1572367,0,0,0,378,472,207,433,445,474,283,167,350,197,129,377,0,
1,1775671694880,-4594,378,11552,990823,254119,-161268,0,0,0,290,305,249,353,207,376,527,515,342,451,463,228,0,
2,1775671694880,6561,3072,33314,8944288,394618,-1803274,0,0,0,310,445,212,379,405,426,296,217,309,152,113,292,0,
1,1775671694896,-1971,-315,8360,482583,136833,-337197,0,0,0,307,320,256,360,214,377,537,516,346,459,467,248,0,
2,1775671694896,9112,4824,31428,9414655,1275486,-2317622,0,0,0,280,430,227,343,376,395,310,265,290,119,105,225,0,
1,1775671694912,-1603,-531,9853,228463,175929,-135612,0,0,0,316,330,263,365,215,378,542,520,350,464,466,265,0,
2,1775671694912,10279,8839,24603,9388998,2068389,-3141069,0,0,0,281,427,235,334,368,389,320,291,292,111,109,203,0,
1,1775671694928,-2139,215,10744,34208,251676,-12217,0,0,0,321,330,269,367,214,381,546,522,351,472,465,279,0,
2,1775671694928,7379,13304,15874,8021882,1125213,-4028045,0,0,0,282,429,235,339,374,394,322,304,289,113,112,203,0,
1,1775671694944,-2201,804,10519,-8552,205250,-3665,0,0,0,328,328,273,372,215,386,546,523,357,469,465,288,0,
2,1775671694944,2919,18889,10729,4299269,-890641,-3817907,0,0,0,280,431,232,344,380,392,320,304,278,112,110,202,0,
1,1775671694960,-2067,938,10198,101403,91629,-1221,0,0,0,335,333,274,379,218,391,545,521,367,461,461,295,0,
2,1775671694960,1866,21301,9638,-775798,-2111150,-2012190,0,0,0,279,433,233,343,377,387,322,302,273,114,109,202,0,
1,1775671694976,-1971,842,10169,223576,10995,23212,0,0,0,334,335,272,383,223,397,548,501,369,463,454,299,0,
2,1775671694976,4422,14453,8681,-4946786,-2320066,216246,0,0,0,278,436,234,343,377,385,325,303,272,115,111,203,0,
1,1775671694992,-1919,737,10126,311541,-67195,56199,0,0,0,338,334,272,386,225,403,544,475,369,459,435,304,0,
2,1775671694992,7006,6695,5891,-5679824,-1916895,752585,0,0,0,270,440,237,342,382,387,326,307,276,117,116,206,0,
1,1775671695008,-1876,866,7906,284663,-105068,57421,0,0,0,349,337,275,388,222,406,530,466,379,444,413,314,0,
2,1775671695008,8116,3196,3019,-5001764,-1102000,107512,0,0,0,267,442,240,329,402,383,323,307,273,117,116,207,0,
1,1775671695024,-1871,904,7274,291993,-138055,48869,0,0,0,354,339,267,386,220,399,530,451,378,439,391,319,0,
2,1775671695024,7059,3833,3139,-4830722,-29321,-649960,0,0,0,265,442,238,344,382,391,327,309,274,175,144,200,0,
1,1775671695040,-2000,746,9116,370184,-180816,37873,0,0,0,347,342,267,378,220,397,530,430,374,434,371,328,0,
2,1775671695040,5125,4709,5197,-5192354,640186,-853989,0,0,0,267,444,241,346,382,392,328,310,275,128,121,202,0,
1,1775671695056,-2120,579,10016,399505,-174707,35430,0,0,0,347,340,269,385,226,401,528,418,374,422,370,331,0,
2,1775671695056,3685,4795,7437,-5615073,850324,-565661,0,0,0,265,441,239,343,382,390,327,309,274,118,116,203,0,
1,1775671695072,-2167,502,9600,355523,-111177,46425,0,0,0,343,337,260,385,225,396,527,405,374,420,354,331,0,
2,1775671695072,4221,4345,8758,-5878967,1031140,20769,0,0,0,266,441,239,343,381,390,327,310,273,114,114,200,0,
1,1775671695088,-2148,478,9346,304210,-42760,58643,0,0,0,332,337,259,380,225,399,530,391,377,412,344,342,0,
2,1775671695088,5020,4254,10098,-6151412,1551597,563217,0,0,0,267,442,239,343,381,390,327,310,273,115,113,199,0,
1,1775671695104,-2110,449,9447,273667,3665,69638,0,0,0,336,337,259,383,239,404,535,382,376,411,336,350,0,
2,1775671695104,4575,4254,12270,-6470284,2050063,1044579,0,0,0,265,441,238,345,381,390,329,312,275,117,116,200,0,
1,1775671695120,-2014,406,9619,251676,30543,76969,0,0,0,336,348,262,385,260,401,535,382,376,408,336,362,0,
2,1775671695120,4096,3871,14706,-6753726,2276083,1516167,0,0,0,265,441,238,345,384,391,332,314,275,116,116,200,0,
1,1775671695136,-1909,368,9657,224798,26878,74525,0,0,0,333,356,261,383,277,397,539,386,373,404,334,374,0,
2,1775671695136,4469,2957,17458,-6927211,2317622,1771509,0,0,0,266,441,239,344,383,390,330,312,274,114,114,199,0,
1,1775671695152,-1856,363,9705,210137,9773,64751,0,0,0,335,359,262,384,290,404,539,375,372,397,325,383,0,
2,1775671695152,5025,1976,20325,-7037167,2489886,1731192,0,0,0,267,443,241,344,379,390,330,310,276,114,114,199,0,
1,1775671695168,-1880,339,9820,235793,-15882,58643,0,0,0,341,362,265,391,294,417,537,358,375,387,316,395,0,
2,1775671695168,5163,971,23661,-7182553,2756223,1543045,0,0,0,266,443,242,346,381,393,333,310,278,117,115,201,0,
1,1775671695184,-1957,311,9925,295658,-56199,69638,0,0,0,345,363,263,399,285,428,537,345,378,376,306,415,0,
2,1775671695184,4704,-14,28116,-7313278,2831971,1540602,0,0,0,264,443,244,344,378,392,336,309,282,116,113,201,0,
1,1775671695200,-2057,301,9959,371406,-95294,97738,0,0,0,347,363,265,404,275,438,531,318,384,360,283,438,0,
2,1775671695200,4560,-1584,32337,-7272961,2605951,2019520,0,0,0,268,443,243,347,378,391,339,309,284,116,112,199,0,
1,1775671695216,-2134,239,9940,455705,-119729,139277,0,0,0,353,375,264,408,291,452,527,299,405,350,271,463,0,
2,1775671695216,5709,-6690,33510,-6967528,2689028,2932153,0,0,0,269,443,242,351,380,401,342,307,290,117,111,207,0,
1,1775671695232,-2172,138,10011,537561,-150272,188146,0,0,0,363,394,276,417,330,476,521,282,404,333,257,474,0,
2,1775671695232,5216,-15735,33811,-6370102,3341432,3519805,0,0,0,271,439,237,354,382,400,323,305,301,118,110,207,0,
1,1775671695248,-2297,47,10270,635299,-211359,244346,0,0,0,364,400,267,412,336,486,509,265,413,315,242,489,0,
2,1775671695248,1564,-29040,31414,-5367061,3251024,3314554,0,0,0,272,439,237,360,384,403,352,305,299,123,113,208,0,
1,1775671695264,-2632,23,10524,747699,-244346,307876,0,0,0,380,415,270,435,352,492,501,247,423,292,224,512,0,
2,1775671695264,-693,-43172,22038,-3894876,1882686,1932777,0,0,0,273,440,238,360,384,404,356,304,298,123,110,208,0,
1,1775671695280,-2857,14,10873,912632,-174707,397062,0,0,0,394,412,249,448,369,512,491,235,420,276,198,525,0,
2,1775671695280,-4048,-51739,14381,-2076941,1183856,-294437,0,0,0,273,440,240,359,383,405,353,307,295,124,115,208,0,
1,1775671695296,-2498,-9,11481,1149648,-73303,461814,0,0,0,405,425,254,454,374,519,472,222,413,282,194,550,0,
2,1775671695296,-9968,-49442,14343,-229685,728151,-2230879,0,0,0,258,429,229,354,382,397,377,398,288,133,163,200,0,
1,1775671695312,-1761,-143,12122,1439198,-73303,459370,0,0,0,401,423,246,463,361,530,441,206,416,267,172,563,0,
2,1775671695312,-11045,-30581,21306,1693318,-1145983,-2359161,0,0,0,244,384,192,340,362,373,423,456,273,156,222,187,0,
1,1775671695328,-1698,-296,12845,1808161,-183259,389732,0,0,0,401,434,236,470,370,529,405,202,420,262,167,570,0,
2,1775671695328,-2144,1746,21923,3342654,-3911980,-1044579,0,0,0,246,355,176,337,344,366,466,478,273,176,266,181,0,
1,1775671695344,-2708,-330,13543,2258979,-241902,389732,0,0,0,409,433,217,476,384,522,362,196,429,264,166,576,0,
2,1775671695344,4498,12361,13481,4274834,-5073846,419053,0,0,0,260,358,183,349,339,381,494,495,288,195,302,188,0,
1,1775671695360,-3919,-363,14367,2897944,-175929,599869,0,0,0,413,430,206,474,391,518,316,187,436,256,161,578,0,
2,1775671695360,641,3292,13309,5319414,-3844785,1047023,0,0,0,267,374,201,361,342,396,512,512,306,211,325,201,0,
1,1775671695376,-4685,-325,15467,3588222,-50090,884532,0,0,0,415,433,209,461,394,517,268,176,428,233,144,568,0,
2,1775671695376,-6274,-3953,23330,5667607,-1524719,594982,0,0,0,268,393,231,369,352,410,528,528,317,214,325,214,0,
1,1775671695392,-5632,-47,17420,4406781,57421,1238834,0,0,0,416,425,208,441,385,508,240,162,419,213,129,543,0,
2,1775671695392,-3149,-871,25326,4260174,-491135,-222354,0,0,0,278,416,262,382,367,425,537,537,321,219,315,235,0,
1,1775671695408,-7394,186,21387,5397605,155159,1688431,0,0,0,404,401,194,424,355,488,238,149,411,203,130,496,0,
2,1775671695408,2158,1550,17779,2422691,-210137,-202807,0,0,0,300,443,291,402,383,438,549,549,329,227,303,266,0,
1,1775671695424,-9743,114,25139,6244264,284663,2119702,0,0,0,373,370,189,404,330,454,194,147,373,186,123,417,0,
2,1775671695424,2201,478,10763,1211956,-146607,260228,0,0,0,330,464,306,421,398,452,563,564,333,237,301,298,0,
1,1775671695440,-11155,583,27365,7001737,392175,2616946,0,0,0,306,359,199,333,312,395,184,174,329,148,124,323,0,
2,1775671695440,847,-464,9370,583987,-147829,310319,0,0,0,350,477,320,435,410,466,572,572,343,245,302,322,0,
1,1775671695456,-10011,2086,28667,7805636,459370,3167947,0,0,0,257,337,210,307,270,363,220,206,301,143,147,241,0,
2,1775671695456,564,196,10480,255341,-229685,97738,0,0,0,362,482,320,437,417,470,571,571,344,246,294,335,0,
1,1775671695472,-10581,2761,28863,8473922,549778,3555235,0,0,0,225,286,226,259,204,306,290,238,280,143,184,133,0,
2,1775671695472,890,1215,10519,153938,-257785,17104,0,0,0,378,487,323,442,421,473,575,575,344,249,290,347,0,
1,1775671695488,-11902,6633,21464,8503244,930958,3887546,0,0,0,238,292,221,259,199,299,281,238,285,154,214,128,0,
2,1775671695488,1000,1550,10279,163711,-202807,19547,0,0,0,387,491,331,433,415,469,576,576,346,252,286,369,0,
1,1775671695504,-11959,10739,13668,7765318,1439198,4031710,0,0,0,248,300,219,289,203,294,309,259,279,165,225,126,0,
2,1775671695504,933,1426,10189,246789,-153938,24434,0,0,0,392,497,332,441,423,477,576,573,348,254,276,382,0,
1,1775671695520,-9892,14084,10428,5418374,1114218,3039665,0,0,0,240,308,220,280,209,302,310,268,279,158,223,130,0,
2,1775671695520,741,1359,10275,316428,-124616,1221,0,0,0,398,499,332,449,428,480,578,563,343,254,261,389,0,
1,1775671695536,-5963,16989,9265,1523497,464257,766025,0,0,0,233,314,222,262,212,303,304,271,281,151,223,132,0,
2,1775671695536,670,1421,10327,360410,-40317,-14660,0,0,0,409,501,332,450,430,481,578,555,342,253,248,394,0,
1,1775671695552,-3187,15147,8451,-2306627,624304,-1941329,0,0,0,231,314,225,257,213,305,305,272,283,149,224,132,0,
2,1775671695552,737,1411,10265,415388,74525,-20769,0,0,0,412,502,328,452,431,484,578,543,347,253,238,402,0,
1,1775671695568,-5733,8906,5853,-3591887,1264491,-2918714,0,0,0,233,313,225,263,213,305,307,272,284,152,224,131,0,
2,1775671695568,813,1268,10126,467922,164933,-26878,0,0,0,417,503,327,452,431,484,575,520,355,252,227,409,0,
1,1775671695584,-8518,5063,3369,-3600439,867428,-2350609,0,0,0,233,315,225,266,213,304,307,273,282,156,226,131,0,
2,1775671695584,918,1062,9949,486248,200363,-34208,0,0,0,426,504,327,452,432,489,572,499,363,246,212,416,0,
1,1775671695600,-7274,4852,3306,-3585778,-113620,-1341460,0,0,0,229,315,227,260,213,307,307,272,282,156,227,132,0,
2,1775671695600,1067,966,9868,467922,177150,-45204,0,0,0,432,505,326,455,432,495,567,484,371,238,195,422,0,
1,1775671695616,-4383,5388,4737,-3947411,-621860,-588874,0,0,0,229,313,231,259,213,309,311,273,286,157,228,133,0,
2,1775671695616,1206,933,9882,438601,117286,-54977,0,0,0,435,507,326,457,433,493,565,468,376,236,186,427,0,
1,1775671695632,-2656,5829,6953,-4695110,-250454,-470366,0,0,0,229,311,237,262,212,314,314,272,289,160,229,136,0,
2,1775671695632,1268,871,9901,409279,28099,-65973,0,0,0,434,510,326,461,438,498,568,456,372,240,185,436,0,
1,1775671695648,-3929,5388,8676,-5529552,31764,-675616,0,0,0,229,307,245,271,210,320,316,272,292,160,226,138,0,
2,1775671695648,1225,794,9882,378736,-53756,-76969,0,0,0,435,513,325,462,441,498,562,446,375,239,180,441,0,
1,1775671695664,-5240,4690,10165,-6172182,-272445,-833220,0,0,0,226,309,256,261,211,327,312,274,296,156,229,142,0,
2,1775671695664,1134,741,9858,349414,-106290,-83077,0,0,0,442,513,323,467,441,500,566,439,374,246,182,447,0,
1,1775671695680,-5096,3929,11849,-6577796,-845437,-977384,0,0,0,224,306,251,258,209,321,312,273,296,159,230,142,0,
2,1775671695680,1072,741,9916,329867,-130725,-84299,0,0,0,440,514,322,467,441,500,561,421,376,250,180,457,0,
1,1775671695696,-4699,2995,13591,-6856351,-1232726,-1187522,0,0,0,224,306,251,259,211,324,312,273,296,156,227,139,0,
2,1775671695696,1072,737,9992,329867,-147829,-84299,0,0,0,448,516,324,470,444,501,560,405,382,246,175,460,0,
1,1775671695712,-4857,1952,15663,-6973637,-1473406,-1389107,0,0,0,221,307,254,260,215,329,314,273,296,156,226,141,0,
2,1775671695712,1086,674,10040,345749,-158824,-91629,0,0,0,455,520,325,475,449,508,548,386,381,249,173,470,0,
1,1775671695728,-5321,1153,18324,-6995628,-1736079,-1491732,0,0,0,224,306,255,257,212,327,311,272,298,157,223,139,0,
2,1775671695728,1038,569,10040,365297,-147829,-107512,0,0,0,453,521,327,476,458,512,555,378,382,255,171,484,0,
1,1775671695744,-5714,631,21512,-7023728,-1985312,-1496619,0,0,0,225,309,245,260,213,320,313,275,294,159,229,137,0,
2,1775671695744,1076,512,10059,383623,-117286,-127059,0,0,0,459,522,325,481,469,519,553,359,388,262,175,498,0,
1,1775671695760,-6188,-67,24910,-7108027,-2047620,-1623679,0,0,0,224,310,242,261,215,318,315,275,289,160,228,134,0,
2,1775671695760,1196,512,10155,425162,-101403,-163711,0,0,0,467,524,327,479,469,516,545,335,387,263,173,507,0,
1,1775671695776,-7274,-1215,28375,-7092145,-2020742,-1919338,0,0,0,225,310,243,263,215,319,316,271,288,160,224,134,0,
2,1775671695776,1220,483,10222,492357,-117286,-204028,0,0,0,477,536,328,483,473,516,539,311,383,263,168,521,0,
1,1775671695792,-8982,-3962,31959,-6906442,-2185675,-2403143,0,0,0,230,316,242,264,211,317,317,268,288,157,221,129,0,
2,1775671695792,1153,363,10299,565661,-134390,-240680,0,0,0,486,546,331,492,485,524,535,303,387,265,166,538,0,
1,1775671695808,-9447,-10524,34611,-6679200,-2902831,-2780658,0,0,0,231,318,238,266,207,316,321,269,290,157,220,125,0,
2,1775671695808,1095,306,10524,648738,-141720,-265115,0,0,0,490,550,329,497,498,534,522,280,391,263,163,550,0,
1,1775671695824,-6810,-21569,34122,-6394537,-3448945,-2800206,0,0,0,228,312,236,273,211,320,324,270,293,165,223,127,0,
2,1775671695824,1153,349,10983,810007,-145385,-278554,0,0,0,497,553,323,502,511,542,496,240,388,263,164,561,0,
1,1775671695840,-990,-36123,26365,-5561317,-3126408,-2135584,0,0,0,230,311,238,279,217,326,323,266,297,170,228,129,0,
2,1775671695840,1148,339,11572,1062905,-124616,-298102,0,0,0,506,555,319,505,518,545,467,223,388,272,170,575,0,
1,1775671695856,7030,-49466,17487,-3910759,-2612059,-750142,0,0,0,231,312,239,279,217,327,326,267,296,170,231,132,0,
2,1775671695856,847,253,12285,1384220,-36651,-312763,0,0,0,513,560,308,509,517,546,443,218,397,276,173,587,0,
1,1775671695872,15659,-51725,14247,-1578475,-1386664,907745,0,0,0,230,308,237,277,214,322,322,267,293,175,235,131,0,
2,1775671695872,641,172,13055,1762957,113620,-304210,0,0,0,514,560,284,513,521,556,411,214,405,270,172,593,0,
1,1775671695888,15764,-45245,14572,477696,575435,1742187,0,0,0,230,303,233,277,210,317,335,277,289,188,251,123,0,
2,1775671695888,1325,210,14309,2311514,183259,-309097,0,0,0,522,562,262,509,524,555,374,213,417,259,173,598,0,
1,1775671695904,5120,-29724,16903,2085493,2400700,1666440,0,0,0,227,293,190,276,206,275,399,374,261,256,358,92,0,
2,1775671695904,2426,186,15529,3003013,47647,-398284,0,0,0,526,558,255,505,532,550,334,206,402,278,189,614,0,
1,1775671695920,-6451,4498,17875,3156951,3456275,872315,0,0,0,242,268,163,276,181,257,447,431,260,284,397,89,0,
2,1775671695920,2871,239,16367,3761708,-190589,-576656,0,0,0,520,556,241,503,534,550,298,190,393,271,183,614,0,
1,1775671695936,-8624,21335,12337,3920533,4245513,-39095,0,0,0,247,257,149,290,170,256,467,464,271,342,415,81,0,
2,1775671695936,3153,583,17822,4669453,-367740,-801455,0,0,0,520,550,242,482,515,536,281,166,389,257,168,599,0,
1,1775671695952,-502,7284,13586,5314527,3589444,-350636,0,0,0,249,256,153,299,171,266,484,484,276,395,433,86,0,
2,1775671695952,4350,890,20200,5573534,-458148,-1051909,0,0,0,508,534,247,476,505,534,272,156,392,242,158,552,0,
1,1775671695968,5417,-5685,23833,5699372,1547932,97738,0,0,0,258,270,179,309,179,285,496,496,286,422,442,93,0,
2,1775671695968,5350,1273,24508,6740287,-583987,-1392772,0,0,0,463,516,234,468,488,518,270,161,382,223,144,466,0,
1,1775671695984,804,-4441,27135,3898541,98960,746477,0,0,0,264,283,214,320,191,322,508,508,307,425,448,121,0,
2,1775671695984,5570,1684,29868,7977900,-607200,-1622458,0,0,0,397,489,211,446,466,492,277,168,360,204,136,397,0,
1,1775671696000,-4111,-488,18190,1901012,-14660,340862,0,0,0,268,296,250,329,203,366,516,516,334,426,458,174,0,
2,1775671696000,7063,2215,32246,8999266,-59864,-1792278,0,0,0,334,459,210,403,430,448,292,202,323,170,122,342,0,
1,1775671696016,-3685,760,10208,901637,83077,-210137,0,0,0,287,311,268,347,213,389,525,520,348,433,472,222,0,
2,1775671696016,7609,3776,32873,9487958,1177748,-2294409,0,0,0,289,435,225,354,386,402,308,251,293,129,108,260,0,
1,1775671696032,-1593,-129,8528,636521,54977,-282219,0,0,0,313,318,263,371,222,387,536,518,345,438,480,250,0,
2,1775671696032,7604,7303,28475,9464746,1578475,-2921157,0,0,0,275,426,238,333,366,389,320,285,290,108,107,201,0,
1,1775671696048,-1990,-23,10059,382401,18325,-79412,0,0,0,324,323,269,375,227,394,541,509,350,446,470,288,0,
2,1775671696048,9729,12218,16745,8735372,618195,-3545461,0,0,0,281,431,242,339,372,402,322,298,296,109,110,208,0,
1,1775671696064,-2636,693,10500,224798,80634,12217,0,0,0,330,340,271,379,231,405,550,506,354,458,457,306,0,
2,1775671696064,8810,17276,9317,5725029,-598647,-3661526,0,0,0,277,433,240,342,375,405,319,298,286,106,106,207,0,
1,1775671696080,-2397,1105,10088,310319,133168,24434,0,0,0,335,341,267,379,230,417,552,492,362,461,436,330,0,
2,1775671696080,4551,21311,8705,675616,-1199739,-2302961,0,0,0,274,437,237,345,377,404,319,294,275,108,106,206,0,
1,1775671696096,-2014,942,9968,428827,81855,35430,0,0,0,333,341,275,382,244,411,555,474,363,454,433,345,0,
2,1775671696096,2852,16582,10122,-3944967,-2024407,-73303,0,0,0,272,438,236,343,374,399,323,296,269,113,107,203,0,
1,1775671696112,-2000,703,10174,476474,-36651,45204,0,0,0,340,339,269,393,262,428,555,440,364,435,405,365,0,
2,1775671696112,5312,8164,8035,-5781228,-2757445,1104444,0,0,0,267,439,234,346,379,401,324,300,269,122,113,201,0,
1,1775671696128,-2139,784,10404,491135,-134390,58643,0,0,0,340,343,262,388,262,422,550,427,367,419,401,374,0,
2,1775671696128,9150,2928,3675,-5203350,-2431243,704938,0,0,0,260,441,242,345,379,410,324,300,272,109,108,209,0,
1,1775671696144,-2100,923,11438,507018,-200363,76969,0,0,0,337,339,260,392,255,445,548,409,365,393,365,383,0,
2,1775671696144,9423,2928,2464,-4603480,-831998,-307876,0,0,0,263,443,240,346,381,406,320,301,269,111,115,203,0,
1,1775671696160,-2091,804,11706,499687,-218689,86742,0,0,0,342,341,268,393,254,444,541,396,374,375,338,395,0,
2,1775671696160,6613,4422,4814,-4798957,227241,-701273,0,0,0,263,443,235,345,381,400,320,303,266,111,113,202,0,
1,1775671696176,-2225,507,10351,551000,-274889,92851,0,0,0,347,343,261,402,255,443,538,381,381,377,323,408,0,
2,1775671696176,4374,5273,7561,-5356066,379958,-399505,0,0,0,263,440,235,345,381,400,324,305,267,112,115,198,0,
1,1775671696192,-2397,301,9327,569326,-289550,103847,0,0,0,346,342,256,409,254,447,536,362,382,370,307,417,0,
2,1775671696192,5709,4575,8590,-5850867,419053,382401,0,0,0,264,442,237,346,383,402,324,306,266,178,151,196,0,
1,1775671696208,-2493,224,9212,522900,-237015,117286,0,0,0,340,340,255,404,254,453,537,346,383,357,293,420,0,
2,1775671696208,7183,3704,9471,-6169738,1031140,1059240,0,0,0,261,442,237,348,385,404,325,307,269,144,131,196,0,
1,1775671696224,-2507,215,9471,444709,-145385,131946,0,0,0,336,339,252,401,258,459,538,328,386,347,282,423,0,
2,1775671696224,6704,3125,11725,-6470284,1764178,1694540,0,0,0,260,442,237,349,386,404,327,308,271,111,113,197,0,
1,1775671696240,-2431,215,9523,397062,-84299,151494,0,0,0,337,339,252,407,258,463,536,312,388,344,272,432,0,
2,1775671696240,6144,2531,13969,-6714630,2018298,2224771,0,0,0,261,442,238,349,384,402,328,308,270,110,112,196,0,
1,1775671696256,-2292,196,9614,383623,-61086,162490,0,0,0,341,340,254,408,262,462,533,301,391,343,265,445,0,
2,1775671696256,6657,1847,15841,-6857573,2120924,2426356,0,0,0,262,442,237,348,384,401,328,306,267,110,112,195,0,
1,1775671696272,-2177,143,9782,397062,-69638,158824,0,0,0,347,347,257,411,269,462,530,290,392,342,258,461,0,
2,1775671696272,6896,1258,18401,-6982189,2366491,2383596,0,0,0,260,441,236,346,388,401,328,305,266,112,112,196,0,
1,1775671696288,-2139,52,9906,432492,-114842,147829,0,0,0,343,352,258,414,274,471,530,285,399,334,250,479,0,
2,1775671696288,6436,823,22148,-7120245,2559525,2125811,0,0,0,259,440,239,344,391,403,330,307,270,111,110,198,0,
1,1775671696304,-2225,-23,9949,485026,-183259,151494,0,0,0,348,357,259,422,288,479,527,272,411,314,233,489,0,
2,1775671696304,6771,344,26106,-7208209,2474004,1894903,0,0,0,260,443,244,347,381,406,333,305,277,109,108,200,0,
1,1775671696320,-2435,-62,9882,554665,-233350,180816,0,0,0,358,358,259,434,290,489,513,254,401,314,223,495,0,
2,1775671696320,7638,-866,30145,-7239974,2541199,1762957,0,0,0,262,443,243,351,383,406,336,306,284,113,109,201,0,
1,1775671696336,-2574,-138,9810,616973,-245567,219911,0,0,0,350,360,254,422,309,501,508,253,412,295,219,510,0,
2,1775671696336,7020,-4474,33548,-7247305,2990796,1846034,0,0,0,259,442,240,351,383,406,336,301,287,118,112,207,0,
1,1775671696352,-2670,-277,9877,673173,-226020,263893,0,0,0,357,395,243,425,324,508,504,246,421,291,205,527,0,
2,1775671696352,2742,-13132,35788,-7077484,3583335,2227214,0,0,0,261,441,241,358,386,415,349,302,297,116,111,212,0,
1,1775671696368,-2823,-411,10069,739146,-193033,311541,0,0,0,358,387,234,439,335,513,497,236,434,279,190,542,0,
2,1775671696368,-536,-25388,34529,-6405532,3073873,2349387,0,0,0,266,444,247,358,386,416,353,302,301,117,111,215,0,
1,1775671696384,-2890,-492,10313,834441,-160046,371406,0,0,0,358,382,227,453,338,512,474,219,452,270,181,552,0,
2,1775671696384,-201,-39985,26202,-4928460,1654223,1503950,0,0,0,267,445,248,360,387,417,355,307,304,123,111,219,0,
1,1775671696400,-2804,-502,10830,966388,-162490,427605,0,0,0,368,392,231,459,358,513,453,213,455,269,177,556,0,
2,1775671696400,-2909,-49676,16305,-2736676,1233947,-891863,0,0,0,266,445,248,357,387,417,355,308,304,124,114,221,0,
1,1775671696416,-2579,-469,11782,1204626,-240680,465479,0,0,0,381,400,223,477,358,535,430,201,469,271,168,565,0,
2,1775671696416,-12581,-49609,15118,-777020,1188743,-2723237,0,0,0,266,443,250,358,388,417,359,322,301,122,123,216,0,
1,1775671696432,-2191,-550,12304,1534493,-333532,456927,0,0,0,390,401,208,490,353,555,404,190,474,265,161,579,0,
2,1775671696432,-16085,-39037,19554,1021366,-430049,-2295631,0,0,0,251,433,230,356,387,402,390,412,285,139,176,197,0,
1,1775671696448,-2115,-765,12577,1937664,-422718,410501,0,0,0,395,408,199,482,379,547,370,188,465,254,158,587,0,
2,1775671696448,-6666,-14644,23048,2488664,-2224771,-857654,0,0,0,245,394,193,350,364,381,440,473,272,162,239,183,0,
1,1775671696464,-3058,-957,12993,2368935,-503352,415388,0,0,0,392,416,200,475,403,540,335,182,470,244,153,588,0,
2,1775671696464,6910,20339,17980,3252246,-3458718,673173,0,0,0,252,365,177,346,342,375,479,488,272,206,310,177,0,
1,1775671696480,-4302,-947,13950,2987131,-586430,629191,0,0,0,385,410,204,481,394,554,306,164,478,235,143,582,0,
2,1775671696480,4881,17386,8906,4258952,-3743382,1347568,0,0,0,260,369,186,352,339,386,499,501,286,228,347,183,0,
1,1775671696496,-4986,-770,15472,3699399,-651182,935845,0,0,0,389,411,201,470,406,547,255,159,484,212,129,567,0,
2,1775671696496,-5111,-2397,15290,5836206,-2616946,1023810,0,0,0,265,382,204,366,348,403,515,515,308,206,329,201,0,
1,1775671696512,-5967,-382,18052,4604702,-692721,1321912,0,0,0,389,387,209,453,401,549,249,151,499,189,123,539,0,
2,1775671696512,-5120,-4690,25886,5439144,-1295034,43982,0,0,0,271,403,243,379,362,425,534,533,325,216,328,222,0,
1,1775671696528,-8327,-110,21852,5621181,-665843,1758070,0,0,0,369,394,192,466,406,517,313,135,439,184,110,450,0,
2,1775671696528,1469,-95,24493,3577226,-720820,-298102,0,0,0,291,433,287,401,376,440,550,551,330,227,320,253,0,
1,1775671696544,-10634,-62,26412,6654765,-619417,2268753,0,0,0,349,362,178,402,358,459,215,143,397,165,110,360,0,
2,1775671696544,2991,1009,15314,1667662,-544891,190589,0,0,0,309,454,297,414,396,458,561,562,343,239,315,288,0,
1,1775671696560,-11237,-574,30456,7541742,-492357,2770884,0,0,0,306,353,195,343,309,406,200,159,350,135,116,287,0,
2,1775671696560,1210,148,9782,653625,-351858,404392,0,0,0,333,462,309,424,401,466,575,574,348,263,354,308,0,
1,1775671696576,-11055,162,32505,8201476,-416610,3210707,0,0,0,255,315,183,303,257,341,239,204,295,134,146,183,0,
2,1775671696576,469,-71,9629,425162,-245567,224798,0,0,0,355,473,325,429,406,480,573,572,343,270,370,323,0,
1,1775671696592,-11347,4728,30456,8516683,-390953,3604104,0,0,0,249,286,193,275,213,304,285,229,281,144,176,139,0,
2,1775671696592,1095,751,10490,267558,-250454,39095,0,0,0,365,477,327,434,409,483,578,578,350,267,356,331,0,
1,1775671696608,-11844,11691,20387,8511796,-52534,4020715,0,0,0,243,281,207,262,197,294,302,245,285,151,208,132,0,
2,1775671696608,1416,1387,10538,127059,-218689,-4886,0,0,0,374,481,333,434,407,482,574,575,348,269,350,340,0,
1,1775671696624,-10806,13543,12404,7822740,598647,4349360,0,0,0,229,287,225,259,200,304,299,252,290,150,219,136,0,
2,1775671696624,1340,1526,10174,109955,-153938,9773,0,0,0,378,483,335,435,407,480,578,578,343,273,344,350,0,
1,1775671696640,-7695,15089,10442,4913799,1055575,3511253,0,0,0,225,293,223,260,205,306,296,253,287,151,218,136,0,
2,1775671696640,1210,1545,10169,224798,-146607,-8552,0,0,0,385,486,334,434,407,480,580,581,340,271,335,360,0,
1,1775671696656,-4120,17372,9595,139277,1339016,1083674,0,0,0,229,299,213,261,208,298,297,253,279,156,219,132,0,
2,1775671696656,1081,1550,10236,334754,-120951,-28099,0,0,0,389,488,332,436,408,481,574,573,347,270,299,372,0,
1,1775671696672,-3402,14922,8379,-3469714,1902234,-1343903,0,0,0,234,301,211,265,208,295,308,254,276,160,219,130,0,
2,1775671696672,1024,1517,10236,414166,-28099,-35430,0,0,0,391,489,330,443,412,485,572,557,348,255,259,377,0,
1,1775671696688,-6111,8863,5924,-4565606,2439795,-2091602,0,0,0,236,301,213,270,209,300,320,256,281,159,217,134,0,
2,1775671696688,1100,1407,10083,466701,83077,-30543,0,0,0,392,489,326,446,414,487,572,540,349,247,243,384,0,
1,1775671696704,-8691,5384,3991,-4668232,2090380,-1573588,0,0,0,230,302,228,258,209,307,304,256,289,153,219,138,0,
2,1775671696704,1225,1249,9877,509461,151494,-34208,0,0,0,394,489,322,445,410,486,569,523,358,248,233,394,0,
1,1775671696720,-8279,4881,3943,-4856378,1054353,-690277,0,0,0,230,301,222,258,206,305,308,261,287,153,219,137,0,
2,1775671696720,1344,1148,9801,516791,139277,-46425,0,0,0,400,492,323,448,412,489,567,506,372,242,218,399,0,
1,1775671696736,-6508,4699,5125,-5196019,381179,-84299,0,0,0,230,299,221,261,206,306,306,261,287,158,224,138,0,
2,1775671696736,1464,1105,9815,508239,87964,-54977,0,0,0,413,495,326,455,418,498,566,490,382,240,203,405,0,
1,1775671696752,-5537,4436,6901,-5595525,322536,47647,0,0,0,230,300,225,258,205,307,308,261,289,157,225,137,0,
2,1775671696752,1569,1033,9844,488692,0,-62308,0,0,0,421,496,325,458,420,500,560,468,369,242,192,412,0,
1,1775671696768,-5704,4273,8542,-6080552,277332,-86742,0,0,0,230,300,227,257,202,314,309,260,293,154,221,138,0,
2,1775671696768,1541,923,9839,459370,-113620,-74525,0,0,0,426,495,326,457,424,498,553,449,359,237,182,421,0,
1,1775671696784,-6676,4067,10457,-6754947,-3665,-476474,0,0,0,231,302,228,258,205,312,308,261,291,157,224,133,0,
2,1775671696784,1397,847,9839,438601,-172263,-84299,0,0,0,437,501,334,457,423,502,545,432,372,237,177,431,0,
1,1775671696800,-7595,3105,12476,-7248526,-498466,-871093,0,0,0,230,302,229,260,208,313,306,262,291,159,226,134,0,
2,1775671696800,1239,760,9911,431270,-167377,-85521,0,0,0,445,515,330,471,434,522,552,419,371,237,178,443,0,
1,1775671696816,-8188,1708,14654,-7489207,-1078788,-1188743,0,0,0,228,303,233,259,208,316,308,263,292,158,227,135,0,
2,1775671696816,1215,722,10021,445931,-134390,-81855,0,0,0,450,511,330,465,439,514,548,395,381,240,173,456,0,
1,1775671696832,-8322,545,17176,-7539298,-1599245,-1425759,0,0,0,229,306,235,259,208,318,310,263,293,157,228,137,0,
2,1775671696832,1311,703,10107,475253,-109955,-86742,0,0,0,451,511,326,474,447,517,547,375,383,245,167,468,0,
1,1775671696848,-8580,-335,20842,-7611380,-1992642,-1660331,0,0,0,229,307,234,259,208,320,309,261,293,158,228,139,0,
2,1775671696848,1416,617,10126,513126,-91629,-112399,0,0,0,461,521,329,480,456,522,511,353,386,247,166,489,0,
1,1775671696864,-9016,-1483,24484,-7677354,-2267531,-1837482,0,0,0,228,304,238,257,207,323,308,260,295,157,224,139,0,
2,1775671696864,1488,502,10098,541226,-73303,-151494,0,0,0,472,526,335,484,466,525,521,322,386,254,167,501,0,
1,1775671696880,-9547,-3503,28499,-7577172,-2458121,-2086715,0,0,0,227,303,244,256,205,326,311,259,301,154,218,138,0,
2,1775671696880,1483,449,10169,571769,-63529,-191811,0,0,0,481,533,340,487,469,524,524,291,388,259,168,517,0,
1,1775671696896,-9887,-5939,31490,-7321830,-2632829,-2469117,0,0,0,228,307,242,258,203,321,315,258,299,155,216,134,0,
2,1775671696896,1397,421,10413,663399,-73303,-227241,0,0,0,488,535,332,493,474,525,511,267,388,264,171,537,0,
1,1775671696912,-9131,-10815,33807,-6910107,-3199712,-2998126,0,0,0,228,307,233,264,207,316,320,260,295,159,216,129,0,
2,1775671696912,1340,335,10648,810007,-90408,-241902,0,0,0,498,538,326,501,486,534,498,250,391,272,176,557,0,
1,1775671696928,-6628,-18774,34103,-6415306,-3770260,-3262020,0,0,0,232,305,221,277,214,313,329,265,294,161,218,125,0,
2,1775671696928,1383,186,10983,990823,-69638,-245567,0,0,0,506,550,327,508,499,544,485,238,397,276,179,570,0,
1,1775671696944,-3048,-29150,28872,-5717698,-3569896,-2835636,0,0,0,231,308,222,274,210,313,329,258,295,167,220,125,0,
2,1775671696944,1407,119,11543,1189965,-32986,-251676,0,0,0,502,557,311,509,506,543,462,226,399,276,177,579,0,
1,1775671696960,918,-40957,19937,-4503298,-3031113,-1301142,0,0,0,229,308,223,274,210,320,325,258,311,166,220,128,0,
2,1775671696960,1359,153,12266,1492954,-15882,-260228,0,0,0,507,554,297,501,504,541,430,222,406,276,174,594,0,
1,1775671696976,9399,-49092,14840,-2910161,-2558303,669508,0,0,0,231,308,224,276,211,322,326,258,310,167,224,128,0,
2,1775671696976,1349,95,12859,1871691,-18325,-270002,0,0,0,517,557,286,512,522,556,402,216,405,276,181,599,0,
1,1775671696992,18430,-48633,14797,-802676,-918741,2089159,0,0,0,224,300,216,268,208,306,326,278,292,186,261,120,0,
2,1775671696992,1670,0,13539,2311514,-73303,-288328,0,0,0,516,552,258,519,533,564,365,219,411,274,181,605,0,
1,1775671697008,11418,-35668,17190,1264491,1876578,1990198,0,0,0,230,272,182,268,189,269,391,352,264,243,342,101,0,
2,1775671697008,2613,-38,14706,2928487,-202807,-393397,0,0,0,516,554,242,513,536,570,323,207,429,274,182,606,0,
1,1775671697024,-827,-9638,19621,2911383,4064697,1425759,0,0,0,234,258,160,265,179,251,444,424,260,290,395,89,0,
2,1775671697024,3201,14,15936,3662747,-329867,-597426,0,0,0,528,560,251,508,531,561,288,185,408,270,174,609,0,
1,1775671697040,-7336,13065,14654,4050036,5142263,448375,0,0,0,237,249,146,276,174,252,467,463,262,339,420,88,0,
2,1775671697040,3503,311,17597,4528954,-411723,-840550,0,0,0,531,553,252,490,525,547,272,165,399,265,178,599,0,
1,1775671697056,-2459,8571,13333,5358509,4206418,-321315,0,0,0,238,244,139,287,171,263,481,481,265,389,436,89,0,
2,1775671697056,4096,655,20143,5489235,-467922,-1095892,0,0,0,527,537,256,483,506,546,264,156,404,246,160,551,0,
1,1775671697072,4560,-2718,23110,5806884,1473406,-48869,0,0,0,245,253,168,296,174,287,493,492,278,423,449,93,0,
2,1775671697072,4747,636,24455,6616892,-477696,-1356120,0,0,0,491,517,247,479,489,534,263,155,391,226,141,483,0,
1,1775671697088,2464,-3737,27307,4637688,-219911,723264,0,0,0,257,274,219,313,191,321,501,500,296,438,453,110,0,
2,1775671697088,6207,464,29480,7819075,-46425,-1587027,0,0,0,417,489,212,458,471,502,273,162,368,209,133,406,0,
1,1775671697104,-4790,-287,19985,2430021,-367740,739146,0,0,0,264,300,241,331,221,358,504,504,315,444,456,147,0,
2,1775671697104,7355,2220,33194,8940623,869872,-1929112,0,0,0,352,463,207,410,439,453,287,183,333,177,124,351,0,
1,1775671697120,-4666,531,10581,1143539,-178372,-75747,0,0,0,283,321,256,362,224,370,523,520,333,462,474,196,0,
2,1775671697120,7001,5829,33830,9578366,1612684,-2406809,0,0,0,290,439,218,359,396,406,302,231,296,133,107,263,0,
1,1775671697136,-2727,-167,7853,708603,-68416,-332310,0,0,0,311,319,263,383,212,364,538,523,332,475,489,212,0,
2,1775671697136,7461,9083,28623,9633344,1988977,-3044552,0,0,0,267,430,230,339,376,389,315,275,284,109,102,203,0,
1,1775671697152,-2287,-521,9432,453262,113620,-168598,0,0,0,326,315,285,384,211,372,547,520,335,480,495,238,0,
2,1775671697152,8671,12141,18444,9127548,1811826,-3770260,0,0,0,279,436,237,341,380,395,321,294,291,111,109,207,0,
1,1775671697168,-2675,311,10624,183259,282219,-18325,0,0,0,338,320,269,400,213,365,553,523,330,485,482,247,0,
2,1775671697168,6690,13984,11792,7584502,625526,-4416555,0,0,0,277,438,237,340,379,393,320,302,286,112,112,204,0,
1,1775671697184,-2613,1062,10375,131946,273667,10995,0,0,0,342,329,289,386,221,375,554,515,339,478,481,267,0,
2,1775671697184,1095,20732,9533,2846632,-1187522,-3174055,0,0,0,269,438,234,342,381,393,319,301,276,112,111,201,0,
1,1775671697200,-2287,1091,9906,273667,167377,17104,0,0,0,345,334,312,390,226,393,549,496,351,471,470,285,0,
2,1775671697200,1024,21895,8470,-2905275,-2323731,-641408,0,0,0,267,438,233,344,381,393,319,298,275,114,113,204,0,
1,1775671697216,-2139,808,9973,361632,58643,31764,0,0,0,342,335,322,392,222,399,547,472,362,468,451,298,0,
2,1775671697216,5049,13496,8743,-6322455,-2408030,1081231,0,0,0,268,441,237,343,379,391,318,297,274,113,111,204,0,
1,1775671697232,-2321,689,9514,329867,-34208,54977,0,0,0,341,336,319,395,223,403,544,458,372,454,444,314,0,
2,1775671697232,8245,4345,7882,-7298617,-1935221,1342681,0,0,0,261,441,233,347,385,397,327,306,277,115,113,203,0,
1,1775671697248,-2330,780,9370,359188,-166155,68416,0,0,0,339,337,315,400,227,408,539,444,378,437,429,329,0,
2,1775671697248,8528,1909,5943,-6449515,-1274264,433714,0,0,0,259,443,234,345,386,398,328,307,278,115,116,205,0,
1,1775671697264,-2225,914,9796,477696,-307876,63529,0,0,0,337,338,298,398,230,406,538,425,375,429,403,338,0,
2,1775671697264,7776,2723,5910,-6225938,-531452,-243124,0,0,0,260,444,234,349,388,402,329,311,281,115,115,204,0,
1,1775671697280,-2373,722,9758,516791,-345749,57421,0,0,0,338,341,275,400,240,401,540,407,367,425,383,342,0,
2,1775671697280,6479,3330,7877,-6574131,68416,-371406,0,0,0,259,443,233,349,386,401,329,308,275,116,117,202,0,
1,1775671697296,-2555,502,9451,474031,-298102,63529,0,0,0,341,348,275,404,254,400,524,384,371,415,361,346,0,
2,1775671697296,5187,3350,10050,-6885672,422718,-31764,0,0,0,262,446,237,348,385,398,328,310,275,113,115,198,0,
1,1775671697312,-2660,406,9327,408057,-204028,80634,0,0,0,334,354,279,397,263,404,488,361,382,394,353,355,0,
2,1775671697312,5479,3019,11112,-6916216,692721,642630,0,0,0,260,445,235,351,387,400,327,310,274,117,116,198,0,
1,1775671697328,-2665,392,9370,366519,-119729,97738,0,0,0,342,359,266,418,274,397,532,388,376,384,348,358,0,
2,1775671697328,6475,2646,12165,-6944316,1219287,1207069,0,0,0,258,443,231,352,390,401,328,310,273,117,117,199,0,
1,1775671697344,-2569,368,9413,338419,-52534,109955,0,0,0,336,360,268,398,286,408,538,372,381,381,342,363,0,
2,1775671697344,6307,2048,14333,-7004180,1872912,1490511,0,0,0,257,444,232,349,391,399,330,312,275,117,118,199,0,
1,1775671697360,-2412,339,9485,311541,-31764,109955,0,0,0,341,358,263,409,282,407,537,359,378,368,331,370,0,
2,1775671697360,5498,1258,16898,-6987076,2287079,1629788,0,0,0,256,446,235,349,389,400,331,313,277,117,116,199,0,
1,1775671697376,-2321,339,9614,300545,-45204,103847,0,0,0,341,343,264,409,258,415,534,341,381,368,324,392,0,
2,1775671697376,4881,583,19262,-6883229,2384817,1623679,0,0,0,256,445,236,352,389,403,333,312,279,116,115,201,0,
1,1775671697392,-2330,339,9734,313984,-80634,95294,0,0,0,347,352,272,417,259,433,533,330,390,364,313,402,0,
2,1775671697392,4891,478,21923,-6807482,2310292,1501506,0,0,0,258,446,237,352,388,403,334,311,280,117,116,203,0,
1,1775671697408,-2364,277,9830,356745,-130725,92851,0,0,0,347,352,271,420,268,435,536,316,397,354,300,412,0,
2,1775671697408,5570,598,25226,-6831916,2251649,1384220,0,0,0,258,444,238,349,384,400,334,309,282,115,113,203,0,
1,1775671697424,-2464,201,9868,412944,-195476,103847,0,0,0,354,353,273,430,270,439,541,295,400,350,279,434,0,
2,1775671697424,6585,-564,29002,-6894225,2351831,1403768,0,0,0,258,445,239,354,388,404,337,308,283,115,113,201,0,
1,1775671697440,-2641,114,9786,467922,-246789,140499,0,0,0,366,354,277,430,277,452,538,275,409,340,255,452,0,
2,1775671697440,7016,-4072,31892,-6868568,2532647,1545489,0,0,0,258,445,239,354,388,407,339,305,286,116,113,208,0,
1,1775671697456,-2799,38,9743,516791,-273667,190589,0,0,0,365,358,280,434,285,465,528,261,416,324,242,465,0,
2,1775671697456,5565,-11146,32495,-6594901,2874731,1756848,0,0,0,261,445,234,358,390,406,344,304,286,123,116,209,0,
1,1775671697472,-2948,0,9873,575435,-279776,254119,0,0,0,362,363,280,443,296,483,526,246,420,310,229,487,0,
2,1775671697472,1622,-22378,30375,-5745798,2907718,1759291,0,0,0,265,445,233,363,392,407,345,304,288,121,116,205,0,
1,1775671697488,-3043,0,10222,691499,-250454,328645,0,0,0,374,369,271,453,313,507,528,234,426,302,211,517,0,
2,1775671697488,-2244,-34620,24512,-4342030,2315179,1365894,0,0,0,266,446,233,363,391,407,350,305,294,125,119,209,0,
1,1775671697504,-3043,-43,10758,868650,-212581,387288,0,0,0,388,383,259,473,328,525,513,229,434,299,200,539,0,
2,1775671697504,-5709,-43215,17511,-2614503,1661553,434936,0,0,0,265,444,234,364,391,407,353,310,296,125,119,209,0,
1,1775671697520,-2900,-114,11591,1174082,-206472,425162,0,0,0,399,386,258,472,335,536,498,219,444,297,189,555,0,
2,1775671697520,-9997,-45321,15324,-884532,996932,-830776,0,0,0,264,442,231,362,391,407,358,327,295,125,125,205,0,
1,1775671697536,-2536,-272,12151,1550375,-249233,433714,0,0,0,400,403,250,469,346,540,460,203,451,279,178,564,0,
2,1775671697536,-11318,-40813,16779,536339,8552,-1500285,0,0,0,249,430,224,357,388,400,388,414,291,138,176,197,0,
1,1775671697552,-2215,-449,12486,1919338,-381179,397062,0,0,0,407,405,229,475,368,558,441,201,439,264,178,570,0,
2,1775671697552,-9341,-23704,21966,2120924,-1528384,-1238834,0,0,0,248,388,192,343,360,375,437,467,272,160,230,186,0,
1,1775671697568,-3067,-421,13103,2367713,-571769,397062,0,0,0,402,412,212,462,389,536,382,191,458,262,166,573,0,
2,1775671697568,957,10122,17779,3726277,-4030488,245567,0,0,0,252,366,180,342,345,377,474,484,276,180,279,184,0,
1,1775671697584,-4259,-440,13878,2915048,-592539,574213,0,0,0,394,410,201,488,367,548,343,186,463,238,148,580,0,
2,1775671697584,5168,15448,9964,4594928,-4505742,1285260,0,0,0,257,368,183,350,343,390,492,509,284,252,373,178,0,
1,1775671697600,-5068,-454,14955,3585778,-516791,840550,0,0,0,400,408,215,491,362,558,282,156,474,232,131,572,0,
2,1775671697600,-2684,851,15553,5408600,-2456899,1280373,0,0,0,260,378,193,357,341,395,507,537,286,336,454,179,0,
1,1775671697616,-5896,-95,16740,4469090,-395840,1200961,0,0,0,406,404,214,495,362,531,286,140,470,212,102,549,0,
2,1775671697616,-8097,-4197,24345,5418374,-487470,332310,0,0,0,263,391,221,367,347,408,529,554,301,369,473,193,0,
1,1775671697632,-7465,430,19751,5415931,-329867,1618792,0,0,0,388,426,205,467,373,501,251,134,449,189,100,487,0,
2,1775671697632,-1225,157,23522,4219857,-59864,-553443,0,0,0,275,417,259,385,368,430,548,562,319,345,443,218,0,
1,1775671697648,-10452,263,24450,6475171,-375071,2169793,0,0,0,360,401,199,421,349,464,213,126,410,170,99,396,0,
2,1775671697648,4278,1517,16826,2616946,-207694,-256563,0,0,0,296,453,293,406,390,447,560,562,316,294,380,261,0,
1,1775671697664,-12184,210,28705,7389025,-259006,2744006,0,0,0,310,365,191,360,307,418,190,139,367,145,106,311,0,
2,1775671697664,2775,0,11213,1291369,-197920,328645,0,0,0,322,465,306,416,398,460,572,575,323,354,429,290,0,
1,1775671697680,-12668,1072,30543,8037764,-51312,3220481,0,0,0,260,339,184,312,270,358,215,192,323,130,144,212,0,
2,1775671697680,765,-559,10069,569326,-103847,270002,0,0,0,359,479,322,427,409,466,573,573,333,310,383,317,0,
1,1775671697696,-12768,4139,30514,8405505,-36651,3728721,0,0,0,239,303,189,281,225,303,274,238,287,137,186,133,0,
2,1775671697696,947,114,10437,293215,-202807,62308,0,0,0,383,487,342,426,407,463,581,588,330,286,350,331,0,
1,1775671697712,-11935,7896,24043,8437270,201585,4184426,0,0,0,240,277,201,261,189,287,304,247,277,151,205,120,0,
2,1775671697712,1277,880,10442,179594,-284663,-1221,0,0,0,386,490,324,431,412,468,580,580,338,270,330,347,0,
1,1775671697728,-12289,10351,14079,8409170,668286,4553389,0,0,0,236,285,207,263,191,293,306,258,285,154,221,124,0,
2,1775671697728,1273,1225,10270,127059,-250454,6108,0,0,0,396,490,330,432,414,468,587,587,335,256,310,363,0,
1,1775671697744,-12045,14199,9380,6699969,432492,4582711,0,0,0,230,288,208,266,193,297,304,254,278,156,220,126,0,
2,1775671697744,1167,1306,10265,179594,-200363,6108,0,0,0,406,493,329,431,412,463,587,581,348,258,297,370,0,
1,1775671697760,-6245,19224,9906,1761735,48869,2857627,0,0,0,231,294,214,263,197,301,304,254,277,156,219,132,0,
2,1775671697760,1005,1330,10351,315206,-173485,-19547,0,0,0,418,497,329,438,418,470,582,568,340,259,277,386,0,
1,1775671697776,-1761,17956,9973,-3367089,857654,85521,0,0,0,232,296,216,259,198,298,310,259,275,157,218,133,0,
2,1775671697776,871,1340,10346,420275,-89186,-29321,0,0,0,431,501,329,441,419,475,578,549,337,259,258,399,0,
1,1775671697792,-4355,10308,7298,-5068959,2057394,-1492954,0,0,0,229,296,221,261,198,304,315,260,281,161,220,136,0,
2,1775671697792,899,1287,10260,485026,35430,-19547,0,0,0,437,504,331,442,422,477,576,530,344,255,242,406,0,
1,1775671697808,-7920,5742,4804,-5156924,1901012,-1511280,0,0,0,232,299,218,266,201,303,316,259,278,168,224,135,0,
2,1775671697808,1048,1091,10064,524122,119729,-8552,0,0,0,437,506,331,442,424,481,569,510,359,249,225,413,0,
1,1775671697824,-8628,4704,4120,-5059185,574213,-758694,0,0,0,233,299,220,269,201,306,315,262,281,166,225,134,0,
2,1775671697824,1167,890,9906,525344,136833,-6108,0,0,0,437,508,331,442,424,484,561,490,360,247,210,422,0,
1,1775671697840,-5805,4900,5675,-5287649,-282219,-289550,0,0,0,234,298,224,275,201,309,318,264,284,169,227,137,0,
2,1775671697840,1292,794,9863,493579,97738,-8552,0,0,0,442,512,333,445,428,487,556,473,357,245,197,430,0,
1,1775671697856,-3431,4986,7791,-5660277,-335975,-245567,0,0,0,229,296,232,270,199,314,317,263,288,166,226,140,0,
2,1775671697856,1402,708,9873,453262,28099,-15882,0,0,0,446,516,334,451,432,493,552,460,360,243,188,438,0,
1,1775671697872,-3814,4790,9365,-6111095,-202807,-568104,0,0,0,227,295,241,265,199,320,315,261,292,163,226,141,0,
