sole_id,timestamp,accel_x,accel_y,accel_z,gyro_x,gyro_y,gyro_z,magn_x,magn_y,magn_z,pressure_01,pressure_02,pressure_03,pressure_04,pressure_05,pressure_06,pressure_07,pressure_08,pressure_09,pressure_10,pressure_11,pressure_12,corrupt,concrete
1,1775672083088,-1890,320,9753,24434,-34208,10995,0,0,0,353,384,296,399,277,439,482,322,365,354,337,303,0,
2,1775672083088,1191,928,9897,21991,-58643,-14660,0,0,0,477,516,350,473,433,517,606,516,380,271,226,423,0,
1,1775672083104,-1890,315,9758,17104,-34208,10995,0,0,0,353,384,295,397,279,438,483,322,366,354,337,307,0,
2,1775672083104,1191,933,9897,21991,-52534,-15882,0,0,0,477,517,351,469,431,513,606,517,380,269,223,423,0,
1,1775672083120,-1890,325,9767,14660,-35430,9773,0,0,0,351,386,294,395,278,438,480,318,365,352,335,311,0,
2,1775672083120,1191,928,9916,24434,-52534,-15882,0,0,0,479,518,352,467,428,509,603,515,379,266,220,420,0,
1,1775672083136,-1895,349,9810,28099,-36651,9773,0,0,0,351,386,294,395,278,438,480,317,364,354,335,312,0,
2,1775672083136,1196,933,9930,28099,-53756,-15882,0,0,0,480,519,353,471,431,511,602,515,378,264,218,418,0,
1,1775672083152,-1914,363,9858,51312,-34208,14660,0,0,0,351,385,294,397,279,439,474,312,361,353,329,313,0,
2,1775672083152,1201,938,9935,32986,-54977,-15882,0,0,0,479,518,352,473,432,513,601,512,376,264,217,418,0,
1,1775672083168,-1928,368,9877,81855,-29321,23212,0,0,0,351,384,294,396,286,441,472,312,364,353,326,325,0,
2,1775672083168,1206,923,9940,37873,-56199,-15882,0,0,0,478,517,352,470,429,512,597,507,372,265,219,419,0,
1,1775672083184,-1899,344,9849,108734,-25656,29321,0,0,0,347,384,293,394,281,440,473,314,370,353,323,327,0,
2,1775672083184,1206,904,9940,41538,-58643,-17104,0,0,0,481,520,357,467,429,511,595,506,370,266,219,420,0,
1,1775672083200,-1866,320,9839,136833,-30543,31764,0,0,0,349,385,293,394,281,443,480,308,370,354,317,336,0,
2,1775672083200,1201,904,9949,46425,-62308,-18325,0,0,0,483,522,358,466,427,508,601,513,375,267,219,421,0,
1,1775672083216,-1856,291,9858,163711,-41538,32986,0,0,0,347,383,285,394,275,435,475,299,375,351,310,333,0,
2,1775672083216,1201,904,9944,48869,-65973,-18325,0,0,0,479,518,353,472,432,515,601,512,375,267,217,422,0,
1,1775672083232,-1866,244,9863,184481,-54977,29321,0,0,0,347,383,283,399,276,443,471,296,368,345,298,342,0,
2,1775672083232,1196,904,9920,51312,-68416,-19547,0,0,0,479,518,353,472,432,515,601,511,377,268,219,424,0,
1,1775672083248,-1880,201,9830,191811,-68416,25656,0,0,0,353,383,281,418,276,441,477,293,366,346,287,351,0,
2,1775672083248,1182,894,9897,52534,-69638,-18325,0,0,0,478,517,350,469,431,512,603,514,380,268,218,424,0,
1,1775672083264,-1914,162,9767,180816,-78190,26878,0,0,0,357,381,282,429,274,439,478,297,369,339,274,356,0,
2,1775672083264,1172,885,9892,50090,-64751,-17104,0,0,0,477,517,350,475,435,515,601,511,376,264,215,420,0,
1,1775672083280,-1923,143,9753,167377,-80634,31764,0,0,0,358,380,283,435,271,442,474,300,369,330,264,359,0,
2,1775672083280,1172,880,9887,43982,-59864,-15882,0,0,0,481,521,355,475,434,516,600,511,376,263,213,420,0,
1,1775672083296,-1928,114,9777,160046,-76969,34208,0,0,0,358,377,284,429,268,451,469,295,371,326,260,363,0,
2,1775672083296,1177,871,9892,34208,-56199,-14660,0,0,0,480,520,352,471,432,515,569,496,380,262,213,420,0,
1,1775672083312,-1914,76,9763,144164,-72082,31764,0,0,0,354,375,286,416,268,460,464,290,374,326,258,369,0,
2,1775672083312,1182,871,9906,28099,-51312,-13439,0,0,0,480,520,354,471,433,515,593,508,380,262,213,420,0,
1,1775672083328,-1890,62,9758,125838,-73303,28099,0,0,0,350,374,286,413,270,463,462,287,371,323,256,373,0,
2,1775672083328,1182,890,9920,28099,-46425,-13439,0,0,0,481,521,355,471,433,513,602,512,377,265,217,422,0,
1,1775672083344,-1895,28,9758,109955,-83077,20769,0,0,0,344,370,285,400,270,463,463,289,375,315,256,374,0,
2,1775672083344,1182,894,9925,29321,-41538,-13439,0,0,0,480,520,355,471,432,513,602,512,377,267,217,425,0,
1,1775672083360,-1933,0,9748,94073,-85521,13439,0,0,0,346,370,283,397,270,462,459,288,374,313,260,376,0,
2,1775672083360,1182,885,9920,30543,-37873,-13439,0,0,0,479,518,355,470,432,512,586,506,382,263,214,422,0,
1,1775672083376,-1990,0,9705,69638,-72082,9773,0,0,0,346,372,283,400,270,462,459,290,378,313,263,374,0,
2,1775672083376,1191,866,9911,25656,-37873,-13439,0,0,0,479,519,356,468,431,511,582,503,382,263,214,420,0,
1,1775672083392,-2000,-4,9652,32986,-51312,10995,0,0,0,346,372,284,403,277,468,465,292,383,312,257,374,0,
2,1775672083392,1201,866,9906,19547,-39095,-14660,0,0,0,480,520,356,468,430,510,603,513,376,269,218,424,0,
1,1775672083408,-1962,-4,9638,-4886,-36651,13439,0,0,0,346,374,282,402,277,462,459,289,375,312,257,369,0,
2,1775672083408,1210,871,9906,13439,-45204,-18325,0,0,0,478,518,354,470,433,513,605,516,381,269,217,423,0,
1,1775672083424,-1933,4,9681,-36651,-32986,8552,0,0,0,345,373,286,398,273,462,460,290,375,311,257,369,0,
2,1775672083424,1210,871,9906,7330,-52534,-19547,0,0,0,479,518,353,471,433,515,605,516,381,269,218,424,0,
1,1775672083440,-1947,28,9758,-59864,-32986,4886,0,0,0,337,369,285,400,273,464,461,291,384,310,257,367,0,
2,1775672083440,1210,875,9901,1221,-58643,-20769,0,0,0,482,522,356,472,434,515,605,519,381,269,222,424,0,
1,1775672083456,-1962,47,9796,-68416,-29321,3665,0,0,0,349,365,286,410,267,466,465,293,388,315,258,367,0,
2,1775672083456,1210,885,9906,0,-63529,-20769,0,0,0,481,520,355,485,448,522,598,526,388,271,225,425,0,
1,1775672083472,-1971,76,9820,-68416,-24434,7330,0,0,0,345,364,290,406,262,474,464,293,389,317,262,367,0,
2,1775672083472,1196,894,9925,0,-65973,-21991,0,0,0,481,520,353,474,436,515,604,518,381,269,225,424,0,
1,1775672083488,-1966,105,9849,-65973,-25656,12217,0,0,0,335,362,286,397,260,467,465,293,381,314,264,359,0,
2,1775672083488,1191,909,9954,1221,-64751,-25656,0,0,0,479,516,360,475,436,518,602,515,380,267,218,419,0,
1,1775672083504,-1962,110,9849,-56199,-28099,12217,0,0,0,330,356,277,393,255,449,469,295,371,312,262,345,0,
2,1775672083504,1196,899,9944,1221,-68416,-24434,0,0,0,479,518,357,473,434,515,598,510,376,269,222,424,0,
1,1775672083520,-1957,105,9815,-52534,-29321,13439,0,0,0,327,348,275,392,249,441,468,295,366,311,264,332,0,
2,1775672083520,1191,894,9906,0,-72082,-23212,0,0,0,480,517,351,470,430,510,599,512,378,272,224,425,0,
1,1775672083536,-1938,90,9801,-59864,-29321,14660,0,0,0,323,343,271,391,245,433,470,298,363,311,267,311,0,
2,1775672083536,1177,899,9887,-7330,-69638,-21991,0,0,0,481,518,353,472,432,510,600,509,378,272,226,427,0,
1,1775672083552,-1928,67,9796,-76969,-31764,10995,0,0,0,318,338,265,386,241,420,473,304,358,313,274,279,0,
2,1775672083552,1177,909,9897,-12217,-64751,-20769,0,0,0,483,520,355,472,434,510,602,508,381,272,225,427,0,
1,1775672083568,-1933,43,9743,-112399,-32986,6108,0,0,0,318,334,265,375,235,410,467,309,350,317,288,250,0,
2,1775672083568,1182,914,9901,-15882,-63529,-18325,0,0,0,488,521,353,471,434,510,601,507,382,276,226,425,0,
1,1775672083584,-1895,86,9705,-166155,-32986,0,0,0,0,317,329,267,362,225,396,463,320,350,319,292,229,0,
2,1775672083584,1186,914,9901,-26878,-67195,-14660,0,0,0,488,521,354,470,435,510,596,508,379,273,228,424,0,
1,1775672083600,-1847,134,9734,-219911,-45204,-2443,0,0,0,300,331,259,352,229,367,454,324,342,316,301,180,0,
2,1775672083600,1186,923,9901,-41538,-74525,-10995,0,0,0,487,523,355,464,431,505,596,512,379,265,224,424,0,
1,1775672083616,-1775,177,9863,-278554,-78190,2443,0,0,0,286,319,257,342,218,357,446,326,323,311,304,151,0,
2,1775672083616,1196,942,9892,-53756,-81855,-8552,0,0,0,489,525,357,461,429,503,598,513,376,262,220,424,0,
1,1775672083632,-1727,177,10026,-351858,-135612,25656,0,0,0,277,314,258,331,212,353,446,331,320,307,310,139,0,
2,1775672083632,1201,957,9887,-54977,-85521,-6108,0,0,0,491,525,364,467,434,508,597,513,373,263,223,423,0,
1,1775672083648,-1765,181,10155,-427605,-202807,75747,0,0,0,264,311,255,323,209,346,445,335,320,306,314,131,0,
2,1775672083648,1186,976,9944,-53756,-89186,-4886,0,0,0,496,527,372,467,433,508,599,521,374,263,224,422,0,
1,1775672083664,-1789,201,10227,-477696,-208915,179594,0,0,0,260,310,251,318,209,340,443,338,318,298,313,128,0,
2,1775672083664,1158,1000,9992,-42760,-84299,-2443,0,0,0,493,526,370,469,436,510,597,523,375,263,224,422,0,
1,1775672083680,-1612,-325,10327,-518013,-169820,360410,0,0,0,258,321,255,307,224,333,439,337,310,290,315,122,0,
2,1775672083680,1153,1014,10007,-30543,-73303,0,0,0,0,497,529,370,474,440,514,597,522,380,264,230,422,0,
1,1775672083696,-670,-1785,10610,-570548,-69638,855211,0,0,0,259,318,261,302,215,332,428,332,307,283,315,123,0,
2,1775672083696,1167,1014,9987,-15882,-62308,0,0,0,0,493,525,365,469,438,509,593,518,370,265,231,422,0,
1,1775672083712,430,-2713,11208,-706160,109955,1715309,0,0,0,256,311,268,299,203,339,421,328,312,279,311,127,0,
2,1775672083712,1167,1014,9954,-8552,-56199,0,0,0,0,491,524,365,466,435,507,593,519,371,265,230,420,0,
1,1775672083728,1359,-2598,11998,-1054353,547335,3050661,0,0,0,255,313,269,296,204,340,412,327,315,274,305,130,0,
2,1775672083728,1167,1014,9930,-7330,-54977,0,0,0,0,501,533,380,474,444,515,594,521,374,265,230,419,0,
1,1775672083744,607,-1876,11423,-1389107,1121548,4008497,0,0,0,255,318,265,294,208,336,400,327,314,264,298,132,0,
2,1775672083744,1177,1019,9930,-8552,-56199,0,0,0,0,500,535,376,471,449,512,600,529,377,292,271,414,0,
1,1775672083760,-1359,-1751,10174,-1507615,1367116,4630358,0,0,0,250,320,264,290,212,334,394,332,310,255,298,132,0,
2,1775672083760,1182,1033,9940,-7330,-61086,0,0,0,0,496,534,376,468,451,509,594,525,376,374,368,399,0,
1,1775672083776,-2531,-2632,9585,-1348790,1216843,4759861,0,0,0,250,321,264,289,216,332,389,339,304,249,307,131,0,
2,1775672083776,1186,1038,9944,-4886,-67195,0,0,0,0,496,531,378,470,446,511,589,523,374,426,420,392,0,
1,1775672083792,-2842,-3900,9571,-1083674,1116661,4616919,0,0,0,251,321,268,288,211,331,382,322,303,245,301,129,0,
2,1775672083792,1172,1048,9949,0,-72082,0,0,0,0,497,529,374,472,442,510,591,529,372,358,346,402,0,
1,1775672083808,-2627,-4766,10002,-675616,1081231,4144109,0,0,0,250,321,267,287,211,331,382,322,304,247,304,130,0,
2,1775672083808,1162,1057,9954,0,-70860,0,0,0,0,499,529,372,469,441,506,589,529,368,346,332,403,0,
1,1775672083824,-2636,-4125,10208,-295658,926071,3508809,0,0,0,250,321,265,288,211,333,387,318,304,253,293,133,0,
2,1775672083824,1158,1062,9944,2443,-63529,0,0,0,0,501,532,376,465,439,504,588,525,368,405,389,394,0,
1,1775672083840,-2244,-3000,10179,-24434,680503,2946813,0,0,0,248,319,274,287,211,333,383,316,304,255,297,133,0,
2,1775672083840,1158,1048,9925,0,-61086,1221,0,0,0,503,534,378,465,440,504,592,528,371,370,348,399,0,
1,1775672083856,-1541,-2153,10098,111177,574213,2643824,0,0,0,246,321,265,286,212,333,383,320,305,251,299,133,0,
2,1775672083856,1167,1043,9916,-3665,-64751,2443,0,0,0,501,534,375,470,442,504,591,533,372,312,285,406,0,
1,1775672083872,-1119,-1474,10078,193033,552222,2461786,0,0,0,245,322,261,287,215,331,385,324,306,245,296,132,0,
2,1775672083872,1158,1057,9911,-7330,-69638,2443,0,0,0,499,533,373,473,445,507,595,536,375,277,249,411,0,
1,1775672083888,-909,-818,10074,213802,574213,2346944,0,0,0,244,325,268,283,213,347,383,326,317,246,300,139,0,
2,1775672083888,1153,1076,9920,-4886,-70860,3665,0,0,0,501,535,376,473,446,507,592,531,371,331,308,404,0,
1,1775672083904,-890,-473,9959,178372,632856,2371378,0,0,0,245,328,267,282,216,340,378,325,312,250,306,135,0,
2,1775672083904,1158,1091,9949,2443,-70860,4886,0,0,0,500,533,378,474,445,510,582,521,367,417,402,389,0,
1,1775672083920,-866,-172,9863,151494,734260,2513099,0,0,0,245,328,265,282,218,332,374,326,306,252,311,132,0,
2,1775672083920,1162,1086,9959,10995,-72082,4886,0,0,0,500,533,383,470,440,504,586,525,369,379,361,393,0,
1,1775672083936,-904,167,9901,112399,883311,2708576,0,0,0,243,327,265,281,217,335,372,326,309,250,310,132,0,
2,1775672083936,1158,1076,9954,15882,-73303,4886,0,0,0,498,533,382,472,446,505,592,529,370,408,391,386,0,
1,1775672083952,-1191,430,9844,48869,1045801,2868623,0,0,0,242,327,267,280,217,337,370,325,311,249,308,132,0,
2,1775672083952,1134,1072,9940,17104,-70860,6108,0,0,0,499,534,383,469,444,504,583,517,364,445,431,378,0,
1,1775672083968,-1742,564,9633,-9773,1152091,2985909,0,0,0,244,329,265,280,219,335,368,327,310,248,308,133,0,
2,1775672083968,1134,1072,9940,15882,-63529,6108,0,0,0,502,536,386,466,440,503,585,523,367,441,426,380,0,
1,1775672083984,-2464,583,9375,-31764,1178969,3054326,0,0,0,240,333,259,281,225,332,368,329,307,248,308,131,0,
2,1775672083984,1162,1076,9954,14660,-63529,4886,0,0,0,499,535,379,469,442,503,586,526,365,414,396,382,0,
1,1775672084000,-3287,545,9155,-36651,1141096,3084869,0,0,0,240,338,259,279,232,332,365,331,307,252,312,134,0,
2,1775672084000,1167,1076,9959,10995,-69638,3665,0,0,0,500,536,376,472,446,505,589,532,364,337,314,391,0,
1,1775672084016,-4096,440,9011,-40317,983493,3094643,0,0,0,250,338,260,283,229,332,366,331,310,251,310,131,0,
2,1775672084016,1148,1076,9944,6108,-72082,3665,0,0,0,505,539,379,473,446,504,592,533,362,311,286,397,0,
1,1775672084032,-4426,306,8930,-39095,791681,3081204,0,0,0,247,338,263,281,223,334,363,332,317,251,311,132,0,
2,1775672084032,1139,1081,9930,2443,-73303,4886,0,0,0,507,541,380,471,445,501,591,533,360,300,275,400,0,
1,1775672084048,-4216,253,8911,19547,561996,2998126,0,0,0,238,335,263,280,228,337,357,325,310,252,313,131,0,
2,1775672084048,1139,1081,9911,-1221,-75747,6108,0,0,0,506,541,379,470,444,499,591,534,358,277,252,399,0,
1,1775672084064,-3737,354,9002,140499,344527,2829527,0,0,0,244,338,266,279,223,333,361,329,312,251,314,132,0,
2,1775672084064,1139,1086,9906,-8552,-78190,7330,0,0,0,505,540,377,469,444,498,592,535,360,285,258,394,0,
1,1775672084080,-3168,555,9131,291993,174707,2574186,0,0,0,242,339,270,276,223,333,359,330,310,247,311,133,0,
2,1775672084080,1129,1095,9911,-17104,-78190,9773,0,0,0,501,536,374,466,443,494,592,537,363,267,241,391,0,
1,1775672084096,-3110,1124,9097,450818,0,2210110,0,0,0,244,342,263,279,228,334,355,328,310,251,309,130,0,
2,1775672084096,1124,1110,9920,-23212,-75747,10995,0,0,0,508,543,384,466,444,493,592,538,357,265,237,388,0,
1,1775672084112,-4527,3651,8868,453262,-410501,1876578,0,0,0,252,342,263,284,231,334,355,326,307,253,305,132,0,
2,1775672084112,1129,1119,9940,-26878,-74525,13439,0,0,0,499,536,377,466,445,489,589,538,351,260,234,384,0,
1,1775672084128,-5297,8188,8265,79412,-1028697,1569923,0,0,0,269,339,262,290,224,329,366,326,295,264,308,132,0,
2,1775672084128,1139,1134,9973,-28099,-75747,14660,0,0,0,500,536,383,462,445,488,590,539,352,259,234,379,0,
1,1775672084144,-2589,10074,8647,-456927,-1247386,1331686,0,0,0,291,339,268,299,215,323,381,331,283,289,317,132,0,
2,1775672084144,1143,1143,9997,-23212,-76969,12217,0,0,0,502,539,389,469,452,491,579,535,351,256,233,370,0,
1,1775672084160,3086,6728,11576,-664621,-1225395,905302,0,0,0,305,343,277,299,213,319,385,335,274,300,324,135,0,
2,1775672084160,1129,1167,10040,-12217,-79412,9773,0,0,0,499,539,388,467,453,492,586,540,349,259,240,369,0,
1,1775672084176,3785,2110,12136,-273667,-1510058,211359,0,0,0,306,348,276,296,222,317,382,334,266,296,327,140,0,
2,1775672084176,1119,1186,10035,10995,-79412,6108,0,0,0,492,532,379,465,452,487,588,548,348,260,245,363,0,
1,1775672084192,765,808,10591,257785,-2072054,-151494,0,0,0,316,349,274,313,240,319,386,331,263,307,325,152,0,
2,1775672084192,1100,1172,9949,34208,-79412,3665,0,0,0,495,535,381,460,450,483,588,550,344,259,245,358,0,
1,1775672084208,-2378,847,9911,544891,-2365270,-166155,0,0,0,329,352,278,331,236,330,387,321,271,319,314,168,0,
2,1775672084208,1081,1143,9906,34208,-73303,2443,0,0,0,497,538,382,461,447,486,588,547,336,254,241,345,0,
1,1775672084224,-3589,-344,10600,277332,-1821600,-254119,0,0,0,334,345,293,339,232,358,401,317,296,318,313,197,0,
2,1775672084224,1091,1129,9940,31764,-69638,2443,0,0,0,492,537,376,457,447,480,584,544,332,254,244,338,0,
1,1775672084240,-3661,-531,10533,-24434,-1171639,-282219,0,0,0,346,345,296,352,273,358,415,320,305,331,320,220,0,
2,1775672084240,1115,1129,9987,32986,-67195,2443,0,0,0,489,536,377,455,450,478,580,544,331,255,247,334,0,
1,1775672084256,-2847,143,10198,-193033,-575435,-175929,0,0,0,366,346,288,360,228,377,433,320,318,339,316,224,0,
2,1775672084256,1115,1134,9983,39095,-67195,1221,0,0,0,487,534,373,452,448,473,577,543,327,253,248,328,0,
1,1775672084272,-2129,612,10011,-212581,-287106,-89186,0,0,0,350,347,309,354,228,393,441,326,318,338,332,232,0,
2,1775672084272,1095,1139,9959,45204,-68416,0,0,0,0,487,533,366,450,449,465,574,544,324,251,250,323,0,
1,1775672084288,-1938,674,9964,-174707,-191811,-64751,0,0,0,346,349,315,358,229,400,445,320,334,350,330,242,0,
2,1775672084288,1076,1139,9954,48869,-63529,0,0,0,0,489,537,365,453,455,463,570,545,323,250,249,317,0,
1,1775672084304,-2077,593,9920,-133168,-145385,-58643,0,0,0,350,352,319,364,234,401,449,323,330,346,334,243,0,
2,1775672084304,1067,1129,9959,52534,-56199,0,0,0,0,484,534,359,449,450,460,569,543,315,247,244,309,0,
1,1775672084320,-2043,607,9873,-96516,-100181,-42760,0,0,0,349,356,319,366,237,397,457,329,323,347,337,245,0,
2,1775672084320,1067,1110,9973,57421,-51312,0,0,0,0,476,529,349,441,444,449,565,543,314,244,243,300,0,
1,1775672084336,-1842,655,9777,-72082,-91629,-40317,0,0,0,348,360,322,364,249,395,462,341,326,352,342,250,0,
2,1775672084336,1067,1081,9987,61086,-40317,0,0,0,0,472,529,349,439,439,439,555,536,301,241,243,285,0,
1,1775672084352,-1775,603,9681,-76969,-112399,-56199,0,0,0,350,357,324,366,250,398,472,349,333,368,341,256,0,x
2,1775672084352,1067,1057,9992,59864,-30543,0,0,0,0,457,521,342,439,435,438,546,537,298,233,244,245,0,x
1,1775672084368,-1890,521,9605,-114842,-130725,-73303,0,0,0,354,352,318,371,240,398,483,359,335,379,337,259,0,
2,1775672084368,1100,1038,10002,42760,-28099,6108,0,0,0,446,518,330,439,431,436,536,536,291,233,252,230,0,
1,1775672084384,-1976,569,9562,-157603,-108734,-72082,0,0,0,355,353,307,375,239,395,490,375,331,376,346,266,0,
2,1775672084384,1134,1038,10026,19547,-35430,10995,0,0,0,428,508,325,426,414,424,529,535,285,222,244,219,0,
1,1775672084400,-1995,660,9619,-190589,-79412,-63529,0,0,0,352,357,303,381,249,399,499,380,329,382,362,280,0,
2,1775672084400,1162,1048,10098,6108,-51312,15882,0,0,0,418,497,320,409,414,412,513,516,282,214,244,211,0,
1,1775672084416,-1995,722,9810,-196698,-81855,-53756,0,0,0,350,357,305,390,259,399,506,391,330,376,376,286,0,
2,1775672084416,1210,1076,10198,14660,-70860,21991,0,0,0,393,486,310,402,407,403,483,504,269,203,238,195,0,
1,1775672084432,-2024,765,9935,-178372,-116064,-43982,0,0,0,352,358,310,383,270,412,512,415,344,377,384,305,0,
2,1775672084432,1277,1086,10318,18325,-75747,41538,0,0,0,369,479,304,394,404,398,455,494,264,193,221,190,0,
1,1775672084448,-2057,818,9911,-142942,-152716,-32986,0,0,0,356,360,317,387,278,418,513,414,351,394,387,321,0,
2,1775672084448,1469,1162,10562,-14660,-75747,106290,0,0,0,355,474,298,388,400,398,432,480,256,186,210,192,0,
1,1775672084464,-2062,847,9820,-90408,-173485,-18325,0,0,0,357,357,317,390,262,421,517,405,351,397,400,330,0,
2,1775672084464,2742,2531,10945,-133168,-146607,441044,0,0,0,346,470,290,390,399,401,424,470,253,182,201,191,0,
1,1775672084480,-2077,832,9743,-50090,-189368,-4886,0,0,0,364,351,311,405,256,410,532,399,352,402,390,323,0,
2,1775672084480,5886,4115,11155,-311541,-293215,1340238,0,0,0,339,465,281,393,398,400,423,459,253,175,190,185,0,
1,1775672084496,-2139,794,9715,-36651,-191811,0,0,0,0,365,361,314,412,251,424,534,400,367,399,410,341,0,
2,1775672084496,8131,4044,10935,-397062,-575435,2691472,0,0,0,332,461,268,393,397,398,419,446,255,166,181,179,0,
1,1775672084512,-2230,799,9772,-32986,-182037,4886,0,0,0,366,365,311,415,256,417,539,419,362,398,425,342,0,
2,1775672084512,8121,3627,10342,-375071,-880867,4078136,0,0,0,326,458,258,391,397,396,419,436,259,162,175,179,0,
1,1775672084528,-2301,851,9882,-17104,-157603,13439,0,0,0,360,366,313,398,266,422,542,430,360,385,429,353,0,
2,1775672084528,6838,2957,9456,-284663,-982271,5396383,0,0,0,318,454,254,389,395,393,421,425,264,160,171,179,0,
1,1775672084544,-2282,890,9925,13439,-128281,25656,0,0,0,359,361,323,384,260,431,549,434,369,381,432,360,0,
2,1775672084544,6556,2153,9174,-184481,-708603,6390872,0,0,0,311,453,254,388,397,395,417,424,265,154,169,179,0,
1,1775672084560,-2220,880,9906,50090,-107512,37873,0,0,0,371,359,328,385,255,435,552,438,375,386,432,360,0,
2,1775672084560,8011,1134,8844,-70860,-178372,7149566,0,0,0,308,453,254,386,398,395,417,426,266,153,169,182,0,
1,1775672084576,-2191,847,9834,73303,-109955,42760,0,0,0,376,359,327,389,256,436,552,437,376,385,425,357,0,
2,1775672084576,9499,268,8753,64751,767246,7314500,0,0,0,313,451,259,386,399,397,418,424,268,151,168,182,0,
1,1775672084592,-2201,827,9753,95294,-117286,50090,0,0,0,363,357,326,388,257,435,557,433,376,378,418,359,0,
2,1775672084592,7642,459,9375,223576,1435533,6987076,0,0,0,299,451,254,385,399,399,420,423,270,149,164,183,0,
1,1775672084608,-2225,818,9710,112399,-120951,58643,0,0,0,357,356,325,395,265,438,562,434,374,376,412,366,0,
2,1775672084608,5671,1072,9552,322536,1494176,6514266,0,0,0,298,450,256,380,397,396,418,423,270,150,166,184,0,
1,1775672084624,-2225,789,9691,119729,-118507,64751,0,0,0,361,362,326,394,268,434,563,430,373,374,403,364,0,
2,1775672084624,5307,1325,9140,348193,1334129,5891184,0,0,0,297,450,255,378,393,393,411,417,268,150,167,185,0,
1,1775672084640,-2230,760,9676,122173,-116064,67195,0,0,0,366,368,339,387,266,441,559,431,382,370,393,374,0,
2,1775672084640,4953,1646,9088,371406,1236391,5152037,0,0,0,296,451,258,379,397,397,413,417,267,146,166,184,0,
1,1775672084656,-2249,741,9662,123394,-116064,68416,0,0,0,361,370,343,383,274,448,567,423,382,370,390,377,0,
2,1775672084656,4536,2297,9428,322536,1039692,4462981,0,0,0,297,452,259,378,397,396,416,418,268,148,166,183,0,
1,1775672084672,-2254,717,9662,120951,-116064,69638,0,0,0,361,367,332,379,270,454,568,413,393,374,385,385,0,
2,1775672084672,4891,2933,9485,107512,698829,3857003,0,0,0,296,452,259,379,397,396,415,415,266,150,167,185,0,
1,1775672084688,-2263,703,9662,116064,-108734,70860,0,0,0,354,365,322,386,274,442,563,405,409,384,387,402,0,
2,1775672084688,5891,3220,9198,-162490,474031,3304780,0,0,0,297,452,259,381,398,397,417,412,266,154,169,185,0,
1,1775672084704,-2273,684,9662,107512,-94073,70860,0,0,0,355,369,311,385,281,446,559,420,417,380,386,399,0,
2,1775672084704,6752,3292,9093,-397062,470366,2879618,0,0,0,296,452,260,381,399,396,417,414,269,154,171,185,0,
1,1775672084720,-2268,665,9676,100181,-86742,70860,0,0,0,358,375,307,388,281,448,559,414,395,379,383,401,0,
2,1775672084720,7523,3383,9207,-642630,546113,2539977,0,0,0,297,454,262,379,400,396,416,415,270,152,171,185,0,
1,1775672084736,-2263,655,9691,94073,-87964,70860,0,0,0,360,372,306,392,281,450,563,399,389,378,379,403,0,
2,1775672084736,8183,3297,9375,-882089,711047,2393370,0,0,0,298,454,262,379,399,396,416,415,269,150,169,185,0,
1,1775672084752,-2278,660,9700,87964,-87964,68416,0,0,0,357,367,300,394,283,460,565,395,394,379,379,413,0,
2,1775672084752,8403,2842,9447,-1047023,1023810,2397035,0,0,0,296,453,260,380,397,397,417,418,270,149,167,186,0,
1,1775672084768,-2316,665,9719,85521,-73303,64751,0,0,0,356,367,299,405,282,457,564,401,393,384,367,417,0,
2,1775672084768,8001,2502,9691,-1108109,1362229,2448347,0,0,0,296,453,261,379,397,397,417,421,272,148,167,186,0,
1,1775672084784,-2321,646,9715,87964,-57421,64751,0,0,0,362,369,304,409,281,448,563,400,388,385,351,415,0,
2,1775672084784,6996,2421,10246,-1137431,1671327,2497217,0,0,0,295,453,261,379,398,397,417,424,272,148,169,187,0,
1,1775672084800,-2292,626,9700,91629,-47647,65973,0,0,0,364,369,305,399,286,451,562,391,390,381,349,421,0,
2,1775672084800,5460,2421,10978,-1207069,1883908,2509434,0,0,0,294,453,261,379,397,397,417,423,273,148,168,186,0,
1,1775672084816,-2278,612,9696,95294,-45204,65973,0,0,0,359,367,305,400,292,454,565,384,399,378,344,428,0,
2,1775672084816,3953,2278,11500,-1288925,1964542,2505769,0,0,0,294,453,261,379,397,398,418,414,272,147,164,185,0,
1,1775672084832,-2287,603,9696,97738,-43982,65973,0,0,0,361,364,312,398,287,460,568,367,393,376,333,430,0,
2,1775672084832,2924,1933,11710,-1342681,1918116,2505769,0,0,0,290,453,259,378,397,398,420,415,273,147,164,184,0,
1,1775672084848,-2301,593,9710,105068,-40317,67195,0,0,0,388,360,316,405,279,456,550,358,391,379,325,437,0,
2,1775672084848,2139,1488,11816,-1379333,1848478,2519208,0,0,0,292,454,259,376,399,397,423,417,275,150,165,188,0,
1,1775672084864,-2306,583,9719,117286,-35430,70860,0,0,0,377,360,309,407,285,463,558,361,404,379,325,441,0,
2,1775672084864,1579,861,11864,-1386664,1758070,2572964,0,0,0,294,454,260,379,397,399,424,418,276,150,165,188,0,
1,1775672084880,-2301,559,9719,130725,-31764,73303,0,0,0,369,362,299,407,289,462,558,361,407,366,321,442,0,
2,1775672084880,1603,-4,11801,-1303586,1640784,2673146,0,0,0,296,454,263,378,395,397,422,416,274,150,165,188,0,
1,1775672084896,-2301,531,9710,136833,-31764,76969,0,0,0,365,367,299,403,285,462,561,349,412,370,316,446,0,
2,1775672084896,2081,-914,11667,-1155757,1545489,2769662,0,0,0,294,453,261,378,395,397,423,416,275,150,164,187,0,
1,1775672084912,-2316,512,9739,144164,-36651,80634,0,0,0,357,368,299,405,292,463,554,344,408,355,307,456,0,
2,1775672084912,2579,-1588,11481,-988379,1513724,2846632,0,0,0,290,450,258,380,396,400,416,411,276,149,163,186,0,
1,1775672084928,-2325,507,9796,157603,-45204,89186,0,0,0,356,368,300,403,297,476,549,344,409,339,298,467,0,
2,1775672084928,2493,-2182,11170,-756251,1554041,3004235,0,0,0,291,451,259,381,398,402,417,412,276,148,163,186,0,
1,1775672084944,-2311,507,9834,182037,-54977,98960,0,0,0,362,370,302,409,290,476,559,343,411,337,290,482,0,
2,1775672084944,1813,-2656,10892,-505796,1620014,3268129,0,0,0,294,453,260,380,397,399,423,416,277,151,165,189,0,
1,1775672084960,-2311,502,9844,211359,-63529,108734,0,0,0,366,372,296,414,281,468,563,330,405,340,282,490,0,
2,1775672084960,1028,-3163,10629,-251676,1666440,3593109,0,0,0,293,451,258,378,395,398,425,417,279,153,169,191,0,
1,1775672084976,-2325,454,9853,245567,-67195,117286,0,0,0,368,377,290,420,284,462,565,312,406,334,270,494,0,
2,1775672084976,205,-3785,10385,-7330,1689653,3853337,0,0,0,293,451,258,382,397,401,426,418,280,155,170,191,0,
1,1775672084992,-2359,397,9844,276111,-59864,127059,0,0,0,370,384,290,429,298,465,564,307,412,324,261,498,0,
2,1775672084992,-698,-4584,10222,261450,1643227,3963293,0,0,0,294,453,260,384,400,403,426,418,279,152,166,190,0,
1,1775672085008,-2416,344,9825,301767,-45204,141720,0,0,0,373,388,293,436,305,476,556,304,414,320,255,500,0,
2,1775672085008,-1344,-5355,10174,535117,1539380,3925420,0,0,0,295,452,259,379,396,400,424,416,278,149,164,189,0,
1,1775672085024,-2488,282,9830,329867,-32986,169820,0,0,0,373,391,289,442,299,480,549,277,419,315,238,499,0,
2,1775672085024,-1579,-6049,10246,811229,1347568,3654195,0,0,0,292,451,258,381,398,403,424,416,278,149,164,189,0,
1,1775672085040,-2574,234,9882,360410,-31764,215024,0,0,0,381,386,285,439,300,473,543,271,418,309,227,504,0,
2,1775672085040,-1526,-6508,10284,1018923,1072679,3073873,0,0,0,292,451,257,379,396,400,425,419,280,152,167,191,0,
1,1775672085056,-2593,210,9968,406836,-37873,280998,0,0,0,393,391,288,436,296,480,524,274,420,305,225,510,0,
2,1775672085056,-1450,-6704,10284,1214400,786794,2383596,0,0,0,293,452,260,379,395,399,425,418,281,151,163,190,0,
1,1775672085072,-2459,191,10035,456927,-37873,324980,0,0,0,390,395,272,448,305,488,521,301,419,303,225,523,0,
2,1775672085072,-971,-6269,10361,1425759,514348,1654223,0,0,0,293,453,261,377,395,399,421,414,279,148,162,189,0,
1,1775672085088,-2187,114,10112,520457,-32986,337197,0,0,0,390,387,267,452,307,484,513,267,421,300,206,525,0,
2,1775672085088,-67,-5245,10524,1609019,287106,987158,0,0,0,293,453,265,378,396,400,429,432,276,159,178,186,0,
1,1775672085104,-2053,0,10203,598647,-63529,317649,0,0,0,398,387,267,453,290,495,501,241,428,289,187,549,0,
2,1775672085104,-550,-693,11538,1714087,118507,604756,0,0,0,285,446,254,371,392,396,436,456,269,166,197,183,0,
1,1775672085120,-2225,-86,10289,686612,-138055,311541,0,0,0,412,390,274,456,291,505,499,239,444,290,179,549,0,
2,1775672085120,-1206,8557,10782,1739744,-204028,537561,0,0,0,283,437,246,366,383,391,448,471,269,175,215,181,0,
1,1775672085136,-2421,-134,10614,802676,-206472,337197,0,0,0,414,393,261,450,296,499,480,227,438,288,173,551,0,
2,1775672085136,-1105,9442,8681,1975538,-466701,372627,0,0,0,284,433,241,365,379,387,461,477,269,183,236,179,0,
1,1775672085152,-2641,-177,11050,959058,-244346,373849,0,0,0,414,389,235,448,306,489,462,222,430,277,173,546,0,
2,1775672085152,-1043,2866,9633,2568077,-349414,-53756,0,0,0,285,432,236,366,379,388,471,480,268,190,255,179,0,
1,1775672085168,-2938,-248,11509,1194852,-266337,441044,0,0,0,404,389,211,451,319,485,454,218,438,272,171,546,0,
2,1775672085168,-636,722,12830,2731789,13439,-486248,0,0,0,285,432,238,369,378,392,483,486,275,194,268,179,0,
1,1775672085184,-2847,-325,11887,1483180,-295658,530231,0,0,0,393,394,199,455,338,487,447,209,447,265,160,546,0,
2,1775672085184,641,1732,13950,2546086,238237,-747699,0,0,0,285,435,251,369,374,399,496,496,287,199,275,183,0,
1,1775672085200,-2790,-435,12457,1882686,-378736,620639,0,0,0,391,388,196,445,349,489,430,200,448,248,146,545,0,
2,1775672085200,2340,2244,14065,2205223,265115,-689055,0,0,0,289,440,269,367,380,403,506,507,293,243,315,186,0,
1,1775672085216,-3383,-550,13361,2366491,-536339,723264,0,0,0,384,370,199,427,340,489,413,182,450,235,134,549,0,
2,1775672085216,2952,1186,13529,1544267,26878,-298102,0,0,0,294,446,284,368,388,408,519,520,292,309,380,185,0,
1,1775672085232,-4197,-588,14601,2890614,-715934,888198,0,0,0,371,349,209,431,327,496,409,165,457,228,125,533,0,
2,1775672085232,1899,1043,11639,956614,-155159,-14660,0,0,0,299,450,296,382,377,418,527,527,299,272,344,205,0,
1,1775672085248,-5489,-550,16128,3514918,-948062,1141096,0,0,0,367,349,213,403,316,489,366,169,442,189,118,515,0,
2,1775672085248,1062,1282,10256,588874,-182037,25656,0,0,0,311,456,311,389,377,422,542,543,294,351,418,202,0,
1,1775672085264,-6929,-550,17808,4120896,-1236391,1456302,0,0,0,349,350,190,387,324,461,369,182,434,182,118,465,0,
2,1775672085264,1143,1182,10160,317649,-182037,14660,0,0,0,324,463,319,397,380,428,549,545,296,344,419,211,0,
1,1775672085280,-6408,-842,19727,4586376,-1436755,1809382,0,0,0,337,360,176,380,337,428,345,200,411,179,129,392,0,
2,1775672085280,1349,1134,10471,109955,-216246,28099,0,0,0,334,462,323,408,380,433,551,545,298,400,474,209,0,
1,1775672085296,-5982,124,19152,5000542,-1672549,2078163,0,0,0,328,343,182,339,294,398,300,200,375,163,118,322,0,
2,1775672085296,1081,1363,10294,-19547,-239459,42760,0,0,0,343,465,328,410,381,433,552,544,300,411,487,207,0,
1,1775672085312,-6010,607,17779,5400048,-2172236,2351831,0,0,0,303,340,203,320,273,384,316,218,367,150,136,259,0,
2,1775672085312,823,1560,10069,-56199,-188146,31764,0,0,0,351,470,331,415,384,436,556,545,303,427,498,210,0,
1,1775672085328,-6877,-105,16621,5596747,-2812423,2652376,0,0,0,281,331,203,295,238,336,301,236,325,151,183,181,0,
2,1775672085328,847,1612,10088,-31764,-86742,10995,0,0,0,358,473,334,417,385,439,559,549,306,431,501,215,0,
1,1775672085344,-7470,277,14166,5314527,-3480710,3089756,0,0,0,256,288,189,268,197,284,316,257,287,159,223,117,0,
2,1775672085344,961,1636,10126,6108,4886,0,0,0,0,360,474,335,419,388,441,561,552,308,435,505,222,0,
1,1775672085360,-6101,1416,10083,4849048,-3860668,3630982,0,0,0,243,277,195,260,181,276,338,271,280,169,244,107,0,
2,1775672085360,1048,1651,10083,42760,50090,-1221,0,0,0,365,478,338,418,392,443,566,553,310,437,505,225,0,
1,1775672085376,-3192,3665,6575,4179539,-3516140,4056145,0,0,0,238,278,202,260,180,282,347,273,282,171,243,113,0,
2,1775672085376,1110,1631,9992,68416,54977,-1221,0,0,0,371,482,341,416,391,442,565,554,309,438,505,226,0,
1,1775672085392,-622,10059,6274,2461786,-2258979,3492927,0,0,0,236,278,203,258,180,282,349,276,280,166,236,113,0,
2,1775672085392,1182,1612,9949,86742,26878,-6108,0,0,0,374,484,340,419,391,445,564,556,310,438,498,232,0,
1,1775672085408,-904,15821,8308,-779464,-430049,1470963,0,0,0,234,283,204,257,180,282,348,278,278,164,237,114,0,
2,1775672085408,1215,1617,9964,106290,-24434,-10995,0,0,0,383,490,341,424,395,449,568,558,317,371,423,248,0,
1,1775672085424,-4670,11974,7705,-3652974,713490,-278554,0,0,0,233,286,209,257,181,285,343,276,280,166,245,114,0,
2,1775672085424,1206,1622,9964,136833,-76969,-14660,0,0,0,396,500,346,426,395,448,570,561,319,283,331,267,0,
1,1775672085440,-5647,6781,5857,-4036597,371406,122173,0,0,0,232,284,212,256,181,286,340,279,282,166,249,115,0,
2,1775672085440,1119,1608,9920,171042,-112399,-18325,0,0,0,397,492,342,427,398,452,578,555,319,356,399,259,0,
1,1775672085456,-1842,6058,6322,-3815464,-307876,1320690,0,0,0,229,285,215,255,185,293,335,283,290,165,248,118,0,
2,1775672085456,1019,1564,9892,185703,-101403,-18325,0,0,0,403,495,343,435,402,458,571,558,321,327,367,268,0,
1,1775672085472,2416,6815,8523,-4207639,-233350,1905899,0,0,0,230,287,223,253,186,297,330,284,291,164,248,121,0,
2,1775672085472,990,1502,9877,184481,-72082,-18325,0,0,0,408,495,345,438,405,461,564,560,330,241,280,289,0,
1,1775672085488,3546,6436,10514,-4960225,417831,1899790,0,0,0,224,286,226,262,195,302,314,275,283,165,251,119,0,
2,1775672085488,1019,1440,9849,167377,-42760,-20769,0,0,0,408,495,347,438,405,461,572,559,332,241,276,289,0,
1,1775672085504,3134,5551,11471,-5491678,684169,1949881,0,0,0,232,289,230,255,190,298,318,272,282,173,250,123,0,
2,1775672085504,1062,1430,9830,147829,-35430,-26878,0,0,0,421,497,360,439,407,461,573,559,332,241,272,293,0,
1,1775672085520,2890,5106,11734,-5654168,348193,2008524,0,0,0,230,292,233,254,192,302,314,275,288,171,253,126,0,
2,1775672085520,1100,1430,9844,129503,-45204,-30543,0,0,0,422,498,359,437,408,462,574,558,340,246,269,302,0,
1,1775672085536,2976,5001,12222,-5597969,-157603,1726305,0,0,0,232,295,240,254,194,303,313,276,292,171,256,128,0,
2,1775672085536,1139,1421,9882,117286,-78190,-31764,0,0,0,427,504,353,437,409,465,571,557,341,246,263,306,0,
1,1775672085552,2278,4632,12988,-5528330,-507018,1291369,0,0,0,231,297,240,256,196,307,316,276,296,172,255,127,0,
2,1775672085552,1134,1426,9920,122173,-120951,-31764,0,0,0,429,504,345,445,433,467,566,550,340,269,285,312,0,
1,1775672085568,1091,3986,14233,-5505117,-877202,915076,0,0,0,229,297,238,257,195,307,319,277,296,173,253,126,0,
2,1775672085568,1081,1440,9944,152716,-150272,-32986,0,0,0,433,507,345,449,427,472,574,542,339,257,268,325,0,
1,1775672085584,885,3388,16094,-5497787,-1276708,709825,0,0,0,227,298,238,262,197,310,318,277,293,172,250,125,0,
2,1775672085584,1024,1421,9935,196698,-151494,-32986,0,0,0,440,510,348,451,421,477,578,534,340,245,243,347,0,
1,1775672085600,947,2770,18200,-5461135,-1457524,433714,0,0,0,228,300,240,265,199,314,319,278,296,170,249,124,0,
2,1775672085600,1000,1392,9940,238237,-144164,-32986,0,0,0,448,512,352,455,425,485,577,524,341,248,231,366,0,
1,1775672085616,526,2053,19894,-5413487,-1445307,113620,0,0,0,230,303,245,261,198,314,321,278,299,171,251,124,0,
2,1775672085616,1005,1368,9987,277332,-139277,-32986,0,0,0,456,517,356,458,429,492,576,512,344,250,220,382,0,
1,1775672085632,-454,966,21244,-5375614,-1389107,-221133,0,0,0,231,302,247,258,197,312,322,277,299,175,255,126,0,
2,1775672085632,1009,1344,10059,331088,-134390,-32986,0,0,0,460,524,362,457,431,496,571,493,348,302,265,397,0,
1,1775672085648,-1134,-698,22225,-5336518,-1426981,-531452,0,0,0,231,300,247,260,196,315,326,279,302,175,252,127,0,
2,1775672085648,1005,1306,10102,392175,-123394,-35430,0,0,0,466,528,369,461,436,509,569,476,352,331,289,413,0,
1,1775672085664,-1756,-3369,22857,-5238780,-1470963,-889419,0,0,0,231,297,246,260,194,315,330,278,302,175,250,124,0,
2,1775672085664,971,1220,10112,443488,-94073,-41538,0,0,0,479,533,367,472,444,523,556,466,360,249,187,437,0,
1,1775672085680,-2943,-7724,22770,-5018868,-1511280,-1205847,0,0,0,233,296,246,266,193,317,332,274,301,180,252,126,0,
2,1775672085680,966,1153,10150,487470,-58643,-47647,0,0,0,488,535,374,476,448,520,508,423,375,247,177,448,0,
1,1775672085696,-4197,-12208,21837,-4740314,-1582140,-1282817,0,0,0,233,297,247,266,193,317,327,270,300,185,255,125,0,
2,1775672085696,1019,1124,10236,535117,-32986,-53756,0,0,0,495,538,385,479,463,525,565,421,366,257,176,467,0,
1,1775672085712,-4771,-16793,19473,-4298047,-1688431,-970053,0,0,0,231,299,249,264,192,318,332,270,302,187,255,129,0,
2,1775672085712,1062,1067,10351,614530,-4886,-65973,0,0,0,502,552,408,486,473,540,559,390,386,256,174,491,0,
1,1775672085728,-1852,-20713,15549,-3407406,-1813048,-86742,0,0,0,231,300,248,264,191,316,334,273,303,185,254,125,0,
2,1775672085728,1057,1005,10500,726929,42760,-85521,0,0,0,504,552,400,492,474,540,536,355,393,260,172,507,0,
1,1775672085744,3311,-22498,12749,-2370157,-1693318,717155,0,0,0,234,300,244,266,191,314,338,271,300,190,254,125,0,
2,1775672085744,1024,899,10806,849102,101403,-95294,0,0,0,511,554,399,499,480,549,520,330,387,263,173,523,0,
1,1775672085760,7389,-22737,11328,-1270599,-1016479,1089783,0,0,0,238,301,243,270,191,312,343,273,300,193,254,124,0,
2,1775672085760,1124,804,11280,998153,97738,-94073,0,0,0,517,562,356,500,487,545,503,313,394,268,174,545,0,
1,1775672085776,5302,-22110,10758,-442266,-175929,1010371,0,0,0,235,298,238,270,190,314,346,276,300,195,250,125,0,
2,1775672085776,1186,732,11873,1282817,25656,-103847,0,0,0,520,573,338,503,492,546,480,300,391,272,174,565,0,
1,1775672085792,1775,-20229,10849,474031,384845,1006705,0,0,0,237,291,226,272,189,305,371,305,293,216,277,117,0,
2,1775672085792,1158,607,12227,1650557,6108,-116064,0,0,0,521,571,318,511,502,544,450,293,392,271,178,581,0,
1,1775672085808,1220,-9428,13692,1423316,1025031,695164,0,0,0,241,278,211,273,181,285,407,357,280,253,324,104,0,
2,1775672085808,1258,459,12586,1976759,31764,-136833,0,0,0,531,567,300,504,508,543,412,288,396,270,178,589,0,
1,1775672085824,-1215,5963,13720,2177123,1993864,-123394,0,0,0,243,267,198,274,170,273,431,394,271,281,355,100,0,
2,1775672085824,1603,397,12983,2287079,13439,-172263,0,0,0,537,563,285,499,512,544,371,283,391,272,182,590,0,
1,1775672085840,-2938,12452,10050,2794097,2520429,-1011592,0,0,0,250,261,184,279,167,268,449,418,267,300,376,95,0,
2,1775672085840,2311,315,13505,2659707,-139277,-263893,0,0,0,543,562,273,494,517,543,337,277,384,273,187,590,0,
1,1775672085856,1024,3182,10978,3524692,1626123,-735481,0,0,0,249,263,177,281,170,267,458,441,267,310,395,88,0,
2,1775672085856,2885,153,14304,3067765,-359188,-404392,0,0,0,545,561,264,483,516,539,311,266,381,264,183,584,0,
1,1775672085872,3263,-894,14548,3571118,733038,25656,0,0,0,250,267,183,287,169,273,466,465,273,326,415,90,0,
2,1775672085872,3359,157,15764,3643200,-627969,-608421,0,0,0,536,557,264,472,510,530,287,247,377,252,170,565,0,
1,1775672085888,23,665,15324,2924822,272445,825889,0,0,0,257,273,200,295,170,287,470,470,282,352,421,90,0,
2,1775672085888,3795,330,17755,4390899,-902858,-845437,0,0,0,522,549,264,464,506,519,270,218,369,242,160,526,0,
1,1775672085904,-4570,1665,14079,2371378,180816,855211,0,0,0,264,284,207,307,179,288,480,480,274,368,424,91,0,
2,1775672085904,3795,335,20047,5176472,-1160643,-1053131,0,0,0,498,540,251,459,503,511,263,192,367,227,151,468,0,
1,1775672085920,-5168,397,13213,1868025,195476,271224,0,0,0,259,294,223,310,194,311,490,489,306,376,430,105,0,
2,1775672085920,3642,636,22445,5962044,-1396437,-1176526,0,0,0,452,526,240,447,487,495,266,179,351,213,138,409,0,
1,1775672085936,-2976,-138,12050,1103222,168598,-100181,0,0,0,264,297,242,323,199,335,499,498,303,393,433,117,0,
2,1775672085936,4024,1105,23842,6619335,-1361007,-1266934,0,0,0,391,501,228,428,465,466,288,197,336,197,131,359,0,
1,1775672085952,-1952,454,10591,485026,112399,-149051,0,0,0,279,305,259,329,218,350,503,503,306,397,444,141,0,
2,1775672085952,4067,851,24493,7114136,-918741,-1397659,0,0,0,345,469,229,388,433,436,304,247,304,170,128,327,0,
1,1775672085968,-2258,851,9968,237015,76969,-65973,0,0,0,314,301,266,355,210,358,515,512,320,417,460,160,0,
2,1775672085968,5422,861,23742,7403686,-544891,-1568701,0,0,0,273,436,232,345,388,387,305,308,286,117,113,208,0,
1,1775672085984,-2469,894,9916,108734,69638,-28099,0,0,0,325,304,272,371,206,360,523,510,326,427,469,183,0,
2,1775672085984,7776,2292,18205,7346265,-623082,-1871691,0,0,0,275,441,248,338,376,387,333,321,284,113,116,197,0,
1,1775672086000,-2340,957,10074,56199,61086,-17104,0,0,0,325,311,278,371,208,370,528,501,328,426,476,200,0,
2,1775672086000,8274,6929,9997,6290690,-1412320,-2276083,0,0,0,273,443,248,340,381,395,339,321,284,113,114,200,0,
1,1775672086016,-2201,1129,10112,86742,3665,6108,0,0,0,328,320,287,373,209,381,531,495,332,424,478,213,0,
2,1775672086016,8327,13548,7288,3656639,-1769065,-2200336,0,0,0,270,441,246,342,383,393,340,321,280,115,115,200,0,
1,1775672086032,-2230,1210,10011,169820,-72082,28099,0,0,0,336,330,287,382,212,384,532,492,337,425,475,230,0,
2,1775672086032,6575,16142,9198,-816115,-1131322,-1325577,0,0,0,269,441,243,343,384,391,342,322,276,114,116,195,0,
1,1775672086048,-2340,1167,9897,249233,-122173,39095,0,0,0,347,331,281,387,216,387,535,483,340,428,471,249,0,
2,1775672086048,4761,11763,9069,-3494149,-845437,-416610,0,0,0,265,440,243,345,384,391,343,323,275,114,117,196,0,
1,1775672086064,-2455,1067,9820,310319,-118507,48869,0,0,0,350,325,288,390,221,398,533,472,345,427,468,271,0,
2,1775672086064,5058,5934,5991,-3830125,-912632,74525,0,0,0,262,440,243,345,385,391,344,325,277,115,116,198,0,
1,1775672086080,-2483,981,9753,334754,-85521,62308,0,0,0,341,330,287,388,233,400,535,464,352,426,461,280,0,
2,1775672086080,5876,4599,4106,-3407406,-445931,76969,0,0,0,262,442,245,344,385,391,345,327,277,115,116,196,0,
1,1775672086096,-2421,928,9681,337197,-61086,69638,0,0,0,331,328,300,373,268,405,533,452,361,417,454,299,0,
2,1775672086096,4982,5527,4785,-3466049,228463,64751,0,0,0,262,443,245,344,385,392,343,328,273,115,119,195,0,
1,1775672086112,-2383,894,9657,339641,-56199,72082,0,0,0,344,333,303,387,237,414,542,431,357,415,442,311,0,
2,1775672086112,3378,6499,6680,-3992615,537561,273667,0,0,0,261,443,245,344,387,393,345,330,274,115,118,194,0,
1,1775672086128,-2383,871,9705,343306,-59864,76969,0,0,0,342,340,303,394,247,437,532,428,373,406,428,335,0,
2,1775672086128,3670,6144,7528,-4499633,554665,620639,0,0,0,264,444,247,345,386,392,346,331,275,115,118,196,0,
1,1775672086144,-2431,885,10648,294437,-21991,85521,0,0,0,339,343,289,402,248,431,531,414,366,392,390,334,0,
2,1775672086144,4412,5565,8198,-4833165,830776,834441,0,0,0,266,446,251,342,383,391,346,332,275,117,120,196,0,
1,1775672086160,-2459,909,11524,221133,34208,95294,0,0,0,344,348,297,402,249,450,530,408,383,390,361,356,0,
2,1775672086160,4240,5144,9562,-5095837,1284038,948062,0,0,0,263,445,250,345,387,393,347,333,275,117,120,194,0,
1,1775672086176,-2383,832,10576,267558,1221,92851,0,0,0,343,347,301,404,248,451,533,390,387,385,340,366,0,
2,1775672086176,3723,4948,11055,-5330410,1530828,1061683,0,0,0,258,445,248,345,386,392,348,333,275,115,121,196,0,
1,1775672086192,-2306,693,9394,346971,-57421,81855,0,0,0,341,346,296,412,254,450,536,377,387,370,335,380,0,
2,1775672086192,3503,4857,12615,-5582086,1612684,1213178,0,0,0,259,445,248,345,386,393,348,331,275,115,123,193,0,
1,1775672086208,-2311,636,9485,340862,-54977,76969,0,0,0,342,347,291,415,255,443,542,363,384,361,326,390,0,
2,1775672086208,3771,4608,14572,-5872858,1716531,1382998,0,0,0,262,447,251,344,387,392,352,334,277,115,123,193,0,
1,1775672086224,-2340,617,9786,320093,-39095,79412,0,0,0,345,351,285,418,264,442,541,349,383,353,315,397,0,
2,1775672086224,4091,4216,16692,-6118426,1868025,1502728,0,0,0,261,446,249,348,389,396,356,335,280,115,120,192,0,
1,1775672086240,-2340,583,9810,324980,-35430,83077,0,0,0,347,368,282,421,304,446,536,342,385,350,311,409,0,
2,1775672086240,4297,3704,19205,-6335894,2035402,1607797,0,0,0,260,445,249,347,388,395,357,336,283,117,121,196,0,
1,1775672086256,-2306,521,9772,344527,-45204,83077,0,0,0,347,379,286,421,323,448,534,333,387,348,299,422,0,
2,1775672086256,4541,3220,22148,-6516710,2158797,1761735,0,0,0,261,446,251,348,388,395,360,335,283,116,119,194,0,
1,1775672086272,-2306,469,9806,366519,-64751,86742,0,0,0,351,374,291,423,296,454,532,307,384,338,275,426,0,
2,1775672086272,5087,2814,25068,-6629109,2244318,1938886,0,0,0,264,448,253,350,390,397,362,334,286,116,118,195,0,
1,1775672086288,-2345,411,9825,395840,-91629,98960,0,0,0,357,386,291,424,323,458,524,289,381,337,266,434,0,
2,1775672086288,5867,1014,28365,-6685309,2373822,2229658,0,0,0,264,448,253,352,390,398,363,333,289,117,118,198,0,
1,1775672086304,-2383,339,9815,425162,-118507,118507,0,0,0,350,394,293,430,335,468,532,280,388,332,261,440,0,
2,1775672086304,5455,-3555,30409,-6594901,2641381,2539977,0,0,0,263,448,251,353,389,400,365,331,292,119,118,198,0,
1,1775672086320,-2412,277,9853,461814,-151494,144164,0,0,0,355,385,296,441,312,469,526,266,395,323,246,460,0,
2,1775672086320,3771,-13448,31351,-6096435,2715906,2632829,0,0,0,264,447,250,354,387,402,364,328,294,121,118,199,0,
1,1775672086336,-2526,258,9973,513126,-179594,173485,0,0,0,357,387,308,450,307,476,520,250,411,331,224,476,0,
2,1775672086336,3359,-26245,28571,-5144707,2142915,2114815,0,0,0,266,448,252,354,385,403,365,326,294,123,118,199,0,
1,1775672086352,-2680,181,10126,605978,-186924,224798,0,0,0,368,397,292,466,323,485,515,245,407,316,208,502,0,
2,1775672086352,2603,-37037,21406,-3687182,1567480,708603,0,0,0,263,446,250,360,387,408,368,327,296,129,121,199,0,
1,1775672086368,-2636,110,10466,725707,-186924,272445,0,0,0,379,411,268,469,333,482,501,231,413,294,196,511,0,
2,1775672086368,-4067,-40789,16429,-1924225,1479515,-923628,0,0,0,262,446,250,361,389,408,367,331,296,156,132,198,0,
1,1775672086384,-2488,90,11016,907745,-193033,306654,0,0,0,392,402,254,460,335,501,479,223,425,277,181,533,0,
2,1775672086384,-11050,-39947,15644,-333532,872315,-1644449,0,0,0,263,446,251,357,389,406,368,337,296,128,128,201,0,
1,1775672086400,-2311,71,11462,1143539,-232128,311541,0,0,0,394,406,245,456,347,524,452,212,435,274,176,549,0,
2,1775672086400,-10638,-34381,16865,1132544,-466701,-1147204,0,0,0,253,444,251,354,390,402,392,423,285,187,247,185,0,
1,1775672086416,-2426,-71,11763,1415985,-318871,305432,0,0,0,400,408,236,456,353,531,436,209,444,267,172,557,0,
2,1775672086416,-3555,-11217,19535,2543642,-1727526,-65973,0,0,0,254,416,217,352,371,381,442,467,274,163,220,179,0,
1,1775672086432,-2919,-177,12132,1731192,-406836,344527,0,0,0,403,409,226,461,357,533,404,202,446,249,162,559,0,
2,1775672086432,3742,16812,15472,3269350,-2959031,1167974,0,0,0,260,398,211,351,356,389,469,480,280,176,253,177,0,
1,1775672086448,-3383,-224,12687,2096489,-444709,449596,0,0,0,399,412,210,466,364,528,369,196,445,241,152,562,0,
2,1775672086448,3153,16769,8068,3747047,-3323106,1806939,0,0,0,267,398,195,358,356,390,486,489,281,183,278,176,0,
1,1775672086464,-4000,-253,13663,2612059,-379958,621860,0,0,0,400,406,203,464,356,517,338,189,442,237,137,563,0,
2,1775672086464,-5092,52,12620,4763527,-1985312,1339016,0,0,0,270,400,209,367,354,401,499,499,296,198,298,180,0,
1,1775672086480,-4848,-272,14735,3242472,-259006,878424,0,0,0,402,394,210,442,342,511,282,176,437,208,121,555,0,
2,1775672086480,-8155,-3771,19755,4728096,-670730,217468,0,0,0,269,407,235,370,358,410,510,509,306,275,324,186,0,
1,1775672086496,-5522,-143,16286,3930306,-171042,1182635,0,0,0,394,386,212,405,359,500,226,169,432,178,121,528,0,
2,1775672086496,-2000,880,20191,3850894,-186924,-752585,0,0,0,278,423,268,375,364,417,521,521,310,267,328,194,0,
1,1775672086512,-6585,-71,19463,4851491,-122173,1560149,0,0,0,394,380,214,419,373,475,226,162,414,187,121,459,0,
2,1775672086512,3957,2330,16783,2693915,-101403,-713490,0,0,0,292,438,298,387,370,426,532,532,317,220,316,208,0,
1,1775672086528,-8523,-263,22971,5753128,-64751,1914451,0,0,0,379,351,199,412,328,450,214,151,398,171,96,378,0,
2,1775672086528,3278,684,12907,1573588,-142942,-51312,0,0,0,306,451,316,400,381,437,541,540,324,225,310,230,0,
1,1775672086544,-9739,-19,24752,6427524,-10995,2277305,0,0,0,316,351,194,352,307,425,205,157,366,141,98,306,0,
2,1775672086544,1014,411,11007,791681,-103847,152716,0,0,0,326,466,328,413,394,447,549,548,328,230,304,251,0,
1,1775672086560,-9552,631,25919,6985854,42760,2723237,0,0,0,276,325,194,312,268,374,231,189,327,127,107,240,0,
2,1775672086560,655,899,10366,387288,-79412,96516,0,0,0,344,475,333,419,399,453,552,553,329,233,298,272,0,
1,1775672086576,-9887,1804,26120,7375586,213802,3092199,0,0,0,246,304,195,280,224,325,277,229,294,145,176,149,0,
2,1775672086576,1091,1268,10275,261450,-130725,28099,0,0,0,358,481,336,421,402,457,556,556,334,238,292,291,0,
1,1775672086592,-11701,3819,21713,7630928,469144,3412293,0,0,0,238,276,219,260,185,297,313,245,287,152,201,123,0,
2,1775672086592,1105,1464,10251,200363,-152716,9773,0,0,0,372,486,342,427,408,463,563,561,336,239,286,302,0,
1,1775672086608,-13050,7733,12155,7469660,475253,3850894,0,0,0,233,276,227,254,181,297,322,254,287,155,215,125,0,
2,1775672086608,1000,1550,10198,212581,-138055,6108,0,0,0,388,495,350,433,413,467,564,561,335,243,282,311,0,
1,1775672086624,-11485,13251,7681,5886297,-39095,4059810,0,0,0,227,284,227,251,185,300,322,261,284,156,221,128,0,
2,1775672086624,923,1560,10145,261450,-129503,-2443,0,0,0,399,494,345,437,409,469,567,556,336,246,274,321,0,
1,1775672086640,-6704,18473,8801,1973094,-206472,2692693,0,0,0,225,289,228,250,186,298,326,266,280,152,216,126,0,
2,1775672086640,856,1560,10165,296880,-90408,-10995,0,0,0,403,496,348,443,418,478,573,553,340,247,279,331,0,
1,1775672086656,-3541,17788,9284,-1943773,400727,540004,0,0,0,225,291,227,252,186,295,329,265,276,154,213,125,0,
2,1775672086656,851,1545,10184,329867,-4886,-17104,0,0,0,409,497,345,444,416,480,574,538,339,246,255,349,0,
1,1775672086672,-4436,11462,7351,-4189313,1232726,-1202182,0,0,0,225,291,225,255,187,295,330,267,275,159,217,127,0,
2,1775672086672,923,1497,10102,371406,67195,-23212,0,0,0,418,501,348,445,417,481,573,530,349,244,239,362,0,
1,1775672086688,-6944,6743,5197,-4321260,957836,-1354899,0,0,0,228,293,227,256,188,296,336,274,278,158,217,126,0,
2,1775672086688,1067,1421,9959,411723,84299,-28099,0,0,0,428,507,349,447,417,485,572,512,348,243,226,373,0,
1,1775672086704,-7322,4905,4565,-4113566,-18325,-882089,0,0,0,228,296,229,260,190,297,334,271,277,160,221,125,0,
2,1775672086704,1153,1325,9882,428827,42760,-39095,0,0,0,434,510,348,449,417,489,574,499,349,243,216,385,0,
1,1775672086720,-4824,5178,6082,-4261395,-619417,-538783,0,0,0,232,297,230,265,189,296,328,264,277,166,225,126,0,
2,1775672086720,1153,1234,9897,427605,-3665,-57421,0,0,0,437,511,348,454,421,492,574,488,354,245,209,395,0,
1,1775672086736,-2986,5427,7834,-4691445,-618195,-547335,0,0,0,235,297,231,266,189,295,335,267,278,164,226,125,0,
2,1775672086736,1129,1167,9930,409279,-30543,-69638,0,0,0,444,513,350,456,425,495,571,473,358,243,199,405,0,
1,1775672086752,-2651,5264,9576,-5371948,-361632,-833220,0,0,0,235,298,231,268,192,297,334,268,278,165,226,124,0,
2,1775672086752,1124,1095,9925,389732,-54977,-76969,0,0,0,450,517,349,459,429,500,569,458,358,241,189,417,0,
1,1775672086768,-3302,4493,10878,-5914397,-522900,-1093448,0,0,0,232,299,230,269,193,298,330,270,275,163,227,127,0,
2,1775672086768,1110,1048,9930,378736,-78190,-79412,0,0,0,455,519,345,467,436,505,570,448,362,245,188,429,0,
1,1775672086784,-3326,3680,12165,-6189286,-874759,-1226617,0,0,0,231,300,230,268,193,299,330,269,279,165,228,127,0,
2,1775672086784,1086,1009,9978,381179,-94073,-83077,0,0,0,463,525,350,468,439,507,568,437,370,248,184,443,0,
1,1775672086800,-2962,2976,13735,-6250373,-1160643,-1273043,0,0,0,232,302,234,267,194,303,326,266,279,167,229,127,0,
2,1775672086800,1086,952,10002,389732,-94073,-85521,0,0,0,467,528,350,474,447,516,562,419,370,244,173,452,0,
1,1775672086816,-3067,2479,15850,-6263812,-1293812,-1204626,0,0,0,233,304,234,269,198,305,327,268,279,166,230,127,0,
2,1775672086816,1076,909,10002,399505,-96516,-89186,0,0,0,470,528,345,475,455,515,567,409,375,249,172,463,0,
1,1775672086832,-3675,2010,18277,-6371324,-1412320,-993266,0,0,0,235,306,235,271,201,306,325,270,281,163,230,123,0,
2,1775672086832,1072,851,10040,412944,-96516,-91629,0,0,0,484,535,349,479,463,520,551,390,375,248,169,471,0,
1,1775672086848,-4144,1024,21038,-6532592,-1589471,-685390,0,0,0,234,307,236,269,200,306,327,272,283,163,231,123,0,
2,1775672086848,1086,804,10112,430049,-87964,-97738,0,0,0,493,541,353,477,471,523,551,375,379,253,173,486,0,
1,1775672086864,-4479,-172,23364,-6552140,-1704314,-571769,0,0,0,231,307,237,268,199,307,330,271,282,165,231,123,0,
2,1775672086864,1110,717,10160,452040,-63529,-108734,0,0,0,494,541,352,481,477,524,541,356,378,257,172,499,0,
1,1775672086880,-5350,-1569,25628,-6376211,-1810604,-842994,0,0,0,232,307,239,271,200,310,331,270,282,165,229,123,0,
2,1775672086880,1191,636,10232,477696,-36651,-125838,0,0,0,501,546,355,484,483,530,541,338,389,259,171,512,0,
1,1775672086896,-6393,-3766,27906,-6141639,-2188119,-1607797,0,0,0,235,307,237,275,199,310,335,269,284,166,226,124,0,
2,1775672086896,1253,588,10361,526565,-36651,-156381,0,0,0,500,548,352,488,486,531,529,314,388,259,166,520,0,
1,1775672086912,-6527,-7848,29849,-5957157,-2713463,-2483778,0,0,0,238,304,234,283,194,309,341,265,286,177,224,124,0,
2,1775672086912,1201,564,10504,629191,-73303,-186924,0,0,0,505,550,346,490,486,533,513,296,390,265,171,538,0,
1,1775672086928,-5800,-15295,29116,-5707924,-2816088,-2805093,0,0,0,237,304,235,287,197,313,343,263,291,181,223,125,0,
2,1775672086928,1124,526,10739,763581,-87964,-201585,0,0,0,508,550,339,496,490,535,497,276,392,273,174,554,0,
1,1775672086944,-3694,-24460,25216,-5154480,-2684141,-2381152,0,0,0,236,307,234,283,199,313,346,264,295,183,223,122,0,
2,1775672086944,1086,469,11122,930958,-63529,-205250,0,0,0,507,553,330,506,500,543,476,257,393,274,172,563,0,
1,1775672086960,3024,-34314,19157,-3910759,-2513099,-1196074,0,0,0,232,303,232,285,207,319,339,262,295,186,227,122,0,
2,1775672086960,1043,402,11596,1169196,-7330,-204028,0,0,0,510,560,318,506,508,543,456,251,395,273,176,576,0,
1,1775672086976,11854,-41397,14855,-2236988,-1888795,39095,0,0,0,237,310,236,282,204,319,343,266,296,186,228,123,0,
2,1775672086976,1067,311,12088,1466076,50090,-205250,0,0,0,517,567,305,501,511,538,434,255,402,275,182,591,0,
1,1775672086992,15362,-42091,14175,-620639,-437379,792903,0,0,0,238,309,234,283,201,315,344,267,294,186,229,124,0,
2,1775672086992,1306,229,12835,1870469,62308,-222354,0,0,0,524,568,289,502,519,542,401,256,406,277,183,599,0,
1,1775672087008,8839,-35060,14922,1054353,1270599,1248608,0,0,0,234,303,237,286,201,314,338,271,293,194,245,121,0,
2,1775672087008,1775,244,13783,2361605,9773,-271224,0,0,0,531,567,276,502,534,548,363,253,403,276,185,601,0,
1,1775672087024,971,-23986,16362,2290744,1966986,1444085,0,0,0,235,292,211,292,193,297,392,330,278,244,312,105,0,
2,1775672087024,2306,239,14682,2918714,-97738,-376292,0,0,0,536,565,264,496,539,553,324,245,399,274,188,603,0,
1,1775672087040,-5920,3359,18645,2878397,2190562,884532,0,0,0,237,273,183,281,180,270,438,395,263,283,377,100,0,
2,1775672087040,2498,234,15946,3645643,-227241,-546113,0,0,0,536,560,257,489,537,541,289,225,391,269,189,604,0,
1,1775672087056,-9437,25283,12495,2604729,2720793,-769690,0,0,0,241,259,162,276,170,254,454,434,253,320,410,92,0,
2,1775672087056,2948,540,17793,4427551,-345749,-704938,0,0,0,535,554,248,494,533,546,275,197,387,267,172,587,0,
1,1775672087072,-4230,14582,6671,3462384,2756223,-1836260,0,0,0,244,257,155,281,163,257,464,457,260,354,428,86,0,
2,1775672087072,4733,765,20425,5430591,-544891,-970053,0,0,0,531,540,246,481,529,530,264,168,404,242,159,534,0,
1,1775672087088,4776,-1588,13553,4919908,1397659,-1291369,0,0,0,246,260,169,287,164,273,476,475,280,375,436,90,0,
2,1775672087088,5982,574,24058,6543588,-773355,-1347568,0,0,0,501,526,250,478,509,525,264,169,394,225,151,466,0,
1,1775672087104,6298,-3819,21052,4726875,129503,184481,0,0,0,250,266,194,299,178,292,492,491,289,397,435,90,0,
2,1775672087104,6039,871,28561,7586946,-781907,-1682322,0,0,0,423,508,221,457,484,505,271,168,370,206,139,398,0,
1,1775672087120,-2493,622,19377,3211929,18325,941954,0,0,0,258,278,222,309,190,306,505,505,292,413,448,101,0,
2,1775672087120,5388,2589,30758,8387179,-295658,-1882686,0,0,0,365,479,215,414,442,457,293,192,338,183,128,352,0,
1,1775672087136,-5896,335,15300,1909564,141720,455705,0,0,0,258,292,248,318,205,339,513,513,318,411,453,129,0,
2,1775672087136,5470,3938,30758,8966279,227241,-2070833,0,0,0,299,440,222,367,398,410,311,263,299,136,111,252,0,
1,1775672087152,-3149,-914,11902,851546,95294,-208915,0,0,0,260,299,260,328,215,365,521,520,323,418,460,163,0,
2,1775672087152,7657,4848,27293,9232617,786794,-2376265,0,0,0,279,433,238,346,379,399,322,298,291,115,110,210,0,
1,1775672087168,-1694,100,10524,420275,-87964,-156381,0,0,0,282,309,262,352,225,369,522,522,323,421,471,193,0,
2,1775672087168,9667,9471,15922,8577769,846659,-3071430,0,0,0,273,435,243,338,376,399,323,313,291,111,114,204,0,
1,1775672087184,-2282,918,9820,301767,-112399,0,0,0,0,305,309,274,363,211,384,532,523,324,424,479,205,0,
2,1775672087184,7312,15625,8552,6266255,-68416,-3552792,0,0,0,270,437,241,338,378,396,321,311,284,109,113,202,0,
1,1775672087200,-2747,890,9834,263893,34208,32986,0,0,0,315,318,279,369,214,382,535,516,325,428,487,231,0,
2,1775672087200,3780,20401,8762,1480737,-1324355,-2487443,0,0,0,270,438,240,344,381,395,327,308,279,109,111,198,0,
1,1775672087216,-2512,847,9997,229685,136833,28099,0,0,0,322,327,267,371,214,372,543,505,326,432,482,239,0,
2,1775672087216,3292,18511,9389,-3690847,-2149023,-582765,0,0,0,270,438,240,348,382,395,334,309,279,113,111,199,0,
1,1775672087232,-2148,928,10054,245567,133168,36651,0,0,0,327,340,278,372,224,383,544,492,333,424,473,253,0,
2,1775672087232,5671,9825,7590,-6163630,-2050063,748920,0,0,0,267,440,240,347,381,394,336,309,279,115,112,200,0,
1,1775672087248,-2120,1009,10126,295658,76969,50090,0,0,0,330,343,285,377,232,395,536,479,342,418,467,272,0,
2,1775672087248,6953,4149,4900,-5805663,-1298699,704938,0,0,0,262,440,240,348,382,394,339,314,279,115,110,199,0,
1,1775672087264,-2163,1038,10141,390953,-9773,59864,0,0,0,329,344,287,380,239,400,529,458,349,409,447,286,0,
2,1775672087264,6781,3086,4292,-5249775,-571769,354301,0,0,0,261,441,241,346,382,394,339,318,281,115,112,200,0,
1,1775672087280,-2148,961,9820,447153,-76969,63529,0,0,0,328,350,290,378,245,408,526,435,354,401,420,298,0,
2,1775672087280,5733,4144,5795,-5334075,-36651,173485,0,0,0,262,442,245,351,386,399,339,317,279,116,115,200,0,
1,1775672087296,-2182,909,8767,403171,-74525,69638,0,0,0,331,354,293,379,249,416,523,419,361,399,402,310,0,
2,1775672087296,4771,4781,7690,-5781228,324980,263893,0,0,0,259,442,242,349,385,396,339,317,275,116,116,198,0,
1,1775672087312,-2263,780,8284,323758,-45204,69638,0,0,0,335,355,294,384,250,416,519,412,367,397,387,323,0,
2,1775672087312,4465,4426,9011,-6175847,581543,582765,0,0,0,259,443,244,346,382,393,334,319,275,114,113,193,0,
1,1775672087328,-2297,612,9164,323758,-63529,63529,0,0,0,332,360,291,385,253,417,523,408,368,391,371,331,0,
2,1775672087328,4728,3742,9935,-6321233,900415,948062,0,0,0,259,443,245,347,383,395,336,321,274,114,115,194,0,
1,1775672087344,-2287,559,9691,316428,-52534,64751,0,0,0,337,365,286,392,269,417,526,398,363,384,362,334,0,
2,1775672087344,4790,3441,11289,-6368880,1320690,1257160,0,0,0,259,443,243,350,390,399,340,322,279,114,116,195,0,
1,1775672087360,-2206,574,9614,288328,-21991,73303,0,0,0,332,364,278,394,261,427,526,389,371,379,350,353,0,
2,1775672087360,4570,3311,13232,-6484945,1631010,1456302,0,0,0,261,444,245,348,385,397,341,322,281,113,116,196,0,
1,1775672087376,-2134,579,9576,265115,-13439,75747,0,0,0,339,363,274,398,260,419,532,379,369,379,348,360,0,
2,1775672087376,4565,2986,15338,-6620557,1821600,1524719,0,0,0,261,443,245,348,383,396,344,323,283,113,116,196,0,
1,1775672087392,-2110,555,9686,263893,-29321,74525,0,0,0,345,359,288,395,250,427,533,368,374,378,334,376,0,
2,1775672087392,4824,2354,17975,-6759834,2019520,1413542,0,0,0,260,442,244,351,385,398,345,323,285,114,116,195,0,
1,1775672087408,-2105,507,9767,287106,-63529,74525,0,0,0,348,355,291,396,249,425,540,357,382,370,319,386,0,
2,1775672087408,4694,2019,21110,-6869790,2218662,1194852,0,0,0,262,441,245,352,386,400,345,323,285,114,116,195,0,
1,1775672087424,-2105,449,9782,310319,-106290,74525,0,0,0,344,355,284,399,254,427,538,337,376,361,307,398,0,
2,1775672087424,4522,2024,24867,-6982189,2312735,1114218,0,0,0,263,441,245,352,385,401,348,322,288,114,115,196,0,
1,1775672087440,-2196,411,9767,327423,-139277,79412,0,0,0,347,353,279,407,263,438,530,320,387,358,296,408,0,
2,1775672087440,4838,1541,29126,-7109249,2339613,1331686,0,0,0,260,442,244,352,382,401,353,322,292,115,114,196,0,
1,1775672087456,-2311,368,9786,360410,-156381,101403,0,0,0,354,361,286,410,273,452,528,302,390,352,284,429,0,
2,1775672087456,5120,-2560,32270,-7130019,2583959,1923003,0,0,0,261,443,245,356,382,404,356,321,293,118,114,197,0,
1,1775672087472,-2364,335,9906,416610,-175929,138055,0,0,0,354,368,287,415,290,468,528,286,393,340,265,449,0,
2,1775672087472,4316,-10557,33826,-6784269,2979800,2394591,0,0,0,261,443,242,354,379,403,358,319,295,120,114,197,0,
1,1775672087488,-2479,315,10078,497244,-185703,178372,0,0,0,355,376,283,427,302,474,522,272,403,330,246,463,0,
2,1775672087488,2957,-23613,31715,-5714033,2687807,2202780,0,0,0,265,444,244,357,382,409,358,315,300,123,115,203,0,
1,1775672087504,-2665,268,10179,588874,-172263,224798,0,0,0,369,394,286,440,301,475,514,253,409,321,228,483,0,
2,1775672087504,1435,-36175,24594,-4172209,1953547,1148426,0,0,0,268,446,245,361,385,410,361,316,301,120,112,201,0,
1,1775672087520,-2861,191,10447,715934,-164933,295658,0,0,0,384,408,280,449,309,486,507,242,416,305,208,501,0,
2,1775672087520,-3651,-43239,16735,-2353052,1609019,-651182,0,0,0,268,446,244,363,385,411,364,320,302,120,112,201,0,
1,1775672087536,-2809,114,10940,900415,-175929,373849,0,0,0,394,427,259,464,330,489,489,231,419,295,198,523,0,
2,1775672087536,-10945,-42785,15845,-756251,1058018,-1880243,0,0,0,266,441,243,360,382,409,336,317,301,118,112,198,0,
1,1775672087552,-2263,4,11591,1172861,-227241,426383,0,0,0,399,413,250,483,342,510,463,210,427,279,180,545,0,
2,1775672087552,-11907,-38798,17032,670730,-140499,-2142915,0,0,0,249,440,241,352,385,401,364,354,301,118,133,190,0,
1,1775672087568,-1914,-110,12203,1483180,-359188,394618,0,0,0,405,412,250,473,336,519,431,204,434,278,174,556,0,
2,1775672087568,-5800,-25187,19128,2079385,-1269377,-1689653,0,0,0,252,428,224,358,382,391,410,438,282,140,177,182,0,
1,1775672087584,-2407,-162,12816,1865582,-548556,375071,0,0,0,405,412,225,466,345,523,415,204,448,256,169,564,0,
2,1775672087584,1847,7877,20966,2984687,-2519208,-546113,0,0,0,254,391,212,349,354,384,455,474,279,162,221,177,0,
1,1775672087600,-3230,-114,13505,2376265,-706160,491135,0,0,0,405,409,211,458,353,511,364,193,449,255,161,566,0,
2,1775672087600,6762,29092,13012,2897944,-3742160,1103222,0,0,0,263,377,197,347,340,383,481,485,285,180,258,179,0,
1,1775672087616,-3713,-67,14534,2961474,-750142,667064,0,0,0,409,404,209,459,346,510,326,178,448,257,148,567,0,
2,1775672087616,1177,10916,7049,4048814,-3473379,1913229,0,0,0,268,378,191,359,343,394,500,500,291,198,309,180,0,
1,1775672087632,-4570,33,15869,3705508,-638965,886976,0,0,0,418,393,222,453,335,522,277,153,464,234,126,549,0,
2,1775672087632,-7518,-4991,13850,5347514,-1864360,1485624,0,0,0,271,385,204,370,348,403,517,517,300,213,336,181,0,
1,1775672087648,-6365,315,17482,4565606,-431270,1240056,0,0,0,413,387,227,431,337,527,232,143,447,193,110,519,0,
2,1775672087648,-8245,-3570,23598,5090950,-458148,-35430,0,0,0,281,404,249,378,354,411,531,531,307,261,344,189,0,
1,1775672087664,-8255,325,20421,5523443,-250454,1734857,0,0,0,400,386,219,404,343,492,216,150,429,170,108,456,0,
2,1775672087664,-167,1062,22067,3611435,-298102,-646295,0,0,0,294,428,293,390,367,426,539,539,313,278,346,210,0,
1,1775672087680,-9475,134,24398,6393315,-185703,2202780,0,0,0,372,372,205,389,323,449,214,156,400,160,103,376,0,
2,1775672087680,4034,890,15678,1701870,-256563,-208915,0,0,0,307,448,308,406,383,440,543,544,322,233,332,239,0,
1,1775672087696,-9930,315,27604,7141014,-123394,2602285,0,0,0,320,347,197,360,285,412,221,165,357,142,100,298,0,
2,1775672087696,1502,38,11490,786794,-95294,190589,0,0,0,326,464,319,418,397,451,553,552,331,235,312,262,0,
1,1775672087712,-9518,1402,29356,7751879,47647,2978578,0,0,0,265,323,192,306,250,357,248,197,317,128,129,210,0,
2,1775672087712,224,545,9763,397062,46425,179594,0,0,0,344,465,323,420,399,452,562,562,335,244,302,287,0,
1,1775672087728,-10413,3876,27465,8163603,290771,3263242,0,0,0,240,288,194,267,210,303,288,233,286,138,176,130,0,
2,1775672087728,1081,1076,10011,320093,-28099,19547,0,0,0,362,473,327,427,401,455,565,565,337,247,300,298,0,
1,1775672087744,-12404,7853,20435,8350527,472809,3569896,0,0,0,239,270,216,253,180,285,317,246,283,154,202,119,0,
2,1775672087744,1320,1119,10232,150272,-208915,-4886,0,0,0,372,481,331,427,404,458,560,560,331,250,301,302,0,
1,1775672087760,-13333,12993,10600,7657806,273667,4102570,0,0,0,230,281,230,252,185,303,318,257,296,152,218,129,0,
2,1775672087760,1038,1282,10241,75747,-239459,6108,0,0,0,383,484,337,430,409,462,569,568,335,249,291,312,0,
1,1775672087776,-10610,17884,7753,5235115,-195476,4072027,0,0,0,219,286,237,251,189,310,319,260,290,146,224,130,0,
2,1775672087776,928,1469,10169,139277,-213802,1221,0,0,0,393,486,338,430,409,462,573,569,340,239,278,316,0,
1,1775672087792,-4407,21521,9030,419053,-175929,2442239,0,0,0,222,287,245,252,189,309,319,255,286,154,213,133,0,
2,1775672087792,866,1517,10217,240680,-205250,-14660,0,0,0,405,493,343,435,413,468,569,560,341,241,267,324,0,
1,1775672087808,-2301,16659,8896,-3808133,1175304,-149051,0,0,0,222,288,246,253,188,310,331,262,288,155,214,137,0,
2,1775672087808,727,1536,10294,323758,-138055,-21991,0,0,0,413,492,341,437,413,469,568,545,340,244,257,339,0,
1,1775672087824,-4915,10141,6934,-5213123,1987755,-1310916,0,0,0,222,289,249,252,186,315,323,257,287,156,216,141,0,
2,1775672087824,703,1483,10251,388510,-24434,-21991,0,0,0,420,494,341,438,414,473,571,531,345,272,249,350,0,
1,1775672087840,-8466,5417,4824,-5210680,1538158,-1197295,0,0,0,224,291,248,255,188,316,328,259,288,157,217,139,0,
2,1775672087840,866,1306,10045,447153,62308,-21991,0,0,0,427,499,343,442,413,477,565,519,351,258,231,364,0,
1,1775672087856,-7973,4402,4838,-5017647,200363,-505796,0,0,0,225,293,248,254,186,316,332,263,290,155,219,139,0,
2,1775672087856,1005,1177,9901,466701,69638,-28099,0,0,0,431,501,344,446,414,481,566,504,353,243,218,380,0,
1,1775672087872,-5714,4307,6274,-5073846,-500909,-153938,0,0,0,225,293,249,254,187,316,334,266,291,155,221,136,0,
2,1775672087872,1048,1105,9887,463035,34208,-42760,0,0,0,440,504,345,449,415,484,571,483,354,244,208,392,0,
1,1775672087888,-4111,4532,8159,-5380501,-593761,-217468,0,0,0,223,293,251,254,189,318,334,266,292,157,222,135,0,
2,1775672087888,1057,1038,9920,452040,3665,-53756,0,0,0,451,510,348,452,422,487,565,464,353,243,195,401,0,
1,1775672087904,-4072,4422,9877,-5861862,-561996,-632856,0,0,0,220,292,252,252,193,321,331,266,294,158,224,137,0,
2,1775672087904,1110,961,9944,438601,-37873,-63529,0,0,0,450,513,349,460,437,495,561,452,355,241,190,417,0,
1,1775672087920,-4532,3613,11313,-6211277,-897971,-1138652,0,0,0,218,292,251,251,197,319,328,267,294,156,226,135,0,
2,1775672087920,1095,894,9964,431270,-91629,-75747,0,0,0,451,514,342,465,437,504,560,441,365,249,186,436,0,
1,1775672087936,-4714,2876,12825,-6339559,-1332907,-1505171,0,0,0,221,294,253,251,190,318,332,266,291,154,224,133,0,
2,1775672087936,990,871,9997,436157,-118507,-85521,0,0,0,459,519,342,472,441,507,558,423,368,267,181,443,0,
1,1775672087952,-4661,2488,14874,-6387206,-1718974,-1723861,0,0,0,224,299,252,253,193,320,335,269,292,156,223,131,0,
2,1775672087952,957,837,10074,463035,-97738,-89186,0,0,0,469,528,344,475,446,511,550,396,366,251,172,458,0,
1,1775672087968,-4785,2048,17808,-6558249,-1958433,-1791056,0,0,0,224,299,239,253,192,310,335,270,289,156,223,124,0,
2,1775672087968,1024,760,10131,500909,-65973,-96516,0,0,0,481,535,349,476,454,511,543,370,374,255,170,476,0,
1,1775672087984,-5111,1100,20545,-6728069,-2058615,-1693318,0,0,0,221,297,238,254,193,311,334,269,287,157,224,124,0,
2,1775672087984,1162,655,10169,535117,-41538,-117286,0,0,0,489,543,350,480,464,518,541,348,381,256,174,492,0,
1,1775672088000,-5364,-138,23479,-6746395,-2058615,-1547932,0,0,0,221,297,238,255,194,313,331,267,287,158,227,127,0,
2,1775672088000,1258,545,10323,574213,-21991,-164933,0,0,0,501,546,352,483,470,524,527,317,380,256,165,507,0,
1,1775672088016,-5819,-1167,26417,-6623000,-1979203,-1616349,0,0,0,226,297,243,252,189,312,335,265,287,159,218,127,0,
2,1775672088016,1225,516,10533,652404,-35430,-208915,0,0,0,504,550,350,489,477,528,516,294,385,260,165,524,0,
1,1775672088032,-6551,-2751,29351,-6433632,-1938886,-2025629,0,0,0,225,298,244,254,189,312,339,268,291,159,213,124,0,
2,1775672088032,1115,488,10691,794124,-59864,-239459,0,0,0,508,551,342,492,483,530,503,274,393,264,166,544,0,
1,1775672088048,-7504,-7657,31811,-6227160,-2222327,-2762332,0,0,0,230,301,241,262,193,312,341,260,289,171,215,126,0,
2,1775672088048,1143,406,10978,963945,-65973,-256563,0,0,0,508,553,341,495,498,536,486,258,401,270,172,559,0,
1,1775672088064,-8188,-16434,31677,-6035348,-2652376,-3163060,0,0,0,231,302,241,265,194,316,339,252,295,177,216,129,0,
2,1775672088064,1229,296,11495,1163087,-59864,-276111,0,0,0,514,560,335,503,510,542,462,244,397,272,178,570,0,
1,1775672088080,-6058,-28556,26465,-5550321,-2842966,-2498438,0,0,0,231,304,237,267,197,316,341,252,298,181,217,129,0,
2,1775672088080,1143,244,12079,1436755,-52534,-298102,0,0,0,522,565,317,510,516,546,436,236,395,272,178,580,0,
1,1775672088096,1789,-41799,19372,-4345695,-2915048,-1021366,0,0,0,233,306,236,270,201,316,344,256,297,184,218,129,0,
2,1775672088096,1000,210,12629,1773952,-50090,-306654,0,0,0,523,564,293,509,523,544,406,233,397,273,176,591,0,
1,1775672088112,13792,-49116,15635,-2516764,-2265088,442266,0,0,0,235,306,238,271,201,318,346,259,296,188,222,132,0,
2,1775672088112,1072,153,13338,2208888,-58643,-302989,0,0,0,524,563,271,503,529,540,370,232,398,276,182,600,0,
1,1775672088128,17319,-47949,15649,-470366,-111177,1098335,0,0,0,235,296,227,273,195,308,370,297,290,211,267,121,0,
2,1775672088128,1612,124,14410,2748893,-86742,-333532,0,0,0,530,563,259,496,533,539,330,228,401,276,190,608,0,
1,1775672088144,9633,-36300,17817,1363451,1970651,1276708,0,0,0,236,271,194,275,179,276,423,381,274,265,359,92,0,
2,1775672088144,2574,138,15860,3400075,-177150,-452040,0,0,0,535,562,256,490,539,543,294,215,398,269,186,611,0,
1,1775672088160,-3393,-1832,17506,2878397,3291341,719599,0,0,0,238,246,150,273,166,250,455,432,260,313,411,85,0,
2,1775672088160,3292,483,17860,4263839,-346971,-676838,0,0,0,537,560,255,484,531,539,268,194,388,255,171,593,0,
1,1775672088176,-7982,17176,11289,3937637,3780034,-218689,0,0,0,239,244,142,287,175,256,472,472,254,355,426,83,0,
2,1775672088176,4489,894,20454,5369505,-552222,-978606,0,0,0,529,547,253,485,524,535,268,166,395,248,163,551,0,
1,1775672088192,-1124,7298,11600,5253441,2861292,-665843,0,0,0,234,247,139,289,169,263,481,481,272,394,436,91,0,
2,1775672088192,5896,928,23641,6521597,-750142,-1341460,0,0,0,505,526,252,483,507,531,269,163,400,229,145,481,0,
1,1775672088208,4910,-3115,21832,5817880,852767,114842,0,0,0,250,258,181,301,172,291,496,497,278,413,451,89,0,
2,1775672088208,6743,1028,28911,7739662,-748920,-1727526,0,0,0,437,508,224,463,490,506,272,165,378,209,139,408,0,
1,1775672088224,373,-2981,24761,4735427,-80634,945619,0,0,0,263,278,214,325,192,315,517,517,305,426,463,105,0,
2,1775672088224,7508,2316,32146,8681616,-304210,-2037846,0,0,0,374,484,215,425,448,466,284,181,339,182,122,361,0,
1,1775672088240,-5139,-1100,18478,2706133,57421,529009,0,0,0,267,296,252,341,209,362,523,523,331,434,465,150,0,
2,1775672088240,8059,4551,32208,9370672,436157,-2420248,0,0,0,308,451,226,374,405,424,306,247,303,140,110,275,0,
1,1775672088256,-4398,-631,12270,1076344,230907,-158824,0,0,0,305,314,264,363,220,374,533,533,326,439,476,202,0,
2,1775672088256,8887,5996,28590,9627236,990823,-3010343,0,0,0,286,436,247,345,375,399,319,278,290,112,102,215,0,
1,1775672088272,-1454,-148,9882,400727,84299,-294437,0,0,0,313,344,265,367,234,378,543,537,328,441,489,243,0,
2,1775672088272,11060,9432,18588,9268047,647517,-3692069,0,0,0,285,438,251,341,375,399,325,303,292,113,110,203,0,
1,1775672088288,-1971,607,10035,420275,-47647,-36651,0,0,0,325,341,276,374,229,389,549,516,337,457,486,278,0,
2,1775672088288,10179,14103,11371,7560068,-238237,-4170987,0,0,0,284,439,244,342,377,396,325,311,287,114,113,202,0,
1,1775672088304,-2799,880,9581,438601,32986,83077,0,0,0,342,338,288,383,233,405,555,502,349,464,473,306,0,
2,1775672088304,4852,21493,7977,3370754,-916297,-3014009,0,0,0,284,439,242,346,381,394,327,312,277,114,111,199,0,
1,1775672088320,-2574,813,7901,355523,178372,74525,0,0,0,344,343,292,385,242,413,556,483,356,455,462,329,0,
2,1775672088320,2665,20928,8308,-2118480,-1451415,-17104,0,0,0,285,441,243,347,382,392,329,314,273,116,112,199,0,
1,1775672088336,-2148,760,8332,327423,147829,53756,0,0,0,341,345,293,393,245,416,553,453,358,443,443,349,0,
2,1775672088336,5168,12534,8442,-6104987,-1987755,2433687,0,0,0,278,442,243,344,380,390,331,314,274,150,132,200,0,
1,1775672088352,-2158,837,9959,388510,23212,63529,0,0,0,346,349,292,411,250,421,549,440,361,434,411,366,0,
2,1775672088352,8906,4398,6752,-6602231,-1778839,2576629,0,0,0,266,442,245,345,382,393,333,316,277,179,150,201,0,
1,1775672088368,-2215,904,10524,459370,-65973,81855,0,0,0,347,354,289,413,254,424,542,425,360,422,398,382,0,
2,1775672088368,8825,2823,5144,-5832541,-659734,1430646,0,0,0,261,442,245,348,384,397,331,316,276,115,114,201,0,
1,1775672088384,-2225,837,10040,500909,-119729,86742,0,0,0,348,363,291,413,259,436,533,387,372,407,399,396,0,
2,1775672088384,6810,3670,5862,-5608964,196698,577878,0,0,0,264,445,248,347,384,395,333,321,277,116,115,201,0,
1,1775672088400,-2268,641,9667,488692,-138055,81855,0,0,0,355,375,272,405,273,433,527,375,371,400,361,407,0,
2,1775672088400,4785,4465,8202,-6053674,452040,252898,0,0,0,260,442,245,344,383,394,333,322,275,114,115,199,0,
1,1775672088416,-2345,454,9542,448375,-118507,83077,0,0,0,365,394,266,412,330,429,525,367,373,385,347,402,0,
2,1775672088416,3771,4541,10145,-6543588,566882,219911,0,0,0,262,443,246,344,383,394,335,323,274,115,118,199,0,
1,1775672088432,-2416,373,9533,414166,-79412,94073,0,0,0,358,383,283,419,288,440,518,339,383,383,325,409,0,
2,1775672088432,3622,4211,11261,-6776938,888198,422718,0,0,0,262,444,246,347,385,397,336,327,278,117,119,198,0,
1,1775672088448,-2440,349,9571,404392,-28099,106290,0,0,0,357,387,286,408,289,447,513,331,378,364,326,425,0,
2,1775672088448,3129,4154,12691,-6822142,1402546,779464,0,0,0,262,444,246,346,385,395,336,326,278,117,119,199,0,
1,1775672088464,-2388,325,9595,394618,24434,118507,0,0,0,353,390,287,403,291,449,506,311,377,358,307,429,0,
2,1775672088464,2517,4163,14673,-6912551,1777617,1192408,0,0,0,261,443,245,346,385,395,335,324,278,121,121,196,0,
1,1775672088480,-2282,268,9600,377514,48869,125838,0,0,0,365,397,283,414,293,452,501,294,381,364,296,433,0,
2,1775672088480,2479,3938,17027,-7050606,1927890,1505171,0,0,0,263,445,248,347,384,396,339,326,281,116,119,198,0,
1,1775672088496,-2206,210,9676,368962,43982,135612,0,0,0,364,407,273,417,298,452,494,278,381,355,283,440,0,
2,1775672088496,2756,3536,19880,-7184996,2028072,1642005,0,0,0,263,446,249,350,385,398,341,327,284,120,119,197,0,
1,1775672088512,-2230,153,9810,378736,8552,158824,0,0,0,371,413,271,417,308,458,489,274,385,341,272,451,0,
2,1775672088512,3105,3287,23038,-7315722,2076941,1558928,0,0,0,264,446,249,351,384,399,347,326,288,119,118,198,0,
1,1775672088528,-2373,119,9892,411723,-13439,201585,0,0,0,382,415,274,423,318,463,486,274,391,335,265,460,0,
2,1775672088528,3512,3268,27274,-7524638,2070833,1437976,0,0,0,263,444,248,354,384,400,349,322,290,115,115,200,0,
1,1775672088544,-2555,114,9911,463035,-2443,256563,0,0,0,384,418,268,427,324,463,482,258,393,327,255,467,0,
2,1775672088544,3790,1990,31820,-7751879,2089159,1466076,0,0,0,263,443,247,356,384,403,349,319,292,117,114,201,0,
1,1775672088560,-2694,52,9911,527787,28099,339641,0,0,0,394,420,262,425,329,469,474,242,400,318,245,483,0,
2,1775672088560,3062,-3311,35214,-7804414,2296853,1709200,0,0,0,265,446,248,358,385,406,352,316,296,120,114,202,0,
1,1775672088576,-2603,-76,10045,592539,40317,426383,0,0,0,399,429,271,427,341,472,465,232,409,311,238,498,0,
2,1775672088576,832,-14347,36587,-7304726,2465452,1964542,0,0,0,269,448,249,364,389,408,357,314,298,135,119,201,0,
1,1775672088592,-2431,-196,10346,680503,47647,477696,0,0,0,413,445,294,433,364,496,456,224,427,308,239,519,0,
2,1775672088592,-373,-31160,33467,-6013357,1992642,1868025,0,0,0,267,447,246,363,388,410,357,311,302,166,150,201,0,
1,1775672088608,-2364,-263,10715,811229,53756,514348,0,0,0,429,453,272,451,372,490,445,217,430,300,231,527,0,
2,1775672088608,-14,-45479,23957,-4091575,1340238,819781,0,0,0,266,447,245,363,385,412,352,302,300,177,193,205,0,
1,1775672088624,-2177,-282,11289,1007927,58643,531452,0,0,0,427,461,260,443,383,493,430,216,425,304,224,540,0,
2,1775672088624,-6982,-50274,16774,-1745852,1348790,-1033583,0,0,0,266,446,246,365,387,414,354,318,295,167,185,199,0,
1,1775672088640,-1770,-296,11964,1329242,36651,499687,0,0,0,434,473,247,452,428,497,398,210,424,292,226,552,0,
2,1775672088640,-14625,-46250,17061,103847,558330,-1915673,0,0,0,251,437,236,364,389,410,387,413,293,132,164,188,0,
1,1775672088656,-1416,-373,12366,1642005,-2443,423940,0,0,0,428,480,225,453,416,516,371,204,426,275,209,561,0,
2,1775672088656,-9892,-28475,22158,1789835,-1572367,-1282817,0,0,0,251,399,208,357,366,383,440,470,276,163,220,183,0,
1,1775672088672,-1603,-516,12864,1976759,-57421,332310,0,0,0,416,488,213,454,414,518,328,198,418,263,196,569,0,
2,1775672088672,1876,2455,19210,3374419,-3816686,-298102,0,0,0,253,369,186,347,345,382,476,478,279,178,258,182,0,
1,1775672088688,-2699,-502,13921,2487443,-107512,343306,0,0,0,429,477,224,456,412,515,270,198,415,250,180,564,0,
2,1775672088688,6987,15419,10787,4276056,-4543615,460592,0,0,0,262,369,187,350,341,391,486,486,293,189,288,186,0,
1,1775672088704,-3967,-382,15333,3144734,-112399,505796,0,0,0,444,462,252,434,402,517,229,189,426,236,160,551,0,
2,1775672088704,-469,2632,12744,5099503,-2833192,810007,0,0,0,265,370,193,356,341,403,493,494,299,197,310,195,0,
1,1775672088720,-5168,-177,17224,3987728,-90408,849102,0,0,0,452,454,248,406,377,515,207,173,424,200,130,533,0,
2,1775672088720,-6685,-3235,19449,5213123,-934623,489913,0,0,0,268,383,211,365,345,407,507,508,306,206,317,200,0,
1,1775672088736,-6676,-210,19880,4939456,-50090,1276708,0,0,0,434,438,238,388,354,502,196,154,413,165,107,501,0,
2,1775672088736,-3498,430,21234,4450764,-108734,-365297,0,0,0,274,400,246,372,351,416,522,523,316,213,316,212,0,
1,1775672088752,-8786,-756,23311,5924171,86742,1758070,0,0,0,398,401,234,374,332,476,190,145,401,157,102,437,0,
2,1775672088752,2684,2096,18315,3255911,-50090,-585208,0,0,0,289,419,283,385,361,428,539,539,327,223,318,234,0,
1,1775672088768,-10083,-296,25986,6800151,313984,2278527,0,0,0,357,364,212,355,299,437,196,158,378,156,107,350,0,
2,1775672088768,3302,492,13553,1903456,-304210,0,0,0,0,315,441,311,402,376,442,553,553,333,234,314,262,0,
1,1775672088784,-10007,1048,27901,7522194,582765,2790432,0,0,0,296,349,208,323,271,389,215,188,344,142,130,278,0,
2,1775672088784,1301,-392,11438,1009149,-411723,301767,0,0,0,345,460,329,414,390,454,563,563,332,241,307,290,0,
1,1775672088800,-9183,3278,28332,8056090,879645,3132516,0,0,0,243,319,202,273,244,328,252,250,296,140,190,186,0,
2,1775672088800,47,-38,11098,458148,-372627,204028,0,0,0,366,471,336,420,398,460,569,569,337,247,307,311,0,
1,1775672088816,-10275,5125,25221,8448266,1260825,3351206,0,0,0,229,275,222,238,184,280,305,263,279,146,216,123,0,
2,1775672088816,536,751,10729,235793,-287106,35430,0,0,0,378,477,334,422,401,462,571,570,344,249,306,321,0,
1,1775672088832,-12668,8585,16367,8065864,1276708,3597996,0,0,0,220,288,237,246,197,304,305,280,286,147,227,125,0,
2,1775672088832,904,1206,10366,122173,-196698,-14660,0,0,0,386,482,335,421,400,462,574,573,342,247,301,326,0,
1,1775672088848,-12050,14156,9892,5914397,564439,3612657,0,0,0,219,299,228,246,201,302,301,274,277,152,229,126,0,
2,1775672088848,904,1268,10241,96516,-130725,0,0,0,0,388,484,337,420,402,465,580,577,341,246,296,331,0,
1,1775672088864,-6585,19128,10145,1800830,67195,2493551,0,0,0,222,298,226,247,199,298,304,271,274,156,228,128,0,
2,1775672088864,804,1340,10256,136833,-102625,-8552,0,0,0,400,491,348,415,399,459,590,576,339,244,287,333,0,
1,1775672088880,-2670,16783,10327,-2761110,1188743,-12217,0,0,0,226,301,227,249,197,299,309,270,275,157,228,129,0,
2,1775672088880,717,1440,10279,218689,-72082,-30543,0,0,0,406,490,347,421,399,459,570,567,338,258,283,348,0,
1,1775672088896,-5809,9892,6743,-4568050,2138028,-1595580,0,0,0,223,301,229,250,198,301,312,272,276,158,229,129,0,
2,1775672088896,674,1454,10232,323758,-10995,-41538,0,0,0,405,490,331,434,410,470,570,554,342,255,269,366,0,
1,1775672088912,-9758,5297,3129,-4386012,1334129,-1530828,0,0,0,222,302,229,251,200,302,314,272,275,159,227,126,0,
2,1775672088912,737,1320,10102,409279,56199,-32986,0,0,0,412,497,331,433,411,471,573,541,349,249,253,377,0,
1,1775672088928,-8006,4623,3287,-4156327,-177150,-816115,0,0,0,223,302,230,252,199,302,317,273,276,161,226,126,0,
2,1775672088928,832,1177,9987,450818,85521,-25656,0,0,0,425,502,332,435,411,472,567,525,343,248,239,385,0,
1,1775672088944,-5297,4876,5053,-4354247,-572991,-527787,0,0,0,224,301,235,254,199,306,316,273,280,161,228,130,0,
2,1775672088944,904,1091,9920,463035,76969,-29321,0,0,0,427,504,331,439,413,476,564,511,345,254,232,393,0,
1,1775672088960,-4881,4785,6877,-4900360,-323758,-669508,0,0,0,224,302,237,257,199,309,316,272,282,162,229,133,0,
2,1775672088960,947,1019,9877,454483,48869,-39095,0,0,0,431,506,334,442,417,482,566,499,352,248,216,399,0,
1,1775672088976,-5455,4426,8135,-5404935,-458148,-867428,0,0,0,226,302,234,259,199,307,319,274,280,164,229,132,0,
2,1775672088976,1005,928,9863,430049,7330,-45204,0,0,0,438,511,335,444,421,487,569,486,358,242,201,409,0,
1,1775672088992,-5460,3981,9447,-5838649,-880867,-1076344,0,0,0,226,304,235,261,200,307,321,277,281,165,230,130,0,
2,1775672088992,1043,837,9873,393397,-46425,-50090,0,0,0,447,516,338,447,426,492,568,472,363,242,193,421,0,
1,1775672089008,-5096,3292,10949,-6150191,-1271821,-1325577,0,0,0,225,302,240,258,200,308,320,277,284,165,232,132,0,
2,1775672089008,1033,799,9920,367740,-94073,-58643,0,0,0,455,520,343,449,429,493,564,458,364,243,188,432,0,
1,1775672089024,-4809,2383,12744,-6343224,-1620014,-1535715,0,0,0,223,305,241,256,203,310,322,278,284,162,232,133,0,
2,1775672089024,995,784,9968,354301,-127059,-68416,0,0,0,462,525,347,450,433,494,563,447,366,244,186,444,0,
1,1775672089040,-4575,1732,14883,-6368880,-1847256,-1551597,0,0,0,224,304,243,254,201,309,320,277,285,161,231,129,0,
2,1775672089040,942,756,10007,365297,-139277,-74525,0,0,0,471,529,351,456,439,500,565,437,374,245,180,457,0,
1,1775672089056,-4450,1316,17420,-6382320,-2024407,-1447750,0,0,0,222,303,244,254,201,309,323,279,286,163,232,129,0,
2,1775672089056,894,722,10083,398284,-141720,-81855,0,0,0,477,532,356,462,444,505,560,421,373,243,169,466,0,
1,1775672089072,-4426,981,20167,-6449515,-2167349,-1290147,0,0,0,222,302,252,255,201,314,322,277,287,165,230,133,0,
2,1775672089072,875,679,10169,452040,-140499,-87964,0,0,0,483,531,346,462,446,507,551,397,371,251,175,489,0,
1,1775672089088,-4637,459,23148,-6550918,-2229658,-1286482,0,0,0,224,304,244,259,203,313,322,277,286,162,230,131,0,
2,1775672089088,952,593,10208,520457,-129503,-101403,0,0,0,486,537,346,471,466,510,546,371,377,257,176,506,0,
1,1775672089104,-5369,-574,26269,-6560692,-2263866,-1540602,0,0,0,224,302,247,260,203,314,322,277,286,164,231,132,0,
2,1775672089104,1134,473,10241,581543,-109955,-140499,0,0,0,497,541,351,483,478,518,534,340,375,264,176,521,0,
1,1775672089120,-6274,-2904,29408,-6423858,-2447126,-2056172,0,0,0,224,303,249,257,201,313,326,278,289,165,227,133,0,
2,1775672089120,1124,387,10380,646295,-83077,-199142,0,0,0,508,549,357,484,478,524,517,308,375,267,179,545,0,
1,1775672089136,-6733,-8920,32395,-6192951,-2841745,-2671924,0,0,0,227,304,249,260,200,314,333,278,289,169,226,131,0,
2,1775672089136,933,368,10729,761138,-58643,-235793,0,0,0,503,543,345,483,484,525,498,277,389,346,232,550,0,
1,1775672089152,-6872,-19454,31438,-5921727,-2922379,-2687807,0,0,0,226,304,249,262,201,319,336,276,293,173,226,130,0,
2,1775672089152,938,368,11189,966388,-51312,-238237,0,0,0,511,550,333,488,498,533,484,254,393,294,187,574,0,
1,1775672089168,-5154,-31026,26436,-5362175,-2862514,-2015855,0,0,0,224,305,247,260,202,322,336,274,297,175,225,131,0,
2,1775672089168,1110,291,11672,1209513,-40317,-251676,0,0,0,516,557,318,498,512,535,454,239,396,276,176,586,0,
1,1775672089184,3172,-43483,18291,-3849672,-2797762,-522900,0,0,0,224,302,232,263,201,313,340,287,293,190,240,125,0,
2,1775672089184,1335,110,12419,1519832,0,-290771,0,0,0,523,565,298,499,517,540,419,234,395,273,178,588,0,
1,1775672089200,13481,-47293,15199,-1731192,-1696983,574213,0,0,0,227,288,203,266,196,296,364,328,282,226,282,110,0,
2,1775672089200,1139,157,13548,1960877,29321,-344527,0,0,0,526,564,275,498,526,545,378,230,394,272,180,598,0,
1,1775672089216,17994,-46403,18166,624304,712268,971275,0,0,0,234,265,193,269,182,277,417,393,270,257,338,94,0,
2,1775672089216,1086,330,14773,2547308,-20769,-372627,0,0,0,529,563,260,494,533,544,340,237,391,269,179,605,0,
1,1775672089232,9471,-23828,18602,3467271,3984063,500909,0,0,0,240,250,155,265,160,247,452,433,249,313,411,88,0,
2,1775672089232,1919,392,16075,3205820,-142942,-422718,0,0,0,532,564,252,488,532,541,303,229,386,267,179,604,0,
1,1775672089248,-1564,4848,16386,5238780,5000542,-113620,0,0,0,251,259,154,285,168,249,462,462,258,352,416,99,0,
2,1775672089248,3302,593,18243,4105014,-316428,-613308,0,0,0,533,558,249,482,525,539,273,191,384,266,179,591,0,
1,1775672089264,-2072,10241,16716,5597969,2776993,-409279,0,0,0,242,259,155,289,172,274,470,471,274,364,423,85,0,
2,1775672089264,4824,1067,20971,5199684,-555887,-919963,0,0,0,532,547,253,478,517,535,264,165,385,248,166,551,0,
1,1775672089280,3445,-23,22593,5360953,-271224,162490,0,0,0,243,270,174,294,188,289,483,483,289,389,431,93,0,
2,1775672089280,5872,1450,24254,6390872,-833220,-1313360,0,0,0,510,530,251,480,505,526,262,159,384,227,150,488,0,
1,1775672089296,253,-3737,23388,4114788,-1233947,822224,0,0,0,261,285,229,321,196,334,490,490,312,414,436,112,0,
2,1775672089296,5680,1756,29346,7722558,-934623,-1667662,0,0,0,445,508,231,460,488,505,272,168,371,211,139,420,0,
1,1775672089312,-6695,-1569,15046,2150245,-519235,531452,0,0,0,265,303,254,332,210,359,511,506,358,419,452,157,0,
2,1775672089312,5991,3273,32275,8824559,-509461,-1892460,0,0,0,368,481,216,427,447,465,286,185,340,186,126,363,0,
1,1775672089328,-5178,287,8734,1066570,139277,-195476,0,0,0,294,315,260,349,217,367,526,506,357,424,472,204,0,
2,1775672089328,7351,5302,30801,9528275,353080,-2195449,0,0,0,314,450,228,365,399,419,304,253,300,146,115,296,0,
1,1775672089344,-2072,86,8624,542448,299323,-360410,0,0,0,319,327,281,367,223,383,528,508,348,435,482,241,0,
2,1775672089344,9102,6077,26752,9783617,1128878,-2713463,0,0,0,271,431,236,342,375,389,315,271,280,114,101,210,0,
1,1775672089360,-2067,9,10691,268780,263893,-112399,0,0,0,328,339,294,378,228,395,534,504,343,441,487,268,0,
2,1775672089360,10715,8537,17291,9509950,1326799,-3494149,0,0,0,281,438,244,343,379,393,320,297,286,114,114,205,0,
1,1775672089376,-2598,598,10993,98960,278554,25656,0,0,0,336,345,298,381,230,397,545,492,338,437,486,291,0,
2,1775672089376,8901,11974,11663,8374962,605978,-4218635,0,0,0,288,442,246,348,381,396,324,308,285,118,115,206,0,
1,1775672089392,-2574,1081,10270,151494,256563,42760,0,0,0,341,347,314,385,238,407,542,487,348,440,470,313,0,
2,1775672089392,2546,18717,10126,5641951,-449596,-3293785,0,0,0,286,440,241,346,378,391,325,310,274,115,111,199,0,
1,1775672089408,-2249,1057,10021,287106,144164,46425,0,0,0,337,353,322,396,249,424,536,476,364,447,456,331,0,
2,1775672089408,-670,24020,8308,445931,-1655444,-76969,0,0,0,287,442,240,347,378,390,327,308,270,116,110,196,0,
1,1775672089424,-2244,933,10212,382401,6108,70860,0,0,0,341,360,321,383,251,430,541,463,369,436,443,340,0,
2,1775672089424,5929,16185,6934,-5061629,-2212553,3389080,0,0,0,288,442,239,351,380,390,329,312,271,116,111,196,0,
1,1775672089440,-2378,952,10169,428827,-64751,90408,0,0,0,370,364,313,396,260,444,530,445,376,419,420,369,0,
2,1775672089440,10509,7240,6786,-6724404,-1626123,3671300,0,0,0,288,442,241,353,382,390,329,315,269,118,112,197,0,
1,1775672089456,-2450,899,9987,453262,-89186,94073,0,0,0,356,367,321,404,270,461,530,416,374,413,392,392,0,
2,1775672089456,8753,3034,7236,-6506936,-531452,2025629,0,0,0,288,442,242,353,382,390,331,317,270,120,113,198,0,
1,1775672089472,-2474,713,9920,425162,-53756,85521,0,0,0,356,367,337,397,258,458,523,413,384,405,390,392,0,
2,1775672089472,5216,2885,7671,-6196616,-147829,802676,0,0,0,285,443,242,352,382,390,335,321,273,119,115,198,0,
1,1775672089488,-2479,550,9700,400727,-21991,78190,0,0,0,349,378,337,397,269,458,525,393,386,399,370,386,0,
2,1775672089488,3742,2770,8384,-6234490,-233350,240680,0,0,0,282,443,244,352,383,389,337,322,272,119,115,198,0,
1,1775672089504,-2483,478,9475,365297,1221,78190,0,0,0,348,387,337,393,269,450,523,374,380,385,366,387,0,
2,1775672089504,3493,2680,9509,-6447071,-25656,-17104,0,0,0,281,445,244,352,385,390,336,324,271,121,118,198,0,
1,1775672089520,-2455,449,9466,298102,45204,86742,0,0,0,348,391,327,394,266,447,521,366,379,381,350,389,0,
2,1775672089520,2924,3359,11227,-6729291,576656,-52534,0,0,0,275,444,243,352,385,390,333,325,271,119,118,198,0,
1,1775672089536,-2402,416,9518,251676,81855,94073,0,0,0,347,397,325,396,265,456,519,360,387,378,341,396,0,
2,1775672089536,1761,4106,13510,-7079928,1126435,194255,0,0,0,275,446,246,358,391,395,338,328,272,120,120,198,0,
1,1775672089552,-2325,397,9562,229685,100181,97738,0,0,0,343,395,319,401,271,459,519,347,390,374,334,398,0,
2,1775672089552,1229,3914,15587,-7408573,1400103,579100,0,0,0,269,445,245,357,391,395,336,328,272,121,121,198,0,
1,1775672089568,-2230,402,9609,224798,92851,97738,0,0,0,346,394,316,404,276,454,517,333,388,372,326,400,0,
2,1775672089568,1550,2928,17276,-7547850,1558928,897971,0,0,0,268,445,246,354,388,395,337,328,272,119,122,199,0,
1,1775672089584,-2187,445,9700,240680,75747,97738,0,0,0,356,401,327,404,275,457,518,325,394,371,318,410,0,
2,1775672089584,1708,2096,19262,-7550294,1732413,1072679,0,0,0,268,447,248,350,386,393,340,329,277,115,117,196,0,
1,1775672089600,-2220,449,9806,279776,52534,97738,0,0,0,364,409,326,410,278,462,516,319,398,367,306,417,0,
2,1775672089600,1799,1517,21861,-7446447,1759291,1134987,0,0,0,266,446,249,352,387,395,340,327,276,115,117,196,0,
1,1775672089616,-2292,387,9916,337197,39095,112399,0,0,0,370,419,302,423,285,452,503,307,385,362,296,422,0,
2,1775672089616,3249,1182,25039,-7315722,1629788,1161865,0,0,0,266,447,249,354,388,397,326,322,282,116,116,197,0,
1,1775672089632,-2412,311,9949,405614,40317,150272,0,0,0,371,417,276,448,277,447,498,291,384,365,280,435,0,
2,1775672089632,5585,650,29078,-7312056,1685988,1169196,0,0,0,268,448,250,356,386,398,338,320,286,119,116,199,0,
1,1775672089648,-2512,268,9949,482583,48869,205250,0,0,0,380,418,280,446,283,461,490,278,393,354,273,444,0,
2,1775672089648,6872,-2029,32778,-7514864,2062281,1230282,0,0,0,270,447,249,357,385,400,352,318,289,122,116,200,0,
1,1775672089664,-2531,220,9964,558330,63529,271224,0,0,0,394,432,294,437,289,468,487,261,415,347,256,479,0,
2,1775672089664,4402,-10825,34299,-7495316,2704911,1439198,0,0,0,271,447,249,361,387,403,357,314,295,122,114,200,0,
1,1775672089680,-2493,134,10083,648738,94073,335975,0,0,0,398,449,340,432,284,476,487,244,405,336,233,487,0,
2,1775672089680,-1162,-24134,33156,-6668204,2972470,1712866,0,0,0,272,448,249,364,389,407,361,316,302,121,113,200,0,
1,1775672089696,-2431,23,10251,751364,122173,388510,0,0,0,412,454,340,443,301,494,474,228,411,315,215,503,0,
2,1775672089696,-4891,-38358,26025,-4707327,2091602,1721418,0,0,0,272,447,248,366,392,410,364,318,306,121,113,203,0,
1,1775672089712,-2335,-52,10591,866206,135612,423940,0,0,0,414,441,324,460,324,504,450,217,415,317,207,544,0,
2,1775672089712,-5699,-48274,16860,-2356718,1077566,840550,0,0,0,272,447,248,368,393,413,361,316,303,124,115,205,0,
1,1775672089728,-2182,-90,11284,1066570,144164,442266,0,0,0,419,452,299,469,310,506,426,205,410,299,190,573,0,
2,1775672089728,-8202,-48499,14146,-548556,591317,-739146,0,0,0,269,446,247,365,392,411,367,343,298,128,131,202,0,
1,1775672089744,-1962,-167,11844,1324355,144164,439822,0,0,0,425,465,275,477,318,511,406,200,413,299,188,582,0,
2,1775672089744,-10437,-37894,18257,1102000,-445931,-1569923,0,0,0,258,433,235,361,387,402,405,434,291,145,189,190,0,
1,1775672089760,-1899,-277,12467,1678657,113620,414166,0,0,0,437,474,253,502,343,510,375,195,415,298,181,586,0,
2,1775672089760,-2708,-9882,22924,2527760,-2307848,-1048244,0,0,0,250,387,198,357,362,380,468,483,281,167,229,181,0,
1,1775672089776,-2354,-344,13400,2127032,65973,415388,0,0,0,442,470,246,504,362,516,319,191,419,277,166,582,0,
2,1775672089776,6920,15290,15884,3086091,-4083023,178372,0,0,0,267,376,187,347,338,380,493,493,289,183,260,181,0,
1,1775672089792,-2732,-368,14572,2670702,56199,488692,0,0,0,445,454,243,488,370,528,263,188,426,268,163,575,0,
2,1775672089792,5599,13347,9121,4008497,-4388455,1148426,0,0,0,270,377,189,363,341,395,506,507,292,249,345,175,0,
1,1775672089808,-3613,-100,15994,3437949,61086,643851,0,0,0,456,445,238,477,368,533,227,173,436,264,155,570,0,
2,1775672089808,-4895,-1139,14367,5051855,-2649933,1259604,0,0,0,269,378,190,365,339,398,521,536,288,342,437,163,0,
1,1775672089824,-5245,134,17525,4229630,86742,912632,0,0,0,456,448,245,454,357,534,203,153,441,220,123,545,0,
2,1775672089824,-7992,-1876,20794,4741535,-984714,188146,0,0,0,272,388,209,372,347,405,521,525,300,257,358,183,0,
1,1775672089840,-7504,-81,20459,5183802,257785,1391551,0,0,0,448,441,250,446,351,515,210,145,404,197,104,483,0,
2,1775672089840,-2081,2689,19124,3811799,-197920,-816115,0,0,0,273,399,231,379,355,415,528,527,311,216,317,193,0,
1,1775672089856,-9518,-478,23909,6082996,493579,1913229,0,0,0,399,416,237,404,334,481,194,145,390,169,104,403,0,
2,1775672089856,3412,3082,14170,2905275,-134390,-668286,0,0,0,289,420,276,390,365,426,538,537,318,220,313,213,0,
1,1775672089872,-10729,-186,26647,6902777,733038,2447126,0,0,0,351,410,239,349,308,447,187,164,361,157,116,332,0,
2,1775672089872,2364,325,11959,1864360,-239459,-72082,0,0,0,306,443,302,403,375,436,549,548,325,230,314,236,0,
1,1775672089888,-10495,1354,27886,7606493,856433,2994461,0,0,0,290,351,216,338,264,381,216,203,316,152,138,259,0,
2,1775672089888,717,-469,11753,970053,-293215,125838,0,0,0,322,457,308,415,386,447,560,559,332,236,312,258,0,
1,1775672089904,-9772,2799,28049,8161159,822224,3456275,0,0,0,236,306,229,263,232,323,265,241,289,137,179,161,0,
2,1775672089904,339,339,11361,453262,-280998,81855,0,0,0,341,464,316,423,395,455,566,567,333,239,308,277,0,
1,1775672089920,-10581,5441,21651,8297993,1049466,3695734,0,0,0,238,294,233,256,198,316,290,249,290,145,209,135,0,
2,1775672089920,469,1115,10495,266337,-222354,13439,0,0,0,358,470,326,425,400,461,569,570,331,242,304,291,0,
1,1775672089936,-11385,9313,12964,7792196,1315803,3863111,0,0,0,236,296,241,265,187,311,309,255,290,155,218,132,0,
2,1775672089936,622,1344,10160,200363,-150272,0,0,0,0,371,474,334,423,400,463,572,572,332,241,299,301,0,
1,1775672089952,-9571,12687,9782,5805663,1059240,3110525,0,0,0,229,302,251,257,191,320,310,262,292,153,219,133,0,
2,1775672089952,650,1421,10313,186924,-141720,10995,0,0,0,378,474,336,422,398,463,576,575,335,244,292,307,0,
1,1775672089968,-6183,16257,9351,2294409,612086,1066570,0,0,0,228,306,247,252,196,317,305,265,289,151,222,132,0,
2,1775672089968,555,1531,10380,230907,-142942,0,0,0,0,385,478,338,427,401,464,575,574,336,254,285,313,0,
1,1775672089984,-3790,15931,9136,-1848478,678060,-1815491,0,0,0,228,307,246,254,198,313,306,264,285,155,225,133,0,
2,1775672089984,406,1574,10318,321315,-84299,-17104,0,0,0,390,479,338,430,403,468,573,569,334,243,269,328,0,
1,1775672090000,-6250,10016,6724,-3775147,1061683,-3209485,0,0,0,224,307,250,255,199,318,309,263,287,157,226,136,0,
2,1775672090000,344,1526,10232,410501,14660,-25656,0,0,0,395,486,338,434,410,473,573,561,337,241,254,343,0,
1,1775672090016,-8652,5307,4106,-4052479,609643,-2875953,0,0,0,220,307,250,253,201,317,308,265,288,154,226,134,0,
2,1775672090016,430,1407,10122,465479,109955,-26878,0,0,0,396,490,332,436,410,477,573,546,346,241,242,355,0,
1,1775672090032,-6939,4785,4044,-3937637,-129503,-1914451,0,0,0,217,305,250,253,201,317,311,265,287,151,223,132,0,
2,1775672090032,540,1258,10007,488692,156381,-30543,0,0,0,397,489,330,435,406,477,571,531,347,265,247,360,0,
1,1775672090048,-4259,5063,5326,-4178318,-403171,-1108109,0,0,0,223,309,248,258,202,317,313,266,286,159,227,134,0,
2,1775672090048,583,1119,9901,489913,180816,-40317,0,0,0,405,487,333,440,404,484,566,516,352,249,229,379,0,
1,1775672090064,-3531,5297,6905,-4762305,-151494,-849102,0,0,0,227,309,234,266,203,311,314,266,281,160,227,127,0,
2,1775672090064,641,1052,9858,477696,191811,-48869,0,0,0,414,492,335,443,404,487,570,502,355,238,210,386,0,
1,1775672090080,-3962,4953,8346,-5463578,-175929,-790459,0,0,0,225,310,234,262,205,311,313,268,281,162,230,127,0,
2,1775672090080,804,1024,9906,474031,171042,-56199,0,0,0,423,493,337,450,406,494,572,488,357,239,197,399,0,
1,1775672090096,-3890,4230,9868,-6056117,-401949,-828333,0,0,0,225,310,240,264,206,316,316,268,284,160,226,127,0,
2,1775672090096,928,981,9949,474031,114842,-67195,0,0,0,431,495,341,454,408,500,573,476,364,240,189,412,0,
1,1775672090112,-3622,3230,11270,-6342002,-604756,-1023810,0,0,0,226,310,246,258,202,316,314,266,283,160,226,128,0,
2,1775672090112,938,885,9935,465479,37873,-78190,0,0,0,439,500,345,456,410,505,573,462,371,241,181,427,0,
1,1775672090128,-3732,2397,12663,-6444628,-775798,-1314581,0,0,0,229,309,244,263,200,312,318,269,284,164,227,126,0,
2,1775672090128,890,804,9930,454483,-24434,-86742,0,0,0,447,505,346,465,419,511,567,441,371,242,174,445,0,
1,1775672090144,-4580,2000,14467,-6461732,-983493,-1668883,0,0,0,231,315,236,272,211,309,323,275,283,165,228,124,0,
2,1775672090144,837,756,10002,461814,-57421,-94073,0,0,0,452,511,345,470,424,513,564,426,377,287,189,456,0,
1,1775672090160,-5695,1809,16539,-6538701,-1236391,-1951103,0,0,0,235,312,233,276,207,307,327,274,281,164,228,123,0,
2,1775672090160,808,698,10093,488692,-59864,-103847,0,0,0,455,518,345,467,427,511,569,411,388,327,200,466,0,
1,1775672090176,-6848,1474,19286,-6693861,-1527163,-2133141,0,0,0,235,308,233,278,201,307,323,267,279,167,227,122,0,
2,1775672090176,837,622,10189,530231,-35430,-119729,0,0,0,465,525,349,478,447,518,563,383,382,257,170,490,0,
1,1775672090192,-7872,765,22569,-6813590,-1762957,-2199114,0,0,0,233,307,233,280,200,307,322,265,279,169,226,121,0,
2,1775672090192,952,545,10236,577878,-12217,-139277,0,0,0,480,531,352,486,451,526,552,353,387,261,171,507,0,
1,1775672090208,-8911,-516,26432,-6836803,-1998751,-2221106,0,0,0,233,307,234,281,200,309,327,266,280,168,225,122,0,
2,1775672090208,1124,464,10308,638965,7330,-177150,0,0,0,481,532,339,487,453,529,545,321,389,278,176,531,0,
1,1775672090224,-9059,-3752,30145,-6726848,-2331061,-2258979,0,0,0,234,309,235,281,202,309,328,264,280,171,224,124,0,
2,1775672090224,1340,416,10514,712268,21991,-239459,0,0,0,491,534,343,500,466,542,529,282,397,352,232,541,0,
1,1775672090240,-8260,-9274,32864,-6594901,-2709798,-2273640,0,0,0,234,309,234,279,202,309,332,263,280,175,223,122,0,
2,1775672090240,1392,363,10911,839328,4886,-322536,0,0,0,506,543,333,497,473,540,517,257,397,336,215,562,0,
1,1775672090256,-6436,-19047,32801,-6426302,-2895501,-2096489,0,0,0,239,309,231,283,197,312,336,261,283,180,222,117,0,
2,1775672090256,1191,335,11447,1047023,-26878,-381179,0,0,0,504,543,318,503,482,541,489,252,405,294,191,579,0,
1,1775672090272,-2646,-34276,25489,-5608964,-2690250,-1238834,0,0,0,242,312,230,288,200,313,337,259,282,187,223,119,0,
2,1775672090272,933,263,12002,1342681,-17104,-398284,0,0,0,509,550,308,515,489,550,460,231,407,279,177,598,0,
1,1775672090288,3747,-44307,18391,-4039040,-2502104,-35430,0,0,0,230,315,235,273,204,318,334,262,287,179,225,121,0,
2,1775672090288,717,138,12605,1739744,80634,-389732,0,0,0,510,558,287,525,506,561,435,224,409,279,172,600,0,
1,1775672090304,13452,-48777,14721,-1761735,-1759291,1200961,0,0,0,230,314,235,270,204,316,332,263,282,178,225,121,0,
2,1775672090304,674,86,13309,2172236,153938,-368962,0,0,0,517,559,276,529,512,575,404,219,413,284,175,606,0,
1,1775672090320,15491,-44871,16199,204028,54977,1339016,0,0,0,228,291,227,268,196,301,367,322,280,224,306,115,0,
2,1775672090320,1316,110,14505,2691472,114842,-376292,0,0,0,519,558,258,543,540,564,366,210,416,279,178,611,0,
1,1775672090336,6968,-27805,19578,2006081,2028072,906524,0,0,0,234,266,188,268,176,272,430,388,259,273,358,94,0,
2,1775672090336,2397,191,16252,3433062,3665,-485026,0,0,0,521,555,248,540,539,560,324,190,405,267,171,613,0,
1,1775672090352,-5144,3699,16161,3466049,3524692,199142,0,0,0,244,256,164,276,170,256,459,445,252,312,398,85,0,
2,1775672090352,3211,459,18272,4316373,-134390,-707381,0,0,0,526,552,250,514,516,561,294,169,398,256,161,599,0,
1,1775672090368,-6905,14285,11136,4647462,3893655,-422718,0,0,0,246,254,153,287,168,261,468,469,259,351,420,87,0,
2,1775672090368,4369,985,21038,5462356,-285884,-1009149,0,0,0,525,541,253,498,511,552,282,162,406,245,155,554,0,
1,1775672090384,1234,2861,15764,5544212,2450791,-387288,0,0,0,247,259,165,294,169,281,484,485,273,381,431,94,0,
2,1775672090384,5556,1220,24910,6753726,-419053,-1369559,0,0,0,501,513,250,490,496,545,279,160,403,228,143,486,0,
1,1775672090400,4479,-3761,23158,5276653,789237,349414,0,0,0,255,272,196,304,179,304,499,499,289,400,439,99,0,
2,1775672090400,5250,1564,30117,7940026,-329867,-1626123,0,0,0,445,483,226,472,474,518,283,160,383,208,129,413,0,
1,1775672090416,-2325,-1641,22545,3578448,199142,880867,0,0,0,263,285,231,322,194,336,507,507,312,419,445,119,0,
2,1775672090416,4154,3062,34122,9044470,-2443,-1756848,0,0,0,368,459,205,430,437,468,302,188,348,178,118,339,0,
1,1775672090432,-5183,-521,15319,1804495,302989,193033,0,0,0,271,292,267,343,205,375,515,515,340,434,457,172,0,
2,1775672090432,3627,5388,34075,9682214,262672,-1776396,0,0,0,302,433,220,368,395,409,318,249,300,134,104,252,0,
1,1775672090448,-3225,-306,10586,729373,320093,-287106,0,0,0,294,304,296,361,208,390,526,526,343,440,473,223,0,
2,1775672090448,9088,8346,27724,9706648,762359,-2041511,0,0,0,284,423,237,340,364,388,312,273,284,106,97,194,0,
1,1775672090464,-1435,-95,9786,328645,217468,-243124,0,0,0,315,321,296,368,213,394,534,534,334,448,484,240,0,
2,1775672090464,13984,12026,15568,9208182,1711644,-2952922,0,0,0,292,432,242,344,374,401,328,309,294,122,137,204,0,
1,1775672090480,-1923,449,10370,191811,135612,-32986,0,0,0,321,343,295,371,223,394,534,534,335,442,485,256,0,
2,1775672090480,9973,15391,9849,7729888,1810604,-4078136,0,0,0,282,432,240,345,376,399,326,307,293,120,138,199,0,
1,1775672090496,-2598,890,10394,135612,134390,45204,0,0,0,322,357,311,372,229,405,533,532,351,441,479,274,0,
2,1775672090496,445,23048,10002,2868623,-67195,-3006678,0,0,0,279,436,238,347,377,394,326,300,278,114,114,196,0,
1,1775672090512,-2435,1000,10045,164933,141720,36651,0,0,0,323,360,312,388,237,411,537,510,353,451,472,281,0,
2,1775672090512,-732,23416,10074,-3426953,-2306627,-156381,0,0,0,284,440,242,349,378,390,333,302,277,117,112,198,0,
1,1775672090528,-2172,1009,9959,244346,124616,52534,0,0,0,327,368,312,385,266,409,534,513,354,431,456,289,0,
2,1775672090528,5948,13261,9016,-7186218,-3128851,1938886,0,0,0,278,439,240,351,379,391,336,303,276,118,113,199,0,
1,1775672090544,-2043,1014,10145,349414,69638,81855,0,0,0,337,369,312,390,258,417,534,495,361,421,434,305,0,
2,1775672090544,10260,3828,6087,-7066489,-1913229,1523497,0,0,0,275,439,240,350,381,392,338,306,277,118,115,199,0,
1,1775672090560,-2029,1033,9944,433714,-23212,87964,0,0,0,344,371,305,391,254,420,525,473,364,415,416,323,0,
2,1775672090560,9504,1617,4297,-6050009,-337197,316428,0,0,0,272,441,243,351,383,394,337,310,279,119,116,199,0,
1,1775672090576,-2053,1014,7944,437379,-73303,87964,0,0,0,340,376,304,398,262,419,519,455,361,408,401,338,0,
2,1775672090576,6508,3168,5900,-5909510,443488,-345749,0,0,0,269,441,242,353,384,395,335,310,276,118,117,198,0,
1,1775672090592,-2120,885,6915,400727,-70860,85521,0,0,0,341,382,304,412,270,421,516,436,362,406,387,350,0,
2,1775672090592,3665,4302,8695,-6271142,690277,-496022,0,0,0,269,442,241,350,383,393,334,310,273,116,119,196,0,
1,1775672090608,-2167,646,8896,417831,-78190,78190,0,0,0,349,385,300,415,273,422,514,411,363,400,371,354,0,
2,1775672090608,2876,4106,10528,-6598566,646295,-86742,0,0,0,271,442,243,349,382,392,336,314,276,117,119,195,0,
1,1775672090624,-2172,507,9992,404392,-63529,72082,0,0,0,347,389,304,409,280,420,520,388,361,387,355,362,0,
2,1775672090624,3551,3622,11380,-6681643,926071,389732,0,0,0,270,441,243,350,382,395,336,316,278,115,118,195,0,
1,1775672090640,-2153,507,9657,361632,-20769,78190,0,0,0,339,393,308,407,290,425,522,375,365,384,342,378,0,
2,1775672090640,4082,3536,12596,-6731734,1556484,758694,0,0,0,274,445,246,354,385,396,338,317,278,117,118,195,0,
1,1775672090656,-2129,531,9461,340862,10995,86742,0,0,0,341,400,297,411,293,432,517,370,370,380,337,384,0,
2,1775672090656,3364,3622,15108,-6932098,2074498,1044579,0,0,0,270,442,243,353,384,398,340,317,280,116,119,196,0,
1,1775672090672,-2067,507,9614,348193,24434,92851,0,0,0,342,407,293,410,293,425,521,360,363,371,342,389,0,
2,1775672090672,2732,3211,17798,-7098254,2234545,1258382,0,0,0,274,445,245,352,383,397,341,317,282,116,120,197,0,
1,1775672090688,-1986,440,9772,353080,14660,90408,0,0,0,349,400,282,408,292,430,513,338,368,363,325,404,0,
2,1775672090688,2928,2459,20320,-7122688,2174680,1307251,0,0,0,272,444,244,351,381,395,344,318,285,116,118,197,0,
1,1775672090704,-1981,397,9834,368962,-12217,90408,0,0,0,362,401,287,417,281,441,508,312,372,353,293,415,0,
2,1775672090704,3618,2172,23622,-7117801,2160019,1207069,0,0,0,272,444,244,353,383,398,345,316,287,116,117,197,0,
1,1775672090720,-2096,325,9877,417831,-47647,108734,0,0,0,365,404,287,431,278,448,511,294,372,351,278,431,0,
2,1775672090720,4469,1995,28470,-7203322,2202780,1143539,0,0,0,272,440,245,355,383,400,348,312,289,118,116,197,0,
1,1775672090736,-2211,253,9920,487470,-84299,145385,0,0,0,375,425,283,433,317,458,502,285,386,344,273,448,0,
2,1775672090736,4785,-813,33113,-7352374,2401922,1389107,0,0,0,274,442,245,359,382,403,349,307,290,120,113,198,0,
1,1775672090752,-2335,205,10040,569326,-140499,212581,0,0,0,391,420,276,452,314,466,497,268,394,331,248,457,0,
2,1775672090752,3876,-7839,35558,-7312056,2807536,1833817,0,0,0,275,441,244,363,381,404,353,306,291,120,112,197,0,
1,1775672090768,-2464,172,10212,643851,-168598,277332,0,0,0,397,421,278,462,327,472,496,254,398,319,229,478,0,
2,1775672090768,1454,-20090,35764,-6762278,3048217,2257757,0,0,0,278,442,244,365,382,405,358,307,296,118,110,197,0,
1,1775672090784,-2507,95,10409,744033,-155159,343306,0,0,0,408,435,274,471,334,486,489,240,401,312,211,501,0,
2,1775672090784,253,-34711,29226,-5338962,2204001,2051285,0,0,0,279,441,242,366,384,408,361,310,301,120,112,200,0,
1,1775672090800,-2469,19,10763,889419,-123394,394618,0,0,0,415,442,267,477,359,497,487,228,402,312,211,525,0,
2,1775672090800,-923,-47427,18047,-3230255,1494176,842994,0,0,0,277,440,242,366,384,409,361,312,301,122,113,204,0,
1,1775672090816,-2297,-52,11466,1088561,-111177,433714,0,0,0,418,445,253,486,384,505,467,218,406,308,206,549,0,
2,1775672090816,-7968,-49518,14639,-1292590,1483180,-857654,0,0,0,268,437,240,362,384,407,362,329,297,123,124,200,0,
1,1775672090832,-2062,-143,12093,1376890,-128281,433714,0,0,0,414,444,233,501,399,513,427,206,409,290,182,559,0,
2,1775672090832,-13917,-44780,16731,503352,522900,-1885130,0,0,0,252,419,225,359,381,399,386,396,289,135,162,189,0,
1,1775672090848,-1890,-287,12481,1717753,-177150,411723,0,0,0,407,445,226,518,417,515,390,196,416,283,175,563,0,
2,1775672090848,-10614,-25843,22182,2083050,-1554041,-1624901,0,0,0,250,384,198,354,362,385,439,469,279,153,211,178,0,
1,1775672090864,-2244,-349,12959,2119702,-257785,395840,0,0,0,413,453,229,530,426,512,350,192,437,287,181,571,0,
2,1775672090864,1718,9705,19028,3188716,-4041484,-248011,0,0,0,254,351,178,343,342,378,476,478,278,172,251,174,0,
1,1775672090880,-3096,-291,13902,2629163,-289550,499687,0,0,0,420,455,228,506,430,511,303,191,451,267,174,564,0,
2,1775672090880,5819,17635,10179,3872885,-4829500,906524,0,0,0,261,351,183,346,333,385,496,496,299,190,283,179,0,
1,1775672090896,-3991,-220,15357,3279124,-226020,691499,0,0,0,420,473,237,480,426,517,245,187,449,258,180,555,0,
2,1775672090896,-2378,2139,12787,4847826,-3027448,960280,0,0,0,269,354,187,358,333,393,511,511,303,222,324,184,0,
1,1775672090912,-5541,14,17142,4113566,-67195,1011592,0,0,0,440,449,235,433,416,513,217,175,447,232,160,538,0,
2,1775672090912,-7078,-3785,19372,5187467,-1252273,290771,0,0,0,273,372,208,371,335,408,520,520,311,212,316,203,0,
1,1775672090928,-7499,143,19674,5082398,135612,1478293,0,0,0,429,406,255,420,368,503,201,155,431,188,130,509,0,
2,1775672090928,-3072,-19,22005,4649906,-243124,-660956,0,0,0,273,398,238,379,354,424,528,528,336,217,315,217,0,
1,1775672090944,-9035,-282,23110,5966931,313984,1968207,0,0,0,411,381,229,409,315,481,198,136,390,198,116,440,0,
2,1775672090944,2785,1507,18559,3095865,-180816,-464257,0,0,0,294,433,279,399,373,438,548,548,334,236,317,247,0,
1,1775672090960,-9595,148,26475,6850242,430049,2437352,0,0,0,361,365,226,381,296,438,199,149,366,172,105,346,0,
2,1775672090960,3101,244,13577,1304808,-233350,147829,0,0,0,323,454,294,413,387,444,552,552,337,243,308,278,0,
1,1775672090976,-9078,1416,28695,7640702,511905,2849075,0,0,0,292,346,229,318,262,402,213,187,329,144,132,266,0,
2,1775672090976,445,-373,10634,436157,-226020,313984,0,0,0,344,466,301,418,393,448,561,562,330,244,302,298,0,
1,1775672090992,-8384,3460,29289,8197811,649960,3120299,0,0,0,249,309,220,278,223,340,255,229,294,137,171,172,0,
2,1775672090992,339,411,10323,291993,-186924,105068,0,0,0,362,475,307,425,401,457,568,567,333,241,297,309,0,
1,1775672091008,-10796,5613,24158,8532565,979827,3325550,0,0,0,229,294,231,257,197,313,296,254,284,140,202,130,0,
2,1775672091008,933,1081,10399,227241,-188146,-9773,0,0,0,372,480,313,430,409,464,568,568,343,245,294,319,0,
1,1775672091024,-12577,8872,14563,8238128,1087340,3610213,0,0,0,227,298,233,255,193,309,305,257,280,149,216,126,0,
2,1775672091024,1115,1359,10323,151494,-169820,-7330,0,0,0,384,485,322,431,416,463,570,570,345,249,292,328,0,
1,1775672091040,-10366,11820,10461,6566801,900415,3485597,0,0,0,229,302,231,259,199,308,306,258,276,156,220,127,0,
2,1775672091040,966,1430,10160,157603,-134390,4886,0,0,0,396,489,329,433,416,462,574,572,338,249,284,339,0,
1,1775672091056,-6030,16908,9365,2537534,637743,1926668,0,0,0,229,303,237,260,203,311,311,262,277,158,220,128,0,
2,1775672091056,880,1459,10150,239459,-138055,-14660,0,0,0,402,489,331,438,410,465,578,566,332,251,275,355,0,
1,1775672091072,-3943,16022,8858,-1755626,904080,-641408,0,0,0,229,306,233,261,202,308,313,266,276,158,220,125,0,
2,1775672091072,756,1435,10208,321315,-96516,-29321,0,0,0,408,488,334,442,410,467,581,556,336,256,265,368,0,
1,1775672091088,-5063,10447,6748,-4107457,1340238,-2295631,0,0,0,227,307,225,260,203,303,316,267,275,162,222,123,0,
2,1775672091088,732,1392,10222,377514,-3665,-29321,0,0,0,416,488,336,450,412,473,582,543,343,255,246,375,0,
1,1775672091104,-7365,5905,4383,-4262617,1080009,-2191784,0,0,0,227,307,229,262,203,308,318,267,277,162,221,126,0,
2,1775672091104,832,1287,10098,412944,80634,-29321,0,0,0,431,492,340,455,416,477,577,526,341,254,230,387,0,
1,1775672091120,-7671,4321,3527,-4116009,397062,-1544267,0,0,0,229,307,230,263,203,308,318,267,278,166,225,127,0,
2,1775672091120,923,1172,9954,436157,124616,-36651,0,0,0,436,498,345,458,416,483,575,511,346,249,216,395,0,
1,1775672091136,-5915,4623,4498,-4184426,-164933,-874759,0,0,0,230,307,234,266,203,309,322,268,277,169,226,125,0,
2,1775672091136,985,1081,9873,438601,131946,-47647,0,0,0,439,503,346,452,419,488,574,496,350,245,210,405,0,
1,1775672091152,-4694,5025,6322,-4712214,-131946,-662177,0,0,0,226,306,229,266,202,306,322,268,277,170,227,127,0,
2,1775672091152,1067,1019,9877,419053,112399,-53756,0,0,0,442,502,347,452,421,492,573,489,356,245,202,411,0,
1,1775672091168,-4690,4924,8054,-5414709,-78190,-675616,0,0,0,228,307,228,267,203,309,318,262,273,176,228,124,0,
2,1775672091168,1153,957,9892,394618,69638,-62308,0,0,0,450,508,356,458,425,500,567,471,355,240,191,423,0,
1,1775672091184,-5178,4163,9528,-6041457,-278554,-803898,0,0,0,231,308,229,265,201,306,319,261,272,181,230,123,0,
2,1775672091184,1182,904,9906,368962,4886,-69638,0,0,0,451,506,361,459,428,503,563,453,358,239,183,431,0,
1,1775672091200,-5130,3206,10921,-6339559,-656069,-994488,0,0,0,229,309,228,264,203,305,318,263,270,177,232,123,0,
2,1775672091200,1158,875,9949,355523,-51312,-74525,0,0,0,454,508,359,463,434,508,563,441,362,242,180,442,0,
1,1775672091216,-5001,2488,12524,-6506936,-1011592,-1270599,0,0,0,226,309,229,262,205,307,318,265,273,174,232,125,0,
2,1775672091216,1110,837,9987,355523,-90408,-79412,0,0,0,460,513,356,466,438,508,561,426,367,244,175,454,0,
1,1775672091232,-5441,1938,14716,-6648657,-1295034,-1599245,0,0,0,225,308,231,261,205,309,319,264,275,175,231,127,0,
2,1775672091232,1019,780,10007,361632,-89186,-80634,0,0,0,468,521,353,470,444,509,558,409,369,245,173,463,0,
1,1775672091248,-6235,1340,17195,-6786712,-1555262,-1809382,0,0,0,226,307,229,263,204,308,318,264,274,176,228,125,0,
2,1775672091248,990,722,10050,371406,-69638,-79412,0,0,0,478,525,346,475,452,512,518,390,378,247,169,472,0,
1,1775672091264,-6815,569,20014,-6857573,-1837482,-1821600,0,0,0,226,306,228,265,204,308,319,265,273,176,226,122,0,
2,1775672091264,1067,684,10145,393397,-46425,-79412,0,0,0,488,530,344,477,463,516,494,368,388,252,167,487,0,
1,1775672091280,-7102,-330,23196,-6835582,-2065946,-1809382,0,0,0,226,307,230,264,203,307,319,264,272,173,227,121,0,
2,1775672091280,1210,622,10193,425162,-35430,-94073,0,0,0,493,539,344,486,475,527,545,343,385,267,172,507,0,
1,1775672091296,-7508,-1454,26561,-6704856,-2139250,-1944994,0,0,0,226,307,233,262,200,306,320,262,276,174,226,123,0,
2,1775672091296,1416,531,10179,465479,-25656,-139277,0,0,0,492,537,333,489,477,529,541,315,391,278,168,519,0,
1,1775672091312,-8279,-4278,30217,-6494719,-2312735,-2361605,0,0,0,224,307,234,263,202,308,317,261,278,174,225,123,0,
2,1775672091312,1541,435,10203,505796,-6108,-219911,0,0,0,497,540,337,486,477,526,530,288,395,263,166,534,0,
1,1775672091328,-8260,-10246,33213,-6351776,-2757445,-2744006,0,0,0,227,309,234,269,204,309,323,260,278,177,225,122,0,
2,1775672091328,1478,416,10471,579100,-21991,-294437,0,0,0,504,545,338,494,489,531,515,264,418,272,174,545,0,
1,1775672091344,-6144,-21880,32084,-6223495,-2910161,-2588846,0,0,0,228,311,231,270,205,310,322,259,280,178,226,120,0,
2,1775672091344,1143,502,11117,752585,-125838,-315206,0,0,0,508,549,339,495,494,534,498,248,424,271,176,567,0,
1,1775672091360,-2282,-34357,26044,-5630955,-2696359,-1852143,0,0,0,225,312,232,266,206,314,325,264,290,175,227,124,0,
2,1775672091360,1028,464,11548,1025031,-195476,-283441,0,0,0,514,550,328,503,499,539,474,232,418,288,181,582,0,
1,1775672091376,4962,-44934,17865,-4053701,-2392148,-488692,0,0,0,227,314,233,269,210,316,326,266,285,172,227,119,0,
2,1775672091376,1062,320,11935,1354899,-156381,-268780,0,0,0,513,562,305,511,518,545,450,230,427,279,185,593,0,
1,1775672091392,13567,-47738,14457,-1876578,-1418429,780685,0,0,0,223,311,229,267,213,316,331,287,290,185,255,116,0,
2,1775672091392,1196,220,12567,1720196,-36651,-289550,0,0,0,520,561,287,513,520,547,422,222,425,269,178,596,0,
1,1775672091408,15970,-44512,15271,107512,360410,1368338,0,0,0,223,292,223,269,201,306,372,339,283,227,316,110,0,
2,1775672091408,1512,210,13596,2158797,31764,-332310,0,0,0,521,566,267,514,527,552,377,219,420,269,180,609,0,
1,1775672091424,8480,-28245,19081,1791056,2359161,1225395,0,0,0,233,266,187,273,178,279,430,398,266,278,377,99,0,
2,1775672091424,2010,320,15132,2811201,-1221,-425162,0,0,0,529,564,257,507,530,549,335,210,406,262,176,609,0,
1,1775672091440,-4819,5077,15702,3562566,4164879,594982,0,0,0,243,258,158,278,170,260,458,442,259,308,405,84,0,
2,1775672091440,2579,421,16668,3572339,-129503,-561996,0,0,0,536,559,254,497,526,543,299,195,399,259,175,606,0,
1,1775672091456,-5513,9514,12682,4709770,3649308,-84299,0,0,0,250,262,152,287,172,262,468,467,263,338,416,79,0,
2,1775672091456,3541,760,18683,4494746,-306654,-759916,0,0,0,535,551,253,490,520,539,276,175,398,259,174,591,0,
1,1775672091472,1407,454,16999,5461135,1621236,-405614,0,0,0,250,264,161,294,171,282,479,479,275,372,426,88,0,
2,1775672091472,5168,1239,21383,5594303,-547335,-1070235,0,0,0,522,536,254,488,512,535,271,160,395,246,158,539,0,
1,1775672091488,4513,-3268,22756,4912578,157603,213802,0,0,0,249,269,186,301,178,303,491,491,291,388,432,97,0,
2,1775672091488,6058,1320,25565,6806260,-737925,-1457524,0,0,0,480,516,243,478,496,523,270,157,389,225,141,465,0,
1,1775672091504,-1909,-952,19971,3194825,-73303,813672,0,0,0,259,284,219,314,193,312,500,500,295,407,440,105,0,
2,1775672091504,6628,1761,30528,8027990,-636521,-1787391,0,0,0,404,488,220,448,466,491,278,166,365,205,135,397,0,
1,1775672091520,-5594,14,13831,1758070,78190,372627,0,0,0,264,294,260,333,208,357,508,509,327,418,453,149,0,
2,1775672091520,6843,3388,31624,8827002,-19547,-2056172,0,0,0,342,462,214,404,424,448,296,195,331,175,123,335,0,
1,1775672091536,-3646,-287,9815,817337,153938,-271224,0,0,0,289,310,282,358,219,381,522,522,337,424,470,214,0,
2,1775672091536,7331,5039,30370,9340129,784350,-2430021,0,0,0,289,434,223,356,386,404,309,251,292,134,108,253,0,
1,1775672091552,-1799,-81,10112,417831,74525,-221133,0,0,0,314,325,269,366,231,397,520,519,343,431,473,248,0,
2,1775672091552,8576,7039,23833,9348681,1419650,-2973691,0,0,0,276,427,237,341,369,388,323,279,286,113,103,204,0,
1,1775672091568,-1971,555,10638,268780,1221,-26878,0,0,0,324,323,280,384,227,399,533,506,346,446,478,268,0,
2,1775672091568,9763,9796,14185,8698721,1169196,-3750712,0,0,0,281,435,241,344,377,398,324,307,294,117,120,207,0,
1,1775672091584,-2675,957,10313,289550,6108,50090,0,0,0,328,330,280,383,225,402,536,503,347,438,482,292,0,
2,1775672091584,6551,13649,10323,7108027,411723,-4184426,0,0,0,279,436,241,345,379,397,325,308,286,115,117,201,0,
1,1775672091600,-2493,856,9892,327423,23212,29321,0,0,0,332,337,277,387,229,405,540,494,354,430,457,308,0,
2,1775672091600,-67,21435,9035,2863736,-872315,-2720793,0,0,0,277,436,236,346,377,395,326,303,276,116,113,202,0,
1,1775672091616,-2268,756,9920,340862,-9773,25656,0,0,0,337,343,280,390,241,410,539,484,360,427,447,319,0,
2,1775672091616,1253,20445,7934,-2979800,-2107485,448375,0,0,0,280,437,236,350,377,393,335,299,271,118,113,201,0,
1,1775672091632,-2292,799,10098,356745,-64751,47647,0,0,0,335,349,285,392,253,417,538,471,365,425,433,334,0,
2,1775672091632,6848,11619,7293,-6664539,-2384817,2357939,0,0,0,279,440,237,355,382,394,337,301,273,119,113,201,0,
1,1775672091648,-2340,871,10031,405614,-117286,74525,0,0,0,333,349,282,391,257,420,539,450,368,422,412,347,0,
2,1775672091648,9763,4412,6484,-7083593,-1573588,2036624,0,0,0,276,441,238,355,385,395,334,305,274,121,116,202,0,
1,1775672091664,-2306,765,8872,415388,-122173,89186,0,0,0,337,346,273,393,260,421,531,434,371,416,410,354,0,
2,1775672091664,8212,2287,5360,-6195395,-532674,774577,0,0,0,274,442,238,353,383,394,331,307,273,120,116,200,0,
1,1775672091680,-2297,598,8480,393397,-111177,89186,0,0,0,339,348,263,397,267,419,522,421,375,404,402,361,0,
2,1775672091680,5987,2278,5278,-5527108,21991,-151494,0,0,0,272,442,239,352,383,394,333,309,273,118,115,198,0,
