sole_id,timestamp,accel_x,accel_y,accel_z,gyro_x,gyro_y,gyro_z,magn_x,magn_y,magn_z,pressure_01,pressure_02,pressure_03,pressure_04,pressure_05,pressure_06,pressure_07,pressure_08,pressure_09,pressure_10,pressure_11,pressure_12,corrupt,brick
1,1775234433600,-2196,430,9638,35430,173485,-64751,0,0,0,306,332,255,345,211,333,523,489,287,468,478,176,0,
1,1775234433616,-2139,813,10074,-112399,171042,-70860,0,0,0,313,340,267,345,213,341,531,498,304,486,491,192,0,
1,1775234433632,-1995,1201,10241,-69638,78190,-51312,0,0,0,323,346,271,352,215,349,539,497,303,487,502,200,0,
1,1775234433648,-2038,1158,10165,34208,-51312,-24434,0,0,0,324,346,260,356,215,344,543,490,280,484,513,205,0,
1,1775234433664,-2230,1052,10031,97738,-130725,-4886,0,0,0,323,342,262,362,217,353,544,483,285,492,520,220,0,
1,1775234433680,-2368,1048,9897,133168,-127059,8552,0,0,0,333,343,269,368,224,362,551,480,297,490,520,237,0,
1,1775234433696,-2345,1048,9801,179594,-84299,28099,0,0,0,337,351,275,363,225,372,558,466,304,497,519,258,0,
1,1775234433712,-2282,976,9758,202807,-58643,42760,0,0,0,334,370,272,363,260,366,555,467,321,491,517,264,0,
1,1775234433728,-2263,899,9719,199142,-46425,46425,0,0,0,335,361,281,373,236,376,552,458,312,480,511,270,0,
1,1775234433744,-2258,871,9652,183259,-30543,45204,0,0,0,358,361,289,380,227,383,554,458,309,479,494,282,0,
1,1775234433760,-2230,861,9638,173485,-23212,45204,0,0,0,342,361,323,370,227,392,555,464,318,495,484,293,0,
1,1775234433776,-2196,851,9662,164933,-26878,47647,0,0,0,335,390,294,369,278,378,552,467,308,479,481,292,0,
2,1775234433776,0,0,0,0,0,0,0,0,0,239,436,216,329,374,357,325,326,254,150,146,185,0,
1,1775234433792,-2172,842,9700,162490,-51312,53756,0,0,0,333,396,282,369,303,373,552,462,306,463,468,326,0,
2,1775234433792,-1359,-1287,1603,-14660,-25656,4886,0,0,0,237,435,215,327,374,357,322,324,254,121,130,187,0,
1,1775234433808,-2201,827,9686,169820,-75747,56199,0,0,0,330,389,281,370,303,377,549,447,316,460,463,327,0,
2,1775234433808,-5326,-3981,9882,-543670,-516791,340862,0,0,0,235,434,215,328,374,359,323,325,256,119,128,186,0,
1,1775234433824,-2249,804,9629,179594,-79412,56199,0,0,0,337,382,280,374,290,387,543,436,325,450,455,309,0,
2,1775234433824,-2833,248,13524,-2163684,-827111,1037249,0,0,0,234,435,216,329,376,361,325,327,257,116,126,184,0,
1,1775234433840,-2258,770,9576,184481,-63529,53756,0,0,0,346,379,282,381,275,391,543,429,329,441,444,312,0,
2,1775234433840,2091,5814,12409,-4362799,72082,1467298,0,0,0,233,436,215,328,376,360,325,327,256,117,128,184,0,
1,1775234433856,-2230,732,9562,179594,-43982,52534,0,0,0,341,384,285,381,276,387,547,419,331,454,442,319,0,
2,1775234433856,3637,6542,12136,-5630955,1241278,1324355,0,0,0,233,435,215,326,374,360,327,327,258,118,128,186,0,
1,1775234433872,-2196,717,9595,166155,-36651,47647,0,0,0,340,386,292,374,276,405,541,414,332,460,433,337,0,
2,1775234433872,2636,4374,14472,-5777563,1508837,967610,0,0,0,234,435,216,327,374,361,320,325,260,116,125,185,0,
1,1775234433888,-2191,713,9662,153938,-34208,41538,0,0,0,352,384,293,386,272,414,545,403,334,461,425,344,0,
2,1775234433888,2206,3268,16558,-5809328,1404990,803898,0,0,0,236,437,219,325,373,358,300,322,265,112,125,180,0,
1,1775234433904,-2215,698,9729,153938,-36651,37873,0,0,0,356,390,284,395,282,416,544,399,334,465,418,354,0,
2,1775234433904,2488,3043,18286,-5962044,1425759,839328,0,0,0,234,437,215,328,374,361,330,330,258,116,126,184,0,
1,1775234433920,-2258,679,9753,177150,-39095,41538,0,0,0,351,400,285,394,306,425,536,394,341,458,411,361,0,
2,1775234433920,2665,3134,20066,-6095213,1600466,999375,0,0,0,235,438,216,325,370,357,330,330,258,116,126,182,0,
1,1775234433936,-2273,660,9748,210137,-40317,52534,0,0,0,356,400,300,386,278,450,529,377,344,444,398,382,0,
2,1775234433936,2531,3105,22474,-6238155,1745852,1335351,0,0,0,235,438,216,325,370,358,335,332,262,151,144,182,0,
1,1775234433952,-2254,641,9743,245567,-42760,69638,0,0,0,355,386,293,387,296,444,523,362,351,416,387,411,0,
2,1775234433952,2560,2177,24575,-6348111,1759291,1817934,0,0,0,237,436,215,330,373,360,333,329,260,128,130,186,0,
1,1775234433968,-2258,607,9810,290771,-51312,86742,0,0,0,368,398,296,394,294,436,515,361,364,395,354,417,0,
2,1775234433968,2971,-483,25594,-6288246,1742187,2357939,0,0,0,238,438,216,333,374,363,333,326,260,119,126,185,0,
1,1775234433984,-2321,603,9887,345749,-53756,108734,0,0,0,366,402,295,401,299,439,518,345,353,376,323,414,0,
2,1775234433984,3096,-6020,26298,-5953492,1811826,2679254,0,0,0,239,437,216,335,374,364,335,325,263,118,124,184,0,
1,1775234434000,-2388,588,9940,412944,-43982,138055,0,0,0,362,414,320,399,296,460,513,331,379,359,300,443,0,
2,1775234434000,3742,-13826,26345,-5473352,1583362,2522873,0,0,0,241,438,216,324,389,360,338,326,266,120,124,185,0,
1,1775234434016,-2416,488,9940,485026,-14660,171042,0,0,0,365,418,338,401,308,464,498,308,395,354,287,464,0,
2,1775234434016,5532,-23014,23287,-4753753,1077566,1598023,0,0,0,243,439,216,331,384,364,338,326,268,122,125,187,0,
1,1775234434032,-2383,402,10045,553443,-2443,199142,0,0,0,370,416,340,412,322,469,483,275,398,346,266,480,0,
2,1775234434032,2392,-28863,18315,-3434284,1301142,210137,0,0,0,246,439,216,341,375,368,339,327,269,122,126,187,0,
1,1775234434048,-2330,330,10227,638965,-6108,224798,0,0,0,384,417,316,425,331,484,468,244,394,327,237,501,0,
2,1775234434048,-5824,-31490,15630,-1723861,1500285,-739146,0,0,0,246,437,214,341,375,367,340,329,269,122,127,186,0,
1,1775234434064,-2301,268,10557,769690,-34208,252898,0,0,0,396,423,275,431,342,483,455,226,384,308,219,513,0,
2,1775234434064,-8777,-31729,14859,-516791,647517,-590095,0,0,0,241,436,211,340,376,367,344,341,267,125,136,185,0,
1,1775234434080,-2345,263,11088,966388,-43982,272445,0,0,0,391,436,261,430,348,486,446,224,401,291,207,530,0,
2,1775234434080,-6101,-29753,13663,777020,-452040,-287106,0,0,0,238,433,208,338,376,363,362,383,262,137,169,179,0,
1,1775234434096,-2455,210,11610,1218065,-28099,301767,0,0,0,414,452,251,447,375,496,411,222,399,293,205,551,0,
2,1775234434096,-2225,-18501,15778,1942551,-983493,-175929,0,0,0,238,423,191,340,369,353,394,440,247,160,211,172,0,
1,1775234434112,-2656,57,12084,1558928,0,366519,0,0,0,400,451,221,450,399,482,378,196,395,299,197,563,0,
2,1775234434112,2019,7394,13926,2949257,-1745852,75747,0,0,0,247,403,182,336,352,341,425,464,244,175,236,167,0,
1,1775234434128,-2780,-124,12706,1964542,53756,464257,0,0,0,405,465,239,465,394,491,330,195,388,275,195,566,0,
2,1775234434128,3297,14347,9676,3616322,-2255314,282219,0,0,0,248,398,176,336,350,350,445,472,249,185,265,172,0,
1,1775234434144,-3149,-119,13496,2417804,138055,559552,0,0,0,415,484,226,471,385,492,268,194,426,282,197,575,0,
2,1775234434144,842,4292,11509,4476420,-2012190,333532,0,0,0,249,402,179,342,354,359,461,485,256,192,289,173,0,
1,1775234434160,-3728,-14,14118,2895501,255341,702495,0,0,0,414,468,231,451,398,496,251,196,405,274,198,558,0,
2,1775234434160,-1990,-2053,18497,4524067,-1034805,128281,0,0,0,248,405,196,345,357,375,483,495,271,197,299,183,0,
1,1775234434176,-3967,-153,14730,3385415,464257,872315,0,0,0,427,454,212,447,393,482,230,184,405,244,174,534,0,
2,1775234434176,-1569,134,20401,3715282,-382401,-259006,0,0,0,253,411,211,349,354,376,498,504,270,201,293,188,0,
1,1775234434192,-4465,-425,16065,3916867,675616,1060462,0,0,0,426,447,211,437,373,468,230,181,404,228,150,497,0,
2,1775234434192,1129,1919,16558,2665815,-237015,-376292,0,0,0,268,423,240,355,354,378,506,511,270,205,288,194,0,
1,1775234434208,-5230,-641,18291,4506963,812450,1290147,0,0,0,414,433,215,402,356,457,218,173,379,205,139,445,0,x
2,1775234434208,2172,1550,12457,1816713,-186924,-184481,0,0,0,284,440,262,364,363,382,513,514,274,212,288,205,0,x
1,1775234434224,-6331,-382,20650,5144707,934623,1554041,0,0,0,386,418,210,363,335,434,204,169,353,174,134,378,0,
2,1775234434224,1612,894,10074,1169196,-153938,37873,0,0,0,300,445,272,375,369,391,523,527,274,244,318,218,0,
1,1775234434240,-7154,-268,21631,5710368,1123992,1846034,0,0,0,339,407,206,338,309,405,202,175,336,157,136,322,0,
2,1775234434240,1282,693,10232,615752,-218689,103847,0,0,0,318,450,285,384,374,399,534,537,284,242,314,234,0,
1,1775234434256,-6886,-220,22282,6245486,1434311,2138028,0,0,0,288,381,207,314,277,374,215,188,309,160,156,277,0,
2,1775234434256,1100,756,10739,199142,-329867,90408,0,0,0,329,457,294,390,381,403,540,541,291,230,303,245,0,
1,1775234434272,-6996,268,22584,6853907,1612684,2305405,0,0,0,259,323,208,280,226,316,266,216,274,179,194,197,0,
2,1775234434272,818,1158,10500,41538,-309097,46425,0,0,0,332,460,296,391,383,405,544,547,288,279,356,238,0,
1,1775234434288,-7829,1713,21962,7202101,1633453,2438574,0,0,0,260,285,200,270,184,264,316,236,262,191,218,126,0,
2,1775234434288,717,1488,10203,-2443,-195476,9773,0,0,0,332,458,295,390,380,406,548,556,285,350,430,226,0,
1,1775234434304,-8810,5695,16563,6795264,2050063,2476447,0,0,0,273,285,200,293,185,273,323,237,265,202,221,130,0,
2,1775234434304,866,1598,10141,17104,-74525,-4886,0,0,0,336,460,299,392,380,410,548,560,288,318,400,238,0,
1,1775234434320,-11313,11538,10519,4913799,2012190,2072054,0,0,0,266,291,207,289,188,278,325,246,270,203,221,131,0,
2,1775234434320,952,1588,10136,40317,-28099,-14660,0,0,0,345,465,306,393,380,412,550,562,293,315,397,241,0,
1,1775234434336,-10370,15386,9691,1714087,919963,921184,0,0,0,266,295,206,282,193,278,316,242,263,199,227,131,0,
2,1775234434336,933,1603,10059,54977,-4886,-23212,0,0,0,347,462,304,394,380,412,546,560,288,310,390,240,0,
1,1775234434352,-7078,13649,9863,-1115439,331088,-640186,0,0,0,258,295,207,279,195,286,317,242,278,196,228,138,0,
2,1775234434352,928,1617,10007,74525,20769,-30543,0,0,0,348,466,307,396,380,423,546,555,294,312,385,248,0,
1,1775234434368,-8083,8308,6331,-1955990,386066,-1391551,0,0,0,256,296,209,279,196,287,318,251,284,197,233,139,0,
2,1775234434368,952,1622,9987,98960,42760,-34208,0,0,0,350,466,304,396,381,416,542,551,286,307,375,245,0,
1,1775234434384,-8714,5833,4087,-2008524,-234572,-1121548,0,0,0,254,304,213,279,203,289,319,263,284,197,236,138,0,
2,1775234434384,995,1617,9944,125838,53756,-35430,0,0,0,346,462,302,396,382,415,541,552,288,304,370,242,0,
1,1775234434400,-5872,6168,4991,-2555860,-823446,-719599,0,0,0,250,308,215,277,207,290,318,264,284,199,240,139,0,
2,1775234434400,1028,1574,9868,144164,45204,-35430,0,0,0,351,467,304,402,385,415,539,549,284,293,359,238,0,
1,1775234434416,-3790,6384,6403,-3436727,-775798,-702495,0,0,0,247,310,217,275,204,288,316,254,280,200,238,136,0,
2,1775234434416,1043,1531,9810,146607,29321,-37873,0,0,0,349,467,301,399,382,410,537,548,282,326,389,234,0,
1,1775234434432,-4096,5589,7169,-4179539,-608421,-895528,0,0,0,247,311,217,275,202,289,316,246,279,201,236,136,0,
2,1775234434432,1062,1531,9772,142942,10995,-43982,0,0,0,346,463,295,397,380,407,539,549,283,320,381,233,0,
1,1775234434448,-3967,4446,8121,-4579045,-1017701,-983493,0,0,0,244,312,217,276,204,295,316,246,285,204,234,141,0,
2,1775234434448,1086,1531,9763,146607,-8552,-47647,0,0,0,349,467,299,398,380,405,546,551,290,269,326,239,0,
1,1775234434464,-2732,3890,9547,-4878369,-1332907,-1093448,0,0,0,237,313,219,276,209,300,317,249,292,204,233,144,0,
2,1775234434464,1095,1531,9767,157603,-30543,-51312,0,0,0,351,468,302,398,380,406,546,551,292,260,316,242,0,
1,1775234434480,-2268,3268,11016,-5257106,-1367116,-1251052,0,0,0,231,318,222,271,212,301,318,251,298,198,236,145,0,
2,1775234434480,1081,1497,9758,168598,-53756,-52534,0,0,0,350,464,301,398,381,409,541,548,289,288,342,242,0,
1,1775234434496,-2660,2345,12380,-5595525,-1428202,-1274264,0,0,0,227,314,222,270,210,303,312,247,297,196,236,145,0,
2,1775234434496,1033,1440,9767,160046,-63529,-50090,0,0,0,355,465,305,395,389,407,542,538,294,317,367,239,0,
1,1775234434512,-2857,1416,13907,-5767789,-1624901,-1100779,0,0,0,226,315,223,268,210,303,315,248,297,195,235,145,0,
2,1775234434512,1028,1450,9825,158824,-64751,-45204,0,0,0,359,466,305,389,404,402,543,517,300,380,422,228,0,
1,1775234434528,-2053,502,16089,-5803219,-1826487,-894306,0,0,0,229,318,228,268,202,305,315,248,301,199,236,146,0,
2,1775234434528,1057,1488,9901,194255,-64751,-39095,0,0,0,368,475,306,410,389,419,543,514,295,336,363,254,0,
1,1775234434544,-1325,-325,17970,-5781228,-1843591,-911410,0,0,0,227,314,226,269,206,306,312,247,300,203,231,149,0,
2,1775234434544,1076,1459,9968,249233,-73303,-39095,0,0,0,379,474,311,420,393,426,553,512,303,301,318,282,0,
1,1775234434560,-1780,-981,19478,-5687155,-1734857,-1247386,0,0,0,228,314,228,267,206,305,312,248,303,197,237,150,0,
2,1775234434560,1081,1392,9987,309097,-83077,-42760,0,0,0,386,483,308,420,396,432,550,503,319,241,238,307,0,
1,1775234434576,-3115,-1397,20928,-5561317,-1733635,-1696983,0,0,0,229,315,228,269,207,305,314,249,304,193,235,147,0,
2,1775234434576,1115,1378,10011,376292,-94073,-52534,0,0,0,394,485,326,426,397,442,553,478,328,258,240,327,0,
1,1775234434592,-4450,-1919,22603,-5475796,-1868025,-2162462,0,0,0,227,316,228,269,208,308,311,247,302,193,235,147,0,
2,1775234434592,1148,1368,10054,459370,-103847,-70860,0,0,0,408,491,320,427,402,449,549,456,335,290,256,351,0,
1,1775234434608,-5431,-3551,24560,-5472130,-2002416,-2654820,0,0,0,228,316,227,269,206,304,313,247,297,196,236,148,0,
2,1775234434608,1105,1301,10117,543670,-91629,-95294,0,0,0,428,502,323,442,412,464,537,427,341,250,201,378,0,
1,1775234434624,-6561,-6628,25723,-5496565,-2003637,-2890614,0,0,0,230,315,225,269,202,301,319,247,292,201,237,147,0,
2,1775234434624,1100,1201,10256,629191,-62308,-119729,0,0,0,438,510,327,451,424,470,539,398,349,247,181,409,0,
1,1775234434640,-8059,-12074,24891,-5417152,-1963320,-2486221,0,0,0,232,314,223,272,202,302,326,245,289,204,234,139,0,
2,1775234434640,1167,1105,10466,722042,-29321,-142942,0,0,0,455,519,332,451,432,476,531,361,353,255,173,442,0,
1,1775234434656,-7202,-19626,21919,-5046968,-2155132,-1365894,0,0,0,234,315,222,275,207,303,329,245,288,206,234,134,0,
2,1775234434656,1359,1043,10715,866206,7330,-175929,0,0,0,466,526,352,455,442,491,515,327,364,260,172,468,0,
1,1775234434672,1378,-26063,17903,-4090353,-2393370,-30543,0,0,0,235,316,220,276,209,303,324,247,287,205,238,135,0,
2,1775234434672,1579,947,11050,1033583,51312,-229685,0,0,0,473,533,345,470,454,501,497,293,373,267,176,499,0,
1,1775234434688,10787,-31701,14630,-2814867,-1870469,800233,0,0,0,233,318,219,273,213,305,322,249,289,202,238,135,0,
2,1775234434688,1536,866,11758,1309695,52534,-283441,0,0,0,484,541,321,484,466,507,474,269,381,336,196,521,0,
1,1775234434704,13644,-35348,12907,-1474628,-498466,1128878,0,0,0,232,319,224,271,221,308,321,248,297,207,237,139,0,
2,1775234434704,1363,765,12629,1673770,47647,-321315,0,0,0,495,545,302,488,480,513,441,257,385,359,203,534,0,
1,1775234434720,10978,-33744,12256,-122173,845437,1325577,0,0,0,232,316,228,273,210,316,321,244,306,208,236,146,0,
2,1775234434720,1363,646,13807,2221106,102625,-360410,0,0,0,500,546,272,491,495,515,403,244,378,276,181,558,0,
1,1775234434736,4326,-25862,12663,1325577,1738522,1342681,0,0,0,235,316,203,266,203,281,362,303,267,271,317,110,0,
2,1775234434736,1909,665,14716,2873510,164933,-463035,0,0,0,500,549,252,494,509,510,363,243,376,272,185,569,0,
1,1775234434752,-2689,-11074,15472,2422691,2006081,1028697,0,0,0,232,284,163,273,185,239,416,400,245,311,385,90,0,
2,1775234434752,2115,804,15405,3492927,58643,-571769,0,0,0,501,551,242,498,527,492,322,243,379,268,185,573,0,
1,1775234434768,-7532,11634,14051,3126408,2911383,362853,0,0,0,240,273,142,278,179,239,453,452,237,332,411,78,0,
2,1775234434768,2383,875,16448,4212526,-166155,-663399,0,0,0,499,546,230,469,505,515,287,226,373,259,186,572,0,
1,1775234434784,-4197,12447,11069,3857003,3924198,36651,0,0,0,250,276,136,296,179,243,466,467,241,379,428,81,0,
2,1775234434784,3340,1024,18143,4996877,-323758,-797790,0,0,0,514,542,251,464,495,509,260,203,395,242,173,538,0,
1,1775234434800,1684,674,15439,4729318,3282789,166155,0,0,0,253,280,150,305,175,256,485,485,254,412,443,86,0,
2,1775234434800,4584,1206,21162,5984035,-438601,-1054353,0,0,0,490,527,242,453,493,499,262,189,390,232,160,471,0,
1,1775234434816,1751,-3043,22636,4488637,1026253,530231,0,0,0,244,302,175,311,220,274,479,487,268,424,457,91,0,
2,1775234434816,5235,1311,25427,6983411,-504574,-1303586,0,0,0,443,511,236,441,479,485,257,173,354,214,152,407,0,
1,1775234434832,-2364,-1225,20598,2950479,317649,447153,0,0,0,245,315,199,325,257,302,490,498,280,440,468,124,0,
2,1775234434832,5513,1943,29490,7887491,-397062,-1490511,0,0,0,358,478,196,413,442,448,272,183,315,198,143,341,0,
1,1775234434848,-3642,86,14424,1266934,185703,21991,0,0,0,266,306,217,344,236,333,532,526,289,453,479,164,0,
2,1775234434848,4996,3493,31562,8578991,-136833,-1643227,0,0,0,312,452,198,368,411,407,286,227,278,160,131,290,0,
1,1775234434864,-2191,258,10141,531452,103847,-167377,0,0,0,286,311,226,357,230,347,548,536,299,456,489,183,0,
2,1775234434864,5072,5307,30160,9010262,31764,-1876578,0,0,0,263,427,212,331,374,371,300,265,265,121,115,208,0,
1,1775234434880,-1737,282,9303,245567,3665,-124616,0,0,0,298,327,234,364,249,356,545,539,316,475,496,213,0,
2,1775234434880,6274,6446,23938,9274156,-59864,-2094046,0,0,0,251,425,223,326,366,368,312,287,271,114,117,187,0,
1,1775234434896,-2340,789,10346,162490,1221,-32986,0,0,0,310,311,254,378,215,369,547,534,327,489,500,247,0,
2,1775234434896,8772,9935,14338,8812341,-237015,-2389704,0,0,0,256,431,223,328,370,371,306,291,273,114,118,190,0,
1,1775234434912,-2421,1172,10308,218689,53756,-9773,0,0,0,315,327,257,375,240,383,553,523,326,482,501,260,0,
2,1775234434912,6518,17487,10007,5404935,-542448,-2548529,0,0,0,257,432,217,329,370,366,304,292,265,113,116,186,0,
1,1775234434928,-2163,1081,10026,305432,52534,9773,0,0,0,316,347,257,371,277,380,555,524,330,478,498,290,0,
2,1775234434928,2144,21493,10839,-441044,-1411098,-1728748,0,0,0,260,432,214,331,372,360,315,297,258,118,118,184,0,
1,1775234434944,-2038,847,9973,340862,-9773,24434,0,0,0,319,327,260,372,236,408,563,500,334,485,475,311,0,
2,1775234434944,2904,14218,10246,-3920533,-2348165,-532674,0,0,0,262,435,219,330,373,360,319,299,257,120,121,184,0,
1,1775234434960,-2177,938,10222,355523,-72082,42760,0,0,0,311,337,251,373,247,402,557,461,328,466,468,321,0,
2,1775234434960,6001,5762,6441,-4988325,-2615724,111177,0,0,0,259,436,221,330,372,361,315,299,259,116,120,184,0,
1,1775234434976,-2139,1057,10710,397062,-114842,64751,0,0,0,315,339,250,378,248,407,553,454,333,431,451,336,0,
2,1775234434976,7853,3847,3560,-4491081,-1667662,-32986,0,0,0,253,433,215,329,372,360,297,302,264,116,122,184,0,
1,1775234434992,-2048,1028,11141,422718,-156381,79412,0,0,0,317,338,246,381,250,409,546,442,331,410,424,348,0,
2,1775234434992,7451,4924,4034,-4613254,-700051,-125838,0,0,0,253,435,221,327,372,360,317,299,252,116,123,185,0,
1,1775234435008,-2153,871,10394,436157,-199142,85521,0,0,0,319,340,241,398,254,411,544,426,331,402,407,352,0,
2,1775234435008,6422,5699,6049,-5208237,-227241,43982,0,0,0,249,436,224,332,378,367,318,303,259,121,125,192,0,
1,1775234435024,-2321,665,9332,425162,-206472,94073,0,0,0,324,343,241,410,255,413,538,410,343,396,395,360,0,
2,1775234435024,6642,4824,7475,-5723807,-19547,392175,0,0,0,247,434,221,331,376,364,320,305,258,120,126,195,0,
1,1775234435040,-2345,593,9365,386066,-160046,100181,0,0,0,334,340,240,411,251,413,532,391,358,394,374,370,0,
2,1775234435040,6949,3737,8494,-6001140,386066,668286,0,0,0,247,437,225,330,376,365,317,304,260,116,125,190,0,
1,1775234435056,-2354,588,9595,356745,-109955,102625,0,0,0,340,339,238,415,251,416,532,380,364,391,358,374,0,
2,1775234435056,6532,2904,9734,-6162408,917519,908967,0,0,0,249,437,229,330,375,366,314,304,264,117,126,190,0,
1,1775234435072,-2330,574,9648,342084,-59864,105068,0,0,0,334,341,238,416,257,423,528,374,365,378,357,381,0,
2,1775234435072,6077,2522,10959,-6229603,1230282,1131322,0,0,0,249,439,228,334,375,367,318,304,262,117,125,188,0,
1,1775234435088,-2292,536,9605,327423,-14660,105068,0,0,0,336,338,232,421,259,436,525,356,368,371,340,388,0,
2,1775234435088,6058,2407,12447,-6279694,1512502,1297477,0,0,0,247,440,228,331,376,367,322,305,265,115,124,188,0,
1,1775234435104,-2215,483,9609,317649,9773,101403,0,0,0,328,343,229,418,265,443,522,360,360,361,319,385,0,
2,1775234435104,5857,2455,14615,-6398202,1786169,1301142,0,0,0,246,441,228,321,385,364,323,306,267,114,124,189,0,
1,1775234435120,-2086,402,9700,316428,-10995,98960,0,0,0,306,343,235,395,262,454,516,336,363,361,315,405,0,
2,1775234435120,5427,2464,17085,-6543588,1973094,1251052,0,0,0,245,440,228,321,385,365,323,306,267,114,125,189,0,
1,1775234435136,-2139,325,9772,331088,-63529,106290,0,0,0,322,343,233,405,265,444,508,305,356,351,296,416,0,
2,1775234435136,5135,2608,19980,-6718295,2103819,1192408,0,0,0,243,439,227,329,376,369,325,307,269,115,125,189,0,
1,1775234435152,-2474,301,9753,359188,-103847,146607,0,0,0,331,348,228,419,277,448,504,292,367,341,301,417,0,
2,1775234435152,5049,2933,23828,-7006624,2304183,1221730,0,0,0,242,440,226,331,377,370,327,307,271,118,125,191,0,
1,1775234435168,-2785,268,9724,398284,-122173,224798,0,0,0,333,349,235,412,276,456,490,265,371,316,249,438,0,
2,1775234435168,4623,2120,27834,-7276626,2488664,1491732,0,0,0,245,440,227,332,377,371,328,306,273,118,124,190,0,
1,1775234435184,-2866,205,9810,443488,-133168,337197,0,0,0,338,354,242,424,284,470,488,248,384,304,221,458,0,
2,1775234435184,3752,-1966,30428,-7206988,2719572,2010968,0,0,0,249,441,230,332,377,370,326,304,273,115,123,187,0,
1,1775234435200,-2636,177,10126,498466,-124616,427605,0,0,0,346,376,238,438,303,476,482,232,409,305,209,474,0,
2,1775234435200,1966,-9786,32835,-6773273,2972470,2481334,0,0,0,249,439,227,340,381,375,332,304,276,120,123,188,0,
1,1775234435216,-2450,162,10495,610865,-98960,480140,0,0,0,351,397,232,443,341,483,480,234,419,302,206,492,0,
2,1775234435216,784,-20545,32950,-6010913,2476447,2412917,0,0,0,249,439,225,340,381,376,335,305,280,120,124,191,0,
1,1775234435232,-2412,86,10882,785572,-85521,504574,0,0,0,357,413,230,453,358,493,472,226,414,290,196,505,0,
2,1775234435232,2818,-33625,25982,-4624249,1214400,1082453,0,0,0,250,441,226,342,382,376,335,307,280,119,123,189,0,
1,1775234435248,-2435,4,11476,1039692,-135612,531452,0,0,0,371,426,226,462,351,514,453,204,408,278,181,521,0,
2,1775234435248,741,-40808,18870,-2954144,1086118,-911410,0,0,0,252,440,226,340,379,376,338,307,281,120,122,189,0,
1,1775234435264,-2033,-19,12084,1340238,-175929,532674,0,0,0,380,441,220,463,364,532,428,200,403,268,177,544,0,
2,1775234435264,-8193,-42545,16779,-1339016,1319468,-2520429,0,0,0,246,432,210,340,376,371,341,317,275,124,129,188,0,
1,1775234435280,-1584,-90,12557,1718974,-180816,436157,0,0,0,375,444,209,470,383,530,390,194,417,256,171,560,0,
2,1775234435280,-13993,-40191,18549,129503,182037,-2526538,0,0,0,239,429,207,342,381,366,373,403,267,146,186,178,0,
1,1775234435296,-1966,-205,13046,2108706,-223576,342084,0,0,0,376,427,193,479,382,534,358,179,445,253,153,573,0,
2,1775234435296,-10701,-26015,22124,1712866,-1771509,-1613905,0,0,0,238,401,177,340,363,346,420,451,247,170,225,168,0,
1,1775234435312,-3206,-306,13744,2647489,-276111,387288,0,0,0,391,431,190,477,374,533,320,171,448,257,149,572,0,
2,1775234435312,641,3196,17123,3225368,-3825238,-227241,0,0,0,241,383,168,335,345,346,458,473,250,181,260,166,0,
1,1775234435328,-4077,-301,14730,3299894,-331088,586430,0,0,0,394,413,193,447,392,510,275,178,438,241,150,570,0,
2,1775234435328,5417,13673,9944,4481307,-4178318,858876,0,0,0,248,386,176,342,341,359,486,491,264,196,298,173,0,
1,1775234435344,-4766,-124,16214,4031710,-360410,864985,0,0,0,380,408,209,437,376,500,211,173,447,211,133,548,0,
2,1775234435344,-1713,2723,14520,5551543,-2310292,1139874,0,0,0,254,397,202,351,343,372,517,518,274,258,368,178,0,
1,1775234435360,-6221,57,18875,4917465,-324980,1232726,0,0,0,382,425,212,430,359,502,249,143,446,187,110,506,0,
2,1775234435360,-5604,-3096,26503,4750088,-805120,255341,0,0,0,265,416,243,360,352,386,535,537,275,341,413,183,0,
1,1775234435376,-8178,167,22890,5903401,-287106,1668883,0,0,0,372,403,197,418,336,463,242,142,406,179,104,428,0,
2,1775234435376,-1206,-1210,24742,2849075,-452040,-320093,0,0,0,281,444,270,372,374,394,537,538,277,337,378,195,0,
1,1775234435392,-9940,430,26963,6817256,-193033,2125811,0,0,0,348,367,183,370,291,420,215,155,354,155,101,338,0,
2,1775234435392,2254,1689,14591,1232726,-205250,-149051,0,0,0,296,461,281,373,390,394,542,542,291,234,342,221,0,
1,1775234435408,-10208,1196,29293,7654141,199142,2641381,0,0,0,292,343,187,326,249,372,221,167,310,143,114,260,0,
2,1775234435408,1871,1722,8657,667064,141720,98960,0,0,0,319,456,296,387,378,404,549,549,289,245,340,237,0,
1,1775234435424,-9566,2148,30820,8213694,648738,2996904,0,0,0,250,312,178,293,217,303,261,206,272,149,156,164,0,
2,1775234435424,1517,804,9083,470366,80634,119729,0,0,0,335,462,300,397,378,402,552,553,289,253,346,243,0,
1,1775234435440,-11887,5331,28111,8710938,756251,3205820,0,0,0,251,287,181,280,195,267,302,243,261,166,196,114,0,
2,1775234435440,1440,981,10500,223576,-226020,53756,0,0,0,348,472,315,392,383,409,559,560,289,260,353,245,0,
1,1775234435456,-13988,11280,19071,8791572,520457,3607770,0,0,0,264,284,198,281,187,275,315,246,268,178,210,120,0,
2,1775234435456,1220,1660,10519,36651,-349414,14660,0,0,0,353,472,316,394,383,421,559,559,297,266,356,257,0,
1,1775234435472,-11825,15659,12830,7391469,366519,3866776,0,0,0,262,291,202,279,191,277,311,242,268,182,215,123,0,
2,1775234435472,1067,2057,10098,46425,-250454,1221,0,0,0,359,473,316,395,382,414,564,564,295,269,352,254,0,
1,1775234435488,-6456,20267,10136,3492927,372627,2723237,0,0,0,258,295,201,276,193,273,311,246,265,182,217,124,0,
2,1775234435488,1062,1995,10074,177150,-133168,-12217,0,0,0,362,473,316,398,382,419,562,562,294,270,343,257,0,
1,1775234435504,-2445,20339,9696,-1424537,902858,120951,0,0,0,256,295,201,277,192,274,317,246,263,183,215,125,0,
2,1775234435504,1005,1928,10203,276111,-56199,-26878,0,0,0,366,479,318,400,386,420,562,561,298,259,326,268,0,
1,1775234435520,-4048,13218,8174,-4394564,1890017,-1971872,0,0,0,258,294,202,277,191,274,292,223,258,185,216,129,0,
2,1775234435520,966,1976,10208,338419,36651,-35430,0,0,0,367,477,314,399,386,427,562,550,307,255,312,281,0,
1,1775234435536,-7465,6934,6077,-5050633,2052507,-2301740,0,0,0,261,292,201,278,194,276,324,251,268,184,216,128,0,
2,1775234435536,1076,1933,10016,416610,144164,-37873,0,0,0,370,477,316,402,389,429,558,535,309,256,301,290,0,
1,1775234435552,-8044,4977,5278,-4874704,1202182,-1571145,0,0,0,260,294,199,280,198,276,329,259,268,182,216,124,0,
2,1775234435552,1229,1746,9844,461814,178372,-36651,0,0,0,375,476,322,404,389,428,553,517,306,268,294,304,0,
1,1775234435568,-6781,4326,5742,-4900360,475253,-927293,0,0,0,260,300,200,281,199,280,323,259,268,183,222,124,0,
2,1775234435568,1383,1579,9743,461814,127059,-36651,0,0,0,381,478,319,407,387,423,551,499,303,268,283,316,0,
1,1775234435584,-5436,4393,7217,-5218010,333532,-638965,0,0,0,261,300,201,285,200,281,330,254,265,189,217,120,0,
2,1775234435584,1445,1531,9758,441044,47647,-43982,0,0,0,387,481,312,412,390,419,547,483,301,257,269,325,0,
1,1775234435600,-5699,4383,8992,-5839871,360410,-647517,0,0,0,264,300,201,287,198,280,332,250,264,193,216,121,0,
2,1775234435600,1440,1507,9786,423940,-25656,-56199,0,0,0,394,485,317,416,393,425,541,467,305,256,259,332,0,
1,1775234435616,-6259,3886,10667,-6459289,50090,-794124,0,0,0,264,299,202,286,199,281,328,251,268,192,216,122,0,
2,1775234435616,1407,1459,9796,415388,-76969,-68416,0,0,0,404,492,329,420,393,433,537,447,312,254,245,333,0,
1,1775234435632,-6039,2780,12361,-6850242,-445931,-1040914,0,0,0,262,302,203,283,199,282,324,255,273,190,219,123,0,
2,1775234435632,1373,1416,9849,423940,-103847,-80634,0,0,0,402,495,319,428,400,441,534,431,320,262,242,349,0,
1,1775234435648,-5876,1363,14170,-7042054,-825889,-1273043,0,0,0,261,306,206,280,199,285,320,260,278,186,223,126,0,
2,1775234435648,1373,1368,9949,460592,-118507,-90408,0,0,0,406,500,316,426,407,447,541,419,333,273,239,364,0,
1,1775234435664,-5967,57,16257,-6993185,-1131322,-1342681,0,0,0,261,307,206,280,201,284,318,260,278,185,223,125,0,
2,1775234435664,1363,1301,10007,505796,-140499,-101403,0,0,0,422,509,324,435,419,459,534,405,342,264,229,382,0,
1,1775234435680,-5972,-804,18607,-6844134,-1387885,-1287703,0,0,0,262,306,202,280,201,280,317,257,269,188,222,120,0,
2,1775234435680,1301,1172,9992,540004,-142942,-118507,0,0,0,427,512,328,434,427,466,525,383,342,264,223,402,0,
1,1775234435696,-6178,-1340,21014,-6674313,-1547932,-1244943,0,0,0,261,303,199,282,201,281,318,257,268,188,219,120,0,
2,1775234435696,1306,1043,9992,564439,-120951,-141720,0,0,0,440,522,329,439,437,464,520,352,342,256,194,420,0,
1,1775234435712,-7068,-2091,23838,-6465397,-1717753,-1425759,0,0,0,263,303,207,281,199,282,316,252,271,187,219,126,0,
2,1775234435712,1359,957,10074,587652,-73303,-175929,0,0,0,455,532,326,445,446,467,519,338,351,252,177,444,0,
1,1775234435728,-7963,-3493,26532,-6246707,-1940107,-1832595,0,0,0,257,297,234,277,190,298,322,250,285,183,211,134,0,
2,1775234435728,1325,918,10327,652404,-20769,-202807,0,0,0,464,535,336,456,447,472,503,303,351,255,171,465,0,
1,1775234435744,-8198,-6704,29116,-6024352,-2311514,-2477669,0,0,0,258,299,234,279,198,300,317,247,283,182,208,134,0,
2,1775234435744,1359,875,10586,785572,4886,-226020,0,0,0,468,533,333,458,450,484,490,279,359,258,169,487,0,
1,1775234435760,-7303,-13165,30409,-5880188,-2689028,-2945592,0,0,0,254,297,231,280,196,301,322,248,283,182,207,133,0,
2,1775234435760,1450,789,10701,954171,25656,-255341,0,0,0,479,537,335,461,460,491,478,261,366,262,173,517,0,
1,1775234435776,-6594,-22277,28643,-5793445,-2750115,-2819753,0,0,0,247,306,221,277,202,297,319,248,281,184,212,129,0,
2,1775234435776,1311,727,11146,1136209,84299,-279776,0,0,0,487,545,328,465,470,492,459,245,367,271,180,543,0,
1,1775234435792,-3833,-31179,22622,-5407379,-2811201,-1709200,0,0,0,247,309,221,277,203,298,320,248,285,187,214,129,0,
2,1775234435792,1191,722,11859,1362229,183259,-279776,0,0,0,487,550,307,469,476,499,435,235,370,274,182,555,0,
1,1775234435808,3594,-38650,17071,-4399451,-2913827,-270002,0,0,0,250,311,213,280,201,292,330,248,285,200,217,128,0,
2,1775234435808,1344,641,12438,1712866,261450,-276111,0,0,0,492,553,286,476,490,510,405,228,373,271,183,558,0,
1,1775234435824,11864,-43847,14515,-2623055,-1822821,863763,0,0,0,251,312,210,281,202,292,327,248,284,195,219,128,0,
2,1775234435824,1368,516,12998,2141693,255341,-267558,0,0,0,500,558,260,480,508,515,365,225,376,270,184,568,0,
1,1775234435840,14161,-45187,13783,-740368,-74525,1502728,0,0,0,249,303,202,279,200,284,336,282,280,209,270,114,0,
2,1775234435840,1684,387,13749,2658485,151494,-251676,0,0,0,506,560,244,475,515,513,323,227,379,270,190,582,0,
1,1775234435856,8226,-36132,15989,1226617,1828930,1643227,0,0,0,238,274,167,273,186,253,389,364,253,261,350,93,0,
2,1775234435856,2881,272,14807,3326772,47647,-362853,0,0,0,505,549,231,474,521,519,292,223,381,272,189,595,0,
1,1775234435872,-2488,-4986,17444,2751337,3402519,1056796,0,0,0,234,252,137,272,169,231,447,439,229,321,402,80,0,
2,1775234435872,3718,311,16061,3990171,-29321,-593761,0,0,0,501,538,229,482,505,530,267,201,386,258,184,576,0,
1,1775234435888,-8011,16161,12543,3809355,4498411,118507,0,0,0,238,255,135,281,167,241,471,471,238,367,424,76,0,
2,1775234435888,4350,583,18052,4809952,-184481,-882089,0,0,0,499,531,234,470,504,518,265,185,414,242,170,541,0,
1,1775234435904,-2608,8767,11739,4971221,3767816,-535117,0,0,0,233,258,130,295,176,254,484,484,245,398,437,79,0,
2,1775234435904,5498,655,21071,5788559,-357967,-1205847,0,0,0,488,517,236,457,482,509,267,163,428,221,149,461,0,
1,1775234435920,4977,-2636,21158,5715255,1353677,-151494,0,0,0,243,270,149,308,172,262,501,502,250,424,454,90,0,
2,1775234435920,6637,526,25388,6807482,-441044,-1533271,0,0,0,438,495,222,458,466,492,266,159,375,224,149,413,0,
1,1775234435936,2794,-3043,25192,4880813,171042,665843,0,0,0,253,283,194,316,199,294,517,518,265,432,464,94,0,
2,1775234435936,7341,1024,29662,7712784,-251676,-1805717,0,0,0,362,469,193,428,446,461,276,168,331,200,140,353,0,
1,1775234435952,-3613,-1335,20042,2704911,85521,602313,0,0,0,260,286,218,325,198,326,527,527,293,441,480,165,0,
2,1775234435952,5618,3005,32926,8466592,-26878,-2065946,0,0,0,312,447,197,374,411,412,282,209,285,165,133,296,0,
1,1775234435968,-4312,-545,12802,948062,89186,-32986,0,0,0,279,291,234,342,197,346,543,537,304,448,493,193,0,
2,1775234435968,6341,4661,32825,9057909,81855,-2262644,0,0,0,270,424,208,333,373,370,295,249,266,126,117,222,0,
1,1775234435984,-1957,425,9145,415388,-61086,-244346,0,0,0,292,306,238,349,201,356,549,538,329,449,497,211,0,
2,1775234435984,10284,7461,25632,9362120,862541,-2693915,0,0,0,258,418,217,326,362,363,308,278,268,113,112,190,0,
1,1775234436000,-1756,842,9145,357967,-47647,-114842,0,0,0,302,320,246,355,211,371,551,540,339,455,503,247,0,
2,1775234436000,11179,12562,15640,8743925,1331686,-3490483,0,0,0,260,421,216,332,366,370,313,291,269,116,115,192,0,
1,1775234436016,-2546,880,9959,299323,134390,8552,0,0,0,309,326,251,357,238,372,552,536,333,448,507,267,0,
2,1775234436016,6039,19463,10926,5437922,425162,-3593109,0,0,0,260,424,214,330,365,365,311,291,261,116,115,189,0,
1,1775234436032,-2488,875,10413,234572,291993,23212,0,0,0,317,328,258,358,232,371,517,490,354,445,502,278,0,
2,1775234436032,918,23531,10002,-751364,-1186300,-2084272,0,0,0,262,429,215,329,365,359,313,291,255,118,116,188,0,
1,1775234436048,-1842,827,11409,217468,233350,17104,0,0,0,321,335,260,362,238,378,532,475,353,444,485,294,0,
2,1775234436048,1727,16396,10552,-5235115,-2315179,-39095,0,0,0,258,429,213,330,365,358,315,291,256,119,118,192,0,
1,1775234436064,-1761,942,11131,270002,48869,23212,0,0,0,320,335,258,366,240,383,528,444,352,436,462,313,0,
2,1775234436064,5805,6259,6824,-5753128,-2365270,604756,0,0,0,260,434,221,331,367,361,318,295,259,121,121,194,0,
1,1775234436080,-1981,1134,10299,382401,-96516,42760,0,0,0,317,331,253,371,239,387,517,411,358,426,438,328,0,
2,1775234436080,8131,2938,3096,-4935791,-1501506,167377,0,0,0,250,435,219,331,369,364,317,297,258,117,121,194,0,
1,1775234436096,-1947,1115,10007,474031,-183259,57421,0,0,0,319,335,249,373,250,389,555,424,351,414,416,341,0,
2,1775234436096,7178,4804,3594,-4890587,-377514,-318871,0,0,0,248,435,219,331,373,364,318,300,258,120,125,198,0,
1,1775234436112,-1933,866,9877,500909,-270002,58643,0,0,0,326,342,255,371,242,393,548,411,357,398,397,359,0,
2,1775234436112,5297,6159,5929,-5378057,333532,-428827,0,0,0,248,435,219,325,379,361,319,300,258,124,125,197,0,
1,1775234436128,-2077,655,9652,469144,-301767,61086,0,0,0,318,341,247,380,247,403,534,396,363,395,379,377,0,
2,1775234436128,4484,5723,8001,-5872858,488692,-150272,0,0,0,248,434,219,334,373,365,318,301,260,119,121,193,0,
1,1775234436144,-2239,555,9504,419053,-278554,73303,0,0,0,316,341,240,373,254,400,531,379,362,379,362,365,0,
2,1775234436144,5273,4575,8930,-6070778,774577,235793,0,0,0,248,435,219,333,370,363,318,301,257,121,121,189,0,
1,1775234436160,-2278,574,9552,386066,-223576,87964,0,0,0,316,343,241,376,254,406,530,364,380,371,346,376,0,
2,1775234436160,5465,3986,10122,-6216164,1273043,559552,0,0,0,249,436,220,334,371,364,319,304,258,188,161,189,0,
1,1775234436176,-2282,579,9605,364075,-172263,97738,0,0,0,317,343,244,380,264,407,530,354,366,360,327,386,0,
2,1775234436176,4891,3680,12103,-6427524,1696983,921184,0,0,0,247,435,219,336,372,366,321,305,261,156,143,192,0,
1,1775234436192,-2287,545,9590,338419,-108734,105068,0,0,0,311,343,238,374,276,410,530,356,366,365,324,388,0,
2,1775234436192,4958,3034,14161,-6641326,1857030,1273043,0,0,0,247,435,220,335,369,365,323,303,263,121,121,194,0,
1,1775234436208,-2254,507,9614,322536,-54977,112399,0,0,0,312,346,250,368,262,410,526,348,369,370,311,388,0,
2,1775234436208,5388,2402,16132,-6761056,2043955,1442863,0,0,0,245,434,219,334,367,365,324,303,263,122,121,193,0,
1,1775234436224,-2148,459,9672,321315,-28099,116064,0,0,0,310,345,245,365,281,400,524,336,379,365,300,394,0,
2,1775234436224,5489,2191,18726,-6834360,2269975,1474628,0,0,0,244,433,220,335,367,367,326,304,263,120,120,191,0,
1,1775234436240,-2014,402,9734,327423,-42760,114842,0,0,0,316,349,240,373,273,408,522,324,391,346,289,403,0,
2,1775234436240,5556,2306,22464,-6954089,2481334,1532050,0,0,0,247,434,223,337,369,368,328,305,266,120,120,191,0,
1,1775234436256,-1990,315,9782,340862,-106290,112399,0,0,0,323,357,239,385,262,421,522,305,391,335,276,417,0,
2,1775234436256,5843,2421,26819,-7116580,2612059,1707979,0,0,0,245,432,220,338,369,371,331,305,270,121,122,193,0,
1,1775234436272,-2254,248,9748,361632,-175929,136833,0,0,0,329,360,241,394,271,433,514,289,386,323,256,436,0,
2,1775234436272,6130,507,31232,-7249748,2753780,2124589,0,0,0,244,431,217,342,370,372,331,303,273,122,120,191,0,
1,1775234436288,-2613,234,9681,387288,-205250,191811,0,0,0,336,358,246,401,278,446,502,276,390,308,236,454,0,
2,1775234436288,5379,-5005,34170,-7156897,3114190,2615724,0,0,0,249,433,220,342,370,372,331,297,272,120,121,192,0,
1,1775234436304,-2933,215,9724,421497,-177150,293215,0,0,0,341,360,244,409,279,452,502,248,395,305,221,467,0,
2,1775234436304,2727,-15860,35453,-6525262,3156951,2787988,0,0,0,252,429,216,350,374,380,339,295,279,126,122,195,0,
1,1775234436320,-2914,177,9887,472809,-117286,399505,0,0,0,347,368,241,423,286,460,504,234,403,301,201,486,0,
2,1775234436320,1847,-28700,31337,-5569869,2167349,2295631,0,0,0,252,431,216,344,373,378,341,300,284,124,122,196,0,
1,1775234436336,-2555,114,10299,564439,-43982,474031,0,0,0,353,373,247,434,298,478,506,219,417,289,186,503,0,
2,1775234436336,2010,-41363,21421,-4146553,1233947,758694,0,0,0,251,433,218,348,378,383,339,304,286,127,125,201,0,
1,1775234436352,-2187,153,11241,777020,-42760,487470,0,0,0,370,399,246,445,325,487,475,204,400,277,167,515,0,
2,1775234436352,-4513,-47752,14716,-2302961,1484402,-1332907,0,0,0,241,425,205,342,373,371,352,327,277,133,139,198,0,
1,1775234436368,-1880,157,12031,1088561,-120951,467922,0,0,0,396,424,241,453,345,493,462,210,406,273,173,533,0,
2,1775234436368,-15984,-44479,18099,-289550,850324,-2263866,0,0,0,232,410,191,340,373,366,378,411,266,152,186,188,0,
1,1775234436384,-1555,-86,12289,1445307,-212581,389732,0,0,0,391,419,229,475,331,509,436,197,417,273,162,555,0,
2,1775234436384,-15960,-32892,24790,1837482,-2127032,-1571145,0,0,0,234,386,173,335,356,350,424,456,252,175,224,176,0,
1,1775234436400,-1832,-277,12691,1825265,-318871,291993,0,0,0,395,417,212,463,341,510,390,180,429,264,158,572,0,
2,1775234436400,-459,-2546,19698,3943745,-5717698,-270002,0,0,0,244,376,166,336,342,348,464,475,249,189,257,172,0,
1,1775234436416,-2962,-196,13586,2276083,-423940,291993,0,0,0,391,419,200,471,354,516,339,166,435,257,151,584,0,
2,1775234436416,6307,11950,13031,4905247,-5885075,667064,0,0,0,249,380,173,345,342,364,486,490,261,217,302,178,0,
1,1775234436432,-4000,-43,14673,2877175,-408057,481361,0,0,0,394,422,197,453,368,515,285,159,431,239,138,580,0,
2,1775234436432,-1488,3933,17913,5142263,-3288898,941954,0,0,0,252,388,190,354,345,377,500,501,271,245,328,185,0,
1,1775234436448,-5092,157,16228,3758042,-284663,811229,0,0,0,383,420,200,421,362,512,236,160,440,210,124,562,0,
2,1775234436448,-7614,-2292,25283,4539950,-987158,375071,0,0,0,263,401,219,361,347,379,512,512,275,249,321,189,0,
1,1775234436464,-6178,492,18650,4643797,-102625,1183856,0,0,0,390,407,204,411,340,497,219,152,434,190,110,516,0,
2,1775234436464,-2962,-402,22292,2944370,-343306,-399505,0,0,0,274,417,249,363,355,381,520,520,279,256,323,195,0,
1,1775234436480,-8102,636,22273,5659055,100181,1617571,0,0,0,387,387,202,403,317,479,216,142,408,173,100,445,0,
2,1775234436480,2062,2364,12127,1582140,-92851,-211359,0,0,0,284,435,269,369,367,390,526,526,287,226,294,216,0,
1,1775234436496,-10681,612,26058,6669426,168598,2146580,0,0,0,345,369,195,371,300,453,207,150,372,154,100,364,0,
2,1775234436496,2440,1928,7906,990823,-65973,114842,0,0,0,303,443,288,379,375,391,537,538,288,250,304,221,0,
1,1775234436512,-10552,985,27628,7379252,217468,2648711,0,0,0,303,349,193,338,271,397,213,170,330,145,113,281,0,
2,1775234436512,1124,454,9873,510683,-323758,190589,0,0,0,318,459,304,385,378,399,545,546,282,298,347,220,0,
1,1775234436528,-8901,2172,28863,7966904,494800,3059213,0,0,0,257,320,192,298,230,338,248,198,292,150,147,207,0,
2,1775234436528,397,717,11246,125838,-477696,113620,0,0,0,318,444,299,385,376,399,561,563,286,318,364,223,0,
1,1775234436544,-11524,3905,26623,8330980,548556,3287676,0,0,0,243,286,182,261,190,261,297,242,262,169,200,112,0,
2,1775234436544,339,1737,10777,-20769,-410501,37873,0,0,0,331,453,320,390,376,406,563,568,288,319,351,227,0,
1,1775234436560,-13476,8059,19148,8362745,134390,3640756,0,0,0,254,296,199,273,197,282,308,251,275,176,216,121,0,
2,1775234436560,440,2043,10212,21991,-222354,19547,0,0,0,336,456,327,372,410,411,558,559,298,300,345,243,0,
1,1775234436576,-11342,13658,11959,7378030,-227241,3860668,0,0,0,256,303,206,274,197,285,301,250,279,176,216,128,0,
2,1775234436576,531,1995,10203,98960,-70860,4886,0,0,0,338,455,324,386,386,419,561,566,292,335,381,236,0,
1,1775234436592,-6116,19607,10571,3539353,342084,2244318,0,0,0,256,307,206,271,194,281,308,254,278,177,219,128,0,
2,1775234436592,526,1938,10308,162490,2443,-14660,0,0,0,337,455,315,394,377,425,559,566,290,366,409,235,0,
1,1775234436608,-3986,20047,10906,-1216843,1258382,-594982,0,0,0,253,312,199,271,201,276,309,259,270,180,220,126,0,
2,1775234436608,569,1981,10131,229685,75747,-34208,0,0,0,341,455,313,393,377,419,560,559,290,402,416,233,0,
1,1775234436624,-5805,13653,9203,-3880215,1712866,-2533869,0,0,0,246,309,224,268,196,292,316,264,282,178,221,136,0,
2,1775234436624,674,1986,9968,298102,130725,-42760,0,0,0,345,456,313,395,378,413,558,553,292,334,347,245,0,
1,1775234436640,-7910,7441,5585,-3899763,1242499,-2353052,0,0,0,248,307,211,271,198,285,315,262,276,180,224,128,0,
2,1775234436640,756,1880,9935,349414,138055,-37873,0,0,0,344,459,309,398,382,415,554,547,298,246,275,262,0,
1,1775234436656,-7441,4905,3823,-3501479,389732,-1364672,0,0,0,256,308,198,281,201,277,325,262,267,186,226,122,0,
2,1775234436656,823,1765,9892,370184,124616,-37873,0,0,0,343,459,309,399,385,419,557,537,301,238,265,265,0,
1,1775234436672,-4637,5599,5374,-3825238,145385,-795346,0,0,0,257,308,196,281,202,276,328,268,268,184,227,121,0,
2,1775234436672,875,1684,9825,360410,91629,-43982,0,0,0,347,461,308,401,387,421,556,527,305,230,252,269,0,
1,1775234436688,-3077,5963,7427,-4656014,422718,-679282,0,0,0,255,306,196,277,205,275,324,276,271,178,230,120,0,
2,1775234436688,904,1655,9796,342084,48869,-52534,0,0,0,347,462,308,400,391,422,551,518,311,256,264,272,0,
1,1775234436704,-4426,4881,8624,-5445252,564439,-816115,0,0,0,257,304,196,279,207,276,324,277,268,179,231,118,0,
2,1775234436704,938,1655,9796,338419,2443,-58643,0,0,0,353,464,311,403,386,427,555,500,312,289,287,277,0,
1,1775234436720,-5527,3474,9609,-5918062,215024,-882089,0,0,0,257,304,194,281,207,279,319,272,266,182,230,117,0,
2,1775234436720,933,1622,9830,345749,-37873,-62308,0,0,0,363,467,320,403,382,424,553,491,311,258,244,296,0,
1,1775234436736,-5192,2579,10935,-6136752,-243124,-1012814,0,0,0,257,306,197,279,206,277,319,273,267,180,230,117,0,
2,1775234436736,856,1574,9873,359188,-67195,-62308,0,0,0,364,467,315,412,390,435,548,483,320,227,206,307,0,
1,1775234436752,-4843,1837,12476,-6338337,-474031,-1293812,0,0,0,255,307,197,278,210,283,322,278,273,178,236,118,0,
2,1775234436752,847,1541,9892,383623,-84299,-59864,0,0,0,371,472,324,416,390,451,553,471,330,221,190,326,0,
1,1775234436768,-5494,957,14027,-6513045,-561996,-1660331,0,0,0,255,307,195,278,208,280,316,273,273,178,236,117,0,
2,1775234436768,851,1459,9873,412944,-100181,-56199,0,0,0,379,474,331,422,389,452,559,448,341,221,183,328,0,
1,1775234436784,-7020,114,15730,-6572909,-861319,-1864360,0,0,0,257,308,196,278,207,276,316,276,275,179,237,117,0,
2,1775234436784,856,1368,9901,439822,-106290,-64751,0,0,0,384,479,327,425,393,453,554,435,339,226,176,343,0,
1,1775234436800,-7867,-540,17985,-6537479,-1241278,-1966986,0,0,0,259,308,196,280,207,274,319,272,274,183,234,117,0,
2,1775234436800,875,1239,9983,466701,-98960,-85521,0,0,0,395,490,329,438,400,463,554,414,343,231,171,364,0,
1,1775234436816,-8365,-1005,20579,-6432410,-1488067,-2074498,0,0,0,260,313,197,283,211,274,323,272,274,188,233,116,0,
2,1775234436816,923,1177,10131,513126,-83077,-112399,0,0,0,407,500,334,438,406,469,552,384,348,233,168,388,0,
1,1775234436832,-9365,-1828,23752,-6313903,-1693318,-2196671,0,0,0,265,309,196,287,206,274,335,268,281,201,226,116,0,
2,1775234436832,1024,1210,10284,587652,-70860,-141720,0,0,0,420,507,338,445,418,479,544,355,351,234,163,415,0,
1,1775234436848,-9389,-3646,26790,-6287025,-1990198,-2271196,0,0,0,269,311,197,290,204,275,343,266,284,210,221,114,0,
2,1775234436848,1244,1172,10485,718377,-61086,-197920,0,0,0,435,512,347,454,428,491,532,325,354,237,161,446,0,
1,1775234436864,-7508,-7997,29006,-6339559,-2293188,-2225992,0,0,0,263,315,200,284,207,278,329,266,284,198,225,117,0,
2,1775234436864,1234,1048,10739,880867,-64751,-267558,0,0,0,449,518,347,465,438,501,525,294,360,247,164,474,0,
1,1775234436880,-5632,-14816,29533,-6279694,-2346944,-1918116,0,0,0,257,315,202,279,208,282,317,264,280,185,228,122,0,
2,1775234436880,899,918,11031,1060462,-76969,-293215,0,0,0,461,526,338,482,451,512,514,268,365,259,169,498,0,
1,1775234436896,-4254,-24733,25508,-5777563,-2164906,-910189,0,0,0,255,315,203,281,209,287,317,261,278,188,228,122,0,
2,1775234436896,737,851,11452,1313360,-45204,-266337,0,0,0,474,535,340,486,461,516,485,245,368,259,168,521,0,
1,1775234436912,-172,-34194,19454,-4787961,-2166128,521678,0,0,0,252,315,203,281,210,290,316,261,282,191,230,122,0,
2,1775234436912,904,765,11883,1591914,-14660,-252898,0,0,0,477,536,312,483,475,520,460,229,373,264,169,541,0,
1,1775234436928,8135,-41244,14917,-3343876,-1958433,1814269,0,0,0,253,315,203,281,209,287,322,262,283,191,231,124,0,
2,1775234436928,789,713,12610,1951103,0,-250454,0,0,0,483,546,299,491,484,519,419,231,376,260,177,552,0,
1,1775234436944,15300,-43723,13931,-1368338,-652404,2174680,0,0,0,251,315,203,279,208,285,324,266,279,190,234,122,0,
2,1775234436944,890,607,13586,2408030,51312,-246789,0,0,0,484,549,263,492,494,519,388,225,378,269,183,572,0,
1,1775234436960,13543,-39243,14520,554665,1018923,1699427,0,0,0,233,308,198,272,200,276,334,278,270,221,275,111,0,
2,1775234436960,1555,559,14635,2932153,79412,-290771,0,0,0,481,541,245,488,505,527,335,216,381,268,183,582,0,
1,1775234436976,4393,-24374,17295,2258979,2267531,844215,0,0,0,223,292,156,276,199,244,399,399,246,285,387,83,0,
2,1775234436976,2479,559,15702,3587000,-40317,-445931,0,0,0,497,551,250,485,501,522,296,200,374,266,182,576,0,
1,1775234436992,-3823,8978,18047,3186273,2938261,-63529,0,0,0,230,268,164,274,174,257,456,448,261,336,416,91,0,
2,1775234436992,3139,703,17300,4439768,-244346,-692721,0,0,0,500,548,237,478,510,533,273,190,390,253,182,559,0,
1,1775234437008,-4173,20019,12433,3821572,3307224,-481361,0,0,0,238,271,143,284,177,249,476,474,248,390,431,82,0,
2,1775234437008,3809,1177,19669,5397605,-433714,-955393,0,0,0,502,533,232,461,491,514,290,231,386,250,175,521,0,
1,1775234437024,1526,4958,15793,5181358,2354274,-6108,0,0,0,240,279,149,300,183,263,490,490,253,425,442,79,0,
2,1775234437024,5111,1196,23412,6615670,-577878,-1282817,0,0,0,477,513,229,459,475,505,280,188,380,234,158,453,0,
1,1775234437040,2574,-4900,23775,5473352,805120,740368,0,0,0,247,288,166,302,191,265,504,504,256,439,452,78,0,
2,1775234437040,6039,827,28657,7826405,-458148,-1612684,0,0,0,416,488,212,447,466,488,273,159,360,216,149,386,0,
1,1775234437056,-3005,-2919,23402,3852116,-114842,981049,0,0,0,256,291,201,314,196,297,518,517,284,461,471,114,0,
2,1775234437056,5111,2292,32926,8729264,6108,-1825265,0,0,0,348,455,196,405,433,441,278,173,314,198,151,331,0,
1,1775234437072,-5173,617,14118,2083050,-15882,283441,0,0,0,268,294,230,333,200,331,534,533,300,473,492,160,0,
2,1775234437072,4833,4206,34180,9467189,496022,-2003637,0,0,0,283,428,198,355,390,387,288,215,275,147,124,244,0,
1,1775234437088,-3512,248,9279,1127657,173485,-202807,0,0,0,287,307,237,350,210,336,547,545,291,475,503,182,0,
2,1775234437088,7475,5575,31782,9841038,1235169,-2272418,0,0,0,255,419,215,331,366,365,301,258,269,109,100,186,0,
1,1775234437104,-2546,-550,9853,637743,190589,-164933,0,0,0,305,318,239,354,231,332,554,545,294,486,515,197,0,
2,1775234437104,9490,10610,21684,9513615,1832595,-2982244,0,0,0,267,423,229,333,363,373,310,280,281,116,112,196,0,
1,1775234437120,-2574,-38,10591,215024,177150,-34208,0,0,0,310,322,241,337,253,331,562,537,295,489,527,210,0,
2,1775234437120,5465,15065,13945,8071973,799011,-3615100,0,0,0,267,423,225,335,364,374,310,291,277,117,117,195,0,
1,1775234437136,-2837,894,10275,130725,177150,19547,0,0,0,320,336,252,364,228,361,552,534,304,491,515,226,0,
2,1775234437136,1076,20330,10772,3778812,-1799608,-2388483,0,0,0,261,424,215,339,371,371,303,288,264,112,110,187,0,
1,1775234437152,-2670,1091,9815,256563,168598,24434,0,0,0,325,335,263,372,250,381,558,507,302,498,506,255,0,
2,1775234437152,3766,20760,8480,-2001194,-3196046,-74525,0,0,0,265,426,214,339,370,366,317,289,260,118,114,190,0,
1,1775234437168,-2445,885,9887,381179,135612,37873,0,0,0,325,342,272,379,253,392,560,491,309,516,479,271,0,
2,1775234437168,8638,12462,8073,-6140417,-2423913,1549154,0,0,0,260,427,216,341,369,367,323,291,261,122,119,191,0,
1,1775234437184,-2431,794,10480,425162,58643,57421,0,0,0,327,345,281,370,254,395,561,463,322,497,454,307,0,
2,1775234437184,8169,4489,6910,-6188064,-1408655,1258382,0,0,0,255,430,216,332,366,363,323,296,261,117,119,189,0,
1,1775234437200,-2421,818,12553,409279,17104,76969,0,0,0,328,353,269,374,275,386,553,450,324,464,432,313,0,
2,1775234437200,7279,1641,5005,-5349957,-1044579,538783,0,0,0,250,430,216,335,371,365,320,295,261,118,119,187,0,
1,1775234437216,-2373,784,12438,410501,-43982,80634,0,0,0,328,364,261,375,297,384,551,436,327,460,409,322,0,
2,1775234437216,7164,3172,4900,-5283984,-668286,26878,0,0,0,252,430,222,339,372,366,320,297,262,119,119,187,0,
1,1775234437232,-2416,646,10189,437379,-129503,73303,0,0,0,331,362,285,373,275,390,542,411,325,446,392,332,0,
2,1775234437232,6001,4690,6690,-5793445,-85521,-122173,0,0,0,250,431,223,335,372,367,320,298,264,119,122,190,0,
1,1775234437248,-2517,492,8882,425162,-145385,70860,0,0,0,332,361,280,374,259,399,531,390,329,425,383,343,0,
2,1775234437248,4364,4934,8930,-6367659,312763,180816,0,0,0,249,431,222,332,369,363,305,297,261,116,120,186,0,
1,1775234437264,-2550,430,9270,372627,-95294,79412,0,0,0,331,365,268,384,265,410,519,373,332,406,376,355,0,
2,1775234437264,4627,4034,9863,-6597344,527787,647517,0,0,0,250,432,224,332,370,364,314,302,261,116,120,186,0,
1,1775234437280,-2541,392,9633,334754,-52534,87964,0,0,0,329,368,275,388,272,415,514,361,332,397,362,360,0,
2,1775234437280,5187,3024,10844,-6719517,948062,1053131,0,0,0,248,433,222,331,370,364,320,304,260,120,123,188,0,
1,1775234437296,-2488,373,9600,316428,-41538,92851,0,0,0,328,369,274,387,275,416,514,358,335,394,347,363,0,
2,1775234437296,4838,2498,12534,-6724404,1492954,1295034,0,0,0,245,433,220,331,370,363,321,303,260,120,123,188,0,
1,1775234437312,-2435,349,9528,310319,-47647,95294,0,0,0,334,365,260,395,278,421,510,350,336,382,338,366,0,
2,1775234437312,4125,2464,14548,-6754947,1786169,1396437,0,0,0,245,433,221,334,372,366,323,305,262,149,139,186,0,
1,1775234437328,-2392,354,9600,326202,-63529,100181,0,0,0,338,366,254,396,279,418,509,334,333,373,320,363,0,
2,1775234437328,3929,2493,16659,-6890559,1854586,1350012,0,0,0,245,432,220,337,375,370,324,306,263,183,158,186,0,
1,1775234437344,-2364,349,9705,365297,-101403,105068,0,0,0,325,362,249,398,284,411,506,323,335,367,316,377,0,
2,1775234437344,4178,2321,18966,-7081149,1903456,1164309,0,0,0,244,431,219,335,374,369,325,306,263,116,124,188,0,
1,1775234437360,-2383,330,9810,414166,-156381,112399,0,0,0,334,371,250,394,288,420,505,302,348,361,295,398,0,
2,1775234437360,4460,2000,22488,-7213096,2004859,889419,0,0,0,243,430,219,334,373,366,329,308,264,113,121,182,0,
1,1775234437376,-2502,224,9853,461814,-204028,128281,0,0,0,336,373,246,398,295,429,499,293,357,345,266,408,0,
2,1775234437376,4656,1387,26388,-7233866,2142915,810007,0,0,0,246,430,220,338,374,369,332,307,267,116,121,183,0,
1,1775234437392,-2713,119,9853,508239,-233350,164933,0,0,0,336,374,241,403,304,440,488,277,359,326,256,430,0,
2,1775234437392,3986,-1574,30547,-7228979,2445904,1133765,0,0,0,248,429,220,338,373,368,330,303,267,115,119,181,0,
1,1775234437408,-2881,43,9858,559552,-233350,226020,0,0,0,344,383,242,414,317,455,480,254,366,319,242,448,0,
2,1775234437408,2402,-8159,33811,-7123910,2757445,1699427,0,0,0,249,429,215,343,373,368,336,300,267,120,120,181,0,
1,1775234437424,-2909,-9,9916,634078,-195476,291993,0,0,0,351,385,237,424,328,460,479,242,378,311,227,468,0,
2,1775234437424,1167,-18640,34740,-6687752,2542421,2116037,0,0,0,254,429,215,346,374,373,337,297,268,120,120,181,0,
1,1775234437440,-2837,-71,9992,750142,-146607,349414,0,0,0,363,389,238,440,329,482,471,223,393,298,199,489,0,
2,1775234437440,3297,-31911,28997,-5442809,1453859,1705535,0,0,0,255,428,213,345,372,373,344,301,276,124,120,185,0,
1,1775234437456,-2780,-138,10433,884532,-155159,390953,0,0,0,402,394,238,455,351,486,461,216,392,292,183,516,0,
2,1775234437456,3531,-41593,19497,-3579670,1208291,397062,0,0,0,254,428,213,347,374,375,343,303,276,122,120,186,0,
1,1775234437472,-2737,-191,11246,1059240,-200363,419053,0,0,0,417,406,241,453,365,498,440,206,389,285,176,537,0,
2,1775234437472,-6551,-43938,16042,-1606575,1821600,-1092227,0,0,0,254,433,215,346,378,375,343,306,276,122,121,186,0,
1,1775234437488,-2541,-296,12237,1364672,-317649,433714,0,0,0,406,417,235,440,354,518,412,191,403,285,173,551,0,
2,1775234437488,-15486,-42813,17760,10995,976162,-1424537,0,0,0,248,429,211,344,380,371,359,366,268,129,150,181,0,
1,1775234437504,-2517,-397,12457,1721418,-439822,411723,0,0,0,406,423,216,441,362,522,384,187,420,288,178,563,0,
2,1775234437504,-9949,-29992,20851,1660331,-1161865,-675616,0,0,0,241,400,185,339,365,354,403,434,252,154,200,170,0,
1,1775234437520,-3149,-478,12802,2136806,-452040,415388,0,0,0,391,433,207,461,395,534,336,176,430,269,175,571,0,
2,1775234437520,2144,1560,20689,3137403,-3389080,305432,0,0,0,240,372,165,332,342,342,451,468,248,177,246,164,0,
1,1775234437536,-3981,-488,13826,2697580,-322536,552222,0,0,0,398,434,208,454,370,538,278,161,447,262,153,587,0,
2,1775234437536,7518,20842,12921,3922976,-4786740,1236391,0,0,0,249,371,170,332,332,353,478,480,260,187,278,169,0,
1,1775234437552,-4398,-368,15161,3352428,-196698,742812,0,0,0,431,446,211,433,380,533,227,156,433,220,137,577,0,
2,1775234437552,-933,7346,12017,5011538,-3821572,1620014,0,0,0,257,378,177,345,336,366,491,492,266,203,303,178,0,
1,1775234437568,-5211,-100,16649,4156327,-116064,983493,0,0,0,404,453,214,423,395,503,216,165,423,201,134,538,0,
2,1775234437568,-9633,-4685,20880,5470909,-1508837,1097113,0,0,0,261,385,190,355,342,373,503,503,274,219,318,187,0,
1,1775234437584,-7130,-9,19439,5161811,-72082,1381777,0,0,0,398,421,224,436,363,487,220,145,432,193,102,503,0,
2,1775234437584,-6910,-1962,25096,4594928,-266337,-150272,0,0,0,262,396,217,359,344,379,521,521,287,252,331,195,0,
1,1775234437600,-9404,-129,23268,6104987,20769,1842369,0,0,0,391,411,213,419,334,479,218,147,411,178,100,438,0,
2,1775234437600,1206,2206,18157,3137403,-226020,-525344,0,0,0,271,418,257,361,356,388,539,540,288,351,366,202,0,
1,1775234437616,-11280,76,26968,7016398,305432,2383596,0,0,0,347,370,192,378,303,420,250,170,354,162,103,339,0,
2,1775234437616,2804,1679,11476,1904677,-178372,-72082,0,0,0,288,442,278,381,379,407,547,548,299,260,345,233,0,
1,1775234437632,-11509,579,29260,7770205,668286,2896722,0,0,0,289,343,194,330,258,365,247,175,316,151,119,262,0,
2,1775234437632,1244,-296,10169,1020144,-94073,208915,0,0,0,310,445,294,390,380,412,552,552,302,257,330,251,0,
1,1775234437648,-11189,2971,29561,8254011,841772,3292563,0,0,0,258,303,190,284,211,292,281,207,278,160,166,165,0,
2,1775234437648,603,-67,10859,371406,-219911,144164,0,0,0,324,457,298,398,384,420,562,564,313,258,330,270,0,
1,1775234437664,-12778,7872,24766,8508131,895528,3606548,0,0,0,258,278,203,273,188,266,314,234,269,177,202,121,0,
2,1775234437664,579,1038,10734,123394,-359188,37873,0,0,0,335,466,303,400,386,423,566,566,302,255,319,278,0,
1,1775234437680,-14606,12490,16659,8180707,701273,3980397,0,0,0,265,279,214,280,183,277,320,239,279,186,211,128,0,
2,1775234437680,526,1411,10279,68416,-323758,13439,0,0,0,339,470,305,403,388,422,567,568,301,266,320,281,0,
1,1775234437696,-11892,16582,10591,5704259,-3665,4078136,0,0,0,263,288,204,278,185,275,322,241,276,187,213,128,0,
2,1775234437696,497,1445,10260,28099,-222354,14660,0,0,0,344,472,306,403,389,421,566,566,299,273,325,283,0,
1,1775234437712,-4508,19861,9983,1025031,7330,2637716,0,0,0,263,294,204,279,193,274,322,247,267,186,217,126,0,
2,1775234437712,473,1526,10394,42760,-156381,0,0,0,0,350,473,310,402,386,419,562,562,299,273,327,281,0,
1,1775234437728,-660,17291,10787,-3600439,1507615,-150272,0,0,0,264,294,198,283,197,274,324,255,259,186,223,125,0,
2,1775234437728,397,1646,10370,102625,-81855,-20769,0,0,0,354,474,310,402,385,418,559,559,300,271,321,281,0,
1,1775234437744,-6355,9284,7231,-4928460,2389704,-1632231,0,0,0,263,296,198,284,201,276,326,261,263,185,228,124,0,
2,1775234437744,368,1689,10212,199142,14660,-39095,0,0,0,354,472,319,401,384,426,560,556,300,313,354,279,0,
1,1775234437760,-10495,4603,3986,-4615697,1331686,-1358564,0,0,0,261,296,201,284,201,277,323,261,265,184,235,124,0,
2,1775234437760,425,1622,10059,274889,84299,-41538,0,0,0,354,470,321,402,387,433,559,554,301,327,364,277,0,
1,1775234437776,-8906,3981,3704,-4150218,-373849,-486248,0,0,0,262,300,201,285,204,278,323,269,263,181,240,120,0,
2,1775234437776,516,1493,9959,311541,116064,-31764,0,0,0,352,471,301,406,395,425,553,551,304,254,290,285,0,
1,1775234437792,-4848,5302,6044,-4394564,-810007,-261450,0,0,0,259,301,202,286,206,280,321,269,263,181,242,122,0,
2,1775234437792,583,1387,9901,313984,118507,-25656,0,0,0,350,473,302,405,394,424,552,548,306,251,286,290,0,
1,1775234437808,-3699,5929,8341,-5082398,-581543,-590095,0,0,0,260,300,202,285,203,282,323,266,271,182,233,124,0,
2,1775234437808,655,1349,9830,301767,94073,-28099,0,0,0,350,473,303,403,388,424,548,541,302,250,284,290,0,
1,1775234437824,-4881,5053,10136,-5853310,-757472,-1092227,0,0,0,259,300,204,285,199,284,320,260,274,184,229,126,0,
2,1775234437824,727,1344,9786,293215,53756,-36651,0,0,0,351,474,304,406,394,431,539,529,307,250,273,295,0,
1,1775234437840,-4915,3814,11686,-6309016,-1221730,-1415985,0,0,0,261,300,204,287,199,283,319,256,268,186,226,122,0,
2,1775234437840,760,1344,9820,289550,3665,-47647,0,0,0,358,479,306,405,392,422,541,513,302,249,268,299,0,
1,1775234437856,-4173,2670,13357,-6548475,-1517389,-1618792,0,0,0,261,299,205,287,197,290,322,254,269,186,224,122,0,
2,1775234437856,751,1320,9877,289550,-48869,-52534,0,0,0,361,484,311,409,399,432,542,505,310,337,345,299,0,
1,1775234437872,-3555,1756,15525,-6739065,-1672549,-1753183,0,0,0,259,296,211,282,192,307,323,253,281,184,221,133,0,
2,1775234437872,732,1263,9873,290771,-95294,-53756,0,0,0,369,484,311,415,401,432,537,493,311,329,323,302,0,
1,1775234437888,-3436,1206,17942,-6830695,-1718974,-1751961,0,0,0,260,296,210,282,192,306,322,252,280,184,219,135,0,
2,1775234437888,717,1206,9844,295658,-141720,-52534,0,0,0,382,493,312,424,405,435,540,492,312,265,249,327,0,
1,1775234437904,-3589,344,20588,-6883229,-1738522,-1681101,0,0,0,265,299,200,288,196,281,322,254,266,186,223,120,0,
2,1775234437904,636,1100,9887,305432,-171042,-57421,0,0,0,391,500,325,427,414,444,542,480,318,275,247,339,0,
1,1775234437920,-3718,-784,23019,-6885672,-1722639,-1618792,0,0,0,266,300,200,293,198,284,330,256,267,189,223,119,0,
2,1775234437920,559,1057,9964,317649,-166155,-63529,0,0,0,405,509,324,435,415,450,542,464,323,264,220,357,0,
1,1775234437936,-3833,-1943,25259,-6770830,-1649336,-1742187,0,0,0,273,302,204,295,198,284,345,256,273,194,223,119,0,
2,1775234437936,612,1091,10054,362853,-149051,-70860,0,0,0,419,517,324,438,419,457,523,441,329,248,196,377,0,
1,1775234437952,-4245,-3551,27958,-6508158,-1682322,-2326174,0,0,0,269,303,205,291,197,284,329,258,275,189,223,122,0,
2,1775234437952,689,1086,10165,442266,-164933,-87964,0,0,0,434,521,331,440,427,465,520,422,337,246,186,402,0,
1,1775234437968,-4398,-6523,30701,-6322455,-1927890,-3105638,0,0,0,269,303,204,296,195,286,337,256,272,192,224,124,0,
2,1775234437968,717,1000,10265,533896,-175929,-117286,0,0,0,448,530,336,445,435,472,528,400,345,256,184,430,0,
1,1775234437984,-4297,-13869,31179,-6159965,-1891238,-3563787,0,0,0,262,307,210,287,200,294,317,256,282,187,226,125,0,
2,1775234437984,756,938,10409,629191,-158824,-155159,0,0,0,461,544,339,453,445,480,518,364,352,263,183,458,0,
1,1775234438000,-4704,-25235,26934,-5765346,-1402546,-2928487,0,0,0,242,308,215,279,205,300,329,251,292,185,224,135,0,
2,1775234438000,890,928,10696,753807,-114842,-200363,0,0,0,474,554,344,462,454,493,502,324,360,263,175,485,0,
1,1775234438016,406,-37645,19497,-4619362,-1148426,-932180,0,0,0,239,312,214,276,209,301,321,250,297,189,227,139,0,
2,1775234438016,1048,847,11141,912632,-70860,-254119,0,0,0,484,554,344,467,460,503,483,282,366,273,180,501,0,
1,1775234438032,10715,-44881,14429,-2923601,-665843,882089,0,0,0,237,310,210,277,216,298,317,248,290,187,223,133,0,
2,1775234438032,1172,698,11715,1122770,-58643,-316428,0,0,0,492,561,346,463,467,504,458,253,372,271,177,518,0,
1,1775234438048,18233,-44570,12553,-772133,797790,1729970,0,0,0,242,310,210,277,213,297,317,254,288,199,223,137,0,
2,1775234438048,1397,598,12639,1448972,-106290,-394618,0,0,0,491,568,309,464,479,501,419,237,371,267,178,530,0,
1,1775234438064,11619,-37396,13285,703716,2046398,1356120,0,0,0,240,317,209,274,212,285,335,283,280,225,268,128,0,
2,1775234438064,1478,655,14113,1958433,-206472,-483805,0,0,0,491,567,281,478,491,508,383,231,367,266,183,543,0,
1,1775234438080,1598,-25738,15568,2019520,2538755,781907,0,0,0,227,311,191,269,210,259,375,353,255,263,350,102,0,
2,1775234438080,1612,780,15520,2674368,-399505,-580321,0,0,0,509,567,259,476,501,508,335,234,366,260,185,555,0,
1,1775234438096,-7111,-2814,17697,2836858,2155132,555887,0,0,0,224,284,161,267,189,236,419,428,233,313,408,87,0,
2,1775234438096,1454,976,16793,3477044,-572991,-678060,0,0,0,501,568,235,470,510,497,296,239,358,266,193,555,0,
1,1775234438112,-10643,16630,13773,3560122,2214997,668286,0,0,0,239,269,144,273,170,231,460,466,231,371,429,79,0,
2,1775234438112,1890,1325,18468,4371351,-730594,-757472,0,0,0,512,564,244,451,504,494,276,235,355,253,189,549,0,
1,1775234438128,-5470,7934,11658,4851491,2219884,558330,0,0,0,241,273,143,285,171,244,488,488,235,428,448,77,0,
2,1775234438128,4063,1675,20832,5422039,-938289,-957836,0,0,0,498,547,247,448,494,489,255,201,350,244,174,515,0,
1,1775234438144,1488,-3632,20933,5755572,706160,107512,0,0,0,247,282,167,296,178,259,505,505,249,443,462,77,0,
2,1775234438144,6188,1497,23976,6558249,-1138652,-1336573,0,0,0,462,530,237,442,484,478,252,187,340,225,162,449,0,
1,1775234438160,1904,-3761,25163,4425107,-304210,344527,0,0,0,258,297,217,312,192,300,517,517,268,464,478,111,0,
2,1775234438160,7403,1392,29600,7864279,-1133765,-1877799,0,0,0,385,510,215,414,462,450,262,195,317,203,154,388,0,
1,1775234438176,-2354,-871,18300,2236988,-156381,411723,0,0,0,275,305,229,335,197,330,536,531,288,496,499,171,0,
2,1775234438176,8317,4465,31572,8778133,-693942,-2299296,0,0,0,324,481,203,376,425,411,277,220,283,177,142,330,0,
1,1775234438192,-3479,-268,11940,823446,52534,124616,0,0,0,301,313,244,350,204,339,554,537,317,492,513,194,0,
2,1775234438192,8083,6877,31170,9541715,1221,-2819753,0,0,0,274,444,207,338,383,371,293,257,259,144,133,247,0,
1,1775234438208,-2134,-550,9418,312763,76969,-124616,0,0,0,315,323,244,361,208,348,554,539,305,501,518,219,0,
2,1775234438208,7111,6996,27853,9788504,345749,-3357315,0,0,0,255,428,237,313,359,347,300,279,255,119,133,182,0,
1,1775234438224,-1646,90,10222,235793,7330,-68416,0,0,0,320,324,246,368,213,354,551,537,313,511,522,240,0,
2,1775234438224,8566,9131,17942,8973610,-260228,-3799581,0,0,0,275,436,257,314,359,350,303,286,257,120,133,184,0,
1,1775234438240,-1914,722,10591,199142,-19547,6108,0,0,0,330,342,261,360,224,354,561,526,311,507,530,247,0,
2,1775234438240,8322,16415,9078,6311459,-740368,-3638313,0,0,0,257,432,218,324,371,357,314,294,259,139,143,205,0,
1,1775234438256,-2067,842,10160,191811,-4886,18325,0,0,0,336,343,271,358,222,362,565,520,309,497,528,252,0,
2,1775234438256,4446,23551,7934,1521054,-693942,-1771509,0,0,0,253,433,210,321,369,347,308,291,252,142,148,220,0,
1,1775234438272,-1919,818,9877,217468,4886,25656,0,0,0,335,338,274,363,215,370,562,509,315,488,517,265,0,
2,1775234438272,3651,18262,9116,-3561344,-1233947,1513724,0,0,0,252,436,217,330,378,364,318,298,262,128,140,192,0,
1,1775234438288,-1737,813,10074,273667,-29321,42760,0,0,0,337,344,278,367,213,373,560,484,318,480,508,278,0,
2,1775234438288,8533,6877,5891,-5056742,-1485624,3056769,0,0,0,244,437,220,325,377,364,317,300,262,129,146,194,0,
1,1775234438304,-1775,866,10270,353080,-112399,57421,0,0,0,342,341,275,373,211,378,555,463,321,475,489,287,0,
2,1775234438304,10629,1718,2550,-3974289,-299323,2120924,0,0,0,238,436,220,322,375,361,316,303,264,128,147,195,0,
1,1775234438320,-1842,818,10141,417831,-179594,63529,0,0,0,343,341,263,371,211,379,552,439,322,476,455,300,0,
2,1775234438320,7418,2737,3292,-3495370,781907,957836,0,0,0,244,440,226,320,375,358,314,303,262,127,143,191,0,
1,1775234438336,-1847,665,9863,430049,-206472,64751,0,0,0,345,342,261,377,216,390,548,427,327,465,448,309,0,
2,1775234438336,3685,5508,6073,-4122118,768468,499687,0,0,0,240,440,227,324,376,361,314,304,261,139,148,189,0,
1,1775234438352,-1852,497,10098,368962,-189368,64751,0,0,0,332,348,251,369,226,390,543,435,336,441,443,316,0,
2,1775234438352,4139,5427,7169,-4957782,455705,583987,0,0,0,236,438,223,323,377,362,315,307,260,130,148,188,0,
1,1775234438368,-1842,416,10729,267558,-156381,68416,0,0,0,330,345,245,367,226,387,542,402,343,423,421,324,0,
2,1775234438368,5226,4331,7681,-5387831,781907,680503,0,0,0,235,437,222,324,378,361,316,307,259,130,150,190,0,
1,1775234438384,-1880,440,10117,266337,-188146,67195,0,0,0,330,353,250,370,227,393,526,402,338,412,414,333,0,
2,1775234438384,4718,3766,8906,-5531995,1463633,816115,0,0,0,238,438,223,323,378,361,315,306,259,132,152,193,0,
1,1775234438400,-1966,459,9423,290771,-207694,69638,0,0,0,324,373,250,365,290,392,525,402,346,399,413,341,0,
2,1775234438400,3455,3843,11040,-5832541,1857030,1174082,0,0,0,239,441,220,321,376,357,316,306,256,142,157,200,0,
1,1775234438416,-1986,406,9428,283441,-164933,75747,0,0,0,322,365,247,366,263,392,526,387,348,398,408,341,0,
2,1775234438416,3239,3689,12873,-6195395,2034181,1571145,0,0,0,238,443,218,321,376,355,315,304,255,147,159,208,0,
1,1775234438432,-1957,344,9557,252898,-117286,76969,0,0,0,330,359,254,373,249,403,496,369,358,407,403,350,0,
2,1775234438432,3158,3316,14807,-6466619,2239431,1898569,0,0,0,237,442,218,322,377,357,314,302,256,141,158,211,0,
1,1775234438448,-1952,325,9629,213802,-73303,70860,0,0,0,335,360,254,377,253,407,511,371,359,410,380,361,0,
2,1775234438448,2636,2914,16913,-6546031,2362826,2051285,0,0,0,237,441,219,322,376,358,315,302,259,141,157,211,0,
1,1775234438464,-1957,330,9681,195476,-37873,67195,0,0,0,327,369,249,378,275,405,526,375,354,401,372,372,0,
2,1775234438464,2072,2775,19502,-6597344,2268753,2095267,0,0,0,238,443,219,324,378,361,316,304,260,143,158,212,0,
1,1775234438480,-1947,311,9815,195476,-18325,73303,0,0,0,317,372,250,379,285,409,522,373,353,391,365,381,0,
2,1775234438480,1852,2876,22536,-6756169,2119702,2098932,0,0,0,239,443,222,323,377,362,319,305,264,141,155,211,0,
1,1775234438496,-1976,268,9877,221133,-23212,91629,0,0,0,313,373,255,382,278,421,517,364,356,382,347,386,0,
2,1775234438496,1895,2627,26307,-7037167,1982868,2135584,0,0,0,240,444,219,327,377,362,318,301,259,141,155,207,0,
1,1775234438512,-2048,244,9844,270002,-28099,123394,0,0,0,317,381,257,387,279,430,512,347,359,370,331,389,0,
2,1775234438512,2019,-81,30370,-7221648,1835039,2368935,0,0,0,242,445,219,330,379,362,325,305,260,141,151,206,0,
1,1775234438528,-2144,258,9806,344527,-23212,169820,0,0,0,331,386,255,394,287,432,509,332,367,356,315,408,0,
2,1775234438528,2919,-6168,33495,-7154453,1694540,2625498,0,0,0,247,444,219,330,375,361,303,308,275,144,150,205,0,
1,1775234438544,-2292,306,9992,454483,-17104,232128,0,0,0,353,396,261,403,287,443,500,306,376,345,291,441,0,
2,1775234438544,5589,-17942,32878,-6658431,1386664,2377487,0,0,0,248,442,216,336,378,360,332,303,270,144,149,204,0,
1,1775234438560,-2512,339,10342,615752,-14660,322536,0,0,0,361,411,279,418,317,453,463,267,368,324,258,454,0,
2,1775234438560,7700,-31878,27394,-5634620,1148426,1479515,0,0,0,249,444,218,335,380,363,332,301,273,146,150,210,0,
1,1775234438576,-2569,205,10801,821002,-36651,421497,0,0,0,377,426,247,434,345,475,481,244,382,333,227,478,0,
2,1775234438576,2967,-42837,18865,-3657861,1672549,-23212,0,0,0,250,445,218,336,379,363,336,303,274,147,149,208,0,
1,1775234438592,-2440,9,11265,1042136,-80634,497244,0,0,0,394,434,247,444,349,480,453,224,384,304,208,528,0,
2,1775234438592,-9949,-44431,16238,-1429424,2166128,-981049,0,0,0,239,435,207,335,382,362,352,355,270,140,166,194,0,
1,1775234438608,-2053,-201,11868,1299921,-127059,538783,0,0,0,401,438,228,462,362,497,430,219,397,282,194,530,0,
2,1775234438608,-16501,-41449,20052,294437,493579,-627969,0,0,0,230,415,187,337,377,356,386,432,254,183,223,175,0,
1,1775234438624,-1703,-339,12730,1633453,-173485,518013,0,0,0,421,441,237,476,373,529,415,198,404,283,184,545,0,
2,1775234438624,-8585,-29016,23507,2130697,-2329840,-95294,0,0,0,230,387,171,334,356,349,432,469,249,193,266,165,0,
1,1775234438640,-1899,-349,13711,2054950,-310319,508239,0,0,0,413,436,221,491,386,542,364,183,409,266,166,566,0,
2,1775234438640,2900,1201,17516,4017049,-4519181,-101403,0,0,0,241,376,167,335,344,352,472,483,256,189,291,166,0,
1,1775234438656,-2531,4,15395,2697580,-411723,560774,0,0,0,412,435,210,469,397,538,291,178,420,247,160,566,0,
2,1775234438656,3479,8652,14687,5257106,-4298047,142942,0,0,0,249,383,173,342,344,362,494,495,265,202,310,176,0,
1,1775234438672,-3704,363,17042,3469714,-262672,681725,0,0,0,422,437,208,440,390,516,236,172,417,228,152,551,0,
2,1775234438672,-2531,1024,20095,5584530,-2376265,469144,0,0,0,249,389,184,344,345,372,504,505,276,204,314,187,0,
1,1775234438688,-5570,756,18999,4526511,79412,993266,0,0,0,425,430,211,432,362,488,219,160,406,213,130,520,0,
2,1775234438688,-5532,-2680,24709,4812396,-724486,195476,0,0,0,253,398,210,354,347,383,516,516,287,213,313,197,0,
1,1775234438704,-7901,1033,21861,5684711,388510,1469741,0,0,0,410,415,217,415,337,467,220,158,393,199,114,458,0,
2,1775234438704,-1383,497,20521,3323106,-136833,-383623,0,0,0,269,424,253,363,355,390,527,527,286,234,324,208,0,
1,1775234438720,-10327,842,25762,6795264,640186,2083050,0,0,0,368,402,209,367,329,437,203,172,370,170,121,375,0,
2,1775234438720,1928,1474,13400,2010968,-100181,-235793,0,0,0,288,444,279,376,373,395,538,539,283,269,348,218,0,
1,1775234438736,-11351,751,28992,7725001,774577,2728124,0,0,0,293,377,199,332,302,387,207,186,336,164,139,314,0,
2,1775234438736,1914,502,9571,917519,-102625,63529,0,0,0,311,447,290,388,379,405,552,563,284,331,392,234,0,
1,1775234438752,-10954,2560,30418,8334645,586430,3194825,0,0,0,244,349,186,287,292,321,247,217,272,170,183,232,0,
2,1775234438752,708,4,10212,373849,-160046,112399,0,0,0,327,464,302,393,384,409,552,552,305,371,375,237,0,
1,1775234438768,-9863,6235,28394,8740259,701273,3557679,0,0,0,252,279,210,262,186,257,300,247,269,171,205,120,0,
2,1775234438768,670,703,10825,182037,-243124,30543,0,0,0,327,461,303,390,384,413,573,578,293,332,389,253,0,
1,1775234438784,-10859,9844,20693,8713381,1479515,3765373,0,0,0,256,280,222,271,186,295,313,251,286,176,217,147,0,
2,1775234438784,770,1335,10509,86742,-250454,2443,0,0,0,339,466,311,393,384,417,575,581,285,329,391,255,0,
1,1775234438800,-13366,13122,12596,7611380,1617571,3767816,0,0,0,255,286,227,272,187,307,310,252,291,178,220,154,0,
2,1775234438800,732,1541,10227,67195,-162490,9773,0,0,0,347,470,311,400,389,420,572,581,289,341,399,263,0,
1,1775234438816,-9361,18233,10576,3864333,449596,2610838,0,0,0,254,305,225,271,197,303,316,259,283,178,222,154,0,
2,1775234438816,693,1598,10232,108734,-85521,2443,0,0,0,353,473,320,397,387,423,570,575,295,356,407,276,0,
1,1775234438832,-2278,19813,11098,-1199739,375071,-79412,0,0,0,257,304,219,275,197,297,316,263,277,179,223,151,0,
2,1775234438832,679,1655,10303,212581,-28099,-15882,0,0,0,361,476,323,398,386,423,569,564,295,359,398,286,0,
1,1775234438848,-4350,12988,8494,-3634648,1660331,-2271196,0,0,0,265,298,213,289,196,283,331,263,271,186,226,144,0,
2,1775234438848,693,1694,10246,333532,30543,-29321,0,0,0,366,477,321,404,389,423,566,553,294,353,381,296,0,
1,1775234438864,-9298,6590,4575,-3965737,1557706,-2641381,0,0,0,267,295,209,297,195,281,341,263,270,189,228,138,0,
2,1775234438864,732,1612,10112,439822,94073,-35430,0,0,0,369,479,322,410,394,427,563,544,298,303,322,313,0,
1,1775234438880,-9791,4101,2718,-3406184,-28099,-1601688,0,0,0,269,295,205,299,196,282,341,264,267,191,232,130,0,
2,1775234438880,775,1435,9987,467922,133168,-40317,0,0,0,375,481,328,416,399,434,560,531,303,239,247,331,0,
1,1775234438896,-4919,5518,4900,-3610213,-667064,-932180,0,0,0,268,299,204,297,200,277,336,268,262,192,239,122,0,
2,1775234438896,856,1273,9901,454483,153938,-48869,0,0,0,380,484,324,418,400,437,554,519,305,241,240,338,0,
1,1775234438912,-3239,6618,7250,-4455651,-174707,-1058018,0,0,0,263,302,203,289,202,275,331,274,264,189,245,121,0,
2,1775234438912,976,1225,9897,423940,135612,-56199,0,0,0,380,482,312,418,404,436,555,503,312,250,242,342,0,
1,1775234438928,-5350,5958,8691,-5453804,190589,-1458746,0,0,0,264,302,202,288,202,275,336,276,266,188,243,122,0,
2,1775234438928,1067,1206,9925,401949,75747,-56199,0,0,0,386,488,317,421,404,438,546,479,313,307,295,348,0,
1,1775234438944,-6819,3709,9806,-6024352,-414166,-1579697,0,0,0,262,301,203,289,202,277,329,269,263,187,243,123,0,
2,1775234438944,1105,1162,9930,398284,8552,-56199,0,0,0,388,496,317,419,412,439,548,461,326,300,284,356,0,
1,1775234438960,-5872,1847,11270,-6213721,-1080009,-1574810,0,0,0,260,300,217,281,210,293,319,264,271,186,237,136,0,
2,1775234438960,1081,1072,9911,400727,-42760,-61086,0,0,0,398,492,314,426,398,445,548,459,325,299,225,372,0,
1,1775234438976,-5101,1311,13089,-6344446,-1211956,-1672549,0,0,0,259,299,203,281,202,276,327,271,267,186,238,128,0,
2,1775234438976,995,990,9901,398284,-78190,-70860,0,0,0,401,489,311,433,409,450,544,443,330,246,192,384,0,
1,1775234438992,-5594,1033,15056,-6587570,-1304808,-1758070,0,0,0,262,301,205,281,202,275,326,272,267,185,236,123,0,
2,1775234438992,928,947,9944,394618,-87964,-72082,0,0,0,410,493,314,434,414,453,539,427,331,236,185,394,0,
1,1775234439008,-6140,454,16937,-6768386,-1513724,-1701870,0,0,0,263,302,206,283,205,278,329,275,269,186,237,123,0,
2,1775234439008,938,904,10002,397062,-85521,-70860,0,0,0,417,502,316,441,425,461,536,412,334,238,185,404,0,
1,1775234439024,-6068,-617,19320,-6756169,-1793500,-1505171,0,0,0,262,299,202,286,204,279,328,276,269,186,237,123,0,
2,1775234439024,976,866,10054,411723,-78190,-74525,0,0,0,427,510,316,445,430,467,530,393,337,240,180,414,0,
1,1775234439040,-5867,-1407,21521,-6597344,-1969429,-1378111,0,0,0,263,300,204,286,203,280,327,271,268,187,237,124,0,
2,1775234439040,1081,813,10102,441044,-69638,-92851,0,0,0,439,515,317,446,433,468,526,373,346,244,177,427,0,
1,1775234439056,-6082,-2005,24134,-6345668,-2122145,-1442863,0,0,0,265,301,204,286,203,279,327,270,268,185,234,123,0,
2,1775234439056,1206,746,10150,487470,-59864,-129503,0,0,0,448,520,327,450,441,477,519,345,357,249,175,445,0,
1,1775234439072,-6192,-3254,27441,-6152634,-2371378,-1671327,0,0,0,265,301,205,285,201,278,328,273,270,184,232,124,0,
2,1775234439072,1378,650,10232,554665,-45204,-193033,0,0,0,455,525,331,456,446,489,502,307,357,286,197,461,0,
1,1775234439088,-5321,-6968,30394,-6227160,-2636494,-1963320,0,0,0,264,301,209,286,201,280,328,272,272,187,232,125,0,
2,1775234439088,1392,579,10346,624304,-18325,-274889,0,0,0,467,528,324,463,449,493,487,277,355,321,220,477,0,
1,1775234439104,-4402,-13792,31237,-6362772,-2615724,-2030516,0,0,0,263,303,208,287,206,283,330,270,274,189,233,124,0,
2,1775234439104,1201,579,10787,750142,-12217,-339641,0,0,0,479,535,320,471,463,500,482,263,370,260,173,502,0,
1,1775234439120,-4048,-24125,27623,-6186843,-2277305,-1522276,0,0,0,260,306,204,285,209,287,330,274,281,186,233,126,0,
2,1775234439120,899,603,11495,981049,-31764,-337197,0,0,0,486,542,312,476,481,509,461,245,384,267,178,525,0,
1,1775234439136,-454,-36635,20224,-5097059,-2218662,-139277,0,0,0,257,309,209,281,205,289,327,271,285,186,237,126,0,
2,1775234439136,717,555,12151,1334129,0,-295658,0,0,0,487,555,301,482,490,516,437,235,373,266,178,539,0,
1,1775234439152,8155,-44168,15276,-3440393,-2117258,1154535,0,0,0,255,311,210,282,208,294,328,272,289,190,236,128,0,
2,1775234439152,679,483,12648,1729970,100181,-256563,0,0,0,488,558,276,489,493,515,403,229,385,264,183,554,0,
1,1775234439168,17511,-45757,14414,-1397659,-1021366,1643227,0,0,0,255,313,213,282,210,296,330,274,290,190,239,131,0,
2,1775234439168,808,392,13251,2155132,188146,-229685,0,0,0,496,553,260,487,508,520,369,228,383,265,182,568,0,
1,1775234439184,14926,-40808,15917,321315,989601,1139874,0,0,0,237,301,190,270,200,269,351,319,269,236,316,111,0,
2,1775234439184,1416,363,14367,2734232,141720,-230907,0,0,0,499,555,242,486,517,514,310,218,376,264,187,580,0,
1,1775234439200,2321,-21129,19377,2163684,3021339,631634,0,0,0,227,271,140,269,185,230,431,432,235,295,386,75,0,
2,1775234439200,2345,272,15506,3426953,64751,-334754,0,0,0,496,552,234,483,512,516,277,210,369,267,190,592,0,
1,1775234439216,-6795,8121,16611,3177720,4169766,285884,0,0,0,234,267,127,275,177,223,463,466,238,339,416,73,0,
2,1775234439216,2952,354,16822,4173431,47647,-549778,0,0,0,501,549,239,469,499,511,263,195,367,258,182,574,0,
1,1775234439232,-5398,16937,11706,4353025,4713436,-130725,0,0,0,234,263,141,288,170,241,485,485,254,394,436,74,0,
2,1775234439232,3613,890,19573,5122715,-9773,-810007,0,0,0,499,538,246,460,491,508,260,179,374,250,175,534,0,
1,1775234439248,3421,1220,17855,5579643,3332880,-92851,0,0,0,243,267,161,301,174,261,502,502,259,422,455,82,0,
2,1775234439248,5082,1134,23278,6206390,-216246,-1088561,0,0,0,478,516,244,452,477,500,260,166,370,229,158,466,0,
1,1775234439264,3139,-4824,26585,4820948,1266934,412944,0,0,0,257,281,176,315,186,272,509,509,261,440,461,87,0,
2,1775234439264,6384,1052,28059,7340156,-313984,-1402546,0,0,0,415,492,220,437,457,476,265,163,345,205,143,388,0,
1,1775234439280,-2148,-1947,23120,2692693,102625,470366,0,0,0,265,291,197,327,196,291,514,514,273,454,462,96,0,
2,1775234439280,6743,1536,32232,8415279,-47647,-1704314,0,0,0,341,465,201,400,431,435,275,183,305,179,134,328,0,
1,1775234439296,-3531,1407,12735,1297477,-8552,15882,0,0,0,269,294,222,331,199,310,528,522,286,456,475,126,0,
2,1775234439296,5671,3598,33878,9053022,353080,-1949881,0,0,0,291,433,209,347,391,385,280,225,270,138,116,262,0,
1,1775234439312,-2445,1182,7628,795346,75747,-200363,0,0,0,280,296,244,330,197,318,548,530,297,460,497,167,0,
2,1775234439312,6278,6949,31351,9446420,602313,-2265088,0,0,0,252,414,217,322,356,354,285,271,267,108,103,181,0,
1,1775234439328,-1957,-220,9341,560774,162490,-111177,0,0,0,303,308,265,348,198,346,547,538,314,471,497,189,0,
2,1775234439328,9322,10725,21823,9324247,631634,-2700024,0,0,0,261,421,230,328,362,370,311,285,273,117,117,193,0,
1,1775234439344,-2311,488,10614,267558,213802,-45204,0,0,0,310,313,263,351,204,356,546,534,323,467,491,199,0,
2,1775234439344,8480,14127,13534,7850840,8552,-3309667,0,0,0,266,426,232,328,362,366,312,292,269,117,118,191,0,
1,1775234439360,-2282,1474,10385,193033,213802,-26878,0,0,0,319,313,275,363,204,344,561,533,321,467,503,202,0,
2,1775234439360,3972,20454,9451,3718947,-959058,-2926044,0,0,0,261,430,223,334,367,362,314,291,255,119,118,188,0,
1,1775234439376,-2029,1421,9983,305432,136833,-7330,0,0,0,317,313,285,365,208,361,556,533,321,462,503,230,0,
2,1775234439376,1215,22148,9935,-2257757,-1926668,-1091005,0,0,0,261,429,216,335,369,359,314,290,253,119,118,190,0,
1,1775234439392,-1909,1162,10093,376292,29321,15882,0,0,0,319,337,289,361,212,364,556,517,324,454,483,241,0,
2,1775234439392,3589,12514,9973,-5971818,-2685363,663399,0,0,0,262,431,221,337,370,364,316,291,254,116,118,188,0,
1,1775234439408,-2000,1220,10332,397062,-84299,46425,0,0,0,322,337,286,365,216,375,544,488,338,442,457,259,0,
2,1775234439408,6867,4197,6776,-6200282,-2763554,922406,0,0,0,251,432,221,334,372,364,318,297,260,119,122,191,0,
1,1775234439424,-2029,1277,10155,442266,-188146,69638,0,0,0,326,336,290,367,221,381,540,462,346,434,436,276,0,
2,1775234439424,9016,1454,3326,-5158146,-2031737,277332,0,0,0,250,434,223,334,371,363,318,299,261,116,120,191,0,
1,1775234439440,-2120,1072,9322,447153,-234572,80634,0,0,0,327,340,287,365,221,380,538,437,344,437,424,282,0,
2,1775234439440,8442,3187,3704,-4875926,-635299,-373849,0,0,0,248,436,224,335,373,364,317,300,260,116,120,191,0,
1,1775234439456,-2258,832,9246,368962,-179594,81855,0,0,0,326,346,281,364,231,378,538,430,345,422,417,288,0,
2,1775234439456,6116,4647,6408,-5308418,98960,-388510,0,0,0,247,433,222,334,377,364,317,302,260,118,122,191,0,
1,1775234439472,-2297,770,9461,338419,-151494,83077,0,0,0,319,351,271,364,245,380,533,430,348,404,408,295,0,
2,1775234439472,5206,4465,8140,-5758015,153938,175929,0,0,0,247,433,222,332,374,361,316,302,260,117,121,187,0,
1,1775234439488,-2282,832,9533,321315,-116064,85521,0,0,0,319,353,266,372,246,387,532,421,352,394,397,306,0,
2,1775234439488,6130,3570,8676,-6031683,398284,816115,0,0,0,249,436,224,332,370,361,316,303,259,117,122,186,0,
1,1775234439504,-2287,875,9504,295658,-48869,89186,0,0,0,322,351,266,376,246,393,531,410,355,387,389,317,0,
2,1775234439504,6767,2780,9437,-6174625,1058018,1273043,0,0,0,249,437,226,334,374,364,319,305,260,119,125,190,0,
1,1775234439520,-2254,861,9538,274889,25656,90408,0,0,0,317,352,266,369,254,396,527,400,359,385,382,327,0,
2,1775234439520,5719,2512,11476,-6296798,1715309,1624901,0,0,0,247,436,225,334,375,364,321,307,262,122,125,191,0,
1,1775234439536,-2129,813,9614,271224,65973,87964,0,0,0,316,359,265,369,255,405,528,386,367,381,372,338,0,
2,1775234439536,4910,2388,13486,-6439741,1885130,1799608,0,0,0,244,434,225,335,379,365,328,311,265,126,127,192,0,
1,1775234439552,-2033,775,9691,283441,63529,83077,0,0,0,318,357,269,376,262,405,528,378,356,380,366,344,0,
2,1775234439552,4570,2158,15630,-6601009,1936442,1819156,0,0,0,250,437,226,336,374,367,323,307,264,117,121,189,0,
1,1775234439568,-1966,741,9786,309097,29321,79412,0,0,0,316,347,271,373,258,410,533,368,353,370,345,353,0,
2,1775234439568,4450,2029,18023,-6740287,2017077,1670105,0,0,0,245,433,224,334,372,365,324,307,264,116,122,189,0,
1,1775234439584,-1966,660,9825,335975,-21991,79412,0,0,0,326,353,267,391,264,428,533,342,359,367,334,368,0,
2,1775234439584,4125,2268,21000,-6862460,2158797,1492954,0,0,0,248,434,226,336,372,367,329,311,269,155,138,184,0,
1,1775234439600,-2091,603,9825,372627,-69638,96516,0,0,0,319,358,290,376,262,448,525,334,389,359,318,389,0,
2,1775234439600,3192,2368,25307,-7049384,2276083,1463633,0,0,0,248,435,226,339,375,369,326,307,266,124,125,187,0,
1,1775234439616,-2297,617,9853,442266,-86742,145385,0,0,0,332,363,271,390,276,435,516,323,383,344,299,409,0,
2,1775234439616,1765,38,29676,-7208209,2250427,1905899,0,0,0,249,435,225,342,374,370,329,306,270,121,123,190,0,
1,1775234439632,-2531,612,9925,538783,-85521,213802,0,0,0,334,366,272,419,285,447,512,299,381,339,281,420,0,
2,1775234439632,909,-5695,32859,-7142236,2218662,2483778,0,0,0,250,434,223,343,375,370,333,306,274,122,121,189,0,
1,1775234439648,-2636,502,10016,646295,-83077,307876,0,0,0,344,380,280,423,302,461,507,266,396,332,255,452,0,
2,1775234439648,1115,-15649,34041,-6696304,1942551,2785545,0,0,0,253,432,222,328,392,366,337,303,275,122,122,189,0,
1,1775234439664,-2584,368,10241,766025,-80634,399505,0,0,0,364,389,276,435,311,482,492,241,405,313,227,479,0,
2,1775234439664,4460,-29691,30437,-5711589,924849,2261423,0,0,0,256,435,224,336,384,371,337,302,277,121,122,188,0,
1,1775234439680,-2450,253,10662,912632,-87964,463035,0,0,0,385,397,268,452,321,493,477,222,409,297,202,498,0,
2,1775234439680,6389,-40143,21383,-4020715,729373,453262,0,0,0,257,437,226,346,375,376,339,304,281,122,120,189,0,
1,1775234439696,-2148,148,11371,1145983,-130725,488692,0,0,0,395,422,253,456,346,498,460,214,420,293,195,519,0,
2,1775234439696,-2349,-44445,15611,-1772730,1650557,-1797165,0,0,0,253,434,221,345,376,374,346,327,277,126,134,188,0,
1,1775234439712,-1809,81,11998,1430646,-171042,459370,0,0,0,394,447,239,453,373,509,437,205,436,283,190,538,0,
2,1775234439712,-12395,-41134,18080,-326202,971275,-1992642,0,0,0,244,424,207,344,378,368,365,388,265,136,169,181,0,
1,1775234439728,-1828,-52,12428,1745852,-200363,399505,0,0,0,390,449,234,460,394,522,405,192,447,266,178,549,0,
2,1775234439728,-11380,-31351,22182,1511280,-1298699,-1142317,0,0,0,237,404,185,340,368,357,402,455,254,154,215,172,0,
1,1775234439744,-2258,-167,13060,2136806,-250454,370184,0,0,0,393,441,220,469,410,526,364,186,454,259,172,559,0,
2,1775234439744,1349,-6178,18985,3505144,-3508809,-367740,0,0,0,240,377,167,332,343,345,444,473,249,196,283,171,0,
1,1775234439760,-3120,-148,14228,2664594,-273667,436157,0,0,0,404,437,202,464,407,514,320,173,457,246,156,564,0,
2,1775234439760,6298,9418,12505,4836830,-4096462,-87964,0,0,0,245,371,169,336,338,357,463,497,253,268,387,169,0,
1,1775234439776,-4474,201,15888,3368310,-218689,665843,0,0,0,408,440,202,457,401,499,265,173,440,234,156,552,0,
2,1775234439776,1545,4498,14510,5602855,-2946813,282219,0,0,0,253,381,180,342,339,366,489,512,264,267,384,179,0,
1,1775234439792,-5953,617,17860,4225965,-78190,1042136,0,0,0,424,427,224,451,366,507,216,160,446,221,124,532,0,
2,1775234439792,-4312,-1818,22373,5292536,-1094670,229685,0,0,0,261,397,204,357,347,380,511,511,280,225,336,206,0,
1,1775234439808,-7523,985,20550,5197241,177150,1511280,0,0,0,389,409,224,430,351,504,213,153,431,179,108,488,0,
2,1775234439808,-3201,-990,24091,4229630,-124616,-296880,0,0,0,268,421,243,361,362,389,520,519,285,223,323,209,0,
1,1775234439824,-9949,1100,24761,6301685,471587,2100154,0,0,0,375,393,211,391,326,465,209,158,371,163,102,428,0,
2,1775234439824,1828,1201,18238,2654820,-20769,-467922,0,0,0,283,454,269,377,372,404,539,540,292,231,317,239,0,
1,1775234439840,-11007,1430,28059,7184996,658512,2664594,0,0,0,321,363,200,349,276,402,230,166,331,158,111,318,0,
2,1775234439840,2536,650,11686,1235169,-42760,-36651,0,0,0,305,456,283,387,376,414,547,566,294,357,431,251,0,
1,1775234439856,-8035,3843,30102,7937582,960280,3089756,0,0,0,267,329,189,305,242,330,269,200,287,175,156,231,0,
2,1775234439856,1292,-90,9719,485026,-76969,184481,0,0,0,330,466,299,396,378,422,549,574,295,416,486,270,0,
1,1775234439872,-7614,5412,30389,8706051,1511280,3089756,0,0,0,254,285,188,276,194,278,303,229,272,180,189,149,0,
2,1775234439872,770,397,10375,234572,-167377,118507,0,0,0,343,474,305,393,405,418,557,568,313,332,396,290,0,
1,1775234439888,-14386,6714,22421,9332799,663399,3273015,0,0,0,260,273,195,274,177,272,317,241,276,185,212,120,0,
2,1775234439888,861,1095,10567,151494,-222354,40317,0,0,0,354,481,309,398,402,418,562,567,308,261,318,313,0,
1,1775234439904,-14917,10701,15080,8886867,-631634,3855781,0,0,0,260,278,207,278,182,290,318,244,286,187,222,128,0,
2,1775234439904,942,1430,10289,134390,-183259,14660,0,0,0,362,485,314,410,392,427,561,572,295,255,306,325,0,
1,1775234439920,-7767,18190,11615,5913175,-791681,3313333,0,0,0,255,282,213,277,187,299,315,245,288,185,222,133,0,
2,1775234439920,904,1421,10227,175929,-111177,6108,0,0,0,367,485,316,416,398,433,563,575,300,261,301,330,0,
1,1775234439936,-2747,21560,11079,438601,823446,138055,0,0,0,255,287,212,276,191,295,314,246,281,186,223,132,0,
2,1775234439936,827,1416,10275,256563,-56199,-9773,0,0,0,372,488,317,419,398,434,565,570,306,259,283,336,0,
1,1775234439952,-4848,16195,9284,-3889989,2345722,-2863736,0,0,0,254,288,218,272,189,301,318,246,283,185,223,140,0,
2,1775234439952,784,1488,10294,348193,12217,-25656,0,0,0,378,490,321,425,403,440,560,551,304,244,255,347,0,
1,1775234439968,-9265,8518,5747,-4405560,1853365,-2801427,0,0,0,253,288,219,270,197,300,321,248,287,182,225,141,0,
2,1775234439968,823,1464,10212,427605,85521,-34208,0,0,0,382,490,322,418,400,441,560,534,311,244,243,361,0,
1,1775234439984,-9638,4302,3292,-4100127,513126,-1656666,0,0,0,256,292,211,270,216,287,320,251,280,185,234,136,0,
2,1775234439984,909,1301,10011,485026,140499,-41538,0,0,0,387,493,317,411,390,435,549,510,309,244,234,363,0,
1,1775234440000,-6015,4053,3642,-3853337,-411723,-577878,0,0,0,255,297,205,274,200,291,318,259,277,185,245,131,0,
2,1775234440000,966,1139,9868,478918,146607,-51312,0,0,0,388,494,314,423,400,442,548,501,319,262,257,365,0,
1,1775234440016,-3632,4953,5647,-4203974,-142942,-338419,0,0,0,261,294,204,279,195,284,329,258,276,190,233,126,0,
2,1775234440016,1033,1043,9825,448375,135612,-61086,0,0,0,394,496,314,427,408,450,545,484,327,243,208,382,0,
1,1775234440032,-4302,5388,7365,-4845383,190589,-522900,0,0,0,260,295,204,278,195,281,328,261,275,190,236,123,0,
2,1775234440032,1143,1009,9863,412944,103847,-67195,0,0,0,394,495,314,424,403,450,533,455,327,292,259,370,0,
1,1775234440048,-5752,4972,8844,-5552765,-164933,-811229,0,0,0,260,296,206,269,229,275,329,260,278,188,232,123,0,
2,1775234440048,1225,961,9882,390953,37873,-72082,0,0,0,402,497,320,428,405,455,538,450,332,247,207,390,0,
1,1775234440064,-6001,4082,10366,-6113539,-712268,-1082453,0,0,0,259,297,206,274,203,282,325,258,279,191,236,128,0,
2,1775234440064,1234,875,9873,365297,-30543,-75747,0,0,0,408,494,316,432,412,459,543,440,334,234,189,401,0,
1,1775234440080,-5522,2584,12021,-6504493,-1189965,-1368338,0,0,0,259,297,208,277,196,288,327,259,280,190,239,130,0,
2,1775234440080,1182,784,9849,329867,-95294,-75747,0,0,0,411,495,316,435,414,460,537,425,335,234,183,405,0,
1,1775234440096,-5508,1182,13620,-6605896,-1483180,-1494176,0,0,0,258,296,208,277,196,288,329,261,283,189,236,128,0,
2,1775234440096,1124,770,9873,300545,-130725,-70860,0,0,0,420,504,320,434,416,463,505,402,338,234,178,412,0,
1,1775234440112,-5470,311,15735,-6603453,-1795943,-1466076,0,0,0,258,296,208,278,197,286,324,257,281,189,233,127,0,
2,1775234440112,1072,756,9916,289550,-145385,-70860,0,0,0,425,511,320,440,422,470,508,391,342,238,176,425,0,
1,1775234440128,-5288,9,18210,-6579018,-1957212,-1361007,0,0,0,261,298,208,279,198,286,321,253,278,190,232,126,0,
2,1775234440128,1067,713,9973,299323,-129503,-84299,0,0,0,429,513,319,446,430,478,529,383,349,241,175,442,0,
1,1775234440144,-5269,-354,21014,-6566801,-2014633,-1329242,0,0,0,262,297,208,280,198,287,325,256,276,189,233,125,0,
2,1775234440144,1143,665,10031,316428,-92851,-113620,0,0,0,436,521,326,449,437,486,525,362,360,243,174,453,0,
1,1775234440160,-5599,-966,24206,-6525262,-2008524,-1473406,0,0,0,261,297,207,280,197,287,325,256,275,190,232,125,0,
2,1775234440160,1296,646,10117,351858,-62308,-160046,0,0,0,446,536,341,455,443,494,521,340,368,250,173,461,0,
1,1775234440176,-5920,-2584,27843,-6461732,-2149023,-1898569,0,0,0,261,299,209,280,195,289,328,256,279,193,230,125,0,
2,1775234440176,1454,631,10227,416610,-56199,-223576,0,0,0,451,535,344,454,444,496,516,316,373,253,171,479,0,
1,1775234440192,-5618,-6494,31514,-6456845,-2461786,-2480112,0,0,0,261,299,208,281,196,288,328,257,283,194,231,128,0,
2,1775234440192,1440,603,10428,509461,-87964,-288328,0,0,0,465,532,345,464,449,502,502,289,374,262,175,496,0,
1,1775234440208,-4867,-14879,32500,-6458067,-2486221,-2813645,0,0,0,257,297,207,283,195,291,325,253,283,194,231,127,0,
2,1775234440208,1349,603,10835,663399,-173485,-322536,0,0,0,473,535,337,472,462,512,488,264,381,268,181,521,0,
1,1775234440224,-5082,-27551,28513,-6192951,-2039068,-2436130,0,0,0,255,305,207,280,197,291,324,254,286,193,235,125,0,
2,1775234440224,1277,641,11466,913854,-224798,-346971,0,0,0,481,545,336,480,471,516,464,243,382,264,177,528,0,
1,1775234440240,-3283,-40071,20636,-5260771,-1871691,-1038470,0,0,0,254,312,203,280,204,288,329,257,285,194,236,123,0,
2,1775234440240,1043,583,12175,1290147,-161268,-371406,0,0,0,489,544,305,483,476,510,442,231,368,274,179,551,0,
1,1775234440256,7810,-46829,15276,-3279124,-2021963,773355,0,0,0,255,313,207,280,203,292,306,239,288,196,237,128,0,
2,1775234440256,650,425,12749,1714087,20769,-361632,0,0,0,481,553,273,490,491,514,408,225,372,276,188,569,0,
1,1775234440272,18463,-47355,14558,-1029918,-979827,1633453,0,0,0,258,308,208,285,198,292,328,252,286,198,234,125,0,
2,1775234440272,670,363,13381,2145358,174707,-320093,0,0,0,485,555,256,485,495,509,379,225,377,279,194,582,0,
1,1775234440288,14060,-40535,16080,932180,1299921,1199739,0,0,0,249,298,201,280,199,281,346,290,275,223,288,110,0,
2,1775234440288,1526,368,14553,2692693,235793,-317649,0,0,0,493,558,243,486,498,515,337,218,378,274,190,588,0,
1,1775234440304,2660,-25470,18296,2315179,2544864,873537,0,0,0,234,278,160,275,191,249,400,376,250,272,368,84,0,
2,1775234440304,2751,421,16046,3446501,129503,-480140,0,0,0,497,549,232,475,497,517,297,209,377,272,189,588,0,
1,1775234440320,-8825,11222,20114,3037221,2968805,689055,0,0,0,231,264,131,272,179,227,449,444,236,318,412,71,0,
2,1775234440320,3239,564,17544,4241848,-18325,-714712,0,0,0,497,539,224,461,489,509,285,212,374,266,186,582,0,
1,1775234440336,-8135,23177,11347,3271794,3743382,254119,0,0,0,236,261,129,280,174,234,473,473,240,361,429,76,0,
2,1775234440336,4111,1048,19923,5211902,-114842,-981049,0,0,0,492,530,229,456,479,508,277,193,376,252,172,550,0,
1,1775234440352,-847,6518,9954,4850269,3545461,-37873,0,0,0,233,261,131,296,179,254,491,491,252,402,447,78,0,
2,1775234440352,5948,1564,22919,6316346,-228463,-1326799,0,0,0,466,509,233,451,467,508,264,162,377,230,152,485,0,
1,1775234440368,3316,-5197,21038,5772676,1466076,188146,0,0,0,236,271,151,310,187,279,509,509,277,429,462,84,0,
2,1775234440368,6939,2292,27035,7461108,-399505,-1743409,0,0,0,400,480,212,432,447,481,271,169,355,202,138,401,0,
1,1775234440384,-28,-3364,24780,4726875,255341,609643,0,0,0,255,289,202,324,196,317,523,523,316,446,475,129,0,
2,1775234440384,6384,4020,30734,8411614,-272445,-2048842,0,0,0,333,459,195,398,422,430,281,190,308,184,136,333,0,
1,1775234440400,-4053,-512,18138,2450791,133168,329867,0,0,0,267,296,237,346,206,355,536,533,339,450,488,203,0,
2,1775234440400,5972,4666,31720,9327912,370184,-2307848,0,0,0,294,435,209,346,392,390,286,231,270,145,119,275,0,
1,1775234440416,-3125,-813,12026,957836,94073,-135612,0,0,0,287,300,246,356,211,364,559,539,335,458,509,230,0,
2,1775234440416,7351,3407,29217,9874025,1225395,-2580294,0,0,0,254,413,221,322,357,359,297,267,260,105,103,182,0,
1,1775234440432,-1531,-593,9619,450818,-89186,-234572,0,0,0,294,319,266,354,233,380,561,539,351,452,511,271,0,
2,1775234440432,8155,6920,22885,9704205,1370781,-3170390,0,0,0,261,422,234,331,359,369,310,283,273,115,114,193,0,
1,1775234440448,-2225,215,9920,466701,-124616,-64751,0,0,0,310,321,263,366,220,388,572,534,345,459,508,301,0,
2,1775234440448,5671,15419,15506,7630928,-289550,-3711617,0,0,0,256,425,224,331,363,370,311,289,267,211,170,194,0,
1,1775234440464,-2847,373,10677,428827,34208,32986,0,0,0,303,329,251,375,237,392,579,528,357,453,493,321,0,
2,1775234440464,3747,22718,10648,2431243,-2172236,-2592512,0,0,0,258,428,221,332,366,368,313,285,257,129,123,189,0,
1,1775234440480,-2531,268,10859,332310,161268,42760,0,0,0,306,334,264,381,248,404,582,507,352,468,474,334,0,
2,1775234440480,4374,21172,9471,-3354871,-2741563,-613308,0,0,0,259,429,220,335,369,363,317,287,255,117,116,188,0,
1,1775234440496,-2148,392,10294,337197,63529,29321,0,0,0,313,342,268,379,269,409,580,489,363,458,460,350,0,
2,1775234440496,5522,11246,9313,-6211277,-2487443,665843,0,0,0,253,432,220,332,370,361,317,288,255,117,118,188,0,
1,1775234440512,-2172,574,10102,389732,-39095,43982,0,0,0,306,347,262,375,281,412,575,466,376,431,431,356,0,
2,1775234440512,6958,3283,5943,-5643173,-2403143,536339,0,0,0,253,435,223,331,371,361,318,291,254,116,119,187,0,
1,1775234440528,-2225,612,10198,458148,-103847,72082,0,0,0,303,349,249,377,289,414,565,446,388,407,404,368,0,
2,1775234440528,9026,1880,2986,-4753753,-2069611,-18325,0,0,0,252,435,224,331,371,361,319,294,254,117,119,189,0,
1,1775234440544,-2153,502,10122,504574,-173485,89186,0,0,0,308,353,237,383,297,416,549,435,392,389,394,389,0,
2,1775234440544,9552,4106,3393,-4928460,-1028697,-450818,0,0,0,250,435,224,331,372,362,319,295,255,116,120,188,0,
1,1775234440560,-2124,325,9839,516791,-262672,95294,0,0,0,310,356,232,387,299,419,540,421,388,372,383,399,0,
2,1775234440560,7843,5589,6144,-5710368,-25656,-422718,0,0,0,251,437,226,331,373,363,318,296,253,115,121,187,0,
1,1775234440576,-2311,172,9552,497244,-304210,101403,0,0,0,309,351,230,387,291,424,539,393,393,361,364,402,0,
2,1775234440576,6661,4714,8346,-6280916,288328,149051,0,0,0,252,439,228,332,372,362,317,296,252,118,121,187,0,
1,1775234440592,-2488,86,9404,469144,-271224,111177,0,0,0,308,345,234,388,274,437,536,362,401,360,340,418,0,
2,1775234440592,7657,2981,9006,-6400645,582765,846659,0,0,0,251,438,227,329,371,361,318,298,253,117,122,186,0,
1,1775234440608,-2589,57,9399,430049,-185703,124616,0,0,0,310,344,235,387,264,437,524,347,389,344,317,431,0,
2,1775234440608,8226,2029,9968,-6447071,1153313,1380555,0,0,0,250,438,225,327,373,359,317,298,252,113,121,182,0,
1,1775234440624,-2598,33,9437,395840,-96516,140499,0,0,0,302,341,234,380,265,432,523,334,389,346,323,442,0,
2,1775234440624,7824,1976,11720,-6557027,1623679,1755626,0,0,0,250,438,225,329,373,360,319,299,255,113,119,182,0,
1,1775234440640,-2450,-23,9466,355523,-32986,153938,0,0,0,302,347,218,388,300,429,523,323,390,346,298,442,0,
2,1775234440640,7843,1832,13625,-6680422,1907121,2026850,0,0,0,251,437,229,333,374,363,319,298,253,114,119,182,0,
1,1775234440656,-2220,-95,9557,300545,-25656,150272,0,0,0,307,339,225,393,273,434,516,312,409,339,270,445,0,
2,1775234440656,8217,1383,16104,-6751282,2177123,2026850,0,0,0,255,437,230,331,370,365,322,299,256,123,123,183,0,
1,1775234440672,-2153,-143,9696,274889,-65973,142942,0,0,0,302,338,241,393,262,448,516,289,422,325,256,449,0,
2,1775234440672,8241,1143,19215,-6800151,2437352,1855808,0,0,0,252,437,228,331,370,365,322,297,257,117,121,185,0,
1,1775234440688,-2321,-186,9753,285884,-136833,152716,0,0,0,302,340,238,396,265,443,510,265,425,315,240,451,0,
2,1775234440688,8289,1186,23373,-6900333,2625498,1648114,0,0,0,250,432,226,331,370,365,324,298,260,115,119,184,0,
1,1775234440704,-2579,-215,9672,317649,-189368,197920,0,0,0,306,342,239,405,272,455,508,258,416,309,234,458,0,
2,1775234440704,8734,713,28686,-7094588,2834414,1552819,0,0,0,251,432,226,333,369,367,326,297,263,114,118,184,0,
1,1775234440720,-2646,-268,9581,348193,-200363,250454,0,0,0,318,346,240,416,282,464,518,255,408,304,225,468,0,
2,1775234440720,8346,-2742,32696,-7250970,3270572,1699427,0,0,0,254,433,226,334,370,367,329,295,265,115,118,183,0,
1,1775234440736,-2579,-315,9676,376292,-185703,289550,0,0,0,325,349,235,425,292,473,523,245,406,302,214,486,0,
2,1775234440736,5297,-9853,35008,-7106806,3996280,1949881,0,0,0,257,432,224,337,369,369,334,293,271,118,117,183,0,
1,1775234440752,-2502,-320,10059,447153,-179594,316428,0,0,0,327,357,232,428,293,486,515,231,420,293,200,506,0,
2,1775234440752,105,-21344,35257,-6287025,3844785,1995085,0,0,0,258,432,222,338,369,371,337,294,276,118,116,184,0,
1,1775234440768,-2574,-287,10557,587652,-185703,326202,0,0,0,336,369,235,437,297,490,503,227,435,281,189,519,0,
2,1775234440768,-2019,-33955,29839,-5055520,2480112,1382998,0,0,0,259,432,224,341,371,376,340,296,280,119,117,188,0,
1,1775234440784,-2732,-282,11112,779464,-202807,344527,0,0,0,353,383,234,465,331,497,484,225,427,289,191,536,0,
2,1775234440784,-2072,-45699,18535,-3247359,1081231,-603534,0,0,0,262,434,227,344,373,379,343,298,282,148,127,188,0,
1,1775234440800,-2651,-335,11701,1053131,-224798,371406,0,0,0,377,403,232,462,350,502,467,201,427,283,181,554,0,
2,1775234440800,-9380,-47236,14993,-1484402,1120326,-2707354,0,0,0,256,431,223,343,374,376,346,311,278,156,138,185,0,
1,1775234440816,-2311,-469,12136,1404990,-232128,367740,0,0,0,398,404,222,475,327,515,423,186,422,282,165,561,0,
2,1775234440816,-17477,-41191,17898,327423,324980,-3356093,0,0,0,241,416,203,342,374,367,366,368,268,141,162,183,0,
1,1775234440832,-2301,-727,12366,1811826,-284663,327423,0,0,0,387,420,206,475,359,522,400,186,416,276,165,569,0,
2,1775234440832,-11691,-20004,22919,1918116,-2079385,-1847256,0,0,0,237,390,177,339,359,354,421,456,258,168,216,174,0,
1,1775234440848,-3259,-847,12854,2233323,-466701,384845,0,0,0,402,420,198,492,390,521,363,170,436,286,161,577,0,
2,1775234440848,2124,12438,20244,3072652,-4775744,293215,0,0,0,248,366,167,336,327,348,468,469,256,183,253,168,0,
1,1775234440864,-3986,-775,13883,2746450,-608421,569326,0,0,0,410,397,198,457,361,531,316,155,444,260,147,583,0,
2,1775234440864,4517,15817,11576,3948632,-5370727,1716531,0,0,0,254,371,169,335,323,352,488,490,263,207,307,169,0,
1,1775234440880,-4326,-583,15443,3413514,-577878,796568,0,0,0,393,390,201,469,344,520,268,149,443,226,119,560,0,
2,1775234440880,-3742,2852,12993,5035973,-3941302,1860695,0,0,0,254,362,169,341,315,360,508,533,261,339,440,163,0,
1,1775234440896,-5714,-196,17894,4423886,-500909,1117883,0,0,0,384,395,202,472,358,507,251,153,452,217,120,520,0,
2,1775234440896,-10514,-5230,23220,5455026,-1750739,575435,0,0,0,255,378,189,357,334,376,512,515,285,232,344,192,0,
1,1775234440912,-7887,191,21330,5486791,-488692,1536936,0,0,0,373,387,195,454,359,506,255,154,446,194,113,465,0,
2,1775234440912,-3938,-646,25498,4480085,-1015258,-449596,0,0,0,270,401,230,375,353,390,533,533,297,226,316,210,0,
1,1775234440928,-10471,114,26144,6682865,-574213,2108706,0,0,0,353,370,193,409,322,469,240,151,404,168,102,396,0,
2,1775234440928,2488,1268,18281,2442239,-658512,-161268,0,0,0,281,433,259,387,379,408,540,540,306,231,312,236,0,
1,1775234440944,-10648,105,30141,7566176,-649960,2613281,0,0,0,317,348,193,356,271,399,227,158,342,150,105,304,0,
2,1775234440944,1890,253,11356,907745,-315206,332310,0,0,0,297,444,269,394,388,416,554,554,308,236,305,261,0,
1,1775234440960,-9562,1320,32380,8235685,-449596,3025004,0,0,0,267,314,191,312,231,331,252,190,298,146,137,201,0,
2,1775234440960,330,4,9882,447153,-164933,260228,0,0,0,314,456,280,400,391,419,562,561,308,242,304,275,0,
1,1775234440976,-10629,4316,31342,8622973,-393397,3307224,0,0,0,236,282,193,271,198,282,297,234,283,159,190,127,0,
2,1775234440976,469,550,10069,263893,-201585,70860,0,0,0,331,464,287,404,393,418,569,568,308,248,305,284,0,
1,1775234440992,-11998,11055,23254,8719490,-762359,3640756,0,0,0,256,286,188,278,197,271,317,252,280,168,217,111,0,
2,1775234440992,1038,1172,10409,155159,-339641,-13439,0,0,0,335,466,289,412,396,427,575,575,302,247,301,288,0,
1,1775234441008,-8734,17181,13682,7346265,-614530,3839898,0,0,0,254,292,204,281,201,287,312,253,289,169,221,121,0,
2,1775234441008,770,1311,10294,89186,-299323,9773,0,0,0,342,467,289,417,398,433,577,578,300,249,299,290,0,
1,1775234441024,-4120,21277,10337,3490483,476474,2750115,0,0,0,243,291,225,275,200,311,307,245,325,170,214,139,0,
2,1775234441024,574,1392,10241,116064,-189368,13439,0,0,0,352,470,294,417,400,430,572,572,305,253,297,295,0,
1,1775234441040,-2359,20234,11146,-1503950,1755626,328645,0,0,0,248,291,204,281,198,303,313,245,322,176,214,141,0,
2,1775234441040,555,1440,10299,201585,-125838,-6108,0,0,0,355,473,298,416,402,428,566,566,302,250,285,303,0,
1,1775234441056,-4766,12347,8925,-4133114,2368935,-1430646,0,0,0,247,289,225,278,195,312,313,244,327,176,216,145,0,
2,1775234441056,502,1493,10303,289550,-39095,-17104,0,0,0,357,477,294,415,401,426,563,563,293,248,271,313,0,
1,1775234441072,-7470,6039,4728,-4210083,2125811,-1422094,0,0,0,245,291,217,277,194,297,316,244,298,181,221,135,0,
2,1775234441072,555,1464,10208,378736,70860,-15882,0,0,0,361,482,294,415,402,429,559,552,299,249,264,321,0,
1,1775234441088,-7633,4699,2933,-3736051,1372003,-588874,0,0,0,244,293,216,278,195,298,315,243,287,183,223,132,0,
2,1775234441088,708,1258,10026,430049,117286,-12217,0,0,0,359,482,298,416,418,434,561,543,311,248,255,326,0,
1,1775234441104,-5034,5953,4589,-4109901,748920,-59864,0,0,0,244,293,217,278,197,296,316,247,288,181,222,129,0,
2,1775234441104,804,1076,9858,427605,108734,-15882,0,0,0,363,482,294,421,408,434,556,525,303,240,237,330,0,
1,1775234441120,-3823,6398,6800,-4955338,885754,-287106,0,0,0,245,292,224,276,197,298,320,250,293,210,215,147,0,
2,1775234441120,823,1024,9815,381179,76969,-26878,0,0,0,365,485,298,421,406,434,553,509,307,235,225,330,0,
1,1775234441136,-4637,5896,8312,-5696929,1031140,-621860,0,0,0,247,292,225,279,197,297,322,250,289,214,216,146,0,
2,1775234441136,875,1043,9863,344527,45204,-39095,0,0,0,368,484,295,422,406,435,553,497,316,237,218,337,0,
1,1775234441152,-6781,4551,9691,-6385985,670730,-885754,0,0,0,250,292,218,282,196,290,326,250,281,185,223,125,0,
2,1775234441152,966,1081,9935,338419,1221,-48869,0,0,0,379,488,299,425,410,438,540,472,310,264,237,339,0,
1,1775234441168,-6901,3402,11237,-6816034,-102625,-960280,0,0,0,250,292,218,280,193,290,329,252,282,187,223,129,0,
2,1775234441168,985,1038,9968,356745,-58643,-58643,0,0,0,382,488,296,428,413,443,540,465,321,255,220,358,0,
1,1775234441184,-6317,2244,13060,-7154453,-623082,-1073901,0,0,0,248,292,223,278,194,296,321,248,282,186,225,134,0,
2,1775234441184,904,947,9987,382401,-105068,-68416,0,0,0,392,494,301,430,428,445,541,454,328,241,197,371,0,
1,1775234441200,-6312,1057,14773,-7286400,-827111,-1165530,0,0,0,247,292,234,278,197,313,320,247,292,181,221,140,0,
2,1775234441200,765,842,9992,404392,-107512,-69638,0,0,0,403,501,307,435,428,452,541,433,330,236,184,383,0,
1,1775234441216,-6896,23,17018,-7178888,-1109331,-1117883,0,0,0,251,292,226,283,197,298,326,247,285,187,223,128,0,
2,1775234441216,713,756,9997,425162,-79412,-69638,0,0,0,412,510,306,441,431,459,536,414,332,236,180,402,0,
1,1775234441232,-7279,-617,19774,-7018841,-1441641,-1065348,0,0,0,256,298,208,283,197,282,334,256,276,191,224,119,0,
2,1775234441232,780,693,10011,454483,-39095,-75747,0,0,0,425,518,306,447,442,468,529,394,338,238,179,423,0,
1,1775234441248,-8006,-1330,23129,-6939429,-1639562,-1214400,0,0,0,258,295,216,284,198,288,335,255,279,189,221,124,0,
2,1775234441248,923,655,10054,489913,-13439,-98960,0,0,0,439,520,310,450,447,475,526,369,346,240,173,439,0,
1,1775234441264,-9552,-2885,26805,-6890559,-1743409,-1563815,0,0,0,255,295,211,284,198,290,332,248,279,189,218,124,0,
2,1775234441264,1048,612,10155,532674,-1221,-128281,0,0,0,446,523,308,455,452,476,523,340,352,247,171,456,0,
1,1775234441280,-11347,-6135,29427,-6839247,-2037846,-2030516,0,0,0,256,295,220,283,196,292,327,250,283,184,218,125,0,
2,1775234441280,1225,545,10318,598647,15882,-183259,0,0,0,454,531,305,463,455,482,511,308,354,258,174,481,0,
1,1775234441296,-10160,-12974,30724,-6632774,-2949257,-2370157,0,0,0,254,295,228,281,194,296,329,247,288,189,220,128,0,
2,1775234441296,1320,440,10490,675616,32986,-250454,0,0,0,462,541,306,467,473,489,489,278,364,252,173,489,0,
1,1775234441312,-6054,-22426,30356,-6112317,-3510031,-2365270,0,0,0,252,295,231,280,192,301,331,246,293,192,222,132,0,
2,1775234441312,1186,354,10978,816115,29321,-322536,0,0,0,466,546,305,474,483,498,458,263,367,260,188,513,0,
1,1775234441328,-1186,-32309,26183,-5214345,-3090978,-1872912,0,0,0,253,295,230,280,192,306,331,245,295,192,222,136,0,
2,1775234441328,923,502,11911,1056796,42760,-338419,0,0,0,481,551,319,482,476,512,447,241,371,264,179,537,0,
1,1775234441344,4608,-41780,18214,-3683517,-2240653,-682947,0,0,0,255,296,226,282,194,307,327,242,292,192,221,134,0,
2,1775234441344,760,579,12802,1469741,125838,-321315,0,0,0,484,551,289,471,480,504,407,220,367,263,176,541,0,
1,1775234441360,10189,-47097,13912,-1907121,-1132544,627969,0,0,0,246,298,220,272,212,296,332,254,289,202,241,124,0,
2,1775234441360,665,464,13390,1964542,221133,-299323,0,0,0,494,560,264,491,502,520,385,225,375,266,186,557,0,
1,1775234441376,12778,-46642,14108,-134390,223576,1382998,0,0,0,224,285,199,257,221,272,371,312,279,241,307,107,0,
2,1775234441376,1172,311,14046,2480112,228463,-288328,0,0,0,487,551,233,484,509,523,348,223,381,269,191,571,0,
1,1775234441392,8624,-30500,19980,1932777,2042733,1263269,0,0,0,222,256,159,273,176,249,434,411,254,304,390,87,0,
2,1775234441392,2077,253,15022,3050661,136833,-344527,0,0,0,488,552,225,478,507,517,308,213,377,272,193,582,0,
1,1775234441408,-2402,3527,18501,3754377,3966958,371406,0,0,0,229,247,157,271,170,249,462,462,250,342,419,85,0,
2,1775234441408,2971,397,16668,3867998,-81855,-519235,0,0,0,490,543,226,467,500,511,284,199,374,259,190,573,0,
1,1775234441424,-5297,14773,13405,5103168,4350582,-343306,0,0,0,232,250,163,279,170,265,475,475,260,387,432,90,0,
2,1775234441424,3804,861,18865,4822170,-295658,-780685,0,0,0,496,529,233,464,492,510,271,181,375,249,176,550,0,
1,1775234441440,1746,2144,17377,6199060,2317622,-419053,0,0,0,228,249,149,291,172,268,488,487,262,409,440,87,0,
2,1775234441440,5211,1258,22344,6018244,-458148,-1147204,0,0,0,481,512,236,460,482,508,266,163,377,236,159,490,0,
1,1775234441456,4460,-4484,25584,5612629,-62308,439822,0,0,0,251,264,187,307,167,298,496,496,278,446,449,100,0,
2,1775234441456,6551,1244,26934,7197214,-472809,-1499063,0,0,0,424,492,219,447,467,491,270,162,361,213,147,409,0,
1,1775234441472,-2057,-2402,21966,3650530,-408057,800233,0,0,0,251,275,222,316,188,326,513,513,294,456,468,151,0,
2,1775234441472,7523,1641,31586,8291884,-201585,-1844813,0,0,0,357,471,200,415,443,449,279,180,323,190,138,346,0,
1,1775234441488,-5881,-38,13232,1778839,-4886,241902,0,0,0,275,286,226,338,200,344,538,527,303,458,498,196,0,
2,1775234441488,6872,3436,34496,9106778,175929,-2199114,0,0,0,298,442,199,364,405,392,289,213,279,154,123,278,0,
1,1775234441504,-3326,-435,8753,902858,266337,-329867,0,0,0,288,302,241,346,207,361,553,536,311,474,515,233,0,
2,1775234441504,8585,6479,32447,9575923,585208,-2641381,0,0,0,252,421,213,336,369,360,304,253,259,114,104,195,0,
1,1775234441520,-1742,-756,9853,379958,266337,-211359,0,0,0,298,316,265,349,211,373,553,536,320,486,526,263,0,
2,1775234441520,10854,10356,24398,9571036,916297,-3249803,0,0,0,265,420,222,337,365,367,313,278,269,120,111,196,0,
1,1775234441536,-1971,47,10930,100181,252898,-2443,0,0,0,303,322,270,355,218,383,555,530,331,489,533,282,0,
2,1775234441536,10490,13563,15022,8751255,438601,-3999945,0,0,0,264,423,223,334,365,366,313,293,266,119,117,194,0,
1,1775234441552,-2445,856,10519,116064,243124,48869,0,0,0,310,330,271,362,230,389,557,524,338,488,531,298,0,
2,1775234441552,5561,19865,9839,5064072,-757472,-3681073,0,0,0,260,424,214,334,368,359,312,293,253,118,117,191,0,
1,1775234441568,-2153,928,9710,197920,240680,26878,0,0,0,320,343,272,365,244,389,554,510,337,486,521,309,0,
2,1775234441568,1952,24020,8609,-1032362,-1599245,-1609019,0,0,0,260,427,212,338,369,359,317,296,252,123,121,192,0,
1,1775234441584,-1880,804,9710,230907,199142,26878,0,0,0,326,357,264,367,254,391,553,487,339,478,508,320,0,
2,1775234441584,3656,16482,9222,-5133711,-2023185,566882,0,0,0,258,427,212,336,369,359,318,297,258,123,121,196,0,
1,1775234441600,-1880,780,10299,295658,57421,45204,0,0,0,329,368,264,370,255,399,552,472,346,458,487,342,0,
2,1775234441600,7475,6882,6891,-6344446,-1968207,1392772,0,0,0,252,430,217,334,368,361,316,297,259,123,123,197,0,
1,1775234441616,-1904,784,10433,393397,-92851,57421,0,0,0,323,372,256,371,262,400,545,454,342,443,464,356,0,
2,1775234441616,10054,2024,3172,-5359731,-992045,627969,0,0,0,248,432,223,334,369,365,316,299,260,124,124,199,0,
1,1775234441632,-1933,674,10031,448375,-190589,52534,0,0,0,322,388,251,362,286,398,540,439,348,452,451,368,0,
2,1775234441632,8044,3402,3637,-5012760,249233,-284663,0,0,0,246,434,225,335,371,367,318,303,262,126,126,200,0,
1,1775234441648,-2057,483,9696,419053,-196698,47647,0,0,0,328,388,254,370,266,408,536,418,355,426,437,382,0,
2,1775234441648,4857,5168,6379,-5417152,850324,-603534,0,0,0,243,436,222,336,374,367,321,307,263,122,124,196,0,
1,1775234441664,-2134,354,9571,366519,-166155,52534,0,0,0,328,389,260,368,266,415,527,408,356,407,412,381,0,
2,1775234441664,3598,5403,8528,-5937610,831998,-306654,0,0,0,242,435,220,334,373,365,320,307,262,121,124,195,0,
1,1775234441680,-2139,301,9590,322536,-130725,62308,0,0,0,328,391,250,360,321,389,520,404,356,393,401,372,0,
2,1775234441680,4565,4680,9241,-6106208,1138652,195476,0,0,0,243,435,221,334,373,364,319,306,262,121,125,196,0,
1,1775234441696,-2139,268,9562,291993,-103847,68416,0,0,0,327,388,244,379,286,406,515,383,349,402,397,374,0,
2,1775234441696,4718,4465,10619,-6232047,1803274,660956,0,0,0,244,435,221,336,373,367,319,307,262,120,124,197,0,
1,1775234441712,-2120,253,9528,261450,-75747,72082,0,0,0,327,387,245,380,270,409,515,375,354,400,379,375,0,
2,1775234441712,3776,4503,12998,-6503271,2257757,1105666,0,0,0,243,435,220,338,375,370,320,307,260,121,123,196,0,
1,1775234441728,-2067,258,9562,230907,-46425,73303,0,0,0,328,388,261,374,264,412,509,367,362,388,366,378,0,
2,1775234441728,3244,3953,15496,-6791599,2441017,1539380,0,0,0,243,435,220,338,374,367,323,309,257,121,123,193,0,
1,1775234441744,-2038,258,9609,212581,-24434,70860,0,0,0,328,385,261,375,266,415,507,363,362,379,364,385,0,
2,1775234441744,3225,3292,17621,-6850242,2538755,1677435,0,0,0,242,434,220,334,373,367,326,309,260,123,125,194,0,
1,1775234441760,-2029,229,9657,210137,-12217,69638,0,0,0,332,380,257,380,274,421,510,356,366,375,359,391,0,
2,1775234441760,3029,3038,20684,-6933320,2619390,1698205,0,0,0,242,435,220,338,373,368,326,308,261,127,124,190,0,
1,1775234441776,-2024,191,9748,219911,-14660,75747,0,0,0,340,385,256,389,283,425,506,341,370,369,341,395,0,
2,1775234441776,3101,3034,24637,-7172779,2531425,1694540,0,0,0,244,434,221,339,372,368,329,310,262,120,121,191,0,
1,1775234441792,-2086,153,9868,259006,-39095,98960,0,0,0,336,408,250,395,294,420,501,326,369,358,315,403,0,
2,1775234441792,3335,2507,28623,-7412238,2428800,1831373,0,0,0,244,434,224,339,372,368,329,308,262,121,121,191,0,
1,1775234441808,-2330,143,9858,333532,-65973,153938,0,0,0,338,422,256,386,297,425,500,313,375,344,298,421,0,
2,1775234441808,3512,-320,32825,-7556403,2436130,2309070,0,0,0,249,434,224,339,370,367,333,306,266,119,121,192,0,
1,1775234441824,-2512,143,9849,422718,-76969,237015,0,0,0,371,401,246,409,298,438,488,291,365,339,286,440,0,
2,1775234441824,3498,-7073,35845,-7354817,2719572,2896722,0,0,0,247,433,220,343,373,370,338,302,269,196,154,190,0,
1,1775234441840,-2426,67,9925,538783,-89186,328645,0,0,0,361,407,248,410,312,444,488,263,397,325,254,455,0,
2,1775234441840,2699,-19698,36807,-6594901,2673146,3023782,0,0,0,250,433,220,349,375,373,343,302,273,160,138,195,0,
1,1775234441856,-2182,-19,10122,648738,-149051,393397,0,0,0,376,420,251,425,333,454,476,234,394,322,237,486,0,
2,1775234441856,3053,-36199,31251,-5348736,1733635,2344500,0,0,0,254,436,220,352,376,376,345,304,278,129,125,196,0,
1,1775234441872,-1995,-62,10696,767246,-263893,406836,0,0,0,376,421,244,421,339,474,463,229,404,297,217,508,0,
2,1775234441872,1028,-48705,20109,-3401297,1336573,326202,0,0,0,255,436,221,350,375,375,342,302,274,128,123,195,0,
1,1775234441888,-2177,-9,11730,992045,-304210,384845,0,0,0,391,425,237,439,348,493,458,211,404,289,194,539,0,
2,1775234441888,-8126,-51777,15037,-1276708,1434311,-1765400,0,0,0,252,433,219,348,376,375,343,304,272,127,123,193,0,
1,1775234441904,-2325,-71,12414,1302364,-237015,371406,0,0,0,408,433,240,447,373,519,425,197,418,285,192,557,0,
2,1775234441904,-14118,-44847,17592,500909,151494,-2277305,0,0,0,247,427,214,347,378,373,362,364,269,131,149,187,0,
1,1775234441920,-2263,-224,12854,1699427,-211359,366519,0,0,0,410,433,224,444,383,516,396,190,412,285,187,562,0,
2,1775234441920,-8834,-28475,21177,1997529,-1687209,-1737300,0,0,0,240,403,193,339,366,359,404,443,258,151,202,179,0,
1,1775234441936,-2694,-320,13505,2155132,-273667,397062,0,0,0,420,437,215,443,392,517,344,182,417,271,176,568,0,
2,1775234441936,7193,11835,20780,3175277,-3729943,-276111,0,0,0,238,369,167,329,341,345,449,468,252,176,249,177,0,
1,1775234441952,-3579,-296,14477,2728124,-307876,540004,0,0,0,428,445,211,436,407,521,288,192,425,255,174,573,0,
2,1775234441952,10725,25412,11854,3585778,-4763527,976162,0,0,0,248,367,175,333,329,358,481,481,263,190,282,178,0,
1,1775234441968,-4249,-177,15754,3424510,-172263,758694,0,0,0,420,448,206,427,404,514,261,208,418,238,168,563,0,
2,1775234441968,-842,4919,10820,4949230,-4010941,1624901,0,0,0,251,368,177,340,332,367,509,510,274,208,315,185,0,
1,1775234441984,-5752,224,17693,4400673,41538,1095892,0,0,0,409,436,215,429,380,504,246,193,419,218,139,531,0,
2,1775234441984,-10069,-5876,19899,5527108,-2008524,1088561,0,0,0,260,379,193,357,334,372,515,515,280,239,337,192,0,
1,1775234442000,-7786,536,20794,5429370,238237,1579697,0,0,0,404,411,230,430,356,485,233,163,418,203,104,481,0,
2,1775234442000,-5594,-952,23905,4640132,-520457,-279776,0,0,0,269,410,237,368,351,386,538,539,288,273,361,199,0,
1,1775234442016,-9672,440,24914,6486167,395840,2134363,0,0,0,381,388,211,382,320,447,270,188,364,168,102,417,0,
2,1775234442016,2345,2124,19784,3141069,-63529,-620639,0,0,0,278,440,254,381,380,407,554,555,291,316,391,222,0,
1,1775234442032,-10605,775,28150,7406130,509461,2632829,0,0,0,327,364,200,356,287,419,208,154,344,167,113,330,0,
2,1775234442032,3488,263,13630,1579697,-96516,3665,0,0,0,308,447,281,392,386,430,552,552,312,249,311,270,0,
1,1775234442048,-9351,2024,30284,8155050,697608,3027448,0,0,0,265,336,212,301,245,366,228,184,299,155,153,254,0,
2,1775234442048,732,-335,10504,638965,-68416,246789,0,0,0,326,458,295,403,390,440,564,563,320,247,304,291,0,
1,1775234442064,-9097,4000,31098,8724377,972497,3260798,0,0,0,251,287,177,271,197,266,304,231,264,169,192,114,0,
2,1775234442064,162,521,9782,311541,-67195,146607,0,0,0,340,467,295,408,394,440,568,569,318,254,304,308,0,
1,1775234442080,-12840,7647,23785,8888089,983493,3473379,0,0,0,262,283,192,280,191,274,316,245,271,185,221,115,0,
2,1775234442080,827,1134,10141,244346,-186924,29321,0,0,0,350,473,301,412,399,435,574,574,313,264,308,318,0,
1,1775234442096,-14692,12065,14553,8225911,389732,3787364,0,0,0,263,286,195,285,192,279,315,249,276,186,224,119,0,
2,1775234442096,933,1244,10366,174707,-235793,8552,0,0,0,358,480,306,412,401,431,571,572,309,261,303,325,0,
1,1775234442112,-10126,17563,10083,5424483,-377514,3298672,0,0,0,262,293,197,281,199,280,313,258,276,182,235,120,0,
2,1775234442112,732,1244,10332,142942,-183259,15882,0,0,0,363,484,310,414,403,432,568,569,307,255,291,332,0,
1,1775234442128,-3139,19942,10935,389732,403171,624304,0,0,0,260,295,204,276,202,286,314,265,271,180,244,124,0,
2,1775234442128,665,1335,10289,185703,-141720,1221,0,0,0,367,487,317,416,403,435,570,571,309,270,297,334,0,
1,1775234442144,-3158,14917,9696,-3461162,2006081,-2194227,0,0,0,264,294,206,283,202,282,326,268,266,185,246,124,0,
2,1775234442144,588,1526,10375,271224,-75747,-19547,0,0,0,371,488,320,415,400,435,567,565,311,316,334,328,0,
1,1775234442160,-8796,7738,5211,-3791029,1966986,-2454456,0,0,0,267,296,200,288,203,275,335,267,267,190,245,125,0,
2,1775234442160,555,1512,10327,371406,36651,-29321,0,0,0,371,484,312,420,403,439,557,544,310,326,332,332,0,
1,1775234442176,-10289,4565,2541,-3484375,658512,-1503950,0,0,0,263,297,210,282,203,287,328,268,275,186,245,132,0,
2,1775234442176,622,1344,10126,448375,146607,-32986,0,0,0,373,486,304,422,404,443,563,536,320,242,236,352,0,
1,1775234442192,-6872,5125,3407,-3565009,-379958,-568104,0,0,0,259,295,228,274,212,297,322,272,283,178,244,135,0,
2,1775234442192,770,1162,9911,464257,196698,-36651,0,0,0,373,487,300,427,410,446,553,506,318,238,223,360,0,
1,1775234442208,-4130,6006,5896,-4291939,-90408,-420275,0,0,0,261,297,199,271,234,270,329,276,276,183,248,125,0,
2,1775234442208,885,1076,9844,431270,177150,-42760,0,0,0,370,484,293,431,409,456,548,497,318,230,214,363,0,
1,1775234442224,-4843,5752,7652,-5110498,366519,-656069,0,0,0,260,296,198,284,206,276,325,273,265,186,247,120,0,
