sole_id,timestamp,accel_x,accel_y,accel_z,gyro_x,gyro_y,gyro_z,magn_x,magn_y,magn_z,pressure_01,pressure_02,pressure_03,pressure_04,pressure_05,pressure_06,pressure_07,pressure_08,pressure_09,pressure_10,pressure_11,pressure_12,corrupt,transition,grass
1,1786986975504,-2445,1206,9691,423940,-160046,147829,0,0,0,120,124,66,149,82,168,400,268,181,255,177,69,0,,
1,1786986975520,-2493,1191,9825,500909,-193033,161268,0,0,0,117,136,80,155,92,206,400,240,210,239,162,104,0,,
2,1786986975520,-3177,-21464,16257,-2504547,1558928,-520457,0,0,0,30,44,17,76,52,66,152,117,74,84,88,19,0,,
1,1786986975536,-2656,1158,9992,583987,-197920,169820,0,0,0,107,149,78,153,99,223,399,202,240,218,144,126,0,,
2,1786986975536,-5991,-24431,13907,-1310916,1076344,-362853,0,0,0,31,43,17,80,52,69,153,116,76,86,88,19,0,,
1,1786986975552,-2857,1043,10102,691499,-153938,185703,0,0,0,106,162,77,185,104,213,396,156,249,180,108,121,0,,
2,1786986975552,-6690,-25651,12294,-185703,465479,-144164,0,0,0,31,42,17,79,50,69,157,114,81,92,88,18,0,,
1,1786986975568,-2938,885,10246,825889,-117286,213802,0,0,0,112,166,96,231,116,232,393,136,285,155,92,130,0,,
2,1786986975568,-5623,-23192,11887,740368,-118507,-4886,0,0,0,33,41,17,80,49,69,158,110,80,107,90,22,0,,
1,1786986975584,-3015,732,10476,987158,-101403,260228,0,0,0,122,165,55,275,119,242,369,110,286,143,78,137,0,,
2,1786986975584,-3283,-17473,12222,1591914,-587652,130725,0,0,0,39,40,20,79,47,67,162,103,79,108,87,25,0,,
1,1786986975600,-3263,655,10926,1224173,-69638,346971,0,0,0,111,181,50,268,119,256,324,81,295,159,60,165,0,,
2,1786986975600,-411,-11280,12735,2295631,-834441,339641,0,0,0,37,42,24,65,52,74,155,111,84,92,95,30,0,,
1,1786986975616,-3374,540,11299,1491732,3665,444709,0,0,0,102,176,49,248,138,302,242,80,323,156,71,198,0,,
2,1786986975616,1785,-5738,13467,2603507,-784350,558330,0,0,0,21,40,30,57,47,74,157,172,82,102,173,35,0,,
1,1786986975632,-3345,311,11907,1789835,69638,557109,0,0,0,112,205,56,281,195,339,210,85,348,105,49,171,0,,
2,1786986975632,5541,12735,14079,2579073,-875980,689055,0,0,0,14,17,16,53,41,56,163,236,47,168,231,14,0,,
1,1786986975648,-3053,220,12514,2041511,58643,654847,0,0,0,105,178,59,289,137,387,178,59,348,92,38,195,0,,
2,1786986975648,6652,26154,9858,2243097,-1464854,616973,0,0,0,23,24,17,54,39,65,205,327,59,184,311,14,0,,
1,1786986975664,-2761,196,12969,2392148,-14660,720820,0,0,0,112,162,68,266,149,353,180,74,342,91,49,212,0,,
2,1786986975664,2316,14721,7154,2684141,-2390926,158824,0,0,0,22,39,19,50,52,88,205,388,98,195,381,42,0,,
1,1786986975680,-3268,100,13653,2856405,-81855,773355,0,0,0,103,170,72,252,147,321,181,90,312,92,58,173,0,x,
2,1786986975680,-1225,-1426,13912,3815464,-2274862,-394618,0,0,0,32,38,5,60,53,63,284,417,75,266,416,25,0,x,
1,1786986975696,-4197,71,14716,3397632,-47647,916297,0,0,0,114,185,64,240,132,281,162,72,282,88,48,140,0,,
2,1786986975696,129,-3177,20674,3682295,-1508837,-544891,0,0,0,48,76,13,75,65,54,357,438,64,332,434,7,0,,
1,1786986975712,-4881,172,16554,4085466,57421,1143539,0,0,0,98,153,61,215,119,246,169,68,233,71,31,87,0,,
2,1786986975712,2857,1330,20641,2403143,-1210734,-290771,0,0,0,57,81,23,76,57,56,387,448,73,343,440,13,0,,
1,1786986975728,-5422,201,19133,4809952,142942,1368338,0,0,0,83,133,67,164,105,212,165,70,194,59,26,60,0,,
2,1786986975728,2067,1698,15041,1177748,-967610,86742,0,0,0,62,73,43,78,45,66,388,450,98,338,442,25,0,,
1,1786986975744,-6819,-33,21641,5514891,114842,1588249,0,0,0,66,108,55,110,82,162,132,68,155,55,40,68,0,,
2,1786986975744,660,1526,10509,636521,-485026,215024,0,0,0,67,71,84,86,44,99,398,452,149,353,443,46,0,,
1,1786986975760,-7863,253,23230,6075665,75747,1894903,0,0,0,46,71,27,80,61,97,134,70,103,65,45,52,0,,
2,1786986975760,717,1584,8911,557109,-67195,125838,0,0,0,91,71,104,117,49,108,436,459,150,374,445,54,0,,
1,1786986975776,-7982,1134,23359,6515488,254119,2177123,0,0,0,32,48,12,57,44,56,143,76,63,68,41,15,0,,
2,1786986975776,1555,1579,9676,470366,-57421,86742,0,0,0,113,75,115,140,52,97,466,466,121,385,447,47,0,,
1,1786986975792,-8131,1785,21828,6877120,277332,2478891,0,0,0,18,30,10,28,26,41,106,90,48,46,59,11,0,,
2,1786986975792,1675,1641,10203,354301,-112399,87964,0,0,0,117,85,150,133,69,123,471,471,158,394,446,57,0,,
1,1786986975808,-8102,2498,18458,6902777,125838,2725680,0,0,0,10,23,2,23,27,20,111,111,51,43,80,6,0,,
2,1786986975808,1373,1722,10150,298102,-102625,65973,0,0,0,158,107,158,176,101,131,471,471,171,405,439,58,0,,
1,1786986975824,-7676,4848,12902,6372546,136833,2872288,0,0,0,9,24,0,29,34,31,121,122,65,49,90,6,0,,
2,1786986975824,1354,1713,9954,302989,-50090,15882,0,0,0,180,124,214,188,97,142,485,485,178,399,442,34,0,,
1,1786986975840,-6867,9164,8935,5045746,395840,2736676,0,0,0,13,29,4,33,34,35,129,119,57,58,90,5,0,,
2,1786986975840,1392,1751,9940,311541,-13439,-15882,0,0,0,153,125,160,196,113,148,484,483,226,405,434,49,0,,
1,1786986975856,-4852,13902,8595,1919338,816115,1668883,0,0,0,16,29,4,33,34,34,113,116,47,56,92,3,0,,
2,1786986975856,1373,1861,10064,340862,18325,-28099,0,0,0,143,108,218,201,125,193,480,466,287,408,402,65,0,,
1,1786986975872,-3484,13615,8399,-1347568,1357342,229685,0,0,0,13,27,2,33,33,36,120,118,55,59,92,5,0,,
2,1786986975872,1383,1832,10083,400727,59864,-40317,0,0,0,156,120,170,198,126,200,462,441,250,388,370,48,0,,
1,1786986975888,-4446,7652,6049,-3378084,1773952,-829554,0,0,0,20,34,3,34,32,32,128,127,62,60,92,3,0,,
2,1786986975888,1459,1689,9959,444709,83077,-50090,0,0,0,176,127,213,215,121,229,451,394,248,368,345,52,0,,
1,1786986975904,-6092,4005,3445,-3148399,1309695,-536339,0,0,0,10,29,0,34,35,34,121,121,62,61,102,6,0,,
2,1786986975904,1579,1483,9753,443488,69638,-54977,0,0,0,156,116,234,221,122,232,443,356,265,361,312,71,0,,
1,1786986975920,-5829,3503,2818,-2811201,570548,-65973,0,0,0,14,30,3,37,40,44,119,122,69,64,111,8,0,,
2,1786986975920,1603,1383,9667,392175,31764,-61086,0,0,0,166,124,207,213,130,246,443,319,286,369,296,76,0,,
1,1786986975936,-3900,5163,4359,-3021339,237015,-51312,0,0,0,16,31,12,37,37,60,125,125,80,65,115,18,0,,
2,1786986975936,1574,1354,9696,343306,7330,-72082,0,0,0,186,129,223,221,132,242,446,295,286,365,273,67,0,,
1,1786986975952,-3340,6211,5958,-3748269,452040,-613308,0,0,0,19,32,12,42,34,49,141,118,71,77,112,9,0,,
2,1786986975952,1584,1349,9763,311541,-4886,-81855,0,0,0,185,141,229,223,149,237,444,281,265,353,252,59,0,,
1,1786986975968,-5278,5685,6733,-4547280,370184,-1251052,0,0,0,14,44,4,39,41,38,138,123,62,77,116,7,0,,
2,1786986975968,1584,1340,9782,302989,-15882,-86742,0,0,0,175,144,220,224,164,232,439,264,257,340,237,63,0,,
1,1786986975984,-6369,4589,7614,-5117828,-219911,-1573588,0,0,0,14,55,2,35,47,38,129,127,61,75,120,11,0,,
2,1786986975984,1574,1330,9830,307876,-25656,-91629,0,0,0,174,126,237,232,136,223,434,235,268,322,212,75,0,,
1,1786986976000,-5704,3134,8987,-5480682,-930958,-1626123,0,0,0,18,59,2,36,49,38,126,127,60,74,119,9,0,,
2,1786986976000,1598,1311,9882,323758,-37873,-90408,0,0,0,169,110,261,231,88,236,427,197,285,305,176,88,0,,
1,1786986976016,-4527,1909,10528,-5643173,-1175304,-1456302,0,0,0,19,60,2,35,50,37,124,130,59,69,117,8,0,,
2,1786986976016,1641,1225,9839,337197,-64751,-84299,0,0,0,163,105,301,228,83,259,429,178,322,290,157,100,0,,
1,1786986976032,-3761,1225,12103,-5710368,-1219287,-1143539,0,0,0,19,61,4,35,48,36,126,131,63,67,118,10,0,,
2,1786986976032,1641,1119,9777,338419,-106290,-76969,0,0,0,159,118,291,215,87,239,429,177,325,266,151,98,0,,
1,1786986976048,-3340,971,13965,-5722585,-1200961,-686612,0,0,0,15,61,0,36,51,35,127,140,63,68,121,9,0,,
2,1786986976048,1598,1043,9772,327423,-145385,-73303,0,0,0,173,120,286,228,102,250,429,161,335,249,135,95,0,,
1,1786986976064,-3101,789,15764,-5743354,-1231504,-276111,0,0,0,12,62,0,37,53,38,122,147,63,65,126,8,0,,
2,1786986976064,1564,1019,9834,322536,-166155,-73303,0,0,0,173,118,270,244,116,267,426,162,335,248,151,110,0,,
1,1786986976080,-2818,454,17458,-5755572,-1280373,-13439,0,0,0,14,61,0,38,50,38,126,135,66,76,125,9,0,,
2,1786986976080,1550,995,9935,333532,-177150,-80634,0,0,0,181,128,292,261,128,300,424,150,332,240,160,112,0,,
1,1786986976096,-2699,-134,18765,-5671272,-1326799,-91629,0,0,0,16,59,0,49,50,34,142,135,61,78,110,1,0,,
2,1786986976096,1536,957,10007,359188,-177150,-94073,0,0,0,186,125,261,309,130,286,421,152,311,228,144,114,0,,
1,1786986976112,-3235,-1086,19923,-5384166,-1436755,-604756,0,0,0,10,60,1,41,55,39,127,135,64,74,114,14,0,,
2,1786986976112,1531,914,10031,394618,-166155,-108734,0,0,0,180,144,252,311,131,288,421,128,323,223,117,119,0,,
1,1786986976128,-4178,-2522,21301,-4924795,-1688431,-1312138,0,0,0,17,61,6,40,54,40,127,134,65,74,112,10,0,,
2,1786986976128,1550,871,10054,441044,-147829,-130725,0,0,0,178,145,266,277,121,296,422,107,346,211,100,119,0,,
1,1786986976144,-4551,-4594,23081,-4504520,-2032959,-1828930,0,0,0,18,60,3,39,54,39,132,134,66,76,107,7,0,,
2,1786986976144,1598,823,10059,489913,-123394,-161268,0,0,0,176,143,278,268,123,309,423,85,368,226,84,134,0,,
1,1786986976160,-4000,-8111,24359,-4409225,-2100154,-1958433,0,0,0,23,49,6,46,44,42,150,130,65,90,100,8,0,,
2,1786986976160,1655,727,10088,549778,-96516,-206472,0,0,0,180,155,279,263,148,325,428,75,396,202,80,136,0,,
1,1786986976176,-3862,-12883,23828,-4495968,-1903456,-1733635,0,0,0,26,39,9,49,36,39,154,126,69,96,98,11,0,,
2,1786986976176,1770,636,10203,609643,-70860,-256563,0,0,0,184,171,262,273,177,344,434,92,409,170,79,128,0,,
1,1786986976192,-3239,-18793,20813,-4378682,-1656666,-1038470,0,0,0,28,36,10,50,35,39,155,123,74,97,99,13,0,,
2,1786986976192,1737,583,10624,709825,-36651,-322536,0,0,0,190,178,204,299,179,344,430,102,391,161,75,124,0,,
1,1786986976208,-693,-22847,17535,-3624874,-1602910,-257785,0,0,0,25,37,9,49,39,44,155,125,72,97,101,14,0,,
2,1786986976208,1378,579,11160,933402,-6108,-354301,0,0,0,196,187,130,328,169,324,413,85,374,151,68,118,0,,
1,1786986976224,3560,-25139,15348,-2320066,-1409876,362853,0,0,0,21,40,7,47,38,45,152,128,70,95,104,11,0,,
2,1786986976224,1215,512,11447,1204626,14660,-346971,0,0,0,190,205,98,367,185,314,388,80,375,163,57,127,0,,
1,1786986976240,7284,-26934,14051,-1026253,-791681,736703,0,0,0,19,33,7,44,32,40,160,130,64,104,107,5,0,,
2,1786986976240,1354,349,11686,1481959,48869,-332310,0,0,0,193,229,80,362,216,293,346,90,359,178,63,139,0,,
1,1786986976256,9164,-27973,14367,-26878,172263,801455,0,0,0,21,25,4,42,27,34,188,155,54,119,132,4,0,,
2,1786986976256,1689,215,12218,1806939,67195,-354301,0,0,0,174,249,76,361,215,321,247,83,327,135,52,123,0,,
1,1786986976272,7441,-21540,15467,1418429,1988977,544891,0,0,0,26,28,0,42,31,31,217,230,45,125,204,5,0,,
2,1786986976272,1990,129,12873,2166128,18325,-401949,0,0,0,158,211,82,357,247,358,217,70,329,130,54,131,0,,
1,1786986976288,531,-2206,14300,2814867,3327993,235793,0,0,0,26,31,1,44,36,33,243,336,37,138,300,1,0,,
2,1786986976288,2268,38,13625,2631607,-80634,-485026,0,0,0,162,217,67,336,235,335,172,125,352,106,99,119,0,,
1,1786986976304,-4493,12864,13237,3347541,2945592,0,0,0,0,28,26,0,57,35,54,287,385,39,183,369,5,0,,
2,1786986976304,2512,-47,14505,3169168,-158824,-601091,0,0,0,169,228,71,308,267,329,167,115,316,93,83,128,0,,
1,1786986976320,-1670,6513,16740,3837455,1572367,56199,0,0,0,22,23,1,52,38,51,301,391,47,174,370,12,0,,
2,1786986976320,3058,-71,15841,3827681,-222354,-761138,0,0,0,145,197,63,273,197,275,185,95,256,77,43,80,0,,
1,1786986976336,804,-435,20440,3948632,552222,282219,0,0,0,22,20,7,61,37,55,339,396,38,220,374,9,0,,
2,1786986976336,4359,-23,18104,4689001,-288328,-1018923,0,0,0,127,205,62,268,176,248,179,70,244,63,24,49,0,,
1,1786986976352,-268,-1249,18822,3028669,185703,496022,0,0,0,44,27,3,61,27,34,376,402,38,275,374,2,0,,
2,1786986976352,5876,-263,20574,5552765,-364075,-1336573,0,0,0,107,187,67,242,177,230,154,57,249,42,16,48,0,,
1,1786986976368,-2904,1713,12471,1963320,26878,404392,0,0,0,49,33,6,67,29,39,390,409,41,289,386,2,0,,
2,1786986976368,6441,-244,22904,6293133,-423940,-1681101,0,0,0,80,144,50,179,133,173,131,50,187,38,18,41,0,,
1,1786986976384,-3608,2392,8068,1662775,67195,69638,0,0,0,53,26,4,68,27,42,420,423,52,354,402,0,0,,
2,1786986976384,5522,-38,24206,6891781,-441044,-1960877,0,0,0,62,92,32,116,72,114,112,58,107,39,27,29,0,,
1,1786986976400,-3125,713,8346,1467298,324980,-131946,0,0,0,73,54,27,62,22,62,437,437,83,393,417,13,0,,
2,1786986976400,4852,-698,23976,7319387,-184481,-2085493,0,0,0,54,58,24,82,46,75,109,68,68,53,41,20,0,,
1,1786986976416,-2325,-335,11021,851546,491135,-141720,0,0,0,83,53,22,70,25,53,444,444,65,421,426,8,0,,
2,1786986976416,5719,-679,23637,7447668,603534,-2208888,0,0,0,41,53,11,67,43,46,129,77,54,77,63,7,0,,
1,1786986976432,-1732,258,11816,240680,417831,-111177,0,0,0,80,51,23,79,28,51,453,453,62,432,432,16,0,,
2,1786986976432,6192,2163,19717,7068932,979827,-2405587,0,0,0,33,45,10,57,43,49,134,111,63,58,85,7,0,,
1,1786986976448,-1579,1330,10835,-47647,208915,-70860,0,0,0,85,54,34,87,29,59,459,459,77,436,436,29,0,,
2,1786986976448,5053,9002,12122,5635842,45204,-2464230,0,0,0,33,48,18,54,46,43,127,115,65,58,87,15,0,,
1,1786986976464,-1775,1531,10203,-13439,96516,-37873,0,0,0,91,57,44,94,29,64,463,463,85,440,440,33,0,,
2,1786986976464,4254,14788,9590,2901609,-1176526,-1844813,0,0,0,27,46,13,58,49,46,128,119,59,59,86,8,0,,
1,1786986976480,-1818,1411,10299,68416,63529,-8552,0,0,0,91,66,46,94,29,62,464,464,87,441,441,32,0,,
2,1786986976480,4613,15060,10543,-860098,-2051285,-460592,0,0,0,30,44,8,56,49,45,130,113,57,67,91,10,0,,
1,1786986976496,-1804,1421,10251,131946,21991,13439,0,0,0,91,78,39,88,35,61,457,457,86,435,435,27,0,,
2,1786986976496,6087,8858,8260,-2765997,-2224771,364075,0,0,0,33,46,11,71,57,54,161,117,55,83,87,5,0,,
1,1786986976512,-1823,1474,9987,213802,-34208,37873,0,0,0,92,82,32,89,41,64,449,449,77,423,427,18,0,,
2,1786986976512,7351,4862,4723,-3235142,-1892460,371406,0,0,0,22,49,10,64,58,56,127,126,70,62,97,14,0,,
1,1786986976528,-1899,1363,9858,289550,-53756,53756,0,0,0,96,86,27,98,42,70,447,447,73,411,421,19,0,,
2,1786986976528,7150,4651,3091,-3342654,-1103222,7330,0,0,0,26,50,16,77,59,53,129,131,80,62,105,14,0,,
1,1786986976544,-1957,1206,9801,326202,-48869,64751,0,0,0,93,89,27,95,43,69,445,445,79,409,419,21,0,,
2,1786986976544,5312,5781,4364,-3844785,-459370,-35430,0,0,0,29,50,21,74,60,60,133,128,87,65,107,18,0,,
1,1786986976560,-1971,1081,9758,307876,-34208,69638,0,0,0,98,87,32,95,41,65,436,436,76,401,415,17,0,,
2,1786986976560,4225,6025,5738,-4373795,-189368,254119,0,0,0,22,49,20,63,61,62,134,132,95,59,108,20,0,,
1,1786986976576,-1947,1052,9734,266337,-21991,70860,0,0,0,99,95,30,93,46,68,430,430,85,376,406,11,0,,
2,1786986976576,4852,5326,6288,-4745201,43982,720820,0,0,0,16,46,17,55,59,59,129,135,95,68,118,27,0,,
1,1786986976592,-1885,1067,9710,234572,-21991,73303,0,0,0,100,97,30,93,47,67,422,422,75,340,391,15,0,,
2,1786986976592,5269,4580,7154,-4987103,668286,1119105,0,0,0,15,51,18,53,61,59,129,135,88,65,119,26,0,,
1,1786986976608,-1789,1072,9724,228463,-45204,79412,0,0,0,89,94,54,95,50,82,417,415,103,322,366,31,0,,
2,1786986976608,4790,4044,8561,-5183802,1150870,1468520,0,0,0,19,59,19,58,67,60,131,136,81,59,116,20,0,,
1,1786986976624,-1737,1052,9767,240680,-106290,85521,0,0,0,92,95,36,100,51,82,412,391,97,315,338,34,0,,
2,1786986976624,4201,3488,10256,-5408600,1370781,1825265,0,0,0,26,60,16,68,70,59,136,139,71,69,118,20,0,,
1,1786986976640,-1837,1033,9777,257785,-150272,86742,0,0,0,91,93,31,97,49,79,332,317,97,305,313,30,0,,
2,1786986976640,4388,3038,11385,-5607742,1404990,1937664,0,0,0,31,60,14,77,70,58,149,138,62,79,116,19,0,,
1,1786986976656,-2019,995,9724,265115,-135612,85521,0,0,0,88,90,37,94,48,80,377,349,110,285,312,24,0,,
2,1786986976656,4594,2474,13017,-5812993,1530828,1875356,0,0,0,36,62,16,86,69,62,159,133,63,87,114,19,0,,
1,1786986976672,-2053,909,9652,251676,-69638,84299,0,0,0,96,96,41,93,51,94,404,361,115,272,306,34,0,,
2,1786986976672,4417,1804,14821,-5918062,1671327,1615127,0,0,0,39,59,18,90,68,67,164,134,64,93,113,18,0,,
1,1786986976688,-1986,837,9638,230907,-18325,83077,0,0,0,99,96,40,98,54,94,400,341,112,290,289,34,0,,
2,1786986976688,3948,1373,16683,-5936388,1712866,1243721,0,0,0,23,64,16,64,73,63,140,139,62,69,114,10,0,,
1,1786986976704,-1895,808,9696,215024,0,79412,0,0,0,98,95,39,103,55,89,397,325,109,297,266,32,0,,
2,1786986976704,3316,1694,18750,-5969375,1728748,895528,0,0,0,30,64,13,62,72,58,150,139,62,74,120,10,0,,
1,1786986976720,-1823,818,9782,217468,-10995,78190,0,0,0,99,99,40,107,55,90,394,312,110,280,243,36,0,,
2,1786986976720,2392,2555,21143,-6093991,1751961,791681,0,0,0,34,68,16,62,68,53,153,140,61,78,120,10,0,,
1,1786986976736,-1804,799,9853,237015,-37873,80634,0,0,0,102,103,42,114,55,96,392,294,122,262,218,39,0,,
2,1786986976736,1823,2426,23306,-6177069,1682322,1112996,0,0,0,31,67,15,66,72,60,147,138,61,75,117,7,0,,
1,1786986976752,-1876,765,9877,268780,-63529,90408,0,0,0,102,115,48,124,60,114,392,275,156,242,193,47,0,,
2,1786986976752,2278,1167,25115,-6106208,1555262,1602910,0,0,0,27,64,12,67,69,63,150,140,67,75,115,11,0,,
1,1786986976768,-2033,727,9868,322536,-69638,113620,0,0,0,105,150,58,127,80,136,390,267,197,222,181,66,0,,
2,1786986976768,4048,-1981,26556,-5867971,1507615,2007303,0,0,0,27,62,12,63,68,59,148,141,67,73,114,14,0,,
1,1786986976784,-2091,693,9892,387288,-48869,147829,0,0,0,108,158,68,139,99,146,373,258,196,216,169,75,0,,
2,1786986976784,5876,-8619,26987,-5491678,1561371,1876578,0,0,0,27,58,22,64,62,64,149,134,75,78,105,25,0,,
1,1786986976800,-2091,646,9935,477696,-31764,191811,0,0,0,139,148,118,167,98,172,375,218,224,212,147,104,0,,
2,1786986976800,6015,-16946,25489,-4882034,1598023,1306029,0,0,0,30,56,30,69,59,72,156,128,80,89,100,30,0,,
1,1786986976816,-1995,588,10021,590095,-46425,229685,0,0,0,134,170,112,150,89,244,361,185,249,180,131,156,0,,
2,1786986976816,2110,-26063,21450,-3701843,1705535,335975,0,0,0,36,56,24,75,61,67,165,130,73,96,102,24,0,,
1,1786986976832,-1823,540,10327,739146,-119729,246789,0,0,0,137,191,114,165,108,245,341,162,231,155,128,145,0,,
2,1786986976832,-5632,-31418,17305,-2057394,1568701,-348193,0,0,0,37,57,13,78,64,60,169,136,69,94,103,21,0,,
1,1786986976848,-1818,483,10782,934623,-207694,240680,0,0,0,138,210,86,189,111,236,313,141,233,147,111,149,0,,
2,1786986976848,-9767,-33505,15257,-692721,878424,-527787,0,0,0,32,57,11,75,64,65,164,139,72,90,105,23,0,,
1,1786986976864,-2019,339,11083,1154535,-240680,223576,0,0,0,132,220,72,203,120,266,292,126,256,133,90,183,0,,
2,1786986976864,-8341,-32131,14587,460592,-153938,-565661,0,0,0,37,61,18,70,63,63,162,138,68,93,111,17,0,,
1,1786986976880,-2349,71,11342,1423316,-239459,227241,0,0,0,140,232,76,247,144,285,241,115,284,115,73,188,0,,
2,1786986976880,-3598,-24436,15123,1624901,-891863,-755029,0,0,0,35,59,16,59,63,52,161,164,61,112,157,14,0,,
1,1786986976896,-2833,-100,11873,1684766,-272445,293215,0,0,0,154,224,82,268,137,326,208,97,297,110,66,198,0,,
2,1786986976896,1655,-6317,17401,2605951,-1461189,-813672,0,0,0,22,29,4,46,51,37,179,266,48,182,254,13,0,,
1,1786986976912,-2971,-124,12797,1966986,-354301,443488,0,0,0,164,230,85,262,153,367,181,78,299,105,63,213,0,,
2,1786986976912,6896,19995,14376,2922379,-2291966,-482583,0,0,0,18,27,5,53,38,44,218,320,48,192,323,19,0,,
1,1786986976928,-2794,-81,13787,2366491,-379958,602313,0,0,0,151,230,80,257,160,362,175,68,294,104,52,213,0,,
2,1786986976928,5666,15812,9136,3367089,-2785545,-167377,0,0,0,34,26,10,78,37,52,250,384,62,212,378,10,0,,
1,1786986976944,-3129,-57,14625,2934596,-233350,696386,0,0,0,136,223,76,247,151,339,162,61,318,103,46,189,0,,
2,1786986976944,765,181,12663,4533841,-2218662,-42760,0,0,0,35,30,6,78,43,64,283,402,53,236,400,9,0,,
1,1786986976960,-4058,-100,15496,3589444,-84299,849102,0,0,0,126,210,78,220,148,330,154,74,326,88,55,151,0,,
2,1786986976960,-1746,-3043,19392,4630358,-1043357,-240680,0,0,0,37,22,1,90,51,75,298,426,56,310,427,12,0,,
1,1786986976976,-4862,-191,16994,4256508,-41538,1097113,0,0,0,107,174,76,190,129,290,173,93,280,70,55,112,0,,
2,1786986976976,-693,684,19004,4067140,-438601,-619417,0,0,0,35,25,14,83,42,77,320,436,81,335,446,27,0,,
1,1786986976992,-5833,-478,19631,4982216,-96516,1364672,0,0,0,95,139,72,160,96,218,166,77,248,60,48,77,0,,
2,1786986976992,1943,3015,14955,3488040,-227241,-775798,0,0,0,37,24,14,78,38,77,376,457,77,402,470,28,0,,
1,1786986977008,-7666,-765,22076,5710368,-130725,1678657,0,0,0,77,111,63,131,75,170,163,71,182,54,46,65,0,,
2,1786986977008,3780,1100,12816,2787988,-56199,-466701,0,0,0,60,45,23,87,45,71,412,468,67,452,485,28,0,,
1,1786986977024,-9480,-952,23359,6280916,-8552,2087937,0,0,0,41,73,59,79,47,139,105,83,136,35,54,61,0,,
2,1786986977024,3302,-1119,12873,1639562,-120951,-56199,0,0,0,64,62,44,87,55,84,402,486,84,462,509,34,0,,
1,1786986977040,-9327,-291,24311,6723182,215024,2564412,0,0,0,41,53,11,76,40,59,113,91,59,38,44,12,0,,
2,1786986977040,2220,-875,11739,548556,-260228,141720,0,0,0,69,70,51,96,62,94,397,504,86,456,527,32,0,,
1,1786986977056,-7135,1593,25077,6966307,643851,2867401,0,0,0,14,26,1,34,41,33,102,100,43,37,60,1,0,,
2,1786986977056,1541,780,10208,76969,-285884,96516,0,0,0,87,78,45,109,63,84,425,504,71,457,521,29,0,,
1,1786986977072,-7724,3493,21947,6998072,1167974,2906496,0,0,0,13,28,2,32,31,35,116,114,55,52,83,4,0,,
2,1786986977072,1641,1239,9882,91629,-164933,35430,0,0,0,89,80,49,106,60,76,455,496,77,463,508,39,0,,
1,1786986977088,-9250,5800,14204,6673091,1572367,2893057,0,0,0,20,29,3,39,30,33,136,129,58,67,84,8,0,,
2,1786986977088,1952,1052,10059,117286,-53756,32986,0,0,0,94,84,55,118,64,84,462,486,74,452,498,39,0,,
1,1786986977104,-9322,9380,9820,5458691,1644449,2645046,0,0,0,20,34,4,37,35,35,127,126,57,64,84,6,0,,
2,1786986977104,2067,1052,10059,107512,-30543,34208,0,0,0,85,75,46,118,72,86,462,482,72,453,491,35,0,,
1,1786986977120,-7255,14252,9432,2390926,1364672,1538158,0,0,0,16,32,7,33,34,44,120,124,59,55,81,6,0,,
2,1786986977120,1947,1229,9983,158824,-43982,7330,0,0,0,110,92,54,123,74,89,453,461,83,444,460,38,0,,
1,1786986977136,-4915,14749,9428,-1605353,1243721,-375071,0,0,0,16,33,5,35,40,40,119,124,60,55,84,8,0,,
2,1786986977136,1866,1282,9992,254119,-23212,-19547,0,0,0,107,84,61,142,74,107,445,445,94,432,439,25,0,,
1,1786986977152,-5532,9131,6590,-3198490,1347568,-1396437,0,0,0,18,33,2,35,39,37,120,126,64,58,86,8,0,,
2,1786986977152,1842,1191,9978,342084,21991,-39095,0,0,0,95,84,48,126,74,103,443,443,87,424,437,34,0,,
1,1786986977168,-6910,4426,3498,-3356093,1049466,-1466076,0,0,0,18,31,2,37,36,35,126,125,61,64,88,6,0,,
2,1786986977168,1895,1086,9853,379958,57421,-46425,0,0,0,105,84,70,115,68,102,423,417,112,395,429,47,0,,
1,1786986977184,-6963,3412,2603,-2924822,278554,-886976,0,0,0,19,31,3,38,31,34,135,124,57,71,92,6,0,,
2,1786986977184,1976,1009,9729,383623,61086,-54977,0,0,0,91,84,71,110,67,97,417,377,137,372,393,42,0,,
1,1786986977200,-5202,5001,4259,-3240029,-173485,-675616,0,0,0,23,34,3,40,29,34,146,124,61,79,92,6,0,,
2,1786986977200,2033,952,9667,373849,43982,-68416,0,0,0,87,87,49,112,77,92,405,343,122,381,340,35,0,,
1,1786986977216,-4168,6054,6010,-4045149,-155159,-886976,0,0,0,25,37,2,48,33,33,158,121,64,91,88,13,0,,
2,1786986977216,2053,875,9667,355523,21991,-78190,0,0,0,92,100,41,120,93,95,402,332,127,366,315,36,0,,
1,1786986977232,-4771,5522,7030,-4863709,-25656,-1241278,0,0,0,23,31,2,47,28,31,155,121,58,94,90,27,0,,
2,1786986977232,2081,804,9667,322536,-12217,-80634,0,0,0,96,110,42,128,100,105,390,312,123,357,306,33,0,,
1,1786986977248,-5532,4015,7767,-5312084,-334754,-1357342,0,0,0,25,29,2,48,27,33,160,122,66,91,89,2,0,,
2,1786986977248,2124,741,9648,277332,-70860,-74525,0,0,0,92,110,44,120,95,109,377,284,132,354,284,31,0,,
1,1786986977264,-5312,2871,8805,-5542991,-817337,-1301142,0,0,0,30,30,3,54,27,34,180,115,67,101,85,5,0,,
2,1786986977264,2105,698,9629,244346,-123394,-70860,0,0,0,95,107,47,122,88,103,377,271,149,339,268,37,0,,
1,1786986977280,-4321,2368,10418,-5744576,-1218065,-1188743,0,0,0,26,30,0,52,33,38,169,120,69,96,88,0,0,,
2,1786986977280,1990,670,9638,218689,-161268,-69638,0,0,0,106,112,50,143,87,105,381,266,147,329,264,44,0,,
1,1786986977296,-3584,2091,12514,-6019466,-1319468,-1100779,0,0,0,30,35,4,51,28,35,168,118,69,96,90,6,0,,
2,1786986977296,1895,655,9705,211359,-161268,-67195,0,0,0,110,123,61,153,91,118,385,253,154,331,249,47,0,,
1,1786986977312,-3651,1564,14367,-6203947,-1343903,-956614,0,0,0,26,35,5,51,30,37,168,122,69,95,87,3,0,,
2,1786986977312,1885,636,9786,218689,-139277,-61086,0,0,0,109,131,75,155,92,134,382,239,166,323,244,57,0,,
1,1786986977328,-3991,670,16362,-6234490,-1494176,-620639,0,0,0,27,34,6,52,31,38,166,120,65,97,87,0,0,,
2,1786986977328,1919,626,9863,240680,-119729,-57421,0,0,0,114,139,73,149,103,125,368,237,170,291,237,68,0,,
1,1786986977344,-3508,-28,18305,-6104987,-1679879,-299323,0,0,0,31,34,7,52,28,37,166,120,69,98,88,9,0,,
2,1786986977344,1966,626,9916,283441,-108734,-64751,0,0,0,119,163,66,148,122,131,366,234,192,288,235,64,0,,
1,1786986977360,-3297,-445,20062,-5929058,-1706757,-268780,0,0,0,27,32,2,50,26,34,169,123,70,94,88,5,0,,
2,1786986977360,1981,593,9930,333532,-100181,-79412,0,0,0,116,142,77,145,96,133,363,204,195,252,176,61,0,,
1,1786986977376,-4178,-789,21842,-5696929,-1710422,-610865,0,0,0,26,32,3,50,30,35,170,122,66,94,90,5,0,,
2,1786986977376,1957,531,9940,390953,-80634,-98960,0,0,0,116,138,138,152,95,178,370,155,240,231,158,97,0,,
1,1786986977392,-5656,-1627,24154,-5442809,-1975538,-1236391,0,0,0,25,30,3,48,28,35,180,118,65,89,82,3,0,,
2,1786986977392,1919,459,9949,447153,-47647,-117286,0,0,0,140,170,140,175,99,191,360,134,239,222,129,111,0,,
1,1786986977408,-5963,-4211,26580,-5321857,-2423913,-1871691,0,0,0,26,31,3,52,29,46,181,113,61,93,78,4,0,,
2,1786986977408,1923,416,10040,519235,0,-135612,0,0,0,143,199,148,172,147,201,333,140,233,190,117,114,0,,
1,1786986977424,-5814,-9437,28083,-5312084,-2682920,-2279749,0,0,0,29,31,2,55,31,49,176,109,62,103,81,7,0,,
2,1786986977424,1981,354,10184,609643,45204,-156381,0,0,0,150,198,128,213,134,206,346,116,247,185,97,108,0,,
1,1786986977440,-5747,-18042,26589,-5247332,-2538755,-2047620,0,0,0,28,31,0,52,30,38,175,110,71,105,84,7,0,,
2,1786986977440,2110,291,10390,712268,81855,-179594,0,0,0,143,202,109,222,164,214,334,118,254,160,89,103,0,,
1,1786986977456,-3383,-26800,21732,-4543615,-2406809,-1016479,0,0,0,28,34,0,52,31,39,172,113,78,99,85,6,0,,
2,1786986977456,2359,215,10705,844215,135612,-233350,0,0,0,147,207,97,225,183,248,301,124,281,140,86,120,0,,
1,1786986977472,2321,-32265,17382,-3303559,-2315179,68416,0,0,0,28,37,2,54,34,43,168,112,79,92,86,7,0,,
2,1786986977472,2349,114,11323,1040914,215024,-310319,0,0,0,164,213,99,221,161,274,256,110,309,134,75,149,0,,
1,1786986977488,8600,-34888,14917,-1776396,-1701870,805120,0,0,0,30,37,4,51,33,47,165,114,93,88,83,13,0,,
2,1786986977488,2139,-4,12146,1387885,306654,-375071,0,0,0,167,223,103,212,146,289,201,96,315,124,68,166,0,,
1,1786986977504,10002,-35271,14577,-320093,-448375,1026253,0,0,0,23,27,8,47,22,43,158,116,69,86,81,10,0,,
2,1786986977504,2273,-148,12754,1849699,366519,-411723,0,0,0,160,234,97,218,163,311,169,96,306,107,80,174,0,,
1,1786986977520,7958,-30227,16190,1058018,777020,957836,0,0,0,27,28,0,56,35,48,191,170,64,92,143,9,0,,
2,1786986977520,2747,-224,13242,2294409,377514,-477696,0,0,0,174,243,105,207,171,292,177,96,284,96,79,193,0,,
1,1786986977536,2306,-8135,17889,2488664,2326174,373849,0,0,0,44,52,9,25,19,20,203,280,46,124,245,9,0,,
2,1786986977536,3077,-263,13931,2770884,301767,-588874,0,0,0,192,220,98,221,155,297,160,94,276,99,73,182,0,,
1,1786986977552,-4527,17568,13850,3138625,3489262,-536339,0,0,0,27,18,0,40,30,35,260,346,46,167,323,10,0,,
2,1786986977552,3426,-306,14979,3324328,172263,-715934,0,0,0,189,228,84,265,167,272,183,82,283,123,66,141,0,,
1,1786986977568,-2665,12443,12438,3971845,2817310,-784350,0,0,0,23,19,0,59,27,45,338,391,46,269,382,5,0,,
2,1786986977568,4871,-315,16616,4042706,54977,-932180,0,0,0,192,197,87,264,120,255,184,58,243,88,34,89,0,,
1,1786986977584,2680,-1148,18985,4993212,1176526,-276111,0,0,0,23,12,0,65,26,47,397,413,41,315,399,0,0,,
2,1786986977584,6934,-215,19416,4946786,-120951,-1315803,0,0,0,144,181,60,220,119,193,170,64,203,53,16,47,0,,
1,1786986977600,1646,-2129,21201,4080579,238237,434936,0,0,0,30,14,2,73,32,44,423,425,37,335,408,3,0,,
2,1786986977600,7781,-76,22718,5831319,-426383,-1716531,0,0,0,100,148,43,181,127,162,153,62,166,48,24,32,0,,
1,1786986977616,-2569,583,17276,2724458,-147829,686612,0,0,0,45,33,4,69,27,42,435,435,38,383,422,9,0,,
2,1786986977616,8116,-38,25671,6741508,-635299,-2058615,0,0,0,70,92,36,129,85,133,118,52,124,43,28,38,0,,
1,1786986977632,-5671,1651,11404,1629788,-123394,251676,0,0,0,59,38,7,70,22,45,457,457,47,436,445,10,0,,
2,1786986977632,8064,-52,27173,7523416,-383623,-2329840,0,0,0,48,55,27,88,50,91,102,55,80,37,25,22,0,,
1,1786986977648,-4570,210,9279,1076344,81855,-221133,0,0,0,66,36,13,72,22,53,483,483,68,463,468,13,0,,
2,1786986977648,8308,1186,26925,7823961,368962,-2585181,0,0,0,34,50,17,59,45,57,114,75,59,48,50,12,0,,
1,1786986977664,-2991,47,9920,646295,249233,-230907,0,0,0,66,46,20,72,22,63,504,504,87,484,490,18,0,,
2,1786986977664,8399,3273,23464,7685906,988379,-2911383,0,0,0,34,44,18,52,41,46,131,86,55,68,75,16,0,,
1,1786986977680,-2459,708,10485,249233,327423,-120951,0,0,0,72,53,20,86,26,67,519,519,80,507,508,14,0,,
2,1786986977680,7355,7284,14797,6963863,621860,-3220481,0,0,0,37,38,18,57,37,47,139,94,61,79,90,18,0,,
1,1786986977696,-2636,1340,10380,65973,298102,-46425,0,0,0,90,55,18,101,33,65,522,522,61,512,514,5,0,,
2,1786986977696,5585,12964,9786,4908913,-756251,-3142290,0,0,0,34,31,15,59,36,51,140,95,66,84,90,12,0,,
1,1786986977712,-2565,1483,10107,59864,217468,-24434,0,0,0,99,59,24,102,33,69,517,517,58,513,514,10,0,,
2,1786986977712,4560,17257,9461,1486845,-1712866,-2348165,0,0,0,30,22,23,62,33,65,141,80,80,90,76,18,0,,
1,1786986977728,-2412,1483,10059,108734,144164,2443,0,0,0,94,60,22,96,33,66,509,509,50,502,504,4,0,,
2,1786986977728,4527,16032,9303,-2255314,-1955990,-1145983,0,0,0,28,29,29,58,32,81,138,81,114,91,79,33,0,,
1,1786986977744,-2330,1488,10117,168598,67195,34208,0,0,0,108,70,31,94,28,61,492,492,51,486,486,8,0,,
2,1786986977744,4752,9796,6680,-4157548,-1828930,-458148,0,0,0,28,28,22,57,35,68,144,81,110,91,81,27,0,,
1,1786986977760,-2402,1497,10035,232128,0,54977,0,0,0,107,69,29,91,34,70,467,467,74,453,453,16,0,,
2,1786986977760,5092,4848,3809,-4609589,-1554041,-332310,0,0,0,27,32,20,65,50,63,140,87,88,95,87,23,0,,
1,1786986977776,-2507,1450,9834,291993,-40317,65973,0,0,0,99,73,34,96,34,78,449,449,83,437,437,24,0,,
2,1786986977776,5628,4091,2818,-4433659,-988379,-469144,0,0,0,27,32,17,58,41,56,142,96,78,86,90,21,0,,
1,1786986977792,-2584,1301,9557,321315,-32986,68416,0,0,0,91,71,37,87,37,89,440,440,94,424,424,20,0,,
2,1786986977792,5546,5010,3833,-4682892,-147829,-368962,0,0,0,30,39,18,69,46,63,149,108,74,96,95,18,0,,
1,1786986977808,-2560,1143,9408,299323,-6108,68416,0,0,0,88,75,36,86,41,89,432,432,83,423,423,33,0,,
2,1786986977808,4771,5407,5518,-5106833,533896,-25656,0,0,0,30,37,16,63,38,63,147,95,74,94,87,18,0,,
1,1786986977824,-2507,1081,9404,240680,7330,70860,0,0,0,95,72,27,93,35,76,428,428,68,407,414,11,0,,
2,1786986977824,3953,4766,7236,-5485569,906524,575435,0,0,0,33,35,15,69,38,61,152,93,70,92,85,13,0,,
1,1786986977840,-2483,1110,9442,190589,18325,76969,0,0,0,96,74,30,95,37,77,424,424,72,393,410,14,0,,
2,1786986977840,4058,3780,8308,-5563760,1127657,1170417,0,0,0,29,37,19,68,39,65,155,90,80,101,85,21,0,,
1,1786986977856,-2426,1153,9523,163711,24434,80634,0,0,0,96,81,34,92,42,83,410,417,76,373,401,14,0,,
2,1786986977856,4173,3330,9447,-5544212,1406211,1615127,0,0,0,31,37,22,68,39,70,154,92,84,100,89,23,0,,
1,1786986977872,-2340,1139,9590,155159,14660,80634,0,0,0,95,86,35,92,45,87,399,413,79,362,387,20,0,,
2,1786986977872,3843,3374,11170,-5569869,1700648,1929112,0,0,0,31,39,23,64,39,70,148,93,85,93,92,20,0,,
1,1786986977888,-2311,1076,9585,149051,-7330,72082,0,0,0,93,87,36,93,48,89,397,412,83,354,377,21,0,,
2,1786986977888,3484,3283,13065,-5709146,1811826,2029294,0,0,0,30,41,23,62,42,73,142,93,84,89,94,19,0,,
1,1786986977904,-2359,1038,9547,130725,-26878,58643,0,0,0,89,89,31,95,51,98,393,411,83,348,371,17,0,,
2,1786986977904,3345,2900,15261,-5869193,1890017,1990198,0,0,0,33,42,24,63,44,74,142,95,82,87,95,20,0,,
1,1786986977920,-2392,1048,9542,116064,-35430,51312,0,0,0,83,91,28,99,55,117,387,403,85,353,367,25,0,,
2,1786986977920,3278,2244,17774,-6029239,1958433,1762957,0,0,0,33,43,25,63,43,70,145,97,82,85,95,19,0,,
1,1786986977936,-2392,1052,9629,128281,-45204,59864,0,0,0,80,96,41,99,61,129,389,382,99,361,356,39,0,,
2,1786986977936,3015,1789,20119,-6142860,1949881,1516167,0,0,0,28,41,19,65,47,72,147,99,78,85,96,19,0,,
1,1786986977952,-2383,1028,9724,158824,-63529,80634,0,0,0,79,93,44,100,70,129,395,362,97,348,340,42,0,,
2,1786986977952,2847,1684,22947,-6175847,1854586,1463633,0,0,0,28,36,18,63,47,70,147,99,78,90,95,19,0,,
1,1786986977968,-2383,981,9710,186924,-85521,100181,0,0,0,86,102,33,117,82,122,398,359,95,330,327,35,0,,
2,1786986977968,2766,1191,26422,-6124534,1786169,1769065,0,0,0,30,41,19,66,42,72,151,101,83,94,100,21,0,,
1,1786986977984,-2440,952,9667,216246,-98960,116064,0,0,0,90,127,40,121,75,136,401,336,111,325,297,40,0,,
2,1786986977984,2909,-1588,29293,-6001140,1747074,2455678,0,0,0,32,40,19,66,41,62,145,95,70,101,99,23,0,,
1,1786986978000,-2593,918,9624,254119,-83077,134390,0,0,0,102,151,48,136,112,165,399,326,131,293,278,62,0,,
2,1786986978000,3761,-7542,30863,-5772676,1665218,3045774,0,0,0,35,39,24,69,41,62,159,104,70,101,95,15,0,,
1,1786986978016,-2670,894,9672,301767,-21991,166155,0,0,0,122,161,63,142,108,173,397,290,146,292,237,60,0,,
2,1786986978016,5819,-17195,28662,-5310862,1339016,2928487,0,0,0,43,41,19,75,35,62,174,101,70,109,95,18,0,,
1,1786986978032,-2593,894,9796,360410,21991,193033,0,0,0,134,171,59,160,100,160,390,254,146,273,209,60,0,,
2,1786986978032,7307,-28600,21780,-4372573,1073901,1754404,0,0,0,38,40,22,74,39,68,164,102,75,104,99,18,0,,
1,1786986978048,-2493,909,9983,453262,41538,206472,0,0,0,134,154,79,173,87,210,386,189,181,252,138,93,0,,
2,1786986978048,-191,-35185,15654,-2658485,1544267,-237015,0,0,0,37,40,23,68,40,72,159,104,79,102,102,21,0,,
1,1786986978064,-2507,933,10179,582765,32986,204028,0,0,0,127,209,76,183,103,213,379,175,215,211,124,103,0,,
2,1786986978064,-10571,-35209,15223,-1117883,1262047,-1308473,0,0,0,41,44,26,68,38,71,162,105,82,102,104,23,0,,
1,1786986978080,-2488,856,10418,775798,-6108,201585,0,0,0,139,209,74,199,115,214,338,139,218,167,106,107,0,,
2,1786986978080,-11064,-32644,15529,151494,-387288,-1221730,0,0,0,39,46,21,67,47,68,156,121,73,100,116,20,0,,
1,1786986978096,-2531,674,10734,992045,-81855,206472,0,0,0,129,204,69,208,148,252,260,117,242,168,94,127,0,,
2,1786986978096,-3479,-26566,15429,1463633,-1729970,-1062905,0,0,0,27,35,9,56,52,51,160,178,61,109,165,15,0,,
1,1786986978112,-3005,550,11265,1224173,-155159,246789,0,0,0,117,215,64,220,181,299,212,96,267,156,76,158,0,,
2,1786986978112,5025,-8001,16812,2689028,-2552194,-1125213,0,0,0,20,24,3,46,48,45,178,247,51,131,230,10,0,,
1,1786986978128,-3354,536,12289,1591914,-111177,370184,0,0,0,116,236,63,215,185,322,190,81,274,134,75,183,0,,
2,1786986978128,8111,13318,12888,3222925,-3376863,-831998,0,0,0,20,25,7,50,46,63,167,289,61,158,305,18,0,,
1,1786986978144,-3326,421,13553,2047620,-15882,504574,0,0,0,117,263,63,202,178,342,169,85,279,121,91,199,0,,
2,1786986978144,4986,11112,10246,3723834,-3121521,-208915,0,0,0,19,25,11,56,47,66,174,330,80,198,378,30,0,,
1,1786986978160,-3575,492,14735,2608394,34208,659734,0,0,0,115,263,66,197,167,356,153,82,270,106,89,192,0,,
2,1786986978160,-1148,-646,15051,4389677,-1425759,305432,0,0,0,28,31,12,65,50,56,266,400,63,253,393,18,0,,
1,1786986978176,-4216,622,15424,3221703,147829,840550,0,0,0,108,241,66,192,138,314,146,74,247,95,72,149,0,,
2,1786986978176,-3354,-2110,20143,4130670,13439,-23212,0,0,0,34,39,16,65,52,55,283,407,75,297,406,25,0,,
1,1786986978192,-5125,693,16692,3900985,310319,1060462,0,0,0,116,221,58,204,137,235,151,81,248,81,42,95,0,,
2,1786986978192,-780,1091,18889,3309667,403171,-691499,0,0,0,36,44,19,66,51,55,321,427,67,320,425,25,0,,
1,1786986978208,-6848,827,18913,4702440,532674,1368338,0,0,0,83,167,62,167,121,212,146,76,199,79,36,76,0,,
2,1786986978208,3005,2297,13725,2359161,354301,-824668,0,0,0,57,47,77,76,48,95,363,429,85,380,423,43,0,,
1,1786986978224,-9432,244,21182,5508782,812450,1832595,0,0,0,72,110,59,109,71,159,125,65,155,43,28,47,0,,
2,1786986978224,3096,473,11701,1633453,426383,-406836,0,0,0,68,69,77,90,55,90,402,449,85,420,447,38,0,,
1,1786986978240,-11442,-306,22962,6188064,970053,2398256,0,0,0,48,101,28,84,67,111,112,65,143,40,39,16,0,,
2,1786986978240,2737,-751,11103,799011,343306,-63529,0,0,0,84,71,60,111,53,87,412,455,76,439,456,37,0,,
1,1786986978256,-11093,1072,23953,6729291,992045,3023782,0,0,0,28,39,22,52,35,74,96,68,78,29,28,16,0,,
2,1786986978256,2488,0,10792,249233,86742,42760,0,0,0,94,79,72,109,54,83,413,462,86,449,467,44,0,,
1,1786986978272,-8231,3694,24690,6988298,1290147,3396410,0,0,0,23,31,2,30,34,35,92,109,45,51,67,3,0,,
2,1786986978272,2086,952,10136,76969,-51312,46425,0,0,0,105,91,62,118,59,84,423,468,88,467,476,37,0,,
1,1786986978288,-8714,4627,21751,6900333,2098932,3392745,0,0,0,10,28,3,28,34,32,110,117,54,57,100,8,0,,
2,1786986978288,1947,1210,9906,42760,-28099,42760,0,0,0,109,88,62,125,56,88,440,473,104,481,482,37,0,,
1,1786986978304,-11404,5977,13725,6514266,2415361,3392745,0,0,0,10,27,2,29,34,39,113,121,54,59,139,10,0,,
2,1786986978304,2110,1225,10007,58643,6108,41538,0,0,0,109,92,74,130,72,94,437,473,102,483,483,44,0,,
1,1786986978320,-12155,9791,7810,5364618,1737300,3384193,0,0,0,12,28,0,32,40,43,111,118,48,65,144,15,0,,
2,1786986978320,2215,1306,10069,113620,-28099,28099,0,0,0,106,97,86,131,83,104,422,470,96,482,482,50,0,,
1,1786986978336,-7686,15276,8729,2129476,830776,2224771,0,0,0,15,32,3,31,39,45,114,118,51,65,138,14,0,,
2,1786986978336,2033,1325,10016,191811,-59864,1221,0,0,0,100,93,79,133,79,106,415,464,96,471,468,48,0,,
1,1786986978352,-4259,15424,8911,-1222952,860098,162490,0,0,0,13,36,4,31,41,42,129,126,56,70,144,12,0,,x
2,1786986978352,1871,1320,10011,254119,-23212,-18325,0,0,0,98,94,60,135,77,97,403,452,89,449,443,40,0,,x
1,1786986978368,-5915,9332,5494,-3095865,1219287,-1720196,0,0,0,12,35,4,34,43,44,139,138,56,69,153,7,0,,
2,1786986978368,1856,1311,10007,323758,54977,-32986,0,0,0,97,99,64,125,74,96,371,437,89,424,417,39,0,,
1,1786986978384,-8365,4426,2316,-2882062,340862,-1784948,0,0,0,14,36,8,31,40,50,128,149,58,58,158,4,0,,
2,1786986978384,1933,1229,9834,388510,114842,-45204,0,0,0,91,93,64,120,65,100,360,415,108,388,370,45,0,,
1,1786986978400,-7193,3359,2158,-2604729,-579100,-1361007,0,0,0,16,46,10,29,42,48,115,163,61,55,167,10,0,,
2,1786986978400,1990,1110,9681,425162,152716,-62308,0,0,0,83,96,67,118,65,109,352,356,111,361,327,51,0,,
1,1786986978416,-4120,4560,4130,-2762332,-874759,-1120326,0,0,0,18,50,11,32,49,48,115,177,60,53,178,10,0,,
2,1786986978416,2000,1033,9672,430049,168598,-73303,0,0,0,85,103,92,102,60,161,328,328,168,344,301,98,0,,
1,1786986978432,-3795,5154,5522,-3324328,-552222,-1444085,0,0,0,15,41,8,31,48,48,117,175,61,56,179,11,0,,
2,1786986978432,2091,985,9691,430049,169820,-75747,0,0,0,77,95,92,116,63,168,342,312,177,331,261,82,0,,
1,1786986978448,-4493,5068,6446,-3864333,-500909,-1799608,0,0,0,12,41,0,32,48,48,117,168,65,56,176,8,0,,
2,1786986978448,2249,928,9662,426383,135612,-73303,0,0,0,85,94,105,107,61,167,326,305,177,320,265,95,0,,
1,1786986978464,-5082,4651,7422,-4356690,-791681,-2111150,0,0,0,10,41,0,32,46,48,119,163,64,57,176,4,0,,
2,1786986978464,2330,847,9585,414166,68416,-74525,0,0,0,86,102,100,110,84,189,335,271,191,303,249,91,0,,
1,1786986978480,-5082,4197,8758,-4795292,-1084896,-2357939,0,0,0,20,43,9,38,45,48,135,157,66,67,165,4,0,,
2,1786986978480,2254,732,9576,379958,-6108,-70860,0,0,0,87,93,90,129,69,195,354,254,197,295,217,84,0,,
1,1786986978496,-5259,3182,10346,-5216789,-1262047,-2474004,0,0,0,20,44,8,34,46,49,124,158,68,60,166,11,0,,
2,1786986978496,2201,665,9638,342084,-51312,-64751,0,0,0,88,101,98,131,66,201,351,232,203,294,199,94,0,,
1,1786986978512,-5494,1957,12069,-5533217,-1390329,-2349387,0,0,0,16,44,8,34,45,50,121,159,71,59,167,6,0,,
2,1786986978512,2187,622,9700,313984,-67195,-62308,0,0,0,92,113,106,130,74,221,345,209,228,297,193,106,0,,
1,1786986978528,-5661,1005,13921,-5694485,-1462411,-1965764,0,0,0,12,39,4,32,43,48,124,154,69,63,161,10,0,,
2,1786986978528,2187,579,9748,291993,-79412,-62308,0,0,0,99,133,115,132,102,232,344,192,244,299,187,115,0,,
1,1786986978544,-5652,311,16156,-5836206,-1546710,-1398881,0,0,0,14,38,5,33,44,45,125,155,69,63,163,8,0,,
2,1786986978544,2220,545,9767,278554,-95294,-62308,0,0,0,98,144,123,143,129,239,332,184,253,297,186,118,0,,
1,1786986978560,-5254,-287,18387,-5980370,-1627344,-911410,0,0,0,14,39,3,34,46,47,126,155,68,64,165,12,0,,
2,1786986978560,2234,545,9806,284663,-114842,-72082,0,0,0,100,143,123,153,139,240,318,178,261,284,183,113,0,,
1,1786986978576,-4900,-674,20244,-5998696,-1663996,-773355,0,0,0,14,40,5,36,47,50,126,152,68,64,159,11,0,,
2,1786986978576,2187,521,9873,311541,-120951,-89186,0,0,0,120,146,119,161,142,224,323,169,260,258,171,106,0,,
1,1786986978592,-5321,-1019,22225,-5787337,-1825265,-1033583,0,0,0,14,39,8,41,46,52,130,150,74,65,151,8,0,,
2,1786986978592,2120,483,9930,355523,-96516,-105068,0,0,0,141,150,129,181,132,225,332,158,267,237,157,112,0,,
1,1786986978608,-5714,-1962,24618,-5513669,-2171015,-1409876,0,0,0,14,39,8,38,46,53,127,154,79,63,152,11,0,,
2,1786986978608,2153,445,9978,420275,-53756,-124616,0,0,0,142,169,155,190,131,242,338,144,290,225,129,122,0,,
1,1786986978624,-5374,-4565,27618,-5269323,-2609616,-1762957,0,0,0,14,41,6,33,45,52,122,158,79,58,155,12,0,,
2,1786986978624,2273,382,10045,497244,-18325,-151494,0,0,0,145,211,143,166,159,242,332,128,304,219,121,130,0,,
1,1786986978640,-4761,-9830,28834,-5248554,-2582738,-1672549,0,0,0,15,49,4,36,46,49,126,157,78,61,147,9,0,,
2,1786986978640,2431,291,10169,590095,-3665,-194255,0,0,0,167,233,153,198,157,276,297,116,311,174,102,134,0,,
1,1786986978656,-3704,-17458,26920,-5202128,-2328618,-1084896,0,0,0,18,64,3,37,50,50,126,154,79,67,146,9,0,,
2,1786986978656,2550,272,10394,707381,-18325,-244346,0,0,0,203,232,146,227,182,298,265,105,323,148,83,165,0,,
1,1786986978672,808,-27250,21799,-4687779,-2204001,30543,0,0,0,21,51,2,41,46,49,133,145,76,73,146,11,0,,
2,1786986978672,2708,234,10667,883311,-52534,-307876,0,0,0,192,251,135,224,207,302,246,95,320,128,81,176,0,,
1,1786986978688,9384,-34572,17406,-3316998,-1870469,856433,0,0,0,24,54,4,43,41,49,131,149,82,73,150,16,0,,
2,1786986978688,2775,43,11007,1092227,-58643,-386066,0,0,0,191,288,111,219,263,299,206,134,329,122,118,191,0,,
1,1786986978704,14946,-38119,15410,-1775174,-963945,1115439,0,0,0,17,47,11,37,42,54,123,140,82,81,129,13,0,,
2,1786986978704,2660,-215,11806,1384220,25656,-476474,0,0,0,204,283,102,227,255,338,171,120,313,137,126,226,0,,
1,1786986978720,14453,-36175,15951,47647,692721,1005484,0,0,0,20,30,5,44,35,41,182,198,68,130,144,6,0,,
2,1786986978720,2890,-325,12878,1788613,136833,-576656,0,0,0,233,279,106,249,222,363,186,87,287,146,87,218,0,,
1,1786986978736,6350,-21440,18133,1672549,2544864,863763,0,0,0,21,29,0,26,30,29,138,226,50,120,210,1,0,,
2,1786986978736,3029,-148,14122,2263866,112399,-670730,0,0,0,240,272,111,289,198,357,202,96,265,147,86,204,0,,
1,1786986978752,-4163,6020,14682,2718350,3986506,656069,0,0,0,30,26,0,49,32,37,291,339,43,190,325,6,0,,
2,1786986978752,3359,-19,15204,2889392,-45204,-767246,0,0,0,227,233,105,289,186,320,187,101,255,134,80,185,0,,
1,1786986978768,-6374,13625,12007,3574783,3955963,298102,0,0,0,23,16,0,60,29,46,348,396,34,247,375,3,0,,
2,1786986978768,4379,-14,16534,3657861,-117286,-963945,0,0,0,201,197,97,261,170,282,168,86,245,100,58,142,0,,
1,1786986978784,-942,3024,16597,4702440,2310292,-1221,0,0,0,21,16,0,55,30,46,355,408,42,273,388,2,0,,
2,1786986978784,5771,272,18674,4532620,-141720,-1298699,0,0,0,170,198,91,226,142,242,172,72,231,66,38,91,0,,
1,1786986978800,1708,-1876,21981,4522846,785572,207694,0,0,0,19,19,0,58,34,58,376,415,54,295,394,9,0,,
2,1786986978800,6728,693,21488,5462356,-399505,-1642005,0,0,0,140,196,78,187,111,189,184,66,208,59,22,57,0,,
1,1786986978816,-1086,-502,20095,3214372,361632,522900,0,0,0,27,23,0,66,31,56,408,421,50,341,402,5,0,,
2,1786986978816,7374,971,24412,6477614,-676838,-1966986,0,0,0,102,123,51,169,85,155,157,57,155,52,23,32,0,,
1,1786986978832,-4766,1454,13098,1765400,398284,320093,0,0,0,40,25,1,74,30,57,429,429,54,382,412,2,0,,
2,1786986978832,7934,1517,26738,7414682,-602313,-2265088,0,0,0,65,63,38,127,53,100,122,53,96,50,25,23,0,,
1,1786986978848,-4005,674,9480,1181413,329867,-134390,0,0,0,53,30,7,81,33,65,440,440,67,411,425,11,0,,
2,1786986978848,7140,2742,27293,7898487,-87964,-2522873,0,0,0,44,46,28,61,41,61,107,71,60,50,51,21,0,,
1,1786986978864,-2517,-177,9217,720820,285884,-301767,0,0,0,63,47,11,87,41,64,450,450,77,437,437,22,0,,
2,1786986978864,6585,4158,26417,8093964,426383,-2770884,0,0,0,45,30,23,56,25,41,139,83,71,79,65,11,0,,
1,1786986978880,-1885,57,10681,285884,241902,-188146,0,0,0,66,58,10,91,51,68,462,462,94,443,443,21,0,,
2,1786986978880,7284,6561,19932,7731110,551000,-2966361,0,0,0,35,37,18,53,35,49,155,109,70,68,63,24,0,,
1,1786986978896,-2196,890,10729,-12217,175929,-84299,0,0,0,73,54,13,95,42,72,473,473,105,444,444,8,0,,
2,1786986978896,6676,11529,11950,6276029,32986,-3038443,0,0,0,24,31,39,51,34,59,133,98,92,66,63,32,0,,
1,1786986978912,-2325,1354,10279,-100181,107512,-46425,0,0,0,73,64,15,92,46,74,473,473,126,448,448,19,0,,
2,1786986978912,4436,17071,10131,3109304,-915076,-2438574,0,0,0,32,31,25,57,34,51,133,90,69,72,64,21,0,,
1,1786986978928,-2306,1464,10011,-25656,31764,-26878,0,0,0,75,61,19,93,49,67,471,471,117,449,449,30,0,,
2,1786986978928,3134,17798,11433,-1152091,-2087937,-1060462,0,0,0,33,32,22,54,35,47,134,96,78,69,69,21,0,,
1,1786986978944,-2306,1507,10112,92851,-18325,10995,0,0,0,84,61,23,101,49,72,462,462,123,440,440,11,0,,
2,1786986978944,4675,11414,9351,-4047593,-2956587,125838,0,0,0,30,31,18,60,37,52,138,97,78,69,71,21,0,,
1,1786986978960,-2282,1483,10155,211359,-57421,48869,0,0,0,71,66,23,94,52,92,453,453,123,436,436,16,0,,
2,1786986978960,6867,5441,4757,-4235739,-2794097,101403,0,0,0,31,34,20,65,41,62,146,98,79,76,73,23,0,,
1,1786986978976,-2301,1387,10016,294437,-94073,67195,0,0,0,72,66,21,106,52,97,441,441,108,420,424,8,0,,
2,1786986978976,7709,3642,2536,-4072027,-1991420,-256563,0,0,0,36,36,25,67,44,65,146,100,78,80,75,26,0,,
1,1786986978992,-2373,1239,9772,327423,-108734,70860,0,0,0,69,70,24,102,50,94,436,436,110,407,417,21,0,,
2,1786986978992,6752,4986,4044,-4448320,-1029918,-301767,0,0,0,37,37,30,67,42,65,139,100,78,77,74,29,0,,
1,1786986979008,-2431,1086,9566,306654,-91629,72082,0,0,0,68,72,29,94,47,92,433,433,111,383,410,12,0,,
2,1786986979008,5814,5762,6288,-5101946,-466701,100181,0,0,0,37,42,35,64,41,71,138,100,89,76,73,33,0,,
1,1786986979024,-2421,1024,9490,260228,-70860,76969,0,0,0,65,68,26,89,50,90,426,425,120,351,403,9,0,,
2,1786986979024,6216,4871,7614,-5605299,-226020,796568,0,0,0,40,39,30,63,43,71,139,100,88,81,74,30,0,,
1,1786986979040,-2397,1033,9509,210137,-58643,84299,0,0,0,61,73,23,86,50,87,422,408,128,332,396,16,0,,
2,1786986979040,7169,3177,8423,-5787337,309097,1512502,0,0,0,27,39,27,59,50,71,135,102,84,74,77,26,0,,
1,1786986979056,-2412,1067,9523,171042,-42760,86742,0,0,0,57,74,21,84,50,87,418,389,129,321,386,18,0,,
2,1786986979056,7212,2172,9676,-5831319,866206,2062281,0,0,0,30,40,26,43,39,64,135,98,81,75,75,25,0,,
1,1786986979072,-2392,1076,9538,150272,-24434,87964,0,0,0,57,75,19,85,51,86,415,383,127,313,380,16,0,,
2,1786986979072,6929,1722,11170,-5874080,1186300,2474004,0,0,0,31,44,17,66,49,60,142,103,73,84,81,32,0,,
1,1786986979088,-2321,1057,9566,134390,-13439,86742,0,0,0,57,91,20,81,53,82,411,392,128,302,378,16,0,,
2,1786986979088,7073,1253,12682,-5973040,1309695,2642603,0,0,0,31,44,15,68,49,62,142,104,72,75,77,19,0,,
1,1786986979104,-2297,1000,9562,114842,-18325,78190,0,0,0,57,100,22,78,57,76,406,402,134,310,377,22,0,,
2,1786986979104,7307,617,14419,-6054896,1422094,2563190,0,0,0,31,44,23,68,50,70,110,93,84,75,75,26,0,,
1,1786986979120,-2311,966,9547,91629,-21991,68416,0,0,0,65,82,23,89,53,70,413,409,134,336,380,31,0,,
2,1786986979120,7528,-62,16396,-6075665,1550375,2234545,0,0,0,30,40,17,72,52,71,139,100,77,79,76,17,0,,
1,1786986979136,-2316,966,9566,78190,-25656,62308,0,0,0,69,77,28,87,46,81,420,414,138,306,378,18,0,,
2,1786986979136,7532,-229,18434,-6046344,1688431,1843591,0,0,0,32,42,13,70,47,64,147,105,82,79,80,19,0,,
1,1786986979152,-2292,976,9629,79412,-39095,68416,0,0,0,81,78,35,91,43,97,415,383,153,298,364,16,0,,
2,1786986979152,7331,-33,20928,-6008470,1846034,1546710,0,0,0,32,42,13,71,48,62,149,107,81,88,85,22,0,,
1,1786986979168,-2287,957,9691,101403,-69638,89186,0,0,0,71,83,22,93,51,82,409,359,142,291,367,11,0,,
2,1786986979168,7130,67,23919,-5980370,1984090,1528384,0,0,0,34,40,13,74,48,65,151,104,74,87,82,19,0,,
1,1786986979184,-2340,947,9696,145385,-98960,117286,0,0,0,72,95,26,100,60,93,405,332,163,293,362,21,0,,
2,1786986979184,7341,-947,26680,-5951049,2095267,1799608,0,0,0,32,38,15,75,46,67,154,102,74,87,81,17,0,,
1,1786986979200,-2397,947,9696,210137,-112399,149051,0,0,0,73,100,43,94,56,124,404,298,191,286,306,34,0,,
2,1786986979200,6829,-4895,27456,-5799554,2459343,2222327,0,0,0,34,37,18,79,45,70,161,98,80,98,81,20,0,,
1,1786986979216,-2412,938,9763,288328,-113620,173485,0,0,0,73,108,41,115,67,152,400,267,195,275,278,34,0,,
2,1786986979216,4163,-11299,27877,-5363396,2900388,2466673,0,0,0,39,40,20,79,41,74,160,92,75,100,76,19,0,,
1,1786986979232,-2469,914,9801,387288,-107512,194255,0,0,0,74,121,53,117,77,174,396,226,234,265,209,61,0,,
2,1786986979232,842,-19707,26738,-4601036,2559525,2305405,0,0,0,35,48,19,71,34,72,158,91,69,96,79,17,0,,
1,1786986979248,-2584,928,9863,510683,-81855,205250,0,0,0,89,127,56,134,79,185,402,204,303,224,156,82,0,,
2,1786986979248,-205,-29796,20454,-3400075,1474628,1373225,0,0,0,38,51,17,71,30,68,183,89,70,103,76,12,0,,
1,1786986979264,-2699,928,10150,657290,-29321,208915,0,0,0,104,149,66,169,87,225,403,178,313,188,112,121,0,,
2,1786986979264,-1799,-36128,14759,-2097711,1034805,28099,0,0,0,40,48,17,79,31,71,186,86,71,108,73,11,0,,
1,1786986979280,-2713,866,10538,852767,14660,215024,0,0,0,115,180,79,189,107,257,372,138,315,157,95,147,0,,
2,1786986979280,-6336,-37027,13921,-668286,846659,-1143539,0,0,0,36,52,16,76,34,66,185,90,67,98,64,0,0,,
1,1786986979296,-2593,679,10878,1073901,-6108,227241,0,0,0,129,204,85,208,114,289,329,101,327,135,84,167,0,,
2,1786986979296,-9183,-33357,15491,768468,86742,-1556484,0,0,0,29,53,10,68,38,71,172,107,67,93,95,9,0,,
1,1786986979312,-2933,421,11538,1367116,-142942,285884,0,0,0,120,226,79,210,144,326,274,92,338,107,73,178,0,,
2,1786986979312,-5967,-23986,17664,2095267,-1154535,-1200961,0,0,0,29,37,12,66,52,55,185,219,60,152,201,9,0,,
1,1786986979328,-3311,406,12869,1762957,-318871,420275,0,0,0,110,249,72,212,182,354,210,92,345,81,64,185,0,,
2,1786986979328,3273,2632,17994,3006678,-2167349,-723264,0,0,0,23,29,8,44,44,43,173,297,52,186,332,13,0,,
1,1786986979344,-3503,512,14271,2326174,-445931,605978,0,0,0,127,240,77,238,163,364,183,72,352,83,52,203,0,,
2,1786986979344,7260,20641,13496,3098308,-2421469,-354301,0,0,0,20,37,8,44,44,43,202,372,45,201,384,10,0,,
1,1786986979360,-3273,531,14725,2871066,-449596,759916,0,0,0,131,195,80,237,144,350,184,65,347,91,50,202,0,,
2,1786986979360,3675,11950,11864,3740938,-2145358,-133168,0,0,0,36,45,13,54,46,51,254,407,51,274,414,12,0,,
1,1786986979376,-3498,502,15367,3539353,-434936,904080,0,0,0,135,187,76,220,165,326,167,83,308,78,50,182,0,,
2,1786986979376,-550,-981,20555,4504520,-1324355,-207694,0,0,0,52,54,18,70,54,57,251,395,55,343,435,17,0,,
1,1786986979392,-4560,650,16874,4278500,-300545,1054353,0,0,0,109,194,90,173,153,326,147,90,289,67,50,192,0,,
2,1786986979392,-268,-3010,23981,3655417,-597426,-417831,0,0,0,52,59,20,72,48,55,311,410,62,375,447,20,0,,
1,1786986979408,-6479,861,19387,5147150,35430,1281595,0,0,0,87,193,67,164,154,242,160,89,252,79,54,105,0,,
2,1786986979408,2249,1679,16826,2073276,-234572,-404392,0,0,0,69,65,47,75,41,60,406,446,77,380,459,32,0,,
1,1786986979424,-9260,564,22861,6063448,361632,1703092,0,0,0,69,113,55,140,90,185,133,78,178,48,33,60,0,,
2,1786986979424,2469,2713,10155,1417207,-79412,-184481,0,0,0,88,66,86,91,42,78,450,463,108,407,471,49,0,,
1,1786986979440,-11442,306,25537,6797708,491135,2246762,0,0,0,52,64,41,94,57,124,109,62,120,48,31,44,0,,
2,1786986979440,2421,1162,8542,1042136,-35430,-34208,0,0,0,91,68,93,103,46,87,470,470,121,452,481,58,0,,
1,1786986979456,-11328,425,26446,7291287,357967,2794097,0,0,0,20,51,14,39,55,68,86,82,101,39,49,20,0,,
2,1786986979456,2694,-157,10677,570548,-98960,52534,0,0,0,107,85,110,110,61,85,477,477,109,469,489,67,0,,
1,1786986979472,-9504,1981,26733,7718893,182037,3359758,0,0,0,26,40,4,43,36,37,97,135,54,34,89,8,0,,
2,1786986979472,2364,942,10849,172263,-136833,96516,0,0,0,124,100,177,113,71,95,481,481,148,472,490,84,0,,
1,1786986979488,-8887,5211,23431,7744549,331088,3662747,0,0,0,19,39,5,33,35,33,110,138,55,43,94,9,0,,
2,1786986979488,1952,1952,10069,45204,-86742,85521,0,0,0,134,98,123,127,64,82,482,482,139,466,486,43,0,,
1,1786986979504,-9069,9250,15482,7204544,763581,3602883,0,0,0,14,40,5,28,39,35,112,141,58,44,92,6,0,,
2,1786986979504,2000,2139,9676,145385,-7330,45204,0,0,0,133,92,148,121,53,99,482,482,143,462,486,52,0,,
1,1786986979520,-8513,12270,10504,5700594,908967,2968805,0,0,0,13,36,4,34,41,36,109,131,57,47,90,1,0,,
2,1786986979520,2177,1947,9920,251676,-10995,14660,0,0,0,149,95,233,146,45,128,470,470,181,463,468,87,0,,
1,1786986979536,-6188,15721,9289,2724458,802676,1422094,0,0,0,16,30,1,35,34,29,116,120,68,52,84,2,0,,
2,1786986979536,2148,1818,10064,333532,-18325,-10995,0,0,0,134,98,178,134,59,115,462,462,173,449,452,80,0,,
1,1786986979552,-3905,15888,9116,-1100779,941954,-889419,0,0,0,19,29,2,35,29,29,125,119,66,56,79,4,0,,
2,1786986979552,2005,1842,9964,384845,15882,-34208,0,0,0,138,111,161,130,71,121,458,458,165,421,440,62,0,,
1,1786986979568,-5240,10916,6724,-2934596,1230282,-2106263,0,0,0,20,30,6,39,32,35,131,121,54,60,82,4,0,,
2,1786986979568,2000,1828,9820,450818,83077,-58643,0,0,0,138,115,157,142,62,118,453,453,147,397,432,56,0,,
1,1786986979584,-7212,6317,4158,-3518583,1032362,-2195449,0,0,0,21,32,7,42,33,34,137,123,52,62,85,6,0,,
2,1786986979584,2038,1703,9729,508239,136833,-81855,0,0,0,148,116,147,154,58,118,446,435,166,379,423,61,0,,
1,1786986979600,-7078,4627,3412,-3472158,392175,-1481959,0,0,0,24,37,9,44,33,35,137,120,49,68,89,8,0,,
2,1786986979600,2124,1536,9667,524122,161268,-95294,0,0,0,151,128,149,149,92,115,435,382,193,360,398,56,0,,
1,1786986979616,-5029,4986,4560,-3751934,70860,-943175,0,0,0,20,40,8,38,39,35,126,129,49,65,92,7,0,,
2,1786986979616,2254,1430,9624,500909,149051,-102625,0,0,0,140,116,171,143,86,132,428,328,219,355,372,74,0,,
1,1786986979632,-4087,5417,6216,-4461759,364075,-885754,0,0,0,19,40,4,38,38,35,122,127,51,64,92,6,0,,
2,1786986979632,2364,1373,9600,472809,103847,-111177,0,0,0,141,104,174,155,66,141,421,296,209,344,355,81,0,,
1,1786986979648,-4709,5025,7336,-5136154,570548,-932180,0,0,0,21,40,10,38,38,35,125,121,50,72,95,13,0,,
2,1786986979648,2412,1330,9600,455705,39095,-122173,0,0,0,150,115,164,165,69,131,412,272,183,324,329,67,0,,
1,1786986979664,-5604,3977,8207,-5593082,299323,-897971,0,0,0,14,38,3,36,36,38,125,124,54,73,100,12,0,,
2,1786986979664,2412,1253,9614,445931,-24434,-130725,0,0,0,153,123,175,168,62,130,408,243,191,311,296,67,0,,
1,1786986979680,-5642,2952,9451,-5903401,-235793,-833220,0,0,0,18,38,5,35,36,39,132,124,55,89,103,11,0,,
2,1786986979680,2306,1153,9624,426383,-75747,-130725,0,0,0,166,115,177,195,66,130,408,219,195,294,275,56,0,,
1,1786986979696,-5154,2249,11083,-6113539,-684169,-834441,0,0,0,21,39,6,38,36,41,134,124,54,88,104,12,0,,
2,1786986979696,2187,1067,9633,406836,-102625,-120951,0,0,0,147,115,201,169,58,164,412,216,245,279,224,69,0,,
1,1786986979712,-5068,1474,12873,-6305350,-945619,-849102,0,0,0,21,38,4,42,30,42,142,122,54,92,104,13,0,,
2,1786986979712,2182,1000,9657,389732,-103847,-109955,0,0,0,147,140,188,166,83,168,412,209,269,279,223,81,0,,
1,1786986979728,-5321,502,14582,-6344446,-1171639,-711047,0,0,0,23,38,4,43,34,39,141,127,55,91,103,15,0,,
2,1786986979728,2234,947,9672,376292,-114842,-105068,0,0,0,154,160,181,199,110,187,407,229,203,255,233,76,0,,
1,1786986979744,-5216,-124,16223,-6247929,-1426981,-472809,0,0,0,28,40,8,47,40,43,145,132,55,84,102,13,0,,
2,1786986979744,2254,894,9710,370184,-131946,-108734,0,0,0,161,153,229,206,84,260,407,185,279,258,185,103,0,,
1,1786986979760,-4599,-411,18243,-6074443,-1659109,-243124,0,0,0,28,41,9,48,39,41,144,135,55,81,101,11,0,,
2,1786986979760,2297,885,9801,383623,-142942,-122173,0,0,0,182,151,224,228,90,263,407,158,263,249,162,90,0,,
1,1786986979776,-4316,-708,20459,-5881410,-1751961,-328645,0,0,0,25,45,5,48,38,41,143,133,57,79,97,11,0,,
2,1786986979776,2335,885,9920,434936,-146607,-149051,0,0,0,193,138,205,229,84,239,403,128,261,243,130,82,0,,
1,1786986979792,-4484,-1526,22804,-5613851,-1880243,-703716,0,0,0,25,47,5,48,40,43,143,129,58,79,97,11,0,,
2,1786986979792,2349,823,10016,519235,-145385,-189368,0,0,0,213,172,193,239,98,245,406,113,273,225,107,87,0,,
1,1786986979808,-4450,-3450,25465,-5264436,-2129476,-1276708,0,0,0,26,43,6,45,42,42,138,130,57,83,105,11,0,,
2,1786986979808,2359,708,10083,616973,-131946,-234572,0,0,0,200,226,172,254,126,258,411,115,284,208,104,87,0,,
1,1786986979824,-3402,-7829,28346,-5016425,-2327396,-1732413,0,0,0,20,42,2,42,42,39,136,135,61,83,109,8,0,,
2,1786986979824,2397,636,10222,730594,-117286,-284663,0,0,0,185,256,190,262,148,272,408,104,299,191,92,111,0,,
1,1786986979840,-2555,-14706,28915,-5062851,-2180788,-1762957,0,0,0,19,42,2,44,41,39,137,135,67,84,104,3,0,,
2,1786986979840,2435,579,10514,883311,-103847,-335975,0,0,0,192,246,233,261,150,297,387,88,329,170,78,141,0,,
1,1786986979856,-2134,-23708,25345,-5126381,-1864360,-1148426,0,0,0,17,44,1,43,41,39,137,134,70,87,101,4,0,,
2,1786986979856,2412,526,10949,1086118,-85521,-377514,0,0,0,192,244,200,267,161,317,324,88,356,145,70,147,0,,
1,1786986979872,1789,-32108,19889,-4317595,-1849699,-103847,0,0,0,26,48,8,47,41,42,129,131,63,79,104,4,0,,
2,1786986979872,2278,402,11567,1401324,9773,-420275,0,0,0,180,256,117,292,182,327,252,82,362,135,64,144,0,,
1,1786986979888,7843,-37008,16109,-2829527,-1601688,715934,0,0,0,25,41,0,53,42,46,152,130,60,95,99,7,0,,
2,1786986979888,2029,229,12256,1754404,174707,-450818,0,0,0,191,236,111,308,195,346,217,74,370,140,71,159,0,,
1,1786986979904,12586,-38171,14883,-1076344,-768468,1078788,0,0,0,21,38,7,47,44,43,143,130,56,81,105,7,0,,
2,1786986979904,1904,105,12974,2168571,349414,-456927,0,0,0,192,266,98,305,253,355,169,92,378,124,83,193,0,,
1,1786986979920,13242,-35151,16147,448375,544891,995710,0,0,0,23,36,5,44,38,35,188,171,55,101,150,8,0,,
2,1786986979920,2541,-19,13586,2698802,408057,-480140,0,0,0,196,265,104,312,232,365,175,94,375,108,76,172,0,,
1,1786986979936,5264,-15951,16755,1935221,2425134,547335,0,0,0,19,14,0,46,24,26,237,251,55,127,201,1,0,,
2,1786986979936,3364,-181,14223,3238807,353080,-585208,0,0,0,206,251,122,281,249,372,164,123,343,84,90,176,0,,
1,1786986979952,-5326,11902,13003,3000570,3844785,36651,0,0,0,17,14,2,41,26,30,278,346,47,159,311,1,0,,
2,1786986979952,4273,-277,15218,3867998,211359,-789237,0,0,0,180,283,111,274,250,346,198,111,300,81,82,113,0,,
1,1786986979968,-6183,15477,11040,3650530,3518583,-315206,0,0,0,23,18,2,50,27,43,346,400,43,265,381,5,0,,
2,1786986979968,5470,-258,16539,4541172,75747,-1067792,0,0,0,216,267,138,268,240,320,162,98,362,63,52,101,0,,
1,1786986979984,904,2144,18626,4483750,1593136,-349414,0,0,0,31,23,2,58,26,52,398,418,46,330,403,9,0,,
2,1786986979984,6475,-445,18822,5285206,-47647,-1428202,0,0,0,154,253,135,191,223,296,141,99,284,63,45,86,0,,
1,1786986980000,3584,-2928,23799,4046371,61086,83077,0,0,0,41,26,4,67,28,54,419,424,47,335,405,8,0,,
2,1786986980000,7374,-1450,22703,6117204,-204028,-1769065,0,0,0,101,192,93,148,168,231,117,83,197,40,41,64,0,,
1,1786986980016,-765,-81,19372,2536312,-426383,643851,0,0,0,54,40,34,68,31,57,428,429,68,356,409,16,0,,
2,1786986980016,8427,-2211,26647,6833138,-127059,-2062281,0,0,0,66,121,39,114,91,151,113,53,144,39,18,57,0,,
1,1786986980032,-3972,1785,12251,1787391,-326202,400727,0,0,0,67,50,72,66,29,65,442,442,103,399,419,32,0,,
2,1786986980032,8068,-995,28872,7265631,-141720,-2329840,0,0,0,53,77,32,79,47,96,105,52,94,39,21,33,0,,
1,1786986980048,-4264,1119,8753,1318247,-196698,-12217,0,0,0,80,47,77,77,27,70,456,456,108,421,428,32,0,,
2,1786986980048,9231,2747,28087,7563733,76969,-2630385,0,0,0,56,49,21,60,39,65,106,83,67,42,54,14,0,,
1,1786986980064,-2938,-392,10059,829554,-52534,-190589,0,0,0,93,53,65,90,31,75,469,469,88,435,437,25,0,,
2,1786986980064,9676,6676,24436,7709119,530231,-3039665,0,0,0,45,37,9,58,41,54,122,103,64,55,75,13,0,,
1,1786986980080,-2502,229,10830,333532,57421,-119729,0,0,0,109,62,35,93,34,77,482,482,67,447,447,15,0,,
2,1786986980080,7934,9179,17214,7391469,-18325,-3375641,0,0,0,28,36,12,58,42,51,132,103,61,62,85,16,0,,
1,1786986980096,-2555,1124,10390,89186,114842,-46425,0,0,0,115,73,42,82,36,71,495,495,71,458,458,8,0,,
2,1786986980096,7432,13026,11921,5191132,-1491732,-3268129,0,0,0,27,38,15,53,46,52,124,105,58,61,94,14,0,,
1,1786986980112,-2608,1445,9887,80634,111177,-23212,0,0,0,110,80,67,78,37,96,494,494,105,459,459,25,0,,
2,1786986980112,7130,16520,10189,1232726,-2035402,-2623055,0,0,0,30,48,20,56,50,61,116,106,63,63,92,14,0,,
1,1786986980128,-2526,1435,10016,151494,89186,-2443,0,0,0,106,80,99,82,41,102,484,484,123,454,454,44,0,,
2,1786986980128,5431,14725,10212,-2707354,-1756848,-1651779,0,0,0,30,49,21,57,49,58,121,112,65,63,99,17,0,,
1,1786986980144,-2412,1402,10227,235793,58643,25656,0,0,0,107,87,76,91,49,86,469,469,107,443,443,34,0,,
2,1786986980144,3804,8633,7930,-4130670,-1899790,-879645,0,0,0,24,37,26,60,46,83,126,108,87,71,101,37,0,,
1,1786986980160,-2325,1387,10193,324980,0,56199,0,0,0,115,105,47,113,54,70,452,452,74,430,430,19,0,,
2,1786986980160,4508,5240,4661,-4128227,-2160019,-390953,0,0,0,21,40,23,53,55,86,120,120,80,70,118,30,0,,
1,1786986980176,-2349,1349,9935,401949,-70860,69638,0,0,0,109,108,42,96,53,75,435,435,75,394,401,18,0,,
2,1786986980176,6523,5561,3019,-4156327,-1683544,1221,0,0,0,24,38,25,60,47,87,127,102,83,83,107,34,0,,
1,1786986980192,-2426,1234,9834,452040,-112399,73303,0,0,0,105,103,49,94,56,84,425,420,90,358,382,30,0,,
2,1786986980192,7145,6508,3910,-4721988,-571769,503352,0,0,0,29,41,16,70,56,67,130,102,63,86,108,17,0,,
1,1786986980208,-2407,1225,11194,434936,-97738,73303,0,0,0,107,101,40,96,60,74,418,409,85,327,360,29,0,,
2,1786986980208,6302,6082,5939,-5320636,234572,1108109,0,0,0,25,42,11,69,55,65,134,109,66,76,106,11,0,,
1,1786986980224,-2340,1277,12232,360410,-53756,80634,0,0,0,109,99,38,96,59,66,411,391,84,323,328,23,0,,
2,1786986980224,5867,4895,7360,-5660277,613308,1623679,0,0,0,25,52,15,70,57,67,135,111,71,77,106,16,0,,
1,1786986980240,-2479,1057,10327,307876,-34208,85521,0,0,0,112,98,41,97,58,66,404,367,81,315,297,25,0,,
2,1786986980240,5709,3809,8475,-5794667,845437,1898569,0,0,0,24,54,17,67,61,70,131,113,73,77,107,18,0,,
1,1786986980256,-2584,890,9045,276111,-10995,91629,0,0,0,112,97,41,100,58,69,399,341,78,304,271,26,0,,
2,1786986980256,5427,3153,9825,-5908288,1012814,2026850,0,0,0,24,54,19,63,60,76,133,115,76,75,105,18,0,,
1,1786986980272,-2517,880,9231,255341,18325,97738,0,0,0,111,97,43,101,59,73,397,322,84,305,251,24,0,,
2,1786986980272,5393,2928,11294,-6034126,1073901,2015855,0,0,0,24,55,21,64,59,80,137,114,81,75,104,21,0,,
1,1786986980288,-2392,890,9648,234572,34208,94073,0,0,0,112,99,50,100,60,82,395,311,92,306,236,28,0,,
2,1786986980288,5862,2919,12859,-6188064,1187522,1837482,0,0,0,26,51,21,65,57,80,124,106,82,78,108,22,0,,
1,1786986980304,-2306,832,9624,208915,23212,80634,0,0,0,111,100,55,102,63,92,395,306,107,293,229,30,0,,
2,1786986980304,6140,2713,14773,-6334672,1395216,1562593,0,0,0,28,50,19,64,53,77,121,102,81,81,109,20,0,,
1,1786986980320,-2282,760,9557,194255,-2443,72082,0,0,0,112,103,58,103,57,95,395,293,139,278,231,40,0,,
2,1786986980320,6001,2230,17305,-6455623,1580919,1227839,0,0,0,29,53,18,68,56,74,144,111,82,81,107,19,0,,
1,1786986980336,-2325,717,9600,190589,-35430,76969,0,0,0,119,110,68,114,57,114,391,279,126,273,212,56,0,,
2,1786986980336,6006,1627,20196,-6533814,1665218,932180,0,0,0,26,51,17,70,58,73,144,113,81,80,107,19,0,,
1,1786986980352,-2412,708,9648,204028,-54977,100181,0,0,0,119,109,82,124,64,135,392,279,127,277,222,51,0,,
2,1786986980352,6489,1215,23881,-6588792,1824043,879645,0,0,0,26,49,16,70,60,79,142,115,78,77,105,22,0,,
1,1786986980368,-2479,684,9652,235793,-64751,135612,0,0,0,124,143,68,124,81,144,392,265,147,312,206,45,0,,
2,1786986980368,6585,-43,27504,-6632774,2147802,1286482,0,0,0,34,53,25,70,57,75,149,110,77,86,103,20,0,,
1,1786986980384,-2488,684,9710,290771,-69638,173485,0,0,0,138,163,85,158,87,160,387,222,154,271,149,51,0,,
2,1786986980384,5096,-5106,29930,-6438519,2765997,2216219,0,0,0,28,53,17,68,60,71,150,113,71,84,101,13,0,,
1,1786986980400,-2546,732,9849,376292,-76969,208915,0,0,0,154,171,80,190,91,187,389,201,189,246,132,60,0,,
2,1786986980400,2349,-12983,32045,-5946162,3134960,2968805,0,0,0,35,46,16,80,59,71,155,113,72,88,107,22,0,,
1,1786986980416,-2613,756,10031,535117,-94073,252898,0,0,0,145,175,79,199,97,201,386,178,193,211,119,68,0,,
2,1786986980416,559,-23752,31217,-5100724,2430021,3088534,0,0,0,31,52,16,70,62,71,121,102,70,90,107,21,0,,
1,1786986980432,-2584,650,10246,724486,-135612,290771,0,0,0,137,166,132,201,85,228,378,147,245,161,100,94,0,,
2,1786986980432,1679,-33663,24201,-3944967,1253495,2190562,0,0,0,27,63,14,65,70,68,141,132,71,90,138,20,0,,
1,1786986980448,-2646,588,10696,973719,-206472,315206,0,0,0,137,174,137,196,108,265,349,138,262,121,102,107,0,,
2,1786986980448,-909,-38717,16984,-2371378,1169196,445931,0,0,0,20,42,17,60,45,69,163,117,81,120,109,27,0,,
1,1786986980464,-2636,579,11256,1292590,-282219,338419,0,0,0,118,184,98,211,136,287,317,127,271,97,87,115,0,,
2,1786986980464,-7121,-40421,15855,-775798,1000597,-905302,0,0,0,24,26,10,58,32,54,180,152,71,149,129,25,0,,
1,1786986980480,-2349,512,11677,1696983,-344527,344527,0,0,0,104,191,87,218,147,322,259,96,321,93,67,169,0,,
2,1786986980480,-9930,-37477,20535,1298699,-829554,-1119105,0,0,0,20,22,3,51,35,42,183,243,61,150,203,18,0,,
1,1786986980496,-2129,220,12021,2108706,-395840,320093,0,0,0,106,222,92,219,161,367,195,78,355,98,66,219,0,,
2,1786986980496,-4288,-17559,19277,3517362,-3290120,-993266,0,0,0,18,24,3,53,41,47,200,338,65,158,307,16,0,,
1,1786986980512,-2833,-186,12993,2627942,-426383,312763,0,0,0,105,237,90,234,172,381,169,81,362,89,58,218,0,,
2,1786986980512,4321,8513,14783,4533841,-4370129,-774577,0,0,0,26,28,8,69,47,69,249,390,83,213,388,18,0,,
1,1786986980528,-4063,-268,14242,3120299,-432492,441044,0,0,0,100,218,93,238,176,372,158,81,375,73,52,211,0,,
2,1786986980528,3823,8820,16209,4658458,-2908940,-433714,0,0,0,22,25,12,71,46,84,289,404,98,276,403,21,0,,
1,1786986980544,-5192,47,15616,3693291,-263893,735481,0,0,0,107,218,86,225,177,357,156,78,369,76,69,194,0,,
2,1786986980544,-1268,-679,21622,4590041,-983493,-206472,0,0,0,19,24,11,68,40,70,313,414,93,315,415,25,0,,
1,1786986980560,-6341,291,17209,4331034,25656,1076344,0,0,0,121,168,80,233,114,296,218,77,347,72,31,129,0,,
2,1786986980560,-2565,-2680,21828,3800803,-239459,-431270,0,0,0,25,32,12,61,42,57,327,423,74,345,422,25,0,,
1,1786986980576,-7738,258,19813,5097059,311541,1469741,0,0,0,102,128,95,155,90,248,196,65,280,45,21,104,0,,
2,1786986980576,1143,1210,15529,2625498,-216246,-580321,0,0,0,34,41,9,69,47,67,363,433,71,353,432,24,0,,
1,1786986980592,-10064,-421,23029,5982814,513126,1946216,0,0,0,69,123,73,117,95,194,169,70,200,45,28,129,0,,
2,1786986980592,3340,1330,10543,1628566,-294437,-179594,0,0,0,69,57,21,102,51,80,414,456,72,429,458,25,0,,
1,1786986980608,-11677,-1899,25685,6706078,587652,2491108,0,0,0,37,74,44,78,67,136,116,63,117,51,30,58,0,,
2,1786986980608,2435,-335,9777,784350,-357967,158824,0,0,0,82,65,39,93,57,76,438,467,98,456,470,37,0,,
1,1786986980624,-11744,-1871,27786,7182553,453262,3015230,0,0,0,24,47,17,47,47,75,107,80,61,49,56,24,0,,
2,1786986980624,1153,-52,10973,218689,-357967,146607,0,0,0,81,104,51,83,60,102,461,476,127,478,479,52,0,,
1,1786986980640,-10605,1119,27657,7426899,-23212,3459940,0,0,0,16,30,8,40,35,39,105,86,50,38,53,7,0,,
2,1786986980640,885,1048,11007,-24434,-293215,73303,0,0,0,84,116,62,93,57,96,478,482,127,484,484,47,0,,
1,1786986980656,-9049,5259,22770,7506312,-57421,3736051,0,0,0,20,35,8,33,34,34,115,107,49,51,80,6,0,,
2,1786986980656,1172,1703,10351,-12217,-166155,43982,0,0,0,78,89,67,92,61,95,484,484,125,482,482,52,0,,
1,1786986980672,-7690,8456,15257,7175223,740368,3810577,0,0,0,17,35,5,29,35,37,115,117,51,46,96,5,0,,
2,1786986980672,1335,1631,10236,74525,-68416,47647,0,0,0,85,83,65,99,69,101,482,482,118,475,475,61,0,,
1,1786986980688,-8356,11375,10122,5707924,1650557,3381749,0,0,0,13,33,4,28,36,36,111,123,52,46,101,6,0,,
2,1786986980688,1296,1574,10256,162490,-10995,29321,0,0,0,81,94,63,99,78,102,465,471,116,464,464,56,0,,
1,1786986980704,-7700,15616,9782,2169793,1143539,1981646,0,0,0,12,29,1,35,33,35,116,120,52,55,95,6,0,,
2,1786986980704,1191,1584,10184,249233,37873,0,0,0,0,79,103,62,101,82,101,455,459,116,452,452,58,0,,
1,1786986980720,-4824,15759,9648,-1910786,723264,-19547,0,0,0,12,27,1,36,33,38,121,117,52,61,91,8,0,,
2,1786986980720,1229,1588,10083,318871,91629,-18325,0,0,0,79,114,60,103,85,101,447,444,119,435,426,59,0,,
1,1786986980736,-4029,10083,7312,-3788586,1089783,-1384220,0,0,0,12,31,5,32,36,39,120,122,54,59,94,9,0,,
2,1786986980736,1344,1493,10007,377514,116064,-20769,0,0,0,74,129,61,97,91,111,420,416,128,402,390,56,0,,
1,1786986980752,-6398,5407,4044,-3644422,1009149,-1402546,0,0,0,15,33,5,34,37,45,119,129,53,54,94,8,0,,
2,1786986980752,1402,1359,9887,401949,112399,-24434,0,0,0,66,135,66,91,96,119,387,384,139,367,371,60,0,,
1,1786986980768,-6771,4221,3010,-3414736,268780,-985936,0,0,0,15,30,0,40,37,57,124,129,48,55,91,10,0,,
2,1786986980768,1435,1258,9758,389732,101403,-31764,0,0,0,56,131,65,90,97,110,373,362,144,354,361,60,0,,
1,1786986980784,-4316,5455,4508,-3704286,-356745,-764803,0,0,0,16,32,3,38,35,45,135,123,52,66,92,8,0,,
2,1786986980784,1450,1210,9676,359188,89186,-45204,0,0,0,60,128,58,97,96,107,374,346,138,338,327,52,0,,
1,1786986980800,-3235,6063,6293,-4444655,-124616,-1105666,0,0,0,10,30,4,32,37,41,125,129,60,55,100,7,0,,
2,1786986980800,1469,1191,9672,328645,79412,-61086,0,0,0,66,97,67,102,84,121,357,317,148,300,310,62,0,,
1,1786986980816,-4091,5580,7355,-5088507,-18325,-1444085,0,0,0,18,35,8,35,42,44,118,134,56,60,115,11,0,,
2,1786986980816,1521,1172,9700,313984,62308,-68416,0,0,0,80,100,74,115,85,131,372,316,167,283,289,58,0,,
1,1786986980832,-4929,4469,8269,-5564982,-411723,-1599245,0,0,0,11,36,6,39,42,46,124,139,56,55,112,11,0,,
2,1786986980832,1574,1134,9696,302989,24434,-68416,0,0,0,74,100,72,106,86,139,367,294,184,279,291,67,0,,
1,1786986980848,-4245,3474,9518,-5892406,-866206,-1640784,0,0,0,12,36,3,28,40,44,132,155,59,44,117,5,0,,
2,1786986980848,1564,1072,9667,287106,-13439,-68416,0,0,0,71,105,74,98,91,135,365,285,192,269,279,64,0,,
1,1786986980864,-3632,2569,10935,-6106208,-966388,-1670105,0,0,0,13,37,3,30,37,46,139,146,63,48,114,7,0,,
2,1786986980864,1483,1005,9672,267558,-40317,-64751,0,0,0,82,125,75,106,98,139,365,274,211,270,267,58,0,,
1,1786986980880,-3718,1799,12428,-6219829,-956614,-1620014,0,0,0,14,35,6,27,32,42,146,140,64,47,109,4,0,,
2,1786986980880,1464,933,9739,254119,-37873,-63529,0,0,0,88,132,74,118,101,148,367,273,197,260,263,60,0,,
1,1786986980896,-4513,1277,14032,-6244264,-1001818,-1397659,0,0,0,14,35,7,28,35,40,142,140,64,52,116,11,0,,
2,1786986980896,1512,909,9796,252898,-35430,-69638,0,0,0,95,132,72,144,112,167,389,267,189,260,252,62,0,,
1,1786986980912,-4809,918,16075,-6251594,-1219287,-1066570,0,0,0,16,37,11,32,40,48,130,136,67,54,117,12,0,,
2,1786986980912,1560,918,9858,272445,-45204,-84299,0,0,0,102,143,72,160,119,178,400,246,185,266,234,58,0,,
1,1786986980928,-4613,598,18205,-6235712,-1363451,-917519,0,0,0,14,39,6,37,47,61,122,135,59,50,114,7,0,,
2,1786986980928,1584,923,9925,309097,-62308,-102625,0,0,0,104,164,80,154,126,180,389,249,199,247,221,63,0,,
1,1786986980944,-4857,95,20339,-6124534,-1428202,-1071457,0,0,0,14,41,3,38,48,58,121,133,57,50,114,8,0,,
2,1786986980944,1588,875,9973,359188,-69638,-120951,0,0,0,102,186,102,146,129,184,384,238,242,227,195,94,0,,
1,1786986980960,-5642,-1177,23120,-5822767,-1661553,-1479515,0,0,0,17,40,7,34,44,47,122,131,64,52,115,11,0,,
2,1786986980960,1603,799,10050,426383,-51312,-149051,0,0,0,108,181,125,161,121,208,394,185,286,227,156,121,0,,
1,1786986980976,-5776,-3517,26671,-5463578,-1980425,-1913229,0,0,0,16,39,7,33,43,45,123,131,66,52,115,11,0,,
2,1786986980976,1636,722,10184,507018,-15882,-184481,0,0,0,128,151,126,194,122,244,393,148,294,215,131,113,0,,
1,1786986980992,-5250,-7910,30299,-5242445,-2130697,-2194227,0,0,0,18,41,6,37,42,44,125,129,63,58,116,11,0,,
2,1786986980992,1737,646,10361,607200,15882,-223576,0,0,0,145,159,114,227,133,251,401,129,294,184,105,113,0,,
1,1786986981008,-5781,-15716,31160,-5385387,-1861917,-2006081,0,0,0,23,43,7,37,39,42,128,129,62,63,119,10,0,,
2,1786986981008,1928,574,10629,750142,29321,-274889,0,0,0,161,171,94,258,161,286,395,112,328,170,77,116,0,,
1,1786986981024,-7379,-26982,25527,-5469687,-1568701,-852767,0,0,0,17,49,5,36,46,44,120,135,67,57,128,10,0,,
2,1786986981024,2254,502,10978,919963,25656,-340862,0,0,0,156,171,129,257,155,385,326,99,353,150,61,139,0,,
1,1786986981040,-3627,-34840,19564,-4729318,-1913229,505796,0,0,0,11,65,8,33,52,49,125,137,67,59,125,14,0,,
2,1786986981040,2723,325,11442,1132544,17104,-454483,0,0,0,166,236,103,272,183,387,309,83,352,183,59,142,0,,
1,1786986981056,7475,-38305,16089,-2781880,-1882686,1423316,0,0,0,16,65,9,36,50,48,130,136,66,63,124,10,0,,
2,1786986981056,2388,143,12390,1446528,47647,-615752,0,0,0,214,238,93,314,190,383,262,102,358,168,85,135,0,,
1,1786986981072,14414,-39372,15573,-834441,-711047,1381777,0,0,0,24,33,4,49,31,48,164,120,61,121,111,14,0,,
2,1786986981072,1646,129,13275,1925447,142942,-682947,0,0,0,182,260,105,296,209,403,237,89,350,147,68,189,0,,
1,1786986981088,13208,-35472,17640,801455,1183856,802676,0,0,0,22,29,3,40,36,38,197,192,60,92,170,10,0,,
2,1786986981088,1780,253,13988,2460565,167377,-701273,0,0,0,210,228,112,294,186,359,251,90,342,144,66,164,0,,
1,1786986981104,4398,-12323,17961,2387261,3225368,294437,0,0,0,29,22,0,40,23,26,213,254,64,119,241,1,0,,
2,1786986981104,2493,301,14687,2970026,3665,-734260,0,0,0,217,230,128,287,157,348,224,71,327,130,54,160,0,,
1,1786986981120,-4264,15003,13160,3156951,4012162,81855,0,0,0,20,12,4,40,30,42,240,356,60,147,310,12,0,,
2,1786986981120,3249,143,15376,3543018,-222354,-857654,0,0,0,199,237,113,270,199,321,185,103,309,96,73,136,0,,
1,1786986981136,-3766,13007,11830,3966958,2918714,-72082,0,0,0,24,17,1,52,34,45,308,390,46,205,356,9,0,,
2,1786986981136,4144,-119,16601,4218635,-324980,-1084896,0,0,0,195,246,98,266,214,292,170,108,292,71,65,96,0,,
1,1786986981152,1325,430,18123,4739092,1154535,-114842,0,0,0,23,16,0,53,31,45,363,406,49,261,381,7,0,,
2,1786986981152,4948,-655,19037,5044525,-205250,-1401324,0,0,0,170,224,103,260,159,269,169,69,256,59,34,69,0,,
1,1786986981168,1986,-2790,22593,3816686,139277,351858,0,0,0,29,23,5,57,27,45,394,416,54,312,397,12,0,,
2,1786986981168,6034,-1076,22105,5870414,-12217,-1685988,0,0,0,120,163,89,227,111,230,161,55,195,59,31,58,0,,
1,1786986981184,-2502,-445,19243,2171015,-103847,579100,0,0,0,43,30,10,62,30,49,414,421,59,353,407,15,0,,
2,1786986981184,7145,-971,25522,6646213,182037,-1963320,0,0,0,94,111,51,172,90,168,143,61,137,57,28,41,0,,
1,1786986981200,-4962,1545,12514,978606,-133168,141720,0,0,0,57,39,15,66,31,55,427,427,61,395,418,11,0,,
2,1786986981200,6977,-153,27791,7308391,123394,-2258979,0,0,0,55,66,26,94,65,93,109,59,95,31,19,17,0,,
1,1786986981216,-3182,1655,8700,630412,-150272,-244346,0,0,0,73,49,18,75,27,57,432,432,57,419,424,4,0,,
2,1786986981216,6556,1086,28576,7756766,57421,-2544864,0,0,0,30,55,16,63,44,56,113,75,68,50,46,19,0,,
1,1786986981232,-2110,832,9308,456927,-80634,-160046,0,0,0,89,51,22,85,27,57,435,435,62,414,423,5,0,,
2,1786986981232,7188,2632,27025,7849618,75747,-2759889,0,0,0,27,18,11,74,30,43,134,96,64,80,87,22,0,,
1,1786986981248,-2297,847,10356,173485,30543,-35430,0,0,0,97,52,30,83,25,54,444,444,82,434,434,17,0,,
2,1786986981248,9188,6326,18439,7484320,257785,-2923601,0,0,0,26,27,12,65,38,49,117,91,60,78,95,15,0,,
1,1786986981264,-2479,1450,10332,2443,96516,-15882,0,0,0,90,59,29,84,28,53,449,449,98,438,438,15,0,,
2,1786986981264,8049,12423,10739,5764124,270002,-3062878,0,0,0,39,26,7,57,32,49,118,87,66,94,96,20,0,,
1,1786986981280,-2325,1818,10050,-4886,85521,-12217,0,0,0,90,64,27,87,31,60,449,449,89,439,439,22,0,,
2,1786986981280,4034,17769,10480,2344500,-377514,-2482556,0,0,0,30,31,9,72,37,42,128,90,62,100,97,22,0,,
1,1786986981296,-2148,1880,9968,96516,20769,14660,0,0,0,99,67,34,82,34,57,444,444,85,431,432,10,0,,
2,1786986981296,2096,16051,11399,-1759291,-1831373,-1020144,0,0,0,31,28,11,63,34,46,128,88,61,101,97,22,0,,
1,1786986981312,-2129,1823,10112,195476,-40317,51312,0,0,0,99,66,41,84,33,68,437,437,101,420,425,17,0,,
2,1786986981312,4268,10227,8102,-3762929,-2725680,-112399,0,0,0,28,26,20,55,33,63,123,89,88,96,98,33,0,,
1,1786986981328,-2196,1813,10074,273667,-91629,69638,0,0,0,94,74,51,77,31,88,432,432,114,388,413,27,0,,
2,1786986981328,7614,5374,3508,-3940080,-2356718,-140499,0,0,0,26,27,20,57,38,63,122,91,82,95,99,29,0,,
1,1786986981344,-2273,1818,9863,357967,-124616,79412,0,0,0,96,76,49,84,40,86,424,419,114,361,397,19,0,,
2,1786986981344,8169,4034,2220,-3805690,-1119105,-554665,0,0,0,24,32,20,59,42,69,123,101,75,94,103,26,0,,
1,1786986981360,-2345,1708,9648,422718,-120951,81855,0,0,0,91,87,39,79,41,76,417,405,110,337,358,19,0,,
2,1786986981360,5963,4986,4398,-4085466,-444709,-464257,0,0,0,22,40,19,57,44,72,121,108,76,91,110,26,0,,
1,1786986981376,-2378,1497,9528,422718,-81855,84299,0,0,0,87,87,38,81,46,86,412,387,114,308,329,21,0,,
2,1786986981376,5503,5522,5762,-4506963,-356745,86742,0,0,0,21,38,12,57,44,63,109,97,68,92,111,20,0,,
1,1786986981392,-2368,1354,9442,371406,-40317,89186,0,0,0,87,87,48,82,49,73,405,357,117,303,285,30,0,,
2,1786986981392,7240,5034,5714,-4863709,-96516,752585,0,0,0,23,31,14,58,41,69,105,92,73,93,106,26,0,,
1,1786986981408,-2359,1325,9423,312763,-9773,91629,0,0,0,103,91,52,82,44,64,401,331,113,297,268,24,0,,
2,1786986981408,7853,4063,6374,-5037194,814894,1247386,0,0,0,30,30,25,63,43,88,123,98,86,93,105,38,0,,
1,1786986981424,-2349,1344,9490,279776,14660,92851,0,0,0,114,94,54,87,42,69,398,305,114,288,262,17,0,,
2,1786986981424,6920,3426,7934,-5099503,1523497,1644449,0,0,0,37,33,35,83,39,103,133,101,98,105,110,45,0,,
1,1786986981440,-2287,1354,9571,271224,26878,94073,0,0,0,108,93,54,92,44,79,395,285,119,297,256,21,0,,
2,1786986981440,5924,3292,9710,-5193576,1734857,2020742,0,0,0,42,33,34,92,34,105,138,103,99,117,109,52,0,,
1,1786986981456,-2196,1330,9629,272445,20769,90408,0,0,0,103,94,53,94,47,89,392,274,130,294,251,28,0,,
2,1786986981456,5757,3335,11294,-5393940,1786169,2284635,0,0,0,41,35,36,93,38,110,135,104,102,98,112,45,0,,
1,1786986981472,-2163,1258,9624,271224,0,85521,0,0,0,106,96,67,98,45,102,389,254,145,272,225,34,0,,
2,1786986981472,5929,3297,13050,-5662720,1894903,2355496,0,0,0,40,39,34,88,38,107,133,102,101,97,112,45,0,,
1,1786986981488,-2191,1196,9624,274889,-21991,86742,0,0,0,107,95,84,107,42,111,387,226,150,273,192,39,0,,
2,1786986981488,6020,3024,15338,-5949827,2058615,2251649,0,0,0,46,42,35,94,37,103,143,102,103,104,112,43,0,,
1,1786986981504,-2268,1143,9652,291993,-35430,102625,0,0,0,108,106,74,104,47,107,384,209,146,259,182,41,0,,
2,1786986981504,5972,2546,18281,-6238155,2188119,1988977,0,0,0,46,46,38,91,39,103,144,105,100,102,110,41,0,,
1,1786986981520,-2287,1081,9691,323758,-47647,134390,0,0,0,97,115,106,105,55,125,384,210,162,258,194,61,0,,
2,1786986981520,5886,2225,21440,-6459289,2246762,1739744,0,0,0,44,44,37,92,41,106,144,107,101,105,111,43,0,,
1,1786986981536,-2287,1033,9753,366519,-67195,167377,0,0,0,105,124,105,118,71,130,383,189,183,243,160,61,0,,
2,1786986981536,6054,1976,25556,-6596122,2261423,1624901,0,0,0,41,37,34,95,41,108,144,102,101,109,110,43,0,,
1,1786986981552,-2321,1024,9825,431270,-94073,194255,0,0,0,119,130,73,129,75,134,382,193,176,185,154,68,0,,
2,1786986981552,5915,416,29681,-6638883,2354274,1943773,0,0,0,45,38,36,95,36,103,148,98,99,113,101,42,0,,
1,1786986981568,-2383,1028,9959,530231,-130725,224798,0,0,0,130,128,79,161,67,148,378,161,164,177,116,70,0,,
2,1786986981568,4943,-4283,33002,-6558249,2736676,2536312,0,0,0,36,38,31,74,34,88,144,95,93,108,96,37,0,,
1,1786986981584,-2541,1019,10203,646295,-162490,263893,0,0,0,149,138,111,166,77,156,373,148,182,150,134,94,0,,
2,1786986981584,3125,-15611,34816,-6086661,2912605,2973691,0,0,0,25,36,22,58,39,78,138,96,86,101,100,28,0,,
1,1786986981600,-2766,904,10418,822224,-162490,331088,0,0,0,128,155,111,168,98,200,352,153,232,124,127,128,0,,
2,1786986981600,3283,-29523,31064,-5181358,2097711,2641381,0,0,0,23,34,25,51,41,85,134,96,92,96,103,32,0,,
1,1786986981616,-2895,784,10567,1004262,-135612,393397,0,0,0,116,150,99,185,110,216,321,149,246,109,132,142,0,,
2,1786986981616,4134,-42263,20267,-3621209,1147204,1060462,0,0,0,20,33,39,38,33,104,130,91,114,90,99,49,0,,
1,1786986981632,-2890,708,11026,1257160,-128281,465479,0,0,0,118,163,89,212,125,235,318,140,258,104,113,152,0,,
2,1786986981632,-1914,-46680,12950,-1886351,1497841,-1042136,0,0,0,21,34,30,58,39,101,143,100,107,98,105,41,0,,
1,1786986981648,-2445,612,11658,1569923,-139277,507018,0,0,0,118,171,77,226,152,266,283,109,276,105,76,161,0,,
2,1786986981648,-12907,-43747,15802,-194255,1200961,-1999972,0,0,0,30,37,14,71,50,69,171,134,83,124,147,19,0,,
1,1786986981664,-1809,363,12112,1921782,-180816,483805,0,0,0,116,192,73,243,157,322,242,80,316,107,54,197,0,,
2,1786986981664,-14151,-33462,21162,1782504,-759916,-1506393,0,0,0,29,26,10,85,42,55,176,204,69,136,221,17,0,,
1,1786986981680,-1890,81,12524,2285857,-345749,425162,0,0,0,118,208,71,244,173,336,213,77,350,98,55,206,0,,
2,1786986981680,-315,-1182,19736,3160616,-2342057,-505796,0,0,0,21,20,6,43,35,34,220,320,49,207,317,17,0,,
1,1786986981696,-2895,4,13318,2696359,-478918,445931,0,0,0,123,211,70,242,197,316,190,83,350,90,56,186,0,,
2,1786986981696,7973,20914,13122,3579670,-2852740,41538,0,0,0,33,20,13,58,30,60,284,392,80,250,389,25,0,,
1,1786986981712,-4158,114,14496,3268129,-384845,601091,0,0,0,126,203,76,256,175,310,197,75,339,94,47,177,0,,
2,1786986981712,4335,11500,10930,4236961,-2516764,-23212,0,0,0,27,27,7,72,51,62,293,413,61,280,430,14,0,,
1,1786986981728,-5049,153,15716,3957185,-76969,839328,0,0,0,124,171,81,250,135,293,216,64,333,92,45,153,0,,
2,1786986981728,-1363,-3527,19176,5062851,-1966986,-346971,0,0,0,27,22,10,82,50,72,337,444,58,339,456,22,0,,
1,1786986981744,-6475,201,17884,4778187,127059,1196074,0,0,0,117,182,83,235,141,284,198,86,310,71,62,134,0,,
2,1786986981744,-1229,-4924,24374,4500855,-1373225,-618195,0,0,0,43,30,13,87,41,65,390,457,54,400,470,14,0,,
1,1786986981760,-8595,-90,21220,5630955,106290,1656666,0,0,0,88,143,66,175,131,255,184,93,289,57,47,94,0,,
2,1786986981760,2641,1507,17252,2797762,-575435,-420275,0,0,0,61,36,21,91,37,65,438,484,62,477,499,10,0,,
1,1786986981776,-10677,-531,24536,6320011,2443,2141693,0,0,0,50,96,49,130,98,175,164,85,174,56,48,69,0,,
2,1786986981776,3426,1995,11304,1762957,-168598,-50090,0,0,0,80,45,37,93,40,72,482,507,75,523,526,23,0,,
1,1786986981792,-10624,224,26901,6861238,85521,2685363,0,0,0,36,68,26,80,67,98,94,88,109,46,60,37,0,,
2,1786986981792,2632,-492,10758,1018923,-227241,114842,0,0,0,102,57,51,101,46,75,512,517,78,527,534,27,0,,
1,1786986981808,-9356,1440,28087,7346265,345749,3164281,0,0,0,22,44,12,40,46,58,92,96,63,45,63,15,0,,
2,1786986981808,2048,-708,11189,469144,-293215,128281,0,0,0,112,63,54,112,52,75,517,517,74,521,531,24,0,,
1,1786986981824,-9973,2378,27197,7700567,493579,3413514,0,0,0,32,20,8,49,22,33,141,87,49,80,75,12,0,,
2,1786986981824,1952,708,10787,194255,-222354,78190,0,0,0,109,70,59,114,58,79,512,513,75,524,531,35,0,,
1,1786986981840,-11179,5101,18937,7830070,481361,3381749,0,0,0,19,34,8,46,29,43,129,108,62,56,75,10,0,,
2,1786986981840,2029,1335,10045,171042,-86742,51312,0,0,0,116,86,75,113,65,80,508,511,85,537,537,38,0,,
1,1786986981856,-10217,9538,11648,7178888,607200,3185051,0,0,0,16,28,10,37,32,41,121,111,64,68,86,10,0,,
2,1786986981856,2134,1359,9906,206472,-7330,30543,0,0,0,133,87,87,118,52,82,499,499,96,521,521,39,0,,
1,1786986981872,-7561,15127,9423,4761083,1021366,2339613,0,0,0,14,28,6,39,36,44,116,109,67,73,90,12,0,,
2,1786986981872,2201,1229,10078,271224,4886,4886,0,0,0,133,83,81,119,54,75,479,481,81,499,499,38,0,,
1,1786986981888,-6288,17654,9150,513126,1219287,467922,0,0,0,14,31,8,40,36,48,118,110,70,77,94,18,0,,
2,1786986981888,2134,1225,10078,329867,4886,-15882,0,0,0,125,87,101,112,55,88,406,433,125,473,473,43,0,,
1,1786986981904,-6010,14716,7494,-2763554,1127657,-1060462,0,0,0,19,32,7,42,34,44,126,110,64,86,94,15,0,,
2,1786986981904,2110,1273,10026,381179,32986,-32986,0,0,0,122,85,102,113,57,94,447,449,111,457,457,42,0,,
1,1786986981920,-6140,8437,4594,-4118453,928515,-1521054,0,0,0,21,33,2,43,36,40,131,114,57,87,90,6,0,,
2,1786986981920,2129,1225,9911,433714,57421,-47647,0,0,0,120,77,65,136,51,110,448,414,87,441,441,27,0,,
1,1786986981936,-6149,4795,2818,-4097684,665843,-1015258,0,0,0,18,38,2,41,39,43,128,121,60,78,91,6,0,,
2,1786986981936,2139,1076,9753,455705,59864,-57421,0,0,0,117,81,66,130,54,89,426,371,100,415,430,36,0,,
1,1786986981952,-5278,4627,3378,-4142888,261450,-417831,0,0,0,20,39,5,41,40,43,131,124,64,84,96,12,0,,
2,1786986981952,2144,899,9600,432492,46425,-63529,0,0,0,107,80,79,125,59,102,415,346,116,385,391,44,0,,
1,1786986981968,-3933,5211,5053,-4593706,47647,-222354,0,0,0,22,35,7,43,35,42,136,117,62,93,95,15,0,,
2,1786986981968,2196,842,9514,389732,30543,-70860,0,0,0,109,86,73,126,62,102,406,325,125,368,334,47,0,,
1,1786986981984,-3421,5163,6685,-5166698,81855,-442266,0,0,0,25,41,6,44,31,40,141,110,60,75,86,6,0,,
2,1786986981984,2254,866,9533,365297,2443,-85521,0,0,0,113,85,65,136,64,100,402,294,133,358,287,43,0,,
1,1786986982000,-4134,4345,7776,-5511226,-123394,-797790,0,0,0,21,45,5,43,35,42,143,116,66,75,89,6,0,,
2,1786986982000,2301,856,9585,356745,-36651,-101403,0,0,0,117,86,65,143,65,99,400,266,135,364,265,36,0,,
1,1786986982016,-4580,3737,8882,-5754350,-613308,-1117883,0,0,0,18,81,5,41,48,41,132,124,63,73,94,6,0,,
2,1786986982016,2287,780,9590,350636,-83077,-109955,0,0,0,118,90,69,148,68,103,396,251,128,365,269,36,0,,
1,1786986982032,-4364,3129,10327,-6026796,-1123992,-1396437,0,0,0,18,81,0,39,43,41,136,128,64,75,99,8,0,,
2,1786986982032,2158,684,9576,327423,-114842,-105068,0,0,0,118,103,74,157,80,116,393,245,133,344,276,45,0,,
1,1786986982048,-4134,2029,11945,-6213721,-1351233,-1551597,0,0,0,16,83,4,39,47,42,138,128,64,74,99,8,0,,
2,1786986982048,2086,622,9638,307876,-124616,-94073,0,0,0,122,126,83,162,94,129,396,239,156,326,257,55,0,,
1,1786986982064,-4359,894,13558,-6191730,-1473406,-1513724,0,0,0,11,83,3,38,50,43,134,128,66,73,99,6,0,,
2,1786986982064,2139,607,9743,311541,-120951,-92851,0,0,0,125,111,83,160,82,133,397,233,159,318,245,58,0,,
1,1786986982080,-4704,354,15171,-6034126,-1639562,-1255938,0,0,0,18,84,3,37,53,39,135,136,68,73,103,7,0,,
2,1786986982080,2182,574,9810,338419,-116064,-108734,0,0,0,138,121,100,175,88,148,396,216,173,309,204,67,0,,
1,1786986982096,-4402,153,17300,-5925392,-1760513,-1001818,0,0,0,17,78,5,39,50,41,135,135,71,72,101,10,0,,
2,1786986982096,2196,536,9844,372627,-111177,-127059,0,0,0,130,129,110,159,88,152,393,189,182,292,165,63,0,,
1,1786986982112,-4446,-181,19296,-5811771,-1731192,-987158,0,0,0,18,62,2,41,47,41,133,128,69,73,102,9,0,,
2,1786986982112,2206,512,9897,420275,-97738,-147829,0,0,0,132,174,97,176,117,164,391,173,182,278,148,67,0,,
1,1786986982128,-5364,-966,21440,-5546656,-1712866,-1218065,0,0,0,20,60,6,40,45,47,132,132,70,73,104,13,0,,
2,1786986982128,2191,430,9973,478918,-70860,-169820,0,0,0,140,182,110,183,143,176,381,171,201,238,166,64,0,,
1,1786986982144,-6058,-2651,24221,-5117828,-1948660,-1508837,0,0,0,22,56,8,41,42,49,135,135,70,70,99,10,0,,
2,1786986982144,2206,349,10054,541226,-41538,-190589,0,0,0,155,162,119,188,129,197,373,133,246,203,115,77,0,,
1,1786986982160,-5833,-5484,27561,-4800179,-2290744,-1748296,0,0,0,24,48,6,43,41,46,140,136,70,72,95,9,0,,
2,1786986982160,2249,258,10160,618195,-4886,-217468,0,0,0,141,175,115,177,153,188,374,139,257,180,103,93,0,,
1,1786986982176,-5226,-10710,30117,-4965112,-2566855,-1854586,0,0,0,24,47,8,43,42,47,144,136,72,74,93,10,0,,
2,1786986982176,2244,181,10342,735481,48869,-244346,0,0,0,157,155,115,186,121,205,377,105,266,153,79,105,0,,
1,1786986982192,-5637,-20196,27973,-5545434,-2425134,-1521054,0,0,0,28,48,10,50,39,46,146,127,70,76,93,7,0,,
2,1786986982192,2340,167,10710,905302,114842,-273667,0,0,0,143,154,112,194,124,253,352,88,281,128,64,120,0,,
1,1786986982208,-4383,-30959,22746,-5417152,-2323731,-682947,0,0,0,34,47,7,66,34,40,149,119,64,83,97,12,0,,
2,1786986982208,2507,119,11275,1155757,193033,-324980,0,0,0,136,177,113,201,136,274,287,85,300,126,67,151,0,,
1,1786986982224,2335,-38913,17114,-3885102,-2425134,536339,0,0,0,27,48,11,51,34,43,143,128,68,72,100,10,0,,
2,1786986982224,2450,-4,11835,1442863,274889,-378736,0,0,0,150,204,109,222,137,285,234,80,321,131,69,183,0,,
1,1786986982240,11476,-41196,15419,-1674992,-1894903,1178969,0,0,0,11,23,11,30,35,44,142,164,73,72,110,11,0,,
2,1786986982240,2412,-263,12433,1839926,382401,-428827,0,0,0,164,209,100,241,138,314,207,76,328,135,70,193,0,,
1,1786986982256,15333,-39554,18741,406836,367740,693942,0,0,0,12,23,9,30,35,49,166,214,74,78,156,11,0,,
2,1786986982256,2866,-492,13084,2269975,452040,-486248,0,0,0,169,207,99,230,138,336,184,76,319,130,74,192,0,,
1,1786986982272,8289,-22120,18659,2521651,3749490,-98960,0,0,0,11,11,0,53,36,43,248,286,67,140,222,3,0,,
2,1786986982272,3637,-454,14237,2844188,354301,-619417,0,0,0,155,233,98,204,160,329,170,81,310,106,77,190,0,,
1,1786986982288,-4508,10672,13677,3751934,5805663,-608421,0,0,0,19,17,0,46,20,68,328,384,77,172,292,18,0,,
2,1786986982288,4460,-339,15357,3441614,124616,-797790,0,0,0,141,225,90,202,194,305,158,93,293,85,77,146,0,,
1,1786986982304,-3723,13175,13113,4168544,4504520,-755029,0,0,0,16,4,3,60,24,84,400,418,75,297,388,11,0,,
2,1786986982304,5733,-406,16520,4105014,-129503,-1070235,0,0,0,120,216,100,161,177,294,156,104,304,49,63,128,0,,
1,1786986982320,2182,3292,18827,4608367,2704911,-708603,0,0,0,30,14,4,77,28,83,430,433,61,392,418,8,0,,
2,1786986982320,7102,-354,18702,4883256,-353080,-1468520,0,0,0,106,169,94,165,139,276,129,60,232,42,40,82,0,,
1,1786986982336,5001,-3670,25025,3766595,1453859,-190589,0,0,0,29,23,1,89,40,89,436,436,87,391,416,20,0,,
2,1786986982336,7973,-354,22263,5819102,-614530,-1902234,0,0,0,88,130,70,163,86,209,151,49,164,42,16,165,0,,
1,1786986982352,172,-1057,20057,1704314,616973,140499,0,0,0,30,31,6,100,48,91,436,436,94,408,421,21,0,,
2,1786986982352,8370,-153,25982,6640105,-770911,-2202780,0,0,0,64,107,45,95,78,115,128,48,117,43,26,386,0,,
1,1786986982368,-2593,1861,12175,597426,-4886,-35430,0,0,0,43,38,10,100,42,103,442,442,100,411,423,25,0,,
2,1786986982368,8011,354,27614,7331604,-653625,-2470339,0,0,0,57,53,24,93,48,75,138,56,75,59,27,66,0,,
1,1786986982384,-2464,2163,7513,428827,-175929,-251676,0,0,0,51,41,19,98,37,120,457,457,151,412,426,36,0,,
2,1786986982384,7150,698,28336,7732332,-388510,-2671924,0,0,0,36,29,22,57,34,56,138,76,78,63,45,16,0,,
1,1786986982400,-1794,995,8872,280998,53756,-201585,0,0,0,60,43,28,105,38,123,471,471,175,432,438,43,0,,
2,1786986982400,8600,2847,25235,7655363,-7330,-2776993,0,0,0,38,31,23,68,39,62,147,102,73,79,76,20,0,,
1,1786986982416,-1598,981,10232,35430,224798,-127059,0,0,0,72,53,35,111,38,119,475,475,143,445,445,39,0,,
2,1786986982416,9786,9045,14678,6684087,566882,-3054326,0,0,0,39,36,29,75,44,84,147,113,76,85,81,28,0,,
1,1786986982432,-1502,1971,10562,-96516,268780,-74525,0,0,0,78,67,43,113,38,125,473,473,157,440,440,40,0,,
2,1786986982432,6733,16070,8944,4003610,619417,-3104417,0,0,0,34,35,31,73,46,89,141,116,81,84,79,31,0,,
1,1786986982448,-1263,2483,10208,51312,172263,-43982,0,0,0,84,76,38,118,45,124,472,472,195,438,438,45,0,,
2,1786986982448,2139,18846,11533,-174707,-315206,-2130697,0,0,0,32,34,30,72,47,78,142,121,84,84,86,30,0,,
1,1786986982464,-1172,2182,10179,234572,41538,-4886,0,0,0,80,95,34,114,54,119,467,467,193,432,434,53,0,,
2,1786986982464,2029,13098,10428,-3079982,-1698205,-742812,0,0,0,34,39,35,67,45,75,146,119,92,86,86,34,0,,
1,1786986982480,-1249,1957,10279,328645,-53756,29321,0,0,0,73,131,25,111,63,107,455,455,167,414,425,84,0,,
2,1786986982480,4795,6542,5364,-3838677,-2236988,-103847,0,0,0,33,41,44,66,45,86,142,113,99,89,82,46,0,,
1,1786986982496,-1316,1966,10212,368962,-97738,54977,0,0,0,79,91,39,114,61,131,439,439,153,358,399,55,0,,
2,1786986982496,6283,4800,2613,-3628539,-1376890,-283441,0,0,0,31,37,41,68,44,89,139,111,99,89,81,42,0,,
1,1786986982512,-1344,1876,9901,400727,-125838,70860,0,0,0,74,104,27,114,66,111,427,427,132,310,381,41,0,,
2,1786986982512,5412,5575,3378,-3860668,-441044,-401949,0,0,0,34,35,21,84,48,81,144,111,82,90,77,20,0,,
1,1786986982528,-1497,1703,9633,394618,-125838,75747,0,0,0,83,81,23,122,58,115,427,427,121,302,376,43,0,,
2,1786986982528,4000,6618,5580,-4515515,13439,-185703,0,0,0,35,35,24,77,47,73,150,111,92,92,80,20,0,,
1,1786986982544,-1627,1555,9504,345749,-89186,80634,0,0,0,91,98,34,127,66,111,418,394,129,290,336,56,0,,
2,1786986982544,4527,6058,6298,-5053077,160046,202807,0,0,0,42,36,16,81,42,64,156,108,81,98,76,21,0,,
1,1786986982560,-1588,1521,9528,280998,-40317,86742,0,0,0,90,97,36,118,64,117,399,395,130,262,330,58,0,,
2,1786986982560,5293,4766,6470,-5220454,704938,460592,0,0,0,40,37,18,80,46,64,156,105,82,100,78,15,0,,
1,1786986982576,-1517,1545,9600,228463,-7330,87964,0,0,0,92,103,41,114,60,126,389,357,135,249,307,69,0,,
2,1786986982576,4632,4015,7575,-5246110,1385442,676838,0,0,0,44,38,21,85,42,65,165,101,82,103,77,17,0,,
1,1786986982592,-1469,1579,9662,200363,7330,81855,0,0,0,85,103,41,115,63,134,385,333,140,245,295,77,0,,
2,1786986982592,3048,3919,9619,-5282762,1767844,966388,0,0,0,49,39,18,88,44,68,164,98,80,107,77,21,0,,
1,1786986982608,-1426,1545,9672,184481,10995,74525,0,0,0,83,100,42,119,64,138,389,323,144,265,278,78,0,,
2,1786986982608,2675,3737,11476,-5447696,1748296,1285260,0,0,0,43,37,17,84,45,69,160,99,80,102,76,21,0,,
1,1786986982624,-1383,1502,9648,167377,4886,69638,0,0,0,87,103,49,126,68,151,395,314,155,276,271,88,0,,
2,1786986982624,3005,3421,13366,-5633399,1806939,1490511,0,0,0,42,38,19,79,43,68,143,96,80,102,77,21,0,,
1,1786986982640,-1349,1469,9619,152716,-9773,64751,0,0,0,90,113,52,129,71,155,399,313,157,274,271,87,0,,
2,1786986982640,3015,3153,15477,-5756794,2010968,1467298,0,0,0,44,39,21,80,44,69,151,102,81,105,80,20,0,,
1,1786986982656,-1330,1450,9657,141720,-31764,58643,0,0,0,91,134,47,128,73,144,400,316,151,265,262,78,0,,
2,1786986982656,2737,2761,17803,-5876523,2135584,1393994,0,0,0,44,39,21,84,47,67,176,111,81,109,79,18,0,,
1,1786986982672,-1316,1426,9782,141720,-63529,62308,0,0,0,93,159,44,132,91,138,400,318,155,245,249,78,0,,
2,1786986982672,2483,2330,20334,-5973040,2092824,1362229,0,0,0,45,35,18,84,43,63,187,108,79,115,72,18,0,,
1,1786986982688,-1363,1407,9877,162490,-98960,83077,0,0,0,101,172,46,142,105,142,400,310,168,240,231,77,0,,
2,1786986982688,2589,2144,23000,-5991366,1964542,1513724,0,0,0,43,34,17,86,40,66,189,103,80,117,69,18,0,,
1,1786986982704,-1474,1392,9887,210137,-116064,120951,0,0,0,104,194,59,140,102,175,393,275,197,229,215,104,0,,
2,1786986982704,2613,1273,26661,-5924171,1843591,2046398,0,0,0,46,35,16,91,43,72,185,97,82,121,67,18,0,,
1,1786986982720,-1560,1397,9853,285884,-102625,167377,0,0,0,92,221,59,161,134,190,385,246,214,206,201,119,0,,
2,1786986982720,2962,-1899,29710,-5827654,1751961,2780658,0,0,0,47,40,18,91,42,70,182,92,80,117,62,19,0,,
1,1786986982736,-1588,1411,9882,360410,-85521,197920,0,0,0,120,214,74,189,114,196,389,236,224,185,189,127,0,,
2,1786986982736,4039,-8829,31174,-5663942,1709200,3343876,0,0,0,43,38,19,86,41,71,174,91,78,108,58,15,0,,
1,1786986982752,-1608,1387,10011,452040,-78190,218689,0,0,0,102,196,76,175,147,231,387,203,235,170,126,144,0,,
2,1786986982752,6211,-20751,28556,-5216789,1276708,3014009,0,0,0,47,42,19,81,35,68,177,93,79,108,62,19,0,,
1,1786986982768,-1694,1296,10193,577878,-92851,241902,0,0,0,118,210,84,193,134,254,396,187,271,178,135,187,0,,
2,1786986982768,7341,-32246,21751,-4268726,941954,1854586,0,0,0,49,37,17,91,42,71,190,93,80,125,66,21,0,,
1,1786986982784,-1765,1229,10394,707381,-117286,263893,0,0,0,120,218,81,211,133,291,389,182,291,137,127,234,0,,
2,1786986982784,2560,-38789,14424,-2580294,1447750,70860,0,0,0,46,38,20,84,43,68,183,99,90,119,73,22,0,,
1,1786986982800,-1861,1139,10705,869872,-169820,293215,0,0,0,113,220,86,216,136,325,355,159,312,137,122,269,0,,
2,1786986982800,-6882,-38090,14113,-899193,1516167,-1012814,0,0,0,47,36,26,79,41,71,180,98,92,111,68,31,0,,
1,1786986982816,-1847,1005,11174,1084896,-287106,356745,0,0,0,99,210,88,229,140,349,336,114,316,124,87,288,0,,
2,1786986982816,-10413,-35778,15458,474031,222354,-1235169,0,0,0,37,42,18,74,50,63,158,125,80,93,112,22,0,,
1,1786986982832,-1560,760,12112,1431868,-410501,412944,0,0,0,98,214,89,241,136,379,264,88,348,104,63,315,0,,
2,1786986982832,-5321,-29255,16539,1793500,-1466076,-954171,0,0,0,29,36,14,59,57,66,160,187,78,111,149,19,0,,
1,1786986982848,-1521,598,13117,1846034,-482583,397062,0,0,0,111,196,91,250,123,388,209,66,365,107,52,319,0,,
2,1786986982848,3024,-5130,17315,3018896,-2723237,-477696,0,0,0,29,33,18,45,48,67,180,260,83,145,215,24,0,,
1,1786986982864,-2254,593,13807,2261423,-480140,409279,0,0,0,117,187,87,276,124,385,200,57,351,115,48,311,0,,
2,1786986982864,7810,20650,13874,3159395,-3329215,342084,0,0,0,27,29,13,51,46,61,207,337,72,184,321,21,0,,
1,1786986982880,-3153,622,14400,2719572,-420275,537561,0,0,0,115,190,80,298,134,390,184,67,328,119,55,298,0,,
2,1786986982880,3306,13921,11107,3295007,-2665815,1059240,0,0,0,24,20,4,71,49,61,258,394,58,261,396,15,0,,
1,1786986982896,-3828,722,15147,3249803,-276111,762359,0,0,0,114,186,80,292,141,380,166,77,293,107,58,252,0,,
2,1786986982896,-3216,502,15573,4200309,-1376890,1097113,0,0,0,31,22,7,82,44,68,311,409,58,347,418,17,0,,
1,1786986982912,-4651,756,16338,3881437,8552,1003040,0,0,0,107,180,86,265,144,331,176,80,252,87,46,217,0,,
2,1786986982912,-5374,-3881,22086,4410447,-279776,346971,0,0,0,48,37,18,84,49,80,347,424,67,391,431,19,0,,
1,1786986982928,-6676,382,18454,4625471,304210,1329242,0,0,0,99,128,92,214,113,270,166,62,229,102,40,214,0,,
2,1786986982928,-866,-148,21134,3046995,46425,-487470,0,0,0,72,56,34,100,56,86,408,449,99,430,449,28,0,,
1,1786986982944,-9514,-33,20813,5319414,519235,1766622,0,0,0,90,108,80,195,85,226,162,51,197,101,42,137,0,,
2,1786986982944,2756,1320,14587,1475850,-6108,-331088,0,0,0,86,87,86,101,56,88,449,457,127,422,448,54,0,,
1,1786986982960,-11428,579,22852,5908288,643851,2397035,0,0,0,71,105,61,123,86,178,108,85,165,52,53,102,0,,
2,1786986982960,2574,851,10586,664621,41538,9773,0,0,0,112,99,73,106,62,76,472,473,101,437,457,15,0,,
1,1786986982976,-9983,1804,24288,6431189,912632,3045774,0,0,0,30,78,24,55,76,87,89,112,94,34,55,30,0,,
2,1786986982976,1478,507,9815,432492,131946,124616,0,0,0,96,77,104,95,62,128,462,476,170,446,473,47,0,,
1,1786986982992,-9475,1971,25565,6902777,1086118,3463605,0,0,0,20,40,9,44,42,48,93,105,51,45,87,11,0,,
2,1786986982992,1612,1043,10150,334754,96516,62308,0,0,0,102,89,121,101,62,127,469,472,153,457,467,48,0,,
1,1786986983008,-10739,1574,23871,7204544,1028697,3705508,0,0,0,13,25,1,40,25,39,124,119,54,56,89,11,0,,
2,1786986983008,1823,1622,10174,252898,28099,25656,0,0,0,118,113,107,114,73,116,465,465,142,454,464,55,0,,
1,1786986983024,-9978,4302,16113,6838025,1295034,3824016,0,0,0,13,31,6,32,40,36,123,138,55,58,101,13,0,,
2,1786986983024,1871,1746,10011,246789,-2443,19547,0,0,0,122,118,103,121,88,127,464,464,157,453,458,60,0,,
1,1786986983040,-8887,9557,9983,5585751,1687209,3534466,0,0,0,13,28,4,31,33,40,85,106,59,68,101,14,0,,
2,1786986983040,1765,1574,9925,270002,-48869,8552,0,0,0,130,134,97,135,122,110,458,457,128,445,447,48,0,,
1,1786986983056,-7963,16965,8490,2555860,1623679,1822821,0,0,0,15,30,4,38,34,44,112,117,61,65,97,12,0,,
2,1786986983056,1651,1564,10016,278554,-86742,-2443,0,0,0,130,162,95,136,143,91,448,437,109,427,417,43,0,,
1,1786986983072,-7815,16941,7843,-703716,1172861,-780685,0,0,0,17,31,6,39,35,48,131,125,63,64,96,15,0,,
2,1786986983072,1569,1708,10150,312763,-74525,-20769,0,0,0,129,180,96,136,149,100,436,409,117,402,370,44,0,,
1,1786986983088,-9102,11165,4532,-2750115,603534,-2549751,0,0,0,18,32,6,38,37,49,127,123,60,66,98,16,0,,
2,1786986983088,1517,1694,10078,393397,-19547,-37873,0,0,0,131,192,112,138,156,118,426,369,151,383,327,49,0,,
1,1786986983104,-9786,5254,1301,-2680476,-311541,-2083050,0,0,0,16,31,4,40,41,52,121,124,59,66,100,15,0,,
2,1786986983104,1536,1545,9906,449596,14660,-43982,0,0,0,129,202,136,134,162,133,422,335,196,370,290,60,0,,
1,1786986983120,-6752,4321,1593,-2337170,-1226617,-818559,0,0,0,14,30,3,44,42,55,125,129,64,66,100,15,0,,
2,1786986983120,1569,1387,9734,458148,18325,-43982,0,0,0,132,204,142,145,169,133,420,327,191,348,259,59,0,,
1,1786986983136,-2766,6207,4182,-2792875,-1133765,-349414,0,0,0,13,33,4,45,40,54,129,132,66,68,102,15,0,,
2,1786986983136,1588,1320,9672,428827,10995,-43982,0,0,0,136,208,136,172,170,122,413,311,164,327,240,57,0,,
1,1786986983152,-2100,6958,5814,-3522248,-703716,-485026,0,0,0,16,32,4,52,39,52,130,134,62,81,107,18,0,,
2,1786986983152,1684,1301,9676,409279,3665,-47647,0,0,0,123,225,130,155,181,131,404,274,163,311,235,69,0,,
1,1786986983168,-3402,6168,6652,-4199087,-844215,-729373,0,0,0,24,30,5,66,39,50,137,132,62,102,109,21,0,,
2,1786986983168,1789,1249,9696,406836,-24434,-58643,0,0,0,117,241,150,136,181,136,399,254,173,288,256,69,0,,
1,1786986983184,-3235,5297,7800,-4613254,-1376890,-861319,0,0,0,24,35,9,48,42,54,135,134,62,75,104,13,0,,
2,1786986983184,1751,1139,9667,398284,-69638,-67195,0,0,0,141,238,192,132,183,149,405,237,194,274,228,73,0,,
1,1786986983200,-1947,4704,9413,-4866152,-1799608,-1038470,0,0,0,25,35,6,53,41,53,140,135,63,74,106,7,0,,
2,1786986983200,1651,1033,9652,375071,-108734,-72082,0,0,0,135,249,171,146,190,155,398,237,193,285,183,90,0,,
1,1786986983216,-1239,4125,11165,-5103168,-1966986,-1295034,0,0,0,20,32,4,53,35,48,145,132,61,85,106,20,0,,
2,1786986983216,1579,976,9696,349414,-119729,-72082,0,0,0,141,251,170,155,194,159,399,249,177,275,180,73,0,,
1,1786986983232,-1335,3508,12806,-5313305,-2058615,-1392772,0,0,0,28,40,11,58,39,55,145,132,64,80,106,12,0,,
2,1786986983232,1584,942,9801,331088,-109955,-68416,0,0,0,151,277,183,164,197,182,396,206,196,278,167,83,0,,
1,1786986983248,-1517,2885,14405,-5480682,-2114815,-1320690,0,0,0,27,36,11,56,40,53,144,133,63,80,106,16,0,,
2,1786986983248,1617,899,9887,326202,-100181,-70860,0,0,0,157,265,202,164,186,198,395,203,216,282,156,108,0,,
1,1786986983264,-1727,1986,16238,-5617516,-2105041,-1032362,0,0,0,26,33,8,53,40,53,140,135,63,78,106,18,0,,
2,1786986983264,1651,856,9916,335975,-91629,-85521,0,0,0,151,264,207,164,189,205,383,206,224,264,155,118,0,,
1,1786986983280,-1698,1000,17870,-5661499,-1995085,-750142,0,0,0,26,35,8,53,37,56,140,132,64,77,104,16,0,,
2,1786986983280,1675,832,9940,359188,-79412,-111177,0,0,0,158,256,210,177,177,210,367,197,224,237,154,112,0,,
1,1786986983296,-2163,234,19526,-5551543,-1792278,-779464,0,0,0,31,33,10,63,34,58,148,125,60,82,102,10,0,,
2,1786986983296,1703,808,9973,394618,-59864,-141720,0,0,0,175,263,208,196,153,218,362,179,232,220,148,113,0,,
1,1786986983312,-3249,-196,21320,-5352401,-1751961,-1066570,0,0,0,30,33,9,63,30,50,150,123,58,79,99,10,0,,
2,1786986983312,1727,756,10016,439822,-28099,-178372,0,0,0,179,289,207,202,156,231,363,166,241,208,140,125,0,,
1,1786986983328,-4120,-1024,23766,-5120272,-1915673,-1518610,0,0,0,27,36,6,59,33,46,150,125,60,79,97,12,0,,
2,1786986983328,1751,655,10069,498466,2443,-222354,0,0,0,190,295,201,206,168,239,362,152,237,188,123,119,0,,
1,1786986983344,-4312,-3914,27212,-4856378,-2184454,-2040289,0,0,0,27,37,6,60,38,45,154,126,61,83,97,9,0,,
2,1786986983344,1770,574,10165,574213,26878,-266337,0,0,0,223,286,168,227,164,240,358,125,242,167,91,105,0,,
1,1786986983360,-4402,-8973,29456,-4753753,-2323731,-2283414,0,0,0,29,36,7,60,37,44,159,125,59,84,96,5,0,,
2,1786986983360,1828,521,10375,678060,50090,-306654,0,0,0,219,284,171,245,185,258,343,113,277,151,84,117,0,,
1,1786986983376,-5240,-17233,28245,-4928460,-2122145,-2069611,0,0,0,30,37,6,60,36,48,160,123,59,86,94,10,0,,
2,1786986983376,1952,512,10801,841772,56199,-349414,0,0,0,207,289,172,216,171,269,331,101,293,144,73,139,0,,
1,1786986983392,-4958,-28394,22167,-4806287,-2004859,-1163087,0,0,0,29,36,7,60,35,54,158,123,62,85,95,20,0,,
2,1786986983392,2091,483,11198,1049466,42760,-393397,0,0,0,222,250,150,243,168,303,297,83,313,159,68,141,0,,
1,1786986983408,435,-36534,16467,-3701843,-2279749,-30543,0,0,0,28,35,10,61,37,58,155,125,66,82,99,20,0,,
2,1786986983408,1990,358,11543,1298699,62308,-444709,0,0,0,215,280,116,248,177,287,211,81,325,140,81,176,0,,
1,1786986983424,9351,-38530,14850,-1611462,-1817934,518013,0,0,0,25,35,6,54,36,49,151,142,63,80,107,15,0,,
2,1786986983424,1493,205,12060,1607797,145385,-456927,0,0,0,218,263,116,262,174,294,225,109,297,141,71,163,0,,
1,1786986983440,13419,-37362,15864,234572,-478918,415388,0,0,0,26,48,4,46,28,41,169,149,55,90,102,7,0,,
2,1786986983440,1598,52,12663,1936442,163711,-432492,0,0,0,215,272,103,235,211,270,206,101,296,145,80,165,0,,
1,1786986983456,9428,-24096,17808,2042733,2103819,-235793,0,0,0,16,18,0,41,26,29,213,250,55,138,154,1,0,,
2,1786986983456,2455,-62,13596,2378709,92851,-453262,0,0,0,224,263,98,234,202,264,173,85,263,142,85,178,0,,
1,1786986983472,-1330,4589,14989,3029891,4351803,-794124,0,0,0,24,20,2,31,31,34,227,347,48,152,281,10,0,,
2,1786986983472,3584,-177,14620,2933374,-20769,-619417,0,0,0,204,281,104,234,206,253,167,77,240,138,78,171,0,,
1,1786986983488,-3627,15137,12021,3259576,4351803,-882089,0,0,0,19,21,0,43,30,42,283,387,54,188,367,10,0,,
2,1786986983488,4895,-344,15774,3637091,-155159,-929736,0,0,0,167,275,91,215,182,225,162,79,214,101,66,127,0,,
1,1786986983504,579,7748,14357,3977954,2945592,-684169,0,0,0,18,13,2,51,27,51,342,407,65,268,391,3,0,,
2,1786986983504,5742,-248,17750,4410447,-293215,-1346346,0,0,0,135,210,90,180,141,232,139,79,168,51,42,70,0,,
1,1786986983520,5010,-2354,21373,4489859,1028697,-163711,0,0,0,23,20,7,53,29,60,367,415,74,313,403,17,0,,
2,1786986983520,5977,153,20248,5192354,-515570,-1695761,0,0,0,108,152,79,166,118,215,148,72,126,44,27,36,0,,
1,1786986983536,2268,-1732,22684,3557679,131946,438601,0,0,0,29,23,13,64,33,67,392,420,74,320,404,20,0,,
2,1786986983536,6207,335,22813,5940053,-831998,-1908343,0,0,0,83,142,43,154,97,137,172,63,112,55,29,30,0,,
1,1786986983552,-3192,1483,15563,1988977,-156381,378736,0,0,0,40,28,10,72,31,61,422,430,71,347,408,14,0,,
2,1786986983552,6915,689,24321,6597344,-948062,-2105041,0,0,0,62,116,37,95,66,100,128,59,100,34,24,32,0,,
1,1786986983568,-4158,1670,10040,1175304,-274889,-56199,0,0,0,54,34,8,79,29,56,437,437,66,378,416,10,0,,
2,1786986983568,6858,1397,24924,7117801,-642630,-2372600,0,0,0,48,51,14,73,46,65,118,66,65,57,37,23,0,,
1,1786986983584,-2794,263,8887,728151,-213802,-280998,0,0,0,64,41,11,90,34,56,443,443,72,412,428,6,0,,
2,1786986983584,6896,2100,24680,7450112,-280998,-2623055,0,0,0,53,35,8,74,33,48,145,85,53,82,62,16,0,,
1,1786986983600,-2230,315,10016,274889,-63529,-177150,0,0,0,73,50,14,100,42,59,453,453,89,442,442,13,0,,
2,1786986983600,7867,3149,19492,7336491,-412944,-2800206,0,0,0,34,43,15,51,37,47,130,119,63,70,91,19,0,,
1,1786986983616,-2349,1095,10394,-8552,51312,-76969,0,0,0,82,58,18,104,42,69,466,466,87,451,451,23,0,,
2,1786986983616,7987,6106,12084,6641326,-970053,-2893057,0,0,0,37,47,22,54,40,55,126,115,75,66,85,21,0,,
1,1786986983632,-2297,1713,10126,-79412,92851,-42760,0,0,0,87,61,28,106,37,82,475,475,79,457,457,19,0,,
2,1786986983632,6647,13347,9940,3946189,-1464854,-2185675,0,0,0,29,48,14,54,40,47,126,112,60,66,83,14,0,,
1,1786986983648,-2153,1746,9973,-7330,42760,-26878,0,0,0,96,63,41,104,35,84,475,475,100,458,458,21,0,,
2,1786986983648,4929,17482,11313,-475253,-1802052,-378736,0,0,0,31,46,18,51,40,46,128,112,60,69,86,10,0,,
1,1786986983664,-2110,1722,10050,69638,0,2443,0,0,0,86,58,29,98,36,80,463,463,126,442,442,12,0,,
2,1786986983664,5675,11600,9399,-3130073,-2180788,1123992,0,0,0,33,42,12,58,46,52,134,119,66,71,86,16,0,,
1,1786986983680,-2086,1761,10169,158824,-40317,41538,0,0,0,89,60,32,113,40,82,453,453,103,434,434,25,0,,
2,1786986983680,7499,5417,5111,-3792251,-2098932,1508837,0,0,0,32,45,13,62,47,55,137,126,68,76,89,19,0,,
1,1786986983696,-2062,1751,9992,246789,-94073,62308,0,0,0,77,60,26,102,40,76,456,456,101,425,425,0,0,,
2,1786986983696,8097,3560,2727,-3536909,-1297477,1049466,0,0,0,33,51,19,62,50,59,136,127,68,73,91,18,0,,
1,1786986983712,-2134,1627,9705,302989,-133168,69638,0,0,0,73,64,26,98,40,81,445,445,122,403,417,16,0,,
2,1786986983712,6613,4938,3986,-3827681,-409279,658512,0,0,0,34,51,24,62,51,64,138,129,70,70,92,18,0,,
1,1786986983728,-2249,1469,9514,300545,-127059,68416,0,0,0,71,60,26,94,41,86,441,441,123,392,412,17,0,,
2,1786986983728,5254,5953,5833,-4427551,-15882,570548,0,0,0,37,51,25,63,50,65,137,128,72,70,91,18,0,,
1,1786986983744,-2301,1392,9485,250454,-80634,70860,0,0,0,67,60,28,90,44,89,432,432,117,378,407,17,0,,
2,1786986983744,4934,5685,7116,-5042081,42760,698829,0,0,0,37,51,22,67,48,64,141,126,72,71,89,18,0,,
1,1786986983760,-2292,1373,9499,201585,-39095,78190,0,0,0,72,63,30,95,42,97,428,428,129,370,397,22,0,,
2,1786986983760,5546,4288,7475,-5261993,271224,816115,0,0,0,32,51,20,70,50,65,147,131,70,72,94,20,0,,
1,1786986983776,-2278,1387,9499,168598,-8552,80634,0,0,0,70,63,33,94,42,117,425,421,146,356,382,28,0,,
2,1786986983776,5824,2995,8054,-5253441,737925,869872,0,0,0,32,52,19,70,55,63,141,136,71,71,104,20,0,,
1,1786986983792,-2263,1402,9509,155159,8552,80634,0,0,0,70,67,37,96,45,111,422,411,152,340,375,30,0,,
2,1786986983792,5273,2589,9337,-5104389,1240056,910189,0,0,0,35,56,26,69,49,65,136,127,76,77,98,21,0,,
1,1786986983808,-2196,1383,9557,146607,24434,80634,0,0,0,78,77,41,102,52,107,420,409,150,328,368,26,0,,
2,1786986983808,4766,3043,11112,-5126381,1436755,1056796,0,0,0,32,57,31,64,55,73,134,124,77,75,98,24,0,,
1,1786986983824,-2144,1344,9585,134390,28099,78190,0,0,0,80,80,40,107,58,100,418,408,130,326,361,23,0,,
2,1786986983824,4857,3402,13132,-5343849,1554041,1255938,0,0,0,30,55,20,67,58,68,139,137,77,75,104,26,0,,
1,1786986983840,-2115,1316,9585,120951,20769,70860,0,0,0,76,81,33,110,59,97,417,411,100,321,357,18,0,,
2,1786986983840,5259,3139,14965,-5616295,1696983,1359786,0,0,0,38,55,24,70,56,65,144,136,73,78,102,14,0,,
1,1786986983856,-2100,1306,9624,114842,2443,67195,0,0,0,80,89,32,110,59,113,416,412,96,310,355,17,0,,
2,1786986983856,5149,2407,17056,-5739689,1912008,1318247,0,0,0,32,57,20,70,60,68,143,145,76,78,109,21,0,,
1,1786986983872,-2096,1287,9691,116064,-12217,69638,0,0,0,89,99,42,106,59,113,412,393,118,319,352,44,0,,
2,1786986983872,4709,1775,19320,-5716476,2097711,1279151,0,0,0,35,58,17,65,55,66,147,145,76,81,106,25,0,,
1,1786986983888,-2115,1277,9743,128281,-28099,84299,0,0,0,88,107,38,103,61,105,407,368,100,318,342,84,0,,
2,1786986983888,4402,1631,21655,-5604077,2243097,1352455,0,0,0,39,58,24,68,58,69,148,145,79,82,107,25,0,,
1,1786986983904,-2163,1282,9763,156381,-32986,107512,0,0,0,92,111,41,109,70,107,401,340,128,293,320,41,0,,
2,1786986983904,4020,1579,24364,-5568647,2354274,1637118,0,0,0,35,56,23,68,60,71,148,142,80,81,103,22,0,,
1,1786986983920,-2230,1273,9753,205250,-28099,139277,0,0,0,104,117,51,120,63,122,396,315,120,292,271,53,0,,
2,1786986983920,3335,47,27417,-5617516,2371378,2217440,0,0,0,35,56,23,63,57,68,148,141,81,81,99,24,0,,
1,1786986983936,-2234,1229,9758,255341,-17104,166155,0,0,0,131,127,71,135,79,163,396,288,168,287,225,72,0,,
2,1786986983936,2919,-4144,29069,-5590638,2316400,2800206,0,0,0,34,53,21,65,55,65,149,133,79,81,93,23,0,,
1,1786986983952,-2206,1201,9791,316428,-10995,193033,0,0,0,146,159,69,166,87,179,393,252,191,266,209,100,0,,
2,1786986983952,2177,-11083,28801,-5235115,2164906,2940705,0,0,0,35,49,18,72,56,64,154,126,76,83,88,21,0,,
1,1786986983968,-2263,1201,9810,419053,-6108,217468,0,0,0,126,186,72,157,108,186,385,226,155,241,165,138,0,,
2,1786986983968,2766,-20866,25623,-4585154,1503950,2506990,0,0,0,40,51,18,72,56,66,156,129,75,84,91,19,0,,
1,1786986983984,-2349,1182,9882,554665,0,239459,0,0,0,134,218,83,165,112,211,386,184,208,213,121,139,0,,
2,1786986983984,4551,-30634,18588,-3543018,833220,1164309,0,0,0,38,52,23,70,57,70,149,130,76,81,94,19,0,,
1,1786986984000,-2364,1134,10107,719599,0,260228,0,0,0,124,227,111,174,122,233,358,189,227,170,120,146,0,,
2,1786986984000,-14,-35170,13720,-2076941,1279151,-901637,0,0,0,35,53,27,71,58,77,152,130,80,84,101,29,0,,
1,1786986984016,-2316,1052,10533,906524,-39095,272445,0,0,0,125,255,112,188,146,257,338,153,242,133,100,150,0,,
2,1786986984016,-8236,-35147,14314,-818559,1345125,-2124589,0,0,0,36,53,27,71,57,75,155,132,82,86,105,28,0,,
1,1786986984032,-2421,909,10940,1109331,-97738,290771,0,0,0,125,259,95,201,173,277,312,121,250,110,77,180,0,,
2,1786986984032,-11643,-31820,16286,504574,50090,-2125811,0,0,0,37,52,22,67,54,68,156,134,77,83,100,25,0,,
1,1786986984048,-2435,689,11615,1386664,-196698,329867,0,0,0,133,249,81,219,202,310,272,100,257,112,73,219,0,,
2,1786986984048,-4637,-24737,15601,1869247,-1396437,-1503950,0,0,0,40,45,20,68,41,64,167,105,76,82,81,23,0,,
1,1786986984064,-2407,449,12864,1825265,-365297,388510,0,0,0,134,259,74,240,208,342,225,85,275,113,76,236,0,,
2,1786986984064,2053,-14926,15558,2787988,-1875356,-1069014,0,0,0,43,45,11,81,41,52,218,169,72,135,157,14,0,,
1,1786986984080,-2756,335,13625,2280970,-541226,474031,0,0,0,119,270,78,250,196,354,183,89,298,99,80,244,0,,
2,1786986984080,5192,8155,17932,3073873,-1960877,-508239,0,0,0,24,35,5,47,44,40,190,283,57,135,272,11,0,,
1,1786986984096,-2967,406,13936,2736676,-643851,626747,0,0,0,119,250,87,246,215,367,161,99,312,100,95,258,0,,
2,1786986984096,5565,26384,12591,2590068,-2470339,448375,0,0,0,25,24,13,51,38,51,222,332,70,213,355,20,0,,
1,1786986984112,-3048,425,14563,3230255,-596204,753807,0,0,0,116,243,81,238,231,363,152,97,305,90,97,249,0,,
2,1786986984112,1521,14749,8399,3167947,-2382374,858876,0,0,0,30,38,4,78,48,54,266,384,52,291,401,15,0,,
1,1786986984128,-3689,421,15668,3831346,-367740,846659,0,0,0,114,233,77,212,212,311,162,87,283,92,79,217,0,,
2,1786986984128,-3838,-4938,15697,4778187,-962723,340862,0,0,0,41,38,14,76,46,55,308,413,56,332,425,16,0,,
1,1786986984144,-5020,440,17008,4549724,-14660,1001818,0,0,0,111,210,74,190,175,287,167,89,249,75,65,152,0,,
2,1786986984144,-1469,-4053,21957,4317595,-65973,-477696,0,0,0,49,65,21,71,51,58,352,421,67,363,434,26,0,,
1,1786986984160,-6460,224,18846,5210680,206472,1248608,0,0,0,150,138,68,239,108,207,213,77,240,102,35,98,0,,
2,1786986984160,3718,603,19794,2839301,-135612,-723264,0,0,0,63,70,23,79,51,60,398,427,70,401,437,22,0,,
1,1786986984176,-9241,-205,21627,5913175,270002,1659109,0,0,0,70,102,48,158,92,201,148,72,214,56,35,68,0,,
2,1786986984176,5096,1904,13103,1536936,-465479,-166155,0,0,0,86,53,29,92,50,65,428,434,72,433,442,15,0,,
1,1786986984192,-11471,-19,24340,6525262,318871,2273640,0,0,0,47,82,33,86,66,122,104,92,118,52,61,44,0,,
2,1786986984192,2651,670,9853,987158,-377514,204028,0,0,0,106,61,35,108,61,72,441,443,73,452,452,25,0,,
1,1786986984208,-10495,1569,25594,6919881,724486,2833192,0,0,0,36,47,8,64,44,65,92,88,98,38,57,18,0,,
2,1786986984208,1612,43,9753,575435,-267558,196698,0,0,0,112,65,45,117,57,80,455,458,78,464,467,28,0,,
1,1786986984224,-9619,4460,25159,7255857,1092227,3216816,0,0,0,17,36,1,35,37,37,97,116,62,63,83,8,0,,
2,1786986984224,2005,540,10524,245567,-301767,80634,0,0,0,108,74,58,111,57,89,464,472,95,473,482,30,0,,
1,1786986984240,-10236,8399,21641,7390247,1178969,3440393,0,0,0,16,26,7,30,26,34,112,114,81,62,84,14,0,,
2,1786986984240,1995,1153,10428,32986,-256563,52534,0,0,0,113,70,54,122,54,81,477,479,73,487,494,26,0,,
1,1786986984256,-11203,11600,14840,6780604,1039692,3492927,0,0,0,16,26,3,34,31,33,131,121,86,52,91,12,0,,
2,1786986984256,1933,1363,10078,-12217,-139277,51312,0,0,0,122,75,61,127,47,87,480,480,67,493,493,24,0,,
1,1786986984272,-9959,14544,10969,4922352,852767,3060434,0,0,0,11,29,0,32,39,29,122,138,79,48,103,8,0,,
2,1786986984272,2033,1392,9925,17104,-64751,39095,0,0,0,121,77,60,116,48,88,472,478,94,491,491,38,0,,
1,1786986984288,-6058,17573,10887,1018923,990823,1411098,0,0,0,10,31,2,29,42,28,112,149,79,49,114,9,0,,
2,1786986984288,2053,1517,10069,75747,-64751,12217,0,0,0,124,85,60,122,51,89,452,469,86,485,485,26,0,,
1,1786986984304,-4350,15970,10629,-2605951,1612684,-775798,0,0,0,15,34,6,28,42,28,114,153,80,49,122,7,0,,
2,1786986984304,1957,1574,10117,166155,-34208,-7330,0,0,0,113,73,52,123,52,84,435,447,77,460,460,26,0,,
1,1786986984320,-7193,10150,6853,-3707952,1704314,-1778839,0,0,0,14,35,5,29,45,28,114,156,80,48,126,4,0,,
2,1786986984320,1890,1478,9983,278554,36651,-21991,0,0,0,109,69,44,134,52,83,434,422,75,448,448,26,0,,
1,1786986984336,-9097,6331,3876,-3692069,927293,-1587027,0,0,0,9,30,0,30,46,30,117,158,86,52,131,10,0,,
2,1786986984336,1947,1335,9753,317649,69638,-15882,0,0,0,112,78,42,133,52,86,429,392,78,432,439,26,0,,
1,1786986984352,-7537,5594,3871,-3738495,-146607,-921184,0,0,0,11,33,1,29,44,27,119,162,86,55,132,11,0,,
2,1786986984352,2024,1249,9595,310319,68416,-7330,0,0,0,109,80,52,125,48,100,426,378,101,413,430,33,0,,
1,1786986984368,-5001,6302,6034,-4510628,-254119,-849102,0,0,0,9,36,0,34,47,29,122,166,85,58,127,10,0,,
2,1786986984368,2100,1210,9533,278554,45204,-2443,0,0,0,106,78,55,124,48,99,420,364,103,392,411,32,0,,
1,1786986984384,-4570,6235,7901,-5459913,-17104,-1078788,0,0,0,11,36,0,33,50,31,119,164,86,51,125,7,0,,
2,1786986984384,2144,1182,9523,243124,12217,-9773,0,0,0,113,81,57,127,53,90,412,344,90,372,387,31,0,,
1,1786986984400,-5967,4958,8911,-6145304,-62308,-1296256,0,0,0,13,36,0,33,48,30,123,162,86,53,122,0,0,,
2,1786986984400,2153,1177,9499,213802,-21991,-19547,0,0,0,114,84,63,123,55,91,409,325,94,359,375,34,0,,
1,1786986984416,-6594,3350,9724,-6395759,-590095,-1317025,0,0,0,14,34,4,35,47,29,131,158,89,61,127,15,0,,
2,1786986984416,2129,1186,9509,199142,-57421,-30543,0,0,0,113,84,65,120,55,90,407,306,97,354,358,30,0,,
1,1786986984432,-6034,2325,11093,-6345668,-1116661,-1271821,0,0,0,14,37,4,38,43,29,130,143,90,63,122,4,0,,
2,1786986984432,2072,1158,9566,199142,-76969,-35430,0,0,0,123,80,80,123,52,93,407,295,99,348,336,29,0,,
1,1786986984448,-5685,1785,12758,-6306572,-1439198,-1229060,0,0,0,14,34,0,39,40,30,132,141,90,65,120,7,0,,
2,1786986984448,2010,1105,9643,199142,-76969,-40317,0,0,0,117,78,87,128,54,101,405,285,109,347,317,33,0,,
1,1786986984464,-5580,1306,15080,-6348111,-1677435,-1093448,0,0,0,14,36,0,40,41,31,134,137,89,66,121,10,0,,
2,1786986984464,2000,1028,9691,202807,-59864,-46425,0,0,0,105,93,71,124,75,113,394,277,119,339,286,39,0,,
1,1786986984480,-5374,741,17257,-6363994,-1839926,-904080,0,0,0,16,37,3,39,42,32,131,137,93,61,117,6,0,,
2,1786986984480,2053,995,9691,222354,-45204,-58643,0,0,0,109,102,103,129,77,144,401,268,177,332,274,63,0,,
1,1786986984496,-5144,110,19282,-6279694,-1926668,-774577,0,0,0,17,37,1,45,43,34,133,140,97,57,112,6,0,,
2,1786986984496,2110,1009,9705,261450,-43982,-75747,0,0,0,108,98,144,111,54,132,376,265,198,316,254,71,0,,
1,1786986984512,-5393,-612,21450,-6012135,-2018298,-904080,0,0,0,18,41,0,44,46,31,131,151,96,57,115,7,0,,
2,1786986984512,2120,1067,9782,321315,-56199,-91629,0,0,0,120,109,115,131,67,139,401,230,206,300,231,57,0,,
1,1786986984528,-5518,-1646,23833,-5630955,-2257757,-1222952,0,0,0,17,41,0,41,46,29,121,149,94,56,115,4,0,,
2,1786986984528,2120,1052,9916,410501,-63529,-103847,0,0,0,137,121,124,140,81,155,410,239,227,274,209,76,0,,
