sole_id,timestamp,accel_x,accel_y,accel_z,gyro_x,gyro_y,gyro_z,magn_x,magn_y,magn_z,pressure_01,pressure_02,pressure_03,pressure_04,pressure_05,pressure_06,pressure_07,pressure_08,pressure_09,pressure_10,pressure_11,pressure_12,corrupt,asphalt,brick,transition
1,1775669099264,-2273,1445,9566,119729,19547,36651,0,0,0,374,409,279,384,289,425,525,384,374,434,432,360,0,,,
2,1775669099264,263,679,18444,-4786740,1249830,1043357,0,0,0,239,420,244,328,361,369,341,319,267,144,151,214,0,,,
1,1775669099280,-2273,1430,9595,124616,18325,36651,0,0,0,377,380,283,391,255,444,532,382,380,422,418,368,0,,,
2,1775669099280,492,-1598,18736,-4689001,1165530,1065348,0,0,0,238,418,241,326,359,371,342,320,268,142,150,212,0,,,
1,1775669099296,-2278,1411,9633,133168,17104,39095,0,0,0,376,371,291,395,246,437,529,365,376,411,396,374,0,,,
2,1775669099296,550,-4388,18832,-4414112,1060462,1058018,0,0,0,238,418,240,329,360,372,342,321,269,143,151,213,0,,,
1,1775669099312,-2278,1411,9681,158824,8552,46425,0,0,0,383,386,287,400,251,440,524,340,370,404,373,371,0,,,
2,1775669099312,344,-6661,18272,-3988950,919963,988379,0,0,0,239,419,242,331,362,372,342,322,269,145,153,213,0,,,
1,1775669099328,-2268,1416,9700,194255,-3665,57421,0,0,0,384,385,286,413,263,450,518,320,371,408,350,373,0,,,
2,1775669099328,177,-8279,17228,-3485597,753807,844215,0,0,0,240,420,243,329,361,371,340,320,266,145,153,213,0,,,
1,1775669099344,-2234,1383,9715,232128,-21991,65973,0,0,0,399,386,281,418,263,436,509,315,366,395,339,385,0,,,
2,1775669099344,258,-9657,15826,-2868623,581543,607200,0,0,0,238,420,239,329,360,369,340,317,265,147,154,215,0,,,
1,1775669099360,-2239,1335,9739,267558,-41538,69638,0,0,0,409,394,276,424,260,435,500,305,362,384,330,395,0,,,
2,1775669099360,354,-11069,14587,-2257757,480140,365297,0,0,0,235,418,233,331,363,368,344,322,265,150,159,214,0,,,
1,1775669099376,-2278,1282,9739,293215,-51312,75747,0,0,0,401,401,270,424,285,452,488,289,367,384,327,400,0,,,
2,1775669099376,-636,-13318,14122,-1525941,377514,172263,0,0,0,234,416,231,328,362,365,351,344,264,155,175,214,0,,,
1,1775669099392,-2282,1220,9724,310319,-47647,81855,0,0,0,395,403,268,415,314,453,473,279,376,373,323,407,0,,,
2,1775669099392,-2550,-16554,14170,-656069,61086,166155,0,0,0,233,411,229,324,356,360,362,364,261,173,196,212,0,,,
1,1775669099408,-2268,1172,9758,331088,-47647,89186,0,0,0,408,401,276,417,311,450,461,271,381,351,299,418,0,,,
2,1775669099408,-3713,-20133,14142,561996,-443488,316428,0,0,0,234,406,227,326,352,360,370,380,253,199,215,207,0,,,
1,1775669099424,-2263,1139,9810,365297,-57421,98960,0,0,0,427,403,276,420,324,456,457,276,386,347,291,436,0,,,
2,1775669099424,-3622,-20837,14462,1791056,-774577,465479,0,0,0,239,414,232,331,360,361,381,406,253,178,216,206,0,,,
1,1775669099440,-2230,1095,9849,406836,-72082,107512,0,0,0,425,402,256,416,321,461,456,254,383,341,265,432,0,,,
2,1775669099440,-1631,-9562,14309,2455678,-697608,487470,0,0,0,239,414,234,326,360,358,381,415,255,174,229,203,0,,,
1,1775669099456,-2153,1062,10002,483805,-114842,117286,0,0,0,414,395,264,417,315,454,444,222,383,328,239,434,0,,,
2,1775669099456,555,6173,12026,2029294,-472809,266337,0,0,0,241,411,232,333,363,361,389,418,254,187,237,204,0,,,
1,1775669099472,-2148,1033,10332,610865,-202807,123394,0,0,0,420,395,237,427,314,472,452,219,388,324,231,444,0,,,
2,1775669099472,1072,8710,9710,1813048,-540004,-91629,0,0,0,242,411,231,333,360,358,391,422,254,183,233,201,0,,,
1,1775669099488,-2120,914,10605,773355,-255341,122173,0,0,0,435,384,231,438,301,470,450,212,389,336,217,474,0,,,
2,1775669099488,1584,3886,9863,2171015,-456927,-235793,0,0,0,243,410,234,336,361,361,393,419,250,186,235,201,0,,,
1,1775669099504,-1938,827,10916,994488,-279776,92851,0,0,0,435,376,218,450,307,485,416,217,412,327,218,484,0,,,
2,1775669099504,2402,2239,10045,2458121,-151494,-103847,0,0,0,243,414,242,333,362,364,396,423,256,183,236,202,0,,,
1,1775669099520,-2124,832,11251,1197295,-329867,63529,0,0,0,438,389,207,464,329,480,392,205,393,320,210,498,0,,,
2,1775669099520,2038,3254,9509,2607172,24434,76969,0,0,0,253,423,262,329,356,363,408,422,261,185,234,205,0,,,
1,1775669099536,-2732,746,11323,1380555,-382401,86742,0,0,0,439,393,200,470,325,491,371,194,394,312,199,514,0,,,
2,1775669099536,947,2737,11490,2466673,-65973,-1221,0,0,0,273,428,278,340,360,365,426,422,259,191,231,209,0,,,
1,1775669099552,-3225,497,11280,1594358,-366519,191811,0,0,0,442,395,208,456,337,487,347,193,403,298,193,522,0,,,
2,1775669099552,1464,799,13797,1617571,-217468,-108734,0,0,0,304,431,289,355,368,371,442,419,260,203,227,226,0,,,
1,1775669099568,-3407,291,11462,1797165,-304210,312763,0,0,0,439,397,219,447,345,481,331,197,415,287,193,526,0,,,
2,1775669099568,2096,492,12514,582765,-272445,-40317,0,0,0,334,438,298,365,369,377,452,410,265,225,230,247,0,,,
1,1775669099584,-3460,177,11868,2036624,-185703,439822,0,0,0,432,391,217,440,342,481,309,191,417,273,188,529,0,,,
2,1775669099584,1526,1876,9710,51312,-251676,25656,0,0,0,357,446,303,372,367,381,458,406,267,242,236,261,0,,,
1,1775669099600,-3584,57,12333,2302961,-41538,560774,0,0,0,433,379,208,416,337,477,276,179,407,252,174,525,0,,,
2,1775669099600,1095,2632,8863,-63529,-233350,12217,0,0,0,381,453,307,384,373,388,473,413,273,241,228,275,0,,,
1,1775669099616,-3780,-110,12883,2559525,69638,669508,0,0,0,438,370,218,388,321,477,247,175,409,231,163,508,0,,,
2,1775669099616,1407,2368,9533,-73303,-267558,-3665,0,0,0,399,461,309,391,379,389,493,422,278,242,228,282,0,,,
1,1775669099632,-3737,-387,13620,2863736,177150,786794,0,0,0,442,356,240,383,307,470,234,163,406,207,147,481,0,,,
2,1775669099632,1651,2225,9739,-164933,-340862,3665,0,0,0,411,469,319,393,381,394,494,431,280,245,238,282,0,,,
1,1775669099648,-3699,-631,14434,3226590,277332,886976,0,0,0,439,361,244,378,310,450,235,158,394,188,129,449,0,,,
2,1775669099648,1521,2316,9834,-219911,-398284,7330,0,0,0,423,473,330,391,379,393,495,438,280,243,235,282,0,,,
1,1775669099664,-3742,-856,15462,3610213,313984,957836,0,0,0,443,350,223,379,284,429,245,151,371,176,116,394,0,,,
2,1775669099664,1249,2459,9925,-189368,-371406,1221,0,0,0,423,474,326,394,381,394,495,436,280,251,238,290,0,,,
1,1775669099680,-3881,-1129,16357,4036597,361632,1007927,0,0,0,401,356,206,395,300,416,237,157,364,181,127,330,0,,,
2,1775669099680,1148,2541,9901,-119729,-266337,-1221,0,0,0,432,484,343,396,381,398,507,446,288,250,238,291,0,,,
1,1775669099696,-4656,-1493,16625,4440990,516791,1088561,0,0,0,354,346,200,373,279,390,232,164,355,183,135,302,0,,,
2,1775669099696,1220,2536,9748,-90408,-197920,0,0,0,0,436,490,340,396,386,399,504,449,283,249,247,291,0,,,
1,1775669099712,-5900,-1416,16429,4796513,668286,1268156,0,0,0,365,339,213,361,274,360,248,177,336,198,154,285,0,,,
2,1775669099712,1239,2507,9633,-84299,-167377,0,0,0,0,433,487,339,398,388,403,508,462,287,247,258,292,0,,,
1,1775669099728,-5843,-1095,16290,5076290,800233,1475850,0,0,0,316,336,212,317,262,328,257,195,318,202,182,248,0,,,
2,1775669099728,1191,2541,9652,-86742,-150272,0,0,0,0,435,490,339,402,390,409,517,462,295,255,257,301,0,,,
1,1775669099744,-5226,-1325,15912,5263214,1092227,1620014,0,0,0,279,302,211,286,218,307,276,213,298,202,206,208,0,,,
2,1775669099744,1186,2641,9729,-50090,-111177,0,0,0,0,434,489,338,407,398,412,517,460,299,264,264,304,0,,,
1,1775669099760,-5546,-1742,14017,5279097,1616349,1681101,0,0,0,267,264,205,275,177,273,305,223,268,212,230,161,0,,,
2,1775669099760,1225,2723,9772,19547,-81855,-2443,0,0,0,438,490,339,405,397,409,515,456,298,267,269,308,0,,,
1,1775669099776,-5996,-674,11227,5057964,2076941,1705535,0,0,0,264,251,201,276,162,255,321,226,252,219,244,137,0,,,
2,1775669099776,1249,2703,9786,101403,-75747,-12217,0,0,0,440,491,344,406,395,411,514,454,297,270,271,318,0,,,
1,1775669099792,-7748,3905,8868,4191757,2167349,1539380,0,0,0,263,256,203,282,163,261,322,225,254,220,243,140,0,,,
2,1775669099792,1210,2584,9734,138055,-68416,-19547,0,0,0,442,492,350,408,394,415,515,453,297,273,271,326,0,,,
1,1775669099808,-9810,9772,8624,2124589,1374446,950506,0,0,0,264,259,203,278,173,256,325,225,254,225,238,142,0,,,
2,1775669099808,1206,2526,9710,129503,-53756,-21991,0,0,0,451,497,360,408,392,416,516,450,299,273,267,331,0,,,
1,1775669099824,-7815,10964,9485,-893084,366519,-94073,0,0,0,260,262,206,265,193,251,329,231,259,228,239,143,0,,,
2,1775669099824,1229,2536,9758,111177,-37873,-23212,0,0,0,457,503,365,411,394,422,514,448,301,272,263,337,0,,,
1,1775669099840,-6087,7331,8092,-2548529,256563,-695164,0,0,0,246,265,212,271,169,266,329,238,269,224,244,147,0,,,
2,1775669099840,1244,2541,9782,106290,-21991,-26878,0,0,0,455,503,356,416,401,433,515,449,305,269,260,341,0,,,
1,1775669099856,-6211,3201,5441,-2834414,257785,-541226,0,0,0,242,267,212,277,169,268,331,237,271,224,245,145,0,,,
2,1775669099856,1249,2502,9729,103847,-9773,-31764,0,0,0,458,507,358,417,405,432,520,455,312,267,262,340,0,,,
1,1775669099872,-4742,3172,5455,-2955366,-211359,-124616,0,0,0,252,270,207,293,173,264,337,237,264,229,238,141,0,,,
2,1775669099872,1234,2464,9662,91629,0,-32986,0,0,0,453,505,353,416,407,431,516,447,313,266,242,343,0,,,
1,1775669099888,-2397,4297,6858,-3458718,-364075,-135612,0,0,0,241,270,210,279,180,272,329,237,267,228,246,144,0,,,
2,1775669099888,1225,2445,9629,75747,3665,-35430,0,0,0,456,510,353,412,401,425,447,414,322,256,228,337,0,,,
1,1775669099904,-2086,4637,7738,-4148996,-290771,-511905,0,0,0,238,271,209,279,177,274,328,238,269,229,247,145,0,,,
2,1775669099904,1234,2483,9633,75747,6108,-37873,0,0,0,456,513,349,418,404,429,511,438,313,264,232,345,0,,,
1,1775669099920,-2368,4015,8121,-4621806,-568104,-689055,0,0,0,238,272,211,277,182,275,330,241,274,232,250,147,0,,,
2,1775669099920,1268,2512,9648,89186,3665,-40317,0,0,0,452,507,349,418,407,437,516,440,317,261,233,345,0,,,
1,1775669099936,-1660,2866,8930,-4840496,-1095892,-608421,0,0,0,238,271,212,279,178,276,332,236,277,232,247,148,0,,,
2,1775669099936,1296,2483,9638,101403,-4886,-43982,0,0,0,452,509,347,418,409,436,500,433,319,255,226,342,0,,,
1,1775669099952,-138,2100,10370,-4866152,-1400103,-431270,0,0,0,236,271,212,281,174,279,333,235,282,234,248,147,0,,,
2,1775669099952,1301,2426,9600,90408,-24434,-43982,0,0,0,448,510,347,418,412,439,508,435,317,258,224,345,0,,,
1,1775669099968,1387,1588,11969,-4908913,-1492954,-250454,0,0,0,235,272,213,277,174,279,331,237,286,233,250,149,0,,,
2,1775669099968,1316,2426,9609,81855,-52534,-43982,0,0,0,448,511,346,420,413,443,517,437,322,262,225,353,0,,,
1,1775669099984,2526,1134,13428,-4959004,-1372003,-24434,0,0,0,236,273,216,275,170,280,333,235,289,239,248,152,0,,,
2,1775669099984,1296,2459,9662,89186,-72082,-42760,0,0,0,447,515,346,421,412,444,517,434,324,263,224,358,0,,,
1,1775669100000,3560,478,14749,-4957782,-1264491,226020,0,0,0,236,270,217,277,168,283,338,234,291,247,242,151,0,,,
2,1775669100000,1263,2450,9686,97738,-83077,-37873,0,0,0,446,521,349,420,410,443,513,432,322,261,222,360,0,,,
1,1775669100016,4632,-540,15596,-4895474,-1182635,320093,0,0,0,233,272,216,269,180,282,336,249,295,229,245,149,0,,,
2,1775669100016,1263,2421,9686,96516,-84299,-28099,0,0,0,446,521,351,423,413,444,511,429,323,260,221,361,0,,,
1,1775669100032,5072,-1909,15965,-4713436,-985936,156381,0,0,0,233,273,215,260,195,276,337,251,293,229,246,151,0,,,
2,1775669100032,1296,2402,9676,92851,-92851,-20769,0,0,0,445,515,348,428,417,447,511,425,327,259,218,362,0,,,
1,1775669100048,4699,-2967,16190,-4464203,-801455,-125838,0,0,0,237,274,215,276,176,281,335,253,294,231,248,148,0,,,
2,1775669100048,1287,2383,9657,94073,-106290,-20769,0,0,0,451,519,355,428,424,450,514,425,331,260,215,366,0,,,
1,1775669100064,3642,-4498,16367,-4155105,-640186,-502131,0,0,0,235,273,215,276,173,281,336,254,294,231,248,149,0,,,
2,1775669100064,1253,2383,9672,97738,-114842,-21991,0,0,0,447,523,352,432,433,451,511,419,326,264,219,368,0,,,
1,1775669100080,2100,-6877,16137,-3760486,-460592,-814894,0,0,0,235,275,216,276,176,284,337,253,294,231,248,150,0,,,
2,1775669100080,1253,2388,9734,103847,-117286,-21991,0,0,0,454,528,359,432,428,453,510,416,334,262,217,370,0,,,
1,1775669100096,440,-9030,15372,-3293785,-344527,-941954,0,0,0,233,276,217,279,182,285,335,253,294,230,248,149,0,,,
2,1775669100096,1282,2378,9786,118507,-116064,-24434,0,0,0,457,529,358,432,436,456,509,407,334,259,207,379,0,,,
1,1775669100112,-689,-10342,14367,-2772106,-353080,-1036027,0,0,0,232,276,216,276,182,286,333,252,294,229,249,149,0,,,
2,1775669100112,1292,2378,9810,150272,-119729,-32986,0,0,0,455,527,362,438,435,463,505,405,335,259,207,388,0,,,
1,1775669100128,-985,-11208,13491,-2293188,-427605,-1211956,0,0,0,229,276,215,274,185,284,331,255,294,230,253,148,0,,,
2,1775669100128,1268,2378,9849,197920,-119729,-43982,0,0,0,459,529,373,431,438,466,506,396,340,257,202,398,0,,,
1,1775669100144,-555,-12026,12763,-1902234,-483805,-1368338,0,0,0,230,276,216,276,185,285,329,256,294,229,253,148,0,,,
2,1775669100144,1234,2359,9882,250454,-109955,-52534,0,0,0,462,535,376,437,445,464,501,383,341,260,198,407,0,,,
1,1775669100160,-138,-12845,12012,-1552819,-464257,-1357342,0,0,0,232,278,218,278,184,287,330,254,294,233,255,150,0,,,
2,1775669100160,1220,2306,9925,306654,-86742,-58643,0,0,0,462,542,378,439,433,468,446,357,347,258,191,411,0,,,
1,1775669100176,9,-13563,11064,-1150870,-338419,-1141096,0,0,0,233,278,214,277,181,282,334,252,291,247,262,149,0,,,
2,1775669100176,1253,2254,9983,362853,-63529,-65973,0,0,0,464,549,391,440,429,476,450,333,348,259,187,419,0,,,
1,1775669100192,-727,-14773,10595,-724486,-230907,-899193,0,0,0,234,276,212,273,175,278,338,260,288,260,283,146,0,,,
2,1775669100192,1330,2201,10064,414166,-52534,-75747,0,0,0,463,551,402,444,435,484,474,318,351,262,185,431,0,,,
1,1775669100208,-2091,-20535,11122,145385,-392175,-607200,0,0,0,237,273,217,275,172,279,352,283,286,278,311,141,0,,,
2,1775669100208,1421,2158,10208,469144,-63529,-91629,0,0,0,459,550,395,449,445,493,465,304,356,263,183,441,0,,,
1,1775669100224,-1842,-21143,12974,1726305,-681725,-366519,0,0,0,241,269,217,284,172,279,377,305,284,309,330,132,0,,,
2,1775669100224,1450,2134,10361,552222,-101403,-117286,0,0,0,462,552,374,455,454,492,451,287,356,263,182,449,0,,,
1,1775669100240,-1292,-7231,15027,2278527,-445931,-216246,0,0,0,239,271,217,286,176,280,387,323,281,317,354,130,0,,,
2,1775669100240,1407,2086,10581,689055,-133168,-146607,0,0,0,471,558,358,455,450,485,437,274,350,263,178,452,0,,,
1,1775669100256,-756,6834,13720,1194852,412944,101403,0,0,0,248,271,222,294,171,279,420,336,276,344,372,125,0,,,
2,1775669100256,1564,1990,10930,846659,-189368,-167377,0,0,0,472,562,334,448,454,495,412,261,338,259,175,449,0,,,
1,1775669100272,-1799,5757,10887,728151,636521,410501,0,0,0,252,272,225,292,167,277,433,344,274,359,374,127,0,,,
2,1775669100272,1665,1899,11442,1034805,-357967,-186924,0,0,0,472,567,305,443,463,474,386,262,337,257,181,454,0,,,
1,1775669100288,-2842,1794,10509,946841,372627,326202,0,0,0,252,274,231,286,171,276,443,353,284,359,390,127,0,,,
2,1775669100288,1598,1852,11921,1236391,-581543,-191811,0,0,0,474,558,299,444,469,478,363,256,327,261,184,463,0,,,
1,1775669100304,-2230,1081,10820,940732,274889,100181,0,0,0,258,288,235,284,184,274,444,409,272,360,418,127,0,,,
2,1775669100304,1541,1818,12256,1484402,-759916,-206472,0,0,0,476,564,293,440,468,469,337,258,315,257,185,465,0,,,
1,1775669100320,-1497,1861,10447,646295,327423,34208,0,0,0,277,289,239,295,179,275,458,413,281,375,423,122,0,,,
2,1775669100320,1560,1679,12615,1772730,-792903,-249233,0,0,0,477,550,273,433,463,454,325,259,307,256,189,463,0,,,
1,1775669100336,-1440,1990,10246,316428,289550,43982,0,0,0,296,292,239,305,194,292,465,426,280,386,424,118,0,,,
2,1775669100336,1708,1545,13017,2080607,-796568,-309097,0,0,0,483,538,265,433,455,436,316,252,304,256,181,451,0,,,
1,1775669100352,-1579,1722,10256,112399,117286,25656,0,0,0,316,291,243,325,193,291,466,422,280,394,428,115,0,,,
2,1775669100352,1914,1450,13251,2394591,-808785,-393397,0,0,0,482,530,268,418,451,441,303,248,299,246,175,447,0,,,
1,1775669100368,-1603,1895,10126,19547,-10995,10995,0,0,0,330,291,241,342,195,288,467,402,277,404,425,120,0,,,
2,1775669100368,1909,1225,13424,2703689,-853989,-485026,0,0,0,479,517,266,409,451,434,282,239,289,238,171,428,0,,,
1,1775669100384,-1684,2067,9968,29321,-81855,6108,0,0,0,335,296,241,346,202,289,471,398,279,417,430,124,0,,,
2,1775669100384,1751,1014,13673,3005456,-922406,-563217,0,0,0,472,512,259,398,446,419,275,232,285,233,169,410,0,,,
1,1775669100400,-1794,2053,9806,36651,-109955,6108,0,0,0,333,300,247,342,199,291,482,407,294,419,443,123,0,,,
2,1775669100400,1785,784,13888,3308446,-1036027,-626747,0,0,0,467,510,261,391,442,409,269,223,278,226,161,392,0,,,
1,1775669100416,-1823,2057,9667,21991,-92851,7330,0,0,0,327,302,256,339,189,294,490,409,308,414,448,127,0,,,
2,1775669100416,2268,277,13878,3582113,-1149648,-724486,0,0,0,452,507,255,387,436,401,265,217,268,223,158,376,0,,,
1,1775669100432,-1765,2120,9605,20769,-70860,10995,0,0,0,330,302,268,344,190,299,488,406,307,427,440,144,0,,,
2,1775669100432,2747,-421,13802,3831346,-1193630,-883311,0,0,0,428,501,242,382,427,398,274,217,271,216,157,364,0,,,
1,1775669100448,-1708,2129,9605,36651,-67195,12217,0,0,0,338,301,266,350,194,303,491,405,308,444,430,159,0,,,
2,1775669100448,2967,-693,13630,4080579,-1062905,-1117883,0,0,0,405,494,242,375,422,400,282,222,275,204,151,351,0,,,
1,1775669100464,-1742,2019,9585,25656,-78190,7330,0,0,0,342,308,258,351,197,300,491,403,316,432,442,133,0,,,
2,1775669100464,2574,-612,13711,4329812,-894306,-1364672,0,0,0,384,484,243,367,418,393,278,225,259,201,153,338,0,,,
1,1775669100480,-1785,1986,9509,-10995,-72082,0,0,0,0,352,306,258,359,204,306,494,417,312,427,455,130,0,,,
2,1775669100480,1976,-909,13534,4530176,-846659,-1551597,0,0,0,365,475,233,359,402,377,286,237,247,197,152,319,0,,,
1,1775669100496,-1804,2072,9509,-51312,-50090,-8552,0,0,0,336,307,259,356,205,303,496,424,315,426,450,130,0,,,
2,1775669100496,1598,-2100,12787,4635245,-888198,-1683544,0,0,0,346,467,232,349,392,363,295,247,241,191,152,301,0,,,
1,1775669100512,-1789,2158,9600,-54977,-34208,-6108,0,0,0,345,314,267,369,193,303,501,427,298,431,461,132,0,,,
2,1775669100512,1919,-2948,11572,4569271,-970053,-1782504,0,0,0,308,441,229,327,403,337,317,276,247,176,158,263,0,,,
1,1775669100528,-1789,2167,9605,-45204,-25656,-1221,0,0,0,335,311,285,366,195,307,506,432,296,429,461,131,0,,,
2,1775669100528,2077,-2967,10040,4170987,-1050688,-1869247,0,0,0,249,421,229,310,350,336,305,276,231,187,207,214,0,,,
1,1775669100544,-1775,2148,9566,-34208,-18325,0,0,0,0,335,311,293,361,199,318,505,438,304,430,466,138,0,,,
2,1775669100544,1430,-1957,8442,3418401,-1350012,-1897347,0,0,0,246,420,234,309,346,341,312,277,240,187,212,207,0,,,
1,1775669100560,-1761,2167,9581,-17104,-19547,0,0,0,0,333,315,295,355,200,319,508,438,312,429,469,147,0,,,
2,1775669100560,3814,3172,6369,2023185,-1503950,-1606575,0,0,0,247,421,236,287,374,330,311,274,239,187,208,208,0,,,
1,1775669100576,-1761,2177,9624,2443,-36651,0,0,0,0,331,324,297,355,201,324,510,439,314,433,474,155,0,,,
2,1775669100576,6585,7992,6331,138055,-513126,-660956,0,0,0,244,422,236,302,352,340,311,275,242,187,207,209,0,,,
1,1775669100592,-1770,2158,9662,15882,-54977,1221,0,0,0,331,339,301,354,214,331,510,442,316,438,476,156,0,,,
2,1775669100592,6556,7092,6728,-1276708,262672,410501,0,0,0,238,421,232,310,347,345,313,278,246,190,212,210,0,,,
1,1775669100608,-1785,2129,9686,23212,-73303,3665,0,0,0,333,344,307,349,223,334,511,444,324,436,473,154,0,,,
2,1775669100608,5881,2751,6360,-1875356,496022,1088561,0,0,0,239,423,239,307,346,343,311,278,245,196,212,206,0,,,
1,1775669100624,-1799,2124,9662,24434,-87964,4886,0,0,0,338,332,309,352,215,332,510,448,329,436,472,153,0,,,
2,1775669100624,5173,1579,6479,-2017077,642630,1130100,0,0,0,240,424,244,307,346,344,310,278,243,195,214,206,0,,,
1,1775669100640,-1804,2110,9585,14660,-97738,2443,0,0,0,347,336,296,351,215,322,510,454,322,443,474,149,0,,,
2,1775669100640,4297,3531,7169,-2381152,813672,1077566,0,0,0,237,422,239,311,349,348,313,281,245,190,218,209,0,,,
1,1775669100656,-1809,2110,9562,1221,-105068,0,0,0,0,358,343,277,349,217,306,512,455,317,434,484,141,0,,,
2,1775669100656,3809,4737,7609,-3038443,1003040,1143539,0,0,0,235,423,236,312,350,349,315,283,246,191,218,208,0,,,
1,1775669100672,-1813,2129,9581,-2443,-112399,0,0,0,0,348,338,267,353,209,305,516,462,313,430,481,133,0,,,
2,1775669100672,3259,4082,7982,-3600439,1291369,1178969,0,0,0,234,423,235,311,349,348,314,283,244,191,218,208,0,,,
1,1775669100688,-1818,2144,9585,0,-125838,0,0,0,0,341,329,283,355,209,313,527,453,329,437,483,146,0,,,
2,1775669100688,2426,2708,8580,-3606548,1574810,1081231,0,0,0,233,423,237,311,350,350,316,287,246,191,219,207,0,,,
1,1775669100704,-1847,2139,9581,4886,-138055,3665,0,0,0,341,329,266,352,210,308,525,452,327,435,483,139,0,,,
2,1775669100704,1095,2689,9892,-3412293,1776396,915076,0,0,0,231,422,234,312,350,350,317,287,246,190,219,207,0,,,
1,1775669100720,-1871,2134,9538,4886,-145385,7330,0,0,0,341,330,259,352,211,305,529,459,323,433,483,132,0,,,
2,1775669100720,-81,3311,11490,-3463605,1830152,789237,0,0,0,228,418,233,312,352,351,321,289,249,189,217,207,0,,,
1,1775669100736,-1880,2139,9514,0,-147829,13439,0,0,0,341,330,259,357,207,310,532,462,315,433,484,133,0,,,
2,1775669100736,-756,3268,12696,-3677408,1765400,684169,0,0,0,231,422,236,314,352,352,321,290,247,189,217,206,0,,,
1,1775669100752,-1895,2148,9514,0,-149051,19547,0,0,0,341,330,260,359,208,310,534,468,315,430,484,135,0,,,
2,1775669100752,-1196,2479,13601,-3794694,1633453,494800,0,0,0,227,424,238,312,351,352,318,288,250,190,221,208,0,,,
1,1775669100768,-1928,2163,9518,4886,-147829,21991,0,0,0,341,329,258,359,213,306,536,470,324,427,486,131,0,,,
2,1775669100768,-1368,2100,14261,-3786142,1469741,266337,0,0,0,225,423,238,309,350,352,319,289,251,191,223,209,0,,,
1,1775669100784,-1952,2172,9528,18325,-135612,26878,0,0,0,344,328,256,356,209,305,542,466,332,427,490,133,0,,,
2,1775669100784,-1119,2211,14711,-3797138,1293812,53756,0,0,0,225,423,238,310,349,353,323,292,254,188,217,210,0,,,
1,1775669100800,-1952,2177,9523,32986,-123394,32986,0,0,0,343,329,256,353,206,307,532,457,330,426,495,140,0,,,
2,1775669100800,-693,2278,15080,-3835011,1148426,-111177,0,0,0,229,424,240,316,352,356,326,295,256,182,208,211,0,,,
1,1775669100816,-1952,2163,9514,43982,-117286,36651,0,0,0,340,330,255,355,209,310,523,457,323,425,495,147,0,,,
2,1775669100816,-191,2268,15257,-3847229,1066570,-153938,0,0,0,231,426,241,319,356,357,331,301,258,176,198,213,0,,,
1,1775669100832,-1962,2148,9514,52534,-112399,37873,0,0,0,341,330,257,360,205,314,539,469,321,428,487,149,0,,,
2,1775669100832,397,2211,15348,-3844785,1029918,-128281,0,0,0,232,426,240,319,356,356,330,301,257,177,195,210,0,,,
1,1775669100848,-1986,2139,9514,54977,-102625,35430,0,0,0,343,332,260,362,207,311,536,460,318,426,484,139,0,,,
2,1775669100848,890,1981,15391,-3817907,1070235,-14660,0,0,0,233,426,239,319,356,355,330,300,256,177,196,208,0,,,
1,1775669100864,-2010,2144,9518,58643,-84299,35430,0,0,0,341,333,261,359,211,310,535,447,324,424,494,141,0,,,
2,1775669100864,1043,1450,15352,-3734830,1148426,179594,0,0,0,233,428,240,320,359,356,336,305,257,170,191,210,0,,,
1,1775669100880,-2019,2158,9514,68416,-63529,35430,0,0,0,336,330,258,351,254,307,533,447,314,428,489,143,0,,,
2,1775669100880,1024,751,15137,-3588222,1219287,406836,0,0,0,233,430,242,321,359,356,339,307,259,166,183,211,0,,,
1,1775669100896,-1995,2144,9514,86742,-48869,36651,0,0,0,340,332,261,368,224,318,533,451,307,428,489,148,0,,,
2,1775669100896,684,191,14831,-3368310,1265712,614530,0,0,0,235,430,241,324,361,359,343,309,258,164,175,213,0,,,
1,1775669100912,-1976,2120,9518,103847,-46425,35430,0,0,0,345,341,296,371,237,334,522,447,329,434,481,156,0,,,
2,1775669100912,138,-287,14510,-3103195,1265712,813672,0,0,0,233,430,240,324,364,361,340,309,257,159,171,213,0,,,
1,1775669100928,-1976,2100,9523,120951,-52534,35430,0,0,0,340,336,299,364,218,344,525,444,345,426,483,179,0,,,
2,1775669100928,-258,-904,14099,-2850297,1178969,932180,0,0,0,236,430,242,326,363,363,342,311,262,158,171,213,0,,,
1,1775669100944,-1986,2100,9538,150272,-63529,36651,0,0,0,347,335,287,370,214,346,524,441,358,422,481,191,0,,,
2,1775669100944,-258,-1971,13496,-2586403,1051909,904080,0,0,0,237,430,243,325,360,363,343,311,263,152,162,214,0,,,
1,1775669100960,-1986,2120,9605,200363,-89186,42760,0,0,0,345,335,285,374,220,358,522,440,350,413,479,208,0,,,
2,1775669100960,-186,-3225,12869,-2282192,930958,788016,0,0,0,236,429,243,328,360,364,343,310,262,151,159,212,0,,,
1,1775669100976,-1990,2100,9662,257785,-124616,53756,0,0,0,344,331,282,375,222,361,526,430,348,417,471,225,0,,,
2,1775669100976,-263,-4340,12337,-1962099,821002,646295,0,0,0,236,429,242,325,358,361,345,311,260,150,157,211,0,,,
1,1775669100992,-2048,2038,9648,296880,-134390,59864,0,0,0,347,337,285,380,229,368,531,418,348,424,464,248,0,,,
2,1775669100992,-641,-5245,11825,-1616349,681725,543670,0,0,0,234,428,243,325,358,362,346,312,263,150,157,213,0,,,
1,1775669101008,-2124,1981,9619,327423,-108734,65973,0,0,0,346,346,293,381,241,382,538,414,356,416,443,271,0,,,
2,1775669101008,-928,-6068,11227,-1252273,510683,485026,0,0,0,235,429,244,325,357,362,344,312,261,151,157,212,0,,,
1,1775669101024,-2129,1947,9657,368962,-65973,72082,0,0,0,345,342,296,382,245,387,546,394,372,406,416,288,0,,,
2,1775669101024,-890,-6680,10562,-840550,337197,459370,0,0,0,236,428,243,325,357,361,347,314,262,149,155,212,0,,,
1,1775669101040,-2100,1880,9710,422718,-40317,80634,0,0,0,362,327,293,400,238,388,546,350,371,409,394,314,0,,,
2,1775669101040,-775,-6944,10050,-414166,188146,458148,0,0,0,235,428,241,327,360,363,344,311,260,147,152,212,0,,,
1,1775669101056,-2077,1813,9734,475253,-42760,91629,0,0,0,388,319,280,428,225,412,541,328,367,416,347,351,0,,,
2,1775669101056,-545,-6795,9643,63529,40317,513126,0,0,0,234,428,240,327,360,363,344,311,260,148,153,212,0,,,
1,1775669101072,-2081,1742,9791,533896,-63529,106290,0,0,0,370,348,299,422,223,439,520,302,395,390,333,366,0,,,
2,1775669101072,-162,-6393,9308,456927,-41538,605978,0,0,0,233,428,240,325,359,361,347,315,263,149,155,213,0,,,
1,1775669101088,-2110,1651,9906,598647,-107512,129503,0,0,0,355,352,298,407,250,466,515,286,412,359,306,377,0,,,
2,1775669101088,110,-5900,8978,868650,-65973,715934,0,0,0,234,428,242,325,361,362,346,315,263,148,155,212,0,,,
1,1775669101104,-2172,1574,10021,656069,-152716,151494,0,0,0,362,365,305,422,243,450,520,259,416,357,264,403,0,,,
2,1775669101104,-57,-5350,8920,1210734,-32986,822224,0,0,0,233,427,241,328,362,364,344,319,260,149,159,209,0,,,
1,1775669101120,-2254,1483,10165,730594,-177150,174707,0,0,0,377,370,311,404,241,482,493,252,422,325,242,436,0,,,
2,1775669101120,-392,-4752,9145,1474628,-19547,932180,0,0,0,233,426,240,331,366,364,349,344,254,155,174,201,0,,,
1,1775669101136,-2278,1292,10366,842994,-172263,200363,0,0,0,390,374,308,407,266,513,478,239,438,307,223,471,0,,,
2,1775669101136,177,-1182,10327,1690874,-56199,989601,0,0,0,238,421,234,328,362,351,386,408,245,181,223,198,0,,,
1,1775669101152,-2258,1182,10825,1012814,-193033,234572,0,0,0,408,401,280,441,335,509,478,233,461,304,214,487,0,,,
2,1775669101152,1914,9657,10332,1954768,-412944,756251,0,0,0,239,406,227,323,352,346,401,431,241,216,268,196,0,,,
1,1775669101168,-2191,1273,11543,1237612,-238237,260228,0,0,0,422,411,269,456,355,510,455,223,468,303,217,497,0,,,
2,1775669101168,1536,12026,9877,2421469,-1288925,184481,0,0,0,242,409,227,327,353,347,414,448,244,206,277,191,0,,,
1,1775669101184,-2536,1287,12041,1538158,-263893,296880,0,0,0,432,410,241,460,350,527,440,207,453,309,205,500,0,,,
2,1775669101184,373,4388,13074,3065321,-1554041,-278554,0,0,0,242,407,228,321,364,348,423,458,245,215,289,194,0,,,
1,1775669101200,-2919,1148,12146,1854586,-244346,386066,0,0,0,441,416,222,446,354,546,403,198,456,296,198,519,0,,,
2,1775669101200,603,473,16166,3224146,-944397,-399505,0,0,0,248,412,234,330,356,354,423,458,243,216,289,195,0,,,
1,1775669101216,-2909,904,12380,2201558,-178372,497244,0,0,0,443,419,221,442,354,559,364,193,466,281,190,529,0,,,
2,1775669101216,1416,1861,15271,2834414,-164933,-333532,0,0,0,247,413,237,328,352,354,424,457,243,217,296,195,0,,,
1,1775669101232,-3019,765,12869,2544864,-105068,583987,0,0,0,450,402,225,455,333,556,336,186,464,278,174,525,0,,,
2,1775669101232,1574,2971,11648,2409252,105068,-332310,0,0,0,250,414,245,332,349,359,439,460,252,221,300,198,0,,,
1,1775669101248,-3546,756,13577,2951700,-14660,704938,0,0,0,465,381,231,448,307,536,291,181,453,263,163,526,0,,,
2,1775669101248,1880,2794,9715,2119702,62308,-328645,0,0,0,261,420,267,331,359,356,460,474,252,222,303,196,0,,,
1,1775669101264,-4053,689,14539,3418401,75747,877202,0,0,0,464,384,230,408,307,520,236,178,440,223,152,511,0,,,
2,1775669101264,2622,1703,10447,1710422,-273667,-205250,0,0,0,266,423,282,341,357,360,478,485,258,241,322,201,0,,,
1,1775669101280,-4297,425,15855,3903428,166155,1059240,0,0,0,456,369,229,382,312,506,218,166,431,200,132,476,0,,,
2,1775669101280,2301,995,11481,1038470,-492357,0,0,0,0,274,426,296,351,353,370,487,495,264,249,333,214,0,,,
1,1775669101296,-4723,86,17434,4458094,282219,1237612,0,0,0,433,348,223,368,298,485,211,153,439,197,124,426,0,,,
2,1775669101296,1512,1086,11337,334754,-499687,111177,0,0,0,293,430,307,357,355,374,463,485,278,249,328,224,0,,,
1,1775669101312,-5695,-81,18865,4984660,388510,1414763,0,0,0,423,343,214,359,271,465,200,142,402,177,114,356,0,,,
2,1775669101312,1182,1584,10614,43982,-329867,73303,0,0,0,312,435,311,366,361,374,458,483,283,257,332,228,0,,,
1,1775669101328,-6738,-205,19899,5433035,475253,1632231,0,0,0,355,339,200,348,300,399,222,158,360,163,131,276,0,,,
2,1775669101328,1225,1890,10212,-64751,-134390,18325,0,0,0,326,443,313,375,368,379,511,522,266,265,346,233,0,,,
1,1775669101344,-6341,244,20957,5878967,631634,1886351,0,0,0,327,320,204,326,242,362,215,171,335,150,134,232,0,,,
2,1775669101344,1531,1938,10208,-48869,-45204,6108,0,0,0,336,449,317,376,368,380,515,529,267,261,342,241,0,,,
1,1775669101360,-5474,1325,21899,6323676,879645,2067167,0,0,0,264,295,210,281,220,328,235,190,316,160,183,196,0,,,
2,1775669101360,1555,2014,10078,-18325,-35430,6108,0,0,0,336,453,315,380,372,388,522,530,275,257,338,242,0,,,
1,1775669101376,-6537,2167,19698,6608340,1274264,2091602,0,0,0,236,265,204,258,181,277,284,213,271,188,209,152,0,,,
2,1775669101376,1493,2129,9887,26878,-23212,0,0,0,0,339,457,319,383,377,403,522,530,283,258,345,252,0,,,
1,1775669101392,-7848,3441,14644,6684087,1502728,2109928,0,0,0,247,259,203,263,170,259,313,232,256,201,231,132,0,,,
2,1775669101392,1507,2201,9801,103847,-8552,-13439,0,0,0,345,460,328,379,372,400,522,531,283,261,343,259,0,,,
1,1775669101408,-8480,5991,10289,6418971,1497841,2097711,0,0,0,255,261,204,267,169,261,316,235,257,203,232,134,0,,,
2,1775669101408,1545,2144,9796,168598,-7330,-24434,0,0,0,353,460,319,387,372,401,526,534,283,266,342,261,0,,,
1,1775669101424,-8676,12366,9428,4383568,1130100,1209513,0,0,0,254,267,204,267,170,264,314,230,257,208,226,139,0,,,
2,1775669101424,1560,1986,9825,194255,-13439,-31764,0,0,0,357,461,322,383,368,397,527,535,282,262,328,270,0,,,
1,1775669101440,-7609,16434,9619,861319,607200,-422718,0,0,0,255,269,204,271,170,266,317,226,258,212,226,140,0,,,
2,1775669101440,1560,1947,9853,180816,-13439,-39095,0,0,0,362,462,325,384,365,400,530,535,287,259,326,269,0,,,
1,1775669101456,-6360,12830,8470,-2072054,443488,-1751961,0,0,0,252,270,205,271,172,268,321,228,262,213,228,140,0,,,
2,1775669101456,1569,1990,9882,178372,-7330,-56199,0,0,0,368,462,328,392,368,410,536,532,289,255,313,271,0,,,
1,1775669101472,-6465,6728,5886,-3147177,359188,-1969429,0,0,0,241,277,209,264,178,269,320,234,266,211,232,142,0,,,
2,1775669101472,1584,2010,9873,197920,0,-72082,0,0,0,371,461,324,395,365,409,532,526,289,248,300,267,0,,,
1,1775669101488,-6494,3732,4316,-2786767,-84299,-1155757,0,0,0,229,272,211,260,176,271,315,235,266,208,233,141,0,,,
2,1775669101488,1608,1971,9825,237015,-3665,-81855,0,0,0,376,460,325,400,365,412,528,516,290,251,307,267,0,,,
1,1775669101504,-4379,4460,5532,-3001791,-480140,-577878,0,0,0,230,274,211,259,178,271,313,234,266,208,237,140,0,,,
2,1775669101504,1608,1914,9782,271224,-21991,-84299,0,0,0,381,461,334,402,367,421,529,507,296,253,297,273,0,,,
1,1775669101520,-2622,5111,7370,-3679852,-453262,-465479,0,0,0,231,275,211,261,177,272,315,233,265,208,235,140,0,,,
2,1775669101520,1603,1856,9734,284663,-46425,-83077,0,0,0,386,465,331,403,365,420,531,495,299,257,281,279,0,,,
1,1775669101536,-2665,4709,8743,-4328591,-271224,-634078,0,0,0,232,274,212,262,177,272,317,233,265,212,237,140,0,,,
2,1775669101536,1593,1809,9719,289550,-69638,-83077,0,0,0,395,470,324,406,365,418,532,483,300,260,273,287,0,,,
1,1775669101552,-3565,3723,9844,-4763527,-464257,-757472,0,0,0,233,276,212,262,179,273,317,233,265,212,240,140,0,,,
2,1775669101552,1584,1761,9767,290771,-84299,-85521,0,0,0,399,472,331,407,370,425,527,469,305,251,250,298,0,,,
1,1775669101568,-3527,2933,10863,-5035973,-836885,-751364,0,0,0,234,277,210,264,180,272,324,237,265,212,239,140,0,,,
2,1775669101568,1584,1708,9806,290771,-90408,-81855,0,0,0,402,472,336,409,373,431,517,448,303,253,238,305,0,,,
1,1775669101584,-2699,1818,11983,-5225341,-1134987,-605978,0,0,0,231,275,209,265,183,275,319,235,266,223,239,143,0,,,
2,1775669101584,1588,1675,9806,291993,-101403,-72082,0,0,0,410,473,364,417,377,438,525,442,313,249,234,322,0,,,
1,1775669101600,-1799,770,13141,-5280319,-1292590,-362853,0,0,0,231,276,210,266,183,276,317,233,265,222,243,142,0,,,
2,1775669101600,1584,1636,9782,291993,-112399,-61086,0,0,0,416,478,382,412,375,444,524,432,324,251,223,337,0,,,
1,1775669101616,-928,315,14625,-5208237,-1350012,-75747,0,0,0,232,278,212,267,180,276,318,231,264,221,245,141,0,,,
2,1775669101616,1555,1593,9782,282219,-114842,-48869,0,0,0,417,484,366,412,375,446,523,424,331,247,210,353,0,,,
1,1775669101632,-387,306,15927,-5160589,-1370781,52534,0,0,0,233,277,210,269,180,276,320,231,264,223,245,142,0,,,
2,1775669101632,1536,1579,9849,284663,-112399,-43982,0,0,0,423,487,357,412,375,441,508,404,317,249,203,364,0,,,
1,1775669101648,-191,148,16697,-5159367,-1379333,18325,0,0,0,234,276,209,269,179,275,322,232,266,224,243,143,0,,,
2,1775669101648,1541,1550,9906,306654,-98960,-48869,0,0,0,426,488,363,418,382,452,511,395,326,256,199,376,0,,,
1,1775669101664,-201,-311,17051,-5101946,-1382998,-89186,0,0,0,234,276,211,267,177,274,324,232,266,226,238,142,0,,,
2,1775669101664,1579,1507,9925,335975,-87964,-58643,0,0,0,434,488,365,429,386,463,526,391,330,259,194,392,0,,,
1,1775669101680,-330,-751,17425,-5006651,-1351233,-256563,0,0,0,237,276,211,269,177,274,328,233,268,224,235,140,0,,,
2,1775669101680,1627,1464,9920,372627,-84299,-72082,0,0,0,446,494,373,424,387,460,506,367,327,251,181,402,0,,,
1,1775669101696,-789,-1282,17841,-4928460,-1304808,-596204,0,0,0,241,278,212,276,177,276,329,233,267,224,233,137,0,,,
2,1775669101696,1588,1416,9968,417831,-72082,-85521,0,0,0,450,496,371,427,399,459,499,344,343,244,172,419,0,,,
1,1775669101712,-1622,-2546,18372,-4807509,-1343903,-1122770,0,0,0,240,278,214,274,177,275,324,227,264,226,235,141,0,,,
2,1775669101712,1536,1349,10035,472809,-36651,-101403,0,0,0,456,503,370,436,407,469,493,320,345,250,171,444,0,,,
1,1775669101728,-2182,-4857,18932,-4603480,-1484402,-1530828,0,0,0,234,279,215,267,181,278,320,232,265,217,235,142,0,,,
2,1775669101728,1622,1273,10141,541226,19547,-120951,0,0,0,465,511,375,440,416,479,486,304,348,256,170,465,0,,,
1,1775669101744,-1976,-9002,19435,-4326147,-1546710,-1651779,0,0,0,229,279,215,264,181,283,316,239,273,207,236,143,0,,,
2,1775669101744,1746,1263,10327,630412,52534,-147829,0,0,0,471,516,367,443,426,486,482,287,358,256,167,483,0,,,
1,1775669101760,-1368,-13759,19258,-4111123,-1408655,-1524719,0,0,0,229,278,215,268,181,284,316,235,274,209,234,143,0,,,
2,1775669101760,1818,1220,10595,767246,52534,-182037,0,0,0,475,516,344,450,430,491,467,259,360,266,177,501,0,,,
1,1775669101776,-875,-18899,17922,-3811799,-1086118,-1202182,0,0,0,232,281,215,264,179,283,320,237,275,213,236,143,0,,,
2,1775669101776,1770,1115,10940,955393,45204,-211359,0,0,0,483,516,327,461,439,498,444,238,366,289,190,518,0,,,
1,1775669101792,-1263,-23268,15228,-3056769,-723264,-572991,0,0,0,232,280,215,267,179,284,321,233,272,218,233,144,0,,,
2,1775669101792,1775,1033,11404,1191187,24434,-230907,0,0,0,483,525,313,477,452,506,431,228,367,279,175,537,0,,,
1,1775669101808,-1502,-25273,12912,-2051285,-560774,232128,0,0,0,229,280,213,269,180,285,321,232,272,220,236,144,0,,,
2,1775669101808,1770,966,11998,1475850,-7330,-244346,0,0,0,490,531,311,482,459,516,410,224,371,283,180,547,0,,,
1,1775669101824,282,-25345,12127,-1175304,-547335,852767,0,0,0,230,280,213,271,181,286,324,233,275,224,235,144,0,,,
2,1775669101824,1785,832,12495,1835039,-7330,-263893,0,0,0,485,529,292,481,460,521,385,223,372,276,177,540,0,,,
1,1775669101840,4216,-24584,12390,-197920,-262672,1017701,0,0,0,244,276,208,294,176,279,340,244,278,245,252,136,0,,,
2,1775669101840,1809,679,12825,2236988,-8552,-288328,0,0,0,482,527,273,493,465,538,344,215,382,284,175,549,0,,,
1,1775669101856,4819,-21813,13285,690277,289550,777020,0,0,0,243,265,192,300,170,263,374,286,274,280,300,119,0,,,
2,1775669101856,2081,550,13022,2640159,-50090,-320093,0,0,0,500,545,280,510,468,540,312,211,355,266,175,550,0,,,
1,1775669101872,1445,-8801,15027,1660331,1286482,400727,0,0,0,221,253,169,265,166,244,415,365,264,308,366,102,0,,,
2,1775669101872,2464,349,13352,3064100,-151494,-386066,0,0,0,493,537,248,489,480,543,295,217,383,277,183,569,0,,,
1,1775669101888,-4666,12739,12586,2240653,2758667,-56199,0,0,0,222,242,153,251,160,228,442,433,256,318,414,93,0,,,
2,1775669101888,2636,210,14046,3497814,-288328,-469144,0,0,0,499,529,253,476,472,525,267,199,352,265,174,568,0,,,
1,1775669101904,-3029,12060,10413,2820975,3468492,-128281,0,0,0,228,241,147,260,157,229,461,459,248,332,422,97,0,,,
2,1775669101904,3211,23,14941,3964515,-417831,-569326,0,0,0,506,527,252,459,470,505,250,183,351,258,171,539,0,,,
1,1775669101920,1306,1981,15309,3755599,2838079,183259,0,0,0,234,242,150,275,158,245,469,469,262,377,430,100,0,,,
2,1775669101920,4345,-497,16539,4561941,-604756,-764803,0,0,0,503,527,252,448,464,486,240,172,351,246,163,494,0,,,
1,1775669101936,899,-1206,19865,3435506,1490511,492357,0,0,0,242,246,161,287,158,256,472,472,267,406,438,107,0,,,
2,1775669101936,5101,-914,19478,5167919,-862541,-998153,0,0,0,489,515,256,433,455,475,245,178,337,225,148,446,0,,,
1,1775669101952,-1517,421,17712,2408030,619417,469144,0,0,0,256,252,176,290,155,253,482,482,271,435,445,97,0,,,
2,1775669101952,5905,-804,22713,5728694,-1120326,-1203404,0,0,0,452,502,244,417,441,454,250,171,324,211,139,389,0,,,
1,1775669101968,-2938,2488,11658,1501506,260228,186924,0,0,0,258,262,195,300,170,262,495,490,276,432,457,96,0,,,
2,1775669101968,7006,-368,23876,6225938,-1264491,-1436755,0,0,0,396,486,229,395,426,424,254,166,303,200,135,347,0,,,
1,1775669101984,-2502,1569,9638,1161865,260228,2443,0,0,0,252,272,219,310,184,279,503,502,283,438,462,103,0,,,
2,1775669101984,6728,626,24010,6778160,-1069014,-1771509,0,0,0,345,461,227,366,408,398,266,195,275,180,133,317,0,,,
1,1775669102000,-2048,516,10567,758694,260228,-86742,0,0,0,253,282,229,323,195,306,507,507,289,441,468,117,0,,,
2,1775669102000,5843,1837,25135,7359704,-819781,-2094046,0,0,0,296,432,229,333,374,372,289,244,259,152,130,262,0,,,
1,1775669102016,-1737,832,11232,271224,149051,-97738,0,0,0,260,283,230,333,203,312,515,515,283,444,475,125,0,,,
2,1775669102016,7164,2115,21430,7575950,-1037249,-2268753,0,0,0,240,407,228,303,341,344,307,269,256,125,125,199,0,,,
1,1775669102032,-1737,1541,10576,24434,21991,-62308,0,0,0,271,277,232,337,201,308,505,489,288,448,480,123,0,,,
2,1775669102032,8140,4661,15424,7182553,-1494176,-2469117,0,0,0,255,416,233,306,342,347,304,271,256,128,130,205,0,,,
1,1775669102048,-1885,1737,9940,36651,-23212,-24434,0,0,0,286,275,238,353,200,322,505,487,295,449,480,125,0,,,
2,1775669102048,7470,11945,11040,5274210,-2272418,-2291966,0,0,0,249,413,224,310,347,346,305,271,251,128,126,202,0,,,
1,1775669102064,-1938,1732,9868,79412,-26878,0,0,0,0,294,276,240,368,208,332,526,516,286,445,480,131,0,,,
2,1775669102064,7556,17937,10141,744033,-2409252,-1047023,0,0,0,248,415,223,312,349,343,307,273,245,134,130,204,0,,,
1,1775669102080,-1842,1828,10026,129503,-50090,23212,0,0,0,291,275,235,361,214,314,532,507,276,440,484,133,0,,,
2,1775669102080,7049,15104,9930,-3225368,-1805717,219911,0,0,0,252,418,231,312,348,342,315,276,249,136,132,204,0,,,
1,1775669102096,-1785,1919,9949,239459,-135612,54977,0,0,0,297,280,236,365,202,318,530,482,284,445,481,147,0,,,
2,1775669102096,6025,8035,8217,-4421442,-1354899,756251,0,0,0,244,417,232,315,352,346,313,275,249,135,132,204,0,,,
1,1775669102112,-1847,1876,9820,360410,-215024,84299,0,0,0,308,276,240,365,189,328,534,470,303,434,476,166,0,,,
2,1775669102112,6202,5135,5891,-3962071,-1197295,668286,0,0,0,237,417,231,312,349,345,316,278,249,135,133,203,0,,,
1,1775669102128,-1962,1708,9715,447153,-259006,112399,0,0,0,300,277,237,368,197,335,536,461,305,427,445,181,0,,,
2,1775669102128,6676,5465,5417,-3940080,-814894,504574,0,0,0,239,418,232,314,349,345,318,279,247,137,134,205,0,,,
1,1775669102144,-2048,1483,9643,437379,-241902,124616,0,0,0,300,303,237,368,204,343,531,441,325,427,437,195,0,,,
2,1775669102144,6393,6183,6934,-4637688,-327423,456927,0,0,0,237,420,234,312,350,345,316,279,248,133,134,203,0,,,
1,1775669102160,-2096,1363,9619,384845,-206472,125838,0,0,0,304,332,237,372,220,346,523,439,330,423,437,203,0,,,
2,1775669102160,5991,5723,8260,-5261993,-3665,511905,0,0,0,234,421,235,309,349,347,315,280,250,131,134,203,0,,,
1,1775669102176,-2105,1383,9638,353080,-179594,119729,0,0,0,301,326,241,370,216,356,529,434,347,405,421,215,0,,,
2,1775669102176,5910,4546,9011,-5549099,229685,638965,0,0,0,233,421,234,310,350,348,314,281,249,132,134,204,0,,,
1,1775669102192,-2110,1392,9667,351858,-158824,117286,0,0,0,300,293,236,374,206,362,540,416,346,393,402,220,0,,,
2,1775669102192,6034,3713,9873,-5551543,554665,802676,0,0,0,231,422,232,313,353,348,316,283,248,133,135,204,0,,,
1,1775669102208,-2105,1340,9672,356745,-139277,113620,0,0,0,301,289,236,372,205,364,538,402,346,389,386,228,0,,,
2,1775669102208,6202,3598,11184,-5580864,893084,1005484,0,0,0,232,424,234,315,354,349,320,284,248,134,135,204,0,,,
1,1775669102224,-2100,1292,9667,355523,-123394,108734,0,0,0,303,291,236,374,203,368,533,389,353,387,376,242,0,,,
2,1775669102224,6604,3589,12495,-5814215,1141096,1210734,0,0,0,234,420,235,316,355,351,323,284,246,136,136,205,0,,,
1,1775669102240,-2124,1249,9643,354301,-107512,102625,0,0,0,305,287,243,378,199,377,531,368,361,383,364,260,0,,,
2,1775669102240,7020,2986,13816,-6076887,1414763,1380555,0,0,0,232,420,233,310,358,349,321,289,251,135,136,204,0,,,
1,1775669102256,-2129,1206,9605,354301,-84299,97738,0,0,0,313,284,243,387,196,387,529,350,368,381,347,281,0,,,
2,1775669102256,7255,1976,15305,-6197838,1728748,1446528,0,0,0,232,423,236,313,354,352,319,287,251,131,136,204,0,,,
1,1775669102272,-2105,1172,9619,357967,-63529,97738,0,0,0,325,286,230,403,200,392,529,346,371,385,332,301,0,,,
2,1775669102272,7164,1622,17334,-6170960,1995085,1436755,0,0,0,236,423,238,313,354,351,319,289,253,137,140,208,0,,,
1,1775669102288,-2091,1115,9691,379958,-61086,106290,0,0,0,322,294,230,406,215,393,530,342,368,390,323,322,0,,,
2,1775669102288,7135,1746,19679,-6186843,2224771,1452637,0,0,0,232,422,237,314,356,353,319,290,255,133,136,207,0,,,
1,1775669102304,-2096,1014,9739,406836,-80634,127059,0,0,0,319,298,234,407,215,415,526,317,378,375,305,365,0,,,
2,1775669102304,7054,1986,22435,-6276029,2475225,1506393,0,0,0,232,422,237,313,355,354,316,285,254,130,133,206,0,,,
1,1775669102320,-2120,947,9743,433714,-119729,155159,0,0,0,333,304,234,420,216,418,536,312,381,376,288,386,0,,,
2,1775669102320,6460,1507,25216,-6346889,2682920,1611462,0,0,0,233,423,237,313,355,355,319,288,259,127,129,203,0,,,
1,1775669102336,-2215,928,9806,472809,-151494,183259,0,0,0,311,314,229,399,232,426,544,278,376,348,282,413,0,,,
2,1775669102336,4771,-784,27307,-6317568,2915048,1777617,0,0,0,233,422,236,316,355,356,320,284,259,163,143,200,0,,,
1,1775669102352,-2359,933,9954,541226,-174707,216246,0,0,0,327,342,229,405,256,428,527,280,391,329,279,413,0,,,
2,1775669102352,1478,-6934,28973,-5966931,3048217,1826487,0,0,0,234,423,236,319,356,360,321,282,262,147,137,204,0,,,
1,1775669102368,-2455,856,10169,651182,-191811,262672,0,0,0,365,322,233,408,249,443,517,247,402,313,236,431,0,,,
2,1775669102368,-842,-15118,29418,-5419596,2630385,1508837,0,0,0,235,424,236,320,358,362,323,283,265,131,132,206,0,,,
1,1775669102384,-2526,741,10385,762359,-221133,302989,0,0,0,357,337,236,434,271,457,514,219,413,293,199,448,0,,,
2,1775669102384,-693,-23900,26666,-4651127,1656666,526565,0,0,0,236,424,236,324,357,361,325,284,266,134,132,206,0,,,
1,1775669102400,-2828,626,10701,913854,-282219,359188,0,0,0,367,349,230,452,286,473,509,207,432,292,182,468,0,,,
2,1775669102400,-885,-30657,21268,-3439171,966388,-1220508,0,0,0,235,423,235,326,356,360,326,285,267,135,131,205,0,,,
1,1775669102416,-2866,569,11289,1115439,-377514,447153,0,0,0,379,364,227,457,295,484,490,208,435,291,175,493,0,,,
2,1775669102416,-4345,-34319,17822,-2179567,791681,-2623055,0,0,0,233,422,233,321,356,361,325,285,267,132,131,206,0,,,
1,1775669102432,-2182,531,12237,1418429,-530231,508239,0,0,0,395,372,219,461,306,502,463,202,441,286,168,517,0,,,
2,1775669102432,-9633,-35151,17252,-810007,536339,-2939483,0,0,0,233,422,237,321,358,363,325,287,268,134,133,208,0,,,
1,1775669102448,-1871,440,12835,1727526,-692721,503352,0,0,0,422,366,209,465,320,525,428,188,461,266,154,539,0,,,
2,1775669102448,-10969,-33132,17262,593761,-139277,-2483778,0,0,0,232,420,238,319,356,362,331,301,266,136,143,206,0,,,
1,1775669102464,-2325,330,13395,2194227,-839328,483805,0,0,0,432,374,202,462,350,536,386,176,472,243,153,556,0,,,
2,1775669102464,-7087,-26097,17252,1995085,-929736,-1759291,0,0,0,230,409,227,323,354,356,373,378,258,153,188,192,0,,,
1,1775669102480,-3072,268,13988,2800206,-937067,541226,0,0,0,424,396,198,460,381,530,347,173,466,244,161,563,0,,,
2,1775669102480,-2014,430,18947,2700024,-1957212,-675616,0,0,0,226,381,193,327,342,338,432,441,244,185,242,184,0,,,
1,1775669102496,-3627,268,14654,3522248,-963945,723264,0,0,0,439,385,198,469,360,517,316,165,461,246,136,561,0,x,,
2,1775669102496,4685,27394,12916,2483778,-3670078,1122770,0,0,0,230,344,193,311,314,338,462,463,258,201,296,184,0,x,,
1,1775669102512,-3981,349,15678,4190535,-956614,902858,0,0,0,435,362,200,450,330,513,252,147,447,200,111,554,0,,,
2,1775669102512,2933,20133,4982,2764776,-4836830,2200336,0,0,0,240,344,175,328,316,339,481,481,258,209,320,182,0,,,
1,1775669102528,-5211,445,17578,4987103,-962723,1127657,0,0,0,448,336,202,396,298,515,211,131,478,178,87,498,0,,,
2,1775669102528,-6752,-526,13692,4455651,-3712838,1407433,0,0,0,244,350,195,332,318,351,495,495,275,225,346,185,0,,,
1,1775669102544,-7039,464,20521,5881410,-995710,1455080,0,0,0,420,338,209,397,298,491,209,125,443,165,79,434,0,,,
2,1775669102544,-7451,-4340,24627,4685336,-1995085,152716,0,0,0,249,359,212,335,323,358,508,508,271,243,360,184,0,,,
1,1775669102560,-8552,583,24388,6720739,-967610,1831373,0,0,0,392,314,183,374,270,424,193,116,400,162,82,337,0,,,
2,1775669102560,-1005,674,22675,3244916,-905302,-204028,0,0,0,258,375,240,319,349,356,513,514,269,242,355,193,0,,,
1,1775669102576,-9164,507,28006,7452555,-758694,2175901,0,0,0,309,312,185,339,252,374,196,141,344,145,100,255,0,,,
2,1775669102576,1727,2703,15309,1848478,-345749,7330,0,0,0,264,390,260,333,349,364,522,523,270,263,361,205,0,,,
1,1775669102592,-8743,1756,30064,8048760,-318871,2439795,0,0,0,256,283,180,299,226,319,231,180,308,145,159,186,0,,,
2,1775669102592,1196,1588,9188,976162,-106290,200363,0,0,0,271,399,274,355,346,376,531,533,274,263,348,218,0,,,
1,1775669102608,-8982,5029,29332,8453153,68416,2627942,0,0,0,239,264,179,264,184,271,272,212,284,167,202,150,0,,,
2,1775669102608,1119,780,9700,692721,-124616,123394,0,0,0,280,410,284,366,357,384,538,540,279,248,329,230,0,,,
1,1775669102624,-10524,10624,21062,8671842,152716,2868623,0,0,0,242,257,186,256,162,259,294,221,287,188,220,142,0,,,
2,1775669102624,1292,890,10658,399505,-241902,68416,0,0,0,289,419,288,373,366,390,542,544,283,254,328,239,0,,,
1,1775669102640,-10442,15812,12572,7955908,213802,3158173,0,0,0,242,256,191,257,160,264,292,220,287,186,223,148,0,,,
2,1775669102640,1024,1536,10672,169820,-310319,47647,0,0,0,301,422,295,375,367,392,546,547,285,259,327,246,0,,,
1,1775669102656,-7676,20478,11107,4173431,692721,2665815,0,0,0,240,258,201,250,161,272,286,219,283,177,222,157,0,,,
2,1775669102656,804,1785,10217,118507,-193033,18325,0,0,0,312,427,302,377,361,392,547,550,283,259,325,249,0,,,
1,1775669102672,-4063,20579,12242,-1242499,1512502,1069014,0,0,0,243,261,213,245,160,281,289,221,288,178,221,164,0,,,
2,1775669102672,899,1804,10098,146607,-97738,-8552,0,0,0,316,426,305,376,359,395,545,544,285,280,339,251,0,,,
1,1775669102688,-3900,12969,10356,-4103792,2547308,-389732,0,0,0,242,261,212,245,165,278,298,228,286,179,224,163,0,,,
2,1775669102688,918,1899,10155,215024,-58643,-23212,0,0,0,315,422,325,366,351,394,534,526,285,370,423,237,0,,,
1,1775669102704,-6168,7322,7116,-4559498,2981022,-747699,0,0,0,240,263,205,251,168,272,300,231,280,183,228,156,0,,,
2,1775669102704,861,1928,10117,310319,8552,-32986,0,0,0,331,429,316,373,354,387,545,531,288,243,295,264,0,,,
1,1775669102720,-8178,5695,5422,-4492302,2549751,-464257,0,0,0,235,260,211,251,167,274,302,231,283,183,227,159,0,,,
2,1775669102720,923,1789,9987,381179,83077,-41538,0,0,0,335,432,311,381,362,397,543,518,292,239,286,268,0,,,
1,1775669102736,-7547,5752,6757,-5098281,1969429,-318871,0,0,0,235,264,207,249,167,272,302,231,279,187,228,156,0,,,
2,1775669102736,1072,1651,9858,400727,103847,-50090,0,0,0,335,432,304,385,365,402,536,507,296,246,295,275,0,,,
1,1775669102752,-6992,5072,8403,-5674938,1890017,-403171,0,0,0,235,262,210,249,167,278,302,230,279,186,229,159,0,,,
2,1775669102752,1191,1593,9810,403171,76969,-56199,0,0,0,339,438,302,389,369,405,538,495,305,249,293,283,0,,,
1,1775669102768,-8078,3895,9585,-6048787,1984090,-634078,0,0,0,238,261,215,252,166,281,298,226,280,188,228,160,0,,,
2,1775669102768,1253,1574,9820,406836,13439,-62308,0,0,0,342,439,300,394,371,413,534,480,309,252,276,297,0,,,
1,1775669102784,-9676,2948,10399,-6321233,1403768,-858876,0,0,0,235,262,213,253,167,279,298,226,279,183,227,157,0,,,
2,1775669102784,1253,1550,9844,417831,-41538,-72082,0,0,0,350,443,305,399,372,425,531,462,314,246,251,319,0,,,
1,1775669102800,-9739,2096,11581,-6630331,519235,-1122770,0,0,0,237,263,209,256,170,279,302,231,281,198,225,161,0,,,
2,1775669102800,1225,1483,9887,441044,-78190,-79412,0,0,0,357,450,310,405,375,440,530,450,317,236,232,336,0,,,
1,1775669102816,-8992,1076,12964,-6849021,-94073,-1419650,0,0,0,230,265,210,252,171,281,303,230,282,190,227,160,0,,,
2,1775669102816,1167,1392,9887,470366,-103847,-76969,0,0,0,367,456,310,411,386,445,529,436,322,234,217,353,0,,,
1,1775669102832,-9255,-220,14443,-6805038,-465479,-1579697,0,0,0,222,267,214,250,173,284,303,232,286,180,230,159,0,,,
2,1775669102832,1110,1316,9925,494800,-117286,-68416,0,0,0,386,458,310,413,390,443,520,415,334,238,200,377,0,,,
1,1775669102848,-9676,-933,16176,-6565579,-905302,-1480737,0,0,0,221,270,216,250,175,284,301,234,293,178,231,156,0,,,
2,1775669102848,1091,1239,10026,524122,-119729,-65973,0,0,0,403,463,315,419,381,452,505,394,346,240,189,395,0,,,
1,1775669102864,-9724,-1162,18454,-6312681,-1363451,-1291369,0,0,0,223,270,217,248,174,283,300,232,298,180,231,154,0,,,
2,1775669102864,1115,1129,10107,558330,-111177,-74525,0,0,0,412,471,321,433,396,458,517,378,341,247,184,411,0,,,
1,1775669102880,-9614,-1253,21024,-6195395,-1648114,-1165530,0,0,0,224,268,217,248,172,282,299,229,299,180,229,154,0,,,
2,1775669102880,1220,1000,10126,597426,-89186,-98960,0,0,0,421,488,328,426,399,462,505,355,345,247,175,430,0,,,
1,1775669102896,-9978,-1952,23675,-6156299,-1828930,-1177748,0,0,0,223,268,217,249,172,284,297,225,299,175,224,153,0,,,
2,1775669102896,1383,938,10169,641408,-58643,-144164,0,0,0,433,493,330,436,418,474,505,327,351,249,174,454,0,,,
1,1775669102912,-9906,-3670,26053,-6133086,-2169793,-1382998,0,0,0,223,268,217,251,172,285,297,227,303,178,227,157,0,,,
2,1775669102912,1550,866,10303,706160,-15882,-213802,0,0,0,449,491,346,444,420,483,493,295,356,253,166,476,0,,,
1,1775669102928,-7327,-7982,27796,-6087882,-2789210,-1871691,0,0,0,223,270,217,249,172,287,297,229,305,178,226,154,0,,,
2,1775669102928,1526,784,10533,801455,7330,-293215,0,0,0,453,506,328,454,434,488,483,270,361,259,169,501,0,,,
1,1775669102944,-3761,-14826,28552,-5871636,-3079982,-2287079,0,0,0,225,272,217,252,174,289,299,228,298,184,229,156,0,,,
2,1775669102944,1320,708,10763,938289,-46425,-318871,0,0,0,464,511,319,456,445,499,467,247,362,260,166,517,0,,,
1,1775669102960,-1588,-23254,26355,-5396383,-2654820,-2149023,0,0,0,225,268,218,255,173,294,304,228,298,186,228,155,0,,,
2,1775669102960,1378,598,11146,1120326,-87964,-326202,0,0,0,477,517,312,456,456,502,439,230,365,266,173,535,0,,,
1,1775669102976,134,-32605,20521,-4535063,-2012190,-949284,0,0,0,226,270,221,254,173,297,301,228,301,189,228,159,0,,,
2,1775669102976,1478,536,11897,1389107,-67195,-359188,0,0,0,477,520,299,468,464,504,418,216,366,266,173,540,0,,,
1,1775669102992,4316,-40009,15419,-3335324,-1472185,734260,0,0,0,226,270,219,254,174,294,305,228,302,197,232,158,0,,,
2,1775669102992,1282,521,12701,1729970,-34208,-395840,0,0,0,479,523,282,474,472,509,384,205,366,293,203,546,0,,,
1,1775669103008,10361,-43383,13850,-1858252,-745255,1969429,0,0,0,216,265,206,256,176,289,323,229,302,231,246,145,0,,,
2,1775669103008,842,531,13548,2210110,-20769,-394618,0,0,0,481,526,261,481,483,513,360,203,375,293,202,559,0,,,
1,1775669103024,12093,-40397,15549,-150272,533896,2013411,0,0,0,214,257,194,253,168,276,359,290,305,254,316,130,0,,,
2,1775669103024,1110,512,14285,2723237,-31764,-364075,0,0,0,489,529,252,481,483,506,334,204,383,270,176,567,0,,,
1,1775669103040,7504,-25958,19066,1782504,2331061,1331686,0,0,0,212,238,161,248,160,255,408,387,285,289,388,109,0,,,
2,1775669103040,1856,459,15132,3327993,-52534,-397062,0,0,0,497,528,245,472,478,498,293,196,383,262,168,564,0,,,
1,1775669103056,-1555,1454,15687,3552792,3946189,339641,0,0,0,222,226,141,262,156,246,447,441,274,343,420,99,0,,,
2,1775669103056,2632,507,16333,4051258,-112399,-529009,0,0,0,492,518,230,461,480,498,279,202,381,256,165,552,0,,,
1,1775669103072,-3278,12065,12912,4937012,3804468,-302989,0,0,0,227,228,140,278,158,249,470,465,272,391,436,99,0,,,
2,1775669103072,3823,612,18506,4965112,-210137,-768468,0,0,0,493,510,240,444,470,495,293,225,370,242,157,520,0,,,
1,1775669103088,1990,2268,19822,5634620,1682322,-19547,0,0,0,230,237,153,286,163,260,483,483,279,421,446,106,0,,,
2,1775669103088,5039,559,22100,5997474,-282219,-1097113,0,0,0,477,495,240,436,461,476,257,149,372,230,151,449,0,,,
1,1775669103104,1603,-3608,25427,4748866,271224,503352,0,0,0,241,250,182,294,168,284,490,489,298,432,450,120,0,,,
2,1775669103104,5939,607,26963,7013954,-202807,-1386664,0,0,0,425,470,216,429,444,465,239,141,342,239,165,388,0,,,
1,1775669103120,-3417,-2105,20961,2365270,124616,425162,0,0,0,244,261,215,308,178,319,498,492,306,431,459,136,0,,,
2,1775669103120,6944,1033,30744,7981565,109955,-1655444,0,0,0,362,443,208,403,412,438,255,149,310,223,160,336,0,,,
1,1775669103136,-3441,1143,11442,860098,186924,-147829,0,0,0,256,274,240,325,189,348,513,492,314,442,475,178,0,,,
2,1775669103136,7470,2919,32720,8811120,780685,-2028072,0,0,0,299,413,217,338,364,383,268,203,266,194,184,282,0,,,
1,1775669103152,-1904,1349,8289,431270,101403,-279776,0,0,0,287,277,258,348,188,357,521,505,322,460,488,196,0,,,
2,1775669103152,7446,5924,32969,9250943,1210734,-2554638,0,0,0,245,390,222,299,331,346,284,255,253,169,200,214,0,,,
1,1775669103168,-1545,631,9686,230907,80634,-123394,0,0,0,312,293,258,356,194,346,530,508,304,460,495,192,0,,,
2,1775669103168,8729,9638,25503,9161756,714712,-3038443,0,0,0,242,396,229,305,336,353,300,287,261,143,157,207,0,,,
1,1775669103184,-2010,1215,10610,25656,158824,-13439,0,0,0,308,300,274,363,193,354,535,504,315,461,495,202,0,,,
2,1775669103184,9652,15668,13907,7239974,-502131,-3348763,0,0,0,240,401,226,305,338,350,304,291,259,136,141,207,0,,,
1,1775669103200,-2005,1871,10332,32986,147829,3665,0,0,0,322,304,269,362,196,354,536,491,315,478,487,216,0,,,
2,1775669103200,7963,21574,9317,3005456,-1147204,-2776993,0,0,0,244,405,227,303,336,344,307,291,254,130,133,205,0,,,
1,1775669103216,-1785,1847,9968,194255,24434,13439,0,0,0,327,307,273,380,197,362,542,482,323,476,483,237,0,,,
2,1775669103216,4527,20885,11026,-2893057,-1204626,-981049,0,0,0,248,407,229,306,338,345,310,293,251,127,129,204,0,,,
1,1775669103232,-1780,1660,10050,277332,-67195,35430,0,0,0,338,327,273,379,204,370,537,453,332,464,473,253,0,,,
2,1775669103232,4508,12218,9471,-4860043,-1434311,278554,0,0,0,245,405,228,309,340,348,311,293,252,127,128,204,0,,,
1,1775669103248,-1837,1689,10193,322536,-130725,59864,0,0,0,344,337,267,380,211,373,531,432,333,454,454,268,0,,,
2,1775669103248,6728,4910,4857,-4763527,-1484402,658512,0,0,0,243,403,227,308,339,349,313,295,254,127,124,203,0,,,
1,1775669103264,-1828,1698,10069,388510,-205250,75747,0,0,0,336,336,260,381,215,376,532,418,333,440,436,281,0,,,
2,1775669103264,7494,4977,3670,-4429994,-736703,206472,0,0,0,244,408,230,308,340,348,309,296,253,125,123,201,0,,,
1,1775669103280,-1895,1579,9753,437379,-273667,78190,0,0,0,325,334,255,377,215,385,533,404,341,424,414,292,0,,,
2,1775669103280,6350,6312,5273,-4828278,125838,-138055,0,0,0,242,410,233,310,343,351,303,297,255,125,126,201,0,,,
1,1775669103296,-2067,1426,9557,420275,-260228,80634,0,0,0,322,335,253,380,215,398,526,398,354,417,389,308,0,,,
2,1775669103296,4436,6925,8126,-5630955,598647,-177150,0,0,0,241,407,231,309,340,347,318,302,253,129,127,202,0,,,
1,1775669103312,-2167,1363,9504,382401,-196698,87964,0,0,0,320,336,253,383,219,406,517,390,363,407,376,322,0,,,
2,1775669103312,4149,5982,9432,-6079330,695164,-15882,0,0,0,242,409,233,311,342,350,318,305,254,128,126,201,0,,,
1,1775669103328,-2158,1354,9547,354301,-113620,96516,0,0,0,316,320,258,388,223,406,516,367,359,400,367,328,0,,,
2,1775669103328,4479,4895,10361,-6293133,976162,134390,0,0,0,237,409,231,311,342,350,315,299,249,126,126,201,0,,,
1,1775669103344,-2081,1296,9605,344527,-61086,98960,0,0,0,309,312,276,384,221,418,519,344,367,395,351,344,0,,,
2,1775669103344,4417,4446,11840,-6371324,1503950,267558,0,0,0,236,410,232,309,342,350,314,299,250,128,127,201,0,,,
1,1775669103360,-2029,1244,9619,338419,-46425,92851,0,0,0,308,311,254,382,220,396,520,328,369,394,332,344,0,,,
2,1775669103360,3613,4580,14333,-6587570,1875356,491135,0,0,0,234,411,240,308,340,353,317,301,257,128,128,205,0,,,
1,1775669103376,-1995,1206,9619,320093,-35430,83077,0,0,0,309,326,255,389,246,400,518,327,376,384,337,354,0,,,
2,1775669103376,3455,4264,16491,-6855129,1962099,741590,0,0,0,236,413,243,309,343,357,313,298,256,125,125,203,0,,,
1,1775669103392,-1933,1162,9686,312763,-32986,76969,0,0,0,320,318,256,398,245,415,518,308,374,368,317,380,0,,,
2,1775669103392,4197,3345,18420,-7017619,2010968,935845,0,0,0,237,413,238,310,343,354,315,298,257,128,127,202,0,,,
1,1775669103408,-1938,1091,9782,339641,-64751,83077,0,0,0,326,321,242,406,254,406,514,283,370,378,302,376,0,,,
2,1775669103408,4972,2718,20559,-7071376,2193006,1056796,0,0,0,236,413,234,309,342,351,320,302,259,129,127,201,0,,,
1,1775669103424,-2067,1019,9777,392175,-112399,111177,0,0,0,344,313,233,415,251,427,511,266,387,373,281,386,0,,,
2,1775669103424,5431,2837,23962,-7156897,2516764,1204626,0,0,0,234,411,233,311,342,352,323,302,260,130,127,203,0,,,
1,1775669103440,-2273,990,9715,454483,-138055,158824,0,0,0,355,323,235,423,258,443,506,259,396,355,276,403,0,,,
2,1775669103440,5671,2866,28595,-7352374,2684141,1556484,0,0,0,234,410,234,315,344,357,326,300,261,131,127,205,0,,,
1,1775669103456,-2493,923,9729,525344,-142942,237015,0,0,0,348,340,251,425,266,457,498,244,398,333,253,430,0,,,
2,1775669103456,6288,406,32088,-7462329,2806314,2147802,0,0,0,236,412,237,318,344,364,328,297,266,130,123,210,0,,,
1,1775669103472,-2531,851,9916,594982,-149051,324980,0,0,0,345,351,255,428,275,480,495,231,401,311,222,458,0,,,
2,1775669103472,5470,-6556,33443,-7181331,3371976,2739119,0,0,0,237,414,241,318,343,371,328,292,273,129,123,217,0,,,
1,1775669103488,-2546,808,10217,673173,-133168,388510,0,0,0,365,365,237,442,304,492,490,222,403,307,214,483,0,,,
2,1775669103488,827,-18803,34783,-6180734,3632204,2899166,0,0,0,238,412,236,323,346,369,334,289,272,132,127,212,0,,,
1,1775669103504,-2579,727,10643,799011,-97738,456927,0,0,0,396,373,223,467,326,490,475,206,410,314,204,503,0,,,
2,1775669103504,-2412,-33912,31289,-4743979,2322509,2404365,0,0,0,244,416,235,326,348,362,336,288,268,133,128,203,0,,,
1,1775669103520,-2335,679,11261,983493,-72082,499687,0,0,0,404,372,242,478,303,515,460,200,425,290,170,518,0,,,
2,1775669103520,-2158,-44096,21990,-3082425,1018923,707381,0,0,0,240,415,232,328,352,365,335,299,269,134,138,205,0,,,
1,1775669103536,-1966,631,12021,1295034,-86742,496022,0,0,0,397,392,255,471,317,534,439,192,416,282,167,557,0,,,
2,1775669103536,-6077,-48054,16884,-1391551,697608,-1262047,0,0,0,240,415,232,328,355,365,332,300,267,135,142,206,0,,,
1,1775669103552,-1550,521,12725,1667662,-172263,447153,0,0,0,398,401,202,490,348,517,422,186,424,278,173,564,0,,,
2,1775669103552,-11342,-45024,18166,201585,114842,-2008524,0,0,0,235,410,233,324,356,362,340,327,263,141,163,199,0,,,
1,1775669103568,-1871,492,13515,2111150,-313984,384845,0,0,0,414,421,203,488,386,521,358,184,456,250,160,564,0,,,
2,1775669103568,-10150,-33251,20918,1847256,-1037249,-1645670,0,0,0,229,396,212,329,354,352,387,411,252,163,208,189,0,,,
1,1775669103584,-2928,502,14309,2663372,-417831,423940,0,0,0,422,423,190,463,361,522,304,177,469,245,152,565,0,,,
2,1775669103584,23,3517,21962,3316998,-2720793,-272445,0,0,0,233,359,196,320,323,340,424,456,242,197,280,184,0,,,
1,1775669103600,-3900,488,15051,3349984,-415388,626747,0,0,0,445,403,191,472,393,520,310,163,468,238,158,557,0,,,
2,1775669103600,6575,21689,12237,3624874,-3676187,968832,0,0,0,239,350,187,320,318,340,450,471,248,217,332,179,0,,,
1,1775669103616,-4450,536,16276,4073249,-294437,880867,0,0,0,446,386,237,471,353,526,235,148,461,220,129,545,0,,,
2,1775669103616,2656,10940,8509,4706105,-3358537,1615127,0,0,0,245,356,194,329,322,350,474,479,258,228,354,183,0,,,
1,1775669103632,-5695,373,17985,4842939,-161268,1177748,0,0,0,466,376,244,475,341,531,236,135,447,211,106,493,0,,,
2,1775669103632,-6728,-5072,18497,5566204,-1623679,1203404,0,0,0,250,367,213,336,325,361,490,491,265,236,358,189,0,,,
1,1775669103648,-7705,67,21205,5732359,-84299,1611462,0,0,0,460,369,260,455,327,514,205,126,440,190,97,438,0,,,
2,1775669103648,-5503,-2876,24666,4516737,-515570,-29321,0,0,0,255,381,235,340,328,365,499,502,266,236,350,194,0,,,
1,1775669103664,-10203,71,24819,6620557,65973,2122145,0,0,0,416,356,235,415,293,452,179,125,390,169,94,354,0,,,
2,1775669103664,1110,2249,20210,2908940,-188146,-610865,0,0,0,261,394,260,341,332,369,498,519,263,276,381,202,0,,,
1,1775669103680,-12309,95,27920,7370699,379958,2697580,0,0,0,345,343,203,355,267,393,180,147,342,150,113,284,0,,,
2,1775669103680,3149,2613,11916,1693318,-147829,-189368,0,0,0,267,405,283,343,338,375,494,535,265,351,443,211,0,,,
1,1775669103696,-12543,2091,29609,7915591,709825,3288898,0,0,0,276,317,192,299,244,347,211,183,323,148,155,227,0,,,
2,1775669103696,2062,1134,9131,965167,-140499,139277,0,0,0,279,417,295,354,348,381,503,531,269,378,451,224,0,,,
1,1775669103712,-11342,5384,29231,8338310,993266,3749490,0,0,0,251,274,184,273,192,289,276,208,296,169,196,161,0,,,
2,1775669103712,1225,583,10600,511905,-227241,158824,0,0,0,303,430,306,364,353,385,509,537,266,374,439,239,0,,,
1,1775669103728,-12294,9753,22120,8552113,1318247,3964515,0,0,0,261,254,208,261,157,272,302,217,284,181,220,150,0,,,
2,1775669103728,1335,1344,10854,246789,-307876,75747,0,0,0,318,433,310,372,357,394,520,543,276,373,436,258,0,,,
1,1775669103744,-13563,13294,13749,7962017,1166752,4075692,0,0,0,257,253,232,271,157,293,308,216,300,194,219,153,0,,,
2,1775669103744,1234,1904,10284,117286,-287106,28099,0,0,0,323,433,306,372,356,392,521,543,281,366,426,245,0,,,
1,1775669103760,-10720,17147,9791,5279097,580321,3384193,0,0,0,251,272,206,261,170,277,292,220,285,201,212,160,0,,,
2,1775669103760,1153,1990,10011,98960,-186924,10995,0,0,0,336,439,320,383,359,396,522,541,275,373,428,250,0,,,
1,1775669103776,-4556,19669,10863,-59864,706160,582765,0,0,0,249,272,200,261,173,270,296,223,269,192,220,149,0,,,
2,1775669103776,1210,1981,10141,120951,-130725,-2443,0,0,0,342,439,318,384,361,399,523,541,274,372,421,244,0,,,
1,1775669103792,-3498,15783,10457,-3720169,1577254,-2008524,0,0,0,250,272,201,259,173,272,300,225,274,191,218,149,0,,,
2,1775669103792,1158,2077,10184,164933,-97738,-17104,0,0,0,346,441,318,380,357,393,529,536,280,377,420,247,0,,,
1,1775669103808,-7504,8877,6949,-4499633,1762957,-2686585,0,0,0,244,273,200,261,174,276,297,226,278,187,220,150,0,,,
2,1775669103808,1091,2153,10064,251676,-14660,-28099,0,0,0,353,448,321,387,365,397,531,534,282,291,332,270,0,,,
1,1775669103824,-9480,4804,4144,-4240626,867428,-2061059,0,0,0,233,274,201,257,178,278,297,226,279,186,223,152,0,,,
2,1775669103824,1134,2105,9954,334754,64751,-30543,0,0,0,356,450,320,385,366,396,534,527,286,259,296,279,0,,,
1,1775669103840,-7044,4733,4594,-4124562,-64751,-1202182,0,0,0,230,276,205,256,179,280,298,228,280,185,224,151,0,,,
2,1775669103840,1249,1966,9877,394618,112399,-30543,0,0,0,357,449,319,386,366,400,532,514,288,255,282,283,0,,,
1,1775669103856,-4479,5498,6585,-4550946,-232128,-871093,0,0,0,230,280,208,256,180,283,298,228,283,186,225,153,0,,,
2,1775669103856,1340,1818,9791,403171,102625,-34208,0,0,0,358,450,319,389,368,406,530,499,291,255,281,288,0,,,
1,1775669103872,-4608,5484,8475,-5288871,59864,-1081231,0,0,0,230,283,208,256,180,283,297,230,283,185,225,153,0,,,
2,1775669103872,1402,1713,9719,378736,73303,-40317,0,0,0,361,452,321,391,370,408,528,483,296,254,284,291,0,,,
1,1775669103888,-5939,4321,9954,-5908288,-129503,-1347568,0,0,0,230,282,209,256,179,281,296,232,279,184,224,151,0,,,
2,1775669103888,1450,1660,9696,340862,31764,-48869,0,0,0,362,452,322,387,366,404,519,467,300,252,285,292,0,,,
1,1775669103904,-6278,3005,11509,-6323676,-579100,-1589471,0,0,0,227,281,211,255,181,283,294,230,280,186,226,151,0,,,
2,1775669103904,1445,1665,9719,309097,-14660,-58643,0,0,0,361,450,319,386,362,403,515,454,303,278,305,291,0,,,
1,1775669103920,-5910,1919,13146,-6574131,-913854,-1893682,0,0,0,223,282,216,251,181,285,292,230,286,185,233,154,0,,,
2,1775669103920,1392,1665,9748,293215,-51312,-69638,0,0,0,365,451,319,396,368,415,524,452,304,312,309,299,0,,,
1,1775669103936,-6499,904,14658,-6731734,-1062905,-2200336,0,0,0,222,281,215,254,183,285,292,229,280,187,233,155,0,,,
2,1775669103936,1363,1651,9748,298102,-56199,-69638,0,0,0,371,452,323,403,372,429,527,441,314,256,239,327,0,,,
1,1775669103952,-7475,-162,16578,-6803817,-1324355,-2366491,0,0,0,220,280,211,258,181,284,297,230,278,182,228,148,0,,,
2,1775669103952,1363,1627,9772,323758,-62308,-67195,0,0,0,376,453,325,408,372,440,528,432,318,267,222,333,0,,,
1,1775669103968,-7915,-871,18947,-6752504,-1585806,-2346944,0,0,0,217,279,213,248,179,283,292,230,281,182,232,150,0,,,
2,1775669103968,1335,1550,9801,354301,-63529,-62308,0,0,0,388,453,315,426,380,447,529,419,323,251,202,356,0,,,
1,1775669103984,-8418,-1593,21622,-6676757,-1753183,-2375044,0,0,0,217,279,216,248,181,282,298,231,288,180,224,150,0,,,
2,1775669103984,1306,1488,9834,392175,-59864,-64751,0,0,0,400,459,318,422,382,449,524,403,324,244,189,372,0,,,
1,1775669104000,-9499,-3048,24900,-6560692,-1874134,-2537534,0,0,0,220,279,214,250,181,282,298,231,286,180,222,149,0,,,
2,1775669104000,1320,1435,9906,447153,-43982,-78190,0,0,0,402,461,313,424,386,458,524,390,351,244,183,396,0,,,
1,1775669104016,-10284,-6125,28126,-6469062,-2274862,-2739119,0,0,0,220,276,213,253,176,282,301,223,285,181,217,146,0,,,
2,1775669104016,1411,1383,10011,525344,-12217,-106290,0,0,0,410,476,322,429,398,469,520,372,346,252,186,429,0,,,
1,1775669104032,-9404,-10820,30672,-6521597,-2864957,-2757445,0,0,0,217,276,206,258,176,284,305,222,288,185,212,146,0,,,
2,1775669104032,1521,1320,10131,613308,21991,-142942,0,0,0,425,489,329,436,408,486,514,337,348,251,179,448,0,,,
1,1775669104048,-7264,-18722,30107,-6536258,-2993239,-2411695,0,0,0,216,278,203,260,180,286,308,221,291,189,215,145,0,,,
2,1775669104048,1641,1253,10361,719599,53756,-183259,0,0,0,439,495,331,448,418,496,506,304,358,246,161,471,0,,,
1,1775669104064,-5771,-28561,24991,-6020687,-2553416,-1461189,0,0,0,216,281,204,261,183,290,307,222,294,192,221,147,0,,,
2,1775669104064,1866,1215,10796,875980,87964,-238237,0,0,0,455,502,332,452,431,497,493,277,369,277,162,498,0,,,
1,1775669104080,-2306,-35860,18367,-4781853,-2320066,206472,0,0,0,216,282,207,263,182,292,308,225,297,194,224,147,0,,,
2,1775669104080,2043,1196,11490,1130100,108734,-307876,0,0,0,465,512,328,456,443,502,470,245,377,281,168,522,0,,,
1,1775669104096,7422,-39770,15257,-3152064,-1941329,1887573,0,0,0,219,281,208,264,181,292,310,224,296,198,223,147,0,,,
2,1775669104096,1856,1115,12275,1492954,107512,-354301,0,0,0,472,518,310,467,451,509,441,218,376,261,170,544,0,,,
1,1775669104112,14745,-42206,15032,-1578475,-607200,2510656,0,0,0,222,281,209,265,182,292,310,224,294,200,222,146,0,,,
2,1775669104112,1612,1048,13294,1973094,145385,-383623,0,0,0,479,518,285,476,465,521,405,207,379,262,172,559,0,,,
1,1775669104128,11428,-40057,15831,167377,1188743,1992642,0,0,0,225,276,207,265,177,292,323,243,293,210,249,140,0,,,
2,1775669104128,1957,961,14501,2582738,237015,-422718,0,0,0,478,519,261,479,484,535,361,200,389,278,178,561,0,,,
1,1775669104144,4335,-30174,17630,1815491,2174680,1417207,0,0,0,228,257,192,266,165,276,369,310,282,254,326,119,0,,,
2,1775669104144,2699,1038,15582,3266907,228463,-544891,0,0,0,483,524,241,475,486,532,334,196,387,316,192,573,0,,,
1,1775669104160,-3919,717,20095,2918714,2836858,558330,0,0,0,216,247,137,252,155,221,432,409,248,291,385,92,0,,,
2,1775669104160,3177,1167,16582,4041484,117286,-724486,0,0,0,495,517,234,461,479,532,308,184,384,253,173,588,0,,,
1,1775669104176,-7068,25604,12988,3015230,3736051,-779464,0,0,0,228,241,132,260,147,217,459,453,248,327,418,88,0,,,
2,1775669104176,3622,1474,18166,4915021,25656,-933402,0,0,0,501,502,237,454,478,510,269,149,390,254,161,562,0,,,
1,1775669104192,-416,13697,9112,4089131,3903428,-1117883,0,0,0,226,242,128,274,158,233,473,463,257,363,440,93,0,,,
2,1775669104192,4723,1832,20851,5929058,-7330,-1182635,0,0,0,486,496,242,449,446,505,271,142,387,238,142,519,0,,,
1,1775669104208,5427,-3503,18669,5254662,2152689,-98960,0,0,0,234,252,144,282,156,253,475,475,259,392,441,99,0,,,
2,1775669104208,6317,2115,25154,7098254,-19547,-1491732,0,0,0,448,464,236,455,442,504,277,179,353,211,132,426,0,,,
1,1775669104224,2105,-4316,23857,4489859,630412,775798,0,0,0,245,265,175,289,159,266,487,488,269,420,454,107,0,,,
2,1775669104224,6896,2680,30313,8211250,186924,-1787391,0,0,0,376,439,200,430,416,458,259,145,336,199,126,350,0,,,
1,1775669104240,-4680,957,19803,2664594,111177,715934,0,0,0,243,271,199,301,171,289,505,498,282,429,466,122,0,,,
2,1775669104240,6293,3656,33433,9035918,607200,-2007303,0,0,0,327,418,206,369,378,405,277,178,299,172,119,316,0,,,
1,1775669104256,-4374,1038,12653,1433089,216246,-37873,0,0,0,249,272,224,316,183,325,514,507,312,434,473,156,0,,,
2,1775669104256,5561,5202,33835,9600358,1183856,-2245540,0,0,0,259,394,217,325,351,365,291,228,271,129,109,223,0,,,
1,1775669104272,-2033,-105,9901,779464,169820,-298102,0,0,0,268,273,251,336,184,342,524,510,322,442,484,188,0,,,
2,1775669104272,7068,8695,27307,9638231,1584584,-2592512,0,0,0,246,397,231,316,343,360,301,257,271,124,119,204,0,,,
1,1775669104288,-1732,-23,10332,449596,57421,-152716,0,0,0,286,286,261,351,187,349,532,499,324,446,497,201,0,,,
2,1775669104288,7767,13893,16917,9071348,1263269,-3185051,0,0,0,248,401,233,315,341,362,302,267,269,124,126,211,0,,,
1,1775669104304,-2536,890,10476,252898,72082,-15882,0,0,0,301,293,256,361,193,350,535,492,337,455,507,208,0,,,
2,1775669104304,5723,20713,10902,5964488,-696386,-3580892,0,0,0,248,401,229,313,340,357,303,270,263,126,128,209,0,,,
1,1775669104320,-2598,1239,10150,235793,123394,12217,0,0,0,312,290,254,368,194,350,538,490,344,466,505,221,0,,,
2,1775669104320,5120,24637,9217,814894,-1929112,-2985909,0,0,0,250,402,228,312,339,350,305,272,255,129,129,205,0,,,
1,1775669104336,-2263,1153,9987,301767,95294,26878,0,0,0,314,295,259,372,198,361,541,479,338,458,494,241,0,,,
2,1775669104336,5058,19885,9868,-5152037,-1882686,-1588249,0,0,0,254,404,229,312,338,350,308,273,250,128,126,201,0,,,
1,1775669104352,-2144,1086,10083,355523,17104,41538,0,0,0,314,304,265,377,203,375,539,469,338,436,486,267,0,,,
2,1775669104352,4407,9652,9040,-6609561,-1706757,-717155,0,0,0,253,404,231,313,340,353,310,275,251,127,125,200,0,,,
1,1775669104368,-2244,1162,10184,403171,-61086,57421,0,0,0,319,323,274,377,208,389,533,449,354,419,471,283,0,,,
2,1775669104368,5594,4106,6523,-6112317,-1819156,-361632,0,0,0,247,403,232,312,340,354,310,277,253,128,128,200,0,,,
1,1775669104384,-2287,1143,10026,443488,-113620,76969,0,0,0,321,300,268,380,198,397,530,439,359,411,438,292,0,,,
2,1775669104384,8159,4216,5116,-5569869,-1266934,-307876,0,0,0,244,407,233,313,341,354,309,280,253,130,129,201,0,,,
1,1775669104400,-2287,1038,9734,483805,-168598,87964,0,0,0,322,295,265,379,220,386,526,407,354,390,421,295,0,,,
2,1775669104400,8466,5503,6446,-5864306,-252898,-218689,0,0,0,237,407,230,315,345,354,308,280,251,127,127,201,0,,,
1,1775669104416,-2378,885,9547,504574,-204028,87964,0,0,0,323,287,267,380,231,393,518,375,362,381,393,311,0,,,
2,1775669104416,6570,5522,9284,-6525262,574213,83077,0,0,0,240,412,233,311,343,353,309,281,251,127,130,201,0,,,
1,1775669104432,-2459,737,9461,478918,-174707,92851,0,0,0,335,286,254,385,223,382,511,345,351,368,370,316,0,,,
2,1775669104432,5642,3881,10796,-6735400,877202,533896,0,0,0,242,412,233,312,343,353,309,282,251,128,129,202,0,,,
1,1775669104448,-2469,660,9466,428827,-106290,101403,0,0,0,320,307,254,376,240,383,512,334,353,360,355,327,0,,,
2,1775669104448,5594,2818,11639,-6660874,1189965,851546,0,0,0,242,412,234,311,343,353,313,285,256,128,133,202,0,,,
1,1775669104464,-2421,646,9528,395840,-63529,107512,0,0,0,310,316,259,372,251,389,506,320,357,360,340,339,0,,,
2,1775669104464,5216,2723,13180,-6563136,1527163,1061683,0,0,0,239,411,232,314,343,355,313,286,256,128,133,200,0,,,
1,1775669104480,-2364,650,9585,383623,-50090,113620,0,0,0,314,309,260,380,236,394,503,303,362,356,319,349,0,,,
2,1775669104480,5015,2804,15013,-6569244,1671327,1203404,0,0,0,239,411,233,316,344,358,307,280,252,127,130,200,0,,,
1,1775669104496,-2306,612,9619,375071,-36651,113620,0,0,0,315,303,258,388,222,402,499,282,371,352,297,360,0,,,
2,1775669104496,5532,2790,17090,-6696304,1748296,1248608,0,0,0,241,412,235,317,344,359,313,283,256,126,130,200,0,,,
1,1775669104512,-2292,545,9648,377514,-29321,109955,0,0,0,328,303,256,397,217,411,494,261,376,358,274,372,0,,,
2,1775669104512,6221,2708,19459,-6901555,1946216,1186300,0,0,0,240,411,236,315,341,358,312,285,256,128,132,202,0,,,
1,1775669104528,-2287,483,9705,395840,-48869,114842,0,0,0,346,306,256,407,217,421,492,250,374,359,256,391,0,,,
2,1775669104528,6542,2502,22828,-7086036,2204001,1154535,0,0,0,240,410,236,314,340,357,314,283,258,129,131,202,0,,,
1,1775669104544,-2345,421,9791,437379,-96516,140499,0,0,0,334,313,255,400,239,438,490,243,380,336,249,421,0,,,
2,1775669104544,6953,1732,26929,-7183775,2404365,1290147,0,0,0,240,410,236,316,341,360,319,282,260,128,127,200,0,,,
1,1775669104560,-2522,397,9858,509461,-153938,194255,0,0,0,339,322,250,416,245,441,489,232,384,325,230,432,0,,,
2,1775669104560,7063,-1574,29672,-7144679,2736676,1676214,0,0,0,238,411,236,317,343,362,319,278,261,127,124,201,0,,,
1,1775669104576,-2761,320,9901,597426,-199142,272445,0,0,0,354,327,252,453,246,449,513,213,386,321,212,444,0,,,
2,1775669104576,4833,-7982,31366,-6831916,3457497,2130697,0,0,0,238,411,237,317,342,362,321,275,263,128,125,202,0,,,
1,1775669104592,-2852,167,10026,697608,-223576,360410,0,0,0,367,374,246,442,275,472,492,219,419,304,197,481,0,,,
2,1775669104592,287,-18454,32983,-5976705,3513696,2378709,0,0,0,240,409,236,319,342,364,326,275,267,129,125,201,0,,,
1,1775669104608,-2613,43,10294,816115,-213802,416610,0,0,0,366,377,248,460,275,496,480,211,427,304,195,497,0,,,
2,1775669104608,-670,-30480,30054,-4879591,2230879,2002416,0,0,0,241,406,234,322,343,366,329,278,271,130,127,204,0,,,
1,1775669104624,-2531,57,10973,988379,-200363,420275,0,0,0,407,375,230,477,303,509,458,198,436,296,168,527,0,,,
2,1775669104624,914,-41392,21397,-3492927,1040914,507018,0,0,0,244,408,237,323,343,366,329,278,269,133,129,203,0,,,
1,1775669104640,-2632,86,11835,1244943,-226020,433714,0,0,0,410,388,233,468,313,518,437,192,442,308,168,539,0,,,
2,1775669104640,-4857,-45809,17071,-1835039,1181413,-1309695,0,0,0,240,405,235,320,342,365,333,290,268,134,134,201,0,,,
1,1775669104656,-2613,-9,12524,1580919,-277332,454483,0,0,0,410,399,232,471,334,527,402,176,429,277,156,557,0,,,
2,1775669104656,-12146,-45053,18233,-186924,758694,-2009746,0,0,0,234,399,223,320,347,357,359,377,261,142,178,183,0,,,
1,1775669104672,-2593,-177,13275,2083050,-361632,475253,0,0,0,416,406,202,480,366,523,384,172,430,267,155,570,0,,,
2,1775669104672,-13807,-31806,24177,1783726,-1225395,-1152091,0,0,0,227,354,195,313,321,341,396,430,257,173,232,183,0,,,
1,1775669104688,-3364,-86,14290,2612059,-386066,549778,0,0,0,426,403,184,476,386,524,340,175,453,259,164,567,0,,,
2,1775669104688,-1689,2842,19947,3587000,-4216191,769690,0,0,0,237,337,181,314,310,336,442,454,251,194,278,178,0,,,
1,1775669104704,-4321,57,15687,3353650,-331088,740368,0,0,0,435,400,190,464,384,519,261,184,459,235,164,566,0,,,
2,1775669104704,3665,15439,11715,4467868,-4952895,1836260,0,0,0,244,343,172,324,317,342,466,472,254,214,330,181,0,,,
1,1775669104720,-5532,301,17477,4266282,-213802,1047023,0,0,0,443,397,204,456,363,510,214,181,446,212,138,551,0,,,
2,1775669104720,-4039,3914,14606,5170363,-2917492,1511280,0,0,0,247,355,188,330,320,354,484,486,262,224,353,190,0,,,
1,1775669104736,-7695,540,20177,5287649,-118507,1480737,0,0,0,450,379,216,443,337,506,227,148,446,194,109,481,0,,,
2,1775669104736,-9045,-3038,22330,5211902,-778242,324980,0,0,0,248,360,206,335,319,361,489,506,265,239,359,198,0,,,
1,1775669104752,-10442,497,23938,6317568,-26878,2039068,0,0,0,418,364,214,423,329,445,213,141,409,185,114,392,0,,,
2,1775669104752,-2742,-201,23498,4201531,63529,-791681,0,0,0,256,374,236,341,324,371,502,511,275,239,339,213,0,,,
1,1775669104768,-12088,756,28193,7351152,135612,2706133,0,0,0,355,346,173,399,307,399,196,146,371,166,110,312,0,,,
2,1775669104768,3144,1718,16554,2792875,-43982,-425162,0,0,0,268,394,263,351,339,382,518,523,281,243,333,232,0,,,
1,1775669104784,-12098,1555,31026,8100073,305432,3216816,0,0,0,292,327,176,328,273,367,208,174,325,158,135,266,0,,,
2,1775669104784,3311,1282,11289,1602910,-188146,114842,0,0,0,281,411,280,364,353,390,532,537,287,312,365,241,0,,,
1,1775669104800,-11361,4192,31323,8632747,504574,3632204,0,0,0,229,278,178,261,206,290,248,213,297,152,194,152,0,,,
2,1775669104800,1206,234,10552,778242,-267558,249233,0,0,0,296,422,290,374,359,395,537,546,290,375,411,248,0,,,
1,1775669104816,-12376,8470,25785,8883202,693942,3949854,0,0,0,247,253,184,265,171,268,290,214,290,183,212,139,0,,,
2,1775669104816,617,397,11016,333532,-311541,133168,0,0,0,311,432,297,379,364,398,536,553,285,331,399,266,0,,,
1,1775669104832,-14218,13620,14970,8440935,519235,4273613,0,0,0,245,261,197,265,178,275,292,233,294,177,238,144,0,,,
2,1775669104832,942,1368,10696,150272,-322536,7330,0,0,0,329,444,306,385,369,403,541,549,284,261,328,284,0,,,
1,1775669104848,-11615,18588,9806,5826432,-103847,4123340,0,0,0,238,268,201,258,182,276,285,241,292,171,244,147,0,,,
2,1775669104848,914,1612,10232,92851,-237015,3665,0,0,0,335,450,313,382,369,402,545,551,290,261,328,290,0,,,
1,1775669104864,-4848,22689,10198,872315,-94073,2310292,0,0,0,239,271,200,258,183,271,293,242,289,178,242,143,0,,,
2,1775669104864,880,1641,10184,70860,-166155,0,0,0,0,335,445,308,381,368,399,544,554,291,265,329,289,0,,,
1,1775669104880,-2584,18061,10495,-3558900,1231504,-673173,0,0,0,243,273,197,261,180,267,300,238,287,189,242,141,0,,,
2,1775669104880,808,1713,10313,97738,-117286,-20769,0,0,0,335,446,303,378,367,396,543,555,295,276,346,287,0,,,
1,1775669104896,-6475,9729,7489,-5346292,1987755,-2344500,0,0,0,238,277,195,259,182,266,298,237,288,192,244,144,0,,,
2,1775669104896,741,1823,10236,184481,-41538,-42760,0,0,0,336,449,303,381,371,400,533,542,295,262,315,291,0,,,
1,1775669104912,-9691,4943,4235,-4813618,800233,-1781283,0,0,0,228,282,197,252,185,267,298,243,294,187,246,146,0,,,
2,1775669104912,775,1818,10050,268780,23212,-46425,0,0,0,340,452,300,384,374,403,526,532,296,257,300,293,0,,,
1,1775669104928,-8126,4115,3823,-4340808,-585208,-877202,0,0,0,221,287,201,250,187,270,301,247,296,183,248,145,0,,,
2,1775669104928,851,1694,9897,320093,48869,-35430,0,0,0,343,453,303,384,371,401,519,516,295,253,287,296,0,,,
1,1775669104944,-3857,5407,6197,-4566828,-1042136,-510683,0,0,0,220,287,202,254,193,272,301,246,295,185,250,145,0,,,
2,1775669104944,914,1588,9810,345749,47647,-30543,0,0,0,347,457,306,388,377,405,522,508,301,250,278,298,0,,,
1,1775669104960,-2383,5924,8882,-5332853,-586430,-906524,0,0,0,217,291,201,250,202,269,302,249,297,186,251,145,0,,,
2,1775669104960,942,1531,9782,351858,30543,-36651,0,0,0,350,458,309,386,380,405,522,499,303,246,267,301,0,,,
1,1775669104976,-4039,4800,10476,-6045122,-568104,-1445307,0,0,0,217,295,199,246,217,268,301,256,301,185,253,142,0,,,
2,1775669104976,985,1474,9791,345749,12217,-45204,0,0,0,355,460,308,386,377,405,519,485,304,244,256,305,0,,,
1,1775669104992,-4584,3311,11797,-6464175,-1125213,-1718974,0,0,0,211,293,194,243,221,268,309,263,303,178,254,138,0,,,
2,1775669104992,1057,1407,9796,334754,-19547,-51312,0,0,0,361,465,310,391,376,412,513,469,309,243,245,315,0,,,
1,1775669105008,-3297,2278,13582,-6631553,-1547932,-1788613,0,0,0,211,297,197,242,221,268,308,266,306,182,261,141,0,,,
2,1775669105008,1076,1383,9782,329867,-76969,-56199,0,0,0,374,468,315,399,380,422,514,458,318,245,237,333,0,,,
1,1775669105024,-2550,1651,15367,-6695083,-1571145,-1830152,0,0,0,213,296,206,246,216,276,298,259,308,183,261,144,0,,,
2,1775669105024,1033,1373,9815,340862,-130725,-62308,0,0,0,390,471,317,405,382,434,520,448,324,248,227,357,0,,,
1,1775669105040,-3000,1110,17209,-6681643,-1452637,-1804495,0,0,0,218,284,208,251,196,278,301,245,309,187,256,147,0,,,
2,1775669105040,961,1354,9887,371406,-163711,-63529,0,0,0,397,475,313,411,381,445,511,426,321,245,212,378,0,,,
1,1775669105056,-3742,531,19392,-6652322,-1501506,-1694540,0,0,0,220,279,206,252,188,276,304,250,310,184,253,145,0,,,
2,1775669105056,909,1287,9997,415388,-167377,-59864,0,0,0,410,480,320,424,395,453,507,405,323,244,200,391,0,,,
1,1775669105072,-4513,76,21923,-6654765,-1528384,-1687209,0,0,0,229,280,219,248,181,272,297,243,307,178,244,138,0,,,
2,1775669105072,904,1182,10098,464257,-155159,-65973,0,0,0,416,485,320,428,433,440,508,384,357,249,194,403,0,,,
1,1775669105088,-5857,-808,25025,-6664539,-1519832,-1952325,0,0,0,229,278,225,252,179,281,301,236,312,182,235,143,0,,,
2,1775669105088,952,1095,10160,516791,-138055,-84299,0,0,0,432,494,326,434,411,469,499,365,334,249,185,427,0,,,
1,1775669105104,-7083,-3101,28164,-6619335,-1674992,-2421469,0,0,0,223,274,222,256,176,289,307,230,319,188,225,151,0,,,
2,1775669105104,1076,1062,10232,585208,-123394,-114842,0,0,0,440,502,319,440,419,470,494,328,346,259,184,451,0,,,
1,1775669105120,-7451,-8872,30739,-6440963,-2133141,-2933374,0,0,0,220,273,220,254,180,292,307,225,320,191,220,153,0,,,
2,1775669105120,1239,1000,10370,675616,-108734,-163711,0,0,0,457,504,329,450,430,481,484,302,343,255,175,471,0,,,
1,1775669105136,-7470,-17841,30686,-6134308,-2313957,-3005456,0,0,0,220,275,218,257,186,293,310,222,314,196,223,150,0,,,
2,1775669105136,1340,909,10614,780685,-89186,-228463,0,0,0,466,519,334,456,437,501,469,268,353,254,166,494,0,,,
1,1775669105152,-7422,-29270,25977,-5595525,-2041511,-2229658,0,0,0,223,278,208,262,176,284,313,224,307,199,221,142,0,,,
2,1775669105152,1287,823,11050,937067,-76969,-296880,0,0,0,477,524,328,458,445,501,451,241,369,261,170,520,0,,,
1,1775669105168,-2024,-39698,18803,-4411668,-2084272,-475253,0,0,0,224,279,203,262,180,283,306,221,305,201,226,143,0,,,
2,1775669105168,1186,780,11672,1160643,-76969,-338419,0,0,0,480,533,320,452,451,498,423,219,369,265,176,543,0,,,
1,1775669105184,9490,-45728,14367,-2557081,-1778839,1209513,0,0,0,223,281,206,260,182,283,301,230,303,204,243,143,0,,,
2,1775669105184,1162,784,12691,1541823,-56199,-365297,0,0,0,486,543,304,461,464,507,391,210,371,263,176,551,0,,,
1,1775669105200,14381,-46699,16070,-613308,122173,1535715,0,0,0,219,261,185,250,169,262,343,317,302,256,327,128,0,,,
2,1775669105200,1062,823,14127,2081828,-15882,-397062,0,0,0,494,546,284,463,473,513,354,204,368,260,178,557,0,,,
1,1775669105216,9638,-37659,19684,1813048,2800206,1407433,0,0,0,219,243,154,251,162,240,404,391,273,283,407,102,0,,,
2,1775669105216,1502,899,15711,2798984,-64751,-434936,0,0,0,492,546,261,453,478,512,310,199,363,261,183,568,0,,,
1,1775669105232,-1306,-9585,17784,4147774,4701218,1238834,0,0,0,228,237,143,260,155,235,449,420,271,339,422,102,0,,,
2,1775669105232,2383,1129,17262,3624874,-233350,-522900,0,0,0,491,543,247,446,481,507,269,189,362,262,182,573,0,,,
1,1775669105248,-5762,8442,15922,5398826,4175874,773355,0,0,0,231,237,132,279,162,243,474,470,269,381,439,95,0,,,
2,1775669105248,3484,1426,18832,4471533,-458148,-695164,0,0,0,498,526,250,441,478,496,245,170,353,254,168,555,0,,,
1,1775669105264,-1210,3699,20904,5783672,1966986,282219,0,0,0,235,244,151,286,160,260,482,483,280,408,449,106,0,,,
2,1775669105264,4986,1933,21713,5617516,-731816,-1026253,0,0,0,484,506,245,432,478,482,237,155,343,235,155,505,0,,,
1,1775669105280,1249,-3129,25417,4511850,327423,416610,0,0,0,242,254,188,297,164,276,489,479,285,411,452,107,0,,,
2,1775669105280,6379,2249,25843,6877120,-1012814,-1426981,0,0,0,458,493,244,436,473,473,234,141,330,219,141,431,0,,,
1,1775669105296,-1890,-2383,20914,2564412,-31764,456927,0,0,0,245,266,212,310,175,304,504,480,294,416,468,137,0,,,
2,1775669105296,7623,2675,30701,8076860,-1145983,-1791056,0,0,0,373,471,214,397,436,431,253,159,310,201,139,361,0,,,
1,1775669105312,-4259,536,12189,1153313,62308,46425,0,0,0,259,270,224,324,182,328,519,486,310,424,485,169,0,,,
2,1775669105312,8647,4067,32754,8961393,-794124,-2139250,0,0,0,315,447,222,350,424,373,269,193,276,172,124,315,0,,,
1,1775669105328,-3115,583,8815,637743,91629,-221133,0,0,0,281,271,234,340,181,337,527,493,322,432,495,184,0,,,
2,1775669105328,8968,6412,32658,9503841,-10995,-2627942,0,0,0,251,408,226,323,356,363,287,240,253,127,117,216,0,,,
1,1775669105344,-2024,191,9758,274889,127059,-180816,0,0,0,299,279,239,363,178,335,531,497,329,449,499,197,0,,,
2,1775669105344,9514,8437,24972,9419541,-24434,-3169168,0,0,0,237,406,230,317,350,357,300,265,266,131,130,210,0,,,
1,1775669105360,-2129,665,10873,91629,163711,-46425,0,0,0,312,287,242,381,181,331,531,496,341,460,502,216,0,,,
2,1775669105360,9772,12036,14706,8464148,-819781,-3589444,0,0,0,240,409,233,317,349,356,303,274,262,129,131,207,0,,,
1,1775669105376,-2292,1306,10346,72082,107512,9773,0,0,0,312,289,249,364,189,333,527,486,344,446,508,233,0,,,
2,1775669105376,7437,18401,9231,5525886,-1661553,-3023782,0,0,0,238,410,228,320,351,356,301,273,251,129,129,203,0,,,
1,1775669105392,-2239,1387,9868,174707,10995,25656,0,0,0,316,289,258,361,185,338,527,484,328,454,497,254,0,,,
2,1775669105392,5144,21694,8748,-134390,-1718974,-566882,0,0,0,238,413,225,321,352,354,306,275,249,131,131,203,0,,,
1,1775669105408,-2177,1229,10021,277332,-80634,45204,0,0,0,321,289,265,366,187,352,534,460,323,443,465,268,0,,,
2,1775669105408,5551,16199,8490,-4119675,-1462411,1640784,0,0,0,237,414,226,319,352,354,308,277,251,132,133,205,0,,,
1,1775669105424,-2215,1229,10222,334754,-149051,65973,0,0,0,311,293,256,363,190,358,521,433,350,469,446,292,0,,,
2,1775669105424,7547,7427,5695,-4913799,-1051909,2210110,0,0,0,235,414,228,319,351,355,308,279,252,131,132,204,0,,,
1,1775669105440,-2244,1258,10098,371406,-197920,81855,0,0,0,318,291,249,371,190,359,526,425,350,427,435,295,0,,,
2,1775669105440,8183,3608,3565,-4533841,-553443,1695761,0,0,0,233,413,230,319,351,360,307,279,253,129,129,202,0,,,
1,1775669105456,-2306,1148,9724,394618,-232128,84299,0,0,0,319,295,239,373,205,360,517,419,364,402,415,306,0,,,
2,1775669105456,6982,4144,3761,-4324925,56199,686612,0,0,0,231,413,232,318,351,366,308,281,258,128,129,205,0,,,
1,1775669105472,-2426,1009,9518,398284,-235793,89186,0,0,0,319,303,237,369,207,359,515,399,370,397,400,314,0,,,
2,1775669105472,5642,5331,5814,-4930904,313984,216246,0,0,0,231,412,234,316,351,366,310,282,261,129,132,208,0,,,
1,1775669105488,-2493,904,9466,366519,-183259,97738,0,0,0,309,302,237,366,202,360,514,383,370,386,390,318,0,,,
2,1775669105488,5034,5460,7537,-5551543,510683,-54977,0,0,0,229,412,232,316,350,364,307,282,256,128,131,206,0,,,
1,1775669105504,-2507,866,9447,327423,-111177,105068,0,0,0,302,301,236,366,201,367,511,368,374,374,392,325,0,,,
2,1775669105504,5072,4737,8585,-5921727,824668,-157603,0,0,0,229,413,232,320,353,360,306,281,250,126,131,201,0,,,
1,1775669105520,-2488,871,9466,309097,-40317,106290,0,0,0,307,302,239,370,203,377,510,359,378,374,381,335,0,,,
2,1775669105520,4781,4254,9839,-6053674,1306029,-105068,0,0,0,229,413,234,316,349,359,308,286,252,130,137,205,0,,,
1,1775669105536,-2431,851,9518,313984,3665,105068,0,0,0,313,303,241,379,203,386,509,349,379,376,359,347,0,,,
2,1775669105536,4240,4139,11634,-6192951,1737300,94073,0,0,0,229,414,235,319,354,361,309,286,252,129,137,203,0,,,
1,1775669105552,-2316,808,9619,327423,14660,101403,0,0,0,309,306,238,384,211,394,506,337,388,368,349,361,0,,,
2,1775669105552,4048,3972,13730,-6395759,2004859,459370,0,0,0,226,414,234,313,347,355,283,284,260,128,133,203,0,,,
1,1775669105568,-2234,765,9705,339641,-10995,94073,0,0,0,302,315,238,380,231,399,508,332,400,358,343,371,0,,,
2,1775669105568,4312,3493,15654,-6549697,2199114,789237,0,0,0,228,414,235,317,354,360,303,283,254,129,135,205,0,,,
1,1775669105584,-2273,713,9758,370184,-51312,95294,0,0,0,305,320,241,384,244,400,503,315,396,351,327,371,0,,,
2,1775669105584,4728,2957,17803,-6608340,2397035,1050688,0,0,0,228,414,235,317,352,360,310,285,256,131,137,206,0,,,
1,1775669105600,-2421,655,9748,431270,-90408,123394,0,0,0,319,314,246,389,233,415,496,280,394,347,297,382,0,,,
2,1775669105600,5192,2823,20904,-6657209,2602285,1314581,0,0,0,230,413,235,317,350,360,313,289,259,132,135,205,0,,,
1,1775669105616,-2488,574,9729,498466,-122173,167377,0,0,0,338,314,252,401,224,415,493,255,398,356,274,389,0,,,
2,1775669105616,5867,2967,24618,-6807482,2761110,1613905,0,0,0,231,412,234,317,348,358,315,291,259,130,131,205,0,,,
1,1775669105632,-2498,488,9743,548556,-149051,213802,0,0,0,328,315,271,398,228,433,485,238,409,330,262,407,0,,,
2,1775669105632,7016,1756,28968,-7046941,2926044,2095267,0,0,0,228,409,233,317,347,359,316,289,259,130,130,205,0,,,
1,1775669105648,-2627,459,9868,598647,-164933,256563,0,0,0,339,350,251,418,260,437,490,227,409,378,228,423,0,,,
2,1775669105648,7327,-2517,31509,-7090923,3349984,2563190,0,0,0,228,408,231,320,349,364,317,282,261,131,130,204,0,,,
1,1775669105664,-2904,421,10141,681725,-172263,312763,0,0,0,360,387,245,435,313,457,482,227,430,324,221,464,0,,,
2,1775669105664,3838,-11988,34055,-6588792,4232074,2814867,0,0,0,232,410,229,325,352,367,320,276,266,132,131,203,0,,,
1,1775669105680,-3091,325,10547,831998,-153938,406836,0,0,0,357,399,244,457,306,464,472,216,424,303,207,485,0,,,
2,1775669105680,-3077,-25953,34630,-5491678,3649308,2568077,0,0,0,235,410,226,328,352,367,325,279,268,133,131,202,0,,,
1,1775669105696,-2885,196,11016,1021366,-116064,481361,0,0,0,380,385,240,469,301,482,469,204,434,326,187,511,0,,,
2,1775669105696,-4709,-39119,28523,-4267504,1843591,1753183,0,0,0,233,409,224,329,354,369,328,284,270,133,130,202,0,,,
1,1775669105712,-2455,86,11619,1252273,-118507,511905,0,0,0,394,388,231,465,317,506,456,191,442,306,174,533,0,,,
2,1775669105712,-2924,-49403,18272,-2478891,348193,-218689,0,0,0,235,411,229,330,355,370,327,288,270,133,137,202,0,,,
1,1775669105728,-2067,-23,12342,1591914,-224798,483805,0,0,0,398,396,221,463,332,520,427,188,433,272,169,552,0,,,
2,1775669105728,-7944,-49202,16075,-590095,471587,-2283414,0,0,0,230,407,224,331,360,368,337,319,263,143,160,198,0,,,
1,1775669105744,-2024,-105,12936,1984090,-386066,432492,0,0,0,410,391,205,473,343,524,393,186,432,263,161,563,0,,,
2,1775669105744,-14773,-38425,20971,1309695,-128281,-2781880,0,0,0,231,397,212,331,357,359,392,415,257,188,224,182,0,,,
1,1775669105760,-2890,-76,13658,2478891,-509461,444709,0,0,0,430,392,194,476,345,525,354,172,455,261,153,560,0,,,
2,1775669105760,-6240,-2550,23058,2795319,-2824640,-789237,0,0,0,220,348,185,317,325,340,430,455,247,187,271,182,0,,,
1,1775669105776,-3986,-38,14654,3078760,-561996,586430,0,0,0,436,400,194,468,339,524,305,164,473,250,145,551,0,,,
2,1775669105776,4647,20756,14520,3555235,-4883256,1188743,0,0,0,235,345,169,321,320,335,457,467,249,198,302,177,0,,,
1,1775669105792,-4833,114,16238,3841120,-552222,850324,0,0,0,435,386,197,458,341,525,261,162,475,223,129,532,0,,,
2,1775669105792,3172,12199,8490,4486194,-4818505,1944994,0,0,0,243,352,174,329,320,347,475,499,253,252,385,177,0,,,
1,1775669105808,-6446,488,18880,4853935,-467922,1244943,0,0,0,464,365,200,431,327,519,217,146,460,196,107,496,0,,,
2,1775669105808,-6977,-2345,18056,5279097,-2549751,1078788,0,0,0,248,359,201,333,319,356,493,501,262,274,395,183,0,,,
1,1775669105824,-8571,617,22201,5860641,-376292,1701870,0,0,0,417,372,211,407,354,477,226,146,435,181,107,433,0,,,
2,1775669105824,-7183,-2699,24953,4806287,-923628,-133168,0,0,0,249,367,227,334,320,365,494,529,265,324,441,192,0,,,
1,1775669105840,-10681,679,26388,6912551,-240680,2267531,0,0,0,367,332,187,378,272,421,193,126,392,166,102,348,0,,,
2,1775669105840,421,1636,21737,3376863,-353080,-575435,0,0,0,256,383,254,341,328,375,500,552,267,368,480,198,0,,,
1,1775669105856,-11347,1134,30050,7817853,-15882,2811201,0,0,0,297,325,192,330,261,378,180,152,328,143,117,260,0,,,
2,1775669105856,3115,1718,13529,1822821,-233350,-51312,0,0,0,269,402,276,351,341,383,520,550,271,323,419,219,0,,,
1,1775669105872,-10911,2866,31495,8432383,344527,3218038,0,0,0,238,309,168,291,239,309,225,208,286,144,178,169,0,,,
2,1775669105872,1675,488,9791,862541,-199142,249233,0,0,0,286,419,291,362,355,393,538,543,279,249,334,250,0,,,
1,1775669105888,-12222,5675,28844,8775690,618195,3500257,0,0,0,238,269,175,264,185,269,279,220,273,166,203,141,0,,,
2,1775669105888,885,540,10390,478918,-230907,153938,0,0,0,308,430,305,372,361,402,542,548,286,251,338,264,0,,,
1,1775669105904,-14429,10811,19349,8739038,572991,3861890,0,0,0,233,262,186,257,170,263,296,224,275,179,218,137,0,,,
2,1775669105904,1091,1210,10653,254119,-307876,43982,0,0,0,322,436,314,377,363,399,545,550,285,256,340,272,0,,,
1,1775669105920,-13160,15458,11548,7469660,184481,4289495,0,0,0,230,268,191,259,173,267,299,226,277,185,220,139,0,,,
2,1775669105920,1119,1694,10284,123394,-331088,10995,0,0,0,332,442,320,379,363,402,546,555,290,262,339,280,0,,,
1,1775669105936,-7858,20861,9633,3751934,3665,3496592,0,0,0,236,270,190,261,174,265,305,227,270,190,217,138,0,,,
2,1775669105936,961,1737,10165,87964,-226020,7330,0,0,0,339,444,322,383,367,406,550,556,296,261,338,277,0,,,
1,1775669105952,-2632,22148,10705,-1622458,621860,912632,0,0,0,242,272,191,261,173,262,310,227,260,193,219,138,0,,,
2,1775669105952,942,1770,10208,117286,-139277,-6108,0,0,0,339,447,325,381,367,406,546,551,296,299,367,279,0,,,
1,1775669105968,-3474,14596,9562,-4896695,1875356,-1534493,0,0,0,243,270,194,261,171,263,310,224,260,192,221,141,0,,,
2,1775669105968,894,1847,10212,189368,-76969,-23212,0,0,0,346,448,324,388,370,406,542,542,297,261,324,281,0,,,
1,1775669105984,-7786,6475,6317,-5562538,2291966,-2302961,0,0,0,239,269,197,260,170,265,309,226,266,190,222,143,0,,,
2,1775669105984,861,1899,10098,271224,3665,-34208,0,0,0,351,453,324,385,371,401,533,532,292,253,306,287,0,,,
1,1775669106000,-9327,4388,4632,-4900360,1123992,-1486845,0,0,0,234,277,202,256,171,267,308,229,271,188,225,144,0,,,
2,1775669106000,928,1852,9968,349414,79412,-34208,0,0,0,349,455,312,389,375,404,532,520,304,249,289,295,0,,,
1,1775669106016,-7566,4484,5254,-4709770,-29321,-772133,0,0,0,223,277,202,253,174,270,307,232,271,185,226,147,0,,,
2,1775669106016,1062,1698,9868,401949,102625,-30543,0,0,0,353,457,310,387,375,405,530,511,311,246,281,297,0,,,
1,1775669106032,-4603,5369,7743,-5253441,-261450,-659734,0,0,0,223,277,204,252,174,272,306,233,274,188,228,148,0,,,
2,1775669106032,1158,1560,9786,411723,79412,-31764,0,0,0,358,461,311,390,376,408,529,501,309,244,270,299,0,,,
1,1775669106048,-4915,4929,9772,-6102543,68416,-1044579,0,0,0,223,277,209,251,174,277,304,227,274,190,228,150,0,,,
2,1775669106048,1215,1474,9743,377514,24434,-41538,0,0,0,361,460,309,394,379,411,530,489,307,245,257,309,0,,,
1,1775669106064,-6211,3575,11026,-6636439,-193033,-1337794,0,0,0,223,277,208,256,173,279,303,225,276,190,229,152,0,,,
2,1775669106064,1249,1454,9748,349414,-28099,-51312,0,0,0,365,460,309,397,381,412,530,473,310,248,249,323,0,,,
1,1775669106080,-5843,2412,12428,-6802595,-844215,-1480737,0,0,0,228,278,204,261,172,272,311,230,275,191,230,143,0,,,
2,1775669106080,1253,1474,9825,349414,-92851,-61086,0,0,0,377,463,311,403,388,423,526,455,318,249,238,338,0,,,
1,1775669106096,-5192,1660,14285,-6921103,-1187522,-1627344,0,0,0,234,279,204,268,173,271,314,229,275,192,228,142,0,,,
2,1775669106096,1172,1435,9892,381179,-130725,-67195,0,0,0,390,469,310,411,398,438,522,439,324,247,223,355,0,,,
1,1775669106112,-5575,966,16238,-6993185,-1253495,-1679879,0,0,0,236,279,204,273,175,270,314,230,278,194,228,142,0,,,
2,1775669106112,1110,1383,9911,411723,-141720,-68416,0,0,0,401,484,314,417,397,444,516,423,324,249,213,369,0,,,
1,1775669106128,-6240,148,18430,-6974859,-1402546,-1589471,0,0,0,240,278,204,281,173,271,316,230,281,197,227,143,0,,,
2,1775669106128,1081,1325,9968,449596,-140499,-68416,0,0,0,413,494,322,420,403,452,503,398,325,247,200,385,0,,,
1,1775669106144,-6652,-497,20909,-6872233,-1611462,-1453859,0,0,0,236,285,205,276,183,273,312,231,281,194,229,143,0,,,
2,1775669106144,1086,1249,10083,504574,-128281,-69638,0,0,0,425,496,328,419,402,452,505,384,336,249,193,411,0,,,
1,1775669106160,-7193,-1091,23943,-6746395,-1782504,-1505171,0,0,0,228,288,205,264,188,273,307,231,284,193,230,142,0,,,
2,1775669106160,1139,1129,10169,555887,-111177,-84299,0,0,0,434,502,329,426,404,459,502,353,348,251,181,426,0,,,
1,1775669106176,-7638,-2680,27834,-6619335,-2070833,-1808161,0,0,0,227,282,207,262,176,272,307,227,290,195,226,141,0,,,
2,1775669106176,1229,1028,10212,607200,-90408,-119729,0,0,0,446,508,352,428,419,470,496,328,354,260,186,453,0,,,
1,1775669106192,-6513,-6355,31031,-6591235,-2492330,-2337170,0,0,0,227,283,211,260,176,271,305,225,292,190,223,139,0,,,
2,1775669106192,1383,976,10313,667064,-68416,-164933,0,0,0,457,513,338,440,426,480,487,302,350,261,177,474,0,,,
1,1775669106208,-4522,-14735,32280,-6491054,-2547308,-2823419,0,0,0,226,287,208,258,180,273,306,227,292,196,225,136,0,,,
2,1775669106208,1598,918,10562,759916,-63529,-228463,0,0,0,469,519,337,443,428,482,475,275,358,260,175,500,0,,,
1,1775669106224,-5264,-26283,28767,-6010913,-1992642,-2570520,0,0,0,225,289,207,262,184,280,303,229,293,198,227,139,0,,,
2,1775669106224,1564,861,10926,917519,-102625,-306654,0,0,0,478,528,338,455,441,495,454,243,358,276,181,523,0,,,
1,1775669106240,-3354,-38784,20497,-4710992,-1918116,-910189,0,0,0,227,287,202,262,186,277,303,226,291,195,223,138,0,,,
2,1775669106240,1311,794,11356,1120326,-134390,-353080,0,0,0,489,538,330,456,453,501,434,231,370,270,178,536,0,,,
1,1775669106256,7331,-45800,15391,-2984687,-2079385,714712,0,0,0,227,288,210,267,188,282,299,228,291,191,229,138,0,,,
2,1775669106256,1052,698,12084,1429424,-105068,-350636,0,0,0,495,545,310,457,457,498,403,217,369,263,175,551,0,,,
1,1775669106272,18296,-47413,14477,-1072679,-968832,1274264,0,0,0,220,285,199,268,180,273,305,234,291,205,249,136,0,,,
2,1775669106272,933,646,12902,1797165,-40317,-340862,0,0,0,494,549,296,462,470,503,380,216,368,262,176,557,0,,,
1,1775669106288,13773,-42115,15927,728151,1160643,888198,0,0,0,219,268,183,265,179,263,358,308,286,256,331,119,0,,,
2,1775669106288,1239,636,14094,2354274,23212,-340862,0,0,0,500,547,279,465,479,507,344,212,363,263,179,563,0,,,
1,1775669106304,2172,-20741,19372,2486221,2735454,651182,0,0,0,217,247,152,254,166,238,406,382,269,293,395,103,0,,,
2,1775669106304,1938,737,15376,2948035,-35430,-403171,0,0,0,503,538,258,459,478,507,297,199,356,264,184,569,0,,,
1,1775669106320,-6144,8298,15845,3750712,3626096,366519,0,0,0,223,235,140,262,157,234,438,427,261,331,420,99,0,,,
2,1775669106320,2852,938,17171,3797138,-191811,-547335,0,0,0,496,528,246,451,481,508,267,188,356,261,184,565,0,,,
1,1775669106336,-4613,12304,12457,5042081,3370754,-108734,0,0,0,228,234,151,273,152,264,459,455,277,371,430,107,0,,,
2,1775669106336,4101,1201,19191,4717101,-393397,-770911,0,0,0,499,518,250,445,480,496,246,167,360,249,166,544,0,,,
1,1775669106352,2569,-277,19631,5716476,1425759,-144164,0,0,0,235,240,163,282,152,274,475,475,281,411,442,109,0,,,
2,1775669106352,5733,1579,22148,5844758,-614530,-1156978,0,0,0,487,508,253,435,467,490,240,147,369,228,146,491,0,,,
1,1775669106368,3105,-4067,24374,4915021,129503,361632,0,0,0,245,249,191,293,159,266,492,488,271,436,457,106,0,,,
2,1775669106368,6618,1756,26714,7126353,-864985,-1605353,0,0,0,446,491,244,418,451,467,235,149,358,212,141,422,0,,,
1,1775669106384,-3551,-894,19980,2703689,-146607,692721,0,0,0,247,258,234,300,167,295,510,491,290,429,471,124,0,,,
2,1775669106384,7575,2397,30997,8173376,-753807,-1904677,0,0,0,355,461,206,397,422,436,253,154,325,197,139,355,0,,,
1,1775669106400,-4594,406,12179,1374446,91629,47647,0,0,0,258,266,229,322,180,326,522,481,323,431,483,156,0,,,
2,1775669106400,8504,4264,32366,8974832,-186924,-2239431,0,0,0,304,436,215,346,379,398,270,214,270,162,128,301,0,,,
1,1775669106416,-2531,43,9107,681725,168598,-295658,0,0,0,292,273,243,350,184,337,533,479,334,451,497,187,0,,,
2,1775669106416,8614,6408,31404,9426872,554665,-2756223,0,0,0,246,403,228,308,341,354,294,252,262,122,116,208,0,,,
1,1775669106432,-1737,129,10169,361632,119729,-152716,0,0,0,320,290,252,357,200,332,539,484,345,461,493,198,0,,,
2,1775669106432,9332,8509,22402,9159313,195476,-3307224,0,0,0,238,400,229,311,343,363,301,273,267,122,126,201,0,,,
1,1775669106448,-2139,746,10701,188146,90408,-4886,0,0,0,304,306,250,357,225,340,538,478,377,459,492,220,0,,,
2,1775669106448,11122,12639,11586,7843509,-674395,-3820351,0,0,0,234,403,226,309,342,363,299,275,259,125,130,203,0,,,
1,1775669106464,-2455,1182,10179,180816,84299,26878,0,0,0,315,299,255,357,202,348,540,471,369,464,492,249,0,,,
2,1775669106464,8494,20622,7690,3280346,-816115,-3347541,0,0,0,235,406,224,313,346,359,302,274,252,127,129,202,0,,,
1,1775669106480,-2191,1110,9853,251676,48869,20769,0,0,0,324,300,264,362,198,362,537,475,354,488,474,272,0,,,
2,1775669106480,3732,22225,9284,-2145358,-846659,-1639562,0,0,0,238,408,225,315,347,360,306,275,249,129,128,201,0,,,
1,1775669106496,-2024,1038,9968,304210,-10995,34208,0,0,0,325,326,259,369,222,366,542,443,348,461,451,275,0,,,
2,1775669106496,2737,14280,9250,-5409822,-1437976,345749,0,0,0,239,409,229,316,348,361,308,277,250,128,127,201,0,,,
1,1775669106512,-2110,1091,9265,327423,-65973,59864,0,0,0,323,331,255,369,217,368,550,421,360,446,435,287,0,,,
2,1775669106512,7092,5604,4350,-5247332,-1505171,965167,0,0,0,237,411,230,316,350,359,307,279,250,129,130,202,0,,,
1,1775669106528,-2172,1052,7705,311541,-79412,80634,0,0,0,327,316,254,374,202,372,545,400,363,433,412,297,0,,,
2,1775669106528,9533,2421,1349,-4415333,-502131,572991,0,0,0,235,414,231,315,350,358,305,279,249,130,133,202,0,,,
1,1775669106544,-2115,961,8121,365297,-149051,83077,0,0,0,336,297,247,382,198,375,531,377,362,423,389,304,0,,,
2,1775669106544,6590,4345,3393,-4323704,657290,2443,0,0,0,235,416,235,317,352,360,304,281,250,128,132,200,0,,,
1,1775669106560,-2120,885,9638,444709,-232128,76969,0,0,0,344,286,246,385,197,377,522,356,366,415,368,315,0,,,
2,1775669106560,3594,5762,6178,-4763527,955393,-31764,0,0,0,232,414,232,315,352,362,304,285,252,128,132,200,0,,,
1,1775669106576,-2211,765,9949,437379,-245567,80634,0,0,0,343,285,256,384,194,379,520,339,369,402,352,330,0,,,
2,1775669106576,3661,5317,7408,-5213123,841772,317649,0,0,0,231,414,232,315,353,363,304,284,251,128,133,202,0,,,
1,1775669106592,-2278,698,9471,364075,-182037,90408,0,0,0,332,289,252,381,199,389,512,337,373,390,351,350,0,,,
2,1775669106592,4766,4474,8135,-5380501,1281595,569326,0,0,0,232,414,233,314,351,360,304,284,251,129,133,202,0,,,
1,1775669106608,-2306,670,9351,312763,-120951,96516,0,0,0,324,296,254,377,210,396,509,341,378,382,345,353,0,,,
2,1775669106608,4446,4307,9844,-5523443,1874134,772133,0,0,0,233,414,237,314,350,362,305,284,252,129,131,202,0,,,
1,1775669106624,-2292,670,9504,289550,-70860,98960,0,0,0,317,303,252,376,214,395,507,336,367,377,346,361,0,,,
2,1775669106624,3479,4508,12069,-5750685,2167349,1038470,0,0,0,230,414,237,310,346,358,305,285,251,128,132,204,0,,,
1,1775669106640,-2215,660,9619,285884,-42760,100181,0,0,0,350,293,245,383,215,391,510,321,383,375,324,367,0,,,
2,1775669106640,3426,4379,14213,-6054896,2186897,1381777,0,0,0,228,416,237,310,348,360,305,284,251,127,132,204,0,,,
1,1775669106656,-2139,631,9686,287106,-35430,97738,0,0,0,314,305,248,391,229,410,505,311,385,357,318,372,0,,,
2,1775669106656,3943,4005,16424,-6335894,2250427,1642005,0,0,0,228,414,237,315,352,364,308,284,254,129,133,204,0,,,
1,1775669106672,-2115,588,9758,302989,-48869,89186,0,0,0,327,300,247,397,220,411,506,289,386,400,294,376,0,,,
2,1775669106672,4369,3584,19176,-6566801,2384817,1749518,0,0,0,229,416,239,313,350,362,310,284,255,127,131,204,0,,,
1,1775669106688,-2167,545,9825,335975,-78190,91629,0,0,0,331,304,250,404,224,411,500,274,388,371,287,390,0,,,
2,1775669106688,4804,3158,22589,-6761056,2483778,1837482,0,0,0,227,415,240,313,350,364,311,285,257,126,131,203,0,,,
1,1775669106704,-2278,478,9839,395840,-128281,122173,0,0,0,332,310,253,407,236,428,508,254,387,360,272,405,0,,,
2,1775669106704,5704,2569,27049,-6897890,2532647,2014633,0,0,0,227,414,240,314,349,364,314,284,260,126,129,204,0,,,
1,1775669106720,-2325,406,9825,449596,-166155,160046,0,0,0,340,325,252,407,253,444,509,248,399,347,259,431,0,,,
2,1775669106720,6824,43,30897,-6976081,2643824,2377487,0,0,0,229,414,238,315,349,364,316,282,263,128,128,205,0,,,
1,1775669106736,-2392,358,9887,493579,-184481,193033,0,0,0,347,334,258,416,257,460,505,239,415,330,239,446,0,,,
2,1775669106736,6527,-6135,33318,-6917437,3072652,2787988,0,0,0,229,413,234,319,351,368,319,279,268,132,131,207,0,,,
1,1775669106752,-2694,335,10040,557109,-171042,239459,0,0,0,354,334,266,430,257,478,497,220,423,317,217,457,0,,,
2,1775669106752,3646,-17434,34271,-6343224,3298672,2866179,0,0,0,231,413,232,323,352,369,321,278,272,135,133,211,0,,,
1,1775669106768,-2823,234,10193,640186,-138055,312763,0,0,0,366,344,267,437,270,485,481,208,429,306,203,479,0,,,
2,1775669106768,1775,-30854,30557,-5246110,2571742,2312735,0,0,0,231,414,232,323,352,368,324,279,275,136,133,211,0,,,
1,1775669106784,-2718,138,10524,759916,-96516,376292,0,0,0,385,362,260,445,299,486,471,208,442,298,191,507,0,,,
2,1775669106784,397,-42909,20387,-3417180,1623679,557109,0,0,0,233,412,234,324,354,369,327,280,277,134,131,209,0,,,
1,1775669106800,-2507,81,11069,948062,-75747,410501,0,0,0,398,382,242,457,331,499,467,202,448,289,177,532,0,,,
2,1775669106800,-7312,-44900,15793,-1560149,1536936,-1409876,0,0,0,235,413,233,325,352,369,328,285,275,135,135,210,0,,,
1,1775669106816,-2163,33,11663,1196074,-107512,421497,0,0,0,402,402,229,463,327,506,442,187,448,284,168,546,0,,,
2,1775669106816,-14189,-41928,16601,21991,679282,-2309070,0,0,0,228,407,222,321,352,365,333,298,265,141,152,203,0,,,
1,1775669106832,-1952,-71,12289,1543045,-251676,390953,0,0,0,412,381,211,467,319,501,414,186,443,284,166,556,0,,,
2,1775669106832,-12323,-33251,19344,1414763,-943175,-1904677,0,0,0,224,397,212,320,358,359,369,395,255,154,201,189,0,,,
1,1775669106848,-2397,-148,12926,1927890,-404392,379958,0,0,0,424,416,200,465,373,501,365,214,435,279,205,571,0,,,
2,1775669106848,-3043,-3192,21177,2765997,-2967583,-559552,0,0,0,223,352,194,312,326,340,414,447,253,186,274,185,0,,,
1,1775669106864,-3249,-129,13792,2471560,-509461,496022,0,0,0,432,403,195,483,377,494,336,166,448,265,172,573,0,,,
2,1775669106864,5350,20607,14491,3413514,-4553389,1027475,0,0,0,238,345,173,325,320,334,452,461,251,198,277,181,0,,,
1,1775669106880,-3948,-67,15037,3133738,-542448,693942,0,0,0,434,388,203,461,383,518,291,159,478,245,168,553,0,,,
2,1775669106880,574,9126,9557,4223522,-4025601,1655444,0,0,0,244,348,187,331,321,355,456,478,269,212,309,188,0,,,
1,1775669106896,-5082,95,16381,3872885,-483805,948062,0,0,0,444,366,205,450,330,530,249,141,481,221,122,535,0,,,
2,1775669106896,-7212,-2900,15314,4827057,-2350609,1098335,0,0,0,244,356,202,332,321,365,479,487,276,216,327,193,0,,,
1,1775669106912,-6800,406,18277,4737870,-372627,1334129,0,0,0,436,349,203,445,306,512,225,133,459,190,98,482,0,,,
2,1775669106912,-7111,-2603,22804,4427551,-924849,-237015,0,0,0,250,368,226,335,326,366,502,501,277,219,327,197,0,,,
1,1775669106928,-8724,368,22172,5803219,-252898,1888795,0,0,0,415,341,195,421,283,481,203,124,425,178,92,414,0,,,
2,1775669106928,823,1325,20602,3183829,-514348,-586430,0,0,0,262,386,255,344,335,372,512,515,272,227,330,209,0,,,
1,1775669106944,-9681,402,25924,6697526,-191811,2351831,0,0,0,358,335,195,380,262,433,186,124,392,159,92,350,0,,,
2,1775669106944,3555,1512,15209,1898569,-298102,-119729,0,0,0,273,406,275,356,350,382,519,522,277,235,329,228,0,,,
1,1775669106960,-9624,961,28298,7479433,-107512,2745228,0,0,0,288,319,201,328,242,376,188,147,349,140,112,276,0,,,
2,1775669106960,1545,478,10567,918741,-162490,317649,0,0,0,286,419,289,362,359,386,530,535,286,234,319,245,0,,,
1,1775669106976,-9064,2282,29303,8114733,58643,3120299,0,0,0,241,290,189,278,215,316,225,186,299,147,160,190,0,,,
2,1775669106976,536,497,10169,553443,-116064,212581,0,0,0,306,429,305,368,361,391,537,548,290,236,314,260,0,,,
1,1775669106992,-10873,4934,24905,8252789,540004,3345098,0,0,0,219,265,173,252,188,265,275,216,268,166,208,134,0,,,
2,1775669106992,957,952,10495,372627,-135612,69638,0,0,0,322,438,315,378,368,401,531,541,295,244,313,276,0,,,
1,1775669107008,-13175,9547,15951,8079303,733038,3662747,0,0,0,225,268,185,252,178,264,291,222,268,174,224,141,0,,,
2,1775669107008,1229,1354,10375,287106,-188146,28099,0,0,0,333,444,317,385,374,408,526,533,300,245,305,287,0,,,
1,1775669107024,-13012,14515,8978,7065267,361632,4024380,0,0,0,217,272,186,254,181,267,294,228,267,176,229,139,0,,,
2,1775669107024,1091,1507,10174,267558,-185703,14660,0,0,0,342,448,317,389,382,410,546,539,301,250,303,299,0,,,
1,1775669107040,-7695,19746,9021,3371976,80634,3017674,0,0,0,220,281,186,251,195,262,288,241,262,175,244,140,0,,,
2,1775669107040,966,1464,10122,302989,-153938,0,0,0,0,352,452,322,397,394,419,540,528,300,249,288,314,0,,,
1,1775669107056,-2900,20507,9887,-1529606,713490,647517,0,0,0,227,285,186,251,196,259,292,251,258,175,250,139,0,,,
2,1775669107056,918,1469,10184,335975,-102625,-15882,0,0,0,358,457,327,395,380,425,541,526,313,249,279,339,0,,,
1,1775669107072,-3943,13041,8260,-4412890,1938886,-1433089,0,0,0,230,285,187,252,201,263,291,247,261,179,254,142,0,,,
2,1775669107072,885,1526,10251,381179,-7330,-31764,0,0,0,361,460,337,400,382,432,537,514,324,377,334,325,0,,,
1,1775669107088,-7398,6594,5403,-4820948,2190562,-1870469,0,0,0,229,283,202,249,198,274,294,254,274,177,256,150,0,,,
2,1775669107088,914,1464,10150,442266,100181,-41538,0,0,0,369,462,327,401,380,440,538,491,327,264,260,355,0,,,
1,1775669107104,-9485,4034,3498,-4236961,1208291,-1165530,0,0,0,221,284,200,249,198,276,300,253,272,179,254,146,0,,,
2,1775669107104,1076,1311,9992,492357,163711,-50090,0,0,0,374,461,322,405,378,441,537,471,331,248,238,362,0,,,
1,1775669107120,-7867,4527,4283,-4148996,167377,-552222,0,0,0,217,284,199,248,198,277,299,253,272,184,256,149,0,,,
2,1775669107120,1244,1129,9858,496022,140499,-54977,0,0,0,380,463,323,410,380,446,534,456,327,248,225,369,0,,,
1,1775669107136,-4881,5235,7011,-4774522,-23212,-546113,0,0,0,218,283,200,249,198,276,296,254,270,182,258,149,0,,,
2,1775669107136,1287,1005,9820,443488,65973,-64751,0,0,0,384,465,320,416,385,455,531,442,335,244,214,381,0,,,
1,1775669107152,-5197,4680,8882,-5442809,263893,-1001818,0,0,0,219,283,203,249,199,278,295,253,274,181,259,150,0,,,
2,1775669107152,1273,995,9877,399505,6108,-70860,0,0,0,391,466,318,420,388,456,530,429,342,245,205,388,0,,,
1,1775669107168,-6824,3546,10256,-5980370,96516,-1472185,0,0,0,218,285,204,246,203,278,296,254,276,183,261,150,0,,,
2,1775669107168,1292,1019,9968,386066,-36651,-76969,0,0,0,402,465,321,420,386,454,531,415,343,246,195,394,0,,,
1,1775669107184,-7327,2560,11457,-6283359,-509461,-1765400,0,0,0,218,286,201,248,204,275,298,258,272,181,261,145,0,,,
2,1775669107184,1311,961,9992,397062,-79412,-83077,0,0,0,409,467,320,423,391,459,532,400,344,245,190,406,0,,,
1,1775669107200,-7044,1560,13204,-6453180,-930958,-2037846,0,0,0,219,286,205,249,201,279,299,258,272,182,261,147,0,,,
2,1775669107200,1229,875,9978,405614,-108734,-94073,0,0,0,413,472,317,429,401,467,527,384,346,247,189,416,0,,,
1,1775669107216,-7504,698,14893,-6484945,-1142317,-2202780,0,0,0,218,285,204,247,207,276,298,257,274,186,266,147,0,,,
2,1775669107216,1115,823,9992,410501,-95294,-96516,0,0,0,425,478,327,428,396,470,521,371,355,244,181,426,0,,,
1,1775669107232,-8293,95,17037,-6453180,-1431868,-2197893,0,0,0,219,284,204,233,230,266,298,252,275,185,261,145,0,,,
2,1775669107232,1115,770,10021,419053,-68416,-95294,0,0,0,427,485,327,432,400,474,518,358,359,247,178,436,0,,,
1,1775669107248,-8853,-335,19798,-6437297,-1748296,-2120924,0,0,0,219,285,206,251,199,281,302,253,280,181,256,145,0,,,
2,1775669107248,1191,703,10050,433714,-46425,-95294,0,0,0,435,488,327,435,404,477,505,341,350,248,174,444,0,,,
1,1775669107264,-9514,-741,23043,-6436076,-1980425,-2056172,0,0,0,219,285,205,253,200,281,302,253,280,181,252,142,0,,,
2,1775669107264,1263,636,10078,453262,-21991,-111177,0,0,0,435,487,326,442,415,487,500,310,358,253,175,460,0,,,
1,1775669107280,-10346,-1823,26326,-6428745,-2235766,-2017077,0,0,0,220,284,205,257,200,286,302,249,277,183,251,142,0,,,
2,1775669107280,1344,559,10131,486248,15882,-146607,0,0,0,443,487,324,440,416,487,492,294,358,262,178,480,0,,,
1,1775669107296,-9571,-4647,29485,-6460510,-2763554,-1976759,0,0,0,219,284,203,255,195,282,300,243,278,185,247,141,0,,,
2,1775669107296,1402,492,10265,543670,52534,-190589,0,0,0,452,496,321,449,430,496,490,276,362,248,163,494,0,,,
1,1775669107312,-5972,-10973,31648,-6502049,-3274237,-1953547,0,0,0,219,285,203,256,196,280,301,242,281,184,244,140,0,,,
2,1775669107312,1469,492,10495,665843,23212,-224798,0,0,0,459,501,320,452,436,497,478,255,368,278,181,510,0,,,
1,1775669107328,-2115,-21167,30782,-6352998,-3104417,-1781283,0,0,0,220,285,204,259,199,286,302,241,285,184,243,137,0,,,
2,1775669107328,1617,502,10868,830776,-41538,-256563,0,0,0,474,518,317,459,453,504,463,230,373,261,169,527,0,,,
1,1775669107344,-784,-34252,24268,-5654168,-2153910,-912632,0,0,0,220,287,205,261,201,291,303,243,287,187,247,138,0,,,
2,1775669107344,1670,473,11562,1084896,-53756,-301767,0,0,0,481,527,304,460,462,508,432,216,376,259,179,542,0,,,
1,1775669107360,4072,-44474,17075,-4109901,-1661553,923628,0,0,0,220,287,205,262,203,291,306,245,288,193,252,142,0,,,
2,1775669107360,1450,411,12337,1433089,-2443,-346971,0,0,0,489,533,291,467,471,512,408,209,380,265,186,554,0,,,
1,1775669107376,14233,-48824,14381,-2048842,-1077566,2195449,0,0,0,219,286,208,261,202,291,305,244,287,197,252,144,0,,,
2,1775669107376,1186,282,12926,1854586,84299,-359188,0,0,0,498,538,278,472,483,516,376,199,380,267,187,565,0,,,
1,1775669107392,16381,-44747,15879,150272,502131,1653001,0,0,0,221,285,212,257,194,289,312,259,292,200,266,143,0,,,
2,1775669107392,1359,253,13668,2302961,157603,-370184,0,0,0,498,531,259,467,496,522,340,191,378,262,186,573,0,,,
1,1775669107408,8178,-33964,17707,2007303,1925447,673173,0,0,0,218,271,198,255,180,288,354,325,310,227,321,129,0,,,
2,1775669107408,2201,291,14893,2882062,153938,-436157,0,0,0,501,518,246,462,497,524,309,187,372,252,179,573,0,,,
1,1775669107424,-3857,-2469,19640,3148399,2701246,-117286,0,0,0,214,259,128,252,182,219,432,403,251,291,394,91,0,,,
2,1775669107424,3153,325,16487,3671300,37873,-625526,0,0,0,506,520,240,460,479,516,282,172,362,247,166,567,0,,,
1,1775669107440,-7092,24747,12557,3197268,3671300,-857654,0,0,0,227,242,128,263,155,219,462,465,240,367,422,110,0,,,
2,1775669107440,3795,689,18746,4635245,-59864,-878424,0,0,0,484,523,232,455,470,509,269,153,357,241,157,548,0,,,
1,1775669107456,-670,15831,8356,4144109,4092797,-996932,0,0,0,235,244,128,284,157,240,480,481,263,385,438,86,0,,,
2,1775669107456,4852,1206,21722,5717698,-130725,-1149648,0,0,0,472,509,242,449,467,506,264,149,356,222,146,492,0,,,
1,1775669107472,5312,-3388,19344,5401270,2565634,-147829,0,0,0,244,258,161,298,164,252,495,495,264,408,450,94,0,,,
2,1775669107472,6231,1478,26738,7087258,-183259,-1494176,0,0,0,425,465,218,453,456,486,259,136,355,206,129,404,0,,,
1,1775669107488,2201,-6164,25829,4497189,996932,565661,0,0,0,251,280,188,307,182,272,518,508,263,431,468,102,0,,,
2,1775669107488,6551,2306,31706,8217359,30543,-1766622,0,0,0,360,447,197,422,423,458,262,150,333,190,129,343,0,,,
1,1775669107504,-2991,-1062,19808,2169793,248011,299323,0,0,0,253,288,212,321,203,308,528,504,290,438,477,144,0,,,
2,1775669107504,5790,4120,34524,9140987,505796,-1984090,0,0,0,307,416,212,354,378,401,279,199,286,163,124,301,0,,,
1,1775669107520,-3144,1153,12490,811229,-7330,-151494,0,0,0,274,299,239,344,212,335,530,502,316,440,481,181,0,,,
2,1775669107520,5967,5982,34443,9685879,940732,-2255314,0,0,0,251,393,226,312,342,359,297,250,268,122,120,209,0,,,
1,1775669107536,-1560,875,9313,596204,-172263,-239459,0,0,0,295,301,252,369,205,354,536,497,325,442,482,207,0,,,
2,1775669107536,8423,9514,25465,9590584,824668,-2621833,0,0,0,251,398,237,315,345,367,309,268,275,126,126,210,0,,,
1,1775669107552,-1971,402,9571,638965,-213802,-69638,0,0,0,308,299,252,377,202,368,540,477,323,443,467,232,0,,,
2,1775669107552,10007,16042,11706,7649254,133168,-3116634,0,0,0,248,403,232,317,348,365,310,270,267,128,126,209,0,,,
1,1775669107568,-2675,430,9873,508239,-54977,25656,0,0,0,317,303,251,373,211,374,540,462,332,444,449,264,0,,,
2,1775669107568,7753,22277,7437,3727499,-447153,-2973691,0,0,0,247,404,230,319,347,362,310,267,261,130,127,209,0,,,
1,1775669107584,-2459,751,9944,357967,131946,34208,0,0,0,311,300,245,375,218,383,548,453,355,442,443,303,0,,,
2,1775669107584,3713,21296,9662,-1787391,-1136209,-1613905,0,0,0,246,405,226,317,345,358,304,268,259,130,128,207,0,,,
1,1775669107600,-1995,904,11079,320093,174707,34208,0,0,0,312,307,249,379,226,388,545,432,348,439,425,323,0,,,
2,1775669107600,2737,12333,9097,-5171585,-2052507,-197920,0,0,0,242,406,225,318,346,359,308,272,259,129,128,204,0,,,
1,1775669107616,-1904,938,13438,334754,117286,53756,0,0,0,328,313,256,385,224,389,550,417,364,433,410,340,0,,,
2,1775669107616,5714,3962,4388,-5065294,-2575407,128281,0,0,0,239,406,226,319,348,362,314,277,259,128,128,202,0,,,
1,1775669107632,-1986,966,11864,416610,7330,68416,0,0,0,318,315,253,383,225,400,537,405,355,412,379,356,0,,,
2,1775669107632,8408,3551,2139,-4513072,-1905899,-343306,0,0,0,239,408,227,318,349,360,315,279,260,128,130,202,0,,,
1,1775669107648,-1981,890,9863,508239,-108734,78190,0,0,0,315,354,241,387,288,390,537,368,361,393,373,363,0,,,
2,1775669107648,8399,5446,3091,-4776966,-796568,-709825,0,0,0,241,409,230,318,349,357,315,278,258,129,130,202,0,,,
