sole_id,timestamp,accel_x,accel_y,accel_z,gyro_x,gyro_y,gyro_z,magn_x,magn_y,magn_z,pressure_01,pressure_02,pressure_03,pressure_04,pressure_05,pressure_06,pressure_07,pressure_08,pressure_09,pressure_10,pressure_11,pressure_12,corrupt,grass
1,1773254426400,-3847,-933,21000,-5253441,-1952325,-1364672,0,0,0,252,328,260,287,215,327,359,281,301,192,232,153,0,
2,1773254426400,1311,823,10136,593761,23212,-111177,0,0,0,504,578,356,522,513,566,592,378,402,265,172,544,0,
1,1773254426416,-2895,-2847,22924,-5082398,-1980425,-1762957,0,0,0,252,330,280,283,214,335,356,280,305,188,232,160,0,
2,1773254426416,1354,717,10203,647517,36651,-144164,0,0,0,511,583,359,523,525,569,588,359,413,283,175,559,0,
1,1773254426432,-2201,-6293,24704,-4985882,-1858252,-2070833,0,0,0,251,329,280,286,215,337,358,277,305,190,228,160,0,
2,1773254426432,1454,617,10275,719599,35430,-180816,0,0,0,516,584,366,524,529,573,579,331,418,277,172,566,0,
1,1773254426448,-3723,-12222,24402,-4978551,-1461189,-1902234,0,0,0,250,326,276,287,216,334,358,277,303,191,226,159,0,
2,1773254426448,1761,536,10547,836885,-9773,-226020,0,0,0,522,586,365,530,527,575,560,301,433,262,169,572,0,
1,1773254426464,-6451,-19329,21785,-4875926,-1196074,-1169196,0,0,0,254,332,250,288,223,326,352,280,294,196,231,152,0,
2,1773254426464,2005,464,10973,1017701,-96516,-299323,0,0,0,525,592,357,539,535,580,535,280,442,267,171,583,0,
1,1773254426480,-5412,-26757,17712,-4382347,-1507615,133168,0,0,0,251,339,241,290,231,324,354,283,294,196,236,152,0,
2,1773254426480,1780,392,11438,1273043,-189368,-373849,0,0,0,526,594,347,543,549,595,516,270,433,266,174,599,0,
1,1773254426496,6264,-31878,14970,-2990796,-1711644,1061683,0,0,0,251,341,244,291,235,325,354,285,294,190,239,148,0,
2,1773254426496,1325,315,11916,1588249,-248011,-408057,0,0,0,532,592,323,541,553,601,495,266,439,262,175,608,0,
1,1773254426512,14127,-33773,13811,-1293812,-660956,919963,0,0,0,244,335,234,290,229,317,358,303,285,200,265,145,0,
2,1773254426512,1172,157,12318,1927890,-237015,-408057,0,0,0,543,592,309,548,558,607,454,244,452,257,172,623,0,
1,1773254426528,10954,-32419,13840,428827,972497,439822,0,0,0,241,320,225,292,215,306,387,359,276,232,318,139,0,
2,1773254426528,1445,14,12854,2333505,-151494,-450818,0,0,0,544,591,280,562,568,613,423,237,466,258,170,623,0,
1,1773254426544,5096,-23881,14821,2086715,2570520,245567,0,0,0,244,304,209,290,199,294,433,428,275,279,377,122,0,
2,1773254426544,1684,-33,13577,2724458,-107512,-518013,0,0,0,552,590,256,566,568,613,398,231,458,258,170,626,0,
1,1773254426560,-3273,555,14759,3357315,3736051,256563,0,0,0,246,291,173,286,183,280,468,468,279,326,419,104,0,
2,1773254426560,1785,-14,14362,3185051,-150272,-581543,0,0,0,552,596,258,557,572,620,365,219,464,261,172,624,0,
1,1773254426576,-5934,16716,12457,3535688,3496592,207694,0,0,0,263,282,164,299,175,277,483,483,291,359,426,96,0,
2,1773254426576,2167,-67,15376,3810577,-196698,-656069,0,0,0,558,587,251,546,565,606,336,197,463,259,177,615,0,
1,1773254426592,-2857,10480,12926,4001167,2678033,112399,0,0,0,261,283,172,305,175,281,498,499,266,397,436,80,0,
2,1773254426592,2924,-205,16846,4489859,-186924,-796568,0,0,0,553,584,261,535,544,609,327,164,464,251,163,596,0,
1,1773254426608,1335,-775,18592,4439768,1229060,-10995,0,0,0,276,294,202,320,179,294,516,515,270,412,458,87,0,
2,1773254426608,3531,-114,19344,5293758,-142942,-1006705,0,0,0,530,569,256,530,539,605,316,153,450,231,147,543,0,
1,1773254426624,2086,-2928,21119,3528357,111177,129503,0,0,0,280,312,213,325,209,303,530,529,278,425,465,86,0,
2,1773254426624,4345,191,23038,6232047,-39095,-1221730,0,0,0,481,542,233,517,528,587,313,155,434,216,138,472,0,
1,1773254426640,-947,157,17056,1958433,-245567,423940,0,0,0,260,314,310,330,220,349,535,534,309,435,475,128,0,
2,1773254426640,5139,478,25972,6969972,92851,-1424537,0,0,0,421,517,196,492,499,542,314,165,400,199,125,397,0,
1,1773254426656,-3531,1411,11304,1130100,-219911,263893,0,0,0,280,324,296,341,228,352,553,553,297,430,491,156,0,
2,1773254426656,4996,555,27193,7481877,177150,-1646892,0,0,0,371,495,177,448,461,482,325,200,353,172,113,338,0,
1,1773254426672,-3321,818,8810,847880,-123394,-20769,0,0,0,296,331,302,348,232,366,566,566,316,441,502,188,0,
2,1773254426672,4891,473,26786,7786088,433714,-1863138,0,0,0,319,467,189,397,424,432,343,255,311,131,102,264,0,
1,1773254426688,-2359,-23,9753,493579,-7330,-59864,0,0,0,306,337,315,352,229,375,576,576,322,448,510,209,0,
2,1773254426688,6178,2407,21684,7891157,1211956,-2144136,0,0,0,279,449,209,367,402,407,352,299,288,98,92,188,0,
1,1773254426704,-2220,287,10533,146607,62308,-15882,0,0,0,317,341,326,357,230,376,587,575,329,462,515,217,0,
2,1773254426704,6298,6992,14209,7580837,1561371,-2574186,0,0,0,293,456,222,371,408,415,357,314,293,101,96,197,0,
1,1773254426720,-2335,1057,10490,23212,68416,1221,0,0,0,323,344,331,358,232,380,596,578,342,466,523,226,0,
2,1773254426720,2828,11734,11332,6080552,299323,-2764776,0,0,0,288,458,225,370,402,414,355,312,289,101,100,198,0,
1,1773254426736,-2258,1287,10241,100181,15882,10995,0,0,0,324,352,331,354,231,387,601,584,350,458,529,235,0,
2,1773254426736,885,16721,11710,1606575,-2127032,-1635897,0,0,0,287,457,226,370,398,408,360,312,283,104,97,199,0,
1,1773254426752,-2134,1220,10284,162490,-40317,35430,0,0,0,324,360,330,354,232,393,598,580,352,451,526,244,0,
2,1773254426752,3833,15238,10988,-2841745,-3224146,-233350,0,0,0,288,458,225,373,399,409,363,315,287,104,97,198,0,
1,1773254426768,-2110,1253,10303,204028,-124616,59864,0,0,0,323,360,325,357,236,396,594,571,353,442,523,255,0,
2,1773254426768,6666,8533,8116,-4813618,-2640159,204028,0,0,0,283,458,223,376,402,411,367,317,282,108,102,198,0,
1,1773254426784,-2182,1335,10122,260228,-199142,72082,0,0,0,328,359,321,357,240,397,592,560,353,436,519,261,0,
2,1773254426784,6901,3914,5226,-5017647,-1728748,-81855,0,0,0,279,458,227,372,402,407,371,323,285,108,102,198,0,
1,1773254426800,-2278,1325,9849,337197,-245567,81855,0,0,0,328,364,302,362,240,394,589,548,346,427,507,269,0,
2,1773254426800,5594,3555,4268,-4764748,-1099557,-444709,0,0,0,284,461,230,372,402,408,368,323,282,108,103,198,0,
1,1773254426816,-2306,1119,9648,371406,-254119,85521,0,0,0,325,367,281,364,247,398,587,546,356,416,494,294,0,
2,1773254426816,4412,4948,5273,-5191132,-800233,-353080,0,0,0,283,460,229,375,403,409,369,325,281,113,105,199,0,
1,1773254426832,-2364,957,9495,346971,-243124,86742,0,0,0,329,365,281,364,246,396,584,527,354,415,479,306,0,
2,1773254426832,4383,4833,6700,-5991366,-652404,200363,0,0,0,280,460,229,374,404,408,371,326,282,109,105,196,0,
1,1773254426848,-2416,904,9413,282219,-210137,91629,0,0,0,330,363,274,385,247,393,576,527,354,401,467,299,0,
2,1773254426848,5326,2962,7226,-6291911,-257785,753807,0,0,0,281,460,228,376,405,408,375,327,283,110,105,196,0,
1,1773254426864,-2435,909,9394,221133,-169820,92851,0,0,0,329,366,277,372,245,397,579,522,359,392,470,307,0,
2,1773254426864,5527,1210,7963,-5968153,467922,1152091,0,0,0,280,459,228,377,406,410,374,328,281,113,105,198,0,
1,1773254426880,-2450,933,9404,168598,-119729,89186,0,0,0,329,364,282,368,242,403,577,513,362,395,459,302,0,
2,1773254426880,4838,727,9629,-5562538,1029918,1549154,0,0,0,283,460,229,378,406,412,372,326,280,117,105,198,0,
1,1773254426896,-2455,947,9413,127059,-64751,81855,0,0,0,330,363,287,371,243,402,575,513,368,397,462,304,0,
2,1773254426896,4728,1287,11505,-5538104,1080009,1848478,0,0,0,286,461,231,380,407,412,374,326,282,116,106,197,0,
1,1773254426912,-2412,942,9428,96516,-24434,75747,0,0,0,328,363,288,372,245,404,574,503,368,398,462,309,0,
2,1773254426912,5317,1153,13055,-5748241,1112996,1951103,0,0,0,287,462,231,382,406,412,379,327,283,112,105,200,0,
1,1773254426928,-2335,928,9480,73303,-8552,65973,0,0,0,329,366,288,372,247,406,574,503,367,401,458,311,0,
2,1773254426928,5776,-14,14410,-5900958,1263269,1806939,0,0,0,291,465,232,386,407,414,381,326,283,114,105,199,0,
1,1773254426944,-2306,933,9552,58643,-8552,53756,0,0,0,332,370,291,369,247,403,575,511,364,406,455,317,0,
2,1773254426944,5565,-1162,15888,-5671272,1429424,1470963,0,0,0,291,464,231,390,409,418,384,328,285,117,103,200,0,
1,1773254426960,-2330,981,9605,72082,-14660,48869,0,0,0,335,369,303,370,248,405,577,506,368,406,451,329,0,
2,1773254426960,5273,-1028,17549,-5378057,1540602,1104444,0,0,0,288,461,231,390,409,418,386,329,287,117,105,204,0,
1,1773254426976,-2306,981,9643,124616,-29321,61086,0,0,0,339,366,316,377,250,417,583,506,390,402,441,336,0,
2,1773254426976,4824,52,19593,-5346292,1661553,807563,0,0,0,291,461,231,391,409,418,389,329,288,118,104,202,0,
1,1773254426992,-2287,952,9710,202807,-69638,85521,0,0,0,333,364,313,377,259,430,581,509,408,389,421,345,0,
2,1773254426992,3986,655,22120,-5659055,1739744,697608,0,0,0,290,461,231,391,409,418,388,328,288,117,103,201,0,
1,1773254427008,-2345,899,9748,273667,-112399,107512,0,0,0,333,375,332,377,285,447,574,489,407,390,412,364,0,
2,1773254427008,3484,-655,23876,-5952270,1751961,773355,0,0,0,290,461,231,391,409,419,388,327,289,116,102,200,0,
1,1773254427024,-2431,866,9767,350636,-140499,130725,0,0,0,337,381,312,373,292,443,579,465,405,381,394,391,0,
2,1773254427024,3192,-5297,25005,-5969375,1846034,823446,0,0,0,288,462,228,393,407,418,388,326,290,120,104,199,0,
1,1773254427040,-2493,851,9791,422718,-140499,153938,0,0,0,350,385,304,390,303,448,578,453,417,380,367,397,0,
2,1773254427040,2388,-11749,25427,-5683490,1920560,581543,0,0,0,292,466,230,393,407,418,389,325,292,118,105,199,0,
1,1773254427056,-2493,756,9839,500909,-125838,171042,0,0,0,369,381,315,394,287,464,578,421,415,366,342,435,0,
2,1773254427056,1182,-18253,24230,-5152037,1767844,1221,0,0,0,290,463,226,396,408,420,391,325,295,118,103,198,0,
1,1773254427072,-2517,665,9925,583987,-125838,184481,0,0,0,376,401,307,400,316,468,581,376,424,347,312,449,0,
2,1773254427072,-780,-24302,20780,-4067140,1404990,-1007927,0,0,0,290,462,225,397,409,421,393,327,297,119,103,198,0,
1,1773254427088,-2603,650,10112,702495,-158824,204028,0,0,0,384,404,308,422,310,479,587,329,425,341,283,480,0,
2,1773254427088,-3469,-28040,17453,-2646268,1053131,-1982868,0,0,0,291,464,227,395,408,419,392,326,296,120,103,197,0,
1,1773254427104,-2675,588,10437,855211,-237015,229685,0,0,0,391,419,311,420,317,495,581,310,449,323,259,509,0,
2,1773254427104,-6173,-29442,15716,-1303586,693942,-2423913,0,0,0,289,464,230,394,408,419,393,329,296,120,106,199,0,
1,1773254427120,-2747,440,10758,1010371,-370184,256563,0,0,0,399,426,327,423,327,515,575,281,456,306,237,527,0,
2,1773254427120,-7968,-29270,14749,-2443,205250,-2376265,0,0,0,284,459,225,388,407,415,396,343,295,119,113,197,0,
1,1773254427136,-2895,296,11150,1213178,-599869,309097,0,0,0,410,436,317,434,332,523,549,257,458,286,212,547,0,
2,1773254427136,-7733,-26001,15099,1159422,-431270,-1815491,0,0,0,277,455,217,382,405,409,409,387,291,125,138,188,0,
1,1773254427152,-2967,196,11682,1486845,-822224,382401,0,0,0,420,462,287,454,352,529,515,238,459,308,193,553,0,
2,1773254427152,-7925,-14836,18545,2448347,-2020742,-630412,0,0,0,271,447,205,385,401,406,448,459,279,150,189,176,0,
1,1773254427168,-3000,43,12179,1864360,-861319,447153,0,0,0,421,473,262,474,378,538,481,218,474,305,185,557,0,
2,1773254427168,57,5886,16534,3292563,-3521027,819781,0,0,0,269,429,179,388,389,395,490,498,268,186,238,165,0,
1,1773254427184,-3239,-210,12620,2327396,-790459,510683,0,0,0,411,463,231,484,393,540,447,200,498,248,169,571,0,
2,1773254427184,5331,19463,10591,3281568,-3077539,1869247,0,0,0,279,426,195,386,378,407,516,516,284,209,276,162,0,
1,1773254427200,-3665,-335,13476,2874731,-783129,621860,0,0,0,402,459,205,483,400,543,417,181,500,230,152,570,0,
2,1773254427200,143,12203,10777,3579670,-2035402,2073276,0,0,0,286,433,226,395,374,420,546,546,304,278,346,168,0,
1,1773254427216,-4211,-191,14730,3518583,-860098,801455,0,0,0,412,444,201,465,381,535,353,169,494,201,134,569,0,
2,1773254427216,-7815,-1139,18669,3936415,-1214400,1177748,0,0,0,303,467,276,414,398,436,556,556,325,226,296,191,0,
1,1773254427232,-4824,38,16142,4188092,-873537,1016479,0,0,0,405,437,200,456,360,540,311,150,493,176,107,545,0,x
2,1773254427232,-4699,-2852,21938,2624277,-938289,-48869,0,0,0,313,483,301,432,408,453,565,566,314,226,285,223,0,x
1,1773254427248,-6130,47,18908,5022533,-728151,1259604,0,0,0,391,441,186,451,374,521,304,151,481,166,104,517,0,
2,1773254427248,1005,588,17449,1066570,-614530,-305432,0,0,0,338,488,312,437,412,464,566,565,322,236,282,265,0,
1,1773254427264,-8638,-402,22297,5836206,-590095,1545489,0,0,0,378,413,187,435,358,499,289,151,464,159,96,446,0,
2,1773254427264,2364,3220,10370,366519,-120951,83077,0,0,0,355,494,326,440,417,470,569,568,330,242,286,287,0,
1,1773254427280,-10729,-904,25025,6465397,-525344,1942551,0,0,0,338,393,204,382,340,467,261,161,409,131,96,390,0,
2,1773254427280,1081,1775,8652,436157,59864,135612,0,0,0,366,500,328,441,421,472,580,580,336,247,286,297,0,
1,1773254427296,-9681,-110,26350,6908885,-230907,2364048,0,0,0,295,378,206,334,324,399,267,181,350,137,114,298,0,
2,1773254427296,1182,622,9887,284663,-68416,24434,0,0,0,372,503,328,444,421,472,582,582,336,252,292,302,0,
1,1773254427312,-8777,1785,26513,7266852,207694,2667037,0,0,0,277,336,217,306,254,341,310,226,303,157,181,177,0,
2,1773254427312,1340,1344,10524,-7330,-221133,-21991,0,0,0,379,507,335,445,420,471,584,584,332,255,295,304,0,
1,1773254427328,-9317,4891,22790,7448890,838107,2783102,0,0,0,272,302,233,284,197,311,332,251,293,162,218,133,0,
2,1773254427328,1028,2139,10260,-124616,-186924,-31764,0,0,0,384,509,341,448,421,473,587,588,335,256,302,301,0,
1,1773254427344,-9815,8537,15022,7370699,1299921,2822197,0,0,0,265,299,242,277,182,308,336,256,296,166,232,131,0,
2,1773254427344,923,2373,10016,-87964,-48869,-56199,0,0,0,384,510,340,451,423,475,588,587,336,259,308,296,0,
1,1773254427360,-9882,12577,8753,6313903,1350012,2783102,0,0,0,259,305,242,279,189,315,336,258,304,171,235,138,0,
2,1773254427360,1067,2325,10102,-8552,19547,-95294,0,0,0,385,510,338,451,423,472,589,588,329,260,303,292,0,
1,1773254427376,-7049,17827,10289,2420248,968832,1929112,0,0,0,258,310,239,282,195,318,339,262,307,172,233,141,0,
2,1773254427376,1081,2383,10088,67195,57421,-125838,0,0,0,384,511,334,454,425,474,592,591,332,256,298,291,0,
1,1773254427392,-3292,17549,11696,-1656666,1237612,561996,0,0,0,259,316,238,284,198,317,340,266,302,171,231,138,0,
2,1773254427392,1110,2402,9906,158824,97738,-142942,0,0,0,390,516,335,453,426,477,587,587,335,247,289,296,0,
1,1773254427408,-2928,10902,9136,-3640756,2258979,-409279,0,0,0,260,319,240,282,197,318,340,270,300,169,231,136,0,
2,1773254427408,1239,2316,9763,240680,112399,-144164,0,0,0,401,521,339,453,423,479,585,585,338,250,283,301,0,
1,1773254427424,-5297,6192,6140,-3905872,2605951,-492357,0,0,0,256,316,241,279,198,321,343,272,302,169,232,137,0,
2,1773254427424,1430,2182,9676,300545,72082,-129503,0,0,0,399,517,339,454,429,473,591,590,339,252,277,305,0,
1,1773254427440,-7102,5001,5001,-3874107,1946216,-80634,0,0,0,254,314,246,278,195,326,343,270,312,175,236,144,0,
2,1773254427440,1541,2110,9662,338419,-19547,-113620,0,0,0,405,518,341,463,439,479,591,588,341,244,261,306,0,
1,1773254427456,-5441,5541,6245,-4382347,1226617,86742,0,0,0,258,320,249,280,195,331,347,271,318,175,234,149,0,
2,1773254427456,1488,2014,9705,357967,-109955,-107512,0,0,0,411,518,344,460,446,474,594,577,335,320,331,296,0,
1,1773254427472,-4182,5479,7413,-4906469,1185078,-146607,0,0,0,258,314,249,285,195,329,347,271,316,176,234,142,0,
2,1773254427472,1349,1957,9734,354301,-171042,-105068,0,0,0,422,528,344,462,456,474,591,575,344,255,260,312,0,
1,1773254427488,-5441,4728,8006,-5323079,1127657,-626747,0,0,0,263,317,253,293,197,325,349,270,309,182,236,142,0,
2,1773254427488,1277,1962,9700,346971,-190589,-95294,0,0,0,424,527,340,464,459,480,594,564,346,241,235,330,0,
1,1773254427504,-6762,3886,8671,-5645616,483805,-1006705,0,0,0,262,314,245,295,199,321,352,271,296,183,238,137,0,
2,1773254427504,1244,1947,9696,354301,-202807,-79412,0,0,0,430,528,355,461,478,475,595,549,342,287,278,333,0,
1,1773254427520,-6446,2986,9863,-5882632,-324980,-1242499,0,0,0,268,316,245,301,199,319,353,270,296,185,237,133,0,
2,1773254427520,1162,1861,9729,367740,-202807,-65973,0,0,0,435,533,359,469,466,489,591,535,344,321,304,337,0,
1,1773254427536,-5561,1828,11466,-5996253,-742812,-1361007,0,0,0,267,314,246,305,195,321,354,270,297,186,236,135,0,
2,1773254427536,1048,1761,9753,377514,-173485,-58643,0,0,0,439,541,353,477,452,500,590,529,349,328,304,347,0,
1,1773254427552,-5326,1028,12825,-5997474,-913854,-1274264,0,0,0,267,314,249,305,195,325,354,272,299,187,237,136,0,
2,1773254427552,1076,1718,9772,390953,-140499,-59864,0,0,0,447,551,362,480,447,503,593,523,358,321,282,361,0,
1,1773254427568,-5178,670,14424,-5999918,-1084896,-872315,0,0,0,266,316,249,299,197,324,351,273,298,187,238,135,0,
2,1773254427568,1191,1689,9815,420275,-131946,-65973,0,0,0,457,559,374,487,451,510,595,509,364,294,237,380,0,
1,1773254427584,-4714,373,16185,-6039013,-1252273,-361632,0,0,0,266,317,256,292,195,323,349,273,300,183,236,142,0,
2,1773254427584,1229,1627,9892,460592,-138055,-83077,0,0,0,461,562,367,494,464,517,595,494,364,263,201,401,0,
1,1773254427600,-4034,-38,17898,-6031683,-1370781,-26878,0,0,0,265,317,269,287,193,328,345,273,308,181,235,151,0,
2,1773254427600,1234,1531,9968,511905,-134390,-122173,0,0,0,471,571,371,497,467,521,596,478,373,272,196,422,0,
1,1773254427616,-3603,-512,19569,-5929058,-1475850,-131946,0,0,0,262,317,274,286,197,333,343,270,311,183,236,151,0,
2,1773254427616,1263,1474,9992,576656,-122173,-177150,0,0,0,488,572,382,504,473,530,595,448,377,266,179,442,0,
1,1773254427632,-3220,-1206,21823,-5723807,-1626123,-794124,0,0,0,259,318,267,291,202,333,348,271,312,185,235,150,0,
2,1773254427632,1273,1416,10011,642630,-113620,-223576,0,0,0,500,577,390,501,482,530,598,424,408,242,166,453,0,
1,1773254427648,-2732,-3598,25273,-5451361,-1811826,-2084272,0,0,0,259,317,270,293,203,336,347,271,313,184,230,148,0,
2,1773254427648,1330,1301,10131,704938,-113620,-250454,0,0,0,501,576,379,514,500,536,584,393,407,240,155,479,0,
1,1773254427664,-2507,-8418,27690,-5290092,-1831373,-3072652,0,0,0,259,322,268,291,206,339,342,273,316,179,233,151,0,
2,1773254427664,1545,1201,10323,777020,-130725,-279776,0,0,0,511,593,386,512,514,542,577,361,408,252,166,505,0,
1,1773254427680,-3843,-16889,26881,-5231449,-1386664,-3133738,0,0,0,262,327,252,294,208,331,339,277,310,178,233,148,0,
2,1773254427680,1804,1105,10624,893084,-173485,-329867,0,0,0,519,598,382,528,508,558,569,333,415,252,159,529,0,
1,1773254427696,-5561,-26063,23125,-4971221,-932180,-2188119,0,0,0,263,332,248,291,210,330,342,274,311,186,239,151,0,
2,1773254427696,1785,1062,11064,1062905,-241902,-393397,0,0,0,524,599,386,529,508,559,549,302,416,248,159,545,0,
1,1773254427712,-1947,-32203,18521,-4087910,-1033583,-597426,0,0,0,268,337,262,289,211,325,333,269,302,176,235,146,0,
2,1773254427712,1646,995,11529,1285260,-328645,-450818,0,0,0,533,600,379,542,522,568,526,274,425,256,164,569,0,
1,1773254427728,7384,-34553,15429,-2486221,-830776,478918,0,0,0,262,338,256,293,218,329,339,272,306,181,236,147,0,
2,1773254427728,1474,813,11998,1556484,-400727,-487470,0,0,0,538,611,391,548,555,577,494,250,426,261,164,585,0,
1,1773254427744,12031,-35840,13218,-840550,123394,899193,0,0,0,257,339,267,292,219,334,341,275,312,188,242,153,0,
2,1773254427744,1679,492,12648,1937664,-430049,-538783,0,0,0,548,620,369,553,559,581,464,245,422,263,165,587,0,
1,1773254427760,9748,-34563,12529,316428,1126435,1015258,0,0,0,247,338,273,281,215,332,346,316,318,228,302,155,0,
2,1773254427760,1919,339,13347,2321287,-469144,-623082,0,0,0,546,619,331,549,564,575,425,245,416,264,174,593,0,
1,1773254427776,3450,-24862,14745,1654223,1715309,1282817,0,0,0,237,331,247,285,215,319,397,405,303,292,374,134,0,
2,1773254427776,1952,358,14051,2827084,-579100,-740368,0,0,0,543,618,292,550,575,574,376,244,412,265,182,598,0,
1,1773254427792,-4034,-47,16333,2968805,1649336,1808161,0,0,0,241,320,219,294,209,306,451,463,281,357,416,113,0,
2,1773254427792,1665,488,14845,3397632,-733038,-823446,0,0,0,554,620,265,550,574,582,335,239,406,267,182,598,0,
1,1773254427808,-7197,18712,12830,3371976,1551597,2323731,0,0,0,260,314,209,307,195,300,473,473,272,405,434,104,0,
2,1773254427808,1885,598,15812,3958406,-885754,-850324,0,0,0,563,619,260,530,567,579,306,224,399,264,181,595,0,
1,1773254427824,-7150,11820,12495,4203974,1088561,2171015,0,0,0,272,320,214,328,188,305,489,489,276,430,445,100,0,
2,1773254427824,3460,330,17382,4690223,-1014036,-996932,0,0,0,557,613,267,509,558,566,287,197,395,250,173,568,0,
1,1773254427840,-4881,-1306,18597,5126381,122173,1075122,0,0,0,268,330,245,310,196,327,502,502,287,445,458,111,0,
2,1773254427840,4757,76,19631,5473352,-1040914,-1304808,0,0,0,547,596,273,501,552,563,286,174,386,228,153,516,0,
1,1773254427856,-2005,-3756,20904,4752531,-294437,288328,0,0,0,264,341,254,318,223,337,523,523,283,461,479,124,0,
2,1773254427856,5379,-263,22794,6333450,-1018923,-1688431,0,0,0,517,582,261,484,536,542,283,163,365,216,142,462,0,
1,1773254427872,-1182,440,16563,3401297,-182037,338419,0,0,0,296,366,268,344,243,364,548,548,298,477,503,211,0,
2,1773254427872,5742,-660,25364,7055493,-957836,-2013411,0,0,0,444,550,241,460,516,495,295,175,346,201,137,422,0,
1,1773254427888,-2656,-224,12639,2072054,-316428,259006,0,0,0,333,373,284,363,244,392,560,560,317,476,509,267,0,
2,1773254427888,5364,-469,26513,7618711,-682947,-2315179,0,0,0,375,502,196,424,468,446,317,216,297,182,122,367,0,
1,1773254427904,-3622,-2258,10710,943175,-389732,-10995,0,0,0,333,373,291,372,267,404,569,569,329,480,519,310,0,
2,1773254427904,4723,1052,27394,8020660,-216246,-2569299,0,0,0,310,459,209,390,421,408,342,277,281,142,109,249,0,
1,1773254427920,-3153,-1722,10385,311541,-271224,-185703,0,0,0,341,366,282,378,257,420,575,561,361,480,522,341,0,
2,1773254427920,5714,4651,24579,7979121,-129503,-2791654,0,0,0,287,449,250,373,405,415,353,302,287,115,103,209,0,
1,1773254427936,-2636,416,10299,230907,-177150,-114842,0,0,0,342,375,298,369,265,428,578,563,345,471,532,374,0,
2,1773254427936,6068,8762,17128,7137349,-1296256,-2911383,0,0,0,287,454,259,375,404,421,358,317,292,111,101,206,0,
1,1773254427952,-2928,871,10045,263893,-122173,-36651,0,0,0,346,378,304,369,267,443,586,553,343,486,537,383,0,
2,1773254427952,6006,12620,11529,5288871,-2635272,-2500882,0,0,0,280,456,255,375,405,418,359,317,287,112,103,207,0,
1,1773254427968,-2976,512,9940,265115,-18325,4886,0,0,0,353,387,308,369,275,446,587,552,351,477,528,393,0,
2,1773254427968,6604,16956,8815,1422094,-2570520,-1099557,0,0,0,277,455,248,376,404,413,361,317,281,114,105,204,0,
1,1773254427984,-2694,473,10078,271224,26878,35430,0,0,0,358,393,315,384,277,449,581,543,356,469,505,421,0,
2,1773254427984,5991,14706,8691,-2519208,-1328021,704938,0,0,0,277,455,242,377,405,410,364,319,280,114,104,202,0,
1,1773254428000,-2498,583,10174,313984,-24434,72082,0,0,0,361,393,314,400,275,455,575,527,359,461,482,433,0,
2,1773254428000,5728,8504,7370,-4274834,-764803,1919338,0,0,0,276,456,243,378,404,409,367,319,280,116,105,202,0,
1,1773254428016,-2536,574,10069,350636,-86742,100181,0,0,0,368,392,309,408,272,460,570,521,365,446,463,432,0,
2,1773254428016,6685,3886,4857,-4012162,-770911,2109928,0,0,0,274,454,248,378,405,409,368,321,280,119,109,202,0,
1,1773254428032,-2651,459,9786,364075,-123394,119729,0,0,0,376,390,313,412,271,466,569,521,371,436,440,439,0,
2,1773254428032,7159,3340,4072,-3764151,-433714,1712866,0,0,0,275,455,248,379,413,412,367,324,280,116,111,202,0,
1,1773254428048,-2641,382,9571,340862,-109955,125838,0,0,0,373,392,317,412,274,470,568,507,375,436,417,446,0,
2,1773254428048,6556,4044,4934,-4058588,36651,1353677,0,0,0,278,456,249,382,418,414,370,326,280,114,110,199,0,
1,1773254428064,-2579,311,9418,305432,-95294,128281,0,0,0,371,398,300,408,280,462,554,471,375,436,418,452,0,
2,1773254428064,5647,4340,6350,-4603480,354301,1220508,0,0,0,276,455,248,381,416,413,372,326,280,113,110,199,0,
1,1773254428080,-2526,234,9356,255341,-95294,123394,0,0,0,353,396,285,401,277,457,505,423,388,425,419,458,0,
2,1773254428080,5139,4044,7422,-5005429,596204,1230282,0,0,0,278,456,249,381,419,415,371,330,284,118,115,200,0,
1,1773254428096,-2569,191,9327,194255,-87964,111177,0,0,0,353,406,288,402,288,459,566,454,368,445,424,452,0,
2,1773254428096,4900,3560,8356,-5275432,857654,1321912,0,0,0,278,456,249,381,419,416,371,330,284,118,114,200,0,
1,1773254428112,-2675,201,9317,131946,-48869,98960,0,0,0,352,410,310,399,288,470,565,440,373,435,425,445,0,
2,1773254428112,4718,2928,9657,-5523443,1161865,1448972,0,0,0,279,458,250,381,419,415,372,330,284,114,109,197,0,
1,1773254428128,-2670,258,9380,90408,13439,91629,0,0,0,350,406,297,389,285,472,566,440,366,429,425,444,0,
2,1773254428128,4513,2392,11146,-5728694,1406211,1552819,0,0,0,278,458,250,385,422,420,373,330,285,115,110,199,0,
1,1773254428144,-2546,287,9475,76969,45204,84299,0,0,0,348,406,301,388,292,475,564,437,376,429,425,451,0,
2,1773254428144,4240,2029,12754,-5886297,1543045,1604132,0,0,0,278,455,247,381,415,413,374,333,285,117,110,199,0,
1,1773254428160,-2431,253,9566,70860,23212,73303,0,0,0,353,413,300,384,290,469,569,439,369,430,419,453,0,
2,1773254428160,4044,1641,14319,-6002361,1629788,1605353,0,0,0,276,455,247,383,418,417,372,331,284,119,111,198,0,
1,1773254428176,-2416,210,9638,61086,-12217,67195,0,0,0,347,411,294,384,292,476,571,437,365,438,429,448,0,
2,1773254428176,3910,1435,16070,-6064670,1700648,1536936,0,0,0,281,460,253,382,416,417,374,331,284,119,109,199,0,
1,1773254428192,-2498,177,9667,67195,-50090,81855,0,0,0,343,415,290,384,327,477,568,431,379,430,432,449,0,
2,1773254428192,3780,1804,17961,-6119647,1765400,1424537,0,0,0,279,459,252,384,417,418,374,331,285,119,110,200,0,
1,1773254428208,-2531,153,9662,87964,-79412,109955,0,0,0,344,416,288,383,336,469,570,421,381,420,421,459,0,
2,1773254428208,3637,2507,21138,-6316346,1849699,1264491,0,0,0,279,459,252,383,415,417,377,330,286,117,109,198,0,
1,1773254428224,-2522,162,9633,127059,-114842,147829,0,0,0,346,405,286,383,311,472,571,408,372,413,403,466,0,
2,1773254428224,3598,2024,24331,-6549697,1918116,1215621,0,0,0,281,460,254,382,410,416,379,330,287,118,109,199,0,
1,1773254428240,-2531,244,9662,200363,-155159,179594,0,0,0,355,406,288,390,322,484,566,393,381,399,389,464,0,
2,1773254428240,3484,-425,27977,-6687752,1986533,1279151,0,0,0,280,459,253,385,409,419,381,328,289,119,109,199,0,
1,1773254428256,-2598,301,9748,288328,-179594,205250,0,0,0,361,421,291,405,339,488,566,384,387,401,380,469,0,
2,1773254428256,3082,-5977,31193,-6585127,2018298,1375668,0,0,0,281,459,251,389,412,422,384,325,292,120,108,196,0,
1,1773254428272,-2727,253,9786,382401,-168598,229685,0,0,0,365,431,292,419,327,499,559,392,411,389,359,482,0,
2,1773254428272,2876,-13974,31552,-6260146,1816713,1204626,0,0,0,283,460,248,391,411,422,387,324,294,122,108,195,0,
1,1773254428288,-2885,148,9777,470366,-119729,254119,0,0,0,387,432,290,425,327,507,560,372,419,362,322,509,0,
2,1773254428288,3206,-24900,27757,-5458691,1430646,591317,0,0,0,279,459,244,389,410,421,387,325,296,121,108,197,0,
1,1773254428304,-3038,148,9911,564439,-61086,282219,0,0,0,390,442,294,427,348,508,569,339,429,364,296,532,0,
2,1773254428304,1574,-32600,20890,-4031710,1424537,-458148,0,0,0,282,459,237,389,410,419,387,325,294,120,107,197,0,
1,1773254428320,-3149,167,10260,703716,8552,321315,0,0,0,406,465,302,461,347,534,564,296,437,334,266,559,0,
2,1773254428320,-6006,-35319,16668,-2212553,1606575,-1605353,0,0,0,292,464,236,396,411,418,391,330,295,120,105,196,0,
1,1773254428336,-3134,119,10591,871093,53756,360410,0,0,0,431,497,284,445,368,529,531,275,444,320,250,568,0,
2,1773254428336,-13007,-35879,15994,-910189,1066570,-1988977,0,0,0,292,464,233,397,413,419,391,330,291,126,111,198,0,
1,1773254428352,-2971,-14,10983,1111774,57421,399505,0,0,0,435,478,272,444,374,536,492,259,442,299,228,586,0,
2,1773254428352,-13022,-34079,15951,423940,-282219,-1534493,0,0,0,281,458,232,393,413,420,392,338,293,126,114,198,0,
1,1773254428368,-3105,-277,11682,1436755,2443,450818,0,0,0,445,508,285,459,391,551,464,254,447,282,223,590,0,
2,1773254428368,-7628,-27346,16506,1904677,-1304808,-996932,0,0,0,279,461,230,386,413,411,430,451,284,142,185,185,0,
1,1773254428384,-3651,-617,12572,1803274,-112399,561996,0,0,0,449,526,261,454,429,561,424,239,453,269,215,590,0,
2,1773254428384,-1311,-8222,20105,3075095,-1925447,-601091,0,0,0,264,442,185,388,401,397,481,490,273,172,234,173,0,
1,1773254428400,-3948,-847,13481,2309070,-262672,785572,0,0,0,442,519,242,458,438,564,386,211,462,260,202,595,0,
2,1773254428400,5886,23766,17439,3434284,-2922379,-37873,0,0,0,267,416,181,381,381,403,506,506,291,192,273,172,0,
1,1773254428416,-3388,-756,14247,2866179,-298102,977384,0,0,0,437,521,225,460,440,563,343,193,466,251,189,598,0,
2,1773254428416,5637,23507,9102,3436727,-3996280,427605,0,0,0,279,417,194,386,373,414,526,526,304,197,297,175,0,
1,1773254428432,-2852,-392,15338,3558900,-219911,1061683,0,0,0,426,524,209,456,437,553,289,194,471,231,171,591,0,
2,1773254428432,-167,3101,13199,4447098,-3861890,421497,0,0,0,292,439,225,400,379,426,547,547,317,204,307,179,0,
1,1773254428448,-4522,-325,16984,4355469,-190589,1171639,0,0,0,418,488,206,459,405,540,259,185,473,212,145,574,0,
2,1773254428448,-2948,-6360,22766,3998723,-2669481,379958,0,0,0,300,464,263,414,393,438,560,560,317,221,319,197,0,
1,1773254428464,-6633,-205,19559,5155702,-219911,1447750,0,0,0,419,434,204,456,368,526,258,153,460,202,116,536,0,
2,1773254428464,-1981,-1292,21220,2102598,-1560149,404392,0,0,0,306,480,288,425,407,449,568,567,313,238,327,227,0,
1,1773254428480,-9131,47,23450,6063448,-136833,1915673,0,0,0,389,405,207,431,347,491,243,147,453,179,103,448,0,
2,1773254428480,-1363,2536,14113,938289,-691499,295658,0,0,0,317,494,305,435,419,461,574,573,321,245,318,255,0,
1,1773254428496,-10174,430,25795,6748839,217468,2361605,0,0,0,333,399,208,373,324,453,254,162,399,147,108,360,0,
2,1773254428496,-186,2383,9652,496022,-65973,136833,0,0,0,342,506,312,441,429,467,581,581,325,249,308,279,0,
1,1773254428512,-9313,861,27145,7264409,781907,2731789,0,0,0,277,389,240,332,298,406,255,196,342,140,134,286,0,
2,1773254428512,1000,717,9370,400727,35430,68416,0,0,0,360,509,322,446,437,474,583,583,335,257,313,294,0,
1,1773254428528,-8647,1876,27030,7731110,996932,2919935,0,0,0,251,327,261,294,237,343,296,234,313,151,193,164,0,
2,1773254428528,1000,1095,10323,183259,-130725,84299,0,0,0,371,510,328,445,431,479,585,586,342,257,310,306,0,
1,1773254428544,-9495,4757,23670,8086634,800233,3028669,0,0,0,267,309,253,287,211,319,328,258,297,161,227,137,0,
2,1773254428544,641,2072,10351,102625,-174707,75747,0,0,0,383,519,336,448,433,481,590,590,345,259,310,315,0,
1,1773254428560,-9786,8628,16353,7872831,693942,3122743,0,0,0,267,319,253,287,212,322,334,266,302,170,241,138,0,
2,1773254428560,550,2225,10145,212581,-94073,36651,0,0,0,381,519,348,452,437,489,591,591,345,248,298,331,0,
1,1773254428576,-8365,13361,11777,5816658,926071,2712241,0,0,0,265,325,254,287,215,319,333,263,294,171,234,138,0,
2,1773254428576,660,1962,10160,299323,-42760,12217,0,0,0,395,527,360,454,444,489,592,592,346,254,296,334,0,
1,1773254428592,-5522,18387,10849,1231504,1189965,1106887,0,0,0,264,329,250,289,219,317,339,267,289,174,231,138,0,
2,1773254428592,703,1828,10241,321315,-31764,1221,0,0,0,392,534,351,457,451,494,593,593,349,251,279,342,0,
1,1773254428608,-4283,15218,10619,-2850297,1731192,-784350,0,0,0,264,328,250,290,219,322,345,273,291,176,233,139,0,
2,1773254428608,617,1981,10227,349414,-3665,-10995,0,0,0,400,532,350,463,450,498,593,588,351,244,259,356,0,
1,1773254428624,-5719,8552,7676,-4510628,2146580,-1629788,0,0,0,258,324,250,291,219,324,345,272,292,174,232,137,0,
2,1773254428624,598,2019,10131,417831,46425,-25656,0,0,0,411,535,356,466,450,500,594,579,353,256,262,366,0,
1,1773254428640,-7154,5733,5096,-4139222,1709200,-1174082,0,0,0,250,324,249,290,221,321,345,269,288,175,233,135,0,
2,1773254428640,698,1842,10002,481361,79412,-35430,0,0,0,417,537,353,469,454,503,595,567,367,247,242,376,0,
1,1773254428656,-6905,5063,4450,-4035375,974940,-613308,0,0,0,252,323,255,291,219,322,347,269,287,179,237,139,0,
2,1773254428656,813,1675,9916,513126,80634,-43982,0,0,0,422,538,348,471,454,505,595,550,372,233,215,390,0,
1,1773254428672,-5546,5752,6001,-4537506,684169,-475253,0,0,0,252,322,261,291,216,327,346,269,291,182,237,140,0,
2,1773254428672,918,1584,9882,520457,47647,-56199,0,0,0,428,539,346,477,457,508,593,530,367,230,200,402,0,
1,1773254428688,-5532,5742,7528,-5249775,745255,-689055,0,0,0,256,319,265,294,215,328,352,274,299,187,231,140,0,
2,1773254428688,985,1531,9877,518013,-1221,-70860,0,0,0,434,540,346,484,468,515,592,516,370,226,186,412,0,
1,1773254428704,-6326,4948,8777,-5891184,576656,-976162,0,0,0,255,316,265,293,212,328,350,269,296,186,239,140,0,
2,1773254428704,961,1469,9892,513126,-56199,-81855,0,0,0,445,545,349,488,471,521,590,501,380,226,180,427,0,
1,1773254428720,-6561,3613,9820,-6229603,107512,-1197295,0,0,0,254,316,265,295,215,333,349,271,297,188,240,143,0,
2,1773254428720,909,1416,9954,521678,-91629,-89186,0,0,0,452,553,338,491,481,523,588,472,404,246,196,432,0,
1,1773254428736,-6580,2258,10859,-6379876,-298102,-1373225,0,0,0,257,320,268,294,215,332,350,272,302,187,241,142,0,
2,1773254428736,813,1320,9983,536339,-101403,-98960,0,0,0,454,554,331,488,483,521,599,454,401,332,272,433,0,
1,1773254428752,-6858,1110,12012,-6348111,-645073,-1489289,0,0,0,258,319,271,295,215,332,354,272,303,186,235,142,0,
2,1773254428752,698,1191,9949,543670,-85521,-105068,0,0,0,464,553,334,494,491,535,593,433,381,325,260,455,0,
1,1773254428768,-7255,397,13582,-6263812,-990823,-1565036,0,0,0,259,320,275,294,216,334,352,272,305,186,237,143,0,
2,1773254428768,693,1072,9930,540004,-59864,-101403,0,0,0,468,560,338,492,499,536,587,427,386,237,172,483,0,
1,1773254428784,-7590,248,15539,-6222273,-1266934,-1579697,0,0,0,259,321,276,295,216,337,352,273,309,186,239,143,0,
2,1773254428784,794,990,9959,537561,-45204,-100181,0,0,0,479,566,344,495,496,541,583,397,386,232,161,493,0,
1,1773254428800,-7824,119,17865,-6241821,-1492954,-1512502,0,0,0,257,320,276,297,217,338,351,272,308,187,240,144,0,
2,1773254428800,899,952,10098,551000,-54977,-117286,0,0,0,486,582,340,501,505,550,585,381,401,239,161,515,0,
1,1773254428816,-8001,-301,20282,-6238155,-1690874,-1403768,0,0,0,259,321,277,297,218,339,351,269,307,189,240,144,0,
2,1773254428816,1009,899,10256,601091,-86742,-146607,0,0,0,494,576,341,505,508,554,579,352,398,244,164,523,0,
1,1773254428832,-8188,-1253,22727,-6126978,-1902234,-1365894,0,0,0,261,322,278,297,216,340,353,269,311,188,236,146,0,
2,1773254428832,1201,818,10361,674395,-117286,-195476,0,0,0,507,579,339,509,514,565,559,331,403,245,157,537,0,
1,1773254428848,-7820,-3206,25216,-5891184,-2202780,-1631010,0,0,0,259,322,276,295,214,339,351,271,312,188,233,153,0,
2,1773254428848,1229,674,10495,774577,-113620,-268780,0,0,0,515,582,329,512,521,568,552,308,407,257,162,551,0,
1,1773254428864,-6436,-6848,27891,-5585751,-2559525,-2094046,0,0,0,259,326,274,294,216,335,348,270,311,187,230,155,0,
2,1773254428864,1005,526,10725,928515,-52534,-337197,0,0,0,528,590,326,517,536,566,544,287,416,263,166,568,0,
1,1773254428880,-4685,-12983,29394,-5331631,-2608394,-2383596,0,0,0,255,329,271,293,219,337,347,270,315,187,230,159,0,
2,1773254428880,947,488,11021,1093448,3665,-376292,0,0,0,539,595,321,519,542,569,528,273,431,261,171,584,0,
1,1773254428896,-3933,-22091,27652,-5120272,-2174680,-2160019,0,0,0,252,335,269,296,232,334,344,270,312,187,233,156,0,
2,1773254428896,990,464,11495,1318247,31764,-401949,0,0,0,538,597,311,520,537,572,508,261,434,260,176,598,0,
1,1773254428912,-2086,-31203,21603,-4634023,-1930334,-1001818,0,0,0,259,336,278,300,227,334,351,272,306,189,234,151,0,
2,1773254428912,880,363,11902,1595580,78190,-420275,0,0,0,542,602,303,530,545,575,477,249,427,266,176,608,0,
1,1773254428928,3555,-38631,16482,-3622430,-1866804,355523,0,0,0,257,338,271,302,229,334,350,272,306,188,235,148,0,
2,1773254428928,536,248,12304,1905899,149051,-408057,0,0,0,558,606,286,542,561,587,439,242,436,278,181,616,0,
1,1773254428944,12414,-43905,13993,-1825265,-1268156,1439198,0,0,0,258,335,267,303,230,333,350,271,301,196,243,148,0,
2,1773254428944,689,181,13175,2335948,155159,-344527,0,0,0,545,606,252,536,564,593,406,238,451,299,196,624,0,
1,1773254428960,14256,-41899,15037,152716,283441,1331686,0,0,0,248,316,273,298,210,336,395,351,311,252,324,143,0,
2,1773254428960,1474,148,14175,2818532,75747,-337197,0,0,0,547,597,241,539,574,595,372,233,462,335,209,613,0,
1,1773254428976,7508,-28145,18009,2171015,1980425,935845,0,0,0,244,287,198,288,187,283,447,438,271,304,397,103,0,
2,1773254428976,2196,76,15204,3433062,-67195,-452040,0,0,0,560,600,259,539,569,601,335,208,465,261,172,621,0,
1,1773254428992,-3957,4996,16209,3810577,3270572,763581,0,0,0,247,274,174,286,172,269,473,473,270,350,421,89,0,
2,1773254428992,2531,67,16286,4072027,-174707,-604756,0,0,0,563,596,243,539,569,591,307,196,453,254,171,612,0,
1,1773254429008,-7446,19310,13496,4492302,3688404,733038,0,0,0,256,270,182,300,166,282,492,492,269,384,436,82,0,
2,1773254429008,3316,148,17985,4852713,-259006,-796568,0,0,0,562,590,265,527,559,593,297,173,452,245,159,585,0,
1,1773254429024,-1722,4958,18444,4991990,2503325,582765,0,0,0,261,281,198,312,183,297,513,514,273,408,457,89,0,
2,1773254429024,4469,129,21239,5786115,-332310,-1083674,0,0,0,547,571,293,527,543,589,311,151,439,229,143,521,0,
1,1773254429040,1847,-5202,24733,4348138,508239,334754,0,0,0,270,301,232,321,207,321,528,528,293,426,470,108,0,
2,1773254429040,5656,-14,25369,6730513,-356745,-1374446,0,0,0,486,546,257,505,523,559,299,150,408,217,137,440,0,
1,1773254429056,-435,-3268,21832,2586403,-414166,279776,0,0,0,293,319,267,339,214,344,537,535,305,436,478,135,0,
2,1773254429056,6939,603,28647,7597941,-116064,-1707979,0,0,0,419,522,202,481,491,512,306,167,371,196,128,388,0,
1,1773254429072,-3508,1139,13299,1227839,-301767,81855,0,0,0,315,334,269,353,224,350,556,550,299,446,498,182,0,
2,1773254429072,7001,1809,30327,8315097,262672,-2113593,0,0,0,358,488,189,421,443,453,330,218,314,162,113,337,0,
1,1773254429088,-3575,1847,8513,692721,-138055,-131946,0,0,0,322,342,283,359,233,378,561,549,311,465,509,204,0,
2,1773254429088,6757,2105,29691,8652295,889419,-2527760,0,0,0,302,457,209,373,403,409,348,264,285,121,100,243,0,
1,1773254429104,-2364,406,8710,505796,-37873,-178372,0,0,0,323,349,314,356,234,400,567,558,333,474,507,239,0,
2,1773254429104,7413,4326,22967,8691390,1510058,-3036000,0,0,0,287,449,223,362,393,401,357,300,287,109,101,204,0,
1,1773254429120,-2359,569,10270,287106,14660,-90408,0,0,0,327,357,288,364,248,385,583,554,319,466,527,243,0,
2,1773254429120,7461,8810,14893,8185594,1077566,-3596774,0,0,0,295,453,226,368,398,407,362,316,290,112,103,209,0,
1,1773254429136,-2608,1373,10495,204028,54977,-15882,0,0,0,332,358,300,380,246,400,587,558,334,459,527,265,0,
2,1773254429136,3541,14367,12155,6087882,-466701,-3545461,0,0,0,294,453,224,370,398,403,363,315,283,109,101,203,0,
1,1773254429152,-2416,1617,10045,263893,37873,30543,0,0,0,332,362,297,386,267,402,586,536,326,459,521,275,0,
2,1773254429152,1368,19162,10390,901637,-2157576,-1659109,0,0,0,294,455,223,367,398,399,362,313,279,111,102,203,0,
1,1773254429168,-2211,1502,9992,327423,-34208,58643,0,0,0,352,369,332,385,253,407,590,519,341,475,511,300,0,
2,1773254429168,4541,15659,8963,-4415333,-2856405,627969,0,0,0,295,454,224,368,398,400,367,315,279,113,105,204,0,
1,1773254429184,-2254,1478,10222,370184,-123394,83077,0,0,0,353,376,312,394,246,404,582,506,349,471,486,329,0,
2,1773254429184,7858,7987,7537,-6093991,-2171015,1254717,0,0,0,292,454,226,367,397,403,366,319,280,115,106,205,0,
1,1773254429200,-2349,1517,10155,432492,-194255,109955,0,0,0,360,377,297,391,250,406,579,488,363,465,460,343,0,
2,1773254429200,7475,3498,5470,-5600412,-1065348,629191,0,0,0,284,452,226,373,401,408,366,320,279,112,104,201,0,
1,1773254429216,-2383,1421,9820,483805,-234572,123394,0,0,0,362,377,297,404,248,409,582,484,375,443,437,356,0,
2,1773254429216,5910,2814,4828,-5111720,-547335,85521,0,0,0,284,458,228,372,399,407,370,323,281,111,104,200,0,
1,1773254429232,-2435,1220,9499,481361,-237015,124616,0,0,0,361,385,304,410,249,424,575,482,374,416,424,376,0,
2,1773254429232,5350,3354,5838,-5291314,-471587,12217,0,0,0,285,458,230,370,398,403,366,323,277,110,106,198,0,
1,1773254429248,-2526,1086,9361,441044,-210137,125838,0,0,0,360,392,307,400,256,435,566,481,367,396,417,389,0,
2,1773254429248,5790,3450,6949,-5676159,-276111,245567,0,0,0,281,458,225,372,398,403,369,328,277,194,145,188,0,
1,1773254429264,-2603,1038,9346,376292,-151494,128281,0,0,0,354,392,302,393,264,436,566,468,365,383,411,396,0,
2,1773254429264,6283,2962,7748,-5878967,244346,632856,0,0,0,281,458,227,373,399,404,372,330,278,122,110,192,0,
1,1773254429280,-2579,1033,9365,320093,-81855,130725,0,0,0,346,396,300,393,269,440,566,442,368,379,404,405,0,
2,1773254429280,6034,2383,8963,-5913175,930958,1095892,0,0,0,280,458,227,373,400,406,367,327,278,108,104,196,0,
1,1773254429296,-2512,1019,9404,277332,-25656,130725,0,0,0,347,402,307,394,275,439,566,437,376,380,393,413,0,
2,1773254429296,5604,2000,10447,-5999918,1425759,1506393,0,0,0,280,459,228,373,402,407,368,327,278,109,106,195,0,
1,1773254429312,-2435,1005,9451,252898,4886,125838,0,0,0,344,407,305,382,289,445,565,446,376,370,368,426,0,
2,1773254429312,5178,1603,12093,-6122091,1742187,1795943,0,0,0,281,461,229,373,400,406,370,326,276,108,105,195,0,
1,1773254429328,-2364,985,9504,240680,8552,112399,0,0,0,361,418,307,384,292,436,566,428,380,373,366,415,0,
2,1773254429328,4508,1162,13945,-6137973,1963320,1839926,0,0,0,286,459,230,375,400,405,372,326,276,109,104,196,0,
1,1773254429344,-2316,966,9571,241902,-2443,97738,0,0,0,361,424,299,404,308,442,568,404,389,382,375,417,0,
2,1773254429344,3819,957,15697,-6112317,2061059,1717753,0,0,0,284,458,229,379,402,407,372,328,278,110,104,197,0,
1,1773254429360,-2354,928,9652,261450,-26878,89186,0,0,0,363,429,309,414,321,450,566,380,373,384,344,436,0,
2,1773254429360,3330,1057,17688,-6147747,2024407,1462411,0,0,0,277,460,227,383,404,411,372,329,278,110,105,196,0,
1,1773254429376,-2421,866,9734,291993,-51312,94073,0,0,0,378,435,321,434,325,455,563,367,381,382,330,442,0,
2,1773254429376,3120,1411,19923,-6230825,1970651,1175304,0,0,0,277,460,228,385,405,413,374,328,279,110,105,195,0,
1,1773254429392,-2474,832,9772,331088,-72082,118507,0,0,0,380,429,315,428,312,455,554,350,396,376,313,462,0,
2,1773254429392,3010,1660,22933,-6348111,1981646,990823,0,0,0,280,461,231,385,404,411,375,328,280,111,106,195,0,
1,1773254429408,-2502,818,9820,377514,-95294,145385,0,0,0,380,445,308,424,353,463,553,331,400,366,311,500,0,
2,1773254429408,2627,899,26106,-6456845,2009746,1029918,0,0,0,285,463,231,388,404,412,381,330,285,113,106,196,0,
1,1773254429424,-2574,813,9911,442266,-131946,178372,0,0,0,391,465,327,442,362,470,552,307,409,351,293,520,0,
2,1773254429424,1804,-2397,29456,-6493497,2041511,1323134,0,0,0,284,462,228,391,405,410,384,324,286,113,103,192,0,
1,1773254429440,-2660,770,10054,530231,-168598,222354,0,0,0,400,465,342,465,351,482,552,282,419,340,269,525,0,
2,1773254429440,564,-9858,31347,-6334672,2053728,1596801,0,0,0,283,460,224,393,405,410,386,322,287,113,103,191,0,
1,1773254429456,-2694,593,10160,659734,-201585,282219,0,0,0,406,454,327,479,356,496,544,265,427,328,248,528,0,
2,1773254429456,62,-20234,30504,-5893627,1705535,1562593,0,0,0,283,462,222,395,405,410,388,321,287,116,102,192,0,
1,1773254429472,-2799,397,10198,792903,-234572,348193,0,0,0,416,462,310,490,362,502,522,253,443,306,225,532,0,
2,1773254429472,1474,-31026,25230,-4886921,1029918,961501,0,0,0,288,462,222,386,414,409,389,321,290,117,106,196,0,
1,1773254429488,-3105,320,10428,924849,-251676,423940,0,0,0,429,487,305,496,377,508,503,240,455,292,213,545,0,
2,1773254429488,713,-38296,18181,-3170390,1022588,-371406,0,0,0,289,462,225,392,407,412,387,322,290,115,103,194,0,
1,1773254429504,-3431,287,10993,1111774,-256563,527787,0,0,0,438,502,283,499,410,515,483,226,449,285,209,565,0,
2,1773254429504,-5699,-41402,14926,-1431868,1345125,-1607797,0,0,0,289,460,222,392,405,411,389,332,290,116,107,195,0,
1,1773254429520,-2828,205,11782,1404990,-243124,603534,0,0,0,446,525,285,502,424,523,456,215,460,269,195,581,0,
2,1773254429520,-13093,-40291,16219,67195,885754,-1817934,0,0,0,278,459,221,386,406,412,410,407,284,128,149,188,0,
1,1773254429536,-2182,124,12414,1751961,-188146,572991,0,0,0,471,514,277,503,421,545,428,209,466,272,186,588,0,
2,1773254429536,-11174,-29021,20526,1960877,-1161865,-851546,0,0,0,268,442,197,377,393,397,452,468,272,185,219,176,0,
1,1773254429552,-2311,52,12959,2184454,-109955,486248,0,0,0,447,526,258,518,461,550,392,185,503,262,176,590,0,
2,1773254429552,-708,-1014,19593,3532022,-3382971,79412,0,0,0,266,413,180,368,371,389,485,490,273,217,262,169,0,
1,1773254429568,-3077,-57,13419,2718350,-51312,489913,0,0,0,467,551,226,484,464,546,357,188,477,250,186,582,0,
2,1773254429568,6944,20531,11399,3875329,-3948632,632856,0,0,0,271,394,183,367,359,399,500,499,286,202,277,171,0,
1,1773254429584,-3699,-129,14003,3276681,-2443,591317,0,0,0,444,513,215,495,486,547,283,195,477,246,179,591,0,
2,1773254429584,2435,8758,9466,4326147,-2728124,899193,0,0,0,277,405,189,378,361,412,519,522,286,209,309,174,0,
1,1773254429600,-4503,-220,14898,3825238,42760,767246,0,0,0,471,508,221,463,440,532,270,177,481,218,147,576,0,
2,1773254429600,-3953,-2407,17468,4740314,-1451415,849102,0,0,0,278,425,211,387,366,426,543,550,286,240,347,182,0,
1,1773254429616,-6054,-641,16817,4524067,62308,1102000,0,0,0,468,492,223,453,433,530,271,166,484,195,122,555,0,
2,1773254429616,-5221,-2507,22258,4028045,-744033,348193,0,0,0,293,459,248,403,388,436,551,551,313,248,346,205,0,
1,1773254429632,-7757,-1244,20124,5326744,32986,1550375,0,0,0,453,465,223,431,409,522,245,149,469,179,106,508,0,
2,1773254429632,-1402,1785,18875,2502104,-370184,-278554,0,0,0,317,479,290,418,398,451,559,559,319,254,350,252,0,
1,1773254429648,-9413,-1311,23168,6106208,81855,2028072,0,0,0,410,442,220,397,379,491,219,145,423,153,102,438,0,
2,1773254429648,1694,1526,13237,1502728,-37873,-211359,0,0,0,343,493,316,424,405,461,578,578,329,257,350,300,0,
1,1773254429664,-10098,-531,25326,6732956,331088,2483778,0,0,0,352,425,224,367,343,444,228,162,370,137,108,368,0,
2,1773254429664,2292,181,10476,924849,13439,80634,0,0,0,358,500,327,429,407,469,592,591,329,333,417,312,0,
1,1773254429680,-9222,1402,26810,7188662,646295,2850297,0,0,0,299,395,226,339,298,392,257,197,329,139,135,281,0,
2,1773254429680,1411,9,10342,571769,-206472,201585,0,0,0,373,505,333,443,418,479,598,597,332,276,353,336,0,
1,1773254429696,-7068,4254,26532,7705454,1033583,3097086,0,0,0,262,338,232,301,239,334,296,239,305,152,187,184,0,
2,1773254429696,942,760,10552,279776,-364075,120951,0,0,0,386,510,347,439,425,483,593,593,337,266,344,348,0,
1,1773254429712,-7585,5498,22689,8043873,1364672,3044552,0,0,0,259,292,254,275,182,297,341,258,301,183,223,147,0,
2,1773254429712,823,1148,10461,101403,-340862,56199,0,0,0,386,508,347,443,427,490,596,595,341,267,342,350,0,
1,1773254429728,-9964,6360,14515,7795862,1037249,3025004,0,0,0,278,298,253,292,186,312,360,251,305,208,221,155,0,
2,1773254429728,823,1320,10332,34208,-226020,35430,0,0,0,389,510,352,439,423,492,595,595,343,267,344,354,0,
1,1773254429744,-9279,10050,10169,6194173,370184,2896722,0,0,0,278,311,252,291,192,315,348,251,303,198,221,152,0,
2,1773254429744,856,1493,10260,10995,-136833,13439,0,0,0,393,513,355,439,423,491,592,592,350,303,355,349,0,
1,1773254429760,-4465,16601,10562,1539380,318871,1448972,0,0,0,280,321,248,295,212,324,339,254,290,198,223,151,0,
2,1773254429760,856,1631,10236,32986,-81855,-13439,0,0,0,394,513,352,441,422,488,593,593,347,303,354,346,0,
1,1773254429776,-2153,15869,10686,-2884505,1332907,-519235,0,0,0,272,322,250,291,208,331,349,263,299,199,224,150,0,
2,1773254429776,789,1670,10208,76969,-18325,-36651,0,0,0,394,513,349,441,422,487,597,597,342,266,342,349,0,
1,1773254429792,-5307,8858,7298,-4245513,2028072,-1310916,0,0,0,277,325,242,292,201,326,353,263,299,202,227,152,0,
2,1773254429792,765,1660,10083,138055,67195,-54977,0,0,0,392,514,344,443,423,487,598,598,342,263,338,353,0,
1,1773254429808,-7709,4465,4206,-4207639,1582140,-1080009,0,0,0,276,327,256,294,198,332,351,263,301,201,227,156,0,
2,1773254429808,842,1584,9901,167377,113620,-57421,0,0,0,390,513,335,441,418,480,597,596,335,265,333,354,0,
1,1773254429824,-6905,3871,3474,-3911980,454483,-422718,0,0,0,265,330,256,289,201,331,355,269,310,196,227,157,0,
2,1773254429824,952,1512,9772,175929,125838,-56199,0,0,0,394,516,341,439,419,482,594,593,341,263,330,344,0,
1,1773254429840,-5125,4785,4943,-4254065,186924,-338419,0,0,0,263,332,259,294,201,326,358,273,305,195,229,154,0,
2,1773254429840,1048,1469,9715,167377,102625,-54977,0,0,0,395,516,352,438,417,482,586,585,339,261,323,349,0,
1,1773254429856,-5106,4986,6211,-4740314,201585,-518013,0,0,0,269,334,258,305,202,323,362,274,299,201,231,153,0,
2,1773254429856,1110,1507,9686,169820,56199,-53756,0,0,0,395,517,359,442,424,493,586,585,352,258,318,358,0,
1,1773254429872,-6001,4455,7331,-5247332,-40317,-790459,0,0,0,268,337,254,301,208,323,360,271,299,204,229,153,0,
2,1773254429872,1158,1550,9710,195476,2443,-54977,0,0,0,395,513,354,442,420,493,583,582,349,377,412,347,0,
1,1773254429888,-5824,3632,8753,-5651725,-561996,-1060462,0,0,0,264,340,255,289,215,323,357,271,299,205,229,154,0,
2,1773254429888,1153,1497,9777,223576,-47647,-63529,0,0,0,400,516,356,446,424,497,582,582,358,345,373,355,0,
1,1773254429904,-5230,2703,10504,-6026796,-957836,-1396437,0,0,0,266,344,253,290,223,322,362,275,298,208,234,154,0,
2,1773254429904,1076,1407,9786,222354,-86742,-75747,0,0,0,408,517,350,447,425,501,583,581,359,265,278,376,0,
1,1773254429920,-5302,1904,12170,-6299242,-1119105,-1648114,0,0,0,264,345,251,291,228,322,361,277,297,203,237,156,0,
2,1773254429920,1014,1383,9767,215024,-108734,-83077,0,0,0,423,522,355,452,426,507,587,581,359,246,248,394,0,
1,1773254429936,-5719,1134,14175,-6580240,-1296256,-1786169,0,0,0,264,345,251,290,226,320,357,277,296,192,239,156,0,
2,1773254429936,1005,1392,9801,226020,-117286,-83077,0,0,0,430,527,356,450,432,504,597,566,392,286,285,389,0,
1,1773254429952,-5929,416,16219,-6756169,-1488067,-1738522,0,0,0,263,347,252,292,228,324,355,277,297,189,239,155,0,
2,1773254429952,1005,1397,9882,259006,-124616,-74525,0,0,0,436,533,361,452,438,504,596,560,383,272,263,404,0,
1,1773254429968,-5494,-325,18612,-6723182,-1650557,-1607797,0,0,0,257,347,258,286,225,346,350,274,303,187,236,160,0,
2,1773254429968,1005,1383,9954,313984,-124616,-64751,0,0,0,444,538,366,461,441,515,596,554,364,248,223,431,0,
1,1773254429984,-5087,-799,21071,-6548475,-1723861,-1529606,0,0,0,264,348,258,292,220,323,350,272,296,195,239,161,0,
2,1773254429984,1005,1344,10002,401949,-112399,-61086,0,0,0,452,542,368,469,447,528,599,541,372,259,218,450,0,
1,1773254430000,-5259,-1033,23278,-6351776,-1761735,-1578475,0,0,0,258,340,259,291,206,328,352,272,305,194,235,162,0,
2,1773254430000,990,1282,10064,502131,-89186,-72082,0,0,0,462,547,372,475,454,538,599,525,379,267,213,472,0,
1,1773254430016,-5192,-1541,25714,-6234490,-1820378,-1717753,0,0,0,257,337,261,289,206,326,353,270,302,187,230,158,0,
2,1773254430016,1000,1153,10098,585208,-61086,-91629,0,0,0,479,551,379,484,459,545,603,497,377,271,199,499,0,
1,1773254430032,-4680,-3354,27910,-6222273,-1853365,-1982868,0,0,0,256,341,260,291,210,329,355,273,303,194,233,162,0,
2,1773254430032,1028,1043,10131,649960,-35430,-112399,0,0,0,489,556,386,491,468,552,608,470,384,300,200,516,0,
1,1773254430048,-5005,-7092,28915,-6114761,-1780061,-2138028,0,0,0,257,339,256,293,209,332,353,270,305,201,231,161,0,
2,1773254430048,1182,1052,10236,720820,-23212,-134390,0,0,0,499,569,395,488,476,552,608,426,405,261,176,539,0,
1,1773254430064,-7145,-13395,27350,-5725029,-1601688,-1729970,0,0,0,257,339,256,296,213,338,351,271,316,195,233,160,0,
2,1773254430064,1426,1062,10466,846659,-26878,-167377,0,0,0,501,573,388,501,492,562,605,393,423,257,170,551,0,
1,1773254430080,-6499,-20923,23086,-5048190,-1772730,-362853,0,0,0,256,341,255,298,220,341,353,272,319,190,233,157,0,
2,1773254430080,1459,909,10734,1006705,-14660,-215024,0,0,0,517,577,390,509,498,569,590,352,431,264,165,573,0,
1,1773254430096,1383,-27772,18813,-4185648,-2101376,1160643,0,0,0,258,342,253,301,225,340,356,271,315,193,231,155,0,
2,1773254430096,1249,698,10993,1177748,34208,-254119,0,0,0,526,584,388,525,523,571,570,307,425,267,169,584,0,
1,1773254430112,12534,-33720,16176,-2886949,-1524719,1728748,0,0,0,260,344,255,300,225,338,358,271,314,197,234,157,0,
2,1773254430112,1057,555,11409,1404990,113620,-255341,0,0,0,533,595,389,538,525,583,550,282,426,261,165,594,0,
1,1773254430128,16415,-37228,14491,-1227839,-152716,1488067,0,0,0,260,345,255,300,221,335,358,272,313,196,237,158,0,
2,1773254430128,1335,469,12098,1720196,173485,-259006,0,0,0,536,596,367,541,527,586,511,253,454,270,172,610,0,
1,1773254430144,9796,-33400,13534,569326,1304808,937067,0,0,0,257,341,255,298,223,331,361,288,310,202,253,156,0,
2,1773254430144,2024,325,13108,2140471,158824,-324980,0,0,0,536,598,365,541,540,594,462,235,455,271,180,617,0,
1,1773254430160,1809,-22713,14199,1865582,1707979,585208,0,0,0,242,324,247,292,219,322,375,353,290,250,318,143,0,
2,1773254430160,2469,9,14189,2726902,-7330,-472809,0,0,0,541,600,316,539,553,586,409,223,440,265,179,617,0,
1,1773254430176,-3000,-6336,16587,2811201,1743409,157603,0,0,0,240,324,219,303,195,301,428,425,267,300,380,107,0,
2,1773254430176,2526,-134,14845,3302337,-249233,-618195,0,0,0,548,595,270,541,561,586,361,216,436,267,180,614,0,
1,1773254430192,-5723,15826,15104,3297450,2017077,-232128,0,0,0,253,303,195,295,179,282,467,467,264,321,416,96,0,
2,1773254430192,2435,38,15659,3990171,-569326,-728151,0,0,0,548,591,250,536,558,590,323,203,432,268,182,608,0,
1,1773254430208,-3747,17209,11150,3545461,2631607,-182037,0,0,0,257,295,189,297,176,282,490,490,265,352,433,98,0,
2,1773254430208,3091,277,16846,4626693,-747699,-838107,0,0,0,549,587,253,527,550,587,300,179,425,260,171,595,0,
1,1773254430224,516,3613,13697,4246735,2294409,138055,0,0,0,266,302,191,315,176,292,495,495,278,377,437,93,0,
2,1773254430224,4168,416,19018,5367061,-769690,-1083674,0,0,0,548,576,261,522,547,581,295,162,424,242,152,558,0,
1,1773254430240,2359,-2837,19057,4251622,847880,464257,0,0,0,259,319,197,315,198,299,508,508,269,414,457,91,0,
2,1773254430240,4938,416,22459,6370102,-781907,-1429424,0,0,0,514,557,246,512,534,572,298,158,416,222,142,496,0,
1,1773254430256,301,-631,18741,3401297,-54977,780685,0,0,0,252,335,226,314,212,310,528,528,278,427,469,104,0,
2,1773254430256,5503,153,25546,7239974,-664621,-1679879,0,0,0,455,536,214,494,505,541,299,156,394,218,138,433,0,
1,1773254430272,-3646,1971,15027,2397035,-246789,829554,0,0,0,263,350,250,330,231,336,538,538,299,429,478,119,0,
2,1773254430272,6178,153,26934,7913148,-57421,-1897347,0,0,0,394,516,191,467,481,500,309,174,356,196,126,387,0,
1,1773254430288,-4910,689,12021,1484402,-128281,267558,0,0,0,279,355,268,346,246,355,544,543,301,440,491,148,0,
2,1773254430288,6623,765,26637,8407949,987158,-2201558,0,0,0,354,483,196,412,437,447,330,227,310,167,114,342,0,
1,1773254430304,-3216,-134,10691,846659,-30543,-127059,0,0,0,292,353,290,352,242,364,555,552,305,454,506,188,0,
2,1773254430304,6001,1483,25355,8553335,2207666,-2653598,0,0,0,279,449,214,369,397,407,350,287,294,110,96,212,0,
1,1773254430320,-2163,425,10294,411723,-2443,-124616,0,0,0,312,358,304,356,237,378,568,560,327,461,514,208,0,
2,1773254430320,3646,5273,19894,8030434,1997529,-3170390,0,0,0,297,454,228,371,398,411,359,310,292,117,104,207,0,
1,1773254430336,-2407,933,10179,228463,7330,-46425,0,0,0,322,370,298,357,238,376,576,566,327,471,521,218,0,
2,1773254430336,952,10452,13539,6696304,-173485,-3255911,0,0,0,297,459,231,372,399,412,362,316,292,114,104,206,0,
1,1773254430352,-2613,1124,10155,158824,2443,-19547,0,0,0,321,372,299,361,242,394,576,568,336,490,527,262,0,
2,1773254430352,1837,15558,10246,3208264,-2476447,-1915673,0,0,0,289,458,227,374,401,409,362,314,285,113,102,205,0,
1,1773254430368,-2555,1292,10059,128281,-4886,-4886,0,0,0,327,370,292,363,248,376,578,563,304,481,523,250,0,
2,1773254430368,6245,16199,8643,-1887573,-2935818,144164,0,0,0,286,459,227,377,405,412,366,316,287,115,104,207,0,
1,1773254430384,-2440,1521,9954,157603,-9773,23212,0,0,0,331,383,291,365,250,374,579,557,309,475,520,252,0,
2,1773254430384,8049,9370,8700,-4946786,-1566258,1291369,0,0,0,285,461,229,378,405,412,369,318,285,114,106,206,0,
1,1773254430400,-2335,1593,9954,252898,-41538,57421,0,0,0,332,386,307,375,288,391,571,547,320,460,505,271,0,
2,1773254430400,6020,3445,7331,-4847826,-901637,1138652,0,0,0,281,460,228,379,406,412,372,321,286,113,105,204,0,
1,1773254430416,-2311,1502,9930,329867,-101403,72082,0,0,0,342,395,303,388,302,394,569,534,323,454,506,293,0,
2,1773254430416,5111,2254,5714,-4321260,-960280,734260,0,0,0,281,461,229,377,404,410,373,324,286,115,106,203,0,
1,1773254430432,-2388,1320,9777,351858,-147829,70860,0,0,0,349,386,311,395,277,399,561,515,326,440,495,296,0,
2,1773254430432,5321,3799,5575,-4557054,-875980,463035,0,0,0,282,462,232,377,403,410,372,324,283,117,107,203,0,
1,1773254430448,-2455,1153,9581,327423,-155159,70860,0,0,0,355,381,294,404,265,393,564,505,328,439,468,296,0,
2,1773254430448,4934,4532,6748,-5213123,-467922,397062,0,0,0,282,461,233,379,405,412,373,327,283,116,107,202,0,
1,1773254430464,-2479,1072,9475,274889,-134390,78190,0,0,0,352,381,284,404,263,391,565,499,332,440,454,300,0,
2,1773254430464,4063,3723,8107,-5676159,-90408,558330,0,0,0,283,463,234,378,405,410,367,327,284,112,107,199,0,
1,1773254430480,-2493,1076,9495,224798,-112399,85521,0,0,0,347,382,285,404,267,406,556,501,346,433,449,304,0,
2,1773254430480,4039,2613,8767,-5792224,147829,860098,0,0,0,282,465,234,379,405,410,359,326,282,109,104,195,0,
1,1773254430496,-2517,1115,9562,199142,-96516,91629,0,0,0,343,385,287,401,273,409,557,499,346,418,442,308,0,
2,1773254430496,4312,1770,9456,-5819102,452040,1127657,0,0,0,286,462,233,384,408,414,372,330,283,112,104,196,0,
1,1773254430512,-2512,1115,9518,190589,-78190,100181,0,0,0,340,386,288,389,274,393,569,485,332,405,436,313,0,
2,1773254430512,4335,1282,10547,-5820323,799011,1325577,0,0,0,287,462,233,381,405,410,375,330,282,115,104,197,0,
1,1773254430528,-2464,1134,9475,197920,-67195,107512,0,0,0,339,390,296,389,282,403,562,468,342,410,438,316,0,
2,1773254430528,4048,1249,11969,-5861862,1043357,1437976,0,0,0,287,463,234,381,404,411,374,330,282,115,105,197,0,
1,1773254430544,-2445,1172,9547,228463,-67195,111177,0,0,0,335,389,312,392,292,419,554,446,342,408,429,334,0,
2,1773254430544,4134,1167,13294,-5946162,1199739,1473406,0,0,0,284,460,230,387,410,415,374,330,282,115,105,197,0,
1,1773254430560,-2479,1148,9633,271224,-58643,111177,0,0,0,342,402,315,387,282,419,514,406,373,394,415,349,0,
2,1773254430560,4431,875,14611,-5982814,1369559,1347568,0,0,0,284,461,232,386,408,414,378,335,286,115,106,197,0,
1,1773254430576,-2498,1086,9652,312763,-40317,108734,0,0,0,336,401,313,395,293,431,565,427,371,390,400,379,0,
2,1773254430576,4106,880,16286,-5942497,1512502,1121548,0,0,0,284,464,231,383,405,412,377,335,286,112,103,194,0,
1,1773254430592,-2474,1062,9696,368962,-32986,109955,0,0,0,350,400,307,409,312,435,559,407,352,382,374,407,0,
2,1773254430592,3575,1258,18066,-5899736,1510058,893084,0,0,0,288,465,235,384,405,413,375,333,283,114,105,196,0,
1,1773254430608,-2464,985,9801,452040,-57421,123394,0,0,0,358,399,295,418,325,443,556,379,363,375,343,428,0,
2,1773254430608,3555,1373,20373,-5922949,1486845,697608,0,0,0,288,466,235,378,414,410,378,333,284,114,107,197,0,
1,1773254430624,-2493,856,9901,530231,-94073,149051,0,0,0,361,407,306,415,341,459,553,370,368,354,328,441,0,
2,1773254430624,3579,674,22756,-5960823,1524719,648738,0,0,0,287,464,234,383,412,412,379,333,285,114,105,197,0,
1,1773254430640,-2574,760,9906,590095,-120951,178372,0,0,0,365,420,316,412,347,478,555,347,382,348,305,462,0,
2,1773254430640,3211,-2258,25278,-5958379,1621236,831998,0,0,0,289,462,235,390,407,414,379,330,283,115,103,197,0,
1,1773254430656,-2718,727,9897,658512,-128281,216246,0,0,0,387,441,308,430,368,493,543,318,386,349,287,478,0,
2,1773254430656,2526,-7910,27427,-5858197,1776396,1062905,0,0,0,292,464,235,390,406,413,381,327,283,116,103,197,0,
1,1773254430672,-2790,579,9940,736703,-123394,273667,0,0,0,396,459,304,434,380,499,536,289,392,338,268,506,0,
2,1773254430672,1641,-16755,27714,-5549099,1866804,1095892,0,0,0,294,465,235,391,406,412,385,324,286,119,105,196,0,
1,1773254430688,-2809,469,10064,822224,-120951,322536,0,0,0,398,470,307,441,377,508,527,269,417,324,250,542,0,
2,1773254430688,1005,-26905,23953,-4758640,1721418,652404,0,0,0,292,462,231,393,408,414,388,323,288,121,107,196,0,
1,1773254430704,-2938,392,10413,949284,-114842,367740,0,0,0,404,487,298,455,387,522,504,251,443,308,233,567,0,
2,1773254430704,-985,-34161,19248,-3539353,1638340,-37873,0,0,0,287,458,225,393,407,413,389,328,288,120,106,197,0,
1,1773254430720,-3268,253,10973,1117883,-117286,432492,0,0,0,416,518,288,474,407,530,482,241,447,299,220,572,0,
2,1773254430720,-5556,-38205,16238,-1836260,1354899,-768468,0,0,0,280,454,215,390,407,411,392,347,289,125,119,198,0,
1,1773254430736,-3340,105,11653,1352455,-179594,538783,0,0,0,432,549,281,502,416,536,472,243,451,302,212,572,0,
2,1773254430736,-10935,-39664,16874,-43982,570548,-1087340,0,0,0,272,449,205,388,406,403,406,418,289,137,158,187,0,
1,1773254430752,-2703,0,12486,1692096,-216246,612086,0,0,0,426,569,252,499,448,547,443,209,464,282,199,582,0,
2,1773254430752,-13596,-33998,20976,2057394,-1420872,-530231,0,0,0,271,449,201,384,400,403,481,490,278,159,208,179,0,
1,1773254430768,-2416,-38,13242,2189341,-64751,565661,0,0,0,453,575,251,510,464,553,395,206,468,275,191,576,0,
2,1773254430768,-3029,-5661,18626,3815464,-3660304,296880,0,0,0,273,423,185,373,378,396,497,497,278,200,270,172,0,
1,1773254430784,-2948,-52,13845,2800206,98960,527787,0,0,0,441,581,248,510,485,588,300,200,491,241,183,590,0,
2,1773254430784,5049,19372,13816,4108679,-3990171,673173,0,0,0,274,415,186,376,368,408,513,513,289,221,306,172,0,
1,1773254430800,-3747,4,14481,3363424,157603,623082,0,0,0,448,561,253,489,476,556,261,184,484,218,158,586,0,
2,1773254430800,2053,13740,12270,4072027,-2735454,662177,0,0,0,278,423,187,384,370,413,525,525,294,259,349,167,0,
1,1773254430816,-4690,19,15525,4012162,223576,823446,0,0,0,450,554,226,473,492,545,235,179,460,199,141,569,0,
2,1773254430816,-3876,-737,16458,4679227,-1424537,538783,0,0,0,284,434,205,390,377,421,540,540,297,293,383,175,0,
1,1773254430832,-6087,-114,17200,4718323,332310,1147204,0,0,0,442,498,256,442,432,544,220,160,463,172,117,539,0,
2,1773254430832,-4335,-3101,19372,4293160,-406836,226020,0,0,0,285,451,229,407,386,442,548,548,304,285,362,209,0,
1,1773254430848,-7810,-583,19899,5497787,452040,1573588,0,0,0,442,454,243,420,399,520,214,145,447,154,98,481,0,
2,1773254430848,-1115,588,16367,3084869,62308,-86742,0,0,0,298,472,259,421,399,461,559,559,319,285,346,251,0,
1,1773254430864,-9562,-1134,23144,6267477,583987,2074498,0,0,0,403,438,223,402,375,480,207,144,402,140,97,407,0,
2,1773254430864,2172,1713,12313,1874134,101403,-109955,0,0,0,325,487,287,428,408,472,574,574,335,277,317,302,0,
1,1773254430880,-9662,-579,25546,6814812,802676,2536312,0,0,0,346,419,220,370,336,431,219,163,354,141,112,343,0,
2,1773254430880,2526,-181,10543,1126435,-153938,145385,0,0,0,353,499,304,433,415,477,587,588,338,261,292,344,0,
1,1773254430896,-8518,1158,26934,7219205,1167974,2833192,0,0,0,295,384,227,331,293,386,252,202,318,149,148,268,0,
2,1773254430896,976,-722,10753,571769,-382401,191811,0,0,0,375,512,316,439,424,482,595,596,339,261,293,362,0,
1,1773254430912,-8088,3225,25704,7737219,1463633,2932153,0,0,0,266,340,236,295,245,341,293,250,299,155,207,183,0,
2,1773254430912,344,81,11079,213802,-437379,101403,0,0,0,392,519,327,444,429,488,601,600,349,262,280,373,0,
1,1773254430928,-9361,5053,22000,8236906,1417207,3033556,0,0,0,273,303,232,267,195,294,329,285,300,166,255,147,0,
2,1773254430928,512,832,10892,81855,-357967,29321,0,0,0,395,522,332,449,432,494,599,598,348,268,285,381,0,
1,1773254430944,-11007,8518,14864,7822740,857654,3170390,0,0,0,278,314,243,283,202,319,330,280,323,177,257,158,0,
2,1773254430944,612,990,10528,34208,-234572,15882,0,0,0,401,522,337,449,432,493,598,597,347,268,285,382,0,
1,1773254430960,-8432,14577,10983,4812396,168598,2747671,0,0,0,280,323,256,287,202,326,330,280,333,171,248,160,0,
2,1773254430960,636,1100,10366,29321,-151494,4886,0,0,0,404,522,339,448,430,495,596,596,345,268,285,388,0,
1,1773254430976,-3598,18760,11462,-6108,357967,1188743,0,0,0,280,321,245,291,204,325,344,286,324,178,252,159,0,
2,1773254430976,603,1249,10323,80634,-96516,-12217,0,0,0,411,526,334,454,436,495,598,599,350,271,287,393,0,
1,1773254430992,-3694,13874,10509,-3514918,1486845,-759916,0,0,0,283,322,253,290,204,321,337,283,317,178,255,155,0,
2,1773254430992,555,1316,10284,161268,-31764,-25656,0,0,0,414,524,335,451,440,494,602,601,351,266,273,391,0,
1,1773254431008,-7097,7609,6503,-4173431,1571145,-1406211,0,0,0,281,323,244,291,211,327,342,285,321,181,257,162,0,
2,1773254431008,574,1229,10189,239459,32986,-28099,0,0,0,419,526,335,450,439,497,594,593,351,255,264,395,0,
1,1773254431024,-7977,5111,3589,-3679852,497244,-1032362,0,0,0,279,322,241,294,212,328,347,292,324,179,256,162,0,
2,1773254431024,670,1110,10054,267558,58643,-21991,0,0,0,420,531,335,448,444,497,598,593,347,257,264,399,0,
1,1773254431040,-5173,6202,4264,-3914424,-259006,-737925,0,0,0,276,321,241,296,210,328,347,290,322,183,260,159,0,
2,1773254431040,746,1038,9968,270002,54977,-19547,0,0,0,423,532,334,451,446,498,595,583,343,266,261,396,0,
1,1773254431056,-3780,6872,6255,-4901582,-10995,-962723,0,0,0,275,320,240,296,211,328,350,292,321,211,251,168,0,
2,1773254431056,784,1014,9920,262672,30543,-21991,0,0,0,425,533,332,448,444,496,588,582,348,270,258,402,0,
1,1773254431072,-4493,5752,7284,-5499008,-31764,-1138652,0,0,0,276,323,241,296,210,327,350,292,317,204,249,160,0,
2,1773254431072,823,1000,9873,262672,3665,-26878,0,0,0,428,538,334,449,443,497,585,579,351,268,252,406,0,
1,1773254431088,-4623,4503,8159,-5748241,-406836,-1170417,0,0,0,276,328,241,296,214,325,351,295,313,187,257,150,0,
2,1773254431088,808,981,9868,273667,-20769,-35430,0,0,0,430,539,337,449,441,497,589,574,353,257,241,417,0,
1,1773254431104,-4091,3704,9633,-5915618,-844215,-1161865,0,0,0,276,332,241,296,222,325,355,299,312,186,263,150,0,
2,1773254431104,789,957,9920,287106,-37873,-46425,0,0,0,432,540,338,451,443,500,593,571,356,248,232,429,0,
1,1773254431120,-3508,3350,11710,-6195395,-1180191,-1167974,0,0,0,272,333,244,296,223,328,355,296,312,187,264,153,0,
2,1773254431120,770,923,9954,302989,-47647,-63529,0,0,0,439,542,338,459,448,506,591,560,358,245,223,434,0,
1,1773254431136,-2991,3110,13811,-6544810,-1321912,-1187522,0,0,0,262,331,245,292,216,330,348,290,311,185,262,156,0,
2,1773254431136,780,890,9916,320093,-56199,-73303,0,0,0,447,542,340,464,453,511,589,544,358,246,213,441,0,
1,1773254431152,-3053,2211,15764,-6750060,-1379333,-1159422,0,0,0,259,331,245,293,218,333,349,289,317,187,261,156,0,
2,1773254431152,784,861,9887,351858,-70860,-78190,0,0,0,453,545,346,470,462,518,594,536,366,281,227,445,0,
1,1773254431168,-3292,1172,17626,-6692639,-1506393,-1003040,0,0,0,260,332,248,291,215,334,358,295,331,188,261,158,0,
2,1773254431168,775,842,9940,401949,-86742,-75747,0,0,0,461,553,345,483,471,533,593,532,379,389,296,446,0,
1,1773254431184,-3268,311,19760,-6493497,-1640784,-764803,0,0,0,262,331,250,294,213,338,358,295,335,186,261,158,0,
2,1773254431184,780,823,10045,458148,-95294,-72082,0,0,0,470,556,345,478,474,528,589,502,375,247,193,491,0,
1,1773254431200,-3522,-569,22373,-6235712,-1661553,-725707,0,0,0,258,327,248,294,214,338,348,288,332,188,262,160,0,
2,1773254431200,760,746,10141,533896,-91629,-76969,0,0,0,486,559,347,482,483,536,593,485,380,249,185,507,0,
1,1773254431216,-4364,-1225,24651,-5960823,-1738522,-1072679,0,0,0,261,328,251,290,212,338,354,292,340,188,258,162,0,
2,1773254431216,756,626,10193,610865,-70860,-91629,0,0,0,496,562,366,493,493,546,590,460,388,249,172,530,0,
1,1773254431232,-5283,-2416,27202,-5714033,-2001194,-1886351,0,0,0,261,330,252,291,212,339,356,290,342,188,258,165,0,
2,1773254431232,784,531,10289,701273,-36651,-111177,0,0,0,509,576,357,505,503,555,586,416,397,257,180,546,0,
1,1773254431248,-6269,-5460,29097,-5615073,-2161241,-2685363,0,0,0,260,331,246,295,216,331,360,290,315,189,255,153,0,
2,1773254431248,875,440,10437,792903,1221,-134390,0,0,0,519,581,353,506,511,552,569,382,413,280,188,562,0,
1,1773254431264,-8212,-11060,28901,-5624847,-2089159,-2893057,0,0,0,260,333,243,295,215,331,360,286,310,191,251,151,0,
2,1773254431264,1000,320,10638,890641,52534,-166155,0,0,0,528,588,357,515,517,557,560,339,429,267,172,576,0,
1,1773254431280,-9160,-20464,25441,-5365840,-2190562,-2007303,0,0,0,258,336,247,296,220,338,358,286,322,193,253,157,0,
2,1773254431280,1119,239,10935,999375,101403,-200363,0,0,0,539,597,351,521,524,560,540,297,431,260,167,584,0,
1,1773254431296,-3072,-29375,20626,-4459316,-2634050,-543670,0,0,0,257,338,249,296,225,343,357,286,331,193,257,161,0,
2,1773254431296,1354,138,11495,1189965,135612,-248011,0,0,0,544,598,349,525,531,567,511,268,425,267,171,596,0,
1,1773254431312,7202,-33878,17051,-2930931,-2206445,230907,0,0,0,256,339,246,296,227,342,357,286,331,193,257,159,0,
2,1773254431312,1555,52,12457,1539380,116064,-332310,0,0,0,548,600,336,533,540,574,480,251,425,265,168,609,0,
1,1773254431328,11194,-37291,14524,-1455080,-960280,474031,0,0,0,253,335,238,296,227,331,363,294,318,205,272,154,0,
2,1773254431328,1359,47,13630,2061059,-51312,-400727,0,0,0,555,606,316,537,547,580,437,237,436,260,168,617,0,
1,1773254431344,8925,-37697,13486,39095,441044,654847,0,0,0,242,322,222,293,217,312,382,327,296,235,323,145,0,
2,1773254431344,1402,-81,14300,2612059,-273667,-406836,0,0,0,562,608,290,535,555,583,386,227,443,263,174,617,0,
1,1773254431360,5173,-28183,16472,1820378,1546710,719599,0,0,0,231,302,208,281,198,298,424,407,288,266,395,126,0,
2,1773254431360,1665,-177,14989,3301115,-425162,-464257,0,0,0,568,603,259,536,571,584,340,232,432,264,176,612,0,
1,1773254431376,-1253,-6748,16740,3707952,2718350,460592,0,0,0,244,284,177,285,185,269,467,460,271,308,412,93,0,
2,1773254431376,1876,-138,15769,3916867,-441044,-579100,0,0,0,573,600,261,525,578,584,306,228,417,258,173,607,0,
1,1773254431392,-5135,11672,13323,4491081,3155729,156381,0,0,0,249,281,161,293,185,268,475,475,267,343,425,89,0,
2,1773254431392,2689,-124,17329,4619362,-426383,-751364,0,0,0,574,598,260,509,558,578,296,185,424,252,168,587,0,
1,1773254431408,-2646,9112,13797,4809952,2715906,83077,0,0,0,259,280,157,305,178,282,492,492,279,391,447,88,0,
2,1773254431408,3895,95,19870,5466022,-447153,-1004262,0,0,0,566,586,268,504,552,574,294,168,412,225,151,553,0,
1,1773254431424,2196,-1593,19392,4969999,1396437,172263,0,0,0,260,290,178,311,183,295,513,512,290,427,469,92,0,
2,1773254431424,5245,-272,23230,6404311,-480140,-1312138,0,0,0,536,565,261,500,528,566,290,154,401,217,141,491,0,
1,1773254431440,1574,-2129,21129,4017049,405614,478918,0,0,0,260,301,196,327,205,322,537,538,289,456,489,105,0,
2,1773254431440,6704,-1971,26905,7384139,-133168,-1672549,0,0,0,453,541,218,483,503,520,304,166,369,209,131,426,0,
1,1773254431456,-2416,258,17329,2708576,162490,572991,0,0,0,272,317,221,343,227,345,551,552,291,470,507,159,0,
2,1773254431456,7059,-2311,29896,8257676,552222,-2076941,0,0,0,388,512,193,448,474,471,314,196,330,191,124,378,0,
1,1773254431472,-3881,162,12892,1578475,178372,131946,0,0,0,294,344,256,347,262,370,560,560,315,469,519,231,0,
2,1773254431472,6341,918,30519,8885645,1281595,-2537534,0,0,0,323,468,202,399,424,423,337,259,292,143,109,280,0,
1,1773254431488,-2526,-378,10658,756251,183259,-178372,0,0,0,309,356,276,344,266,403,566,566,344,470,526,286,0,
2,1773254431488,6006,5695,27834,8957727,1425759,-2961474,0,0,0,292,454,221,375,406,410,357,305,287,117,105,224,0,
1,1773254431504,-1450,33,10495,279776,175929,-134390,0,0,0,318,352,286,351,248,415,575,574,351,474,537,301,0,
2,1773254431504,6427,10480,19315,8063421,368962,-3349984,0,0,0,287,457,232,369,404,410,360,321,288,115,110,214,0,
1,1773254431520,-1775,818,10667,105068,156381,-34208,0,0,0,326,351,293,362,244,408,584,584,344,477,547,296,0,
2,1773254431520,6298,13137,11998,5788559,-1552819,-3180164,0,0,0,288,460,232,371,406,408,359,322,281,116,111,211,0,
1,1773254431536,-1962,1215,10366,53756,73303,-14660,0,0,0,331,357,290,363,247,405,589,589,346,483,547,298,0,
2,1773254431536,6465,17133,8571,1540602,-2399478,-1864360,0,0,0,290,459,228,373,408,405,361,322,275,116,110,209,0,
1,1773254431552,-1976,1354,10069,97738,-6108,-13439,0,0,0,335,358,294,361,248,397,592,591,341,485,548,305,0,
2,1773254431552,6317,16305,9294,-3189938,-1892460,112399,0,0,0,290,458,227,372,409,404,363,324,274,116,110,208,0,
1,1773254431568,-1957,1464,10112,190589,-43982,15882,0,0,0,336,361,316,370,257,412,576,574,339,494,540,328,0,
2,1773254431568,6240,8509,8269,-5264436,-1418429,1271821,0,0,0,285,460,228,372,411,405,366,329,276,117,111,208,0,
1,1773254431584,-1856,1454,10265,313984,-79412,62308,0,0,0,345,365,288,374,265,408,559,557,343,482,527,344,0,
2,1773254431584,6920,3058,4876,-4998099,-1092227,1197295,0,0,0,282,463,232,374,412,407,369,332,278,117,112,208,0,
1,1773254431600,-1818,1335,10126,408057,-163711,81855,0,0,0,352,377,289,390,266,414,572,541,343,469,517,363,0,
2,1773254431600,6216,3105,3795,-4491081,-441044,596204,0,0,0,282,462,231,376,413,409,370,335,279,117,111,207,0,
1,1773254431616,-1895,1191,9873,443488,-230907,83077,0,0,0,343,381,282,372,265,417,565,524,339,455,498,375,0,
2,1773254431616,4273,4589,5259,-4757418,85521,299323,0,0,0,280,462,230,376,411,408,368,335,277,116,111,206,0,
1,1773254431632,-1943,1062,9054,388510,-219911,81855,0,0,0,336,382,277,372,266,419,571,515,346,448,489,383,0,
2,1773254431632,3206,4852,7145,-5424483,252898,444709,0,0,0,279,461,228,376,412,410,367,335,277,115,111,203,0,
1,1773254431648,-1919,990,7949,280998,-158824,84299,0,0,0,336,387,276,377,271,424,563,521,356,420,476,384,0,
2,1773254431648,3316,3871,8226,-5845980,488692,690277,0,0,0,281,461,235,375,412,410,367,335,280,115,113,211,0,
1,1773254431664,-1952,1000,8413,240680,-139277,84299,0,0,0,339,385,294,388,273,430,556,518,358,415,468,387,0,
2,1773254431664,3670,2680,8992,-5930279,902858,910189,0,0,0,278,462,234,376,411,407,364,335,276,117,112,201,0,
1,1773254431680,-2077,1019,9461,265115,-146607,81855,0,0,0,348,387,285,395,273,428,555,501,356,405,457,387,0,
2,1773254431680,3388,2163,10198,-5922949,1274264,1106887,0,0,0,280,465,233,375,411,406,365,335,273,117,112,201,0,
1,1773254431696,-2115,976,9691,249233,-106290,86742,0,0,0,348,387,275,396,274,426,555,495,361,402,448,390,0,
2,1773254431696,3000,2086,11706,-5979148,1491732,1285260,0,0,0,272,470,228,374,407,404,362,329,274,156,179,196,0,
1,1773254431712,-2000,928,9495,196698,-58643,89186,0,0,0,348,384,275,412,274,422,554,490,363,405,444,398,0,
2,1773254431712,2866,2206,13213,-6124534,1584584,1358564,0,0,0,270,472,228,378,409,407,361,325,272,167,194,195,0,
1,1773254431728,-1923,928,9490,141720,-26878,83077,0,0,0,352,392,277,418,279,419,559,476,358,403,444,415,0,
2,1773254431728,2823,1976,15017,-6280916,1740965,1280373,0,0,0,270,473,228,376,408,406,362,326,274,169,197,194,0,
1,1773254431744,-1947,971,9633,130725,-20769,75747,0,0,0,344,398,284,391,290,428,571,466,356,393,440,431,0,
2,1773254431744,2641,1670,16917,-6323676,1892460,1109331,0,0,0,272,471,229,375,408,406,364,327,276,172,200,195,0,
1,1773254431760,-1909,971,9724,168598,-32986,78190,0,0,0,338,377,288,391,291,437,575,453,359,383,426,431,0,
2,1773254431760,2412,1641,19253,-6295577,1976759,907745,0,0,0,273,470,229,376,408,407,366,327,276,173,200,196,0,
1,1773254431776,-1837,904,9777,224798,-76969,89186,0,0,0,343,383,282,411,288,445,575,438,368,382,414,443,0,
2,1773254431776,2254,1804,22675,-6313903,2018298,824668,0,0,0,274,472,230,379,409,409,367,326,276,173,199,194,0,
1,1773254431792,-1885,837,9791,285884,-138055,106290,0,0,0,366,390,296,431,281,467,563,435,399,377,396,486,0,
2,1773254431792,1871,1167,26618,-6423858,2039068,1004262,0,0,0,274,473,231,381,410,411,370,324,277,174,199,191,0,
1,1773254431808,-2043,818,9796,360410,-174707,133168,0,0,0,362,395,286,428,318,490,508,386,415,376,352,515,0,
2,1773254431808,1435,-2431,30255,-6555805,1960877,1469741,0,0,0,274,472,229,384,409,411,371,318,278,179,197,190,0,
1,1773254431824,-2182,842,9858,455705,-178372,174707,0,0,0,374,396,304,423,301,484,565,388,403,352,327,525,0,
2,1773254431824,1325,-9782,32553,-6570466,1839926,1912008,0,0,0,277,473,229,386,408,413,375,314,281,183,195,190,0,
1,1773254431840,-2234,808,9987,565661,-172263,216246,0,0,0,376,414,301,427,336,487,568,357,439,334,321,539,0,
2,1773254431840,2780,-21095,30198,-6106208,1450194,1786169,0,0,0,279,472,229,388,408,414,380,318,282,177,186,191,0,
1,1773254431856,-2335,708,10174,687834,-168598,251676,0,0,0,392,437,288,459,356,512,555,320,431,317,277,566,0,
2,1773254431856,4637,-31351,23895,-5028642,1120326,1012814,0,0,0,283,468,230,396,411,418,385,324,286,159,160,195,0,
1,1773254431872,-2560,574,10495,839328,-167377,284663,0,0,0,419,449,298,478,356,516,544,276,449,313,248,575,0,
2,1773254431872,2440,-38042,16544,-3208264,1467298,-460592,0,0,0,289,467,232,398,409,419,389,328,288,152,147,197,0,
1,1773254431888,-2703,454,10787,988379,-175929,333532,0,0,0,428,474,307,492,374,522,529,251,452,309,222,579,0,
2,1773254431888,-7039,-39009,15348,-1512502,1740965,-1569923,0,0,0,283,467,231,397,412,420,384,325,285,152,152,197,0,
1,1773254431904,-2560,263,11160,1181413,-189368,394618,0,0,0,432,488,307,495,406,542,504,236,444,296,204,583,0,
2,1773254431904,-14467,-37740,16453,3665,842994,-1759291,0,0,0,276,458,226,393,416,416,392,359,285,127,129,198,0,
1,1773254431920,-2450,43,11883,1440420,-210137,437379,0,0,0,441,499,298,487,433,560,476,221,449,280,196,587,0,
2,1773254431920,-12093,-31706,18123,1534493,-1033583,-1000597,0,0,0,276,460,228,388,409,411,421,450,276,148,183,189,0,
1,1773254431936,-2593,-129,12778,1815491,-266337,487470,0,0,0,442,513,285,501,440,576,438,208,461,268,186,594,0,
2,1773254431936,-1789,-6575,18769,3211929,-2441017,-193033,0,0,0,266,443,193,378,394,394,453,476,264,186,233,180,0,
1,1773254431952,-2876,-138,13443,2340835,-255341,592539,0,0,0,437,507,252,538,448,591,381,191,461,265,173,598,0,
2,1773254431952,6164,21249,13414,3857003,-2838079,280998,0,0,0,266,428,185,371,387,397,483,489,275,200,280,179,0,
1,1773254431968,-2962,-52,13969,2860071,-128281,696386,0,0,0,444,499,199,541,488,572,351,196,464,271,171,597,0,
2,1773254431968,3847,14955,10184,4080579,-2495995,365297,0,0,0,270,434,192,381,387,410,512,513,291,203,301,181,0,
1,1773254431984,-3359,-33,14654,3415958,56199,795346,0,0,0,440,508,223,517,451,567,351,240,479,225,143,600,0,
2,1773254431984,-1258,-526,15242,4693888,-1913229,206472,0,0,0,279,450,225,394,391,425,532,533,302,213,321,186,0,
1,1773254432000,-4714,-363,15635,4041484,163711,1001818,0,0,0,446,482,237,482,418,555,274,147,488,200,119,577,0,
2,1773254432000,-2301,-4929,22431,4162435,-1155757,-65973,0,0,0,296,468,269,405,395,436,544,544,310,228,332,206,0,
1,1773254432016,-5896,-751,17420,4692666,167377,1334129,0,0,0,479,445,231,476,407,568,244,144,504,176,98,539,0,
2,1773254432016,153,-564,20282,2455678,-483805,-169820,0,0,0,320,484,301,413,399,444,555,555,318,237,324,243,0,
1,1773254432032,-6738,-1335,20382,5367061,224798,1670105,0,0,0,421,443,276,450,398,536,231,155,476,156,105,479,0,
2,1773254432032,1445,2053,14390,1236391,-58643,-97738,0,0,0,348,498,318,420,409,454,566,565,321,243,323,281,0,
1,1773254432048,-8576,-1708,22995,6030461,419053,1998751,0,0,0,399,430,275,398,384,496,215,148,428,140,104,397,0,
2,1773254432048,1550,1440,10514,869872,62308,3665,0,0,0,371,509,328,431,418,462,574,573,323,261,347,306,0,
1,1773254432064,-10504,-1751,25355,6648657,580321,2447126,0,0,0,341,406,222,374,349,452,213,185,366,133,116,343,0,
2,1773254432064,1885,555,9562,594982,-26878,61086,0,0,0,387,511,341,439,425,469,580,580,326,275,375,321,0,
1,1773254432080,-9566,-1076,26915,7164227,415388,2912605,0,0,0,293,391,220,340,302,394,244,205,324,137,137,269,0,
2,1773254432080,1966,612,10366,310319,-215024,97738,0,0,0,392,515,347,442,431,471,584,584,330,255,312,333,0,
1,1773254432096,-7714,-19,27724,7762875,408057,3114190,0,0,0,267,344,224,299,245,330,292,241,297,151,201,176,0,
2,1773254432096,1517,1129,10480,122173,-259006,101403,0,0,0,399,518,352,442,424,477,588,588,335,261,313,340,0,
1,1773254432112,-8925,5226,22512,8047538,747699,2915048,0,0,0,268,313,228,286,207,305,325,260,288,166,247,136,0,
2,1773254432112,1206,1579,10275,58643,-182037,76969,0,0,0,405,520,351,444,427,477,593,593,336,267,317,342,0,
1,1773254432128,-9294,10997,14304,7413460,1006705,2603507,0,0,0,274,310,231,291,199,309,336,257,288,174,252,136,0,
2,1773254432128,1378,1799,10184,122173,-70860,36651,0,0,0,418,525,358,450,429,483,599,599,344,259,303,354,0,
1,1773254432144,-7202,13807,10969,4961447,1094670,1672549,0,0,0,269,316,230,291,205,311,337,255,286,173,249,134,0,
2,1773254432144,1526,1780,10232,212581,-50090,6108,0,0,0,421,526,359,450,438,490,597,597,342,253,286,363,0,
1,1773254432160,-4891,15683,10528,1098335,1187522,20769,0,0,0,264,322,230,290,212,312,335,258,283,171,249,134,0,
2,1773254432160,1435,1737,10203,279776,-35430,-14660,0,0,0,424,528,358,453,439,492,599,597,339,245,266,366,0,
1,1773254432176,-4259,13644,9739,-2503325,1441641,-1605353,0,0,0,266,324,230,292,213,312,336,258,282,170,248,129,0,
2,1773254432176,1335,1727,10122,334754,7330,-35430,0,0,0,429,529,359,457,440,498,599,592,338,244,251,377,0,
1,1773254432192,-5762,8485,6211,-3466049,1484402,-1773952,0,0,0,265,325,230,292,213,312,340,263,287,176,257,134,0,
2,1773254432192,1354,1651,9968,386066,68416,-56199,0,0,0,430,531,358,456,437,497,602,587,345,242,241,388,0,
1,1773254432208,-6293,5283,3555,-3450166,1111774,-1166752,0,0,0,253,326,233,291,218,319,339,265,290,176,265,139,0,
2,1773254432208,1426,1536,9839,417831,105068,-76969,0,0,0,433,531,357,461,441,500,599,570,345,241,231,396,0,
1,1773254432224,-4948,5245,3594,-3556457,726929,-507018,0,0,0,247,329,253,284,218,314,337,265,285,175,268,133,0,
2,1773254432224,1541,1445,9782,427605,105068,-96516,0,0,0,438,533,358,463,443,502,596,547,347,238,220,404,0,
1,1773254432240,-3953,5929,4972,-4268726,750142,-291993,0,0,0,247,323,241,286,217,316,339,263,284,176,267,133,0,
2,1773254432240,1655,1392,9767,428827,70860,-112399,0,0,0,445,536,359,463,445,502,595,537,358,238,210,411,0,
1,1773254432256,-4493,5608,5915,-4924795,725707,-306654,0,0,0,247,323,266,281,213,335,334,266,310,176,269,152,0,
2,1773254432256,1746,1335,9767,426383,-9773,-123394,0,0,0,451,536,358,464,447,504,590,530,367,237,201,418,0,
1,1773254432272,-4919,4737,6824,-5313305,339641,-442266,0,0,0,248,324,262,281,213,334,332,263,318,173,267,153,0,
2,1773254432272,1722,1277,9767,426383,-98960,-131946,0,0,0,454,537,355,466,447,507,588,515,372,235,194,426,0,
1,1773254432288,-4690,4139,8102,-5668829,-57421,-752585,0,0,0,250,324,253,283,217,330,335,265,313,176,268,148,0,
2,1773254432288,1579,1244,9758,427605,-162490,-133168,0,0,0,465,541,358,475,455,517,590,508,380,243,189,438,0,
1,1773254432304,-4747,3551,9571,-6025574,-340862,-1226617,0,0,0,251,322,245,285,213,331,340,268,310,179,268,143,0,
2,1773254432304,1450,1220,9810,428827,-169820,-119729,0,0,0,472,541,355,483,458,520,589,497,379,252,186,446,0,
1,1773254432320,-4886,2072,11323,-6246707,-657290,-1728748,0,0,0,253,323,238,289,213,325,348,275,299,181,272,136,0,
2,1773254432320,1340,1196,9858,434936,-145385,-107512,0,0,0,477,547,362,490,461,528,592,480,376,234,171,452,0,
1,1773254432336,-2349,43,13486,-6200282,-659734,-2211332,0,0,0,254,325,243,293,218,323,351,280,294,184,276,134,0,
2,1773254432336,1459,909,9954,443488,-98960,-97738,0,0,0,479,553,360,494,474,532,587,468,374,242,174,465,0,
1,1773254432352,-5498,-823,14070,-5996253,-371406,-2664594,0,0,0,251,326,253,292,217,334,345,273,308,185,271,142,0,
2,1773254432352,1478,871,9897,452040,-83077,-90408,0,0,0,481,553,360,493,477,540,592,448,386,241,175,478,0,
1,1773254432368,-10346,-617,14869,-5999918,-1463633,-2328618,0,0,0,254,330,251,293,217,331,346,275,305,199,263,150,0,
2,1773254432368,1454,871,9916,465479,-73303,-95294,0,0,0,489,557,361,499,484,542,562,417,387,238,169,492,0,
1,1773254432384,-7595,-253,17597,-6032905,-2331061,-1649336,0,0,0,254,331,253,293,221,332,356,282,312,258,244,172,0,
2,1773254432384,1469,847,10026,502131,-51312,-109955,0,0,0,494,560,363,507,489,551,585,405,397,248,172,514,0,
1,1773254432400,-6192,-1148,19952,-5789780,-1557706,-1470963,0,0,0,254,330,252,293,221,338,353,276,312,244,246,167,0,
2,1773254432400,1574,784,10126,574213,-15882,-135612,0,0,0,506,567,360,509,498,546,586,385,396,252,166,526,0,
1,1773254432416,-7729,-2148,21789,-5591860,-1402546,-1435533,0,0,0,256,331,257,289,217,336,350,272,315,179,260,146,0,
2,1773254432416,1675,713,10222,678060,17104,-175929,0,0,0,511,571,365,513,500,549,584,357,403,256,167,539,0,
1,1773254432432,-6513,-3311,24484,-5606521,-1960877,-1558928,0,0,0,259,331,263,297,217,341,350,272,314,183,259,146,0,
2,1773254432432,1751,612,10346,807563,56199,-224798,0,0,0,520,574,361,516,504,546,570,323,418,260,167,556,0,
1,1773254432448,-4398,-6278,27178,-5662720,-2282192,-1852143,0,0,0,257,331,261,296,219,338,353,272,314,184,252,142,0,
2,1773254432448,1852,526,10576,974940,78190,-283441,0,0,0,532,581,361,519,508,555,554,296,424,260,164,574,0,
1,1773254432464,-3886,-12237,28485,-5668829,-2238210,-1979203,0,0,0,258,331,247,297,220,329,353,270,301,185,256,133,0,
2,1773254432464,1966,425,10897,1158200,53756,-329867,0,0,0,537,587,367,525,513,573,537,272,425,261,165,591,0,
1,1773254432480,-6154,-22057,26130,-5517334,-1921782,-1251052,0,0,0,259,334,251,297,222,333,353,272,307,185,263,139,0,
2,1773254432480,2124,234,11452,1401324,34208,-381179,0,0,0,541,591,360,535,528,581,512,249,432,261,167,604,0,
1,1773254432496,-5082,-31232,21138,-4919908,-1987755,240680,0,0,0,258,336,252,298,224,339,352,272,319,190,265,143,0,
2,1773254432496,2191,71,12218,1709200,50090,-445931,0,0,0,546,597,335,543,545,584,482,235,440,260,169,610,0,
1,1773254432512,4871,-36510,17004,-3434284,-2065946,1543045,0,0,0,257,337,250,299,224,341,354,272,323,190,263,145,0,
2,1773254432512,1876,81,13055,2124589,7330,-478918,0,0,0,544,599,309,541,556,594,440,227,443,263,175,620,0,
1,1773254432528,13524,-38889,14989,-1543045,-1139874,1733635,0,0,0,257,340,251,297,225,339,358,275,327,190,262,147,0,
2,1773254432528,1837,62,13807,2626720,-127059,-470366,0,0,0,557,597,291,536,570,602,400,218,453,265,177,620,0,
1,1773254432544,10983,-36611,14558,248011,388510,993266,0,0,0,253,335,245,299,226,334,373,310,316,212,300,138,0,
2,1773254432544,2402,4,14462,3197268,-311541,-483805,0,0,0,558,598,265,540,563,602,358,207,455,266,181,616,0,
1,1773254432560,3967,-28011,16075,1815491,1379333,511905,0,0,0,245,311,219,302,213,315,412,389,283,263,372,113,0,
2,1773254432560,3311,-95,15194,3811799,-390953,-649960,0,0,0,564,598,262,533,563,600,327,192,457,251,165,610,0,
1,1773254432576,-3929,-1450,18157,3100751,2063502,351858,0,0,0,245,282,179,297,182,279,464,462,261,322,413,90,0,
2,1773254432576,3862,-210,16539,4539950,-357967,-926071,0,0,0,558,585,260,534,556,599,320,180,452,239,154,592,0,
1,1773254432592,-6427,21119,12275,3391523,2812423,84299,0,0,0,260,275,164,301,170,264,487,487,260,371,429,82,0,
2,1773254432592,4379,-38,19435,5467243,-223576,-1231504,0,0,0,553,572,259,536,550,598,314,168,448,227,144,574,0,
1,1773254432608,-2995,15817,9830,4112344,2956587,-54977,0,0,0,269,278,193,307,165,288,518,518,273,440,468,93,0,
2,1773254432608,5848,-14,23364,6514266,-20769,-1543045,0,0,0,515,542,242,519,527,579,306,148,435,221,145,503,0,
1,1773254432624,1478,-1684,20799,4900360,1315803,29321,0,0,0,260,293,233,314,193,323,544,543,309,464,487,105,0,
2,1773254432624,7858,-349,27513,7495316,382401,-1890017,0,0,0,440,523,208,503,510,554,307,156,411,212,135,426,0,
1,1773254432640,880,-5350,26020,3605326,-127059,109955,0,0,0,273,307,279,343,214,355,551,551,303,476,502,121,0,
2,1773254432640,6010,1493,32060,8265006,748920,-2254092,0,0,0,384,496,188,458,464,490,323,179,364,189,120,370,0,
1,1773254432656,-2785,-387,19100,1439198,-359188,84299,0,0,0,302,323,289,363,223,358,566,566,307,466,512,166,0,
2,1773254432656,3182,4005,34553,8761029,486248,-2400700,0,0,0,313,459,196,387,427,422,344,239,312,136,101,266,0,
1,1773254432672,-3488,2072,10643,632856,-160046,-113620,0,0,0,315,328,289,370,224,367,571,571,310,473,524,209,0,
2,1773254432672,6460,5977,29691,8877093,530231,-2408030,0,0,0,289,447,214,371,409,406,355,283,293,112,96,213,0,
1,1773254432688,-2589,1301,8743,647517,-161268,-162490,0,0,0,322,334,325,369,220,379,576,577,322,476,529,223,0,
2,1773254432688,9595,10222,18013,8476366,1478293,-3006678,0,0,0,294,455,224,384,401,417,361,306,295,112,103,208,0,
1,1773254432704,-2526,373,10107,591317,-197920,-95294,0,0,0,330,342,329,367,217,383,584,575,313,474,537,239,0,
2,1773254432704,4938,13883,13251,7050606,880867,-3648087,0,0,0,293,457,225,384,400,415,364,312,289,113,105,204,0,
1,1773254432720,-3000,1110,10361,368962,-84299,-18325,0,0,0,337,358,314,373,231,392,584,566,317,469,534,258,0,
2,1773254432720,-775,19607,12467,3312111,-1412320,-2923601,0,0,0,292,454,227,381,401,410,363,310,281,114,104,204,0,
1,1773254432736,-2976,1847,9806,371406,54977,31764,0,0,0,341,365,318,379,237,398,586,553,326,458,525,286,0,
2,1773254432736,1971,19018,10533,-2577851,-3199712,-785572,0,0,0,292,454,233,382,401,415,366,313,283,117,104,213,0,
1,1773254432752,-2651,1828,9662,489913,125838,62308,0,0,0,342,364,333,379,233,403,590,531,333,448,512,318,0,
2,1773254432752,6867,10547,8509,-6554584,-3147177,596204,0,0,0,291,456,238,383,400,419,369,315,285,116,105,218,0,
1,1773254432768,-2421,1497,10040,557109,95294,75747,0,0,0,345,372,331,384,239,413,586,512,348,442,485,333,0,
2,1773254432768,7322,4307,6417,-6495940,-2086715,239459,0,0,0,289,456,240,387,403,423,373,319,288,116,104,215,0,
1,1773254432784,-2412,1497,10112,561996,13439,95294,0,0,0,351,379,328,389,240,418,584,499,353,437,453,341,0,
2,1773254432784,6412,2124,4838,-5815437,-1275486,-337197,0,0,0,291,457,243,386,402,422,373,321,286,118,106,217,0,
1,1773254432800,-2354,1474,9863,576656,-69638,113620,0,0,0,351,379,330,379,233,428,585,467,352,434,428,356,0,
2,1773254432800,5699,3182,5465,-5737246,-917519,-461814,0,0,0,289,455,243,386,401,420,372,323,285,117,107,214,0,
1,1773254432816,-2330,1325,9495,582765,-156381,118507,0,0,0,351,382,344,389,236,440,575,455,355,420,409,397,0,
2,1773254432816,5273,3852,7006,-6109874,-649960,-191811,0,0,0,289,458,245,387,402,421,371,324,283,117,107,212,0,
1,1773254432832,-2517,1177,9657,537561,-175929,112399,0,0,0,353,382,325,394,244,433,575,446,370,412,390,406,0,
2,1773254432832,5623,3268,8274,-6548475,-318871,390953,0,0,0,290,459,245,387,403,421,371,325,284,117,107,212,0,
1,1773254432848,-2699,1110,10251,464257,-117286,114842,0,0,0,352,374,339,390,244,436,582,426,375,391,369,396,0,
2,1773254432848,6489,1770,9030,-6642548,318871,952949,0,0,0,287,459,240,390,406,419,372,326,285,118,109,206,0,
1,1773254432864,-2732,1033,10059,430049,-48869,117286,0,0,0,349,372,323,401,283,435,583,400,376,385,355,410,0,
2,1773254432864,6527,564,10256,-6517932,984714,1370781,0,0,0,287,459,239,391,407,420,375,330,288,119,110,204,0,
1,1773254432880,-2656,981,9428,439822,-17104,114842,0,0,0,361,377,332,410,284,436,579,394,365,375,348,428,0,
2,1773254432880,5771,248,11926,-6328563,1318247,1588249,0,0,0,287,459,238,389,406,419,378,332,289,123,118,202,0,
1,1773254432896,-2584,985,9399,438601,12217,120951,0,0,0,362,376,325,411,296,445,581,380,372,367,331,440,0,
2,1773254432896,5369,387,13658,-6298020,1401324,1579697,0,0,0,285,459,238,389,406,418,377,331,289,127,124,202,0,
1,1773254432912,-2483,947,9667,439822,31764,130725,0,0,0,366,387,321,416,303,453,583,362,377,361,319,450,0,
2,1773254432912,5245,287,15362,-6363994,1573588,1340238,0,0,0,286,461,237,389,407,417,374,328,286,128,127,202,0,
1,1773254432928,-2373,818,9791,449596,12217,129503,0,0,0,373,386,317,427,306,466,580,339,373,364,307,460,0,
2,1773254432928,4632,153,17047,-6306572,1784948,946841,0,0,0,287,463,238,390,408,418,373,328,286,130,127,203,0,
1,1773254432944,-2325,713,9782,465479,-43982,120951,0,0,0,373,385,322,432,320,474,574,313,377,358,284,483,0,
2,1773254432944,3737,339,19282,-6135530,1921782,599869,0,0,0,288,464,239,394,411,420,376,330,287,132,127,202,0,
1,1773254432960,-2402,660,9839,494800,-118507,127059,0,0,0,376,397,334,432,328,479,569,293,388,337,261,508,0,
2,1773254432960,2909,737,22426,-5981592,2007303,499687,0,0,0,288,463,238,395,412,419,376,329,287,130,126,199,0,
1,1773254432976,-2608,636,9925,542448,-184481,158824,0,0,0,385,406,335,433,322,486,562,276,406,315,246,518,0,
2,1773254432976,1775,-272,26656,-6128200,2105041,856433,0,0,0,289,464,238,395,410,419,378,327,289,128,123,199,0,
1,1773254432992,-2857,588,9954,620639,-235793,237015,0,0,0,385,412,333,433,327,482,547,259,436,305,243,532,0,
2,1773254432992,545,-4450,29987,-6401867,2189341,1402546,0,0,0,288,464,234,394,409,418,381,323,288,129,122,199,0,
1,1773254433008,-2943,469,10031,720820,-276111,338419,0,0,0,387,417,352,443,336,487,541,245,438,307,243,543,0,
2,1773254433008,-483,-12811,31509,-6462954,2195449,1817934,0,0,0,292,464,231,394,408,415,385,322,289,129,125,195,0,
1,1773254433024,-2823,248,10122,862541,-315206,428827,0,0,0,385,428,356,446,344,502,544,238,448,282,218,569,0,
2,1773254433024,1086,-25857,29078,-5677381,1613905,1563815,0,0,0,293,465,231,395,408,418,386,323,291,133,125,194,0,
1,1773254433040,-2818,105,10256,995710,-355523,480140,0,0,0,391,441,311,470,356,518,542,230,457,281,207,584,0,
2,1773254433040,3766,-35601,22986,-4271169,1161865,515570,0,0,0,293,465,232,397,409,418,384,320,288,135,123,197,0,
1,1773254433056,-3153,114,10662,1159422,-357967,514348,0,0,0,408,458,311,483,374,526,528,235,476,292,205,588,0,
2,1773254433056,320,-40588,17573,-2525316,1488067,-998153,0,0,0,295,465,231,399,410,419,383,318,286,139,128,197,0,
1,1773254433072,-3230,105,11289,1430646,-239459,559552,0,0,0,413,462,315,491,383,548,484,221,474,269,191,593,0,
2,1773254433072,-7748,-41823,15443,-715934,1591914,-1913229,0,0,0,285,459,220,400,415,419,391,364,289,132,134,194,0,
1,1773254433088,-2842,-9,11887,1755626,-91629,568104,0,0,0,418,485,283,483,388,545,458,206,478,271,188,610,0,
2,1773254433088,-13314,-37291,17511,1065348,598647,-1491732,0,0,0,277,456,215,393,414,413,418,444,277,151,186,185,0,
1,1773254433104,-2684,-234,12385,2109928,12217,540004,0,0,0,436,479,275,495,390,557,415,187,485,256,165,613,0,
2,1773254433104,-7518,-16793,20157,2850297,-1622458,-156381,0,0,0,267,436,185,379,391,395,459,480,269,190,239,175,0,
1,1773254433120,-3239,-512,12964,2583959,51312,560774,0,0,0,421,492,250,500,394,579,375,175,510,248,152,603,0,
2,1773254433120,3192,12380,14692,3975510,-3314554,1031140,0,0,0,272,418,182,373,376,401,490,494,277,188,268,171,0,
1,1773254433136,-4034,-598,13850,3155729,50090,697608,0,0,0,417,492,225,497,453,561,332,164,501,233,142,590,0,
2,1773254433136,4058,15410,9049,4288273,-2557081,1589471,0,0,0,276,414,182,379,371,412,507,507,290,190,301,175,0,
1,1773254433152,-4982,-636,15142,3776368,64751,944397,0,0,0,430,473,226,487,476,547,282,152,494,197,127,578,0,
2,1773254433152,-3397,1512,13271,4946786,-768468,1568701,0,0,0,277,426,190,394,375,426,528,527,316,208,329,197,0,
1,1773254433168,-6949,-626,17372,4647462,68416,1372003,0,0,0,441,465,248,480,447,556,254,140,501,173,109,563,0,
2,1773254433168,-7820,-5116,23641,4923573,-387288,693942,0,0,0,284,453,217,416,395,450,551,551,339,225,338,241,0,
1,1773254433184,-8987,-368,20775,5500230,98960,1907121,0,0,0,431,457,266,466,421,547,255,131,490,172,93,523,0,
2,1773254433184,-1742,-1201,23953,3163060,-1336573,-364075,0,0,0,311,482,252,433,420,469,570,570,345,237,333,295,0,
1,1773254433200,-10701,-540,23981,6285803,160046,2437352,0,0,0,397,415,259,418,370,512,245,135,460,145,86,435,0,
2,1773254433200,2613,296,17860,1352455,-1084896,-311541,0,0,0,357,509,282,438,428,476,587,587,350,248,318,347,0,
1,1773254433216,-10720,-808,27336,7007846,201585,2981022,0,0,0,361,396,223,380,339,459,235,154,389,126,89,350,0,
2,1773254433216,1732,406,11734,395840,-179594,173485,0,0,0,383,521,294,446,438,485,593,594,347,258,310,377,0,
1,1773254433232,-8949,-14,30380,7481877,360410,3274237,0,0,0,298,374,223,346,279,387,256,181,327,132,117,262,0,
2,1773254433232,521,837,9729,329867,119729,213802,0,0,0,399,530,295,450,442,485,598,598,346,255,311,392,0,
1,1773254433248,-8303,2646,30835,7905817,311541,3373197,0,0,0,248,318,223,276,224,309,304,252,293,140,197,126,0,
2,1773254433248,904,1033,9877,239459,-53756,101403,0,0,0,412,531,301,459,453,492,599,599,344,262,317,396,0,
1,1773254433264,-9073,8461,24512,8026769,8552,3451388,0,0,0,272,302,234,284,187,309,332,245,295,164,219,132,0,
2,1773254433264,1229,1225,10313,78190,-229685,37873,0,0,0,418,537,309,462,456,491,603,603,344,310,367,392,0,
1,1773254433280,-8738,12926,14041,7382917,-100181,3527135,0,0,0,270,304,233,285,189,312,336,262,304,165,232,133,0,
2,1773254433280,957,1564,10351,-10995,-204028,39095,0,0,0,430,539,312,463,457,492,603,604,347,261,307,404,0,
1,1773254433296,-6475,14859,8997,5038416,188146,3090978,0,0,0,269,306,243,289,192,321,331,258,306,163,218,138,0,
2,1773254433296,741,1880,10236,83077,-100181,29321,0,0,0,441,538,315,463,452,496,602,602,347,277,316,409,0,
1,1773254433312,-2890,17190,10504,356745,858876,1126435,0,0,0,270,313,237,294,198,322,342,262,303,168,218,136,0,
2,1773254433312,756,1885,10227,241902,-57421,2443,0,0,0,447,540,320,462,449,494,602,602,349,280,313,414,0,
1,1773254433328,-2335,14931,9839,-3154508,1661553,-844215,0,0,0,267,316,235,294,203,321,341,265,299,168,223,136,0,
2,1773254433328,693,1780,10251,351858,-2443,-14660,0,0,0,446,537,317,466,452,497,598,598,353,266,285,418,0,
1,1773254433344,-5384,8705,5876,-4240626,1802052,-1551597,0,0,0,257,318,236,289,204,320,337,266,296,166,226,134,0,
2,1773254433344,684,1694,10169,403171,97738,-19547,0,0,0,445,537,318,465,450,498,595,592,355,260,272,423,0,
1,1773254433360,-6604,5135,3402,-4189313,1071457,-1189965,0,0,0,251,326,238,287,207,324,339,270,301,165,226,135,0,
2,1773254433360,780,1603,9978,432492,175929,-21991,0,0,0,443,537,320,466,452,503,595,580,355,259,264,434,0,
1,1773254433376,-4618,5326,4048,-4269948,361632,-706160,0,0,0,252,328,238,287,209,324,342,273,300,173,225,140,0,
2,1773254433376,981,1474,9753,428827,190589,-26878,0,0,0,447,539,319,472,458,506,593,568,352,254,244,442,0,
1,1773254433392,-3206,6063,5905,-4919908,401949,-739146,0,0,0,254,326,240,290,209,320,341,273,294,179,226,141,0,
2,1773254433392,1134,1411,9724,394618,130725,-39095,0,0,0,451,541,316,474,460,507,587,557,350,249,224,446,0,
1,1773254433408,-3938,5503,7351,-5572312,458148,-945619,0,0,0,255,327,245,292,211,323,341,272,295,171,230,137,0,
2,1773254433408,1225,1387,9748,349414,41538,-56199,0,0,0,453,542,315,475,457,508,568,533,365,248,213,451,0,
1,1773254433424,-4804,4264,8475,-5863084,35430,-1105666,0,0,0,255,329,249,291,212,323,344,274,298,172,232,136,0,
2,1773254433424,1220,1368,9791,331088,-43982,-72082,0,0,0,460,544,320,479,461,515,553,508,379,248,204,459,0,
1,1773254433440,-4809,3431,10031,-6124534,-405614,-1310916,0,0,0,253,327,252,294,216,327,345,276,298,175,235,140,0,
2,1773254433440,1119,1330,9853,362853,-92851,-87964,0,0,0,468,545,325,480,461,523,588,513,361,255,203,469,0,
1,1773254433456,-4967,2756,11658,-6448293,-653625,-1538158,0,0,0,252,327,244,295,216,324,345,275,297,169,232,136,0,
2,1773254433456,995,1292,9920,392175,-113620,-101403,0,0,0,486,549,324,483,464,527,590,503,366,277,207,484,0,
1,1773254433472,-5479,1574,13232,-6684087,-922406,-1615127,0,0,0,256,328,248,296,215,330,347,275,303,173,231,138,0,
2,1773254433472,928,1258,9930,411723,-100181,-102625,0,0,0,484,557,319,491,472,528,592,495,372,281,207,495,0,
1,1773254433488,-5388,454,15075,-6684087,-1251052,-1536936,0,0,0,252,327,259,292,214,340,347,276,312,173,231,146,0,
2,1773254433488,947,1201,9940,437379,-81855,-96516,0,0,0,483,555,315,494,481,528,588,471,376,253,185,516,0,
1,1773254433504,-4690,0,17473,-6494719,-1464854,-1398881,0,0,0,255,327,254,293,211,336,347,273,308,174,229,144,0,
2,1773254433504,985,1081,9983,464257,-74525,-87964,0,0,0,499,566,324,496,490,533,586,454,381,258,185,520,0,
1,1773254433520,-4206,-258,20162,-6300464,-1543045,-1345125,0,0,0,259,328,270,292,208,332,349,272,303,170,227,141,0,
2,1773254433520,1014,947,10031,483805,-70860,-83077,0,0,0,508,572,329,498,497,534,583,427,382,261,182,536,0,
1,1773254433536,-4613,-961,22593,-6101322,-1539380,-1522276,0,0,0,261,330,270,288,209,326,346,270,299,167,222,136,0,
2,1773254433536,1048,880,10078,511905,-67195,-92851,0,0,0,510,574,320,508,507,539,580,405,395,262,179,548,0,
1,1773254433552,-5326,-2081,25206,-5852088,-1589471,-1875356,0,0,0,261,330,265,286,209,323,342,267,297,167,218,135,0,
2,1773254433552,1076,866,10131,552222,-56199,-114842,0,0,0,521,581,326,513,510,542,576,381,406,263,175,558,0,
1,1773254433568,-5920,-4067,28341,-5682268,-1677435,-2331061,0,0,0,260,328,261,288,208,329,346,266,300,171,216,138,0,
2,1773254433568,1162,789,10217,599869,-35430,-151494,0,0,0,529,586,329,518,515,550,570,346,418,258,168,571,0,
1,1773254433584,-7020,-8619,30241,-5820323,-1628566,-2458121,0,0,0,259,327,257,294,209,333,352,267,304,174,215,140,0,
2,1773254433584,1287,660,10452,674395,-35430,-194255,0,0,0,535,585,327,524,523,560,522,344,424,257,168,585,0,
1,1773254433600,-9758,-16874,29212,-6052452,-1499063,-1996307,0,0,0,259,327,263,297,208,334,356,266,305,180,218,141,0,
2,1773254433600,1478,588,10820,794124,-48869,-250454,0,0,0,545,589,331,528,528,565,497,324,423,268,175,596,0,
1,1773254433616,-10174,-27130,23402,-5778785,-1909564,-404392,0,0,0,259,328,269,299,210,338,365,266,307,190,222,143,0,
2,1773254433616,1464,598,11495,1022588,-37873,-324980,0,0,0,552,598,331,531,532,568,515,267,422,272,177,602,0,
1,1773254433632,-1220,-33730,18214,-4719544,-2728124,1264491,0,0,0,265,332,253,307,214,335,375,267,305,196,225,145,0,
2,1773254433632,990,593,12132,1401324,30543,-357967,0,0,0,552,603,311,540,545,581,483,258,428,266,175,607,0,
1,1773254433648,13232,-36731,15788,-2932153,-2343279,1869247,0,0,0,265,333,258,308,217,337,377,269,306,197,226,146,0,
2,1773254433648,559,430,12567,1824043,118507,-331088,0,0,0,552,606,290,547,558,590,448,249,429,273,179,613,0,
1,1773254433664,14414,-39411,14295,-1072679,-240680,1260825,0,0,0,265,332,260,307,217,338,376,268,308,194,228,146,0,
2,1773254433664,727,220,13070,2254092,178372,-270002,0,0,0,563,608,283,543,567,588,402,238,426,269,182,614,0,
1,1773254433680,8480,-38162,13515,612086,1221730,829554,0,0,0,249,324,261,292,215,339,359,289,309,214,282,146,0,
2,1773254433680,1713,71,13821,2758667,130725,-293215,0,0,0,575,610,263,542,563,581,358,237,433,274,178,616,0,
1,1773254433696,3058,-28427,15917,2028072,1655444,747699,0,0,0,242,316,230,299,203,323,387,362,310,270,369,121,0,
2,1773254433696,2512,-28,14496,3276681,18325,-416610,0,0,0,579,606,248,526,560,588,318,222,426,273,183,618,0,
1,1773254433712,-3857,770,17855,3174055,2089159,538783,0,0,0,239,302,201,290,185,297,444,431,292,309,404,103,0,
2,1773254433712,2613,-19,15348,3841120,-144164,-587652,0,0,0,578,606,256,523,566,596,304,212,434,273,192,620,0,
1,1773254433728,-7652,24685,13783,3360980,2625498,141720,0,0,0,261,288,187,305,173,283,469,466,277,358,421,93,0,
2,1773254433728,2895,-62,16549,4464203,-268780,-748920,0,0,0,570,593,270,514,550,588,296,185,433,252,169,605,0,
1,1773254433744,-3886,14840,10672,3793473,2631607,-227241,0,0,0,271,285,191,309,172,288,490,490,283,391,437,93,0,
2,1773254433744,3890,-378,18588,5171585,-293215,-956614,0,0,0,569,584,269,511,543,577,295,166,434,236,154,575,0,
1,1773254433760,1541,-1684,15649,4763527,1764178,-338419,0,0,0,264,288,207,314,178,295,506,506,285,409,453,94,0,
2,1773254433760,5206,-866,21957,5991366,-223576,-1252273,0,0,0,540,559,263,507,534,569,292,155,414,223,141,514,0,
1,1773254433776,2464,-3608,20157,4141666,748920,25656,0,0,0,263,304,217,322,200,303,522,522,282,433,472,97,0,
2,1773254433776,5943,-378,25613,6822142,34208,-1585806,0,0,0,474,540,230,495,513,545,298,161,388,208,132,440,0,
1,1773254433792,-172,-315,18430,2742784,239459,390953,0,0,0,277,326,229,331,222,317,539,540,291,453,487,107,0,
2,1773254433792,5666,598,28269,7621154,332310,-1870469,0,0,0,403,515,199,461,479,495,312,186,354,191,127,387,0,
1,1773254433808,-3498,1316,13113,1339016,-74525,318871,0,0,0,298,336,265,346,224,341,548,548,307,458,494,130,0,
2,1773254433808,5111,1947,28968,8185594,730594,-2100154,0,0,0,331,474,192,410,434,439,334,243,308,153,114,306,0,
1,1773254433824,-2981,110,10878,968832,-182037,-7330,0,0,0,311,339,309,362,226,367,552,551,315,464,502,171,0,
2,1773254433824,4536,4216,27652,8567995,1252273,-2403143,0,0,0,289,452,211,373,402,409,350,297,287,118,102,230,0,
1,1773254433840,-2378,-272,10385,703716,-150272,-92851,0,0,0,317,341,315,359,226,371,568,567,315,471,516,198,0,
2,1773254433840,5307,7355,20138,8254011,1095892,-2761110,0,0,0,278,452,227,363,394,407,358,322,292,110,102,206,0,
1,1773254433856,-2407,282,10485,426383,-62308,-53756,0,0,0,323,341,293,366,234,374,588,583,325,478,529,209,0,
2,1773254433856,5226,10208,13290,7163005,117286,-3071430,0,0,0,276,454,227,369,400,411,362,326,292,115,107,210,0,
1,1773254433872,-2493,818,10289,270002,-29321,-41538,0,0,0,339,347,292,370,240,382,573,574,326,472,522,230,0,
2,1773254433872,4020,16353,9600,3398854,-1406211,-2841745,0,0,0,276,456,225,370,403,408,360,319,281,116,110,208,0,
1,1773254433888,-2435,961,10031,226020,-25656,-25656,0,0,0,343,359,294,378,242,389,573,574,331,471,516,244,0,
2,1773254433888,3407,17956,10835,-2117258,-1754404,-1596801,0,0,0,278,455,225,372,405,408,363,323,279,119,111,210,0,
1,1773254433904,-2335,1014,10016,234572,-10995,13439,0,0,0,346,366,300,378,241,390,573,563,332,466,512,254,0,
2,1773254433904,3536,11978,10433,-5580864,-1833817,-513126,0,0,0,282,457,226,378,404,407,367,324,279,120,111,210,0,
1,1773254433920,-2206,1076,10174,256563,-15882,47647,0,0,0,350,367,298,390,241,397,566,556,339,467,510,283,0,
2,1773254433920,4690,4752,6743,-5732359,-1833817,-224798,0,0,0,280,459,228,373,401,406,371,326,281,119,111,208,0,
1,1773254433936,-2077,1139,10232,299323,-70860,69638,0,0,0,356,369,306,394,243,403,559,545,346,461,492,292,0,
2,1773254433936,5943,2723,3857,-4883256,-1352455,-411723,0,0,0,282,461,230,377,402,409,368,330,280,120,111,205,0,
1,1773254433952,-2081,1129,9987,359188,-162490,80634,0,0,0,353,372,294,391,251,397,552,526,344,449,481,280,0,
2,1773254433952,5934,3335,4044,-4699997,-613308,-463035,0,0,0,281,459,228,379,404,411,368,332,279,119,112,203,0,
1,1773254433968,-2172,1024,9686,399505,-222354,84299,0,0,0,351,376,288,391,251,393,548,513,342,436,474,277,0,
2,1773254433968,5101,4000,5891,-5073846,-118507,-95294,0,0,0,281,461,229,378,404,410,369,335,279,113,108,199,0,
1,1773254433984,-2273,880,9475,392175,-226020,90408,0,0,0,353,380,293,388,244,395,548,505,349,421,465,284,0,
2,1773254433984,5001,3814,6987,-5365840,210137,471587,0,0,0,284,462,232,377,404,409,370,336,281,112,107,198,0,
1,1773254434000,-2359,799,9389,364075,-200363,98960,0,0,0,350,379,292,381,244,397,552,493,353,412,453,298,0,
2,1773254434000,5551,2981,7709,-5536882,668286,1159422,0,0,0,281,460,229,377,404,409,372,337,280,111,106,197,0,
1,1773254434016,-2459,784,9375,333532,-150272,109955,0,0,0,346,375,293,385,247,403,555,479,350,418,437,317,0,
2,1773254434016,5460,2153,8834,-5616295,1127657,1605353,0,0,0,281,459,228,379,406,412,374,339,282,112,108,198,0,
1,1773254434032,-2479,775,9375,304210,-64751,117286,0,0,0,348,374,298,388,253,410,553,474,355,416,430,326,0,
2,1773254434032,5058,1416,10351,-5677381,1466076,1952325,0,0,0,282,459,230,380,406,413,376,340,284,115,111,200,0,
1,1773254434048,-2397,794,9408,290771,6108,123394,0,0,0,352,379,298,384,260,425,554,474,368,419,420,347,0,
2,1773254434048,4838,1253,11921,-5783672,1567480,1992642,0,0,0,283,460,231,378,403,410,375,340,283,118,110,199,0,
1,1773254434064,-2234,741,9528,307876,24434,120951,0,0,0,354,390,296,394,272,428,554,462,366,401,411,384,0,
2,1773254434064,4737,966,13620,-5963266,1650557,1865582,0,0,0,286,461,234,380,403,411,372,338,282,118,109,198,0,
1,1773254434080,-2105,626,9662,328645,1221,114842,0,0,0,356,404,305,409,268,439,552,445,366,398,407,406,0,
2,1773254434080,4560,406,15419,-6120869,1733635,1558928,0,0,0,286,460,234,384,407,416,370,337,285,117,110,199,0,
1,1773254434096,-2100,540,9734,346971,-40317,108734,0,0,0,379,383,299,425,269,432,559,427,372,406,385,425,0,
2,1773254434096,4077,282,17152,-6098878,1799608,1160643,0,0,0,283,460,231,384,407,417,376,340,286,116,110,198,0,
1,1773254434112,-2273,507,9935,364075,-54977,109955,0,0,0,389,401,298,436,299,438,559,404,370,390,369,443,0,
2,1773254434112,3522,641,19191,-6031683,1860695,847880,0,0,0,286,463,236,381,403,412,378,340,286,116,111,199,0,
1,1773254434128,-2440,497,10418,382401,-30543,129503,0,0,0,394,408,297,438,302,447,570,393,376,383,364,469,0,
2,1773254434128,2747,976,22191,-6031683,1959655,788016,0,0,0,286,463,235,382,407,415,379,338,287,114,108,198,0,
1,1773254434144,-2435,445,10212,458148,-30543,164933,0,0,0,394,425,306,436,324,458,575,383,378,376,340,490,0,
2,1773254434144,1426,43,25666,-6106208,2065946,1027475,0,0,0,286,461,235,384,407,415,381,339,287,119,112,202,0,
1,1773254434160,-2335,397,9820,542448,-50090,193033,0,0,0,388,444,320,438,351,469,574,372,395,360,317,503,0,
2,1773254434160,-244,-3914,29002,-6185621,2096489,1464854,0,0,0,288,464,236,387,406,417,386,334,293,118,109,200,0,
1,1773254434176,-2311,368,9901,638965,-73303,212581,0,0,0,394,461,327,447,366,486,571,348,420,344,298,527,0,
2,1773254434176,-569,-11624,30016,-6062226,1827708,1569923,0,0,0,288,464,229,390,407,414,386,328,287,123,109,198,0,
1,1773254434192,-2364,244,10184,762359,-114842,233350,0,0,0,400,490,324,455,376,502,569,313,437,328,277,551,0,
2,1773254434192,1158,-21325,28073,-5575977,1260825,1132544,0,0,0,288,463,229,389,403,411,391,329,290,123,111,197,0,
1,1773254434208,-2502,86,10385,895528,-175929,260228,0,0,0,399,518,318,458,388,511,566,282,440,316,258,563,0,
2,1773254434208,3436,-31591,22287,-4398229,846659,-133168,0,0,0,284,461,225,396,409,416,394,333,293,126,111,195,0,
1,1773254434224,-2785,23,10610,1038470,-233350,299323,0,0,0,414,525,316,471,395,526,555,257,436,314,238,575,0,
2,1773254434224,-1560,-37367,17023,-2596177,1211956,-1679879,0,0,0,285,461,226,397,412,417,396,335,294,128,112,197,0,
1,1773254434240,-2670,-38,11194,1302364,-289550,359188,0,0,0,426,540,311,496,396,551,531,239,442,301,217,578,0,
2,1773254434240,-10725,-38640,15075,-714712,1216843,-2255314,0,0,0,285,460,223,396,411,414,400,360,290,130,127,197,0,
1,1773254434256,-2206,-253,11849,1676214,-362853,381179,0,0,0,423,553,287,475,429,568,496,223,454,297,223,597,0,
2,1773254434256,-11653,-34500,16482,827111,156381,-1414763,0,0,0,279,458,216,389,409,410,421,427,283,141,167,188,0,
1,1773254434272,-2148,-550,12476,2134363,-448375,357967,0,0,0,437,562,254,479,417,568,439,220,476,288,205,597,0,
2,1773254434272,-6432,-21536,18913,2539977,-1233947,-405614,0,0,0,268,443,194,383,398,402,462,484,274,179,227,175,0,
1,1773254434288,-2522,-722,13122,2564412,-461814,362853,0,0,0,433,552,257,487,433,591,394,200,479,292,212,607,0,
2,1773254434288,1201,6470,17965,3847229,-2863736,353080,0,0,0,267,427,178,385,383,403,504,505,277,230,299,166,0,
1,1773254434304,-3230,-727,13898,3060434,-415388,454483,0,0,0,448,535,227,496,464,586,355,184,502,260,173,619,0,
2,1773254434304,2627,17114,14247,3932750,-3918089,627969,0,0,0,278,433,201,392,381,420,532,532,299,259,359,166,0,
1,1773254434320,-4063,-598,15037,3681073,-378736,641408,0,0,0,451,523,235,493,455,576,283,161,522,215,135,595,0,
2,1773254434320,-990,6408,17023,4294382,-3301115,509461,0,0,0,289,449,240,405,391,436,554,554,315,274,376,176,0,
1,1773254434336,-5302,-579,16616,4359134,-370184,906524,0,0,0,431,486,239,503,428,567,270,133,524,209,105,567,0,
2,1773254434336,-3718,-3484,23053,4133114,-1674992,230907,0,0,0,302,467,278,412,396,440,568,568,310,282,374,186,0,
1,1773254434352,-7480,-1115,19841,5199684,-386066,1317025,0,0,0,431,442,258,507,405,564,261,128,512,186,88,524,0,
2,1773254434352,-2196,-1569,20421,2571742,-541226,26878,0,0,0,313,483,303,416,400,438,578,578,308,269,353,208,0,
1,1773254434368,-10098,-1263,24307,6119647,-216246,1824043,0,0,0,399,425,243,495,392,526,267,139,479,172,91,461,0,
2,1773254434368,-167,2330,13299,1351233,83077,-79412,0,0,0,326,495,333,424,408,443,582,581,319,300,374,227,0,
1,1773254434384,-11356,-459,27245,6767165,218689,2353052,0,0,0,352,416,221,443,373,469,263,153,427,152,100,364,0,
2,1773254434384,1459,2163,9289,1062905,257785,-85521,0,0,0,351,499,342,432,414,459,581,581,327,267,331,260,0,
1,1773254434400,-10294,-148,29069,7401243,866206,2896722,0,0,0,303,385,214,364,321,406,260,184,366,133,123,263,0,
2,1773254434400,2134,196,9777,811229,109955,-6108,0,0,0,367,502,359,430,411,456,592,593,327,245,303,279,0,
1,1773254434416,-10342,1392,29174,7860613,1165530,3111747,0,0,0,268,331,219,301,240,345,288,225,320,140,169,187,0,
2,1773254434416,1737,14,10949,390953,-134390,78190,0,0,0,376,510,356,425,410,456,596,596,334,249,302,294,0,
1,1773254434432,-11892,6154,26001,8003556,603534,3258355,0,0,0,269,295,229,277,182,308,325,250,303,160,211,133,0,
2,1773254434432,1186,1373,10514,156381,-219911,69638,0,0,0,383,509,356,433,415,464,597,596,333,265,316,296,0,
1,1773254434448,-10734,13050,16204,7462329,-438601,3521027,0,0,0,276,307,234,286,187,321,334,267,317,169,233,141,0,
2,1773254434448,1019,2048,10117,166155,-196698,24434,0,0,0,394,513,366,437,412,466,602,601,335,280,322,306,0,
1,1773254434464,-6178,17410,10318,5368283,-454483,3199712,0,0,0,271,315,233,291,196,328,338,270,316,167,227,141,0,
2,1773254434464,1091,1880,10222,282219,-153938,-4886,0,0,0,400,514,366,442,418,471,601,601,339,272,306,318,0,
1,1773254434480,-1765,19736,10882,766025,774577,1308473,0,0,0,270,318,234,293,198,324,338,267,311,170,223,143,0,
2,1773254434480,1028,1742,10342,355523,-108734,-17104,0,0,0,408,516,371,444,424,478,598,597,343,263,284,330,0,
1,1773254434496,-2636,15659,11040,-3315776,1910786,-930958,0,0,0,266,318,234,292,201,328,344,269,313,171,228,144,0,
2,1773254434496,942,1809,10284,414166,-24434,-23212,0,0,0,418,519,372,445,422,480,602,589,343,248,256,343,0,
1,1773254434512,-5422,9571,8178,-4756196,2076941,-1750739,0,0,0,252,322,235,286,202,329,344,270,313,172,232,145,0,
2,1773254434512,1019,1732,10093,482583,40317,-31764,0,0,0,425,520,368,447,421,480,604,582,345,237,233,358,0,
1,1773254434528,-6843,5561,4785,-4387234,1266934,-1215621,0,0,0,243,316,255,287,203,335,341,270,319,172,236,142,0,
2,1773254434528,1115,1512,9935,527787,65973,-37873,0,0,0,427,524,370,448,426,484,600,575,351,240,224,376,0,
1,1773254434544,-4536,6025,5120,-4431216,581543,-616973,0,0,0,248,319,245,287,204,333,341,271,322,169,237,138,0,
2,1773254434544,1210,1373,9877,535117,48869,-47647,0,0,0,430,529,378,450,429,488,602,554,353,235,206,392,0,
1,1773254434560,-2608,6743,6853,-5112942,518013,-542448,0,0,0,251,323,239,287,203,335,345,270,324,174,238,140,0,
2,1773254434560,1301,1344,9892,537561,13439,-64751,0,0,0,437,530,391,453,427,492,597,532,364,234,193,405,0,
1,1773254434576,-3110,5910,8217,-5801998,610865,-770911,0,0,0,250,325,242,284,207,338,343,271,325,178,241,143,0,
2,1773254434576,1340,1320,9906,548556,-40317,-86742,0,0,0,440,536,371,457,432,497,585,495,373,235,187,419,0,
1,1773254434592,-3914,4709,9270,-6196616,356745,-917519,0,0,0,250,325,249,285,210,342,342,273,328,181,242,142,0,
2,1773254434592,1287,1206,9873,561996,-102625,-100181,0,0,0,448,538,373,465,439,510,595,503,377,244,185,443,0,
1,1773254434608,-4091,3929,10457,-6438519,-83077,-968832,0,0,0,252,325,251,288,206,340,345,272,333,182,243,139,0,
2,1773254434608,1162,1081,9834,572991,-145385,-103847,0,0,0,450,540,373,463,438,510,596,485,377,238,177,458,0,
1,1773254434624,-3866,2852,11978,-6702413,-437379,-956614,0,0,0,253,328,245,288,203,330,345,271,333,180,242,138,0,
2,1773254434624,1038,990,9863,579100,-135612,-100181,0,0,0,461,547,374,480,452,520,592,467,372,240,171,474,0,
1,1773254434640,-3776,1497,13361,-6757391,-665843,-868650,0,0,0,255,336,248,287,206,335,345,276,323,178,242,140,0,
2,1773254434640,981,885,9940,575435,-84299,-89186,0,0,0,472,553,396,481,463,530,590,450,378,279,203,486,0,
1,1773254434656,-3981,679,14778,-6580240,-862541,-753807,0,0,0,253,326,250,290,205,341,351,274,327,182,241,142,0,
2,1773254434656,1014,808,9992,576656,-36651,-80634,0,0,0,477,554,390,484,461,532,594,423,382,257,176,511,0,
1,1773254434672,-4431,512,16668,-6401867,-1092227,-698829,0,0,0,257,328,251,293,204,341,362,269,327,189,240,141,0,
2,1773254434672,1105,737,10054,597426,-13439,-81855,0,0,0,488,559,388,493,469,538,595,401,390,241,156,528,0,
1,1773254434688,-4886,205,18497,-6289468,-1309695,-726929,0,0,0,257,328,252,295,204,343,368,272,330,191,239,140,0,
2,1773254434688,1182,646,10165,643851,-6108,-97738,0,0,0,504,565,383,493,472,536,591,379,392,246,156,546,0,
1,1773254434704,-5202,-540,20435,-6032905,-1547932,-880867,0,0,0,262,330,253,292,220,341,364,272,330,192,241,140,0,
2,1773254434704,1253,564,10241,701273,0,-122173,0,0,0,510,572,378,499,483,544,584,353,394,256,158,558,0,
1,1773254434720,-5273,-1368,22852,-5661499,-1809382,-1231504,0,0,0,256,326,254,292,206,343,351,274,332,183,242,140,0,
2,1773254434720,1330,454,10256,779464,6108,-160046,0,0,0,516,577,375,511,497,550,574,329,403,260,159,566,0,
1,1773254434736,-5044,-3034,25919,-5393940,-1993864,-1893682,0,0,0,256,330,249,289,205,335,345,272,349,176,236,135,0,
2,1773254434736,1387,311,10346,893084,9773,-212581,0,0,0,527,582,373,520,501,549,560,305,412,262,160,575,0,
1,1773254434752,-5077,-6829,28738,-5389053,-2072054,-2511877,0,0,0,256,331,247,291,206,334,346,269,350,175,233,134,0,
2,1773254434752,1354,177,10557,1015258,23212,-261450,0,0,0,535,592,378,526,507,559,539,277,416,268,162,584,0,
1,1773254434768,-5991,-14529,29561,-5633399,-1946216,-2647489,0,0,0,258,331,255,292,212,339,344,272,339,177,236,138,0,
2,1773254434768,1435,95,10945,1160643,41538,-299323,0,0,0,545,600,389,532,520,571,518,251,417,279,169,596,0,
1,1773254434784,-7169,-26441,25900,-5544212,-1727526,-1670105,0,0,0,259,333,256,293,215,342,343,276,333,180,239,140,0,
2,1773254434784,1636,81,11682,1382998,59864,-338419,0,0,0,559,605,374,532,533,582,492,235,422,264,167,607,0,
1,1773254434800,-2818,-36429,20224,-4495968,-1879021,-63529,0,0,0,259,335,254,294,217,342,344,278,332,181,241,141,0,
2,1773254434800,1493,47,12500,1759291,85521,-382401,0,0,0,557,611,358,538,546,591,460,236,427,270,171,609,0,
1,1773254434816,7413,-39928,16348,-2453234,-1558928,866206,0,0,0,253,335,246,295,212,338,352,293,325,205,271,137,0,
2,1773254434816,1086,9,13156,2217440,106290,-392175,0,0,0,562,610,338,541,555,599,408,224,427,269,177,615,0,
1,1773254434832,11792,-41315,15108,-631634,-491135,907745,0,0,0,248,326,231,298,200,329,375,346,318,253,337,126,0,
2,1773254434832,1009,-57,13673,2696359,48869,-346971,0,0,0,561,610,294,547,560,595,355,219,425,267,178,615,0,
1,1773254434848,10433,-38224,17774,1345125,882089,482583,0,0,0,252,305,226,299,191,323,416,423,320,294,396,116,0,
2,1773254434848,1832,-358,14166,3237585,-127059,-327423,0,0,0,569,612,279,535,569,599,316,218,427,271,182,621,0,
1,1773254434864,3206,-13232,16716,3722612,1773952,119729,0,0,0,245,297,202,287,185,308,464,467,293,341,419,103,0,
2,1773254434864,2790,-603,14907,3820351,-317649,-415388,0,0,0,567,608,263,520,566,591,299,202,435,264,182,607,0,
1,1773254434880,-2703,11816,14486,4982216,1769065,59864,0,0,0,253,295,200,293,181,297,477,477,283,385,434,100,0,
2,1773254434880,3575,-497,16209,4397007,-469144,-604756,0,0,0,563,594,252,522,565,587,286,174,433,247,161,596,0,
1,1773254434896,-1076,8360,16386,5325523,755029,443488,0,0,0,263,301,203,306,182,306,493,492,298,397,442,93,0,
2,1773254434896,4943,-885,18387,5089729,-605978,-904080,0,0,0,552,576,259,524,557,584,290,158,428,231,145,536,0,
1,1773254434912,1229,-1847,20157,5252219,-400727,895528,0,0,0,258,307,211,312,187,314,506,506,287,439,465,101,0,
2,1773254434912,6432,-1928,22469,5926614,-569326,-1331686,0,0,0,519,560,253,509,532,562,290,155,405,219,140,466,0,
1,1773254434928,-942,-3780,20023,4224743,-795346,1199739,0,0,0,271,312,238,350,215,353,530,531,302,446,480,128,0,
