sole_id,timestamp,accel_x,accel_y,accel_z,gyro_x,gyro_y,gyro_z,magn_x,magn_y,magn_z,pressure_01,pressure_02,pressure_03,pressure_04,pressure_05,pressure_06,pressure_07,pressure_08,pressure_09,pressure_10,pressure_11,pressure_12,corrupt,transition,concrete,brick,asphalt
2,1779307630928,1675,483,9820,50090,-54977,6108,0,0,0,181,121,99,206,83,127,441,364,97,460,418,74,0,,,,
1,1779307630944,-1904,847,9763,9773,-57421,10995,0,0,0,103,85,104,97,45,146,453,453,159,378,393,136,0,,,,
2,1779307630944,1665,478,9815,52534,-51312,3665,0,0,0,185,121,97,211,82,121,441,355,92,458,410,65,0,,,,
1,1779307630960,-1914,827,9772,19547,-56199,12217,0,0,0,104,80,104,96,43,146,452,452,159,382,396,140,0,,,,
2,1779307630960,1651,464,9815,56199,-52534,3665,0,0,0,191,124,100,213,82,117,436,347,91,454,410,63,0,,,,
1,1779307630976,-1904,808,9777,23212,-58643,13439,0,0,0,104,79,113,97,39,149,455,455,167,384,393,144,0,,,,
2,1779307630976,1651,464,9801,56199,-52534,4886,0,0,0,190,123,102,212,85,117,434,350,97,446,407,70,0,,,,
1,1779307630992,-1895,794,9767,20769,-62308,14660,0,0,0,106,81,129,92,34,151,457,457,174,387,391,145,0,,,,
2,1779307630992,1660,459,9796,52534,-52534,6108,0,0,0,186,118,99,211,82,120,433,339,95,448,393,74,0,,,,
1,1779307631008,-1904,804,9763,18325,-68416,15882,0,0,0,107,79,125,102,36,151,456,457,175,394,393,149,0,,,,
2,1779307631008,1660,454,9815,50090,-52534,6108,0,0,0,189,124,109,211,83,131,432,326,100,452,377,74,0,,,,
1,1779307631024,-1909,808,9767,18325,-68416,15882,0,0,0,115,80,109,125,38,145,451,453,160,393,389,142,0,,,,
2,1779307631024,1655,454,9834,50090,-53756,6108,0,0,0,189,122,112,211,79,139,432,322,111,448,371,80,0,,,,
1,1779307631040,-1914,799,9767,19547,-68416,14660,0,0,0,101,80,115,103,35,152,457,457,158,397,386,143,0,,,,
2,1779307631040,1646,449,9839,52534,-54977,6108,0,0,0,187,123,115,211,82,138,429,322,106,445,358,77,0,,,,
1,1779307631056,-1914,784,9758,13439,-68416,13439,0,0,0,103,81,98,108,38,143,456,456,144,402,387,137,0,,,,
2,1779307631056,1631,435,9820,53756,-54977,7330,0,0,0,177,116,107,212,80,146,432,322,104,447,356,67,0,,,,
1,1779307631072,-1919,789,9758,6108,-68416,12217,0,0,0,103,84,95,112,43,143,454,454,142,402,387,136,0,,,,
2,1779307631072,1631,430,9810,51312,-54977,6108,0,0,0,177,121,118,210,78,148,430,326,106,444,357,76,0,,,,
1,1779307631088,-1923,799,9772,3665,-69638,12217,0,0,0,107,88,101,115,46,148,458,458,151,403,386,138,0,,,,
2,1779307631088,1636,421,9820,51312,-54977,6108,0,0,0,179,120,114,216,81,146,428,327,105,441,359,75,0,,,,
1,1779307631104,-1933,794,9782,4886,-70860,10995,0,0,0,104,88,101,112,41,147,461,461,153,404,389,139,0,x,,,
2,1779307631104,1641,421,9830,51312,-54977,6108,0,0,0,183,121,111,214,78,139,388,297,109,436,355,68,0,x,,,
1,1779307631120,-1933,784,9767,3665,-69638,9773,0,0,0,107,90,104,116,43,145,462,462,158,410,395,137,0,,,,
2,1779307631120,1631,421,9830,53756,-53756,6108,0,0,0,185,120,101,219,77,132,391,293,101,433,347,62,0,,,,
1,1779307631136,-1938,780,9763,0,-68416,8552,0,0,0,116,87,108,121,42,143,462,462,154,416,394,131,0,,,,
2,1779307631136,1622,421,9820,56199,-52534,4886,0,0,0,184,118,92,221,80,125,422,309,90,430,343,59,0,,,,
1,1779307631152,-1938,780,9758,-1221,-68416,7330,0,0,0,118,83,106,125,40,145,463,463,147,420,392,131,0,,,,
2,1779307631152,1627,406,9815,59864,-51312,4886,0,0,0,180,120,95,212,80,117,415,307,95,427,343,59,0,,,,
1,1779307631168,-1938,794,9763,-4886,-68416,6108,0,0,0,115,90,110,122,41,148,465,465,150,419,393,133,0,,,,
2,1779307631168,1631,397,9815,59864,-51312,4886,0,0,0,172,121,100,209,80,123,407,306,100,428,341,65,0,,,,
1,1779307631184,-1943,794,9772,-4886,-65973,6108,0,0,0,112,96,118,116,40,148,463,463,153,419,399,135,0,,,,
2,1779307631184,1636,397,9820,59864,-51312,3665,0,0,0,170,119,102,212,79,139,403,291,102,426,334,71,0,,,,
1,1779307631200,-1947,799,9777,-4886,-65973,6108,0,0,0,109,93,119,117,38,155,462,462,152,420,406,141,0,,,,
2,1779307631200,1631,397,9825,61086,-53756,2443,0,0,0,176,120,103,214,76,126,413,284,97,416,335,67,0,,,,
1,1779307631216,-1952,808,9782,-4886,-65973,6108,0,0,0,110,92,120,123,42,165,464,464,158,415,405,140,0,,,,
2,1779307631216,1627,387,9834,63529,-53756,1221,0,0,0,169,117,118,213,80,132,410,268,108,420,349,82,0,,,,
1,1779307631232,-1952,813,9777,0,-67195,6108,0,0,0,114,92,121,130,46,168,464,464,156,415,406,140,0,,,,
2,1779307631232,1622,382,9849,67195,-54977,1221,0,0,0,165,120,103,207,80,124,401,288,102,417,331,73,0,,,,
1,1779307631248,-1947,818,9767,2443,-68416,7330,0,0,0,112,89,124,130,48,172,465,465,156,419,416,143,0,,,,
2,1779307631248,1627,378,9849,73303,-56199,1221,0,0,0,162,116,95,199,79,116,395,263,102,417,317,74,0,,,,
1,1779307631264,-1947,808,9763,3665,-68416,6108,0,0,0,116,88,123,140,47,176,467,467,162,424,419,147,0,,,,
2,1779307631264,1631,373,9839,78190,-56199,0,0,0,0,171,116,91,208,79,115,403,274,97,410,312,65,0,,,,
1,1779307631280,-1957,804,9763,3665,-68416,6108,0,0,0,119,88,123,124,55,173,466,466,170,426,414,141,0,,,,
2,1779307631280,1631,354,9839,83077,-57421,0,0,0,0,169,119,92,210,78,124,401,249,106,403,281,63,0,,,,
1,1779307631296,-1966,813,9772,10995,-69638,7330,0,0,0,115,81,114,124,43,170,472,472,146,431,424,129,0,,,,
2,1779307631296,1627,335,9844,86742,-59864,0,0,0,0,169,120,92,210,77,127,397,223,111,402,275,74,0,,,,
1,1779307631312,-1971,823,9786,21991,-69638,9773,0,0,0,122,83,121,140,44,177,477,477,143,429,418,114,0,,,,
2,1779307631312,1617,325,9858,92851,-61086,0,0,0,0,166,120,89,211,78,123,394,206,109,403,270,77,0,,,,
1,1779307631328,-1971,818,9791,32986,-68416,12217,0,0,0,130,88,145,127,37,168,474,474,170,429,414,127,0,,,,
2,1779307631328,1622,315,9868,100181,-63529,-1221,0,0,0,161,119,85,208,79,124,346,183,114,400,263,75,0,,,,
1,1779307631344,-1971,813,9791,45204,-68416,14660,0,0,0,122,84,121,123,43,162,474,474,161,430,416,131,0,,,,
2,1779307631344,1622,315,9868,106290,-65973,-1221,0,0,0,153,117,88,203,76,130,330,176,122,395,253,75,0,,,,
1,1779307631360,-1976,799,9772,54977,-72082,17104,0,0,0,122,85,119,120,42,159,474,474,151,428,411,130,0,,,,
2,1779307631360,1622,315,9873,117286,-69638,-2443,0,0,0,146,116,94,198,74,130,364,183,121,394,239,78,0,,,,
1,1779307631376,-1971,780,9758,59864,-74525,18325,0,0,0,117,85,128,117,40,167,473,473,160,428,408,135,0,,,,
2,1779307631376,1627,306,9887,131946,-72082,-4886,0,0,0,148,116,93,198,75,121,373,174,112,394,229,75,0,,,,
1,1779307631392,-1971,741,9767,54977,-75747,17104,0,0,0,115,87,130,119,40,170,472,472,171,428,409,137,0,,,,
2,1779307631392,1641,291,9906,150272,-75747,-10995,0,0,0,156,118,79,202,75,114,387,164,102,390,219,63,0,,,,
1,1779307631408,-1976,732,9782,45204,-76969,14660,0,0,0,117,88,134,125,37,165,476,476,195,431,415,132,0,,,,
2,1779307631408,1636,263,9930,175929,-78190,-18325,0,0,0,157,117,72,207,79,108,384,148,97,384,199,57,0,,,,
1,1779307631424,-1990,737,9786,36651,-79412,13439,0,0,0,119,87,140,131,37,164,481,481,209,434,421,127,0,,,,
2,1779307631424,1617,239,9944,202807,-80634,-25656,0,0,0,159,124,67,203,74,101,374,150,96,380,189,47,0,,,,
1,1779307631440,-2010,737,9777,24434,-76969,13439,0,0,0,125,86,139,133,41,167,480,480,198,433,421,129,0,,,,
2,1779307631440,1627,220,9968,229685,-89186,-30543,0,0,0,153,124,67,195,71,108,364,143,103,380,191,53,0,,,,
1,1779307631456,-2014,737,9753,14660,-70860,13439,0,0,0,139,86,138,131,39,170,481,481,190,433,419,132,0,,,,
2,1779307631456,1641,201,9992,260228,-108734,-37873,0,0,0,139,132,83,169,72,118,297,176,121,321,213,62,0,,,,
1,1779307631472,-2010,751,9739,10995,-64751,14660,0,0,0,150,89,152,128,39,175,470,476,182,433,421,143,0,,,,
2,1779307631472,1675,186,10035,298102,-128281,-51312,0,0,0,134,132,72,174,74,119,291,168,123,302,212,62,0,,,,
1,1779307631488,-2010,765,9758,20769,-54977,15882,0,0,0,132,97,158,131,41,184,415,446,202,432,412,146,0,,,,
2,1779307631488,1713,157,10102,342084,-145385,-70860,0,0,0,127,149,62,168,113,92,266,160,103,278,177,53,0,,,,
1,1779307631504,-1995,770,9791,37873,-47647,18325,0,0,0,149,119,141,153,38,171,485,485,153,432,417,129,0,,,,
2,1779307631504,1732,100,10189,405614,-172263,-96516,0,0,0,102,125,90,150,83,114,262,140,124,240,126,76,0,,,,
1,1779307631520,-1976,746,9806,50090,-51312,18325,0,0,0,149,114,119,159,36,148,486,486,148,433,423,115,0,,,,
2,1779307631520,1842,28,10203,465479,-208915,-129503,0,0,0,108,116,73,150,72,101,252,140,110,226,120,65,0,,,,
1,1779307631536,-1986,713,9782,45204,-61086,17104,0,0,0,163,119,131,168,42,172,487,487,150,438,431,131,0,,,,
2,1779307631536,1995,-4,10222,521678,-239459,-193033,0,0,0,100,128,74,136,72,117,227,125,132,226,114,74,0,,,,
1,1779307631552,-2019,698,9753,34208,-67195,15882,0,0,0,152,116,139,166,41,159,499,499,190,438,434,119,0,,,,
2,1779307631552,2091,-52,10327,580321,-274889,-271224,0,0,0,83,118,79,115,65,120,173,99,126,220,110,78,0,,,,
1,1779307631568,-2053,717,9739,23212,-57421,15882,0,0,0,167,120,149,161,50,169,492,492,155,439,434,118,0,,,,
2,1779307631568,2072,-220,10562,643851,-301767,-349414,0,0,0,92,93,56,113,59,83,162,93,76,221,111,50,0,,,,
1,1779307631584,-2053,737,9767,29321,-39095,21991,0,0,0,157,127,166,148,51,180,490,490,178,438,427,138,0,,,,
2,1779307631584,1727,-382,10902,730594,-301767,-400727,0,0,0,99,86,41,114,54,69,195,101,71,232,108,38,0,,,,
1,1779307631600,-2024,727,9796,41538,-29321,28099,0,0,0,153,131,174,141,61,167,439,460,195,435,421,135,0,,,,
2,1779307631600,1430,-402,11026,819781,-293215,-415388,0,0,0,87,86,35,107,51,64,183,107,73,226,116,41,0,,,,
1,1779307631616,-1986,698,9796,50090,-31764,29321,0,0,0,163,139,179,154,59,165,462,473,182,438,424,133,0,,,,
2,1779307631616,1392,-402,10959,911410,-288328,-406836,0,0,0,79,88,35,97,55,65,192,115,71,203,111,33,0,,,,
1,1779307631632,-1966,674,9777,52534,-42760,28099,0,0,0,176,145,176,164,58,169,493,493,170,437,425,122,0,,,,
2,1779307631632,1612,-526,10859,998153,-273667,-419053,0,0,0,80,74,35,90,42,79,192,110,85,193,103,36,0,,,,
1,1779307631648,-1971,674,9763,52534,-48869,26878,0,0,0,183,148,189,174,63,186,496,496,170,439,422,116,0,,,,
2,1779307631648,1828,-679,10878,1088561,-268780,-458148,0,0,0,96,73,38,103,42,69,213,112,74,209,102,35,0,,,,
1,1779307631664,-1990,674,9743,48869,-45204,24434,0,0,0,186,156,227,172,64,192,500,500,176,442,423,120,0,,,,
2,1779307631664,2201,-904,10806,1182635,-279776,-525344,0,0,0,67,73,26,81,53,54,186,145,68,152,134,33,0,,,,
1,1779307631680,-1995,655,9734,40317,-39095,20769,0,0,0,184,170,242,164,68,187,503,503,185,441,427,126,0,,,,
2,1779307631680,2680,-1105,10562,1242499,-230907,-652404,0,0,0,63,79,27,74,45,46,187,137,60,148,116,23,0,,,,
1,1779307631696,-2000,641,9777,26878,-36651,14660,0,0,0,185,182,217,175,69,205,503,503,181,443,429,121,0,,,,
2,1779307631696,3077,-1311,10275,1275486,-140499,-835663,0,0,0,65,79,27,76,38,41,195,126,54,150,107,22,0,,,,
1,1779307631712,-2005,641,9815,19547,-35430,13439,0,0,0,199,189,226,179,62,223,504,504,172,444,431,94,0,,,,
2,1779307631712,3402,-1612,9935,1260825,-18325,-1086118,0,0,0,63,55,22,89,35,36,215,121,58,167,98,28,0,,,,
1,1779307631728,-2005,641,9830,18325,-39095,13439,0,0,0,208,183,266,183,63,223,502,502,194,439,431,99,0,,,,
2,1779307631728,3742,-1617,9466,1182635,86742,-1382998,0,0,0,59,35,16,106,34,45,208,118,50,171,100,23,0,,,,
1,1779307631744,-2010,646,9825,15882,-43982,14660,0,0,0,211,197,244,203,69,240,502,502,193,438,429,95,0,,,,
2,1779307631744,3881,-842,8997,1056796,146607,-1681101,0,0,0,54,38,12,86,41,38,198,146,55,160,132,21,0,,,,
1,1779307631760,-2029,655,9810,15882,-43982,15882,0,0,0,195,191,236,196,69,272,509,509,202,443,427,97,0,,,,
2,1779307631760,3527,1536,8585,794124,92851,-1932777,0,0,0,49,49,39,71,47,54,197,158,87,144,143,43,0,,,,
1,1779307631776,-2029,655,9810,20769,-36651,19547,0,0,0,200,196,235,203,69,234,510,510,207,444,428,96,0,,,,
2,1779307631776,3172,4618,8303,367740,-76969,-1966986,0,0,0,58,53,42,83,43,60,224,159,93,151,139,46,0,,,,
1,1779307631792,-2000,646,9830,35430,-34208,23212,0,0,0,192,220,269,195,73,250,507,507,225,445,431,117,0,,,,
2,1779307631792,3383,6700,7958,-357967,-175929,-1651779,0,0,0,71,48,28,96,37,53,243,150,79,171,127,36,0,,,,
1,1779307631808,-1995,650,9858,52534,-35430,25656,0,0,0,203,207,267,199,73,245,507,507,211,444,417,118,0,,,,
2,1779307631808,3656,6494,7528,-912632,-98960,-1216843,0,0,0,69,44,35,93,35,64,229,133,82,176,114,41,0,,,,
1,1779307631824,-2005,655,9873,68416,-36651,26878,0,0,0,220,202,288,203,73,242,507,507,219,444,402,127,0,,,,
2,1779307631824,3881,5585,7145,-1155757,70860,-766025,0,0,0,62,41,34,90,35,73,216,135,87,169,117,42,0,,,,
1,1779307631840,-2014,646,9858,81855,-34208,25656,0,0,0,221,214,264,217,71,234,505,505,208,444,395,120,0,,,,
2,1779307631840,3953,5240,7178,-1266934,294437,-365297,0,0,0,64,45,34,89,39,64,223,146,82,168,121,38,0,,,,
1,1779307631856,-1995,607,9825,92851,-29321,25656,0,0,0,215,224,262,225,75,240,506,506,205,442,386,120,0,,,,
2,1779307631856,3704,5273,7753,-1370781,546113,17104,0,0,0,63,66,17,87,41,40,222,144,62,169,115,20,0,,,,
1,1779307631872,-1966,574,9791,95294,-29321,25656,0,0,0,210,231,293,213,76,240,503,503,220,440,382,129,0,,,,
2,1779307631872,3263,5092,8513,-1502728,745255,394618,0,0,0,46,55,25,65,40,40,184,139,62,157,117,23,0,,,,
1,1779307631888,-1962,555,9782,92851,-28099,24434,0,0,0,205,222,310,209,76,239,500,500,234,439,381,142,0,,,,
2,1779307631888,2962,4565,9203,-1615127,860098,726929,0,0,0,47,48,27,61,36,38,186,137,66,165,117,28,0,,,,
1,1779307631904,-1986,540,9763,81855,-15882,20769,0,0,0,210,213,306,211,77,240,499,499,229,440,379,140,0,,,,
2,1779307631904,2751,3957,9911,-1703092,949284,1001818,0,0,0,48,47,23,58,37,40,184,135,67,166,117,18,0,,,,
1,1779307631920,-2000,536,9753,72082,-1221,19547,0,0,0,214,241,299,205,86,238,498,498,226,440,376,135,0,,,,
2,1779307631920,2498,3484,10605,-1753183,1015258,1186300,0,0,0,53,48,20,77,38,42,194,135,69,172,117,22,0,,,,
1,1779307631936,-1981,512,9753,62308,9773,20769,0,0,0,212,275,287,206,103,238,498,498,228,437,370,139,0,,,,
2,1779307631936,2191,2995,11323,-1786169,1034805,1381777,0,0,0,58,68,20,74,56,39,198,176,70,164,169,23,0,,,,
1,1779307631952,-1943,492,9763,53756,8552,20769,0,0,0,220,274,287,209,113,238,498,498,224,437,367,138,0,,,,
2,1779307631952,2120,2498,11897,-1822821,1017701,1576032,0,0,0,58,67,21,78,63,45,203,182,68,156,180,25,0,,,,
1,1779307631968,-1919,488,9786,46425,1221,21991,0,0,0,225,271,309,206,116,250,500,500,231,439,369,139,0,,,,
2,1779307631968,2191,1966,12356,-1877799,995710,1755626,0,0,0,56,61,22,82,56,45,214,184,69,148,174,22,0,,,,
1,1779307631984,-1909,507,9806,42760,-3665,21991,0,0,0,214,250,315,211,115,260,498,498,232,439,372,151,0,,,,
2,1779307631984,2062,1354,12715,-1930334,956614,1870469,0,0,0,55,61,20,85,56,44,223,186,72,149,173,20,0,,,,
1,1779307632000,-1904,497,9815,39095,-8552,20769,0,0,0,206,269,299,227,122,262,494,494,233,439,377,157,0,,,,
2,1779307632000,1957,636,12926,-1955990,877202,1924225,0,0,0,59,63,20,88,54,45,226,169,75,161,144,18,0,,,,
1,1779307632016,-1904,483,9830,36651,-13439,20769,0,0,0,208,273,321,224,125,258,494,494,235,442,372,162,0,,,,
2,1779307632016,2072,-38,12912,-1946216,801455,1879021,0,0,0,64,59,23,89,46,48,225,146,78,170,108,19,0,,,,
1,1779307632032,-1909,473,9830,31764,-15882,20769,0,0,0,216,274,298,223,126,258,491,491,226,443,371,165,0,,,,
2,1779307632032,2196,-799,12735,-1912008,742812,1715309,0,0,0,63,47,22,90,42,55,224,139,79,168,107,24,0,,,,
1,1779307632048,-1914,473,9810,28099,-17104,21991,0,0,0,210,283,298,229,125,256,490,490,246,438,361,170,0,,,,
2,1779307632048,2306,-1751,12395,-1837482,656069,1481959,0,0,0,62,48,23,88,40,53,230,141,80,163,104,20,0,,,,
1,1779307632064,-1914,488,9820,29321,-12217,23212,0,0,0,215,308,288,234,129,250,490,490,238,437,346,161,0,,,,
2,1779307632064,2555,-2794,11849,-1715309,565661,1197295,0,0,0,64,50,29,83,39,51,226,141,77,166,104,22,0,,,,
1,1779307632080,-1904,507,9853,35430,-8552,25656,0,0,0,212,311,300,229,137,255,487,487,244,435,343,165,0,,,,
2,1779307632080,2507,-3776,11136,-1539380,547335,831998,0,0,0,65,53,26,89,43,52,223,141,77,171,110,22,0,,,,
1,1779307632096,-1880,488,9863,45204,-7330,26878,0,0,0,211,300,305,228,137,258,479,479,252,431,337,172,0,,,,
2,1779307632096,1698,-4469,10643,-1334129,564439,537561,0,0,0,67,52,22,91,43,52,224,141,73,174,111,20,0,,,,
1,1779307632112,-1861,459,9863,56199,-10995,28099,0,0,0,217,296,324,226,136,265,476,476,255,428,332,174,0,,,,
2,1779307632112,607,-5139,10303,-1050688,516791,346971,0,0,0,71,51,30,91,40,51,224,140,74,180,112,26,0,,,,
1,1779307632128,-1861,454,9877,70860,-14660,29321,0,0,0,223,307,333,223,137,264,473,473,247,426,332,163,0,,,,
2,1779307632128,196,-5915,9892,-674395,361632,229685,0,0,0,67,51,24,101,45,59,221,140,75,173,113,20,0,,,,
1,1779307632144,-1876,454,9892,86742,-15882,32986,0,0,0,229,325,325,219,144,257,468,468,233,424,329,151,0,,,,
2,1779307632144,248,-6508,9523,-280998,205250,102625,0,0,0,65,50,27,96,44,53,228,143,81,175,115,27,0,,,,
1,1779307632160,-1876,449,9897,105068,-12217,34208,0,0,0,226,327,333,215,148,263,466,466,231,421,314,151,0,,,,
2,1779307632160,330,-6570,9361,58643,79412,-28099,0,0,0,69,53,27,94,44,50,225,144,78,175,113,26,0,,,,
1,1779307632176,-1880,435,9906,124616,-10995,37873,0,0,0,215,316,341,211,159,273,461,450,234,417,292,154,0,,,,
2,1779307632176,392,-6087,9313,412944,-69638,-145385,0,0,0,68,49,25,94,43,51,224,140,78,173,107,27,0,,,,
1,1779307632192,-1899,430,9930,149051,0,42760,0,0,0,223,320,335,207,186,274,448,402,236,413,265,166,0,,,,
2,1779307632192,315,-5116,9772,764803,-255341,-200363,0,0,0,55,85,18,82,70,45,209,189,68,164,146,24,0,,,,
1,1779307632208,-1938,402,9930,167377,29321,48869,0,0,0,219,326,348,221,131,284,440,363,237,407,228,179,0,,,,
2,1779307632208,311,-1009,10964,1104444,-684169,-28099,0,0,0,53,82,11,84,70,39,219,208,58,201,181,18,0,,,,
1,1779307632224,-1919,354,9925,188146,59864,58643,0,0,0,209,340,356,228,134,291,426,289,247,403,212,179,0,,,,
2,1779307632224,1698,4316,10409,1337794,-1053131,178372,0,0,0,58,44,9,94,44,37,237,190,57,234,194,18,0,,,,
1,1779307632240,-1852,311,9964,218689,72082,69638,0,0,0,214,358,350,227,139,278,415,249,247,398,208,175,0,,,,
2,1779307632240,2335,5508,8844,1472185,-1071457,218689,0,0,0,58,41,7,90,44,34,248,214,54,230,213,20,0,,,,
1,1779307632256,-1861,301,10045,255341,65973,75747,0,0,0,214,390,342,222,139,300,411,255,260,388,195,168,0,,,,
2,1779307632256,1153,2488,9035,1742187,-805120,3665,0,0,0,64,41,2,88,38,29,284,259,47,267,235,11,0,,,,
1,1779307632272,-1928,263,10122,313984,65973,92851,0,0,0,201,404,324,227,153,300,402,197,265,381,145,177,0,,,,
2,1779307632272,440,1005,10323,1921782,-568104,-245567,0,0,0,52,49,5,74,44,30,270,303,54,253,274,13,0,,,,
1,1779307632288,-1947,201,10189,377514,65973,120951,0,0,0,185,394,260,231,154,295,396,174,251,336,125,187,0,,,,
2,1779307632288,765,1124,11557,1886351,-445931,-500909,0,0,0,48,49,3,73,41,30,298,307,53,306,290,8,0,,,,
1,1779307632304,-1856,177,10184,478918,43982,156381,0,0,0,172,386,213,245,143,290,357,151,232,291,111,170,0,,,,
2,1779307632304,1976,1378,11964,1798387,-362853,-656069,0,0,0,66,42,14,88,42,37,319,327,52,341,322,6,0,,,,
1,1779307632320,-1847,148,10236,597426,1221,182037,0,0,0,159,378,148,237,156,286,293,178,225,219,128,171,0,,,,
2,1779307632320,3278,961,12395,1712866,-375071,-524122,0,0,0,82,53,24,94,42,41,335,339,56,329,331,22,0,,,,
1,1779307632336,-1938,134,10701,731816,-23212,216246,0,0,0,152,372,95,246,205,275,251,165,213,192,120,169,0,,,,
2,1779307632336,3359,325,12366,1468520,-448375,-234572,0,0,0,64,58,17,80,43,36,351,371,51,409,356,18,0,,,,
1,1779307632352,-2038,105,11328,889419,53756,245567,0,0,0,135,367,68,232,226,265,216,124,189,183,109,157,0,,,,
2,1779307632352,2354,71,11519,1029918,-432492,-18325,0,0,0,82,61,57,85,33,53,404,369,79,427,382,51,0,,,,
1,1779307632368,-2316,-9,12208,1134987,207694,279776,0,0,0,126,346,66,223,187,273,202,81,179,203,87,146,0,,,,
2,1779307632368,1622,138,10504,598647,-312763,56199,0,0,0,107,46,105,110,24,83,424,395,97,431,395,85,0,,,,
1,1779307632384,-2541,-95,12964,1422094,313984,342084,0,0,0,128,315,65,219,177,264,198,58,166,226,68,131,0,,,,
2,1779307632384,1627,162,10035,328645,-167377,52534,0,0,0,129,52,95,112,35,73,429,425,79,438,412,68,0,,,,
1,1779307632400,-2565,-67,13271,1777617,365297,436157,0,0,0,126,263,53,183,196,217,183,69,140,199,73,114,0,,,,
2,1779307632400,1809,157,9901,133168,-103847,59864,0,0,0,140,54,84,131,37,68,452,455,78,463,433,58,0,,,,
1,1779307632416,-2718,23,13529,2156354,410501,544891,0,0,0,119,220,44,162,160,166,178,80,129,156,70,89,0,,,,
2,1779307632416,1842,268,9810,-17104,-96516,63529,0,0,0,143,65,84,154,43,71,442,453,100,501,479,62,0,,,,
1,1779307632432,-3053,0,13998,2566855,502131,673173,0,0,0,102,246,33,179,109,119,172,83,113,127,63,39,0,,,,
2,1779307632432,1785,440,9786,-96516,-97738,57421,0,0,0,150,85,112,163,58,90,470,480,108,530,511,87,0,,,,
1,1779307632448,-3455,-129,14491,2967583,632856,812450,0,0,0,94,215,30,152,95,114,181,77,92,136,57,33,0,,,,
2,1779307632448,1794,531,9887,-116064,-76969,48869,0,0,0,163,93,130,150,62,94,522,522,99,552,529,83,0,,,,
1,1779307632464,-3560,-402,14936,3369532,759916,968832,0,0,0,89,204,30,146,74,108,195,68,71,129,49,27,0,,,,
2,1779307632464,1847,574,9978,-86742,-54977,41538,0,0,0,172,94,123,141,61,87,539,539,93,572,551,55,0,,,,
1,1779307632480,-3455,-775,15372,3766595,841772,1121548,0,0,0,57,164,28,108,63,96,189,100,83,111,73,32,0,,,,
2,1779307632480,1895,622,9997,-42760,-50090,36651,0,0,0,186,98,139,154,67,97,553,553,95,582,561,53,0,,,,
1,1779307632496,-3292,-871,15352,4040262,846659,1235169,0,0,0,60,89,26,129,44,66,160,82,53,113,70,44,0,,,,
2,1779307632496,1904,631,9968,-6108,-59864,31764,0,0,0,198,99,163,156,70,99,559,559,94,585,557,55,0,,,,
1,1779307632512,-3388,-981,14749,4181983,883311,1334129,0,0,0,56,50,13,81,31,44,180,76,49,114,38,17,0,,,,
2,1779307632512,1876,626,9925,0,-65973,29321,0,0,0,162,95,155,157,69,112,573,573,119,602,555,71,0,,,,
1,1779307632528,-3742,-1483,14003,4218635,992045,1439198,0,0,0,47,53,2,59,28,33,216,99,41,124,53,4,0,,,,
2,1779307632528,1847,650,9901,4886,-65973,28099,0,0,0,170,107,173,138,67,124,578,578,174,611,564,93,0,,,,
1,1779307632544,-4201,-1923,12184,4092797,1213178,1544267,0,0,0,72,38,16,51,21,38,191,87,53,125,50,20,0,,,,
2,1779307632544,1871,679,9916,28099,-57421,23212,0,0,0,178,94,221,168,64,146,590,590,181,623,576,120,0,,,,
1,1779307632560,-5111,-416,9337,3766595,1357342,1629788,0,0,0,53,28,10,57,26,37,182,97,51,140,78,14,0,,,,
2,1779307632560,1909,670,9944,63529,-54977,17104,0,0,0,191,118,165,153,64,100,602,602,140,634,590,91,0,,,,
1,1779307632576,-6834,6082,7303,2776993,1017701,1519832,0,0,0,45,27,5,60,25,37,188,93,47,144,72,12,0,,,,
2,1779307632576,1919,641,9983,96516,-57421,7330,0,0,0,197,98,215,147,56,118,594,594,162,627,592,95,0,,,,
1,1779307632592,-6972,11576,6657,1016479,414166,994488,0,0,0,48,27,6,65,22,38,190,80,47,146,56,11,0,,,,
2,1779307632592,1899,636,10026,123394,-54977,0,0,0,0,200,88,216,150,60,121,595,595,161,618,579,92,0,,,,
1,1779307632608,-5575,10744,6097,-824668,133168,101403,0,0,0,52,27,5,70,21,36,190,77,45,150,56,10,0,,,,
2,1779307632608,1876,636,10031,147829,-40317,-7330,0,0,0,196,92,226,161,62,132,590,588,163,624,563,105,0,,,,
1,1779307632624,-5752,6073,4513,-1384220,75747,-320093,0,0,0,57,29,5,72,20,33,193,80,43,150,62,11,0,,,,
2,1779307632624,1866,612,9973,172263,-23212,-13439,0,0,0,186,92,231,163,66,140,585,564,163,628,552,110,0,,,,
1,1779307632640,-5647,3986,3910,-1422094,-302989,-291993,0,0,0,60,35,8,75,21,33,197,79,44,152,64,13,0,,,,
2,1779307632640,1847,564,9877,190589,-13439,-18325,0,0,0,188,97,236,162,72,144,585,546,167,625,541,108,0,,,,
1,1779307632656,-4335,4690,4747,-1524719,-724486,-244346,0,0,0,62,35,3,76,21,35,199,75,43,156,61,11,0,,,,
2,1779307632656,1832,521,9782,191811,-6108,-19547,0,0,0,192,104,247,168,70,152,580,529,171,622,529,116,0,,,,
1,1779307632672,-3776,5532,5642,-1940107,-785572,-591317,0,0,0,58,37,7,77,23,43,202,77,52,160,61,8,0,,,,
2,1779307632672,1842,507,9739,184481,-10995,-19547,0,0,0,186,107,263,174,64,169,574,513,182,617,510,132,0,,,,
1,1779307632688,-4044,5594,6235,-2373822,-923628,-1016479,0,0,0,55,37,11,74,19,43,197,79,56,150,63,13,0,,,,
2,1779307632688,1866,497,9729,173485,-36651,-19547,0,0,0,180,110,277,177,57,187,573,505,201,609,485,139,0,,,,
1,1779307632704,-4101,5235,6953,-2687807,-1266934,-1299921,0,0,0,48,32,31,69,17,56,192,75,75,150,59,30,0,,,,
2,1779307632704,1837,469,9729,160046,-65973,-17104,0,0,0,191,121,283,186,50,185,565,493,199,596,478,128,0,,,,
1,1779307632720,-3417,4958,8202,-2960252,-1634675,-1413542,0,0,0,58,41,13,72,23,37,201,82,52,152,63,10,0,,,,
2,1779307632720,1813,430,9724,149051,-80634,-14660,0,0,0,199,129,289,187,54,172,561,476,194,590,472,122,0,,,,
1,1779307632736,-2555,4469,9920,-3290120,-1847256,-1373225,0,0,0,62,38,7,76,18,39,208,80,52,161,58,9,0,,,,
2,1779307632736,1828,411,9734,144164,-84299,-12217,0,0,0,197,140,292,192,58,190,556,462,196,582,460,120,0,,,,
1,1779307632752,-1928,3838,11629,-3599217,-1926668,-1232726,0,0,0,63,36,8,79,21,39,213,75,53,168,57,11,0,,,,
2,1779307632752,1813,406,9767,146607,-85521,-10995,0,0,0,206,152,295,195,75,198,545,452,204,579,464,129,0,,,,
1,1779307632768,-1464,3177,13452,-3877772,-1903456,-1004262,0,0,0,61,36,9,80,22,42,213,74,53,175,61,16,0,,,,
2,1779307632768,1809,402,9820,150272,-83077,-9773,0,0,0,219,175,267,217,95,170,519,440,179,574,451,106,0,,,,
1,1779307632784,-1225,2589,15113,-4112344,-1769065,-818559,0,0,0,56,35,4,76,23,41,202,78,54,160,63,10,0,,,,
2,1779307632784,1813,368,9853,152716,-76969,-8552,0,0,0,223,165,287,219,64,194,536,436,196,561,431,119,0,,,,
1,1779307632800,-1593,1966,16420,-4313930,-1605353,-741590,0,0,0,55,33,7,78,24,46,164,69,58,161,64,13,0,,,,
2,1779307632800,1813,335,9853,153938,-67195,-8552,0,0,0,205,176,305,187,68,207,541,435,217,556,418,129,0,,,,
1,1779307632816,-2608,1234,17482,-4466646,-1512502,-774577,0,0,0,55,35,7,78,23,47,173,71,57,159,63,14,0,,,,
2,1779307632816,1813,320,9853,157603,-56199,-10995,0,0,0,215,162,305,185,73,200,548,422,211,554,390,115,0,,,,
1,1779307632832,-3594,516,18396,-4510628,-1524719,-946841,0,0,0,56,36,9,74,21,46,196,78,55,154,62,14,0,,,,
2,1779307632832,1818,320,9868,171042,-46425,-15882,0,0,0,226,187,332,183,103,215,540,411,207,550,389,113,0,,,,
1,1779307632848,-4498,-378,19363,-4475198,-1579697,-1242499,0,0,0,56,35,12,74,19,47,196,76,57,153,62,11,0,,,,
2,1779307632848,1813,311,9887,193033,-34208,-21991,0,0,0,220,190,317,197,106,234,527,385,237,539,379,123,0,,,,
1,1779307632864,-5120,-1631,20244,-4340808,-1674992,-1615127,0,0,0,56,34,9,76,21,48,199,77,58,154,61,10,0,,,,
2,1779307632864,1828,296,9911,218689,-26878,-30543,0,0,0,224,195,298,221,89,236,513,367,259,523,381,127,0,,,,
1,1779307632880,-5805,-3670,20626,-4127005,-1707979,-1976759,0,0,0,54,33,7,75,23,45,202,82,60,156,61,15,0,,,,
2,1779307632880,1871,272,9930,241902,-32986,-39095,0,0,0,239,215,295,243,104,234,497,336,259,507,380,127,0,,,,
1,1779307632896,-6451,-6121,19980,-3883881,-1705535,-2125811,0,0,0,52,30,10,78,30,48,201,80,65,157,63,18,0,,,,
2,1779307632896,1871,239,9930,261450,-46425,-45204,0,0,0,237,232,295,254,128,249,480,272,257,490,337,133,0,,,,
1,1779307632912,-5910,-8427,18434,-3551570,-1791056,-1938886,0,0,0,52,31,14,76,27,56,197,75,71,159,64,24,0,,,,
2,1779307632912,1842,210,9940,289550,-51312,-53756,0,0,0,222,259,309,249,131,269,474,232,274,470,280,132,0,,,,
1,1779307632928,-3048,-10093,16592,-3036000,-1898569,-1502728,0,0,0,51,27,12,75,23,49,197,78,70,159,62,20,0,,,,
2,1779307632928,1799,162,9949,323758,-45204,-61086,0,0,0,226,298,333,254,141,268,468,231,296,444,247,129,0,,,,
1,1779307632944,-28,-11653,14888,-2531425,-1792278,-1087340,0,0,0,50,30,17,71,23,47,202,78,64,159,63,26,0,,,,
2,1779307632944,1770,86,9949,356745,-31764,-62308,0,0,0,251,304,345,290,143,255,446,197,279,414,214,139,0,,,,
1,1779307632960,2048,-14496,13242,-2092824,-1452637,-596204,0,0,0,45,25,17,75,28,51,203,80,71,157,64,28,0,,,,
2,1779307632960,1809,33,10007,390953,-23212,-62308,0,0,0,259,326,369,302,150,254,437,182,285,400,180,146,0,,,,
1,1779307632976,4058,-18344,12088,-1610240,-1012814,107512,0,0,0,45,31,18,75,28,54,203,84,68,157,67,21,0,,,,
2,1779307632976,1919,-4,10093,433714,-23212,-65973,0,0,0,247,317,391,286,162,279,420,151,296,383,138,149,0,,,,
1,1779307632992,5786,-18956,11576,-753807,-202807,769690,0,0,0,46,28,15,78,26,52,217,77,66,166,62,21,0,,,,
2,1779307632992,2038,-43,10169,496022,-31764,-89186,0,0,0,234,346,396,308,194,298,420,178,311,336,154,161,0,,,,
1,1779307633008,4527,-15644,11083,197920,702495,999375,0,0,0,54,32,20,78,26,54,207,76,68,161,64,23,0,,,,
2,1779307633008,2139,-95,10294,580321,-34208,-133168,0,0,0,221,299,368,324,172,308,394,116,327,290,95,168,0,,,,
1,1779307633024,153,-10212,10442,982271,1284038,817337,0,0,0,59,36,24,81,27,54,205,79,69,157,67,26,0,,,,
2,1779307633024,2258,-157,10557,691499,-47647,-190589,0,0,0,190,327,291,304,222,315,329,124,327,258,105,178,0,,,,
1,1779307633040,-3091,-6886,10150,1287703,1089783,525344,0,0,0,51,36,19,76,31,51,199,88,65,148,70,25,0,,,,
2,1779307633040,2368,-277,10815,863763,-105068,-263893,0,0,0,182,337,242,322,206,333,302,106,319,213,92,182,0,,,,
1,1779307633056,-3551,-4986,10399,1444085,770911,255341,0,0,0,34,34,10,63,34,48,192,137,65,136,89,19,0,,,,
2,1779307633056,2335,-449,10997,1062905,-164933,-344527,0,0,0,193,365,184,350,213,309,305,108,317,223,92,167,0,,,,
1,1779307633072,-2986,-588,11610,1565036,752585,-74525,0,0,0,29,25,2,49,28,35,220,232,50,157,140,8,0,,,,
2,1779307633072,2249,-583,11232,1246165,-197920,-411723,0,0,0,220,339,139,364,203,311,254,90,298,215,85,183,0,,,,
1,1779307633088,-3943,10662,11055,1563815,1485624,-333532,0,0,0,38,22,1,47,23,24,273,331,29,209,231,4,0,,,,
2,1779307633088,2349,-689,11854,1492954,-222354,-486248,0,0,0,206,342,143,368,201,314,196,79,285,212,107,179,0,,,,
1,1779307633104,-2742,12825,8695,1653001,2394591,-290771,0,0,0,46,25,4,56,25,29,340,399,29,257,325,7,0,,,,
2,1779307633104,2656,-717,12639,1794722,-291993,-568104,0,0,0,197,353,132,338,193,324,165,77,257,173,101,168,0,,,,
1,1779307633120,-105,4283,9940,2354274,2714685,169820,0,0,0,50,14,5,69,22,37,429,429,36,307,376,2,0,,,,
2,1779307633120,3029,-722,13701,2212553,-433714,-684169,0,0,0,204,358,99,302,189,310,161,92,217,139,83,150,0,,,,
1,1779307633136,57,-732,15281,2989574,2048842,553443,0,0,0,44,9,0,69,23,36,452,452,40,384,412,6,0,,,,
2,1779307633136,3330,-588,15238,2781880,-603534,-833220,0,0,0,212,345,85,292,188,242,173,110,187,140,82,111,0,,,,
1,1779307633152,-1761,540,17875,2592512,1055575,460592,0,0,0,58,26,7,76,35,36,470,470,44,422,423,13,0,,,,
2,1779307633152,3948,-416,17080,3468492,-794124,-993266,0,0,0,204,290,100,270,157,192,179,88,162,111,61,76,0,,,,
1,1779307633168,-2713,1756,15692,1738522,327423,118507,0,0,0,96,31,18,81,24,44,480,480,39,430,430,8,0,,,,
2,1779307633168,5092,-177,19138,4340808,-1011592,-1219287,0,0,0,138,252,134,202,138,220,156,54,150,80,44,76,0,,,,
1,1779307633184,-2234,1641,11610,1213178,83077,-144164,0,0,0,143,65,39,55,0,31,521,521,47,446,446,0,0,,,,
2,1779307633184,5891,-76,20952,5240002,-1164309,-1524719,0,0,0,128,223,115,155,120,177,131,44,134,76,33,77,0,,,,
1,1779307633200,-1981,1244,9624,977384,-3665,-237015,0,0,0,137,46,39,82,21,37,541,541,56,463,457,1,0,,,,
2,1779307633200,6058,43,22493,6021909,-1139874,-1813048,0,0,0,142,167,83,135,81,127,101,58,88,58,32,53,0,,,,
1,1779307633216,-2091,579,9729,741590,0,-218689,0,0,0,132,49,114,91,12,64,550,550,120,480,479,46,0,,,,
2,1779307633216,5958,832,22196,6491054,-807563,-2039068,0,0,0,56,108,30,77,72,52,122,107,79,80,96,22,0,,,,
1,1779307633232,-2177,478,10107,373849,63529,-153938,0,0,0,163,76,137,120,29,72,580,580,135,501,486,42,0,,,,
2,1779307633232,5675,1081,19971,6629109,-252898,-2316400,0,0,0,37,45,18,79,59,48,133,99,67,137,122,13,0,,,,
1,1779307633248,-2081,827,10078,118507,131946,-83077,0,0,0,167,65,183,143,36,106,599,599,157,521,505,62,0,,,,
2,1779307633248,5441,1110,15759,6432410,1221,-2585181,0,0,0,49,38,21,71,35,43,178,111,68,155,140,22,0,,,,
1,1779307633264,-1871,1249,9959,19547,163711,-24434,0,0,0,172,70,213,145,34,138,605,605,188,525,506,72,0,,,,
2,1779307633264,5250,3441,9614,5762902,-400727,-2784323,0,0,0,57,42,18,79,35,43,200,118,68,146,117,21,0,,,,
1,1779307633280,-1818,1378,10117,47647,127059,-4886,0,0,0,186,82,204,143,43,132,615,615,182,536,510,58,0,,,,
2,1779307633280,6001,11619,7087,3676187,-948062,-2726902,0,0,0,59,43,18,75,34,43,200,111,67,141,108,13,0,,,,
1,1779307633296,-1866,1430,10308,129503,57421,14660,0,0,0,186,123,201,137,51,126,616,616,180,542,508,58,0,,,,
2,1779307633296,5470,16802,7623,542448,-990823,-2225992,0,0,0,64,43,17,85,30,38,202,109,60,136,112,14,0,,,,
1,1779307633312,-1818,1435,10294,224798,-15882,43982,0,0,0,173,162,209,133,56,135,609,609,189,542,503,74,0,,,,
2,1779307633312,4120,14089,7245,-2421469,-995710,-1231504,0,0,0,56,43,27,91,34,60,184,109,75,126,117,31,0,,,,
1,1779307633328,-1789,1330,10150,293215,-87964,64751,0,0,0,167,172,210,139,75,138,602,602,189,537,495,82,0,,,,
2,1779307633328,5173,7810,4359,-3183829,-962723,-300545,0,0,0,41,46,43,76,40,90,158,110,100,114,117,48,0,,,,
1,1779307633344,-1923,1196,9997,310319,-118507,68416,0,0,0,170,175,189,147,84,128,591,591,168,521,471,70,0,,,,
2,1779307633344,6757,4938,2775,-3199712,-382401,333532,0,0,0,37,51,41,62,42,83,151,114,100,113,117,43,0,,,,
1,1779307633360,-2033,1119,9873,305432,-103847,73303,0,0,0,177,172,148,148,54,119,577,577,133,505,444,47,0,,,,
2,1779307633360,6767,5374,3910,-3343876,431270,769690,0,0,0,44,53,26,66,44,58,156,114,80,123,121,29,0,,,,
1,1779307633376,-2014,1076,9758,283441,-62308,81855,0,0,0,182,175,126,146,54,107,560,560,124,488,419,46,0,,,,
2,1779307633376,5972,5532,5876,-3852116,797790,1286482,0,0,0,52,52,27,72,41,58,168,113,76,132,119,26,0,,,,
1,1779307633392,-1895,1014,9652,248011,-46425,85521,0,0,0,188,184,110,159,64,98,548,548,115,480,397,72,0,,,,
2,1779307633392,6006,4742,7030,-4266282,957836,1723861,0,0,0,49,47,22,75,41,58,171,117,80,134,122,27,0,,,,
1,1779307633408,-1828,957,9609,202807,-57421,83077,0,0,0,185,178,97,161,50,103,536,536,118,470,384,71,0,,,,
2,1779307633408,6369,3675,7867,-4528954,1224173,1982868,0,0,0,43,50,27,66,48,56,160,123,77,118,126,27,0,,,,
1,1779307633424,-1823,923,9614,151494,-79412,79412,0,0,0,172,166,92,161,55,107,536,536,130,464,385,48,0,,,,
2,1779307633424,6010,3340,9164,-4681671,1578475,2035402,0,0,0,37,55,27,64,50,53,157,131,78,114,133,22,0,,,,
1,1779307633440,-1852,909,9619,101403,-100181,76969,0,0,0,160,156,92,158,106,105,531,531,142,458,375,41,0,,,,
2,1779307633440,5355,3330,10758,-4868595,1804495,2068389,0,0,0,37,57,27,63,52,58,149,145,78,114,145,27,0,,,,
1,1779307633456,-1828,871,9590,53756,-119729,74525,0,0,0,161,159,102,152,109,111,516,517,145,453,372,44,0,,,,
2,1779307633456,4781,3201,12701,-5132489,1923003,2122145,0,0,0,37,59,22,62,55,53,150,147,73,121,146,32,0,,,,
1,1779307633472,-1823,875,9600,-1221,-141720,67195,0,0,0,154,155,113,147,110,116,517,518,161,444,382,48,0,,,,
2,1779307633472,4393,2435,14845,-5338962,2037846,2157576,0,0,0,42,58,21,69,52,55,167,142,78,124,132,29,0,,,,
1,1779307633488,-1890,961,9619,-52534,-142942,54977,0,0,0,156,148,120,155,109,123,528,528,174,454,416,65,0,,,,
2,1779307633488,3819,1359,17032,-5356066,2149023,2140471,0,0,0,44,53,23,69,50,58,170,136,82,125,123,32,0,,,,
1,1779307633504,-1947,1076,9643,-70860,-128281,46425,0,0,0,156,141,132,148,77,134,527,527,184,455,408,65,0,,,,
2,1779307633504,3086,598,19516,-5189911,2184454,2078163,0,0,0,46,52,24,73,47,59,173,124,80,140,106,33,0,,,,
1,1779307633520,-1957,1119,9734,-35430,-116064,45204,0,0,0,153,132,145,142,72,150,528,528,193,455,399,64,0,,,,
2,1779307633520,2680,1139,22349,-5147150,2040289,2090380,0,0,0,48,52,26,75,44,57,176,116,80,135,98,30,0,,,,
1,1779307633536,-1952,1072,9791,1221,-118507,51312,0,0,0,159,134,168,138,68,156,528,528,197,458,402,66,0,,,,
2,1779307633536,2833,1545,24958,-5330410,1806939,2213775,0,0,0,51,51,27,79,45,59,182,112,80,137,98,27,0,,,,
1,1779307633552,-1976,985,9739,4886,-117286,57421,0,0,0,159,144,168,134,63,146,525,525,193,460,397,65,0,,,,
2,1779307633552,3742,196,27389,-5635842,1517389,2438574,0,0,0,52,50,28,79,46,63,180,111,82,137,100,30,0,,,,
1,1779307633568,-2010,938,9724,-1221,-114842,65973,0,0,0,157,140,185,131,61,148,520,520,210,454,384,72,0,,,,
2,1779307633568,4781,-4039,28054,-5627290,1375668,2477669,0,0,0,53,51,32,73,46,66,179,111,85,133,99,31,0,,,,
1,1779307633584,-2043,961,9782,0,-113620,84299,0,0,0,166,131,248,131,57,163,517,517,240,447,377,85,0,,,,
2,1779307633584,5647,-9944,26752,-5371948,1243721,2163684,0,0,0,57,52,36,79,44,67,189,109,85,143,99,30,0,,,,
1,1779307633600,-2077,1028,9887,29321,-111177,109955,0,0,0,171,144,245,148,73,160,525,525,226,455,376,81,0,,,,
2,1779307633600,5723,-16759,22407,-4829500,1123992,1270599,0,0,0,54,50,35,91,39,73,187,109,86,150,106,36,0,,,,
1,1779307633616,-2091,1072,9906,103847,-91629,134390,0,0,0,188,147,182,215,89,172,526,526,231,459,360,77,0,,,,
2,1779307633616,2861,-20894,17429,-3893655,1241278,36651,0,0,0,44,51,35,80,40,78,172,115,92,136,112,39,0,,,,
1,1779307633632,-2096,1081,9844,190589,-57421,145385,0,0,0,185,172,181,194,88,174,507,507,247,447,317,74,0,,,,
2,1779307633632,-2359,-23053,14276,-2709798,1313360,-1078788,0,0,0,44,51,36,78,45,80,166,117,92,137,115,36,0,,,,
1,1779307633648,-2057,1091,9806,288328,-18325,139277,0,0,0,193,170,214,203,88,192,493,492,258,422,290,87,0,,,,
2,1779307633648,-7642,-24618,13510,-1558928,934623,-1618792,0,0,0,39,50,38,66,39,75,153,112,96,153,122,41,0,,,,
1,1779307633664,-1976,1081,9959,404392,-6108,118507,0,0,0,200,191,225,215,91,197,465,448,231,403,234,135,0,,,,
2,1779307633664,-8102,-25240,13022,-472809,75747,-1501506,0,0,0,40,54,42,71,40,76,155,104,92,164,121,46,0,,,,
1,1779307633680,-1966,1076,10227,536339,-39095,102625,0,0,0,211,197,227,223,96,217,447,327,248,384,183,122,0,,,,
2,1779307633680,-5206,-22392,12256,638965,-696386,-1259604,0,0,0,44,54,43,70,41,83,142,101,95,163,123,46,0,,,,
1,1779307633696,-2144,1033,10552,692721,-114842,112399,0,0,0,175,213,240,244,120,264,421,233,265,307,115,157,0,,,,
2,1779307633696,-1153,-16616,11849,1574810,-1095892,-981049,0,0,0,38,47,39,65,39,76,152,120,89,128,122,37,0,,,,
1,1779307633712,-2440,875,10801,847880,-156381,156381,0,0,0,160,213,190,270,132,294,409,158,275,279,90,191,0,,,,
2,1779307633712,1574,-7188,13663,2131919,-1131322,-472809,0,0,0,32,40,13,57,43,35,187,190,57,145,203,16,0,,,,
1,1779307633728,-2809,708,11050,1061683,-146607,240680,0,0,0,140,232,109,312,136,312,371,114,285,222,77,186,0,,,,
2,1779307633728,4503,7958,13811,2452013,-1423316,332310,0,0,0,31,36,2,62,49,29,203,277,47,156,260,11,0,,,,
1,1779307633744,-2981,545,11533,1329242,-145385,361632,0,0,0,120,259,81,319,164,347,300,102,293,179,84,210,0,,,,
2,1779307633744,5250,16104,8815,2630385,-1903456,1193630,0,0,0,29,45,3,84,59,47,214,362,51,230,347,17,0,,,,
1,1779307633760,-2933,373,12658,1747074,-164933,488692,0,0,0,122,278,81,319,177,360,243,77,285,178,77,220,0,,,,
2,1779307633760,210,4532,9375,3387858,-1885130,1000597,0,0,0,34,38,6,110,60,63,249,416,64,336,421,25,0,,,,
1,1779307633776,-2866,425,13586,2206445,-138055,594982,0,0,0,124,293,73,329,180,352,209,59,266,174,64,212,0,,,,
2,1779307633776,-3082,-1842,15118,3920533,-1459967,295658,0,0,0,58,33,13,128,52,71,318,451,63,442,474,36,0,,,,
1,1779307633792,-3225,607,14122,2671924,-90408,717155,0,0,0,124,292,72,302,169,342,187,62,262,148,58,206,0,,,,
2,1779307633792,-1507,-459,19918,3694512,-990823,-482583,0,0,0,75,35,27,131,46,92,379,466,78,512,512,52,0,,,,
1,1779307633808,-3914,679,15118,3233920,-37873,924849,0,0,0,125,248,75,253,145,304,166,64,275,112,51,170,0,,,,
2,1779307633808,2636,981,18578,2816088,-734260,-547335,0,0,0,73,35,42,116,43,101,417,468,100,525,525,62,0,,,,
1,1779307633824,-4757,832,16511,3922976,116064,1156978,0,0,0,102,195,74,223,147,253,147,77,267,76,51,119,0,,,,
2,1779307633824,3953,483,14209,1750739,-505796,-74525,0,0,0,99,54,62,108,35,72,470,499,73,544,544,63,0,,,,
1,1779307633840,-5982,990,18056,4741535,373849,1450194,0,0,0,87,185,72,164,131,219,160,86,213,66,57,94,0,,,,
2,1779307633840,2167,153,10557,977384,-328645,244346,0,0,0,137,57,75,130,25,78,509,510,78,558,558,71,0,,,,
1,1779307633856,-6748,808,20057,5508782,531452,1811826,0,0,0,83,166,41,138,97,155,160,76,151,61,35,61,0,,,,
2,1779307633856,1689,272,9691,504574,-226020,174707,0,0,0,139,59,84,140,35,76,514,520,101,592,592,60,0,,,,
1,1779307633872,-6719,808,22273,6147747,564439,2113593,0,0,0,52,89,54,78,55,143,136,56,155,60,28,76,0,,x,,
2,1779307633872,1962,435,9868,174707,-213802,84299,0,0,0,130,62,173,139,34,113,559,559,119,608,608,111,0,,x,,
1,1779307633888,-6341,1301,23340,6688974,487470,2337170,0,0,0,24,58,46,44,37,123,103,64,138,41,42,43,0,,,,
2,1779307633888,2081,717,10212,-17104,-211359,50090,0,0,0,142,62,125,147,51,103,575,575,100,624,624,86,0,,,,
1,1779307633904,-6144,1981,22670,6946759,546113,2483778,0,0,0,27,40,9,66,15,52,135,41,51,116,33,8,0,,,,
2,1779307633904,2000,1028,10059,-72082,-141720,58643,0,0,0,140,64,174,143,55,123,574,574,135,639,639,131,0,,,,
1,1779307633920,-6771,2345,20071,7012732,955393,2588846,0,0,0,34,31,11,42,24,29,139,104,44,97,74,0,0,,,,
2,1779307633920,2067,1196,9930,-75747,-107512,56199,0,0,0,148,69,132,156,51,108,586,586,113,645,645,111,0,,,,
1,1779307633936,-8561,3402,13950,6831916,1455080,2695137,0,0,0,34,36,14,43,35,55,144,141,63,121,106,16,0,,,,
2,1779307633936,2096,1287,10002,-45204,-122173,35430,0,0,0,148,71,140,152,47,111,582,582,114,643,643,109,0,,,,
1,1779307633952,-10830,7413,7820,6147747,1246165,2879618,0,0,0,28,37,11,44,39,58,136,140,61,115,107,16,0,,,,
2,1779307633952,1976,1387,10098,19547,-111177,12217,0,0,0,141,78,157,139,51,120,579,579,133,646,646,124,0,,,,
1,1779307633968,-10356,13955,6341,4129449,256563,2658485,0,0,0,34,38,17,44,32,58,143,132,64,128,103,15,0,,,,
2,1779307633968,1909,1387,10045,109955,-46425,-1221,0,0,0,146,104,138,145,65,110,572,572,126,637,637,100,0,,,,
1,1779307633984,-5049,17410,7920,21991,-75747,959058,0,0,0,47,43,12,49,33,45,155,123,54,146,95,10,0,,,,
2,1779307633984,1928,1344,9944,188146,1221,-8552,0,0,0,149,110,143,165,66,111,558,559,115,625,625,97,0,,,,
1,1779307634000,-2747,12763,7733,-3274237,1016479,-1181413,0,0,0,46,42,10,53,37,38,154,124,49,143,98,11,0,,,,
2,1779307634000,1957,1320,9868,255341,18325,-10995,0,0,0,147,99,150,171,59,120,545,546,105,613,613,95,0,,,,
1,1779307634016,-7054,6192,4886,-3660304,1562593,-1670105,0,0,0,46,37,12,54,38,41,150,126,54,140,106,16,0,,,,
2,1779307634016,1995,1234,9834,307876,21991,-13439,0,0,0,152,120,137,166,68,117,539,539,99,598,598,84,0,,,,
1,1779307634032,-9806,3464,3388,-3384193,814894,-1170417,0,0,0,58,36,10,57,34,40,152,124,55,149,105,14,0,,,,
2,1779307634032,2033,1105,9772,323758,13439,-14660,0,0,0,160,161,133,162,83,109,531,531,108,583,583,95,0,,,,
1,1779307634048,-8614,3522,4230,-3192381,-510683,-387288,0,0,0,61,38,9,61,32,38,154,126,52,149,105,13,0,,,,
2,1779307634048,2038,1067,9681,299323,-3665,-14660,0,0,0,158,156,126,154,82,110,515,515,113,563,563,93,0,,,,
1,1779307634064,-5336,4326,6412,-3505144,-808785,-388510,0,0,0,58,35,3,65,34,38,161,125,51,151,105,11,0,,,,
2,1779307634064,2043,1091,9667,287106,-23212,-17104,0,0,0,168,127,127,181,73,116,509,509,115,538,536,85,0,,,,
1,1779307634080,-4355,4627,7925,-3998723,-564439,-897971,0,0,0,53,38,8,60,33,38,164,126,55,149,103,11,0,,,,
2,1779307634080,2010,1100,9724,307876,-34208,-30543,0,0,0,175,117,130,212,66,115,491,487,114,514,495,82,0,,,,
1,1779307634096,-6006,4278,8801,-4627915,-532674,-1631010,0,0,0,45,44,11,50,34,39,157,126,59,148,100,9,0,,,,
2,1779307634096,1962,1028,9715,322536,-19547,-45204,0,0,0,164,117,154,180,67,144,467,447,155,506,486,104,0,,,,
1,1779307634112,-6733,3412,9911,-5082398,-1159422,-1955990,0,0,0,45,46,12,49,37,38,159,126,57,151,100,8,0,,,,
2,1779307634112,1962,947,9676,317649,-6108,-51312,0,0,0,175,116,165,213,67,164,458,437,162,470,442,115,0,,,,
1,1779307634128,-6235,2311,11643,-5434257,-1715309,-2106263,0,0,0,48,43,12,49,37,38,159,126,60,152,104,12,0,,,,
2,1779307634128,2024,894,9648,301767,-13439,-51312,0,0,0,158,117,197,182,73,206,450,407,198,452,403,129,0,,,,
1,1779307634144,-5522,1239,13682,-5632177,-1903456,-2094046,0,0,0,49,44,11,50,37,38,161,128,61,148,102,10,0,,,,
2,1779307634144,2053,875,9652,296880,-45204,-50090,0,0,0,174,146,156,206,90,187,441,370,168,447,388,108,0,,,,
1,1779307634160,-5374,296,15692,-5722585,-1941329,-1948660,0,0,0,48,44,10,48,35,37,162,130,62,153,106,15,0,,,,
2,1779307634160,2000,827,9696,300545,-73303,-50090,0,0,0,166,158,181,205,110,207,430,333,195,434,362,126,0,,,,
1,1779307634176,-5226,-392,17540,-5723807,-2021963,-1692096,0,0,0,52,48,16,51,38,40,162,128,64,143,100,13,0,,,,
2,1779307634176,1938,770,9748,306654,-79412,-52534,0,0,0,194,178,184,213,109,214,428,327,197,428,348,122,0,,,,
1,1779307634192,-4589,-933,19794,-5632177,-2070833,-1397659,0,0,0,51,48,14,51,37,40,163,128,63,142,99,14,0,,,,
2,1779307634192,1933,717,9796,315206,-59864,-54977,0,0,0,221,162,188,239,97,217,424,293,195,421,315,118,0,,,,
1,1779307634208,-3847,-1421,21689,-5492900,-2025629,-1301142,0,0,0,46,45,9,52,37,38,163,128,61,145,104,18,0,,,,
2,1779307634208,1971,674,9868,335975,-32986,-62308,0,0,0,215,162,225,241,101,229,420,265,214,412,292,122,0,,,,
1,1779307634224,-3225,-2215,23297,-5313305,-1908343,-1481959,0,0,0,45,45,11,50,36,35,162,130,61,145,104,14,0,,,,
2,1779307634224,2081,641,9940,364075,-21991,-73303,0,0,0,202,195,263,226,114,250,415,246,233,405,282,129,0,,,,
1,1779307634240,-3249,-3881,24623,-5098281,-1737300,-1929112,0,0,0,46,46,14,50,36,36,163,132,61,146,100,8,0,,,,
2,1779307634240,2225,598,9973,398284,-51312,-96516,0,0,0,211,215,270,239,118,274,409,207,244,396,245,133,0,,,,
1,1779307634256,-4350,-6704,25474,-4952895,-1617571,-2392148,0,0,0,42,43,9,56,40,40,167,135,56,144,99,10,0,,,,
2,1779307634256,2321,536,10002,438601,-103847,-127059,0,0,0,222,236,274,271,130,278,406,188,254,362,193,134,0,,,,
1,1779307634272,-6743,-11194,24374,-5018868,-1534493,-2365270,0,0,0,41,43,9,55,42,38,167,140,56,135,98,10,0,,,,
2,1779307634272,2349,488,10112,494800,-150272,-166155,0,0,0,229,279,279,298,164,263,392,183,239,303,169,149,0,,,,
1,1779307634288,-8001,-16530,21521,-4962669,-1585806,-1740965,0,0,0,47,47,13,53,41,34,163,136,61,132,98,8,0,,,,
2,1779307634288,2292,425,10337,588874,-146607,-217468,0,0,0,231,311,263,318,200,252,367,184,239,301,147,173,0,,,,
1,1779307634304,-4446,-21564,18133,-4439768,-2003637,-662177,0,0,0,48,50,11,54,44,39,162,136,62,133,101,6,0,,,,
2,1779307634304,2234,358,10533,712268,-96516,-268780,0,0,0,238,310,246,344,185,282,351,108,251,254,94,159,0,,,,
1,1779307634320,4359,-25269,16180,-3282789,-2102598,6108,0,0,0,39,43,10,53,39,43,160,136,70,140,107,14,0,,,,
2,1779307634320,2230,272,10796,893084,-47647,-323758,0,0,0,232,326,200,352,203,290,334,108,248,232,76,163,0,,,,
1,1779307634336,9830,-28288,14716,-2084272,-1359786,45204,0,0,0,41,45,11,48,35,36,167,142,79,139,108,10,0,,,,
2,1779307634336,2249,148,11217,1139874,-31764,-364075,0,0,0,241,356,167,357,201,293,330,91,248,230,85,191,0,,,,
1,1779307634352,9542,-30356,12983,-759916,37873,-141720,0,0,0,46,46,12,53,39,41,175,164,75,134,100,12,0,,,,
2,1779307634352,2316,28,11792,1434311,-12217,-411723,0,0,0,250,336,131,367,222,313,245,99,289,193,106,208,0,,,,
1,1779307634368,6331,-28087,12222,421497,913854,58643,0,0,0,36,52,8,48,33,32,170,135,59,141,100,8,0,,,,
2,1779307634368,2517,-134,12481,1802052,26878,-483805,0,0,0,241,333,136,352,204,332,238,119,274,179,106,197,0,,,,
1,1779307634384,3196,-19478,13711,1621236,1420872,428827,0,0,0,34,29,19,50,23,58,221,181,103,161,139,18,0,,,,
2,1779307634384,2751,-291,12988,2210110,34208,-594982,0,0,0,238,331,110,354,200,308,242,103,265,186,93,188,0,,,,
1,1779307634400,-2282,-1789,15625,2353052,2056172,500909,0,0,0,23,14,13,32,13,49,285,292,84,171,223,14,0,,,,
2,1779307634400,2780,-315,13467,2624277,-35430,-702495,0,0,0,242,333,107,349,193,294,213,97,249,174,82,200,0,,,,
1,1779307634416,-7087,17181,11844,2416582,3017674,268780,0,0,0,29,12,3,46,22,33,325,371,44,177,291,3,0,,,,
2,1779307634416,2871,-325,13988,3103195,-162490,-802676,0,0,0,265,333,107,342,203,299,192,91,245,171,69,221,0,,,,
1,1779307634432,-4771,11155,8413,2955366,3555235,43982,0,0,0,38,12,4,70,24,57,396,416,39,270,367,5,0,,,,
2,1779307634432,3393,-459,14702,3634648,-249233,-927293,0,0,0,266,296,113,329,190,307,177,80,263,152,63,211,0,,,,
1,1779307634448,-579,62,12457,4241848,2840523,-89186,0,0,0,36,6,7,79,26,92,455,455,71,340,411,12,0,,,,
2,1779307634448,4513,-512,16209,4306599,-304210,-1154535,0,0,0,218,251,122,302,163,288,154,70,262,101,63,144,0,,,,
1,1779307634464,1880,-2646,20009,4803844,1295034,-17104,0,0,0,35,2,6,80,24,100,493,493,84,388,431,13,0,,,,
2,1779307634464,5848,-775,18487,5037194,-395840,-1451415,0,0,0,161,223,101,266,164,223,145,68,213,74,58,74,0,,,,
1,1779307634480,57,622,21210,3892433,629191,337197,0,0,0,59,28,12,98,31,101,517,517,83,441,452,10,0,,,,
2,1779307634480,6566,-1258,21703,5740911,-560774,-1723861,0,0,0,127,170,71,221,134,164,149,77,156,76,52,59,0,,,,
1,1779307634496,-2526,1100,17951,2631607,430049,321315,0,0,0,98,72,24,118,44,95,526,526,85,465,465,5,0,,,,
2,1779307634496,7580,-961,25068,6459289,-654847,-1977981,0,0,0,110,138,56,169,87,123,135,62,108,68,38,44,0,,,,
1,1779307634512,-2943,-201,13046,1452637,224798,-128281,0,0,0,121,94,37,120,46,88,538,538,100,469,469,7,0,,,,
2,1779307634512,8202,282,26499,6995628,-465479,-2238210,0,0,0,63,85,44,107,53,69,110,65,77,54,41,15,0,,,,
1,1779307634528,-1732,-272,10327,772133,4886,-282219,0,0,0,125,96,60,129,41,127,560,560,160,481,481,24,0,,,,
2,1779307634528,8470,1100,25766,7298617,18325,-2604729,0,0,0,26,36,12,51,42,42,125,111,61,74,77,19,0,,,,
1,1779307634544,-1555,62,9897,376292,-8552,-179594,0,0,0,147,92,88,139,44,145,572,572,206,481,481,38,0,,,,
2,1779307634544,8853,2699,21196,7252192,518013,-3025004,0,0,0,44,36,26,60,27,56,151,105,92,78,72,30,0,,,,
1,1779307634560,-1818,430,10394,150272,80634,-69638,0,0,0,177,101,154,149,59,151,594,594,221,497,497,38,0,,,,
2,1779307634560,8322,7169,12203,6417750,445931,-3386636,0,0,0,33,32,25,54,28,58,140,101,85,89,74,39,0,,,,
1,1779307634576,-1962,665,10394,85521,97738,-39095,0,0,0,205,135,123,184,59,156,615,615,207,515,514,24,0,,,,
2,1779307634576,6661,14036,8638,4144109,-252898,-3285233,0,0,0,52,34,29,63,29,50,136,93,70,90,75,30,0,,,,
1,1779307634592,-1928,842,10217,107512,87964,-13439,0,0,0,215,135,135,186,54,182,589,589,218,519,514,45,0,,,,
2,1779307634592,3910,17808,11112,-23212,-1242499,-2026850,0,0,0,53,41,31,59,35,53,138,98,67,89,81,28,0,,,,
1,1779307634608,-1727,976,10279,195476,59864,23212,0,0,0,228,132,120,188,48,155,594,594,193,514,495,52,0,,,,
2,1779307634608,3254,13682,10045,-3236364,-2332283,-555887,0,0,0,47,47,33,60,41,60,140,101,73,89,81,27,0,,,,
1,1779307634624,-1579,1038,10495,299323,-12217,56199,0,0,0,202,132,100,195,52,169,567,567,201,483,451,60,0,,,,
2,1779307634624,5905,6724,4647,-3704286,-2619390,41538,0,0,0,57,46,33,81,41,63,161,105,79,98,79,23,0,,,,
1,1779307634640,-1608,1038,10385,397062,-117286,70860,0,0,0,193,138,105,191,74,188,544,544,222,456,414,58,0,,,,
2,1779307634640,8279,3996,966,-3391523,-1844813,64751,0,0,0,72,42,30,99,39,62,181,106,78,106,77,20,0,,,,
1,1779307634656,-1708,990,10155,467922,-185703,75747,0,0,0,178,136,108,192,71,174,511,511,232,430,383,62,0,,,,
2,1779307634656,8217,5494,1392,-3485597,-433714,21991,0,0,0,75,42,34,95,39,61,180,104,76,118,78,22,0,,,,
1,1779307634672,-1832,875,9959,509461,-199142,76969,0,0,0,169,137,89,197,95,165,487,487,220,413,335,66,0,,,,
2,1779307634672,6178,6685,4216,-4300491,482583,456927,0,0,0,69,47,39,81,38,59,171,106,75,119,86,28,0,,,,
1,1779307634688,-1876,641,9767,485026,-164933,83077,0,0,0,169,150,92,190,98,168,473,473,212,401,296,61,0,,,,
2,1779307634688,5427,5781,5891,-4913799,679282,1029918,0,0,0,60,51,39,73,38,59,159,111,77,102,92,28,0,,,,
1,1779307634704,-1895,435,9590,431270,-133168,91629,0,0,0,158,157,89,186,101,187,465,465,216,397,289,61,0,,,,
2,1779307634704,6240,3833,6293,-5081177,803898,1429424,0,0,0,49,52,40,65,36,63,145,121,82,92,90,30,0,,,,
1,1779307634720,-1919,358,9495,364075,-112399,97738,0,0,0,146,148,89,187,103,192,455,443,230,389,292,67,0,,,,
2,1779307634720,6355,3091,7269,-5018868,1298699,1503950,0,0,0,51,46,36,68,35,62,158,127,78,95,84,29,0,,,,
1,1779307634736,-1943,382,9547,293215,-79412,103847,0,0,0,149,144,98,184,98,181,444,409,236,370,289,68,0,,,,
2,1779307634736,5518,3531,9083,-5133711,1709200,1518610,0,0,0,64,47,34,81,34,61,174,125,77,104,84,24,0,,,,
1,1779307634752,-1928,397,9638,244346,-42760,108734,0,0,0,156,148,104,184,100,181,436,384,227,350,277,70,0,,,,
2,1779307634752,4867,3996,11069,-5502674,1835039,1583362,0,0,0,54,50,50,72,37,76,159,117,90,102,85,40,0,,,,
1,1779307634768,-1856,358,9667,210137,-18325,106290,0,0,0,152,144,109,195,105,190,434,384,227,339,252,72,0,,,,
2,1779307634768,5120,3460,12567,-5773898,1926668,1606575,0,0,0,54,50,39,72,40,69,160,119,83,103,90,32,0,,,,
1,1779307634784,-1789,330,9662,193033,-15882,98960,0,0,0,142,150,100,196,113,204,440,411,222,333,225,58,0,,,,
2,1779307634784,5288,2837,14620,-5924171,2157576,1540602,0,0,0,55,50,38,73,45,69,161,122,87,100,91,28,0,,,,
1,1779307634800,-1761,311,9710,190589,-23212,87964,0,0,0,149,163,106,193,108,208,434,386,240,326,224,69,0,,,,
2,1779307634800,4972,2593,17343,-5966931,2409252,1403768,0,0,0,57,51,45,73,43,72,160,119,88,100,84,29,0,,,,
1,1779307634816,-1746,291,9796,194255,-35430,79412,0,0,0,170,159,102,206,108,195,431,360,235,346,218,72,0,,,,
2,1779307634816,4493,2804,21416,-6090326,2506990,1390329,0,0,0,58,50,43,73,40,70,160,119,87,101,82,33,0,,,,
1,1779307634832,-1756,263,9877,205250,-56199,76969,0,0,0,148,195,106,205,123,220,432,374,263,301,223,75,0,,,,
2,1779307634832,4245,2814,25647,-6265033,2476447,1688431,0,0,0,55,50,42,70,40,69,156,114,84,109,82,34,0,,,,
1,1779307634848,-1818,239,9906,223576,-74525,81855,0,0,0,162,195,122,220,103,233,424,305,279,283,170,87,0,,,,
2,1779307634848,4379,1172,29389,-6354220,2409252,2373822,0,0,0,51,47,37,70,41,66,159,110,86,102,81,30,0,,,,
1,1779307634864,-1880,191,9868,241902,-79412,97738,0,0,0,161,197,143,223,83,248,416,248,267,289,147,89,0,,,,
2,1779307634864,5039,-3675,32203,-6180734,2466673,3117856,0,0,0,63,42,29,84,37,61,183,105,81,111,76,25,0,,,,
1,1779307634880,-1914,95,9820,252898,-78190,117286,0,0,0,168,217,115,227,91,266,420,245,291,298,157,102,0,,,,
2,1779307634880,5642,-12787,32864,-5676159,2361605,3218038,0,0,0,65,52,32,84,45,71,180,132,86,110,92,29,0,,,,
1,1779307634896,-1966,38,9796,265115,-68416,139277,0,0,0,180,229,110,248,102,274,418,213,302,283,147,103,0,,,,
2,1779307634896,6992,-24273,28255,-4985882,1677435,2381152,0,0,0,51,57,42,76,52,87,155,141,96,95,97,33,0,,,,
1,1779307634912,-1995,47,9882,291993,-52534,157603,0,0,0,177,221,149,250,105,306,418,184,333,247,141,136,0,,,,
2,1779307634912,6446,-33936,18793,-3938859,1329242,469144,0,0,0,47,45,49,87,46,94,154,110,96,98,79,33,0,,,,
1,1779307634928,-1995,100,10107,340862,-40317,167377,0,0,0,187,216,143,270,109,305,417,178,331,215,118,157,0,,,,
2,1779307634928,-4158,-36692,14103,-2268753,2018298,-1788613,0,0,0,50,55,57,95,57,103,156,138,105,100,97,43,0,,,,
1,1779307634944,-1943,119,10366,439822,-64751,179594,0,0,0,195,214,129,279,114,314,413,143,341,203,96,184,0,,,,
2,1779307634944,-14381,-35065,15955,-841772,1528384,-2565634,0,0,0,60,51,51,108,50,93,166,136,93,108,101,35,0,,,,
1,1779307634960,-1837,67,10514,561996,-125838,194255,0,0,0,184,214,122,279,129,339,394,109,351,186,81,209,0,,,,
2,1779307634960,-13979,-30983,17444,388510,-442266,-1993864,0,0,0,35,32,12,77,51,65,186,145,69,130,153,18,0,,,,
1,1779307634976,-1943,19,10815,734260,-202807,207694,0,0,0,159,232,117,275,143,362,354,97,362,147,63,241,0,,,,
2,1779307634976,-4584,-16128,18913,1903456,-2445904,-910189,0,0,0,38,32,4,63,40,25,230,246,38,190,279,3,0,,,,
1,1779307634992,-2579,0,11653,1078788,-252898,265115,0,0,0,139,252,100,294,140,360,308,87,361,124,48,263,0,,,,
2,1779307634992,3594,7566,15357,3219259,-3897320,276111,0,0,0,33,13,0,91,31,43,283,375,46,218,387,18,0,,,,
1,1779307635008,-2861,-57,12591,1505171,-300545,384845,0,0,0,137,230,72,330,132,341,262,73,332,137,48,265,0,,,,
2,1779307635008,2742,10576,10839,3996280,-3681073,955393,0,0,0,36,14,3,89,35,45,317,430,54,327,430,13,0,,,,
1,1779307635024,-2651,-62,13759,2084272,-409279,552222,0,0,0,131,205,69,300,156,346,208,64,336,132,53,287,0,,,,
2,1779307635024,-2522,2392,14295,4890587,-2377487,830776,0,0,0,62,32,15,119,37,67,359,470,46,404,488,23,0,,,,
1,1779307635040,-3091,148,15137,2687807,-576656,704938,0,0,0,125,203,68,256,194,324,173,66,303,121,62,257,0,,,,
2,1779307635040,-5455,-3345,23038,5271767,-752585,-216246,0,0,0,59,20,13,134,36,71,457,498,49,499,519,20,0,,,,
1,1779307635056,-4852,708,17434,3540574,-569326,974940,0,0,0,143,159,67,209,125,288,180,65,251,118,63,217,0,,,,
2,1779307635056,-38,-746,24412,4517959,-199142,-1047023,0,0,0,77,41,30,137,30,75,514,522,59,549,549,22,0,,,,
1,1779307635072,-7231,1517,20358,4599815,-219911,1370781,0,0,0,102,144,63,192,101,238,160,46,197,128,54,124,0,,,,
2,1779307635072,5168,392,17123,2905275,-272445,-417831,0,0,0,105,56,66,130,33,83,549,551,81,582,582,32,0,,,,
1,1779307635088,-9093,2129,23335,5694485,322536,1864360,0,0,0,95,90,43,180,100,209,139,51,122,59,25,55,0,,,,
2,1779307635088,4072,-751,11055,1469741,-322536,371406,0,0,0,140,63,144,139,45,99,594,594,111,626,626,63,0,,,,
1,1779307635104,-9222,2067,26451,6779382,700051,2333505,0,0,0,57,60,26,109,61,148,110,36,85,52,15,43,0,,,,
2,1779307635104,1866,-1440,9437,641408,-334754,430049,0,0,0,156,67,215,153,59,122,579,590,173,661,661,115,0,,,,
1,1779307635120,-8691,2206,28676,7612602,715934,2685363,0,0,0,39,64,24,68,45,81,121,53,66,62,35,17,0,,,,
2,1779307635120,1823,-708,10169,211359,-425162,162490,0,0,0,149,70,221,151,68,146,568,581,217,672,672,137,0,,,,
1,1779307635136,-10471,2211,29246,8183150,572991,2972470,0,0,0,28,34,9,38,36,32,122,86,52,62,46,4,0,,,,
2,1779307635136,1938,201,10648,69638,-416610,41538,0,0,0,165,83,213,156,65,149,637,637,195,678,678,116,0,,,,
1,1779307635152,-12969,5159,23905,7946135,610865,3371976,0,0,0,33,33,8,40,36,30,135,102,50,80,72,6,0,,,,
2,1779307635152,2115,703,10552,130725,-270002,34208,0,0,0,179,94,234,166,61,138,637,637,195,676,676,112,0,,,,
1,1779307635168,-13213,11069,13400,6955311,649960,3736051,0,0,0,37,33,9,46,28,38,155,107,53,96,76,13,0,,,,
2,1779307635168,2153,746,10279,256563,-199142,19547,0,0,0,169,113,267,169,81,181,618,611,240,663,663,138,0,,,,
1,1779307635184,-10145,16779,7322,4787961,346971,3304780,0,0,0,44,29,10,52,21,39,174,102,51,115,62,15,0,,,,
2,1779307635184,1995,689,10227,360410,-221133,-15882,0,0,0,179,119,240,188,86,172,602,559,210,640,640,107,0,,,,
1,1779307635200,-5297,18339,7633,1153313,349414,1214400,0,0,0,48,31,10,56,21,37,181,101,45,124,57,11,0,,,,
2,1779307635200,1876,799,10361,444709,-194255,-42760,0,0,0,172,134,250,204,86,190,560,510,225,608,608,139,0,,,,
1,1779307635216,-3259,14405,6369,-1987755,946841,-1119105,0,0,0,43,35,8,56,24,36,184,104,45,122,59,7,0,,,,
2,1779307635216,1866,832,10337,548556,-102625,-48869,0,0,0,192,128,211,200,87,158,538,459,209,554,488,116,0,,,,
1,1779307635232,-5829,7183,2211,-2971248,1314581,-2112371,0,0,0,46,39,8,59,28,37,186,106,50,131,60,7,0,,,,
2,1779307635232,1919,765,10126,649960,-41538,-52534,0,0,0,200,154,236,220,127,173,509,394,216,516,391,110,0,,,,
1,1779307635248,-7432,4087,-215,-2511877,454483,-1492954,0,0,0,53,42,7,58,31,36,184,115,49,144,68,10,0,,,,
2,1779307635248,1861,492,9858,691499,-25656,-62308,0,0,0,219,204,233,260,149,173,481,324,202,479,333,96,0,,,,
1,1779307635264,-3881,5455,1387,-2431243,-568104,-894306,0,0,0,47,42,7,56,33,38,176,126,48,147,80,11,0,,,,
2,1779307635264,1804,191,9700,674395,2443,-70860,0,0,0,219,209,234,287,144,197,463,279,204,454,300,98,0,,,,
1,1779307635280,-196,7059,3771,-2884505,-741590,-1010371,0,0,0,50,43,8,58,29,39,182,125,58,143,79,6,0,,,,
2,1779307635280,1952,33,9691,620639,41538,-90408,0,0,0,220,215,235,286,138,202,434,237,215,416,254,102,0,,,,
1,1779307635296,-258,7322,5183,-3624874,-276111,-1634675,0,0,0,65,37,0,68,23,33,192,124,52,139,75,7,0,,,,
2,1779307635296,2225,4,9729,577878,10995,-127059,0,0,0,227,225,228,291,146,198,401,201,221,387,203,108,0,,,,
1,1779307635312,-2646,6278,6087,-4403116,-361632,-2007303,0,0,0,58,40,7,63,23,35,201,116,56,139,67,5,0,,,,
2,1779307635312,2335,-57,9724,546113,-63529,-162490,0,0,0,210,233,211,294,151,200,380,187,222,377,197,121,0,,,,
1,1779307635328,-2727,5125,7552,-4949230,-772133,-1985312,0,0,0,64,42,9,63,24,36,199,98,50,137,66,13,0,,,,
2,1779307635328,2234,-153,9729,516791,-151494,-197920,0,0,0,175,232,199,271,151,204,362,172,220,359,185,124,0,,,,
1,1779307635344,-1818,3785,9461,-5345070,-879645,-1844813,0,0,0,67,43,11,68,24,41,191,97,53,140,64,13,0,,,,
2,1779307635344,2115,-263,9815,499687,-196698,-229685,0,0,0,161,224,187,255,155,203,346,160,217,326,150,109,0,,,,
1,1779307635360,-2278,2273,11227,-5599190,-724486,-1566258,0,0,0,75,48,9,69,19,36,196,98,48,139,65,8,0,,,,
2,1779307635360,1947,-325,9892,498466,-224798,-251676,0,0,0,175,235,163,278,154,197,348,171,209,293,157,98,0,,,,
1,1779307635376,-2842,1139,12955,-5782450,-756251,-1102000,0,0,0,77,45,9,68,19,34,200,99,50,138,61,4,0,,,,
2,1779307635376,1789,-311,9940,511905,-255341,-256563,0,0,0,186,245,162,305,154,201,357,148,201,272,145,98,0,,,,
1,1779307635392,-2459,301,14979,-5959601,-911410,-452040,0,0,0,63,49,10,64,23,34,193,98,53,140,65,5,0,,,,
2,1779307635392,1708,-402,9892,522900,-266337,-250454,0,0,0,166,245,157,290,155,211,308,133,224,252,133,113,0,,,,
1,1779307635408,-1407,-296,16606,-6076887,-937067,21991,0,0,0,56,53,13,61,24,36,191,95,55,142,67,8,0,,,,
2,1779307635408,1560,-603,9633,489913,-251676,-235793,0,0,0,155,247,157,278,165,211,295,153,216,237,147,114,0,,,,
1,1779307635424,-555,-512,17894,-6131865,-992045,124616,0,0,0,57,54,14,61,23,37,192,95,57,141,67,7,0,,,,
2,1779307635424,1344,-818,9164,366519,-222354,-194255,0,0,0,161,267,161,281,166,217,301,132,223,269,129,124,0,,,,
1,1779307635440,19,-320,19224,-6145304,-1222952,-400727,0,0,0,59,55,15,62,22,39,192,96,58,141,65,5,0,,,,
2,1779307635440,1258,-804,9054,228463,-216246,-136833,0,0,0,167,259,187,277,164,229,305,129,232,266,130,129,0,,,,
1,1779307635456,516,-746,21043,-6137973,-1550375,-1370781,0,0,0,59,53,15,62,23,42,191,96,58,142,65,10,0,,,,
2,1779307635456,1454,-684,9337,164933,-227241,-100181,0,0,0,191,281,214,262,186,238,286,133,242,258,146,155,0,,,,
1,1779307635472,813,-2397,23029,-6061004,-1646892,-2140471,0,0,0,55,47,21,62,26,47,190,99,67,141,70,16,0,,,,
2,1779307635472,1564,-674,9643,169820,-235793,-102625,0,0,0,210,339,202,259,179,237,293,136,261,282,136,159,0,,,,
1,1779307635488,-464,-6044,24627,-5899736,-1319468,-2394591,0,0,0,51,46,26,60,22,60,192,98,91,142,70,25,0,,,,
2,1779307635488,1387,-732,9858,206472,-218689,-112399,0,0,0,223,357,204,269,189,253,301,122,269,267,134,162,0,,,,
1,1779307635504,-4048,-11600,24378,-5705481,-839328,-1926668,0,0,0,52,47,12,68,27,46,200,103,61,148,72,10,0,,,,
2,1779307635504,1421,-789,10169,263893,-161268,-107512,0,0,0,271,391,208,274,197,281,304,136,281,247,115,181,0,,,,
1,1779307635520,-5503,-17348,21799,-5163032,-840550,-852767,0,0,0,55,50,13,67,30,47,195,111,64,132,79,13,0,,,,
2,1779307635520,1617,-741,10547,355523,-118507,-123394,0,0,0,316,411,202,278,207,295,281,134,280,233,111,223,0,,,,
1,1779307635536,-1593,-19511,19181,-4217413,-1171639,-23212,0,0,0,39,51,11,50,31,39,195,137,64,111,90,0,0,,,,
2,1779307635536,1823,-641,10978,537561,-128281,-163711,0,0,0,329,417,204,279,232,302,263,125,277,238,125,264,0,,,,
1,1779307635552,3886,-19210,17114,-3044552,-1213178,114842,0,0,0,44,55,13,62,42,48,183,132,76,137,116,15,0,,,,
2,1779307635552,2072,-670,11385,783129,-182037,-221133,0,0,0,371,429,201,291,255,299,250,123,263,257,134,298,0,,,,
1,1779307635568,3929,-20646,15194,-1987755,-700051,-80634,0,0,0,43,59,15,64,42,54,186,139,75,123,124,12,0,,,,
2,1779307635568,2258,-741,11907,1065348,-246789,-305432,0,0,0,443,443,171,312,263,275,229,114,225,268,146,336,0,,,,
1,1779307635584,3005,-22115,14041,-979827,-235793,54977,0,0,0,47,72,17,58,35,49,176,132,66,126,111,8,0,,,,
2,1779307635584,2182,-756,12778,1415985,-309097,-406836,0,0,0,448,448,147,307,263,247,223,103,196,268,160,368,0,,,,
1,1779307635600,3421,-20387,14041,29321,178372,338419,0,0,0,49,53,17,59,31,52,228,194,64,132,144,14,0,,,,
2,1779307635600,2335,-756,13907,1866804,-365297,-491135,0,0,0,457,457,169,292,244,248,202,83,171,255,127,390,0,,,,
1,1779307635616,469,-15529,14697,893084,630412,261450,0,0,0,28,16,5,48,24,40,344,352,43,204,286,15,0,,,,
2,1779307635616,3043,-823,15424,2431243,-415388,-620639,0,0,0,451,451,175,247,225,249,179,81,167,242,138,396,0,,,,
1,1779307635632,-7126,-4225,14539,1976759,1452637,408057,0,0,0,46,16,10,66,23,89,507,516,61,318,467,20,0,,,,
2,1779307635632,4599,-574,18166,3373197,-472809,-933402,0,0,0,442,440,156,247,154,237,197,62,147,230,85,356,0,,,,
1,1779307635648,-10552,8676,11055,3210707,3447723,878424,0,0,0,47,8,8,100,24,130,646,646,88,501,613,12,0,,,,
2,1779307635648,6192,373,21842,4576602,-608421,-1364672,0,0,0,404,350,94,231,220,187,140,119,155,129,107,137,0,,,,
1,1779307635664,-5982,6408,19286,4720766,4956560,838107,0,0,0,54,6,6,119,31,138,691,692,101,602,670,7,0,,,,
2,1779307635664,7508,2306,26336,6118426,-960280,-1883908,0,0,0,237,314,61,181,203,147,123,106,116,73,69,52,0,,,,
1,1779307635680,-201,239,31394,5381722,4069584,199142,0,0,0,96,35,39,122,33,120,692,693,92,633,666,15,0,,,,
2,1779307635680,7963,4843,30782,7693236,-1602910,-2262644,0,0,0,105,187,51,102,167,105,111,104,93,59,68,44,0,,,,
1,1779307635696,3010,-224,29011,4136779,1407433,-482583,0,0,0,150,66,92,132,31,128,720,720,93,677,677,30,0,,,,
2,1779307635696,9777,6838,33371,8966279,-2222327,-2437352,0,0,0,53,75,30,67,73,66,135,120,85,70,92,24,0,,,,
1,1779307635712,1904,3527,13165,2387261,-312763,-411723,0,0,0,191,85,150,172,58,192,751,751,155,714,714,52,0,,,,
2,1779307635712,14520,8791,29504,9701761,-2287079,-2675589,0,0,0,41,43,29,86,47,72,164,119,97,102,107,28,0,,,,
1,1779307635728,-1397,827,8571,1423316,-200363,-85521,0,0,0,220,165,280,211,97,203,751,751,221,721,721,74,0,,,,
2,1779307635728,17415,11854,18722,9252164,-2108706,-3316998,0,0,0,42,45,39,75,42,99,165,112,110,99,93,42,0,,,,
1,1779307635744,-2033,-1048,10930,719599,171042,-7330,0,0,0,214,205,352,225,101,237,765,765,271,713,713,89,0,,,,
2,1779307635744,15056,17286,13017,5299866,-2240653,-3392745,0,0,0,49,48,33,71,40,79,172,104,95,95,73,35,0,,,,
1,1779307635760,-1000,665,12562,398284,255341,-14660,0,0,0,248,217,344,253,119,229,757,757,216,709,709,66,0,,,,
2,1779307635760,10026,18980,12864,-246789,-1803274,-1974316,0,0,0,52,49,25,81,42,53,184,100,77,103,66,18,0,,,,
1,1779307635776,-751,2225,10988,410501,108734,14660,0,0,0,253,233,371,245,161,246,756,756,209,683,683,64,0,,,,
2,1779307635776,6264,11552,10423,-3615100,-1896125,114842,0,0,0,51,49,24,86,43,53,190,103,75,109,68,15,0,,,,
1,1779307635792,-1186,2359,9648,438601,81855,41538,0,0,0,259,249,399,238,203,263,756,756,203,658,658,62,0,,,,
2,1779307635792,9073,3886,2632,-2774549,-2025629,1181413,0,0,0,50,53,16,92,45,47,201,109,77,114,76,21,0,,,,
1,1779307635808,-1220,1861,9710,403171,168598,62308,0,0,0,258,278,354,234,206,262,715,715,209,632,632,42,0,,,,
2,1779307635808,10997,3900,-1191,-1869247,-866206,1367116,0,0,0,46,61,19,86,55,50,194,116,77,107,81,16,0,,,,
1,1779307635824,-818,1631,10236,344527,166155,65973,0,0,0,253,281,378,252,192,271,668,668,218,593,593,63,0,,,,
2,1779307635824,7910,8265,1847,-2579073,604756,1519832,0,0,0,57,65,21,88,56,52,189,111,76,111,81,16,0,,,,
1,1779307635840,-703,1713,10208,331088,35430,65973,0,0,0,256,278,336,264,161,249,630,630,207,541,539,52,0,,,,
2,1779307635840,5886,9763,5005,-3821572,959058,1927890,0,0,0,54,62,25,79,61,58,186,111,76,109,82,16,0,,,,
1,1779307635856,-751,1799,10054,371406,-79412,74525,0,0,0,250,303,269,275,143,240,586,586,180,496,454,56,0,,,,
2,1779307635856,7130,8178,6092,-4844161,897971,2179567,0,0,0,53,62,21,95,59,58,195,115,81,113,89,21,0,,,,
1,1779307635872,-851,1737,10026,428827,-171042,84299,0,0,0,251,303,205,263,125,237,548,548,173,459,374,77,0,,,,
2,1779307635872,7963,6771,7173,-5398826,1358564,1979203,0,0,0,52,60,21,92,59,58,183,115,80,104,86,19,0,,,,
1,1779307635888,-966,1593,9954,436157,-212581,95294,0,0,0,234,304,148,253,117,232,517,517,162,428,310,81,0,,,,
2,1779307635888,6551,6188,10050,-5980370,1921782,1667662,0,0,0,53,63,23,92,63,59,179,110,76,102,90,19,0,,,,
1,1779307635904,-1043,1459,9810,392175,-193033,101403,0,0,0,203,319,117,260,120,221,480,480,140,396,269,56,0,,,,
2,1779307635904,5144,5503,13122,-6554584,2196671,1450194,0,0,0,51,58,20,93,59,59,183,110,77,102,87,16,0,,,,
1,1779307635920,-1105,1387,9719,350636,-153938,103847,0,0,0,185,340,128,248,131,216,452,452,143,353,246,48,0,,,,
2,1779307635920,4785,4943,15343,-6900333,2312735,1280373,0,0,0,48,54,15,95,58,55,188,110,71,104,88,13,0,,,,
1,1779307635936,-1182,1368,9715,337197,-101403,101403,0,0,0,165,353,158,224,150,216,440,420,172,309,218,70,0,,,,
2,1779307635936,4345,4570,17793,-7141014,2524095,1014036,0,0,0,45,53,16,90,54,56,191,116,72,105,84,17,0,,,,
1,1779307635952,-1196,1349,9715,344527,-50090,101403,0,0,0,150,339,148,229,162,200,425,365,178,280,193,75,0,,,,
2,1779307635952,3890,3790,20397,-7250970,2667037,741590,0,0,0,54,53,19,113,50,58,196,122,76,112,90,20,0,,,,
1,1779307635968,-1115,1306,9719,387288,-21991,109955,0,0,0,165,353,87,232,171,193,412,328,156,258,185,67,0,,,,
2,1779307635968,3886,3239,23752,-7215540,2775771,499687,0,0,0,53,57,23,106,50,57,191,124,78,109,94,15,0,,,,
1,1779307635984,-1062,1263,9743,460592,-36651,122173,0,0,0,170,359,110,236,172,247,402,248,202,247,142,92,0,,,,
2,1779307635984,3838,4364,28413,-7329161,2905275,603534,0,0,0,48,63,23,88,62,60,187,138,80,105,108,15,0,,,,
1,1779307636000,-1024,1148,9772,531452,-70860,140499,0,0,0,161,367,148,233,164,240,399,232,211,275,118,100,0,,,,
2,1779307636000,4412,5163,33759,-7632150,2939483,1307251,0,0,0,49,64,19,88,68,60,192,145,79,116,118,26,0,,,,
1,1779307636016,-1110,1000,9810,574213,-101403,164933,0,0,0,171,356,120,260,173,270,399,192,229,226,85,129,0,,,,
2,1779307636016,6752,693,36338,-7679797,3028669,2401922,0,0,0,49,61,20,85,60,64,196,132,82,126,100,37,0,,,,
1,1779307636032,-1440,909,9892,615752,-114842,213802,0,0,0,157,376,132,257,185,318,367,176,253,197,104,153,0,,,,
2,1779307636032,7604,-8107,37702,-7217983,3348763,3082425,0,0,0,45,62,36,79,60,89,190,130,102,123,93,42,0,,,,
1,1779307636048,-1861,818,10050,680503,-114842,315206,0,0,0,167,382,129,280,208,281,361,150,236,181,106,154,0,,,,
2,1779307636048,3876,-20205,37444,-6043900,3435506,2877175,0,0,0,36,57,52,69,56,90,173,126,107,136,102,52,0,,,,
1,1779307636064,-1986,646,10212,772133,-95294,464257,0,0,0,166,383,143,299,246,309,338,136,249,181,102,206,0,,,,
2,1779307636064,-2187,-30815,32519,-4590041,2594955,1960877,0,0,0,40,61,24,83,68,68,176,129,86,126,106,28,0,,,,
1,1779307636080,-1636,473,10413,853989,-35430,560774,0,0,0,185,391,170,345,281,352,317,118,259,189,94,220,0,,,,
2,1779307636080,-6714,-38425,22120,-2855184,1426981,602313,0,0,0,43,55,49,91,60,92,192,121,107,130,105,48,0,,,,
1,1779307636096,-1287,430,10581,946841,23212,603534,0,0,0,208,394,168,362,287,376,305,124,270,181,116,239,0,,,,
2,1779307636096,-11313,-40186,17123,-1301142,862541,-469144,0,0,0,43,60,38,82,60,80,186,128,112,129,107,52,0,,,,
1,1779307636112,-660,550,10772,1108109,67195,588874,0,0,0,230,394,134,381,315,403,291,108,270,180,96,259,0,,,,
2,1779307636112,-14084,-37214,17937,64751,94073,-840550,0,0,0,44,63,37,80,63,79,185,136,111,122,107,43,0,,,,
1,1779307636128,43,502,11275,1313360,35430,488692,0,0,0,219,390,110,416,330,422,274,92,288,172,69,284,0,,,,
2,1779307636128,-8915,-30366,18817,1321912,-1045801,-624304,0,0,0,48,58,33,83,72,77,152,150,84,136,139,36,0,,,,
1,1779307636144,-186,196,12122,1579697,-140499,338419,0,0,0,195,382,91,436,344,426,261,87,308,170,74,309,0,,,,
2,1779307636144,-1072,-20181,18324,2397035,-1750739,-552222,0,0,0,29,50,28,59,64,73,174,251,79,136,272,28,0,,,,
1,1779307636160,-1344,100,13275,1957212,-367740,298102,0,0,0,193,376,74,440,364,430,237,92,323,177,97,332,0,,,,
2,1779307636160,4402,1177,18549,2961474,-1987755,-559552,0,0,0,31,35,18,77,41,52,231,362,61,240,379,13,0,,,,
1,1779307636176,-2144,253,14338,2441017,-520457,422718,0,0,0,201,375,75,440,357,440,215,113,333,172,109,348,0,,,,
2,1779307636176,6456,23785,9930,2748893,-2679254,-140499,0,0,0,46,34,14,85,38,59,298,464,48,379,499,19,0,,,,
1,1779307636192,-2211,488,15927,3143512,-544891,619417,0,0,0,207,371,81,418,348,427,206,116,313,161,106,307,0,,,,
2,1779307636192,4039,17540,4843,3606548,-3045774,125838,0,0,0,40,20,7,103,41,83,382,552,48,485,613,33,0,,,,
1,1779307636208,-3168,713,17831,3931528,-432492,792903,0,0,0,178,338,73,392,341,377,172,111,302,126,87,226,0,,,,
2,1779307636208,-320,-2479,16405,5816658,-1869247,127059,0,0,0,25,0,3,139,31,106,472,610,55,569,680,29,0,,,,
1,1779307636224,-5407,1057,19889,4882034,-166155,1060462,0,0,0,148,274,62,333,287,307,209,126,227,106,81,135,0,,,,
2,1779307636224,-875,-5001,27518,5786115,-362853,-146607,0,0,0,30,1,9,143,21,109,539,646,68,658,720,21,0,,,,
1,1779307636240,-7954,1024,23144,5941275,158824,1546710,0,0,0,136,244,59,321,205,257,198,70,189,108,46,88,0,,,,
2,1779307636240,1292,-430,24450,4172209,96516,-465479,0,0,0,51,8,33,110,29,77,602,673,84,728,745,32,0,,,,
1,1779307636256,-9576,1201,27078,6929655,411723,2124589,0,0,0,82,106,44,199,133,179,145,42,146,65,18,71,0,,,,
2,1779307636256,3330,2574,14142,2441017,-18325,-463035,0,0,0,88,23,104,110,28,82,704,704,92,754,754,37,0,,,,
1,1779307636272,-9705,1899,29920,7799527,615752,2690250,0,0,0,40,113,21,121,90,99,111,51,77,58,18,17,0,,,,
2,1779307636272,3522,871,10634,1766622,-48869,-190589,0,0,0,125,45,60,128,47,83,716,716,84,780,780,70,0,,,,
1,1779307636288,-9284,3268,32017,8449487,722042,3081204,0,0,0,26,57,24,50,38,71,98,67,86,34,47,21,0,,,,
2,1779307636288,3618,-756,10906,1117883,-101403,37873,0,0,0,146,67,82,142,37,106,731,731,118,786,786,81,0,,,,
1,1779307636304,-10198,5963,31146,8752477,1262047,3319441,0,0,0,52,30,8,54,22,36,150,73,46,80,29,3,0,,,,
2,1779307636304,2847,43,11060,640186,-109955,72082,0,0,0,142,82,102,146,85,90,727,727,124,792,792,96,0,,,,
1,1779307636320,-12409,11079,21411,8420166,2317622,3415958,0,0,0,52,21,3,61,22,32,167,82,42,96,47,2,0,,,,
2,1779307636320,2536,914,10275,441044,-39095,34208,0,0,0,164,93,117,163,47,99,720,720,126,777,777,120,0,,,,
1,1779307636336,-14233,14893,11246,7210653,2697580,3431840,0,0,0,43,29,2,62,23,31,169,88,43,108,63,7,0,,,,
2,1779307636336,2895,1086,9648,426383,-37873,-4886,0,0,0,174,76,150,174,60,125,718,718,154,773,773,99,0,,,,
1,1779307636352,-10739,18913,9073,3444058,1314581,2296853,0,0,0,42,36,4,59,25,28,176,95,47,111,75,3,0,,,,
2,1779307636352,2995,952,9901,431270,-168598,-15882,0,0,0,182,82,233,183,63,145,697,697,171,748,748,120,0,,,,
1,1779307636368,-4790,19152,9547,-1103222,609643,-75747,0,0,0,46,43,7,61,28,27,183,97,42,116,77,5,0,,,,
2,1779307636368,2584,1000,10208,441044,-202807,-15882,0,0,0,191,88,214,179,63,130,668,668,147,719,719,106,0,,,,
1,1779307636384,-4570,11983,7331,-4034154,1540602,-2592512,0,0,0,50,48,9,63,28,29,181,97,39,117,76,4,0,,,,
2,1779307636384,2412,1019,10122,475253,-112399,-21991,0,0,0,184,112,187,185,84,121,630,628,148,679,679,104,0,,,,
1,1779307636400,-8872,6159,3871,-4425107,1699427,-3116634,0,0,0,52,50,7,62,26,30,184,93,39,122,78,3,0,,,,
2,1779307636400,2455,933,9897,507018,-4886,-37873,0,0,0,178,127,169,190,106,119,593,588,146,633,622,102,0,,,,
1,1779307636416,-11213,3785,2144,-3954741,540004,-2312735,0,0,0,55,47,5,62,25,32,185,89,38,128,79,7,0,,,,
2,1779307636416,2440,832,9758,502131,59864,-53756,0,0,0,172,122,167,186,96,129,560,540,155,593,570,97,0,,,,
1,1779307636432,-8772,4230,3350,-3806912,-604756,-1457524,0,0,0,60,43,9,64,29,35,178,90,40,123,75,6,0,,,,
2,1779307636432,2459,756,9643,482583,107512,-63529,0,0,0,175,119,169,190,78,145,526,496,164,554,532,91,0,,,,
1,1779307636448,-6255,4967,5814,-4301713,-531452,-1436755,0,0,0,56,43,10,66,33,38,181,93,42,119,72,5,0,,,,
2,1779307636448,2546,684,9528,459370,125838,-70860,0,0,0,181,128,143,204,80,141,497,463,149,511,474,82,0,,,,
1,1779307636464,-6599,4623,7681,-4967556,-278554,-1793500,0,0,0,55,44,6,64,32,33,188,96,42,118,71,3,0,,,,
2,1779307636464,2689,583,9432,428827,100181,-72082,0,0,0,176,131,133,220,80,139,475,414,149,485,418,89,0,,,,
1,1779307636480,-8767,3000,9375,-5770233,-503352,-2251649,0,0,0,52,41,4,61,30,33,203,105,46,113,71,10,0,,,,
2,1779307636480,2842,478,9380,384845,25656,-72082,0,0,0,177,134,151,230,82,150,454,350,147,466,404,95,0,,,,
1,1779307636496,-9164,1627,10772,-6212499,-1067792,-2353052,0,0,0,57,43,13,61,28,31,199,103,46,118,72,10,0,,,,
2,1779307636496,2871,421,9370,329867,-92851,-74525,0,0,0,173,152,171,203,94,156,437,315,162,435,333,92,0,,,,
1,1779307636512,-8351,550,12763,-6555805,-1448972,-2322509,0,0,0,62,47,17,63,31,35,181,99,48,121,70,5,0,,,,
2,1779307636512,2689,421,9447,290771,-177150,-80634,0,0,0,173,153,179,194,91,167,433,294,170,432,290,104,0,,,,
1,1779307636528,-7504,-248,14926,-6784269,-1555262,-2306627,0,0,0,60,40,9,67,30,35,187,100,49,118,72,11,0,,,,
2,1779307636528,2569,402,9557,276111,-205250,-81855,0,0,0,164,164,180,198,98,167,421,255,170,417,277,109,0,,,,
1,1779307636544,-7528,-732,16740,-6866125,-1655444,-2263866,0,0,0,61,44,9,63,32,36,175,104,54,112,74,11,0,,,,
2,1779307636544,2502,354,9595,284663,-190589,-87964,0,0,0,166,148,205,213,92,190,413,243,194,409,269,124,0,,,,
1,1779307636560,-7250,-1201,19162,-6871012,-2081828,-2026850,0,0,0,54,47,10,57,31,37,176,117,57,102,73,9,0,,,,
2,1779307636560,2469,306,9619,298102,-161268,-105068,0,0,0,161,152,191,209,88,197,418,214,191,404,229,111,0,,,,
1,1779307636576,-5446,-2105,21947,-6818477,-2322509,-1930334,0,0,0,56,48,11,61,32,37,170,108,55,107,73,10,0,,,,
2,1779307636576,2498,263,9643,321315,-129503,-128281,0,0,0,167,159,187,227,99,211,415,197,185,402,199,113,0,,,,
1,1779307636592,-3752,-3761,25015,-6662096,-2228436,-2218662,0,0,0,54,57,13,58,42,37,160,103,52,109,76,11,0,,,,
2,1779307636592,2512,196,9590,350636,-109955,-157603,0,0,0,167,169,199,240,101,215,412,156,189,386,165,106,0,,,,
1,1779307636608,-3129,-6901,28346,-6453180,-2189341,-2706133,0,0,0,53,57,14,57,45,39,158,113,57,101,89,6,0,,,,
2,1779307636608,2435,114,9538,379958,-96516,-173485,0,0,0,179,225,214,262,119,216,408,131,189,374,142,101,0,,,,
1,1779307636624,-2330,-12103,31103,-6296798,-2183232,-2919935,0,0,0,53,54,12,58,42,40,160,119,60,97,98,6,0,,,,
2,1779307636624,2507,110,9729,430049,-80634,-183259,0,0,0,208,260,215,297,135,240,403,134,199,356,144,105,0,,,,
1,1779307636640,-2723,-19406,30701,-6100100,-1690874,-2618168,0,0,0,51,54,10,57,41,40,161,120,58,101,99,11,0,,,,
2,1779307636640,2818,177,10222,533896,-74525,-210137,0,0,0,239,279,214,332,137,257,396,117,222,316,122,119,0,,,,
1,1779307636656,-6762,-27039,24981,-5488013,-869872,-1477072,0,0,0,50,54,11,58,46,39,161,124,56,102,104,13,0,,,,
2,1779307636656,3134,224,10811,748920,-75747,-284663,0,0,0,253,320,202,343,176,281,359,96,248,255,94,150,0,,,,
1,1779307636672,-7379,-31672,18851,-4453207,-983493,129503,0,0,0,49,55,10,60,51,40,163,125,56,100,108,12,0,,,,
2,1779307636672,3139,148,11265,1021366,-64751,-378736,0,0,0,254,342,172,335,229,328,291,97,271,202,102,192,0,,,,
1,1779307636688,1143,-32916,15453,-2907718,-1843591,1574810,0,0,0,46,57,8,62,54,42,166,126,58,104,105,11,0,,,,
2,1779307636688,2703,-52,11787,1368338,-6108,-458148,0,0,0,272,355,166,359,188,328,252,81,274,199,87,230,0,,,,
1,1779307636704,10026,-32773,15817,-1398881,-1433089,1462411,0,0,0,44,62,6,57,59,41,163,127,56,104,104,9,0,,,,
2,1779307636704,2455,-244,12476,1749518,67195,-470366,0,0,0,264,392,159,371,210,332,223,73,276,195,99,267,0,,,,
1,1779307636720,10902,-32395,15821,-113620,-200363,845437,0,0,0,45,56,7,61,50,40,173,117,58,110,91,8,0,,,,
2,1779307636720,2770,-445,13352,2216219,162490,-493579,0,0,0,326,390,164,366,229,346,177,80,280,194,110,272,0,,,,
1,1779307636736,4757,-29896,15171,1039692,993266,496022,0,0,0,30,48,6,45,45,39,189,158,58,98,124,5,0,,,,
2,1779307636736,3527,-454,14443,2787988,222354,-590095,0,0,0,310,400,150,376,187,325,163,108,251,189,118,267,0,,,,
1,1779307636752,449,-19392,16616,2024407,1313360,679282,0,0,0,37,21,0,45,31,32,246,302,50,133,218,0,0,,,,
2,1779307636752,4235,-315,15252,3466049,96516,-774577,0,0,0,346,319,131,392,231,330,185,95,271,171,83,239,0,,,,
1,1779307636768,-5273,7264,16769,2566855,1984090,406836,0,0,0,37,16,2,55,15,25,384,398,37,195,354,3,0,,,,
2,1779307636768,4910,-172,16128,4205196,-47647,-1021366,0,0,0,329,291,127,355,198,335,184,80,243,159,74,206,0,,,,
1,1779307636784,-8547,29633,8418,2236988,3415958,-500909,0,0,0,23,5,0,64,24,65,457,459,53,337,411,4,0,,,,
2,1779307636784,5900,-134,17669,5068959,-119729,-1356120,0,0,0,236,291,122,334,190,288,179,65,254,124,49,144,0,,,,
1,1779307636800,-2215,13275,8360,3693291,4009719,-701273,0,0,0,38,17,0,93,31,95,566,566,64,458,522,10,0,,,,
2,1779307636800,7772,-378,20775,6098878,-91629,-1811826,0,0,0,167,247,106,277,177,244,169,58,219,95,39,348,0,,,,
1,1779307636816,3503,-3819,21698,5531995,2744006,-313984,0,0,0,91,31,19,120,28,82,618,618,74,547,567,3,0,,,,
2,1779307636816,9270,-875,26063,7123910,-29321,-2279749,0,0,0,117,179,66,203,152,177,144,87,153,77,78,185,0,,,,
1,1779307636832,2694,-5556,29628,4609589,963945,50090,0,0,0,131,60,59,137,37,76,623,623,73,557,557,9,0,,,,
2,1779307636832,9485,-57,30705,7789753,-19547,-2550973,0,0,0,77,119,37,123,98,110,121,85,101,54,81,35,0,,,,
1,1779307636848,-607,19,21038,1920560,51312,-34208,0,0,0,151,69,78,145,31,89,625,625,117,543,543,8,0,,,,
2,1779307636848,9528,1895,32031,8290663,74525,-2778215,0,0,0,42,64,33,64,61,81,114,87,91,58,82,35,0,,,,
1,1779307636864,-1536,2646,11351,620639,-254119,-205250,0,0,0,172,96,99,150,39,119,623,623,164,529,529,6,0,,,,
2,1779307636864,9944,4254,30715,8691390,614530,-3143512,0,0,0,27,34,38,48,50,70,122,108,89,83,107,42,0,,,,
1,1779307636880,-1550,1560,8049,637743,-368962,-208915,0,0,0,186,124,135,144,59,144,625,625,194,521,521,11,0,,,,
2,1779307636880,9691,9456,22081,8436048,1224173,-3608991,0,0,0,35,45,35,61,53,56,134,122,73,90,116,33,0,,,,
1,1779307636896,-2211,253,9590,680503,-305432,-97738,0,0,0,193,136,159,145,78,174,628,628,214,519,519,13,0,,,,
2,1779307636896,7843,16769,12543,5894849,855211,-3748269,0,0,0,38,61,23,64,67,53,134,127,68,84,105,28,0,,,,
1,1779307636912,-2488,837,10653,455705,-72082,-10995,0,0,0,212,154,182,172,98,209,621,621,229,513,513,17,0,,,,
2,1779307636912,4139,21775,11332,1083674,-162490,-2894279,0,0,0,39,58,25,65,59,64,128,108,72,89,101,28,0,,,,
1,1779307636928,-2043,1689,10136,338419,112399,29321,0,0,0,241,172,215,208,98,200,620,620,246,509,509,32,0,,,,
2,1779307636928,1387,18607,12969,-3451388,-1579697,-1210734,0,0,0,30,59,45,59,57,107,128,110,117,80,94,56,0,,,,
1,1779307636944,-1727,1655,9748,368962,131946,35430,0,0,0,263,198,202,237,107,195,606,606,227,499,498,36,0,,,,
2,1779307636944,3326,10184,8475,-4916243,-2629163,-120951,0,0,0,39,55,34,80,56,77,157,113,106,93,90,41,0,,,,
1,1779307636960,-1751,1541,10131,409279,96516,45204,0,0,0,265,187,219,231,93,200,584,584,219,476,473,60,0,,,,
2,1779307636960,6613,5446,3354,-4882034,-2520429,18325,0,0,0,38,67,40,69,66,83,138,126,119,80,100,43,0,,,,
1,1779307636976,-1636,1641,10524,465479,40317,68416,0,0,0,223,210,170,233,111,193,541,541,210,437,433,18,0,,,,
2,1779307636976,8408,5451,1641,-4769635,-1265712,-317649,0,0,0,33,74,38,67,74,84,136,146,119,77,114,40,0,,,,
1,1779307636992,-1488,1646,10428,542448,-69638,81855,0,0,0,220,193,188,225,110,173,495,495,226,413,379,34,0,,,,
2,1779307636992,6834,7140,4498,-5414709,-10995,-323758,0,0,0,39,79,38,69,74,85,146,144,123,92,111,43,0,,,,
1,1779307637008,-1584,1397,9978,576656,-188146,87964,0,0,0,199,230,132,204,126,165,483,483,204,403,336,24,0,,,,
2,1779307637008,5221,7303,7729,-6203947,456927,116064,0,0,0,52,79,35,93,69,86,158,136,118,105,107,41,0,,,,
1,1779307637024,-1837,1162,9652,521678,-206472,98960,0,0,0,194,241,109,196,139,159,460,453,218,356,255,23,0,,,,
2,1779307637024,5996,5666,8667,-6593679,496022,647517,0,0,0,56,87,36,100,73,94,163,139,122,110,108,41,0,,,,
1,1779307637040,-2000,1086,9576,461814,-157603,112399,0,0,0,181,243,94,198,139,164,444,409,211,318,211,32,0,,,,
2,1779307637040,6838,4355,9260,-6657209,1116661,884532,0,0,0,47,91,37,84,78,101,155,145,129,102,116,44,0,,,,
1,1779307637056,-2048,1076,9614,416610,-84299,125838,0,0,0,166,244,80,205,153,172,428,345,205,283,163,47,0,,,,
2,1779307637056,6235,3914,11141,-6696304,1844813,1042136,0,0,0,38,92,37,73,79,106,148,148,132,99,123,48,0,,,,
1,1779307637072,-2024,1000,9576,397062,-29321,134390,0,0,0,154,245,79,208,162,199,417,298,209,259,141,58,0,,,,
2,1779307637072,5111,4096,13787,-6847799,2186897,1244943,0,0,0,37,93,37,78,78,107,152,147,131,105,123,47,0,,,,
1,1779307637088,-1971,923,9566,394618,4886,145385,0,0,0,154,254,97,198,164,232,412,271,223,231,118,87,0,,,,
2,1779307637088,5082,3799,16434,-7105584,2244318,1467298,0,0,0,49,93,37,98,75,97,164,147,128,112,119,39,0,,,,
1,1779307637104,-1856,899,9657,414166,19547,163711,0,0,0,147,255,94,204,160,233,406,238,221,218,116,79,0,,,,
2,1779307637104,5317,3000,19047,-7194770,2384817,1517389,0,0,0,58,94,39,104,74,87,174,146,130,117,116,37,0,,,,
1,1779307637120,-1684,847,9767,436157,-9773,175929,0,0,0,145,261,86,222,156,237,401,195,222,212,113,90,0,,,,
2,1779307637120,5163,2507,22780,-7126353,2583959,1456302,0,0,0,51,95,42,82,77,91,163,142,130,115,112,40,0,,,,
1,1779307637136,-1560,732,9820,449596,-80634,180816,0,0,0,154,268,93,228,162,248,400,172,228,198,112,100,0,,,,
2,1779307637136,4919,3010,27819,-7204544,2607172,1733635,0,0,0,48,91,40,86,77,97,141,132,132,114,111,41,0,,,,
1,1779307637152,-1670,588,9796,466701,-168598,189368,0,0,0,168,267,104,244,158,259,400,158,239,185,107,100,0,,,,
2,1779307637152,5494,1871,31907,-7314500,2542421,2437352,0,0,0,49,92,39,85,78,100,166,139,136,110,109,46,0,,,,
1,1779307637168,-1928,526,9815,510683,-224798,228463,0,0,0,176,282,110,274,145,287,401,135,269,168,86,130,0,,,,
2,1779307637168,6728,-3972,34223,-7099475,2656042,3315776,0,0,0,44,84,37,84,73,84,164,128,132,96,109,43,0,,,,
1,1779307637184,-2196,483,9987,580321,-223576,280998,0,0,0,171,328,104,290,163,305,404,138,292,141,76,149,0,,,,
2,1779307637184,7068,-14635,35257,-6318790,2698802,3395188,0,0,0,42,44,42,79,43,105,151,104,140,96,102,50,0,,,,
1,1779307637200,-2455,416,10169,668286,-164933,340862,0,0,0,174,344,97,320,186,292,405,133,302,147,71,175,0,,,,
2,1779307637200,7647,-28504,31993,-5297423,1963320,2521651,0,0,0,42,43,52,74,45,123,152,122,152,100,116,63,0,,,,
1,1779307637216,-2383,315,10418,780685,-97738,403171,0,0,0,161,335,103,324,220,327,399,112,321,149,70,207,0,,,,
2,1779307637216,5958,-39693,22627,-4058588,1331686,643851,0,0,0,39,44,53,74,44,130,158,133,157,97,118,64,0,,,,
1,1779307637232,-2158,306,10949,929736,-52534,438601,0,0,0,152,363,124,366,270,371,357,96,327,135,67,211,0,,,,
2,1779307637232,-4848,-41698,17286,-2227214,1639562,-1215621,0,0,0,39,47,55,73,44,133,159,135,158,99,125,64,0,,,,
1,1779307637248,-1880,358,11749,1171639,-20769,438601,0,0,0,164,366,85,403,258,351,290,96,342,127,60,232,0,,,,
2,1779307637248,-13156,-39033,17898,-696386,965167,-1748296,0,0,0,46,46,50,86,48,130,185,143,147,139,137,55,0,,,,
1,1779307637264,-1545,253,12112,1463633,-18325,405614,0,0,0,153,373,79,390,309,396,268,116,349,134,66,234,0,,,,
2,1779307637264,-10844,-35472,18832,483805,-588874,-1230282,0,0,0,35,38,40,71,52,120,190,218,143,142,187,50,0,,,,
1,1779307637280,-1167,4,12352,1778839,-102625,321315,0,0,0,136,371,79,397,291,408,221,73,321,137,67,269,0,,,,
2,1779307637280,-4111,-16913,21009,2021963,-1846034,-527787,0,0,0,25,25,24,85,46,99,219,325,105,173,304,41,0,,,,
1,1779307637296,-1871,-86,13050,2168571,-213802,254119,0,0,0,145,370,73,398,320,377,200,73,346,166,98,297,0,,,,
2,1779307637296,1880,10863,16688,2981022,-3039665,350636,0,0,0,26,24,14,88,45,75,253,395,68,251,404,24,0,,,,
1,1779307637312,-3149,0,14036,2671924,-254119,354301,0,0,0,141,362,74,402,302,379,166,89,342,166,105,318,0,,,,
2,1779307637312,3000,18789,8537,3462384,-3606548,995710,0,0,0,35,35,14,73,55,65,285,447,59,332,471,14,0,,,,
1,1779307637328,-3728,95,15305,3353650,-230907,612086,0,0,0,144,328,93,360,275,407,146,79,352,133,82,291,0,,,,
2,1779307637328,-1622,4321,11734,4561941,-2557081,747699,0,0,0,53,40,15,109,54,69,367,514,45,430,560,16,0,,,,
1,1779307637344,-4441,205,16826,4111123,-171042,890641,0,0,0,188,269,71,333,236,376,159,107,301,105,63,199,0,,,,
2,1779307637344,-4173,-2890,21253,5279097,-594982,-102625,0,0,0,63,35,20,131,28,66,460,555,40,551,612,22,0,,,,
1,1779307637360,-5876,421,19425,5002986,-116064,1221730,0,0,0,165,240,86,307,196,309,170,106,263,84,55,132,0,,,,
2,1779307637360,-335,-272,22727,4712214,438601,-895528,0,0,0,69,29,18,94,14,64,544,584,52,601,630,20,0,,,,
1,1779307637376,-8183,224,23024,6014579,-74525,1656666,0,0,0,113,202,74,246,155,238,164,82,214,73,42,103,0,,,,
2,1779307637376,4513,1612,16343,3329215,139277,-621860,0,0,0,73,50,12,121,32,51,575,618,71,661,666,19,0,,,,
1,1779307637392,-9949,28,26451,6929655,7330,2161241,0,0,0,75,144,41,163,100,160,139,60,142,62,27,73,0,,,,
2,1779307637392,4412,842,12285,2167349,-201585,-65973,0,0,0,87,54,26,116,40,99,607,634,99,667,689,44,0,,,,
1,1779307637408,-9949,124,29073,7578394,134390,2632829,0,0,0,51,88,25,106,50,88,122,45,79,52,25,33,0,,,,
2,1779307637408,2541,-201,11457,1296256,-321315,188146,0,0,0,103,70,56,116,61,75,656,658,82,702,704,44,0,,,,
1,1779307637424,-9045,2359,30696,7969347,288328,3020117,0,0,0,34,39,4,77,33,46,124,49,41,58,33,9,0,,,,
2,1779307637424,2167,-186,11404,697608,-276111,141720,0,0,0,104,59,83,127,54,90,666,666,114,709,709,58,0,,,,
1,1779307637440,-9614,5920,28710,8141611,839328,3265685,0,0,0,30,21,5,45,33,37,115,74,44,69,42,10,0,,,,
2,1779307637440,2201,655,10547,381179,-184481,63529,0,0,0,129,57,144,130,53,110,661,661,124,713,713,90,0,,,,
1,1779307637456,-12782,11548,18803,7970569,1613905,3445279,0,0,0,36,37,8,44,26,42,135,87,58,76,51,9,0,,,,
2,1779307637456,2325,1177,9897,263893,-141720,40317,0,0,0,157,76,217,121,51,127,651,651,141,704,704,102,0,,,,
1,1779307637472,-14453,16199,9940,6255260,888198,3670078,0,0,0,27,47,17,41,36,51,129,106,64,82,71,18,0,,,,
2,1779307637472,2368,1258,9944,257785,-217468,24434,0,0,0,160,76,205,131,50,106,636,636,129,694,694,87,0,,,,
1,1779307637488,-9279,20052,8499,2504547,-373849,2911383,0,0,0,26,52,20,41,37,51,136,125,61,69,71,15,0,,,,
2,1779307637488,2182,1301,10155,285884,-277332,-7330,0,0,0,148,80,158,142,55,100,615,615,115,673,673,67,0,,,,
1,1779307637504,-1832,19344,9930,-1999972,-91629,614530,0,0,0,25,48,18,44,43,52,131,126,57,70,76,23,0,,,,
2,1779307637504,1899,1368,10227,357967,-227241,-36651,0,0,0,146,93,129,150,60,109,587,587,115,642,642,64,0,,,,
1,1779307637520,-2301,12840,8188,-4480085,1572367,-1668883,0,0,0,39,51,15,39,41,41,126,125,55,74,82,11,0,,,,
2,1779307637520,1837,1359,10093,434936,-102625,-36651,0,0,0,154,106,125,158,62,114,555,555,117,606,606,77,0,,,,
1,1779307637536,-9107,6738,4101,-4459316,1452637,-1875356,0,0,0,26,44,11,39,44,49,122,120,54,80,82,17,0,,,,
2,1779307637536,1952,1273,9940,503352,-4886,-31764,0,0,0,158,126,130,167,69,131,518,518,128,560,560,78,0,,,,
1,1779307637552,-10744,4618,2799,-4114788,-114842,-1061683,0,0,0,30,39,10,45,39,47,135,99,58,90,65,13,0,,,,
2,1779307637552,2029,1162,9844,532674,10995,-32986,0,0,0,159,139,156,176,76,150,478,478,147,517,517,85,0,,,,
1,1779307637568,-6140,5001,4766,-4047593,-1690874,-173485,0,0,0,41,39,17,54,28,51,151,91,60,111,56,16,0,,,,
2,1779307637568,1962,1024,9753,519235,4886,-35430,0,0,0,151,126,200,170,77,146,446,448,140,489,488,126,0,,,,
1,1779307637584,-2837,5446,7365,-4522846,-1321912,-427605,0,0,0,48,39,11,61,28,49,159,91,56,116,55,12,0,,,,
2,1779307637584,1971,866,9629,483805,8552,-36651,0,0,0,141,131,163,171,82,142,406,405,130,471,464,80,0,,,,
1,1779307637600,-3369,5388,8997,-5117828,-879645,-968832,0,0,0,49,39,11,63,31,44,162,90,55,116,54,10,0,,,,
2,1779307637600,2091,737,9523,433714,0,-43982,0,0,0,138,136,181,193,87,150,389,403,154,440,433,99,0,,,,
1,1779307637616,-5159,5116,10332,-5748241,-1067792,-1386664,0,0,0,48,39,13,60,29,41,161,92,55,113,53,5,0,,,,
2,1779307637616,2167,693,9490,388510,-46425,-54977,0,0,0,145,129,166,174,86,138,431,280,138,448,405,85,0,,,,
1,1779307637632,-5398,4565,12117,-6316346,-1620014,-1532050,0,0,0,47,39,12,58,28,42,160,96,57,110,57,5,0,,,,
2,1779307637632,2148,693,9518,351858,-114842,-69638,0,0,0,157,146,164,180,91,138,378,263,141,425,382,88,0,,,,
1,1779307637648,-4446,3239,14472,-6720739,-1954768,-1477072,0,0,0,49,45,15,57,30,41,159,99,60,108,64,12,0,,,,
2,1779307637648,2014,679,9595,335975,-162490,-78190,0,0,0,172,186,171,184,97,158,378,260,157,411,320,98,0,,,,
1,1779307637664,-3929,2053,16659,-6884451,-2052507,-1313360,0,0,0,48,51,17,51,31,40,152,104,59,98,67,13,0,,,,
2,1779307637664,1947,607,9710,338419,-166155,-83077,0,0,0,174,209,164,183,106,148,371,212,147,405,304,84,0,,,,
1,1779307637680,-3771,1287,19124,-6916216,-2106263,-1065348,0,0,0,41,50,17,49,36,46,144,103,61,91,68,15,0,,,,
2,1779307637680,1957,536,9782,350636,-152716,-94073,0,0,0,203,187,155,227,108,143,387,190,142,399,279,71,0,,,,
1,1779307637696,-3469,689,22182,-6914994,-2135584,-926071,0,0,0,42,51,23,47,31,56,146,101,70,84,56,17,0,,,,
2,1779307637696,1971,488,9796,375071,-136833,-116064,0,0,0,211,208,176,218,128,158,393,174,153,390,228,68,0,,,,
1,1779307637712,-3450,-134,25379,-6850242,-2050063,-1132544,0,0,0,36,40,37,41,23,90,141,94,97,82,56,36,0,,,,
2,1779307637712,1976,464,9825,416610,-128281,-142942,0,0,0,227,239,188,237,129,162,389,147,159,383,182,74,0,,,,
1,1779307637728,-4460,-2019,28542,-6619335,-1998751,-1929112,0,0,0,41,40,30,47,27,74,143,96,84,85,55,25,0,,,,
2,1779307637728,1962,425,9897,474031,-118507,-171042,0,0,0,240,265,210,257,125,189,374,135,188,365,158,94,0,,,,
1,1779307637744,-5656,-5556,31639,-6309016,-2299296,-2922379,0,0,0,37,46,20,47,35,50,145,101,67,92,58,16,0,,,,
2,1779307637744,1995,344,10054,553443,-94073,-202807,0,0,0,225,311,250,246,147,234,345,140,232,321,148,126,0,,,,
1,1779307637760,-5972,-12849,34204,-6039013,-2811201,-3744603,0,0,0,37,41,7,55,34,41,164,109,59,95,59,13,0,,,,
2,1779307637760,2148,268,10361,651182,-65973,-234572,0,0,0,216,360,247,249,180,240,308,134,237,272,135,150,0,,,,
1,1779307637776,-5675,-23933,32476,-5951049,-2579073,-3712838,0,0,0,28,48,11,51,46,43,139,127,57,82,76,12,0,,,,
2,1779307637776,2330,258,10815,799011,-53756,-276111,0,0,0,252,366,188,273,200,234,278,124,235,255,124,156,0,,,,
1,1779307637792,-4024,-36573,24699,-5381722,-2075720,-2388483,0,0,0,40,45,11,58,35,40,160,101,58,91,53,5,0,,,,
2,1779307637792,2364,291,11466,1067792,-74525,-331088,0,0,0,274,399,198,273,238,281,241,145,276,193,144,192,0,,,,
1,1779307637808,3244,-45130,17822,-3933972,-2021963,-529009,0,0,0,47,43,14,62,27,42,179,89,59,110,48,12,0,,,,
2,1779307637808,2278,215,12079,1403768,-97738,-383623,0,0,0,322,384,136,312,257,256,236,128,242,207,131,190,0,,,,
1,1779307637824,15147,-47034,14802,-1500285,-1297477,1137431,0,0,0,27,39,11,48,39,49,146,137,62,90,84,16,0,,,,
2,1779307637824,2110,9,12859,1799608,-78190,-433714,0,0,0,338,408,126,368,228,273,276,110,200,242,95,196,0,,,,
1,1779307637840,16147,-43153,15721,260228,442266,1367116,0,0,0,20,42,4,34,53,37,174,247,49,109,132,7,0,,,,
2,1779307637840,2316,-177,13883,2298075,-32986,-481361,0,0,0,357,412,92,364,283,209,211,94,211,244,125,189,0,,,,
1,1779307637856,4556,-24934,19152,1910786,2342057,1048244,0,0,0,25,26,0,34,33,26,277,343,41,171,211,5,0,,,,
2,1779307637856,2952,-196,14788,2830749,-61086,-569326,0,0,0,333,405,90,318,238,233,156,103,180,209,145,210,0,,,,
1,1779307637872,-6752,4312,15879,3092199,3793473,685390,0,0,0,27,12,0,44,22,35,350,395,42,239,315,4,0,,,,
2,1779307637872,3560,-52,15783,3584557,-206472,-767246,0,0,0,344,401,86,254,231,231,150,112,177,164,121,179,0,,,,
1,1779307637888,-7552,13122,10859,4012162,4117231,108734,0,0,0,23,21,0,66,43,58,405,435,44,321,401,1,0,,,,
2,1779307637888,4345,38,16798,4337143,-387288,-995710,0,0,0,311,384,119,237,227,246,149,85,185,127,66,122,0,,,,
1,1779307637904,-837,3737,15735,5424483,2742784,-405614,0,0,0,33,32,7,94,51,80,488,488,48,408,436,3,0,,,,
2,1779307637904,5896,134,18497,5143485,-585208,-1309695,0,0,0,231,327,91,239,231,215,150,83,164,89,64,78,0,,,,
1,1779307637920,4422,-4249,25963,5683490,807563,-302989,0,0,0,81,39,28,104,31,81,520,520,66,440,458,3,0,,,,
2,1779307637920,7848,-95,22153,6087882,-895528,-1792278,0,0,0,156,241,91,224,182,210,139,73,157,67,54,71,0,,,,
1,1779307637936,1201,-2598,25991,3722612,117286,210137,0,0,0,110,65,37,121,60,88,532,532,95,463,463,10,0,,,,
2,1779307637936,9576,-593,27145,6971194,-1255938,-2235766,0,0,0,109,173,85,164,115,164,118,60,130,52,34,66,0,,,,
1,1779307637952,-2790,263,16085,1523497,141720,48869,0,0,0,131,72,65,127,64,107,547,547,126,490,490,18,0,,,,
2,1779307637952,11088,224,30279,7656584,-1207069,-2586403,0,0,0,66,120,42,98,85,85,108,75,85,52,60,43,0,,,,
1,1779307637968,-2526,727,9571,557109,39095,-210137,0,0,0,146,90,83,156,88,128,583,583,123,525,525,11,0,,,,
2,1779307637968,11007,2670,30562,8227133,-675616,-3066543,0,0,0,32,61,17,70,66,60,120,101,71,77,106,26,0,,,,
1,1779307637984,-1402,-9,8825,335975,-105068,-206472,0,0,0,157,141,103,171,83,144,587,587,177,532,532,53,0,,,,
2,1779307637984,10753,5278,27599,8428718,-120951,-3618765,0,0,0,31,40,16,58,45,56,140,109,79,88,105,29,0,,,,
1,1779307638000,-1861,497,10409,218689,-41538,-61086,0,0,0,197,166,130,167,63,154,595,595,167,526,526,31,0,,,,
2,1779307638000,10495,10586,16439,7287622,-459370,-4006054,0,0,0,33,65,21,64,65,70,144,114,88,86,93,34,0,,,,
1,1779307638016,-2278,1249,10591,158824,48869,8552,0,0,0,196,168,172,171,82,221,593,593,229,519,519,56,0,,,,
2,1779307638016,9480,16735,10002,4283387,-916297,-3920533,0,0,0,41,47,18,76,39,49,150,91,61,97,74,17,0,,,,
1,1779307638032,-2048,1502,10069,195476,90408,21991,0,0,0,207,178,158,182,81,185,587,587,204,511,511,47,0,,,,
2,1779307638032,6202,20109,10930,-290771,-1049466,-2895501,0,0,0,39,42,11,86,44,59,179,88,60,111,75,20,0,,,,
1,1779307638048,-1761,1320,10141,262672,21991,26878,0,0,0,201,184,153,186,83,176,577,577,198,500,499,39,0,,,,
2,1779307638048,3613,16022,10993,-3554013,-1457524,-1270599,0,0,0,42,46,15,96,44,68,143,87,68,93,76,24,0,,,,
1,1779307638064,-1737,1359,10452,338419,-58643,51312,0,0,0,191,179,144,198,89,184,556,556,186,481,468,51,0,,,,
2,1779307638064,6264,8245,4570,-3905872,-1656666,-89186,0,0,0,33,46,27,92,41,76,148,91,84,93,76,33,0,,,,
1,1779307638080,-1780,1464,10519,436157,-130725,74525,0,0,0,180,191,107,217,110,170,518,518,200,447,415,56,0,,,,
2,1779307638080,8820,4819,392,-3503923,-591317,233350,0,0,0,53,45,24,110,40,75,175,84,83,124,69,25,0,,,,
1,1779307638096,-1804,1397,10241,526565,-189368,80634,0,0,0,167,194,84,225,127,161,479,479,210,416,355,54,0,,,,
2,1779307638096,7140,5699,2368,-3699399,689055,340862,0,0,0,55,47,26,112,45,80,177,85,84,127,75,26,0,,,,
1,1779307638112,-1880,1162,9930,551000,-207694,80634,0,0,0,166,183,90,227,120,173,454,439,197,398,284,56,0,,,,
2,1779307638112,5321,6508,5211,-4247956,1154535,730594,0,0,0,51,48,28,110,53,84,173,95,88,122,81,31,0,,,,
1,1779307638128,-1986,952,9705,524122,-185703,89186,0,0,0,169,190,85,229,115,179,437,386,209,369,215,59,0,,,,
2,1779307638128,5819,6082,6704,-4878369,1027475,1240056,0,0,0,39,48,32,100,59,87,156,100,96,99,80,37,0,,,,
1,1779307638144,-2067,818,9562,469144,-134390,103847,0,0,0,154,193,74,224,118,185,427,357,218,328,177,73,0,,,,
2,1779307638144,6862,5096,7398,-5281540,1378111,1431868,0,0,0,38,49,35,97,60,90,147,101,98,91,81,38,0,,,,
1,1779307638160,-2100,732,9471,422718,-89186,116064,0,0,0,136,190,68,219,108,184,423,350,205,299,158,90,0,,,,
2,1779307638160,6575,4484,8930,-5602855,1925447,1508837,0,0,0,40,50,34,98,59,88,151,102,98,94,83,37,0,,,,
1,1779307638176,-2077,684,9447,386066,-42760,129503,0,0,0,131,195,63,212,109,172,414,318,201,290,155,89,0,,,,
2,1779307638176,5532,4254,10997,-5848423,2260201,1599245,0,0,0,38,51,32,97,60,86,154,104,98,95,83,36,0,,,,
1,1779307638192,-2010,679,9509,360410,-7330,138055,0,0,0,133,216,61,206,132,179,409,302,201,251,154,88,0,,,,
2,1779307638192,5068,3953,12969,-6092769,2344500,1765400,0,0,0,37,52,32,97,59,85,154,104,97,95,85,37,0,,,,
1,1779307638208,-1938,660,9590,346971,2443,138055,0,0,0,131,226,57,221,137,182,409,288,205,256,157,104,0,,,,
2,1779307638208,5259,3517,15113,-6305350,2450791,1918116,0,0,0,38,50,31,95,57,82,155,102,96,95,87,38,0,,,,
1,1779307638224,-1842,636,9667,337197,-4886,134390,0,0,0,131,222,61,226,136,177,409,283,228,233,132,81,0,,,,
2,1779307638224,5527,3134,18018,-6464175,2665815,2029294,0,0,0,41,49,30,98,61,82,158,102,95,102,87,37,0,,,,
1,1779307638240,-1727,540,9710,326202,-41538,133168,0,0,0,129,229,64,227,139,189,409,295,216,224,138,56,0,,,,
2,1779307638240,5757,2756,21387,-6563136,2849075,2118480,0,0,0,40,49,25,100,60,77,161,104,92,108,91,39,0,,,,
1,1779307638256,-1756,416,9734,320093,-103847,135612,0,0,0,119,276,69,225,166,212,410,263,261,218,137,78,0,,,,
2,1779307638256,6154,2325,26183,-6671870,2934596,2348165,0,0,0,39,53,27,94,57,78,160,106,96,93,90,30,0,,,,
1,1779307638272,-1976,373,9739,323758,-149051,153938,0,0,0,118,285,75,225,182,243,407,239,264,182,140,127,0,,,,
2,1779307638272,6972,1253,30854,-6742730,2866179,2863736,0,0,0,39,55,31,93,63,84,153,102,98,97,79,35,0,,,,
1,1779307638288,-2144,339,9739,340862,-164933,193033,0,0,0,135,282,95,239,168,267,404,197,280,175,125,129,0,,,,
2,1779307638288,7379,-3881,33687,-6697526,3178942,3562566,0,0,0,43,49,25,89,50,68,167,102,97,105,80,33,0,,,,
1,1779307638304,-2182,291,9815,366519,-167377,241902,0,0,0,143,301,121,280,156,264,404,168,298,185,106,129,0,,,,
2,1779307638304,5781,-13764,36573,-6384763,3668856,3907094,0,0,0,46,49,26,88,50,64,167,106,97,105,86,32,0,,,,
1,1779307638320,-2321,301,10007,425162,-147829,290771,0,0,0,162,307,113,317,162,285,409,168,319,178,120,157,0,,,,
2,1779307638320,3603,-27126,35606,-5736024,3071430,3448945,0,0,0,48,48,30,91,51,67,168,110,94,102,88,28,0,,,,
1,1779307638336,-2431,277,10246,515570,-123394,339641,0,0,0,168,316,95,354,191,308,413,160,334,165,111,184,0,,,,
2,1779307638336,2852,-41631,25302,-4408003,1639562,1668883,0,0,0,51,58,32,93,59,72,171,126,93,102,102,29,0,,,,
1,1779307638352,-2502,296,10667,664621,-102625,384845,0,0,0,164,330,94,397,207,327,390,128,344,164,80,212,0,,,,
2,1779307638352,-1713,-49466,14850,-2403143,1203404,-933402,0,0,0,51,44,24,84,46,66,185,128,103,112,106,34,0,,,,
1,1779307638368,-2388,339,11332,935845,-83077,416610,0,0,0,163,329,98,423,206,368,329,121,356,152,73,251,0,,,,
2,1779307638368,-11514,-45288,15060,-378736,1277930,-2703689,0,0,0,48,31,21,72,36,68,200,147,102,135,129,34,0,,,,
1,1779307638384,-1775,229,12041,1290147,-101403,420275,0,0,0,150,327,98,421,226,410,266,138,368,127,63,278,0,,,,
2,1779307638384,-15520,-31222,24058,1418429,-1185078,-1984090,0,0,0,36,29,32,64,37,83,211,239,109,164,240,44,0,,,,
1,1779307638400,-1081,-19,12754,1687209,-222354,351858,0,0,0,155,327,84,424,226,421,234,77,383,147,65,310,0,,,,
2,1779307638400,-5637,-5340,21689,3370754,-4481307,-180816,0,0,0,29,28,23,72,43,71,246,354,90,218,366,39,0,,,,
1,1779307638416,-1646,-71,13634,2123367,-421497,276111,0,0,0,160,316,91,423,250,416,205,65,377,154,78,356,0,,,,
2,1779307638416,6149,13558,11572,4528954,-5035973,1423316,0,0,0,40,31,5,89,51,57,291,417,49,291,425,20,0,,,,
1,1779307638432,-2723,76,14515,2652376,-561996,317649,0,0,0,150,318,83,397,231,430,190,63,347,154,76,324,0,,,,
2,1779307638432,-143,5154,14903,5142263,-2478891,1358564,0,0,0,45,29,9,96,48,73,342,455,58,357,472,25,0,,,,
1,1779307638448,-3881,234,15510,3347541,-546113,511905,0,0,0,155,285,78,384,204,385,174,69,303,159,76,293,0,,,,
2,1779307638448,-7044,-2756,23507,5209458,-439822,309097,0,0,0,53,26,10,108,37,67,444,477,60,446,491,24,0,,,,
1,1779307638464,-5245,497,17233,4211304,-306654,830776,0,0,0,131,239,79,347,252,338,158,70,278,126,62,215,0,,,,
2,1779307638464,-3048,-1952,24512,4026823,-61086,-965167,0,0,0,90,57,21,119,38,57,496,496,47,515,515,28,0,,,,
1,1779307638480,-7556,875,19779,5164254,-15882,1240056,0,0,0,110,201,67,284,218,252,159,86,275,88,56,129,0,,,,
2,1779307638480,4718,909,16712,2569299,-234572,-784350,0,0,0,114,73,45,120,50,75,511,511,65,547,547,30,0,,,,
1,1779307638496,-10509,890,23273,6134308,261450,1808161,0,0,0,82,131,48,202,127,188,147,72,196,55,36,68,0,,,,
2,1779307638496,5001,325,10394,1340238,-254119,169820,0,0,0,121,83,70,125,71,88,543,543,84,579,579,52,0,,,,
1,1779307638512,-12002,674,26901,6960198,478918,2449569,0,0,0,49,85,35,123,73,128,132,65,133,43,22,50,0,,,,
2,1779307638512,2225,-775,9581,588874,-278554,412944,0,0,0,153,94,110,135,54,104,560,560,113,602,602,78,0,,,,
1,1779307638528,-10859,1134,29150,7593054,570548,2999348,0,0,0,32,64,20,70,46,72,119,71,83,50,22,22,0,,,,
2,1779307638528,1249,-311,10667,207694,-320093,185703,0,0,0,157,82,114,157,55,116,577,577,129,605,605,71,0,,,,
1,1779307638544,-9734,3206,30705,8029212,679282,3382971,0,0,0,31,56,8,47,29,37,126,80,49,63,34,3,0,,,,
2,1779307638544,1832,952,10581,161268,-278554,45204,0,0,0,158,91,145,160,65,125,598,598,137,616,616,68,0,,,,
1,1779307638560,-11284,7231,25360,8153829,1420872,3556457,0,0,0,34,48,2,45,27,28,142,97,40,75,52,4,0,,,,
2,1779307638560,2249,1440,10193,238237,-183259,36651,0,0,0,168,127,195,165,104,140,583,583,149,608,608,76,0,,,,
1,1779307638576,-14477,12179,14984,7867944,2020742,3793473,0,0,0,33,38,3,49,38,36,142,116,44,81,70,7,0,,,,
2,1779307638576,2091,1220,10031,328645,-152716,54977,0,0,0,187,125,182,195,96,133,567,567,137,590,590,78,0,,,,
1,1779307638592,-15218,16563,8939,6186843,1210734,3922976,0,0,0,30,40,5,48,44,39,121,112,43,82,78,4,0,,,,
2,1779307638592,1746,1143,10193,379958,-113620,40317,0,0,0,204,127,215,205,77,147,547,547,158,560,560,91,0,,,,
1,1779307638608,-8466,20626,8944,1670105,-185703,2530203,0,0,0,33,44,3,42,42,33,106,96,42,83,76,6,0,,,,
2,1779307638608,1703,1287,10332,447153,-13439,20769,0,0,0,205,132,213,200,78,150,520,520,185,521,510,94,0,,,,
1,1779307638624,-2005,18769,9629,-2913827,-72082,-109955,0,0,0,35,47,7,44,42,35,142,107,47,82,72,3,0,,,,
2,1779307638624,1842,1292,10265,538783,96516,4886,0,0,0,200,139,178,199,88,148,489,487,182,481,459,83,0,,,,
1,1779307638640,-3742,11079,7303,-4828278,1106887,-2218662,0,0,0,35,49,7,47,44,37,144,113,48,85,76,5,0,,,,
2,1779307638640,1986,1072,10031,592539,142942,0,0,0,0,202,151,170,203,96,147,465,442,160,453,411,73,0,,,,
1,1779307638656,-9609,4766,3402,-4458094,774577,-2326174,0,0,0,37,52,9,45,45,38,147,123,48,88,85,7,0,,,,
2,1779307638656,2091,751,9710,570548,111177,-3665,0,0,0,210,155,147,212,107,124,449,391,144,436,356,60,0,,,,
1,1779307638672,-7992,4417,3182,-3811799,-1108109,-1133765,0,0,0,45,52,11,50,41,42,153,115,53,97,75,5,0,,,,
2,1779307638672,2187,631,9576,496022,41538,-19547,0,0,0,219,170,138,225,116,133,437,371,150,417,332,53,0,,,,
1,1779307638688,-2397,5872,5561,-3897320,-1969429,-536339,0,0,0,43,51,11,52,41,38,141,114,50,93,72,5,0,,,,
2,1779307638688,2225,588,9518,427605,-23212,-50090,0,0,0,210,164,132,225,97,129,428,356,148,405,282,50,0,,,,
1,1779307638704,641,6791,8274,-4596150,-1395216,-868650,0,0,0,45,55,11,52,45,39,149,121,50,88,74,2,0,,,,
2,1779307638704,2139,545,9509,371406,-74525,-91629,0,0,0,215,168,150,226,100,131,412,274,167,392,231,49,0,,,,
1,1779307638720,-1497,6082,9700,-5332853,-928515,-1351233,0,0,0,44,58,12,52,47,42,149,121,51,94,78,10,0,,,,
2,1779307638720,2100,545,9585,346971,-102625,-118507,0,0,0,216,157,147,226,98,141,408,254,170,386,175,51,0,,,,
1,1779307638736,-3364,5187,11122,-5822767,-1198517,-1426981,0,0,0,44,55,10,53,44,39,151,119,50,95,79,12,0,,,,
2,1779307638736,2120,545,9715,346971,-133168,-138055,0,0,0,200,167,163,218,95,168,407,219,205,379,147,62,0,,,,
1,1779307638752,-2598,4632,13462,-6205169,-1760513,-1237612,0,0,0,46,57,11,54,44,40,151,119,52,93,80,10,0,,,,
2,1779307638752,2048,488,9763,349414,-149051,-157603,0,0,0,210,198,161,222,119,172,401,184,202,377,161,71,0,,,,
1,1779307638768,-842,4225,15965,-6553362,-1791056,-1213178,0,0,0,43,58,9,51,47,43,124,111,54,91,83,5,0,,,,
2,1779307638768,1919,411,9729,342084,-144164,-162490,0,0,0,212,223,164,222,124,153,399,187,172,371,155,82,0,,,,
1,1779307638784,-1028,3263,18444,-6834360,-1492954,-1362229,0,0,0,42,62,9,51,49,43,119,114,53,88,87,5,0,,,,
2,1779307638784,1866,339,9715,333532,-135612,-156381,0,0,0,200,209,157,225,133,162,396,201,172,343,162,74,0,,,,
1,1779307638800,-1962,2148,20971,-6934542,-1393994,-1484402,0,0,0,43,63,12,51,50,43,141,127,50,87,87,7,0,,,,
2,1779307638800,1919,263,9753,331088,-122173,-153938,0,0,0,194,195,172,216,130,183,393,181,192,326,141,83,0,,,,
1,1779307638816,-2550,1249,23699,-6862460,-1385442,-1718974,0,0,0,42,56,11,49,47,40,142,120,49,87,83,7,0,,,,
2,1779307638816,1995,210,9810,342084,-109955,-171042,0,0,0,197,209,179,215,133,196,392,171,204,313,138,93,0,,,,
1,1779307638832,-3560,-57,26676,-6750060,-1276708,-2265088,0,0,0,43,54,13,52,42,36,147,107,52,86,72,9,0,,,,
2,1779307638832,1986,177,9849,366519,-101403,-200363,0,0,0,197,236,185,224,139,217,387,167,220,304,142,105,0,,,,
1,1779307638848,-6154,-3101,29571,-6612005,-1202182,-3211929,0,0,0,48,52,15,55,38,37,155,90,52,91,60,11,0,,,,
2,1779307638848,1966,138,9882,401949,-109955,-222354,0,0,0,207,250,206,238,141,235,382,143,240,292,119,121,0,,,,
1,1779307638864,-10251,-8944,31997,-6489832,-1407433,-4013384,0,0,0,46,52,13,55,42,41,153,104,53,90,77,11,0,,,,
2,1779307638864,2048,67,9973,452040,-122173,-243124,0,0,0,238,252,227,270,150,233,385,111,242,276,95,130,0,,,,
1,1779307638880,-13577,-18554,31667,-6352998,-1749518,-3900985,0,0,0,42,54,16,55,46,46,153,109,64,84,82,10,0,,,,
2,1779307638880,2115,-9,10227,535117,-108734,-282219,0,0,0,240,267,240,311,151,260,384,77,244,299,79,157,0,,,,
1,1779307638896,-14745,-30504,27245,-5937610,-1936442,-2867401,0,0,0,47,63,14,57,51,39,153,111,54,81,82,9,0,,,,
2,1779307638896,2062,43,10701,684169,-72082,-331088,0,0,0,235,335,212,341,180,266,350,84,238,277,81,171,0,,,,
1,1779307638912,-9777,-39966,19669,-4759861,-2381152,-1102000,0,0,0,42,56,14,55,48,45,159,111,60,89,83,11,0,,,,
2,1779307638912,2019,157,11447,944397,-34208,-366519,0,0,0,221,350,191,376,198,296,263,105,264,197,95,180,0,,,,
1,1779307638928,3125,-42009,14974,-2618168,-2847853,331088,0,0,0,43,54,23,59,47,54,160,111,70,90,84,19,0,,,,
2,1779307638928,1943,114,12189,1277930,-18325,-389732,0,0,0,264,394,113,399,236,261,242,104,235,203,99,156,0,,,,
1,1779307638944,11787,-41062,13898,-626747,-1820378,886976,0,0,0,28,30,16,44,31,46,186,153,67,93,81,15,0,,,,
2,1779307638944,1904,-67,12902,1671327,3665,-399505,0,0,0,313,384,97,383,204,278,212,82,269,195,77,172,0,,,,
1,1779307638960,9346,-37717,15194,689055,378736,878424,0,0,0,30,24,5,41,24,31,228,207,49,141,123,9,0,,,,
2,1779307638960,2316,-229,13491,2144136,-4886,-427605,0,0,0,309,390,88,362,211,237,211,99,249,195,107,189,0,,,,
1,1779307638976,3082,-19090,17985,2312735,2624277,638965,0,0,0,29,22,0,38,29,29,269,317,51,178,221,8,0,,,,
2,1779307638976,2785,-363,13960,2642603,-107512,-497244,0,0,0,336,389,79,369,203,197,197,101,193,206,113,180,0,,,,
1,1779307638992,-3326,6738,14702,3689626,4312708,-26878,0,0,0,29,20,0,47,32,38,331,397,51,215,329,8,0,,,,
2,1779307638992,3479,-449,14635,3255911,-306654,-643851,0,0,0,351,360,103,350,184,230,185,81,198,177,83,172,0,,,,
1,1779307639008,-3488,13127,11414,4397007,3976732,-717155,0,0,0,37,17,7,64,26,73,407,426,57,318,399,17,0,,,,
2,1779307639008,4584,-488,15496,3852116,-507018,-877202,0,0,0,315,322,96,315,180,225,177,69,187,142,68,131,0,,,,
1,1779307639024,2378,2163,17300,5236336,1764178,-790459,0,0,0,52,13,17,74,24,98,455,455,71,426,429,25,0,,,,
2,1779307639024,5905,-617,16836,4499633,-679282,-1214400,0,0,0,255,282,122,265,170,244,148,59,208,93,50,107,0,,,,
1,1779307639040,4340,-2455,25068,5010316,0,58643,0,0,0,70,25,24,86,33,72,467,467,67,440,440,19,0,,,,
2,1779307639040,7083,-918,19526,5294979,-773355,-1690874,0,0,0,177,244,118,207,160,227,128,63,202,79,43,96,0,,,,
1,1779307639056,-516,-1076,23129,3338989,-326202,702495,0,0,0,81,60,58,96,40,94,466,467,110,438,438,43,0,,,,
2,1779307639056,7834,-1316,23584,6155078,-775798,-2123367,0,0,0,106,222,74,158,156,166,114,96,136,68,68,65,0,,,,
1,1779307639072,-4718,717,14615,1569923,-109955,252898,0,0,0,118,70,52,112,35,91,491,493,123,448,448,25,0,,,,
2,1779307639072,8925,-1100,26283,6839247,-712268,-2442239,0,0,0,77,166,51,116,112,117,106,96,90,41,68,36,0,,,,
1,1779307639088,-2890,459,9652,860098,-161268,-284663,0,0,0,133,103,65,132,43,101,534,534,168,480,480,22,0,,,,
2,1779307639088,10150,665,26776,7417125,-316428,-2838079,0,0,0,59,87,26,78,62,59,119,85,68,52,61,26,0,,,,
1,1779307639104,-1550,-167,8700,454483,-204028,-332310,0,0,0,150,132,82,144,52,107,540,540,180,494,494,39,0,,,,
2,1779307639104,10193,2713,27508,7820296,339641,-3404962,0,0,0,38,75,18,59,71,43,121,128,62,65,100,21,0,,,,
1,1779307639120,-2038,268,10040,194255,-42760,-107512,0,0,0,169,134,130,155,46,118,554,554,157,506,506,39,0,,,,
2,1779307639120,10059,4589,22794,7750658,210137,-3959628,0,0,0,53,61,27,70,47,59,150,111,72,79,81,25,0,,,,
1,1779307639136,-2345,1014,10399,73303,114842,-14660,0,0,0,181,164,231,155,86,164,556,556,177,514,514,67,0,,,,
2,1779307639136,10256,8949,14166,6778160,-526565,-4300491,0,0,0,45,57,30,61,42,72,136,106,78,71,74,28,0,,,,
1,1779307639152,-2005,1335,10117,91629,164933,-21991,0,0,0,206,152,187,178,55,146,563,563,173,520,520,53,0,,,,
2,1779307639152,8576,16243,10155,3268129,-850324,-3557679,0,0,0,43,62,23,59,42,54,136,106,70,74,81,19,0,,,,
1,1779307639168,-1627,1268,10098,155159,100181,-26878,0,0,0,213,155,174,184,57,148,549,549,157,511,511,47,0,,,,
2,1779307639168,5020,19081,11237,-1613905,-1009149,-1532050,0,0,0,40,63,42,59,41,74,136,98,102,69,80,36,0,,,,
1,1779307639184,-1627,1349,10423,232128,-12217,7330,0,0,0,213,168,175,182,64,155,536,536,160,493,493,48,0,,,,
2,1779307639184,4498,12816,10428,-4342030,-1657888,469144,0,0,0,43,66,35,69,48,72,135,107,95,80,90,43,0,,,,
1,1779307639200,-1651,1430,10533,338419,-130725,45204,0,0,0,205,168,162,186,61,150,517,517,201,472,472,57,0,,,,
2,1779307639200,8695,6144,4273,-4196644,-1571145,872315,0,0,0,50,65,35,74,49,70,147,110,90,93,94,34,0,,,,
1,1779307639216,-1703,1363,10294,438601,-224798,58643,0,0,0,191,167,151,192,62,151,494,494,231,446,446,67,0,,,,
2,1779307639216,10734,4029,760,-3694512,-156381,328645,0,0,0,43,65,34,69,52,73,138,111,92,87,100,39,0,,,,
1,1779307639232,-1837,1158,9987,474031,-257785,63529,0,0,0,177,168,132,195,69,160,470,470,214,425,409,63,0,,,,
2,1779307639232,7805,5484,2895,-3863111,1313360,-229685,0,0,0,41,65,33,68,53,73,134,112,90,81,98,34,0,,,,
1,1779307639248,-1938,966,9767,466701,-255341,74525,0,0,0,167,169,111,195,69,161,453,453,195,411,364,58,0,,,,
2,1779307639248,4005,6259,6714,-4508185,1502728,-136833,0,0,0,45,68,33,71,52,69,140,115,88,80,97,28,0,,,,
1,1779307639264,-1971,837,9643,419053,-228463,92851,0,0,0,163,170,107,198,65,162,443,438,195,390,314,58,0,,,,
2,1779307639264,3527,5604,8183,-4906469,1182635,249233,0,0,0,46,69,35,71,52,71,141,118,90,82,101,30,0,,,,
1,1779307639280,-1990,808,9585,370184,-207694,102625,0,0,0,166,169,109,204,68,170,432,411,199,361,275,57,0,,,,
2,1779307639280,4958,4656,8303,-5021312,1298699,619417,0,0,0,44,68,39,69,53,77,139,117,96,86,102,38,0,,,,
1,1779307639296,-2062,789,9557,332310,-174707,111177,0,0,0,168,174,98,203,84,163,423,376,205,342,259,61,0,,,,
2,1779307639296,4694,4690,9676,-5138598,1896125,889419,0,0,0,44,69,40,71,54,80,145,117,100,90,103,44,0,,,,
1,1779307639312,-2120,760,9562,307876,-119729,125838,0,0,0,162,191,90,205,104,156,416,329,205,340,242,58,0,,,,
2,1779307639312,3910,4852,11529,-5359731,2255314,1231504,0,0,0,46,72,41,71,55,77,149,123,101,93,106,43,0,,,,
1,1779307639328,-2053,698,9576,291993,-68416,136833,0,0,0,155,170,98,209,96,175,408,289,213,334,242,76,0,,,,
2,1779307639328,3680,4728,13414,-5655390,2365270,1667662,0,0,0,46,71,40,71,52,76,151,119,101,94,100,43,0,,,,
1,1779307639344,-1971,622,9552,267558,-51312,136833,0,0,0,144,200,102,191,155,192,412,304,228,323,220,92,0,,,,
2,1779307639344,4029,4522,15391,-5916840,2454456,2039068,0,0,0,48,68,49,71,49,82,151,118,108,85,97,46,0,,,,
1,1779307639360,-1909,564,9557,240680,-50090,129503,0,0,0,153,181,93,202,122,176,412,290,218,317,191,86,0,,,,
2,1779307639360,4436,4326,18238,-6183177,2577851,2300518,0,0,0,47,70,53,72,53,88,155,127,115,92,102,50,0,,,,
1,1779307639376,-1837,559,9633,221133,-59864,119729,0,0,0,151,188,101,182,133,188,412,283,255,309,186,101,0,,,,
2,1779307639376,4991,3828,21612,-6455623,2706133,2475225,0,0,0,40,69,49,68,57,87,150,138,111,83,122,45,0,,,,
1,1779307639392,-1813,569,9830,224798,-91629,107512,0,0,0,151,212,102,209,138,213,408,256,249,306,184,109,0,,,,
2,1779307639392,5494,3010,25494,-6674313,2813645,2637716,0,0,0,38,67,49,67,57,88,149,127,111,85,104,49,0,,,,
1,1779307639408,-1919,559,10002,265115,-139277,116064,0,0,0,161,209,108,230,121,226,403,211,256,273,175,102,0,,,,
2,1779307639408,5766,1253,29514,-6741508,2775771,3111747,0,0,0,40,70,51,67,56,89,142,127,117,82,109,50,0,,,,
1,1779307639424,-2110,512,10011,333532,-179594,153938,0,0,0,168,222,115,253,114,250,401,180,269,248,170,126,0,,,,
2,1779307639424,6144,-2967,32730,-6599788,2816088,3866776,0,0,0,47,62,47,69,49,82,152,107,111,94,94,46,0,,,,
1,1779307639440,-2345,416,9935,417831,-204028,229685,0,0,0,172,260,142,275,132,258,402,163,292,232,162,157,0,,,,
2,1779307639440,5585,-11596,35357,-6135530,3114190,4477642,0,0,0,47,55,39,74,50,75,163,115,98,98,95,39,0,,,,
1,1779307639456,-2445,339,9911,489913,-212581,307876,0,0,0,170,287,148,262,156,270,405,164,311,202,166,177,0,,,,
2,1779307639456,4718,-25714,33180,-5340183,2527760,4167322,0,0,0,53,51,38,88,48,75,194,111,93,119,98,39,0,,,,
1,1779307639472,-2421,263,10064,571769,-217468,366519,0,0,0,173,299,120,269,185,285,407,176,311,180,151,182,0,,,,
2,1779307639472,5843,-40856,23024,-4056145,1481959,2698802,0,0,0,52,57,41,81,54,78,180,126,99,113,113,42,0,,,,
1,1779307639488,-2474,325,10610,720820,-222354,398284,0,0,0,175,322,97,308,205,301,377,161,318,179,114,213,0,,,,
2,1779307639488,2857,-47633,13601,-2384817,1573588,238237,0,0,0,46,72,37,74,67,83,163,142,99,104,126,43,0,,,,
1,1779307639504,-2608,435,11280,960280,-200363,421497,0,0,0,160,354,103,307,204,352,325,117,348,165,98,273,0,,,,
2,1779307639504,-7977,-44560,14055,-717155,1659109,-1943773,0,0,0,47,56,29,80,54,74,175,134,91,117,127,38,0,,,,
1,1779307639520,-2392,354,11820,1284038,-145385,444709,0,0,0,161,342,109,313,207,410,311,105,360,145,67,275,0,,,,
2,1779307639520,-14127,-36726,19334,755029,92851,-2636494,0,0,0,40,33,15,77,41,49,185,189,72,127,181,25,0,,,,
1,1779307639536,-1928,100,12266,1649336,-189368,439822,0,0,0,167,315,100,330,205,409,242,82,384,153,71,318,0,,,,
2,1779307639536,-6594,-14170,22459,2449569,-2842966,-1462411,0,0,0,20,33,3,65,54,38,167,303,60,141,302,17,0,,,,
1,1779307639552,-2297,-33,13194,2107485,-316428,448375,0,0,0,142,303,83,356,230,388,214,89,382,157,92,335,0,,,,
2,1779307639552,4479,9093,15903,3718947,-4580267,58643,0,0,0,21,35,10,75,60,64,171,345,70,217,387,26,0,,,,
1,1779307639568,-3206,38,14434,2685363,-419053,560774,0,0,0,160,263,95,329,217,406,163,79,377,139,75,320,0,,,,
2,1779307639568,6331,11677,10346,4451985,-3679852,1224173,0,0,0,51,34,10,97,48,57,310,417,53,341,425,16,0,,,,
1,1779307639584,-3776,248,15654,3391523,-471587,777020,0,0,0,141,228,97,325,241,418,148,82,374,113,55,294,0,,,,
2,1779307639584,-3311,-703,17463,5169141,-1271821,1295034,0,0,0,47,35,17,108,43,69,385,463,56,448,478,16,0,,,,
1,1779307639600,-4225,478,16980,4161214,-453262,1006705,0,0,0,110,236,78,304,192,359,211,66,374,113,63,231,0,,,,
2,1779307639600,-5963,-2871,24924,4834387,-301767,-73303,0,0,0,59,53,25,107,43,65,481,481,64,488,488,28,0,,,,
1,1779307639616,-5905,1038,19808,5197241,-408057,1319468,0,0,0,113,172,74,284,184,315,245,61,307,106,43,150,0,,,,
2,1779307639616,966,-162,21804,3474601,-306654,-894306,0,0,0,112,80,57,100,41,58,486,493,56,522,522,28,0,,,,
1,1779307639632,-8356,1273,23058,6185621,-333532,1687209,0,0,0,105,116,52,260,109,221,218,47,197,98,19,74,0,,,,
2,1779307639632,5996,928,13744,1958433,-416610,-270002,0,0,0,138,109,86,114,69,77,509,509,86,528,528,44,0,,,,
1,1779307639648,-10251,957,26738,7123910,-207694,2202780,0,0,0,67,94,53,141,101,141,141,50,130,60,20,48,0,,,,
2,1779307639648,3101,-172,9944,983493,-278554,335975,0,0,0,150,98,105,139,86,89,545,545,92,568,568,43,0,,,,
1,1779307639664,-10160,1134,29581,7841066,-51312,2731789,0,0,0,43,70,40,74,63,81,121,46,78,65,31,22,0,,,,
2,1779307639664,1392,-593,9595,427605,-202807,317649,0,0,0,141,98,135,144,91,105,570,570,111,610,610,75,0,,,,
1,1779307639680,-9006,2881,30394,8230798,196698,3119077,0,0,0,26,50,15,46,35,39,127,68,46,72,52,3,0,,,,
2,1779307639680,1732,148,10332,118507,-301767,68416,0,0,0,145,102,140,138,91,114,602,602,148,638,638,80,0,,,,
