sole_id,timestamp,accel_x,accel_y,accel_z,gyro_x,gyro_y,gyro_z,magn_x,magn_y,magn_z,pressure_01,pressure_02,pressure_03,pressure_04,pressure_05,pressure_06,pressure_07,pressure_08,pressure_09,pressure_10,pressure_11,pressure_12,corrupt,concrete
1,1775671475712,-1995,737,9638,-23212,-13439,21991,0,0,0,369,352,351,409,255,453,559,412,381,396,353,375,0,
1,1775671475728,-1995,737,9624,-56199,-18325,15882,0,0,0,366,353,348,408,254,448,557,417,377,393,351,368,0,
2,1775671475728,4934,244,12017,-2136806,204028,1167974,0,0,0,262,450,250,362,392,401,373,359,283,180,203,206,0,
1,1775671475744,-2010,746,9629,-92851,-21991,12217,0,0,0,365,348,341,408,256,446,556,422,377,400,358,367,0,
2,1775671475744,5422,-823,12007,-2020742,174707,814894,0,0,0,260,451,249,360,388,397,370,353,281,190,214,206,0,
1,1775671475760,-2005,770,9633,-127059,-19547,9773,0,0,0,366,350,340,413,257,448,556,414,378,400,367,359,0,
2,1775671475760,5422,-1062,12208,-1866804,315206,690277,0,0,0,256,452,247,360,390,400,368,352,279,196,222,205,0,
1,1775671475776,-1981,794,9662,-155159,-20769,7330,0,0,0,362,353,313,412,257,435,555,409,372,400,370,349,0,
2,1775671475776,5187,-1182,12385,-1740965,540004,730594,0,0,0,257,452,249,360,388,400,369,351,280,201,230,205,0,
1,1775671475792,-1981,851,9700,-167377,-29321,2443,0,0,0,363,354,293,409,257,421,557,419,366,402,369,352,0,
2,1775671475792,4824,-1435,12218,-1632231,781907,923628,0,0,0,258,452,250,359,388,399,368,351,279,201,231,204,0,
1,1775671475808,-2014,952,9734,-150272,-35430,2443,0,0,0,367,356,294,408,257,417,561,426,366,405,370,363,0,
2,1775671475808,4010,-1411,12079,-1433089,1069014,1160643,0,0,0,256,451,247,359,387,398,369,354,280,200,228,206,0,
1,1775671475824,-2038,1024,9767,-100181,-32986,7330,0,0,0,368,355,296,409,257,421,564,422,368,407,374,363,0,
2,1775671475824,2948,-899,12179,-1285260,1269377,1363451,0,0,0,259,454,250,360,389,400,370,355,281,198,225,208,0,
1,1775671475840,-2010,995,9772,-48869,-30543,12217,0,0,0,369,353,298,412,257,427,565,426,369,407,379,353,0,
2,1775671475840,2005,-224,12203,-1284038,1314581,1473406,0,0,0,263,455,253,363,391,402,370,356,283,192,217,209,0,
1,1775671475856,-1986,957,9767,-8552,-39095,15882,0,0,0,377,355,297,414,259,429,562,427,369,403,383,352,0,
2,1775671475856,1201,181,11998,-1343903,1282817,1494176,0,0,0,262,450,251,363,391,402,374,361,285,178,199,209,0,
1,1775671475872,-1986,957,9767,15882,-56199,17104,0,0,0,372,359,302,409,257,429,565,428,373,402,380,351,0,
2,1775671475872,564,229,11619,-1375668,1194852,1423316,0,0,0,261,450,252,364,392,402,376,365,286,168,186,208,0,
1,1775671475888,-2005,961,9763,37873,-70860,19547,0,0,0,371,356,302,415,261,430,565,428,374,408,384,353,0,x
2,1775671475888,19,239,11332,-1334129,1073901,1292590,0,0,0,260,449,252,362,392,400,376,364,283,170,184,208,0,x
1,1775671475904,-2024,942,9729,54977,-73303,20769,0,0,0,365,353,292,418,261,436,564,427,378,409,383,355,0,
2,1775671475904,-358,320,11198,-1291369,908967,1156978,0,0,0,262,450,256,364,392,402,376,364,283,186,187,203,0,
1,1775671475920,-2029,938,9710,69638,-70860,23212,0,0,0,370,357,292,416,259,436,563,423,378,409,381,353,0,
2,1775671475920,-114,277,10882,-1260825,684169,1020144,0,0,0,263,450,255,363,394,402,374,364,284,160,175,207,0,
1,1775671475936,-2029,938,9729,90408,-69638,26878,0,0,0,373,358,293,415,256,434,563,419,380,401,376,350,0,
2,1775671475936,473,114,10380,-1208291,515570,862541,0,0,0,262,451,251,363,394,400,377,365,284,161,175,206,0,
1,1775671475952,-2033,923,9734,112399,-63529,29321,0,0,0,370,356,291,419,262,436,566,417,381,406,375,363,0,
2,1775671475952,923,4,9997,-1122770,447153,712268,0,0,0,262,451,253,364,394,400,380,367,285,159,172,206,0,
1,1775671475968,-2038,904,9719,129503,-57421,32986,0,0,0,367,357,292,420,265,440,561,415,385,406,375,365,0,
2,1775671475968,981,47,9834,-1021366,431270,619417,0,0,0,264,451,255,362,392,396,350,357,294,156,169,203,0,
1,1775671475984,-2053,885,9710,139277,-45204,35430,0,0,0,368,358,295,418,264,440,564,410,386,404,373,364,0,
2,1775671475984,674,210,9734,-910189,406836,637743,0,0,0,262,449,253,362,393,399,369,363,286,155,169,204,0,
1,1775671476000,-2053,842,9696,138055,-19547,35430,0,0,0,369,358,295,419,264,442,565,400,386,406,370,369,0,
2,1775671476000,536,196,9542,-797790,360410,758694,0,0,0,260,445,249,364,394,400,378,366,283,154,168,207,0,
1,1775671476016,-2033,808,9696,135612,-6108,36651,0,0,0,368,362,292,422,271,446,559,394,385,405,362,378,0,
2,1775671476016,966,-306,9183,-607200,327423,935845,0,0,0,262,447,252,364,393,400,379,368,285,155,169,207,0,
1,1775671476032,-1995,818,9748,147829,-24434,41538,0,0,0,369,366,296,421,274,450,556,388,385,391,346,385,0,
2,1775671476032,1521,-890,8892,-372627,362853,1078788,0,0,0,264,450,255,364,392,399,381,369,287,156,169,207,0,
1,1775671476048,-1990,827,9815,175929,-51312,46425,0,0,0,370,363,304,423,269,455,557,377,390,373,337,392,0,
2,1775671476048,1636,-1182,8820,-141720,471587,1205847,0,0,0,265,451,255,363,391,398,384,368,286,188,183,205,0,
1,1775671476064,-2005,808,9834,208915,-75747,50090,0,0,0,376,366,299,429,273,449,563,365,395,369,328,398,0,
2,1775671476064,1234,-1349,8853,63529,585208,1373225,0,0,0,265,452,256,363,392,398,385,369,287,212,197,203,0,
1,1775671476080,-2033,765,9810,246789,-96516,58643,0,0,0,371,362,291,427,293,455,563,347,395,360,311,410,0,
2,1775671476080,612,-1732,8829,249233,630412,1562593,0,0,0,264,451,257,367,395,402,382,368,286,156,169,207,0,
1,1775671476096,-2057,727,9844,288328,-124616,69638,0,0,0,365,367,285,419,287,458,547,336,402,351,307,422,0,
2,1775671476096,483,-2421,8686,488692,629191,1665218,0,0,0,263,451,255,366,394,400,380,366,284,159,172,207,0,
1,1775671476112,-2100,665,9925,333532,-168598,86742,0,0,0,357,381,300,420,294,478,536,315,415,327,276,451,0,
2,1775671476112,583,-3101,8667,784350,635299,1671327,0,0,0,259,451,256,363,393,400,376,366,285,180,204,206,0,
1,1775671476128,-2158,612,9954,368962,-199142,105068,0,0,0,357,375,288,428,298,472,536,290,416,325,263,442,0,
2,1775671476128,536,-3522,9121,1018923,585208,1530828,0,0,0,247,451,243,356,390,393,367,376,270,215,265,196,0,
1,1775671476144,-2220,583,9930,400727,-186924,120951,0,0,0,365,375,311,423,297,489,526,283,421,311,248,455,0,
2,1775671476144,-277,-3594,10772,1317025,357967,1356120,0,0,0,251,445,238,357,390,392,381,409,262,233,288,188,0,
1,1775671476160,-2220,507,9944,444709,-147829,136833,0,0,0,375,378,293,427,294,492,521,263,417,302,228,471,0,
2,1775671476160,-885,-14,11634,1883908,-182037,1133765,0,0,0,252,440,234,354,386,387,395,440,261,231,292,185,0,
1,1775671476176,-2211,425,10093,502131,-138055,149051,0,0,0,379,388,283,432,305,495,509,251,427,293,215,478,0,
2,1775671476176,-1028,3943,10892,2129476,-670730,715934,0,0,0,252,435,233,354,383,387,408,457,261,230,292,181,0,
1,1775671476192,-2364,339,10466,615752,-168598,173485,0,0,0,374,394,266,438,314,502,491,240,426,287,206,486,0,
2,1775671476192,-1220,3795,11088,2117258,-813672,162490,0,0,0,264,439,234,361,383,388,422,474,260,256,324,185,0,
1,1775671476208,-2455,325,10854,788016,-200363,221133,0,0,0,373,392,249,445,308,507,477,228,422,279,191,499,0,
2,1775671476208,-545,2024,12270,2056172,-555887,-282219,0,0,0,264,440,235,363,385,391,440,477,266,203,267,191,0,
1,1775671476224,-2316,368,11127,971275,-210137,257785,0,0,0,382,389,234,446,303,512,457,216,419,270,179,502,0,
2,1775671476224,1057,1608,12687,1988977,-213802,-454483,0,0,0,262,441,242,363,383,394,448,485,266,247,313,187,0,
1,1775671476240,-2392,277,11433,1175304,-256563,287106,0,0,0,374,385,219,444,311,518,430,209,421,257,170,508,0,
2,1775671476240,2115,1789,12462,1858252,-70860,-397062,0,0,0,262,443,252,359,388,395,472,490,272,226,290,193,0,
1,1775671476256,-2881,186,11825,1429424,-298102,356745,0,0,0,361,381,211,439,323,519,405,208,425,245,160,523,0,
2,1775671476256,2182,1574,12117,1561371,-158824,-213802,0,0,0,278,449,271,367,387,396,494,498,273,221,276,206,0,
1,1775671476272,-3517,110,12385,1775174,-230907,510683,0,0,0,368,377,211,435,322,515,378,200,426,247,153,530,0,
2,1775671476272,1761,1167,11256,1144761,-251676,-34208,0,0,0,311,455,291,388,382,405,510,508,273,248,292,225,0,
1,1775671476288,-3862,76,13151,2151467,-103847,689055,0,0,0,375,376,210,433,319,510,351,190,423,237,147,523,0,
2,1775671476288,1373,847,10543,731816,-272445,31764,0,0,0,341,460,302,404,383,415,523,513,280,244,281,245,0,
1,1775671476304,-4130,114,14343,2626720,37873,879645,0,0,0,385,387,207,418,319,480,329,177,410,221,139,514,0,
2,1775671476304,1253,521,10466,322536,-270002,50090,0,0,0,359,469,308,408,388,420,532,519,283,251,288,256,0,
1,1775671476320,-4536,205,15812,3180164,163711,1075122,0,0,0,379,391,207,420,319,465,302,164,394,212,128,492,0,
2,1775671476320,1182,555,10557,-53756,-244346,42760,0,0,0,374,473,315,412,392,426,539,523,286,272,313,260,0,
1,1775671476336,-4876,124,17181,3775147,300545,1251052,0,0,0,365,374,210,403,302,452,269,162,391,201,118,450,0,
2,1775671476336,1119,1100,10337,-182037,-175929,28099,0,0,0,383,477,324,422,397,435,546,535,294,246,282,267,0,
1,1775671476352,-5345,0,18224,4393342,453262,1412320,0,0,0,332,372,206,361,299,435,232,158,376,172,120,394,0,
2,1775671476352,1139,1507,10160,-130725,-86742,15882,0,0,0,388,480,320,426,400,438,550,535,296,300,331,273,0,
1,1775671476368,-5881,38,18434,4835609,536339,1588249,0,0,0,311,351,204,342,273,395,235,170,343,159,126,307,0,
2,1775671476368,1244,1579,10141,17104,-23212,3665,0,0,0,403,485,325,426,400,443,553,540,299,309,343,285,0,
1,1775671476384,-5838,-43,18305,5174028,553443,1822821,0,0,0,292,337,200,326,257,363,259,212,313,161,168,231,0,
2,1775671476384,1249,1459,10122,109955,-10995,-2443,0,0,0,411,485,330,426,400,443,553,537,300,316,344,293,0,
1,1775671476400,-6006,-201,17918,5455026,630412,2051285,0,0,0,261,315,199,291,238,323,285,246,290,164,210,164,0,
2,1775671476400,1220,1373,10045,150272,-4886,-4886,0,0,0,418,494,335,432,409,451,558,540,312,324,348,302,0,
1,1775671476416,-6944,28,15372,5540547,850324,2241875,0,0,0,241,286,206,259,197,289,310,259,276,171,232,123,0,
2,1775671476416,1229,1344,9973,152716,2443,-6108,0,0,0,417,496,329,433,409,454,560,540,313,326,348,307,0,
1,1775671476432,-7552,555,11098,5326744,1012814,2460565,0,0,0,230,280,214,246,181,281,320,267,273,173,240,112,0,
2,1775671476432,1296,1325,9935,152716,1221,-10995,0,0,0,422,496,332,441,413,461,561,539,317,336,354,315,0,
1,1775671476448,-8255,4111,8006,4649906,911410,2651155,0,0,0,223,295,218,243,194,289,314,272,276,168,241,117,0,
2,1775671476448,1359,1335,9925,158824,-18325,-19547,0,0,0,425,498,334,447,416,465,562,535,319,338,347,330,0,
1,1775671476464,-8418,13103,8145,2533869,333532,2400700,0,0,0,220,302,219,242,198,291,307,273,276,164,241,118,0,
2,1775671476464,1340,1349,9968,185703,-40317,-28099,0,0,0,429,502,336,447,415,467,562,529,323,339,341,344,0,
1,1775671476480,-5872,16266,8202,-630412,106290,1390329,0,0,0,220,306,222,243,200,292,306,273,279,163,241,118,0,
2,1775671476480,1292,1349,10054,228463,-42760,-37873,0,0,0,431,504,335,451,415,470,562,521,329,351,344,357,0,
1,1775671476496,-4848,11883,5800,-2434908,471587,530231,0,0,0,220,301,224,244,201,293,314,278,279,170,243,125,0,
2,1775671476496,1282,1301,10093,272445,-18325,-46425,0,0,0,434,506,340,455,419,478,562,511,335,364,351,368,0,
1,1775671476512,-6494,6992,3460,-2305405,288328,533896,0,0,0,220,303,228,243,200,297,309,278,278,190,239,133,0,
2,1775671476512,1301,1196,9987,284663,0,-48869,0,0,0,440,510,349,452,420,483,561,503,338,372,358,374,0,
1,1775671476528,-6034,6360,4048,-2149023,-532674,794124,0,0,0,224,307,232,243,198,297,312,278,283,170,249,130,0,
2,1775671476528,1306,1134,9882,273667,0,-50090,0,0,0,442,511,342,449,422,480,559,494,337,375,363,379,0,
1,1775671476544,-3484,7432,6322,-2552194,-967610,663399,0,0,0,219,303,229,244,201,302,310,276,283,170,247,126,0,
2,1775671476544,1311,1119,9858,257785,-4886,-51312,0,0,0,444,511,338,453,431,487,557,483,340,375,361,383,0,
1,1775671476560,-2900,6963,7642,-3177720,-729373,28099,0,0,0,221,303,228,246,202,300,310,274,279,169,244,125,0,
2,1775671476560,1344,1091,9882,246789,-20769,-51312,0,0,0,442,512,334,454,435,492,557,477,344,376,355,384,0,
1,1775671476576,-3866,5872,8097,-3539353,-788016,-494800,0,0,0,220,305,225,243,210,296,311,277,282,168,245,125,0,
2,1775671476576,1354,1048,9897,241902,-48869,-53756,0,0,0,448,520,342,458,433,496,556,467,345,380,353,392,0,
1,1775671476592,-3685,5431,8968,-3705508,-1259604,-788016,0,0,0,222,306,227,247,205,300,313,279,284,169,246,126,0,
2,1775671476592,1330,1009,9897,238237,-70860,-53756,0,0,0,454,525,344,458,434,496,555,459,351,387,354,404,0,
1,1775671476608,-2727,5388,10418,-3960850,-1571145,-1092227,0,0,0,224,307,227,251,204,300,315,279,280,171,245,123,0,
2,1775671476608,1301,981,9901,238237,-84299,-52534,0,0,0,456,527,344,464,438,506,546,446,350,388,344,417,0,
1,1775671476624,-2144,5106,12088,-4331034,-1611462,-1386664,0,0,0,224,309,227,253,206,300,314,279,278,173,246,122,0,
2,1775671476624,1292,961,9940,243124,-83077,-53756,0,0,0,470,529,343,469,446,508,546,434,348,385,335,430,0,
1,1775671476640,-1799,4556,13692,-4640132,-1659109,-1540602,0,0,0,224,313,228,251,207,299,313,279,278,172,248,122,0,
2,1775671476640,1296,933,9973,255341,-74525,-57421,0,0,0,469,532,371,470,446,511,552,433,355,293,230,452,0,
1,1775671476656,-1191,3910,15510,-4851491,-1728748,-1500285,0,0,0,224,315,228,248,206,298,313,279,280,171,248,121,0,
2,1775671476656,1320,890,9983,273667,-68416,-63529,0,0,0,472,535,362,471,450,508,554,426,361,268,196,459,0,
1,1775671476672,-521,3326,17516,-4993212,-1627344,-1332907,0,0,0,224,314,228,249,205,299,315,281,282,171,246,121,0,
2,1775671476672,1349,832,9997,294437,-74525,-70860,0,0,0,472,535,354,475,457,513,550,412,360,259,183,473,0,
1,1775671476688,-301,2785,19492,-5153259,-1426981,-1215621,0,0,0,225,315,232,256,206,305,319,280,283,170,244,122,0,
2,1775671476688,1363,784,10031,315206,-85521,-80634,0,0,0,477,543,356,480,463,518,548,398,363,256,177,479,0,
1,1775671476704,-536,2062,21287,-5349957,-1229060,-1352455,0,0,0,227,315,245,265,204,317,322,275,291,175,243,128,0,
2,1775671476704,1368,741,10083,340862,-91629,-92851,0,0,0,485,551,362,486,466,521,543,381,365,258,174,481,0,
1,1775671476720,-866,665,22761,-5488013,-1056796,-1734857,0,0,0,222,319,251,253,207,324,307,275,302,171,241,133,0,
2,1775671476720,1373,727,10145,378736,-85521,-107512,0,0,0,490,553,367,490,469,526,532,359,368,260,171,493,0,
1,1775671476736,-1459,-2158,23929,-5466022,-902858,-2256536,0,0,0,226,318,259,253,204,325,311,276,309,171,241,133,0,
2,1775671476736,1392,717,10227,437379,-69638,-123394,0,0,0,493,550,363,494,474,530,519,336,375,289,194,506,0,
1,1775671476752,-3618,-7614,24350,-5238780,-733038,-2445904,0,0,0,223,318,255,253,206,329,311,274,314,174,243,136,0,
2,1775671476752,1560,646,10385,515570,-53756,-147829,0,0,0,498,549,357,494,477,533,501,308,377,349,240,513,0,
1,1775671476768,-7178,-14213,23235,-4945564,-680503,-1952325,0,0,0,219,320,259,254,209,332,308,268,310,180,245,137,0,
2,1775671476768,1708,574,10681,631634,-58643,-200363,0,0,0,507,555,359,488,476,531,476,285,377,344,231,531,0,
1,1775671476784,-7140,-20899,20124,-4444655,-1130100,-690277,0,0,0,221,323,256,256,214,331,312,270,311,180,244,134,0,
2,1775671476784,1526,536,10882,781907,-102625,-246789,0,0,0,509,557,342,497,488,534,473,269,388,266,171,548,0,
1,1775671476800,263,-24943,16683,-3554013,-1623679,368962,0,0,0,220,321,253,258,217,330,315,272,310,205,238,147,0,
2,1775671476800,1234,440,11016,968832,-92851,-254119,0,0,0,514,557,319,498,491,537,460,255,391,277,177,563,0,
1,1775671476816,9126,-25546,14204,-2345722,-1384220,393397,0,0,0,220,324,252,259,219,329,310,271,309,190,242,139,0,
2,1775671476816,1033,335,11284,1185078,-19547,-238237,0,0,0,513,561,305,501,500,541,436,249,397,278,184,572,0,
1,1775671476832,9619,-25848,12242,-1015258,-464257,-235793,0,0,0,225,324,242,264,218,322,319,272,304,188,244,128,0,
2,1775671476832,1167,210,11648,1430646,59864,-211359,0,0,0,522,567,306,532,541,521,415,253,389,274,179,578,0,
1,1775671476848,5915,-25862,11203,32986,172263,-426383,0,0,0,224,320,233,263,220,312,328,311,298,210,284,122,0,
2,1775671476848,1483,105,12041,1722639,51312,-211359,0,0,0,526,569,288,508,519,543,381,249,393,273,183,583,0,
1,1775671476864,4115,-22067,12510,1033583,515570,-103847,0,0,0,226,311,221,267,214,299,357,375,285,246,349,113,0,
2,1775671476864,1684,19,12404,2053728,-6108,-235793,0,0,0,526,563,270,496,514,540,354,246,392,276,185,591,0,
1,1775671476880,894,-3412,13165,2409252,1199739,54977,0,0,0,233,304,200,272,200,282,393,422,270,281,393,104,0,
2,1775671476880,1789,-129,12715,2403143,-79412,-278554,0,0,0,529,566,261,498,517,542,325,242,390,278,185,598,0,
1,1775671476896,-2589,10514,11519,3263242,1767844,184481,0,0,0,232,301,184,262,195,269,400,448,267,305,410,102,0,
2,1775671476896,1947,-335,13122,2757445,-141720,-331088,0,0,0,530,561,251,494,521,545,295,231,392,280,184,598,0,
1,1775671476912,-2378,6140,12232,3993836,1423316,338419,0,0,0,246,293,187,279,184,271,437,459,266,329,414,96,0,
2,1775671476912,2158,-473,13744,3202155,-215024,-410501,0,0,0,529,555,248,482,519,537,274,211,389,273,180,594,0,
1,1775671476928,-315,-976,16534,4359134,351858,404392,0,0,0,252,291,193,287,178,279,468,469,263,345,419,89,0,
2,1775671476928,2292,-449,14510,3661526,-290771,-498466,0,0,0,527,551,252,478,517,533,261,187,386,260,172,580,0,
1,1775671476944,-670,-823,18152,3524692,-95294,605978,0,0,0,259,295,196,298,181,275,478,477,268,374,427,94,0,
2,1775671476944,2651,-536,15970,4288273,-390953,-619417,0,0,0,524,541,252,485,518,536,255,170,393,247,161,543,0,
1,1775671476960,-2857,497,15864,2445904,-61086,601091,0,0,0,261,303,218,307,199,290,479,478,274,401,432,100,0,
2,1775671476960,2938,-918,18344,4976108,-459370,-750142,0,0,0,513,532,250,486,510,527,252,161,391,231,150,489,0,
1,1775671476976,-3814,1076,11572,1589471,63529,226020,0,0,0,257,300,238,313,208,320,487,486,298,396,432,107,0,
2,1775671476976,3450,-1033,21469,5739689,-447153,-872315,0,0,0,479,522,242,473,501,509,255,157,377,215,142,432,0,
1,1775671476992,-2703,435,10203,1112996,124616,-37873,0,0,0,271,313,242,334,218,335,496,496,306,401,441,131,0,
2,1775671476992,4527,-670,23694,6410419,-307876,-1007927,0,0,0,413,502,218,455,476,484,267,167,361,199,135,374,0,
1,1775671477008,-1938,-28,10552,491135,141720,-90408,0,0,0,290,319,249,351,216,345,505,505,307,408,451,156,0,
2,1775671477008,4996,-488,24359,6944316,-202807,-1227839,0,0,0,361,475,211,415,438,451,283,184,332,185,129,345,0,
1,1775671477024,-1971,612,10447,31764,114842,-39095,0,0,0,311,320,253,359,211,370,505,505,317,436,457,178,0,
2,1775671477024,5575,0,24460,7452555,64751,-1494176,0,0,0,317,456,224,369,408,419,310,236,300,147,112,292,0,
1,1775671477040,-2158,1186,9901,-87964,123394,-17104,0,0,0,319,328,270,364,212,365,515,514,321,445,462,190,0,
2,1775671477040,6369,574,23407,7817853,614530,-1791056,0,0,0,266,427,229,324,360,377,317,284,279,102,104,196,0,
1,1775671477056,-2105,1244,9844,-59864,138055,-14660,0,0,0,320,335,289,368,217,369,522,519,320,442,466,197,0,
2,1775671477056,8025,3838,17228,7628485,1043357,-2261423,0,0,0,256,434,231,326,364,387,296,299,288,105,108,194,0,
1,1775671477072,-2000,1253,10155,-9773,106290,1221,0,0,0,326,340,282,371,222,369,527,519,317,448,470,198,0,
2,1775671477072,7504,9246,10227,6304129,938289,-2820975,0,0,0,249,435,229,331,374,390,311,300,278,107,110,199,0,
1,1775671477088,-1909,1316,10227,41538,36651,26878,0,0,0,331,344,267,372,226,361,534,518,314,452,474,199,0,
2,1775671477088,3905,15319,9935,2360383,134390,-2449569,0,0,0,250,435,228,336,377,390,324,299,272,109,112,198,0,
1,1775671477104,-1909,1335,10026,105068,-52534,39095,0,0,0,330,348,270,374,228,368,533,515,314,449,476,209,0,
2,1775671477104,1890,15783,11768,-2034181,-884532,-1329242,0,0,0,250,435,230,333,374,387,325,299,271,111,114,199,0,
1,1775671477120,-2005,1340,9873,173485,-117286,47647,0,0,0,330,353,272,374,232,374,530,511,317,446,472,215,0,
2,1775671477120,3058,9389,10763,-4987103,-1764178,-227241,0,0,0,252,437,232,333,375,387,326,303,272,111,113,200,0,
1,1775671477136,-2124,1292,9806,232128,-123394,57421,0,0,0,330,351,279,377,238,380,532,501,328,442,463,220,0,
2,1775671477136,4704,5369,6810,-4963890,-1500285,-337197,0,0,0,252,439,232,337,379,388,327,306,272,113,113,199,0,
1,1775671477152,-2124,1182,9734,251676,-87964,67195,0,0,0,332,356,282,377,242,392,530,494,338,442,458,232,0,
2,1775671477152,4867,4670,4690,-4761083,-624304,-736703,0,0,0,251,440,233,337,379,388,326,309,271,113,114,197,0,
1,1775671477168,-2072,1100,9715,243124,-57421,70860,0,0,0,334,360,276,377,239,383,536,477,326,442,450,233,0,
2,1775671477168,3096,5771,6216,-5110498,62308,-838107,0,0,0,254,441,235,336,377,385,326,312,271,111,114,196,0,
1,1775671477184,-2043,1110,9739,235793,-47647,70860,0,0,0,366,360,272,379,238,383,537,464,336,443,443,249,0,
2,1775671477184,1229,6025,8327,-5651725,284663,-570548,0,0,0,252,439,232,339,379,388,326,310,269,111,115,196,0,
1,1775671477200,-2043,1148,9729,259006,-42760,69638,0,0,0,336,360,278,371,239,385,536,453,331,420,436,252,0,
2,1775671477200,1229,5259,8882,-5874080,185703,-86742,0,0,0,254,441,234,338,379,388,329,313,272,113,113,197,0,
1,1775671477216,-2019,1139,9710,282219,-37873,67195,0,0,0,334,362,277,375,249,393,531,444,338,409,435,272,0,
2,1775671477216,2177,4647,8858,-5811771,509461,353080,0,0,0,255,442,235,337,378,389,329,316,272,112,115,196,0,
1,1775671477232,-2014,1076,9691,283441,-32986,61086,0,0,0,334,364,274,386,257,403,525,432,339,409,418,275,0,
2,1775671477232,2316,4446,9719,-5727472,1062905,703716,0,0,0,252,442,233,337,378,390,328,318,272,111,116,196,0,
1,1775671477248,-2033,990,9624,270002,-23212,51312,0,0,0,335,363,274,391,259,400,529,425,337,399,409,276,0,
2,1775671477248,1703,4666,11505,-5772676,1423316,1000597,0,0,0,252,442,233,338,380,390,327,318,272,112,118,197,0,
1,1775671477264,-2014,923,9562,256563,-8552,45204,0,0,0,335,365,274,401,258,404,533,420,344,386,403,288,0,
2,1775671477264,1627,4666,13448,-6028018,1434311,1275486,0,0,0,254,443,236,341,381,392,331,322,273,113,119,196,0,
1,1775671477280,-1947,894,9605,250454,-8552,45204,0,0,0,336,369,272,403,263,411,533,409,350,378,386,311,0,
2,1775671477280,2282,3957,15147,-6298020,1431868,1412320,0,0,0,254,443,237,338,380,391,332,320,273,112,117,196,0,
1,1775671477296,-1938,885,9705,266337,-28099,48869,0,0,0,340,372,274,403,270,418,532,395,352,371,366,332,0,
2,1775671477296,2818,3153,16927,-6359107,1589471,1304808,0,0,0,251,442,234,342,380,392,332,319,272,117,117,193,0,
1,1775671477312,-1957,847,9791,316428,-68416,59864,0,0,0,346,376,280,407,275,427,529,384,361,360,351,352,0,
2,1775671477312,3038,3000,19272,-6378654,1732413,1204626,0,0,0,251,440,232,344,379,394,335,319,273,114,114,193,0,
1,1775671477328,-1966,794,9868,367740,-113620,76969,0,0,0,349,386,286,406,280,432,523,370,374,351,335,375,0,
2,1775671477328,3575,3239,22373,-6478836,1814269,1237612,0,0,0,253,441,235,342,377,391,338,319,275,164,143,194,0,
1,1775671477344,-2038,780,10337,381179,-135612,96516,0,0,0,352,393,286,408,295,441,519,353,376,346,318,389,0,
2,1775671477344,4599,2627,26058,-6648657,1901012,1505171,0,0,0,254,442,237,343,378,390,340,319,278,162,142,194,0,
1,1775671477360,-2115,789,10480,430049,-157603,117286,0,0,0,377,404,258,419,327,459,527,329,377,344,297,410,0,
2,1775671477360,5561,110,29179,-6720739,2028072,1932777,0,0,0,253,440,235,346,379,393,343,315,281,113,113,195,0,
1,1775671477376,-2177,737,10174,537561,-188146,142942,0,0,0,370,389,261,423,294,462,516,307,386,324,276,427,0,
2,1775671477376,6082,-7207,31165,-6469062,2348165,2337170,0,0,0,254,439,234,347,376,395,345,310,284,120,113,196,0,
1,1775671477392,-2196,593,9949,636521,-208915,169820,0,0,0,362,389,273,429,302,479,513,281,402,306,249,457,0,
2,1775671477392,5695,-17568,31184,-5877745,2441017,2255314,0,0,0,258,439,234,349,376,396,349,309,288,125,114,197,0,
1,1775671477408,-2139,440,10093,709825,-256563,193033,0,0,0,375,406,274,435,308,484,503,261,396,301,231,472,0,
2,1775671477408,4216,-31112,26140,-4660901,1943773,1313360,0,0,0,263,440,237,353,378,400,352,310,291,119,113,200,0,
1,1775671477424,-2177,406,10557,800233,-340862,205250,0,0,0,377,400,269,440,312,503,478,236,421,282,201,502,0,
2,1775671477424,57,-38961,18463,-2928487,1507615,-324980,0,0,0,262,443,240,353,377,403,354,314,292,121,115,200,0,
1,1775671477440,-2249,373,11261,973719,-422718,213802,0,0,0,381,409,253,452,327,513,461,224,420,274,189,509,0,
2,1775671477440,-6322,-41210,14572,-1247386,1104444,-1760513,0,0,0,257,439,236,352,377,403,351,318,290,125,125,200,0,
1,1775671477456,-2306,349,12017,1240056,-460592,224798,0,0,0,392,411,254,480,333,516,438,214,420,273,182,540,0,
2,1775671477456,-9782,-37788,15893,171042,112399,-2076941,0,0,0,246,431,227,344,373,388,339,382,280,189,261,170,0,
1,1775671477472,-2407,315,12438,1556484,-531452,249233,0,0,0,402,417,254,483,345,518,413,206,428,275,177,558,0,
2,1775671477472,-9131,-22947,20344,1866804,-1507615,-1428202,0,0,0,245,408,205,342,361,370,411,457,265,204,276,172,0,
1,1775671477488,-3072,148,12644,1946216,-547335,307876,0,0,0,407,417,239,473,344,528,380,200,430,269,170,561,0,
2,1775671477488,-1091,4331,18181,3375641,-3342654,-28099,0,0,0,249,383,207,334,342,374,446,476,266,187,268,174,0,
1,1775671477504,-3914,57,13084,2384817,-386066,474031,0,0,0,413,412,223,478,349,532,339,194,432,253,164,567,0,
2,1775671477504,3105,11706,11117,4306599,-3479488,992045,0,0,0,256,383,200,341,343,383,467,485,279,196,281,180,0,
1,1775671477520,-4383,33,13610,2860071,-100181,681725,0,0,0,419,420,224,469,388,524,289,193,438,243,166,568,0,
2,1775671477520,-1665,2412,12845,5252219,-1855808,1185078,0,0,0,257,391,210,349,347,391,486,493,285,208,304,188,0,
1,1775671477536,-4685,0,14213,3400075,226020,930958,0,0,0,417,434,225,438,410,516,230,188,432,227,156,556,0,
2,1775671477536,-7145,-3771,21421,5261993,-149051,344527,0,0,0,259,401,226,359,353,398,499,501,287,207,307,190,0,
1,1775671477552,-5187,33,15549,4003610,411723,1214400,0,0,0,411,438,227,428,390,502,191,165,418,196,125,533,0,
2,1775671477552,-1914,-181,22124,4018271,202807,-707381,0,0,0,270,417,254,366,358,403,514,514,292,207,300,194,0,
1,1775671477568,-6006,23,18305,4787961,553443,1560149,0,0,0,411,406,248,431,349,478,188,141,403,176,100,485,0,
2,1775671477568,3785,1828,16908,2686585,75747,-652404,0,0,0,286,436,281,376,366,411,525,525,296,217,295,218,0,
1,1775671477584,-7403,-315,21694,5579643,665843,1863138,0,0,0,401,381,224,427,328,463,197,144,378,181,92,418,0,
2,1775671477584,3675,1306,11485,1613905,-31764,-19547,0,0,0,308,450,299,392,376,424,535,532,296,287,351,243,0,
1,1775671477600,-9231,-272,23775,6280916,742812,2193006,0,0,0,355,368,214,362,295,431,185,147,348,156,100,348,0,
2,1775671477600,1603,454,10217,889419,-86742,179594,0,0,0,336,461,313,403,382,431,545,538,299,387,448,252,0,
1,1775671477616,-9868,263,24881,6918659,769690,2621833,0,0,0,304,343,209,330,281,380,198,176,344,135,122,267,0,
2,1775671477616,1048,291,10614,261450,-232128,114842,0,0,0,357,469,321,409,389,434,550,542,304,398,460,264,0,
1,1775671477632,-8676,1990,26245,7408573,1029918,2977357,0,0,0,249,312,209,280,233,338,254,225,289,146,184,190,0,
2,1775671477632,1177,942,10624,35430,-318871,17104,0,0,0,370,478,330,418,395,439,556,549,304,352,408,271,0,
1,1775671477648,-9662,3551,24646,7771427,1712866,3165503,0,0,0,248,275,219,251,181,295,301,244,279,157,203,131,0,
2,1775671477648,1072,1450,10318,-39095,-254119,0,0,0,0,380,484,340,416,395,433,560,558,308,271,329,280,0,
1,1775671477664,-11873,6326,17372,7696902,2284635,3282789,0,0,0,242,279,233,248,179,301,309,257,284,159,210,126,0,
2,1775671477664,1105,1584,10227,-23212,-153938,3665,0,0,0,382,485,333,419,397,438,554,553,312,275,333,281,0,
1,1775671477680,-12457,11533,10629,6199060,2114815,3194825,0,0,0,238,287,228,254,190,306,305,264,283,158,214,128,0,
2,1775671477680,1134,1636,10212,9773,-116064,-7330,0,0,0,382,488,333,422,402,441,557,556,316,277,335,282,0,
1,1775671477696,-10524,17745,10002,2558303,1095892,2123367,0,0,0,238,292,224,259,197,306,305,267,282,160,217,129,0,
2,1775671477696,1072,1675,10155,59864,-101403,-29321,0,0,0,381,490,329,425,406,444,555,554,317,265,322,285,0,
1,1775671477712,-6604,17123,10930,-1656666,614530,-18325,0,0,0,236,295,224,258,199,306,308,269,282,160,219,128,0,
2,1775671477712,1019,1689,10093,117286,-58643,-43982,0,0,0,381,491,328,423,402,441,554,553,317,253,304,289,0,
1,1775671477728,-6594,11103,8245,-3670078,812450,-1450194,0,0,0,230,296,224,255,201,306,310,267,283,160,220,128,0,
2,1775671477728,1014,1684,10045,194255,-2443,-47647,0,0,0,387,499,329,427,400,441,545,545,321,259,298,294,0,
1,1775671477744,-8542,6513,4785,-3521027,183259,-1098335,0,0,0,225,298,226,254,200,307,312,266,284,162,220,132,0,
2,1775671477744,1052,1627,9973,255341,30543,-45204,0,0,0,389,504,328,431,409,446,549,546,324,254,290,297,0,
1,1775671477760,-6714,5527,4412,-3522248,-879645,-294437,0,0,0,225,299,226,254,200,307,313,268,284,162,223,130,0,
2,1775671477760,1139,1541,9858,289550,23212,-39095,0,0,0,389,505,328,432,411,449,548,540,318,246,274,298,0,
1,1775671477776,-2306,6384,6647,-4109901,-1211956,69638,0,0,0,226,302,229,256,203,307,307,269,280,163,225,131,0,
2,1775671477776,1186,1493,9820,299323,-8552,-35430,0,0,0,394,506,329,433,412,451,548,529,318,241,260,304,0,
1,1775671477792,-1306,6168,8198,-4789183,-767246,-238237,0,0,0,227,302,230,256,200,307,308,270,282,165,226,133,0,
2,1775671477792,1206,1478,9839,310319,-51312,-37873,0,0,0,406,511,332,436,414,455,548,517,325,238,246,312,0,
1,1775671477808,-2000,5656,8959,-5170363,-814894,-532674,0,0,0,225,302,230,256,201,309,308,265,282,163,223,133,0,
2,1775671477808,1215,1483,9853,337197,-96516,-43982,0,0,0,419,515,340,439,417,461,547,504,332,238,231,327,0,
1,1775671477824,-1832,5470,10174,-5442809,-1266934,-764803,0,0,0,224,302,231,255,200,310,310,263,283,163,223,133,0,
2,1775671477824,1196,1469,9901,388510,-141720,-56199,0,0,0,428,517,340,441,420,466,546,491,336,240,218,354,0,
1,1775671477840,-1435,5278,11730,-5725029,-1496619,-948062,0,0,0,224,303,233,255,200,312,313,270,286,159,221,130,0,
2,1775671477840,1095,1363,9920,423940,-155159,-61086,0,0,0,439,522,329,446,424,469,543,476,336,241,210,375,0,
1,1775671477856,-1435,4656,13649,-6062226,-1558928,-1036027,0,0,0,225,305,235,250,200,310,307,267,285,161,224,132,0,
2,1775671477856,995,1234,9901,437379,-141720,-58643,0,0,0,448,527,334,453,432,481,538,459,343,239,199,390,0,
1,1775671477872,-1828,3517,15740,-6344446,-1651779,-868650,0,0,0,227,305,237,250,200,312,307,265,286,165,225,134,0,
2,1775671477872,1000,1182,9949,447153,-113620,-53756,0,0,0,453,533,332,461,440,495,532,440,342,240,192,406,0,
1,1775671477888,-2081,2359,17784,-6516710,-1810604,-586430,0,0,0,228,306,238,252,201,314,309,268,288,166,226,135,0,
2,1775671477888,1062,1134,10050,474031,-94073,-53756,0,0,0,472,544,344,461,441,495,528,424,368,256,192,434,0,
1,1775671477904,-1976,961,20229,-6624222,-1968207,-403171,0,0,0,229,308,239,251,201,313,312,274,289,163,226,134,0,
2,1775671477904,1124,1057,10155,513126,-86742,-61086,0,0,0,471,540,337,466,450,505,522,402,354,250,182,450,0,
1,1775671477920,-2206,-186,22273,-6572909,-2036624,-604756,0,0,0,227,307,240,250,199,312,311,274,289,162,222,132,0,
2,1775671477920,1162,1000,10217,558330,-78190,-74525,0,0,0,486,544,339,472,460,510,511,370,386,252,175,463,0,
1,1775671477936,-3369,-1273,24292,-6299242,-2128254,-1341460,0,0,0,223,306,239,249,200,313,305,273,288,164,224,134,0,
2,1775671477936,1273,928,10299,614530,-64751,-98960,0,0,0,493,553,343,478,472,517,506,349,372,257,174,485,0,
1,1775671477952,-4852,-2914,26790,-5921727,-2416582,-2520429,0,0,0,223,309,239,249,204,313,305,277,289,162,229,134,0,
2,1775671477952,1488,827,10442,687834,-45204,-151494,0,0,0,497,556,346,480,480,519,490,313,395,275,188,507,0,
1,1775671477968,-5608,-6628,29949,-5571090,-2768441,-3769038,0,0,0,226,309,242,253,200,314,314,282,295,160,227,135,0,
2,1775671477968,1569,751,10744,817337,-73303,-233350,0,0,0,503,558,334,484,484,520,469,279,400,275,185,528,0,
1,1775671477984,-6077,-13993,30854,-5479461,-2630385,-4067140,0,0,0,226,309,243,258,205,319,307,272,291,163,225,133,0,
2,1775671477984,1383,650,11026,999375,-138055,-296880,0,0,0,506,558,327,489,498,524,450,256,389,272,177,552,0,
1,1775671478000,-6015,-24800,27709,-5397605,-2312735,-3354871,0,0,0,226,311,245,260,208,322,308,269,295,167,225,133,0,
2,1775671478000,1234,526,11428,1197295,-164933,-309097,0,0,0,510,564,319,494,514,527,428,241,381,273,175,566,0,
1,1775671478016,-789,-36960,20583,-4709770,-2262644,-1612684,0,0,0,225,310,244,263,211,325,312,267,295,167,224,136,0,
2,1775671478016,1143,445,12060,1466076,-160046,-315206,0,0,0,516,571,304,500,518,534,396,236,379,275,179,575,0,
1,1775671478032,10509,-44043,14893,-2775771,-1749518,92851,0,0,0,228,312,242,261,211,322,314,271,294,168,224,133,0,
2,1775671478032,928,440,12668,1836260,-135612,-315206,0,0,0,521,572,291,503,517,544,359,238,385,273,183,587,0,
1,1775671478048,16243,-45513,13414,-803898,-390953,1028697,0,0,0,220,298,221,260,206,299,342,356,280,215,311,118,0,
2,1775671478048,722,382,13132,2256536,-123394,-276111,0,0,0,527,577,277,500,523,544,325,236,390,269,180,588,0,
1,1775671478064,12682,-40459,16630,1104444,1500285,1382998,0,0,0,227,274,181,259,183,267,406,421,252,266,383,97,0,
2,1775671478064,1086,349,13921,2763554,-139277,-229685,0,0,0,532,577,261,496,525,540,296,241,377,273,184,598,0,
1,1775671478080,-775,-12864,16333,3722612,3349984,1381777,0,0,0,239,262,160,268,175,255,449,452,245,307,408,92,0,
2,1775671478080,1986,354,14989,3280346,-228463,-255341,0,0,0,534,572,251,485,519,536,282,249,373,277,189,599,0,
1,1775671478096,-8389,8523,14654,5384166,3633426,954171,0,0,0,249,260,155,283,170,257,470,470,256,343,420,84,0,
2,1775671478096,2857,306,16109,3909537,-431270,-392175,0,0,0,533,565,256,479,519,531,253,212,365,269,185,586,0,
1,1775671478112,-3038,4584,18990,5969375,1993864,254119,0,0,0,249,265,167,289,171,279,481,481,276,365,428,90,0,
2,1775671478112,4082,277,17487,4668232,-695164,-638965,0,0,0,537,566,259,471,518,531,241,186,365,252,173,549,0,
1,1775671478128,2699,-2837,24670,5252219,403171,240680,0,0,0,254,276,196,298,177,307,485,485,309,376,432,108,0,
2,1775671478128,4891,186,20133,5469687,-948062,-981049,0,0,0,526,550,264,468,516,531,245,167,363,232,155,493,0,
1,1775671478144,-335,-2627,21335,3323106,87964,572991,0,0,0,263,285,233,317,189,334,477,473,334,384,440,130,0,
2,1775671478144,5336,-14,24244,6366437,-1259604,-1308473,0,0,0,482,527,238,452,493,508,253,172,347,218,143,424,0,
1,1775671478160,-3914,-320,13591,1518610,69638,339641,0,0,0,273,293,261,335,206,358,480,474,331,395,453,165,0,
2,1775671478160,6939,239,27475,7184996,-1358564,-1563815,0,0,0,396,504,221,426,470,477,265,182,322,196,136,377,0,
1,1775671478176,-3407,631,8423,662177,59864,-153938,0,0,0,296,308,265,351,217,369,515,510,322,409,463,206,0,
2,1775671478176,7346,1617,28035,7880161,-868650,-1910786,0,0,0,338,477,221,383,430,430,281,218,295,168,126,332,0,
1,1775671478192,-1876,143,9346,273667,85521,-178372,0,0,0,316,311,257,363,210,369,530,510,321,413,475,229,0,
2,1775671478192,7298,3043,28006,8511796,-155159,-2315179,0,0,0,277,448,234,341,384,388,297,255,274,121,105,240,0,
1,1775671478208,-1646,492,10701,64751,107512,-62308,0,0,0,321,309,257,371,213,373,541,511,319,417,487,247,0,
2,1775671478208,8868,4929,23038,8737816,287106,-2850297,0,0,0,262,440,241,332,373,383,308,277,271,108,99,200,0,
1,1775671478224,-2072,1057,10557,75747,58643,-13439,0,0,0,337,319,268,375,224,382,549,518,338,419,489,269,0,
2,1775671478224,10059,7805,15774,8299215,62308,-3464827,0,0,0,265,441,240,336,378,391,314,290,275,111,105,202,0,
1,1775671478240,-2215,1206,9959,156381,17104,-2443,0,0,0,333,329,265,378,223,389,549,519,337,419,487,283,0,
2,1775671478240,6977,12017,12021,6607118,-709825,-3624874,0,0,0,260,440,235,337,379,390,315,296,273,108,108,199,0,
1,1775671478256,-2077,1124,9925,217468,4886,9773,0,0,0,333,339,295,389,234,402,546,491,346,444,472,303,0,
2,1775671478256,3254,18166,10016,2206445,-1538158,-1835039,0,0,0,260,440,231,338,380,387,315,296,267,109,110,195,0,
1,1775671478272,-2010,1148,10007,285884,-12217,37873,0,0,0,341,336,279,406,238,398,550,477,348,433,447,319,0,
2,1775671478272,4288,17831,8714,-2803871,-1813048,676838,0,0,0,259,439,231,338,379,385,319,298,268,112,111,195,0,
1,1775671478288,-1962,1172,9241,355523,-48869,67195,0,0,0,346,337,267,420,246,401,545,451,349,424,429,331,0,
2,1775671478288,7504,10701,8049,-5530773,-1254717,2081828,0,0,0,257,438,233,338,379,386,324,300,270,113,112,198,0,
1,1775671478304,-1952,1091,8915,411723,-118507,78190,0,0,0,348,340,258,428,251,403,546,437,352,417,412,337,0,
2,1775671478304,7786,4996,6829,-5610186,-362853,1668883,0,0,0,254,440,234,338,380,387,323,298,267,115,114,197,0,
1,1775671478320,-2014,923,9681,452040,-215024,75747,0,0,0,353,340,260,428,250,405,545,419,357,406,403,348,0,
2,1775671478320,6298,3709,6101,-5253441,80634,869872,0,0,0,252,440,234,341,382,389,321,300,265,114,114,199,0,
1,1775671478336,-2110,794,9820,433714,-234572,76969,0,0,0,351,339,266,427,249,407,541,409,358,392,389,360,0,
2,1775671478336,5427,3933,6623,-5364618,188146,331088,0,0,0,251,440,233,345,385,391,326,305,269,114,112,197,0,
1,1775671478352,-2196,727,9676,393397,-208915,81855,0,0,0,346,340,264,429,253,407,538,406,357,382,369,370,0,
2,1775671478352,5015,4015,7872,-5749463,423940,63529,0,0,0,249,442,235,341,384,388,325,307,268,112,113,194,0,
1,1775671478368,-2225,713,9533,345749,-145385,91629,0,0,0,347,343,257,436,256,408,536,394,360,377,350,378,0,
2,1775671478368,4273,4197,9298,-6062226,860098,156381,0,0,0,250,442,235,342,384,388,325,307,268,112,112,195,0,
1,1775671478384,-2187,698,9624,327423,-105068,91629,0,0,0,353,348,258,438,257,409,534,373,359,368,331,382,0,
2,1775671478384,3642,4335,10547,-6241821,1240056,466701,0,0,0,251,442,236,342,384,389,326,308,268,112,112,195,0,
1,1775671478400,-2182,674,9724,326202,-83077,92851,0,0,0,356,353,259,429,262,416,531,354,370,364,320,388,0,
2,1775671478400,3508,4173,11720,-6329785,1535715,935845,0,0,0,253,443,237,342,384,388,328,311,269,111,112,195,0,
1,1775671478416,-2167,626,9753,331088,-68416,92851,0,0,0,350,347,255,428,256,420,531,345,370,366,314,400,0,
2,1775671478416,3622,3823,13333,-6423858,1824043,1412320,0,0,0,254,444,237,344,385,389,328,312,270,114,114,196,0,
1,1775671478432,-2139,583,9748,340862,-53756,94073,0,0,0,347,353,257,433,270,426,526,328,377,354,301,409,0,
2,1775671478432,3732,3565,15238,-6553362,2058615,1739744,0,0,0,252,444,238,343,385,389,328,312,270,114,115,197,0,
1,1775671478448,-2139,550,9753,357967,-41538,94073,0,0,0,351,352,257,426,271,434,513,312,378,331,283,411,0,
2,1775671478448,3881,3187,17894,-6726848,2245540,1879021,0,0,0,250,444,238,342,384,388,329,313,271,113,115,197,0,
1,1775671478464,-2163,478,9806,377514,-41538,98960,0,0,0,350,349,253,417,271,435,511,295,374,327,267,426,0,
2,1775671478464,4015,2837,20669,-6857573,2328618,1855808,0,0,0,249,444,237,340,382,388,332,315,275,114,116,197,0,
1,1775671478480,-2163,387,9849,394618,-64751,113620,0,0,0,354,362,257,416,296,445,505,282,384,319,256,442,0,
2,1775671478480,4259,2890,23986,-6994406,2346944,1734857,0,0,0,249,442,237,341,381,390,336,315,278,116,115,197,0,
1,1775671478496,-2211,311,9897,414166,-108734,139277,0,0,0,358,366,260,426,290,451,507,270,392,314,245,462,0,
2,1775671478496,4479,2842,28154,-7253413,2419026,1685988,0,0,0,250,440,237,345,384,392,341,313,280,115,111,197,0,
1,1775671478512,-2345,282,10026,465479,-146607,180816,0,0,0,361,369,263,435,292,461,499,256,396,305,228,486,0,
2,1775671478512,4039,746,31978,-7468438,2541199,1808161,0,0,0,247,442,234,348,386,394,346,309,284,119,113,200,0,
1,1775671478528,-2531,268,10198,571769,-150272,243124,0,0,0,363,375,259,434,302,473,490,241,402,294,212,495,0,
2,1775671478528,2421,-5833,34692,-7331604,2697580,2097711,0,0,0,250,442,236,352,387,400,348,304,287,139,130,203,0,
1,1775671478544,-2550,162,10327,704938,-135612,312763,0,0,0,370,389,253,439,311,484,484,229,405,292,198,516,0,
2,1775671478544,947,-18798,33754,-6395759,2373822,2139250,0,0,0,252,445,236,354,395,401,349,310,290,214,161,203,0,
1,1775671478560,-2392,19,10476,847880,-149051,373849,0,0,0,380,397,253,451,317,494,474,218,407,288,181,550,0,
2,1775671478560,2110,-35108,26915,-4792848,1439198,1318247,0,0,0,251,443,235,355,390,404,351,308,292,122,119,211,0,
1,1775671478576,-2196,-76,10801,1000597,-218689,403171,0,0,0,384,394,249,456,321,498,457,210,417,272,170,560,0,
2,1775671478576,1024,-44479,18525,-3082425,1231504,-459370,0,0,0,253,446,237,353,387,401,350,306,290,146,149,211,0,
1,1775671478592,-2072,-100,11428,1213178,-328645,398284,0,0,0,393,405,232,459,340,499,435,208,426,266,170,565,0,
2,1775671478592,-9107,-44886,16338,-1326799,1403768,-2213775,0,0,0,247,442,232,350,386,396,348,319,290,147,164,208,0,
1,1775671478608,-1780,-157,12012,1502728,-460592,368962,0,0,0,406,404,225,473,334,515,412,200,434,271,158,571,0,
2,1775671478608,-15242,-40770,18358,255341,287106,-2493551,0,0,0,236,431,227,308,409,375,378,405,279,181,241,193,0,
1,1775671478624,-1804,-239,12419,1857030,-587652,295658,0,0,0,402,416,218,470,360,530,384,190,447,268,170,575,0,
2,1775671478624,-8303,-23809,21966,2041511,-1965764,-1243721,0,0,0,231,400,203,329,375,371,409,460,263,219,297,179,0,
1,1775671478640,-2670,-335,12854,2254092,-667064,283441,0,0,0,406,448,210,486,388,517,352,188,456,261,180,575,0,
2,1775671478640,2636,1737,18415,3533244,-3867998,199142,0,0,0,241,379,186,340,349,373,455,480,267,198,279,177,0,
1,1775671478656,-3766,-421,13673,2786767,-682947,416610,0,0,0,395,412,213,467,362,540,284,168,462,244,149,593,0,
2,1775671478656,6781,14256,9949,4476420,-4276056,1440420,0,0,0,248,375,179,345,344,382,482,486,278,190,279,179,0,
1,1775671478672,-4565,-421,14836,3445279,-579100,669508,0,0,0,412,418,205,475,409,518,254,167,463,238,137,566,0,
2,1775671478672,-2407,3172,13338,5013981,-2668259,1474628,0,0,0,250,379,187,352,346,392,494,494,286,202,308,185,0,
1,1775671478688,-5565,-210,16233,4227187,-405614,1007927,0,0,0,415,387,214,448,354,517,209,146,445,200,105,553,0,
2,1775671478688,-9121,-3053,21071,4900360,-992045,467922,0,0,0,256,385,208,361,351,398,506,505,294,208,319,193,0,
1,1775671478704,-6977,-268,18870,5024977,-300545,1398881,0,0,0,413,386,231,413,342,513,188,134,440,180,101,510,0,
2,1775671478704,-2766,167,21698,3995058,-419053,-675616,0,0,0,264,400,234,370,358,406,518,517,303,213,313,203,0,
1,1775671478720,-8925,-459,22388,5855754,-241902,1819156,0,0,0,424,372,213,414,321,474,195,124,403,184,92,431,0,
2,1775671478720,4034,1737,17377,2803871,-235793,-671951,0,0,0,273,423,264,378,368,418,531,531,311,216,311,224,0,
1,1775671478736,-10859,-569,25876,6739065,-102625,2356718,0,0,0,370,351,190,395,299,426,192,130,367,166,90,333,0,
2,1775671478736,3871,818,11993,1573588,-239459,92851,0,0,0,289,444,289,391,383,429,545,545,318,226,312,245,0,
1,1775671478752,-10619,-397,28375,7425677,37873,2856405,0,0,0,292,331,192,340,269,385,199,160,338,132,106,260,0,
2,1775671478752,1129,315,10533,805120,-263893,272445,0,0,0,309,459,307,410,395,439,552,552,323,233,308,260,0,
1,1775671478768,-9356,1282,29719,7888713,222354,3211929,0,0,0,241,304,194,283,227,324,246,205,308,125,146,181,0,
2,1775671478768,617,497,10634,375071,-284663,151494,0,0,0,340,467,319,429,405,448,554,554,322,247,310,276,0,
1,1775671478784,-11701,5211,25934,8241793,333532,3424510,0,0,0,220,288,194,251,203,279,293,242,293,142,195,113,0,
2,1775671478784,1009,995,10581,213802,-287106,43982,0,0,0,346,470,316,418,400,446,553,553,319,243,304,291,0,
1,1775671478800,-13366,10485,17027,8167268,101403,3740938,0,0,0,229,297,212,251,201,291,299,251,292,151,216,122,0,
2,1775671478800,1081,1368,10323,139277,-212581,15882,0,0,0,360,478,323,425,406,451,563,563,322,249,304,299,0,
1,1775671478816,-10533,13706,10174,6941872,-87964,3781255,0,0,0,225,304,211,251,205,291,294,258,291,150,224,122,0,
2,1775671478816,1067,1531,10155,152716,-125838,15882,0,0,0,371,479,325,426,404,452,568,567,321,246,297,305,0,
1,1775671478832,-5034,17027,10112,2984687,548556,1855808,0,0,0,217,308,211,246,211,292,294,262,275,150,223,127,0,
2,1775671478832,1019,1541,10184,213802,-100181,-3665,0,0,0,383,483,328,426,404,453,564,562,323,243,287,312,0,
1,1775671478848,-3522,17324,10581,-1632231,1528384,-906524,0,0,0,221,306,213,247,208,293,301,261,275,153,220,127,0,
2,1775671478848,923,1555,10227,289550,-40317,-23212,0,0,0,389,486,330,429,406,457,559,555,324,246,279,324,0,
1,1775671478864,-5982,11878,8614,-3932750,1997529,-2189341,0,0,0,223,309,216,247,208,293,302,264,275,151,220,124,0,
2,1775671478864,933,1569,10203,364075,57421,-28099,0,0,0,391,486,330,433,406,461,563,544,334,247,264,345,0,
1,1775671478880,-7810,7106,5972,-4484972,1777617,-1995085,0,0,0,223,309,216,248,206,295,302,263,275,151,220,125,0,
2,1775671478880,1072,1478,10078,434936,127059,-26878,0,0,0,396,484,326,432,417,460,561,524,341,246,244,370,0,
1,1775671478896,-7638,4867,4273,-4345695,1043357,-996932,0,0,0,223,308,217,249,206,295,305,264,274,155,224,130,0,
2,1775671478896,1206,1340,9940,483805,139277,-29321,0,0,0,402,484,323,435,419,463,558,509,356,249,231,379,0,
1,1775671478912,-5762,4761,4962,-4535063,520457,-255341,0,0,0,222,309,219,249,207,297,306,265,276,157,226,130,0,
2,1775671478912,1282,1215,9849,492357,106290,-40317,0,0,0,408,487,325,439,407,471,560,499,364,249,224,383,0,
1,1775671478928,-4541,4833,6479,-4996877,450818,13439,0,0,0,223,310,217,250,207,297,309,266,278,158,226,128,0,
2,1775671478928,1311,1139,9834,467922,63529,-50090,0,0,0,415,490,325,442,410,479,559,486,351,247,217,394,0,
1,1775671478944,-4938,4594,7958,-5604077,470366,-98960,0,0,0,222,307,216,252,205,297,311,267,277,159,228,128,0,
2,1775671478944,1354,1048,9844,426383,8552,-59864,0,0,0,420,492,323,448,418,483,559,473,358,251,211,397,0,
1,1775671478960,-5728,4000,9389,-6178291,219911,-334754,0,0,0,223,306,217,251,205,296,311,268,275,158,228,126,0,
2,1775671478960,1349,966,9853,382401,-45204,-65973,0,0,0,428,496,323,449,420,480,557,457,368,244,197,399,0,
1,1775671478976,-6207,3144,10772,-6561914,-229685,-642630,0,0,0,224,309,219,251,208,297,313,272,275,156,227,125,0,
2,1775671478976,1311,938,9882,354301,-90408,-72082,0,0,0,437,499,328,457,426,491,559,453,361,242,190,413,0,
1,1775671478992,-6398,2033,12419,-6734178,-752585,-1036027,0,0,0,224,311,219,254,212,298,316,274,277,157,227,126,0,
2,1775671478992,1234,942,9901,346971,-117286,-75747,0,0,0,447,508,331,457,424,495,551,439,352,240,181,421,0,
1,1775671479008,-6637,1038,14371,-6756169,-1219287,-1398881,0,0,0,223,314,220,254,211,297,314,270,276,159,228,127,0,
2,1775671479008,1153,904,9920,356745,-109955,-74525,0,0,0,447,507,327,459,431,497,549,428,353,239,176,435,0,
1,1775671479024,-7006,574,16846,-6792821,-1601688,-1634675,0,0,0,223,313,223,252,208,299,313,273,281,152,225,121,0,
2,1775671479024,1148,837,9973,375071,-86742,-73303,0,0,0,456,514,331,468,441,505,549,409,361,244,173,453,0,
1,1775671479040,-7437,181,19942,-6939429,-1914451,-1740965,0,0,0,223,312,222,253,208,300,310,268,280,156,225,124,0,
2,1775671479040,1225,799,10054,406836,-56199,-81855,0,0,0,464,521,335,470,440,506,550,389,370,249,170,468,0,
1,1775671479056,-7954,-588,23268,-7092145,-2113593,-1716531,0,0,0,223,315,223,253,208,301,314,267,280,157,225,124,0,
2,1775671479056,1306,756,10117,450818,-30543,-98960,0,0,0,471,520,333,474,448,511,542,362,365,289,181,476,0,
1,1775671479072,-8858,-2282,26948,-7053050,-2232101,-1696983,0,0,0,226,306,220,259,204,296,327,271,281,160,221,121,0,
2,1775671479072,1373,679,10141,508239,-10995,-127059,0,0,0,480,524,334,478,459,513,541,341,371,272,172,494,0,
1,1775671479088,-9447,-5202,30054,-6845355,-2458121,-1827708,0,0,0,230,305,221,263,200,297,329,263,276,162,216,119,0,
2,1775671479088,1445,583,10232,558330,8552,-161268,0,0,0,489,535,335,485,472,518,535,322,376,262,169,518,0,
1,1775671479104,-7839,-11423,32548,-6563136,-3145955,-2117258,0,0,0,226,306,222,261,202,299,324,264,280,160,218,123,0,
2,1775671479104,1521,516,10480,645073,19547,-210137,0,0,0,496,543,336,489,480,526,519,294,380,297,195,536,0,
1,1775671479120,-4034,-19597,32586,-6289468,-3497814,-2311514,0,0,0,221,309,221,260,206,304,326,268,289,160,219,121,0,
2,1775671479120,1531,507,10892,811229,-19547,-245567,0,0,0,503,544,330,489,484,528,496,264,388,313,205,553,0,
1,1775671479136,-43,-29930,27647,-5685933,-3062878,-2236988,0,0,0,221,310,221,260,206,309,328,268,296,164,218,122,0,
2,1775671479136,1574,469,11409,1042136,-41538,-274889,0,0,0,509,542,314,493,496,531,466,245,393,283,181,572,0,
1,1775671479152,2632,-42498,18114,-4064697,-2293188,-1084896,0,0,0,222,313,223,260,207,311,323,265,297,164,220,123,0,
2,1775671479152,1459,430,12127,1356120,0,-299323,0,0,0,511,547,301,509,516,540,435,234,394,273,178,584,0,
1,1775671479168,9959,-47465,14754,-2197893,-1738522,536339,0,0,0,222,315,225,260,209,311,324,265,295,165,223,124,0,
2,1775671479168,1153,363,12773,1755626,68416,-293215,0,0,0,516,557,293,520,529,537,405,228,397,275,180,593,0,
1,1775671479184,16295,-46245,15171,-404392,-450818,1446528,0,0,0,219,301,219,260,204,302,340,299,287,196,269,119,0,
2,1775671479184,1253,263,13486,2221106,111177,-277332,0,0,0,519,556,269,502,520,544,365,220,391,272,178,602,0,
1,1775671479200,12165,-32682,18568,1620014,2064724,1244943,0,0,0,223,273,191,258,187,274,385,377,269,254,346,106,0,
2,1775671479200,2043,272,14405,2778215,40317,-318871,0,0,0,524,551,258,501,528,543,325,213,390,274,175,602,0,
1,1775671479216,-1794,-1579,17903,2940705,3864333,518013,0,0,0,236,254,159,263,168,248,444,446,255,295,389,94,0,
2,1775671479216,2699,239,15314,3380528,-102625,-432492,0,0,0,523,546,243,495,542,541,292,202,387,272,177,608,0,
1,1775671479232,-8226,18425,11782,3920533,4846604,-194255,0,0,0,242,252,149,276,166,248,466,466,259,316,412,83,0,
2,1775671479232,3172,244,16410,4097684,-276111,-603534,0,0,0,530,553,251,531,548,509,280,188,396,273,181,593,0,
1,1775671479248,181,5364,13854,5084842,3608991,-290771,0,0,0,236,248,143,289,167,261,475,474,272,351,422,81,0,
2,1775671479248,4259,464,18219,4985882,-401949,-866206,0,0,0,522,541,248,489,521,540,265,163,398,258,169,567,0,
1,1775671479264,5369,-3575,21512,5455026,1681101,139277,0,0,0,243,253,155,300,170,272,485,484,273,386,429,81,0,
2,1775671479264,5044,540,21210,5941275,-483805,-1189965,0,0,0,509,525,257,480,497,535,259,152,389,232,146,494,0,
1,1775671479280,1301,-2474,24771,4280943,345749,818559,0,0,0,258,275,183,314,183,295,481,479,293,402,438,95,0,
2,1775671479280,5240,593,26307,7042054,-403171,-1472185,0,0,0,450,501,235,469,481,513,262,155,375,215,136,425,0,
1,1775671479296,-3933,-354,18195,2400700,167377,480140,0,0,0,255,291,222,321,199,335,497,498,309,406,439,127,0,
2,1775671479296,5489,1397,29935,7949800,-37873,-1650557,0,0,0,386,477,208,439,452,480,276,166,350,195,130,372,0,
1,1775671479312,-3828,210,11495,1053131,146607,-136833,0,0,0,268,295,246,336,204,358,514,514,326,425,453,169,0,
2,1775671479312,5647,2718,31471,8699942,593761,-1846034,0,0,0,320,449,206,388,411,431,295,210,311,156,116,300,0,
1,1775671479328,-1512,148,9093,535117,58643,-313984,0,0,0,291,305,253,352,207,365,527,523,321,429,462,203,0,
2,1775671479328,7011,3713,30289,9172752,1479515,-2216219,0,0,0,281,430,224,349,378,394,311,255,283,122,103,228,0,
1,1775671479344,-1636,507,9968,412944,-6108,-118507,0,0,0,305,311,252,364,214,367,541,522,325,438,454,226,0,
2,1775671479344,8872,6590,24307,9254608,2251649,-2816088,0,0,0,277,430,236,340,369,386,316,272,280,112,102,200,0,
1,1775671479360,-2349,938,10356,333532,25656,-4886,0,0,0,314,313,254,372,220,378,547,507,331,447,447,254,0,
2,1775671479360,8480,10476,15458,8572882,1969429,-3736051,0,0,0,273,435,237,339,376,392,311,288,284,109,108,200,0,
1,1775671479376,-2249,1038,10112,310319,92851,6108,0,0,0,319,318,261,372,220,387,545,498,344,462,442,282,0,
2,1775671479376,2986,13955,13491,6326120,-217468,-3820351,0,0,0,272,436,234,341,377,392,314,293,279,110,109,197,0,
1,1775671479392,-1909,938,10552,271224,92851,15882,0,0,0,333,321,271,375,221,395,546,487,353,458,437,303,0,
2,1775671479392,784,18525,10270,1672549,-2875953,-2353052,0,0,0,271,434,232,340,376,389,314,296,274,109,109,194,0,
1,1775671479408,-1885,1005,11237,248011,28099,37873,0,0,0,342,326,278,380,227,403,545,479,356,430,432,317,0,
2,1775671479408,5843,17339,6322,-3095865,-3136182,-393397,0,0,0,271,435,234,340,374,385,318,297,273,111,108,194,0,
1,1775671479424,-1962,1105,10787,322536,-72082,52534,0,0,0,333,334,280,379,232,408,539,471,361,407,421,328,0,
2,1775671479424,8025,10825,5709,-5900958,-1408655,384845,0,0,0,273,436,234,341,375,384,318,297,267,112,109,194,0,
1,1775671479440,-1981,1115,10007,425162,-171042,61086,0,0,0,331,333,277,376,233,410,533,425,367,392,399,341,0,
2,1775671479440,5972,6054,7370,-6794043,-431270,280998,0,0,0,272,438,235,342,376,384,321,297,268,112,110,195,0,
1,1775671479456,-2019,961,9758,460592,-224798,69638,0,0,0,330,343,277,373,237,413,514,387,359,375,379,352,0,
2,1775671479456,4742,4402,7590,-6675535,-659734,45204,0,0,0,268,440,237,342,375,384,324,300,270,111,108,193,0,
1,1775671479472,-2115,799,9700,443488,-219911,76969,0,0,0,334,344,269,389,257,423,529,407,362,372,362,373,0,
2,1775671479472,5580,3048,6791,-6382320,-812450,-117286,0,0,0,267,439,237,342,374,383,321,300,267,111,109,193,0,
1,1775671479488,-2234,693,9600,406836,-166155,87964,0,0,0,326,341,265,387,257,416,530,387,361,365,333,370,0,
2,1775671479488,7169,2139,6470,-6087882,-345749,-298102,0,0,0,266,440,233,346,379,386,324,303,268,115,112,194,0,
1,1775671479504,-2244,674,9566,381179,-96516,98960,0,0,0,326,344,265,382,255,416,535,373,363,355,317,382,0,
2,1775671479504,6523,2703,7982,-6140417,529009,-337197,0,0,0,267,440,234,346,377,386,324,305,267,131,119,188,0,
1,1775671479520,-2187,646,9605,366519,-46425,108734,0,0,0,326,340,262,389,259,420,534,362,365,353,310,389,0,
2,1775671479520,5130,3565,10122,-6381098,1172861,-41538,0,0,0,266,439,237,346,379,386,323,304,266,121,115,189,0,
1,1775671479536,-2105,607,9657,353080,-14660,111177,0,0,0,323,338,261,396,257,426,538,364,366,348,297,394,0,
2,1775671479536,4871,3656,11959,-6637661,1402546,658512,0,0,0,263,440,238,345,378,387,324,305,266,111,111,193,0,
1,1775671479552,-2029,569,9705,342084,0,106290,0,0,0,325,331,251,405,254,428,535,338,364,346,284,405,0,
2,1775671479552,5503,3244,13515,-6785491,1653001,1321912,0,0,0,261,440,239,343,377,386,326,305,267,111,112,193,0,
1,1775671479568,-1986,507,9753,349414,-7330,101403,0,0,0,343,329,246,409,254,424,526,316,366,344,273,417,0,
2,1775671479568,6001,2804,15549,-6858794,2063502,1749518,0,0,0,261,440,239,343,378,386,328,306,271,112,113,195,0,
1,1775671479584,-1966,411,9791,364075,-48869,106290,0,0,0,345,330,242,417,265,428,527,296,369,350,261,422,0,
2,1775671479584,5795,2565,18746,-6932098,2392148,1923003,0,0,0,260,441,240,343,377,388,332,307,277,116,115,198,0,
1,1775671479600,-2038,344,9806,381179,-102625,123394,0,0,0,342,341,247,421,280,442,530,281,377,400,253,423,0,
2,1775671479600,5695,2455,22483,-7045719,2503325,2023185,0,0,0,260,439,242,344,377,391,332,305,278,116,114,196,0,
1,1775671479616,-2211,325,9782,410501,-141720,160046,0,0,0,347,359,260,420,286,455,523,271,386,396,246,441,0,
2,1775671479616,6226,2316,27269,-7239974,2475225,2111150,0,0,0,261,439,242,344,377,390,331,302,276,110,112,193,0,
1,1775671479632,-2359,296,9743,454483,-168598,213802,0,0,0,349,370,270,424,303,462,515,258,392,311,237,474,0,
2,1775671479632,7585,47,32591,-7469660,2541199,2258979,0,0,0,261,438,241,345,375,387,334,300,279,114,113,195,0,
1,1775671479648,-2354,244,9877,515570,-196698,279776,0,0,0,353,375,276,437,342,473,512,250,398,301,228,492,0,
2,1775671479648,7700,-6417,35094,-7534411,2971248,2466673,0,0,0,259,438,239,350,377,389,338,298,282,114,108,196,0,
1,1775671479664,-2378,177,10313,621860,-219911,323758,0,0,0,370,377,293,443,316,489,513,238,403,289,203,515,0,
2,1775671479664,3689,-18229,35544,-6949202,3594331,2647489,0,0,0,265,440,241,353,377,395,344,299,287,119,111,200,0,
1,1775671479680,-2517,86,10720,783129,-238237,367740,0,0,0,378,377,278,442,324,507,502,228,414,284,189,533,0,
2,1775671479680,-268,-32466,32644,-5685933,2943148,2544864,0,0,0,267,440,240,354,378,397,346,297,290,119,111,200,0,
1,1775671479696,-2268,14,11160,988379,-268780,398284,0,0,0,378,385,252,457,329,515,487,222,425,275,176,542,0,
2,1775671479696,-617,-45135,23115,-3892433,1435533,1560149,0,0,0,268,440,240,327,411,385,350,301,291,120,110,199,0,
1,1775671479712,-1928,-19,11734,1233947,-326202,384845,0,0,0,396,386,225,472,320,508,464,204,441,275,162,563,0,
2,1775671479712,-3929,-50878,15362,-1912008,1144761,-641408,0,0,0,266,438,236,348,388,397,349,300,288,117,110,199,0,
1,1775671479728,-1785,-110,12199,1502728,-404392,326202,0,0,0,393,395,225,473,341,509,443,207,438,269,163,568,0,
2,1775671479728,-11088,-49021,15137,-130725,839328,-2419026,0,0,0,254,433,238,347,378,398,353,359,282,141,178,185,0,
1,1775671479744,-2010,-210,12514,1839926,-505796,267558,0,0,0,422,393,215,482,347,520,404,199,440,264,159,569,0,
2,1775671479744,-11600,-34137,20057,1502728,-682947,-2395813,0,0,0,241,409,213,345,368,383,395,435,270,159,219,175,0,
1,1775671479760,-2900,-296,12955,2225992,-582765,289550,0,0,0,420,402,202,486,367,528,367,190,452,267,158,570,0,
2,1775671479760,-3670,-1722,22646,2929709,-2886949,-1160643,0,0,0,245,383,190,340,349,370,440,475,264,172,247,173,0,
1,1775671479776,-4158,-387,13821,2835636,-597426,524122,0,0,0,420,420,208,483,378,534,319,174,459,248,144,576,0,
2,1775671479776,7987,24632,13242,3549127,-4467868,922406,0,0,0,257,373,185,340,338,372,473,489,269,196,291,176,0,
1,1775671479792,-4766,-291,15046,3543018,-519235,844215,0,0,0,416,408,206,483,373,529,285,161,462,235,127,569,0,
2,1775671479792,1909,7719,9317,4642575,-3197268,1755626,0,0,0,263,377,196,352,338,387,495,499,280,212,320,180,0,
1,1775671479808,-5412,0,16625,4298047,-401949,1172861,0,0,0,424,379,205,451,361,516,244,154,452,205,114,543,0,
2,1775671479808,-8432,-5417,18085,5473352,-1194852,1161865,0,0,0,265,387,224,362,343,401,509,509,293,213,327,186,0,
1,1775671479824,-6781,148,19655,5209458,-384845,1567480,0,0,0,425,370,224,417,350,494,234,140,442,176,108,497,0,
2,1775671479824,-5513,-2153,23905,4591263,-398284,-340862,0,0,0,272,408,258,372,358,414,528,529,305,227,341,205,0,
1,1775671479840,-8786,67,23761,6199060,-431270,1997529,0,0,0,393,361,222,396,332,462,224,126,414,163,102,425,0,
2,1775671479840,1732,1028,21191,3097086,-262672,-722042,0,0,0,294,438,288,392,376,429,546,546,318,230,330,239,0,
1,1775671479856,-10567,105,27738,7134905,-326202,2492330,0,0,0,340,332,188,357,301,423,185,136,362,144,98,335,0,
2,1775671479856,4532,842,13668,1378111,-261450,4886,0,0,0,321,456,304,412,391,445,551,552,325,248,327,276,0,
1,1775671479872,-10605,411,30399,7804414,-89186,2941926,0,0,0,283,320,183,315,265,372,214,175,327,128,118,239,0,
2,1775671479872,1210,-38,10284,569326,-125838,321315,0,0,0,349,466,312,419,396,448,559,560,324,248,311,296,0,
1,1775671479888,-10653,2828,30657,8246680,298102,3291341,0,0,0,247,288,182,281,223,305,269,217,291,130,171,141,0,
2,1775671479888,306,387,9968,294437,-57421,156381,0,0,0,368,474,319,422,403,454,569,571,325,255,319,307,0,
1,1775671479904,-12591,7475,25608,8514239,685390,3571118,0,0,0,263,261,199,261,172,278,308,233,272,149,185,119,0,
2,1775671479904,1354,1215,10303,174707,-147829,-31764,0,0,0,378,478,329,424,400,457,576,578,326,263,315,316,0,
1,1775671479920,-14874,13309,14534,8348084,897971,4048814,0,0,0,250,264,230,257,177,300,308,254,291,152,215,129,0,
2,1775671479920,1483,1440,10241,83077,-228463,-8552,0,0,0,386,480,330,427,400,454,569,571,319,260,311,326,0,
1,1775671479936,-12280,15989,9916,6361550,346971,4262617,0,0,0,236,274,231,256,185,306,300,251,288,151,210,131,0,
2,1775671479936,1249,1483,10217,83077,-215024,17104,0,0,0,392,479,327,428,402,458,573,572,325,260,308,331,0,
1,1775671479952,-5819,19731,9188,2125811,-69638,2835636,0,0,0,238,279,235,250,184,305,300,253,285,151,210,135,0,
2,1775671479952,1095,1526,10246,167377,-185703,-2443,0,0,0,402,484,331,433,405,464,574,571,331,258,298,332,0,
1,1775671479968,-1234,19219,9825,-2781880,730594,-28099,0,0,0,243,283,234,250,186,300,300,251,280,154,213,132,0,
2,1775671479968,966,1598,10284,257785,-130725,-26878,0,0,0,409,486,332,433,404,462,570,556,327,260,289,340,0,
1,1775671479984,-4201,11787,8178,-5185024,2175901,-2042733,0,0,0,245,287,222,254,189,293,307,256,277,155,215,127,0,
2,1775671479984,899,1646,10256,348193,-12217,-32986,0,0,0,414,487,329,433,402,461,571,540,326,263,280,359,0,
1,1775671480000,-8537,6125,5585,-5418374,2152689,-2068389,0,0,0,241,289,224,252,189,292,311,259,280,156,217,128,0,
2,1775671480000,990,1512,10059,422718,91629,-21991,0,0,0,419,490,331,435,402,464,570,529,330,260,267,373,0,
1,1775671480016,-8877,4369,4556,-5198463,747699,-1080009,0,0,0,239,294,229,251,188,291,307,258,277,158,220,132,0,
2,1775671480016,1129,1301,9839,449596,130725,-18325,0,0,0,423,492,331,437,404,465,567,515,332,257,257,373,0,
1,1775671480032,-6288,4044,5498,-5263214,-338419,-307876,0,0,0,237,295,232,250,188,290,304,257,275,159,223,131,0,
2,1775671480032,1239,1172,9734,416610,103847,-24434,0,0,0,423,492,328,440,407,466,563,502,332,256,248,374,0,
1,1775671480048,-4714,3996,7298,-5545434,-274889,-226020,0,0,0,236,294,229,254,192,293,308,259,276,160,223,129,0,
2,1775671480048,1335,1148,9739,364075,42760,-35430,0,0,0,425,497,332,445,410,470,554,492,335,252,236,381,0,
1,1775671480064,-4824,3881,9150,-5940053,-146607,-406836,0,0,0,236,293,227,257,194,297,311,259,277,161,223,128,0,
2,1775671480064,1402,1139,9791,326202,-39095,-51312,0,0,0,431,506,330,448,415,477,546,478,338,253,232,384,0,
1,1775671480080,-5618,3766,10863,-6393315,-415388,-742812,0,0,0,238,294,228,254,193,297,309,259,276,159,222,127,0,
2,1775671480080,1325,1095,9815,302989,-112399,-61086,0,0,0,434,507,325,453,429,487,547,472,346,257,233,395,0,
1,1775671480096,-5886,3153,12696,-6819699,-922406,-1126435,0,0,0,238,296,230,254,192,297,309,260,278,158,222,128,0,
2,1775671480096,1201,1062,9844,293215,-153938,-64751,0,0,0,439,507,331,449,425,485,547,456,346,260,224,410,0,
1,1775671480112,-5982,1876,14725,-7072597,-1434311,-1422094,0,0,0,236,297,230,254,192,297,314,265,281,162,223,128,0,
2,1775671480112,1119,1067,9916,312763,-153938,-63529,0,0,0,449,521,332,452,441,491,547,445,354,256,218,418,0,
1,1775671480128,-5699,885,17157,-7062823,-1821600,-1474628,0,0,0,234,297,229,257,199,301,314,266,280,162,223,128,0,
2,1775671480128,1095,1062,10045,371406,-122173,-63529,0,0,0,457,524,340,457,446,497,539,428,362,252,194,450,0,
1,1775671480144,-5431,263,20186,-7103140,-2056172,-1442863,0,0,0,233,294,229,257,200,303,311,261,281,158,223,128,0,
2,1775671480144,1148,995,10141,447153,-83077,-69638,0,0,0,468,525,354,465,448,507,526,398,364,262,204,461,0,
1,1775671480160,-5671,-540,23450,-7247305,-2089159,-1422094,0,0,0,234,296,229,259,197,304,311,261,280,152,218,121,0,
2,1775671480160,1277,871,10107,514348,-54977,-90408,0,0,0,481,529,354,471,456,513,521,372,369,274,202,479,0,
1,1775671480176,-6609,-1746,26360,-7216761,-2063502,-1579697,0,0,0,234,297,230,258,197,301,308,261,280,152,216,121,0,
2,1775671480176,1397,775,10093,563217,-39095,-123394,0,0,0,485,530,341,478,466,515,520,353,376,268,183,497,0,
1,1775671480192,-7791,-3709,29652,-6979746,-2158797,-2065946,0,0,0,232,295,227,260,198,303,316,265,282,156,218,122,0,
2,1775671480192,1474,670,10184,602313,-20769,-172263,0,0,0,496,540,342,481,471,517,511,327,380,268,175,524,0,
1,1775671480208,-7901,-7949,32505,-6663318,-2609616,-2970026,0,0,0,231,297,226,260,200,305,315,263,285,161,221,121,0,
2,1775671480208,1531,569,10413,653625,-6108,-228463,0,0,0,508,550,342,488,483,526,482,298,383,269,176,545,0,
1,1775671480224,-6561,-15467,33845,-6328563,-3006678,-3762929,0,0,0,229,300,224,262,202,308,312,262,287,163,223,119,0,
2,1775671480224,1521,540,10715,759916,-46425,-274889,0,0,0,508,554,333,499,495,534,466,270,388,269,178,556,0,
1,1775671480240,-4106,-26049,30605,-5801998,-2825862,-3793473,0,0,0,228,304,223,265,211,309,314,266,291,162,227,118,0,
2,1775671480240,1550,555,11160,946841,-103847,-309097,0,0,0,507,555,322,506,503,542,451,246,392,269,175,568,0,
1,1775671480256,612,-40129,22072,-4510628,-2216219,-2370157,0,0,0,230,307,224,266,213,309,315,268,293,162,227,121,0,
2,1775671480256,1531,536,11911,1231504,-108734,-333532,0,0,0,514,560,314,508,511,547,423,233,394,271,172,579,0,
1,1775671480272,9102,-49676,15448,-2718350,-1523497,30543,0,0,0,233,309,229,265,206,310,314,264,293,164,224,124,0,
2,1775671480272,1177,497,12916,1676214,-86742,-348193,0,0,0,520,568,302,504,520,544,390,233,392,301,190,580,0,
1,1775671480288,16606,-47575,14816,-642630,37873,2037846,0,0,0,232,300,232,266,202,309,327,285,289,184,256,123,0,
2,1775671480288,966,459,13606,2145358,-92851,-305432,0,0,0,519,573,276,501,531,545,347,231,389,342,217,584,0,
1,1775671480304,12754,-36089,17353,1047023,1838704,2295631,0,0,0,229,279,212,265,194,289,378,358,277,235,332,111,0,
2,1775671480304,1531,402,14352,2690250,-160046,-277332,0,0,0,528,573,263,495,537,541,310,224,386,276,189,611,0,
1,1775671480320,-1258,-7451,19234,2682920,3555235,1356120,0,0,0,239,264,154,271,180,249,437,424,241,285,388,91,0,
2,1775671480320,2526,378,15233,3309667,-284663,-360410,0,0,0,532,572,261,481,531,536,280,217,386,269,190,609,0,
1,1775671480336,-9097,13400,12921,3803246,4197865,208915,0,0,0,246,258,146,282,172,246,463,463,249,313,412,81,0,
2,1775671480336,2737,478,16290,3999945,-437379,-522900,0,0,0,532,564,252,485,531,537,257,202,393,269,188,599,0,
1,1775671480352,-5245,9739,11519,5015203,3299894,-566882,0,0,0,243,253,142,287,166,256,473,472,265,350,419,82,0,
2,1775671480352,3445,555,17578,4775744,-586430,-706160,0,0,0,536,551,252,467,522,533,249,175,401,263,181,568,0,
1,1775671480368,5254,-3120,19741,5898514,897971,-679282,0,0,0,243,254,151,297,166,272,489,489,266,400,435,91,0,
2,1775671480368,4489,445,19712,5616295,-693942,-982271,0,0,0,526,539,259,471,515,526,251,165,398,236,155,507,0,
1,1775671480384,4245,-2718,23895,4712214,-114842,390953,0,0,0,258,271,178,304,178,289,491,491,281,399,434,95,0,
2,1775671480384,4661,124,24249,6609561,-745255,-1285260,0,0,0,479,522,242,469,504,509,254,158,377,223,146,444,0,
1,1775671480400,-3709,124,19277,2679254,-150272,952949,0,0,0,263,281,216,318,194,323,492,492,297,409,436,115,0,
2,1775671480400,5747,631,28322,7534411,-575435,-1505171,0,0,0,407,497,223,443,474,488,266,166,361,206,137,387,0,
1,1775671480416,-4666,272,12677,1446528,25656,188146,0,0,0,266,299,241,334,210,350,506,506,316,413,448,155,0,
2,1775671480416,6719,2273,30150,8299215,-91629,-1786169,0,0,0,345,470,214,394,432,443,283,203,320,173,128,338,0,
1,1775671480432,-2522,-4,9547,680503,34208,-277332,0,0,0,293,309,255,349,213,363,516,515,326,426,460,192,0,
2,1775671480432,7341,3790,30552,8957727,546113,-2178345,0,0,0,280,437,219,347,384,396,298,245,284,144,114,250,0,
1,1775671480448,-1507,344,10002,356745,3665,-153938,0,0,0,312,314,257,361,218,370,525,524,327,435,470,217,0,
2,1775671480448,8714,5585,25570,9283929,1284038,-2774549,0,0,0,261,427,229,333,367,382,308,270,275,122,107,201,0,
1,1775671480464,-2010,923,10447,213802,15882,6108,0,0,0,319,319,259,369,224,377,532,532,327,438,470,240,0,
2,1775671480464,10122,8107,18147,9001710,1456302,-3521027,0,0,0,274,434,236,339,374,387,313,286,278,112,109,202,0,
1,1775671480480,-2388,1249,10184,205250,51312,34208,0,0,0,325,321,279,372,223,391,534,524,337,443,456,267,0,
2,1775671480480,6939,10930,13802,7563733,651182,-4246735,0,0,0,275,435,236,339,377,388,316,298,276,114,112,200,0,
1,1775671480496,-2024,1210,9964,261450,36651,24434,0,0,0,327,321,303,373,222,415,532,502,355,449,441,294,0,
2,1775671480496,-196,17846,11433,3599217,-1204626,-2714685,0,0,0,275,437,235,340,376,386,319,299,270,112,110,198,0,
1,1775671480512,-1804,1134,10050,310319,-30543,35430,0,0,0,331,326,303,377,226,425,531,486,361,451,433,315,0,
2,1775671480512,454,19779,8480,-1407433,-2668259,34208,0,0,0,274,437,234,344,375,386,324,297,265,114,109,199,0,
1,1775671480528,-1899,1172,10208,357967,-124616,54977,0,0,0,337,328,297,382,225,415,536,473,357,438,418,322,0,
2,1775671480528,7331,13395,6379,-5425705,-2563190,2211332,0,0,0,269,437,234,339,375,387,318,298,265,115,110,198,0,
1,1775671480544,-1943,1220,10399,404392,-199142,68416,0,0,0,333,329,294,381,224,419,538,443,356,423,399,328,0,
2,1775671480544,9097,6604,6642,-6320011,-1148426,1865582,0,0,0,272,440,234,338,372,384,320,301,265,114,109,195,0,
1,1775671480560,-1943,1273,10772,390953,-230907,78190,0,0,0,327,327,295,380,233,421,533,423,358,404,388,345,0,
2,1775671480560,6594,3886,7226,-6247929,-322536,821002,0,0,0,269,443,234,343,376,386,320,301,265,114,109,195,0,
1,1775671480576,-2057,1105,10160,400727,-243124,76969,0,0,0,324,333,282,379,243,427,531,407,371,386,374,351,0,
2,1775671480576,4915,3512,7054,-6008470,-438601,85521,0,0,0,263,441,234,341,376,386,323,304,265,115,113,196,0,
1,1775671480592,-2201,880,9490,427605,-227241,74525,0,0,0,322,333,288,383,253,427,531,395,371,375,354,359,0,
2,1775671480592,5345,2881,7011,-5915618,-449596,-327423,0,0,0,264,443,235,342,377,387,324,307,268,113,114,196,0,
1,1775671480608,-2268,780,9375,411723,-153938,78190,0,0,0,328,340,285,389,262,441,531,384,375,370,338,369,0,
2,1775671480608,6020,2689,7987,-6050009,46425,-555887,0,0,0,262,442,236,341,379,387,325,308,268,113,113,194,0,
1,1775671480624,-2225,765,9547,367740,-56199,86742,0,0,0,333,340,281,392,263,437,524,372,373,366,329,378,0,
2,1775671480624,5355,3536,9830,-6400645,764803,-491135,0,0,0,263,443,236,341,380,387,326,309,266,114,114,195,0,
1,1775671480640,-2134,732,9614,343306,-8552,90408,0,0,0,336,338,276,402,265,432,528,360,370,362,315,385,0,
2,1775671480640,4714,4072,11758,-6820921,1328021,98960,0,0,0,263,443,237,341,379,386,324,308,267,113,115,196,0,
1,1775671480656,-2024,708,9681,331088,0,91629,0,0,0,339,342,278,405,265,430,534,342,372,358,302,395,0,
2,1775671480656,4666,3474,13385,-7012732,1716531,836885,0,0,0,258,441,235,343,381,388,326,309,269,115,115,197,0,
1,1775671480672,-1976,698,9791,334754,-6108,86742,0,0,0,340,343,277,409,266,435,534,324,380,353,291,408,0,
2,1775671480672,4694,2636,15357,-7076262,2064724,1524719,0,0,0,255,442,236,344,383,389,328,310,272,114,114,198,0,
1,1775671480688,-2019,631,9906,367740,-37873,90408,0,0,0,338,342,270,419,270,443,530,303,384,344,278,421,0,
2,1775671480688,4656,2072,17817,-7089701,2334726,1919338,0,0,0,255,444,239,341,380,387,329,310,274,112,113,196,0,
1,1775671480704,-2139,540,9920,419053,-89186,113620,0,0,0,340,344,261,425,275,448,525,281,381,332,261,432,0,
2,1775671480704,4426,1722,20837,-7055493,2432465,2040289,0,0,0,255,444,239,339,377,386,330,311,274,113,113,196,0,
1,1775671480720,-2292,473,9877,474031,-149051,164933,0,0,0,347,354,252,427,281,452,519,266,386,316,243,449,0,
2,1775671480720,4541,1708,24072,-6996850,2426356,2074498,0,0,0,256,444,241,336,385,385,330,311,274,116,115,197,0,
1,1775671480736,-2388,440,9906,537561,-204028,239459,0,0,0,359,366,257,432,286,460,513,257,399,307,229,473,0,
2,1775671480736,5049,2000,28379,-7035945,2467895,2068389,0,0,0,254,442,240,317,408,376,335,311,278,115,113,197,0,
1,1775671480752,-2359,406,10045,615752,-230907,306654,0,0,0,370,377,257,434,289,469,503,241,406,303,210,502,0,
2,1775671480752,4465,33,33175,-7309613,2703689,2174680,0,0,0,258,441,241,347,381,391,338,304,282,115,112,196,0,
1,1775671480768,-2292,315,10299,726929,-241902,348193,0,0,0,375,384,267,459,316,492,507,239,426,288,197,512,0,
2,1775671480768,2072,-6896,36405,-7454999,3016452,2412917,0,0,0,264,440,242,353,382,392,344,297,282,116,108,196,0,
1,1775671480784,-2330,124,10634,883311,-299323,383623,0,0,0,375,384,245,450,320,500,507,210,405,282,172,523,0,
2,1775671480784,-4,-20842,35539,-6805038,2587625,2427578,0,0,0,266,441,238,355,382,396,349,302,292,115,110,197,0,
1,1775671480800,-2206,38,11107,1059240,-390953,406836,0,0,0,392,381,254,466,325,508,478,213,419,278,171,549,0,
2,1775671480800,2120,-36802,28724,-5408600,1444085,1626123,0,0,0,269,439,236,357,385,399,350,301,291,119,110,199,0,
1,1775671480816,-2091,23,11653,1273043,-483805,401949,0,0,0,408,382,228,487,324,525,467,210,424,271,161,555,0,
2,1775671480816,4178,-49681,17607,-3270572,946841,-685390,0,0,0,275,439,238,360,384,402,351,299,290,118,107,200,0,
1,1775671480832,-2081,0,12175,1567480,-559552,366519,0,0,0,408,388,211,488,331,534,434,203,436,259,156,573,0,
2,1775671480832,-6642,-49882,14864,-1292590,1545489,-3070208,0,0,0,273,436,236,355,380,397,351,314,288,120,117,199,0,
1,1775671480848,-2105,-67,12481,1877799,-585208,329867,0,0,0,407,406,209,495,351,546,383,194,461,260,158,576,0,
2,1775671480848,-16286,-43857,17803,346971,752585,-3585778,0,0,0,265,424,226,349,376,388,351,380,291,130,165,186,0,
1,1775671480864,-2502,-296,12778,2300518,-581543,317649,0,0,0,416,410,202,492,365,549,345,179,472,259,152,576,0,
2,1775671480864,-10361,-21038,22512,2065946,-1902234,-1941329,0,0,0,247,376,198,335,353,369,410,452,275,191,262,172,0,
1,1775671480880,-3656,-445,13275,2814867,-555887,405614,0,0,0,422,407,201,484,378,543,299,163,473,242,134,580,0,
2,1775671480880,2876,8657,18923,3155729,-4158770,3665,0,0,0,244,345,180,332,335,365,466,482,266,205,297,171,0,
1,1775671480896,-4795,-402,14118,3398854,-414166,660956,0,0,0,423,419,207,471,394,537,240,158,467,220,125,574,0,
2,1775671480896,7552,17276,9585,3810577,-4754975,1336573,0,0,0,254,343,179,342,330,374,490,490,278,194,299,177,0,
1,1775671480912,-5915,-248,15520,4098905,-213802,1038470,0,0,0,427,420,214,454,393,526,212,152,453,198,119,554,0,
2,1775671480912,-3062,1962,12959,4927239,-3018896,1258382,0,0,0,261,353,190,354,331,385,507,506,293,213,326,182,0,
1,1775671480928,-6843,-358,18162,4866152,-167377,1483180,0,0,0,420,390,230,447,366,508,211,132,443,171,96,519,0,
2,1775671480928,-8384,-3464,21411,5227784,-1347568,346971,0,0,0,265,372,214,366,338,399,526,526,302,217,327,191,0,
1,1775671480944,-7867,-473,22043,5748241,-218689,1908343,0,0,0,401,375,224,407,325,486,201,124,414,172,96,436,0,
2,1775671480944,-2402,-105,24704,4210083,-437379,-718377,0,0,0,272,396,248,373,354,412,537,538,311,218,321,213,0,
1,1775671480960,-9672,-378,25824,6633996,-158824,2283414,0,0,0,361,362,211,360,294,443,166,119,361,169,102,371,0,
2,1775671480960,2914,1043,18406,2602285,-356745,-348193,0,0,0,290,425,285,383,376,424,543,543,318,230,324,242,0,
1,1775671480976,-10581,-406,28839,7401243,23212,2733011,0,0,0,300,352,206,326,292,415,183,151,350,127,102,293,0,
2,1775671480976,2828,660,11505,1122770,-259006,259006,0,0,0,313,450,301,371,418,420,551,551,325,239,324,258,0,
1,1775671480992,-10122,1110,30935,7996225,241902,3170390,0,0,0,246,311,195,285,242,338,228,201,301,120,140,176,0,
2,1775671480992,751,382,9916,616973,-161268,274889,0,0,0,343,459,315,418,392,447,559,559,320,245,321,282,0,
1,1775671481008,-11811,4790,28265,8395731,415388,3445279,0,0,0,246,283,206,262,197,294,291,233,279,137,181,129,0,
2,1775671481008,885,655,10141,408057,-200363,119729,0,0,0,360,469,321,425,400,449,566,567,320,249,319,298,0,
1,1775671481024,-13706,9954,19559,8411614,371406,3775147,0,0,0,232,287,209,250,193,286,303,250,288,143,208,120,0,
2,1775671481024,1426,1057,10385,232128,-334754,25656,0,0,0,371,474,326,426,402,452,566,567,314,280,318,300,0,
1,1775671481040,-11572,12146,11423,7426899,301767,3924198,0,0,0,225,293,217,249,196,300,302,253,299,145,214,127,0,
2,1775671481040,1167,1368,10289,145385,-320093,26878,0,0,0,377,475,334,430,407,456,566,567,318,257,304,313,0,
1,1775671481056,-6034,14730,10284,4113566,690277,2389704,0,0,0,226,297,218,250,200,301,302,254,290,147,214,128,0,
2,1775671481056,995,1512,10232,184481,-232128,18325,0,0,0,390,479,334,431,405,455,570,570,322,246,290,319,0,
1,1775671481072,-3172,16329,10251,-394618,1423316,-332310,0,0,0,231,299,217,250,200,295,304,256,280,149,214,128,0,
2,1775671481072,928,1531,10236,274889,-153938,-1221,0,0,0,395,482,333,434,410,463,571,566,326,245,278,330,0,
1,1775671481088,-4924,12275,8576,-3181386,2019520,-2173458,0,0,0,233,300,218,247,199,294,306,258,280,149,213,128,0,
2,1775671481088,871,1555,10241,359188,-50090,-13439,0,0,0,401,484,331,437,411,466,568,554,332,245,262,347,0,
1,1775671481104,-7183,7681,5862,-4041484,2021963,-2456899,0,0,0,231,301,218,246,199,295,305,259,280,151,214,128,0,
2,1775671481104,942,1536,10193,432492,62308,-12217,0,0,0,411,485,331,439,411,468,565,533,340,252,255,364,0,
1,1775671481120,-7604,5575,3962,-4015828,1321912,-1560149,0,0,0,230,302,217,248,200,297,307,261,283,151,217,128,0,
2,1775671481120,1110,1378,10035,494800,114842,-10995,0,0,0,419,488,333,440,411,471,562,515,341,259,256,375,0,
1,1775671481136,-6192,5317,3943,-4229630,713490,-679282,0,0,0,230,303,218,249,201,298,309,265,284,150,217,126,0,
2,1775671481136,1210,1177,9853,510683,109955,-13439,0,0,0,425,495,336,442,415,474,561,505,338,261,253,382,0,
1,1775671481152,-4532,5398,5355,-4726875,669508,-208915,0,0,0,230,303,220,252,200,299,312,265,282,155,217,127,0,
2,1775671481152,1258,1038,9758,475253,67195,-23212,0,0,0,432,501,334,448,422,481,560,493,341,263,244,388,0,
1,1775671481168,-4666,4977,6838,-5255884,875980,-130725,0,0,0,232,302,223,254,199,299,313,267,282,162,217,128,0,
2,1775671481168,1306,1019,9810,437379,19547,-36651,0,0,0,436,504,332,452,425,483,559,471,346,262,234,394,0,
1,1775671481184,-5728,4493,8164,-5820323,790459,-183259,0,0,0,232,301,220,255,199,300,317,265,281,160,222,132,0,
2,1775671481184,1359,1005,9901,414166,-40317,-54977,0,0,0,441,508,331,458,428,486,553,453,343,261,228,401,0,
1,1775671481200,-6805,3943,9590,-6400645,259006,-322536,0,0,0,233,305,222,252,198,298,313,260,277,160,221,128,0,
2,1775671481200,1316,947,9940,406836,-87964,-67195,0,0,0,447,511,334,454,431,491,551,438,350,261,221,417,0,
1,1775671481216,-6657,3086,11351,-6811147,-386066,-620639,0,0,0,233,303,223,254,198,299,313,263,280,159,222,128,0,
2,1775671481216,1239,894,9968,404392,-113620,-78190,0,0,0,455,516,334,465,444,500,544,424,353,265,221,432,0,
1,1775671481232,-6211,2072,13357,-7057936,-795346,-1100779,0,0,0,233,306,224,255,202,300,314,265,281,157,223,127,0,
2,1775671481232,1191,856,10011,419053,-108734,-85521,0,0,0,461,517,332,470,450,498,547,399,360,268,213,447,0,
1,1775671481248,-7178,1253,15372,-7149566,-1059240,-1606575,0,0,0,228,304,222,256,201,303,315,266,282,158,224,128,0,
2,1775671481248,1220,808,10069,460592,-79412,-98960,0,0,0,470,522,334,471,449,511,536,373,362,269,204,460,0,
1,1775671481264,-8317,727,17741,-7215540,-1483180,-1915673,0,0,0,228,304,223,254,199,302,311,262,281,160,224,130,0,
2,1775671481264,1273,717,10112,500909,-41538,-119729,0,0,0,477,523,331,476,461,514,531,354,367,262,179,484,0,
1,1775671481280,-8758,306,21325,-7281513,-1987755,-2070833,0,0,0,228,303,225,253,199,301,314,264,282,160,224,128,0,
2,1775671481280,1359,617,10165,537561,3665,-155159,0,0,0,481,526,329,482,469,522,525,330,372,258,170,497,0,
1,1775671481296,-9384,-430,25570,-7294952,-2145358,-2213775,0,0,0,227,303,225,254,199,302,318,268,284,158,220,124,0,
2,1775671481296,1416,564,10327,596204,14660,-199142,0,0,0,486,530,327,487,472,529,515,303,374,268,169,511,0,
1,1775671481312,-10902,-2220,30007,-7250970,-2250427,-2405587,0,0,0,224,303,225,255,203,304,318,267,286,156,215,123,0,
2,1775671481312,1416,550,10528,701273,-18325,-235793,0,0,0,491,533,323,492,480,531,502,278,376,271,170,532,0,
1,1775671481328,-10978,-7169,33486,-7154453,-2834414,-2596177,0,0,0,224,306,223,259,207,304,317,264,291,156,213,121,0,
2,1775671481328,1426,435,10701,866206,-51312,-256563,0,0,0,503,541,325,494,489,531,486,255,379,273,173,551,0,
1,1775671481344,-7786,-15807,36018,-7000515,-3594331,-2653598,0,0,0,225,311,223,261,206,306,320,262,296,159,213,120,0,
2,1775671481344,1450,272,10926,1033583,-42760,-278554,0,0,0,510,550,322,493,499,533,464,238,383,274,175,565,0,
1,1775671481360,-2770,-27705,34132,-6597344,-3451388,-2416582,0,0,0,224,314,222,262,208,314,325,262,302,172,217,127,0,
2,1775671481360,1426,191,11476,1233947,-9773,-298102,0,0,0,510,558,308,497,509,536,439,229,388,285,178,573,0,
1,1775671481376,1258,-42766,24173,-5180137,-2322509,-1192408,0,0,0,224,319,227,262,211,320,325,261,302,199,215,139,0,
2,1775671481376,1550,186,12246,1524719,-6108,-320093,0,0,0,515,567,295,503,518,535,412,223,394,298,184,585,0,
1,1775671481392,6953,-51303,16420,-3319441,-1618792,665843,0,0,0,227,318,226,261,209,319,328,264,305,171,220,126,0,
2,1775671481392,1464,148,12830,1888795,-35430,-349414,0,0,0,515,563,273,506,529,537,380,220,391,277,183,601,0,
1,1775671481408,16329,-52620,14304,-1080009,-695164,2346944,0,0,0,221,301,220,261,199,314,347,269,303,195,248,122,0,
2,1775671481408,1062,110,13271,2344500,-75747,-348193,0,0,0,514,561,254,501,530,541,339,218,389,281,187,610,0,
1,1775671481424,14845,-40894,18128,943175,1208291,1962099,0,0,0,215,282,212,269,195,299,395,356,285,243,343,106,0,
2,1775671481424,1713,28,14146,2884505,-114842,-338419,0,0,0,514,560,248,492,530,540,299,209,395,273,183,611,0,
1,1775671481440,961,-9136,20344,2775771,3291341,761138,0,0,0,224,250,159,262,170,259,450,438,266,278,392,90,0,
2,1775671481440,2656,4,15544,3557679,-210137,-461814,0,0,0,533,563,258,492,538,545,271,197,387,266,183,602,0,
1,1775671481456,-8260,16970,12634,3872885,4565606,-234572,0,0,0,240,249,146,270,165,243,464,462,262,326,416,82,0,
2,1775671481456,3192,167,17023,4305378,-321315,-646295,0,0,0,529,556,255,490,531,543,261,174,395,266,183,598,0,
1,1775671481472,-3235,10878,10385,5185024,4076914,-551000,0,0,0,240,245,135,287,164,252,475,475,266,372,428,79,0,
2,1775671481472,3977,325,18884,5167919,-399505,-883311,0,0,0,529,543,263,483,509,535,252,155,400,249,161,551,0,
1,1775671481488,6178,-4422,19722,6152634,1662775,-266337,0,0,0,243,248,150,299,167,287,490,491,272,399,437,84,0,
2,1775671481488,4910,138,22498,6224716,-414166,-1202182,0,0,0,505,515,260,477,498,524,257,150,401,227,143,480,0,
1,1775671481504,2943,-3589,25360,4863709,15882,613308,0,0,0,257,261,194,306,175,311,502,502,291,413,442,98,0,
2,1775671481504,5771,114,27499,7272961,-172263,-1475850,0,0,0,437,497,230,462,475,501,267,156,376,211,135,411,0,
1,1775671481520,-3814,-607,20966,3068986,-124616,702495,0,0,0,262,274,227,317,188,329,513,513,312,419,451,128,0,
2,1775671481520,6532,1220,31117,8205141,317649,-1739744,0,0,0,375,473,211,425,443,464,277,170,340,187,125,357,0,
1,1775671481536,-4513,52,12744,1426981,135612,-40317,0,0,0,267,288,244,334,200,362,522,522,331,426,463,177,0,
2,1775671481536,7106,2780,32744,8929628,896750,-2086715,0,0,0,309,443,216,373,402,417,293,221,302,146,112,277,0,
1,1775671481552,-1861,-315,9471,631634,134390,-350636,0,0,0,290,303,261,354,204,395,526,526,350,442,470,219,0,
2,1775671481552,8485,4091,31572,9474519,1651779,-2577851,0,0,0,273,429,230,342,376,392,308,268,285,115,103,215,0,
1,1775671481568,-1541,110,10189,387288,34208,-149051,0,0,0,311,311,266,367,205,400,537,530,349,459,475,236,0,
2,1775671481568,9696,8485,23105,9297368,1910786,-3389080,0,0,0,272,430,237,335,371,391,315,288,286,109,106,200,0,
1,1775671481584,-2278,784,10504,270002,32986,6108,0,0,0,317,315,261,365,212,397,545,521,346,454,471,260,0,
2,1775671481584,7355,13500,15324,7798305,928515,-4214970,0,0,0,271,434,236,335,372,392,315,297,282,110,112,200,0,
1,1775671481600,-2502,1095,10126,257785,85521,29321,0,0,0,316,315,267,359,212,392,554,514,355,453,454,287,0,
2,1775671481600,2010,19731,11256,3720169,-1062905,-3644422,0,0,0,266,437,233,334,372,388,312,297,270,109,111,197,0,
1,1775671481616,-2048,995,10002,313984,56199,26878,0,0,0,332,318,269,373,222,403,552,490,356,449,476,307,0,
2,1775671481616,2249,20272,9523,-2034181,-2208888,-1225395,0,0,0,265,439,233,337,374,387,314,295,266,111,112,198,0,
1,1775671481632,-1899,928,10198,368962,-32986,41538,0,0,0,337,323,277,391,219,404,535,486,363,426,436,315,0,
2,1775671481632,4958,14170,8719,-5668829,-2318844,591317,0,0,0,264,439,232,337,374,387,317,297,267,111,112,200,0,
1,1775671481648,-2033,952,11040,388510,-118507,63529,0,0,0,333,330,285,383,224,411,527,472,361,414,415,329,0,
2,1775671481648,7212,6331,6996,-6445850,-1776396,956614,0,0,0,263,441,234,341,379,389,321,299,269,111,114,198,0,
1,1775671481664,-2081,971,13026,340862,-149051,79412,0,0,0,329,344,277,380,227,409,529,449,370,406,388,342,0,
2,1775671481664,7154,3929,4819,-5742133,-1150870,207694,0,0,0,262,441,234,340,379,388,322,303,269,112,115,198,0,
1,1775671481680,-2062,942,11658,401949,-215024,79412,0,0,0,329,335,269,385,231,414,530,429,369,397,371,347,0,
2,1775671481680,6781,3838,4201,-5434257,-569326,-447153,0,0,0,259,440,232,341,375,387,324,303,269,113,113,199,0,
1,1775671481696,-2120,765,9485,469144,-251676,74525,0,0,0,325,331,289,383,229,425,522,409,377,383,355,355,0,
2,1775671481696,6456,4163,5656,-5717698,13439,-734260,0,0,0,261,442,234,345,378,390,326,305,269,116,114,199,0,
1,1775671481712,-2225,607,9002,450818,-221133,79412,0,0,0,323,334,305,378,225,431,521,397,388,374,344,362,0,
2,1775671481712,5786,4187,7642,-6041457,580321,-737925,0,0,0,262,443,239,341,375,387,323,305,267,112,114,196,0,
1,1775671481728,-2292,550,9428,394618,-146607,90408,0,0,0,325,339,302,369,254,426,522,391,392,368,338,369,0,
2,1775671481728,5245,4096,9394,-6236934,1009149,-368962,0,0,0,262,443,238,342,377,391,325,307,269,111,114,196,0,
1,1775671481744,-2263,521,9609,350636,-74525,98960,0,0,0,328,340,296,367,279,423,516,379,387,361,332,376,0,
2,1775671481744,5599,3862,10763,-6405532,1373225,262672,0,0,0,264,442,239,341,376,390,325,307,268,111,113,194,0,
1,1775671481760,-2148,507,9571,333532,-52534,101403,0,0,0,331,334,292,381,242,434,521,361,380,355,320,384,0,
2,1775671481760,5977,3541,12476,-6618113,1783726,889419,0,0,0,262,442,240,341,377,389,324,306,268,112,113,195,0,
1,1775671481776,-2053,488,9667,324980,-63529,95294,0,0,0,321,336,286,381,249,435,526,350,383,348,308,392,0,
2,1775671481776,6264,3283,14893,-6888116,2186897,1479515,0,0,0,262,443,241,342,377,389,326,308,270,114,115,198,0,
1,1775671481792,-2043,440,9763,337197,-92851,91629,0,0,0,318,338,274,389,255,437,533,332,383,345,298,399,0,
2,1775671481792,6666,2881,17942,-7156897,2472782,1830152,0,0,0,262,442,240,343,379,390,325,306,271,114,114,198,0,
1,1775671481808,-2115,363,9748,359188,-130725,98960,0,0,0,327,330,276,401,254,445,533,322,391,340,294,416,0,
2,1775671481808,6915,2187,21488,-7363369,2664594,1984090,0,0,0,258,438,238,347,381,393,325,304,271,112,112,194,0,
1,1775671481824,-2225,306,9715,384845,-167377,119729,0,0,0,329,347,271,406,277,452,533,293,390,341,273,431,0,
2,1775671481824,7307,1306,26613,-7514864,2722015,2028072,0,0,0,256,437,238,346,376,392,329,304,273,109,110,193,0,
1,1775671481840,-2325,287,9743,417831,-186924,153938,0,0,0,340,347,260,409,271,453,537,282,393,331,256,452,0,
2,1775671481840,8092,244,32036,-7633372,2724458,2151467,0,0,0,258,437,238,343,373,390,333,302,277,112,113,194,0,
1,1775671481856,-2368,239,9853,463035,-188146,195476,0,0,0,355,349,256,431,291,459,532,269,397,319,236,471,0,
2,1775671481856,9423,-3196,36587,-7745771,2883283,2470339,0,0,0,262,439,238,348,376,394,337,301,280,116,112,196,0,
1,1775671481872,-2493,177,10021,513126,-191811,235793,0,0,0,356,357,265,439,293,475,525,251,409,305,216,491,0,
2,1775671481872,7719,-12103,37070,-7512420,3755599,2800206,0,0,0,267,442,238,354,376,399,345,301,286,122,110,195,0,
1,1775671481888,-2770,157,10313,602313,-211359,288328,0,0,0,363,370,259,447,301,490,521,235,418,294,200,514,0,
2,1775671481888,1770,-25010,36515,-6564357,4364021,2923601,0,0,0,265,436,233,354,381,402,351,302,293,207,154,198,0,
1,1775671481904,-2818,100,10796,801455,-245567,371406,0,0,0,388,375,243,466,320,506,513,223,419,289,184,532,0,
2,1775671481904,-3172,-39746,30820,-4919908,3185051,2475225,0,0,0,268,437,235,355,382,401,351,301,294,130,117,199,0,
1,1775671481920,-2431,4,11519,1094670,-276111,426383,0,0,0,394,378,232,481,330,519,491,212,429,282,168,548,0,
2,1775671481920,-4388,-52347,19191,-2897944,1610240,436157,0,0,0,271,438,237,352,378,397,351,301,294,119,113,200,0,
1,1775671481936,-2043,-38,12170,1397659,-339641,400727,0,0,0,383,384,226,483,335,533,459,201,448,269,158,563,0,
2,1775671481936,-9002,-54955,14970,-1205847,1116661,-1819156,0,0,0,250,427,227,348,379,393,354,327,291,155,179,198,0,
1,1775671481952,-1799,-191,12658,1788613,-494800,340862,0,0,0,383,390,215,481,350,545,423,196,464,285,161,570,0,
2,1775671481952,-13208,-43560,18655,811229,-91629,-2982244,0,0,0,240,411,210,350,372,384,392,417,278,155,204,186,0,
1,1775671481968,-2455,-258,13026,2183232,-658512,315206,0,0,0,380,399,198,479,358,541,382,195,480,332,171,564,0,
2,1775671481968,-9203,-12213,24398,2664594,-2565634,-2098932,0,0,0,242,375,187,345,355,372,442,469,269,163,230,175,0,
1,1775671481984,-3723,-291,13673,2692693,-744033,426383,0,0,0,396,409,192,469,355,551,328,164,471,231,132,588,0,
2,1775671481984,3996,22426,18458,3477044,-5219232,441044,0,0,0,249,357,179,342,340,373,478,484,270,182,271,175,0,
1,1775671482000,-4623,-301,14764,3347541,-741590,693942,0,0,0,394,413,206,453,374,552,286,148,490,224,124,590,0,
2,1775671482000,4053,13007,9404,4194200,-4699997,1974316,0,0,0,258,365,184,350,338,384,498,500,281,197,303,182,0,
1,1775671482016,-5321,0,16635,4241848,-664621,1066570,0,0,0,410,392,211,444,359,539,258,158,491,193,91,568,0,
2,1775671482016,-6365,-3192,14644,5192354,-2282192,1870469,0,0,0,262,373,196,362,341,393,513,513,294,209,318,187,0,
1,1775671482032,-6566,430,19282,5205793,-613308,1467298,0,0,0,376,398,207,422,345,531,233,153,458,169,94,507,0,
2,1775671482032,-8662,-2986,23464,4857600,-619417,186924,0,0,0,263,388,226,368,346,404,523,523,305,220,322,197,0,
1,1775671482048,-8609,425,23335,6177069,-675616,1891238,0,0,0,375,364,214,394,322,488,216,136,429,158,91,443,0,
2,1775671482048,-732,1292,22545,3555235,-138055,-810007,0,0,0,273,407,259,377,360,417,533,533,311,226,324,217,0,
1,1775671482064,-10476,411,27748,7145901,-647517,2360383,0,0,0,332,335,197,355,306,444,185,129,377,141,90,357,0,
2,1775671482064,5250,2124,14371,1971872,-175929,-254119,0,0,0,295,437,296,392,379,429,546,546,318,232,319,242,0,
1,1775671482080,-10954,186,31155,7952243,-469144,2838079,0,0,0,276,322,191,319,273,391,207,159,341,133,119,275,0,
2,1775671482080,2574,689,10461,1136209,-185703,273667,0,0,0,302,452,308,407,390,435,553,553,319,239,319,254,0,
1,1775671482096,-10275,2148,31830,8403062,-146607,3214372,0,0,0,235,298,188,274,225,324,256,202,298,133,158,176,0,
2,1775671482096,449,-47,10279,590095,-213802,278554,0,0,0,334,464,324,416,396,441,563,562,321,248,319,274,0,
1,1775671482112,-12012,6609,27772,8646186,74525,3472158,0,0,0,233,278,190,255,195,284,294,233,275,142,191,118,0,
2,1775671482112,966,636,10839,313984,-290771,62308,0,0,0,345,467,325,421,396,447,564,564,318,253,317,288,0,
1,1775671482128,-13428,12634,17339,8370075,106290,3922976,0,0,0,243,278,201,262,192,289,306,249,281,150,212,121,0,
2,1775671482128,1282,1349,10485,129503,-316428,-13439,0,0,0,357,473,330,427,401,451,566,566,321,250,316,289,0,
1,1775671482144,-11538,15831,10399,6794043,188146,4305378,0,0,0,234,286,209,258,197,297,303,258,282,149,217,125,0,
2,1775671482144,1139,1584,10141,62308,-233350,2443,0,0,0,364,477,331,423,397,447,569,568,317,252,316,290,0,
1,1775671482160,-6168,18731,9801,2427578,487470,2955366,0,0,0,233,294,207,257,197,288,304,256,277,153,213,124,0,
2,1775671482160,1038,1574,10251,79412,-156381,0,0,0,0,364,478,334,420,399,447,564,564,322,251,311,292,0,
1,1775671482176,-2866,18229,10031,-2439795,1241278,488692,0,0,0,233,295,210,255,198,288,303,253,273,155,216,126,0,
2,1775671482176,971,1646,10318,134390,-105068,-23212,0,0,0,372,479,333,424,401,448,562,561,324,252,304,297,0,
1,1775671482192,-3981,12337,8781,-5200906,2158797,-1426981,0,0,0,235,298,211,256,202,291,305,258,272,152,213,125,0,
2,1775671482192,923,1761,10189,230907,-26878,-42760,0,0,0,374,480,334,428,403,453,562,560,324,250,293,302,0,
1,1775671482208,-6925,7130,6283,-5313305,2095267,-1368338,0,0,0,234,295,211,258,199,294,313,260,278,157,217,129,0,
2,1775671482208,971,1746,9997,332310,45204,-34208,0,0,0,378,482,336,428,403,454,558,555,324,249,284,306,0,
1,1775671482224,-8078,4991,5116,-5235115,1258382,-725707,0,0,0,233,299,213,259,199,294,317,264,279,153,219,126,0,
2,1775671482224,1091,1631,9901,415388,74525,-17104,0,0,0,386,485,337,426,403,453,557,543,326,247,273,310,0,
1,1775671482240,-6580,4771,5920,-5453804,174707,-65973,0,0,0,233,299,216,259,203,297,312,264,279,154,219,125,0,
2,1775671482240,1191,1435,9844,454483,45204,-9773,0,0,0,389,485,339,425,404,454,560,528,330,244,260,314,0,
1,1775671482256,-3986,4814,7949,-5904623,-122173,73303,0,0,0,231,298,216,257,202,297,313,264,279,156,222,125,0,
2,1775671482256,1234,1292,9777,447153,8552,-15882,0,0,0,394,487,341,427,407,458,560,514,332,245,252,321,0,
1,1775671482272,-2871,4522,9820,-6337115,-19547,-109955,0,0,0,234,298,214,258,203,298,314,266,279,158,224,126,0,
2,1775671482272,1263,1215,9753,400727,-39095,-25656,0,0,0,408,489,345,435,410,463,561,503,335,243,236,329,0,
1,1775671482288,-3843,3890,11150,-6680422,-141720,-500909,0,0,0,234,300,215,259,204,300,313,268,281,157,222,126,0,
2,1775671482288,1253,1201,9772,364075,-85521,-35430,0,0,0,417,493,332,437,410,461,560,496,335,244,225,345,0,
1,1775671482304,-4647,3340,12347,-6917437,-596204,-830776,0,0,0,231,300,215,259,204,300,314,270,280,157,224,126,0,
2,1775671482304,1191,1201,9834,356745,-124616,-47647,0,0,0,426,499,335,445,416,471,555,480,337,244,219,358,0,
1,1775671482320,-4757,2742,14137,-7035945,-1092227,-1112996,0,0,0,231,300,214,261,204,298,317,272,279,157,227,123,0,
2,1775671482320,1105,1143,9892,366519,-133168,-53756,0,0,0,436,511,334,448,416,470,556,469,339,255,217,376,0,
1,1775671482336,-5068,2110,16190,-7051828,-1385442,-1321912,0,0,0,233,301,215,263,205,297,319,271,279,157,228,120,0,
2,1775671482336,1028,1072,9911,373849,-124616,-51312,0,0,0,444,511,337,454,426,486,554,458,346,255,215,392,0,
1,1775671482352,-5929,1459,18525,-7043276,-1590693,-1414763,0,0,0,234,303,218,265,205,300,317,270,279,157,228,121,0,
2,1775671482352,1014,1019,9935,386066,-105068,-43982,0,0,0,452,521,341,460,442,489,549,444,352,248,205,405,0,
1,1775671482368,-6791,559,21875,-7112914,-1838704,-1477072,0,0,0,231,301,220,263,205,301,316,269,281,158,227,122,0,
2,1775671482368,1110,1000,10050,426383,-91629,-48869,0,0,0,463,527,343,464,444,500,544,423,356,254,199,430,0,
1,1775671482384,-7575,-607,25503,-7175223,-1946216,-1703092,0,0,0,232,298,225,260,202,301,319,267,284,160,224,122,0,
2,1775671482384,1191,957,10098,482583,-89186,-67195,0,0,0,471,531,344,465,450,504,542,401,371,256,194,450,0,
1,1775671482400,-9346,-2986,29471,-7125132,-1932777,-2265088,0,0,0,234,300,230,260,199,303,321,264,285,159,219,123,0,
2,1775671482400,1206,899,10112,566882,-84299,-96516,0,0,0,479,533,344,468,456,507,499,374,385,258,186,467,0,
1,1775671482416,-11524,-8265,32017,-6878342,-2420248,-3040887,0,0,0,232,300,226,263,204,304,320,263,287,158,215,120,0,
2,1775671482416,1249,847,10265,658512,-54977,-128281,0,0,0,491,543,347,477,467,517,506,344,389,259,175,488,0,
1,1775671482432,-10906,-16702,33424,-6472728,-3475823,-3585778,0,0,0,232,303,217,263,207,300,324,264,287,163,221,117,0,
2,1775671482432,1368,708,10528,777020,-10995,-178372,0,0,0,500,551,350,486,477,526,516,309,393,259,169,511,0,
1,1775671482448,-6092,-28351,30500,-5710368,-3750712,-3420845,0,0,0,229,306,217,267,209,304,324,262,289,164,223,117,0,
2,1775671482448,1478,574,11031,917519,6108,-226020,0,0,0,506,551,346,493,484,531,492,274,393,264,170,535,0,
1,1775671482464,-1325,-38750,23412,-4598593,-3163060,-2528982,0,0,0,229,311,218,266,216,306,325,267,291,165,224,119,0,
2,1775671482464,1564,631,11734,1133765,-24434,-259006,0,0,0,514,558,334,498,494,536,469,250,389,269,172,555,0,
1,1775671482480,4781,-46575,15640,-2951700,-2247984,-631634,0,0,0,226,310,224,266,216,311,320,266,291,169,226,121,0,
2,1775671482480,1502,665,12438,1484402,-92851,-287106,0,0,0,519,567,318,499,503,536,437,233,390,272,176,566,0,
1,1775671482496,11103,-48241,13787,-1160643,-729373,1328021,0,0,0,226,302,216,268,209,301,332,278,286,189,254,114,0,
2,1775671482496,1158,516,13218,1948660,-83077,-299323,0,0,0,516,565,295,504,518,540,397,227,394,274,183,578,0,
1,1775671482512,12433,-42215,15994,720820,1176526,2256536,0,0,0,226,280,186,270,195,277,384,343,266,245,322,99,0,
2,1775671482512,1344,397,14218,2495995,-58643,-304210,0,0,0,529,573,274,498,536,543,346,227,386,282,193,586,0,
1,1775671482528,3943,-12816,20052,2558303,3176499,1384220,0,0,0,233,257,160,272,178,256,435,411,248,295,377,83,0,
2,1775671482528,2005,454,15118,3097086,-147829,-355523,0,0,0,521,575,254,485,535,537,307,228,387,324,225,571,0,
1,1775671482544,-5829,16123,15386,3921754,4764748,112399,0,0,0,241,247,150,276,168,253,460,451,256,332,406,80,0,
2,1775671482544,2488,492,15841,3773925,-345749,-480140,0,0,0,524,573,256,485,550,538,271,218,378,264,191,595,0,
1,1775671482560,-3149,10423,12443,5264436,3775147,-560774,0,0,0,245,247,145,284,167,262,469,470,273,370,425,82,0,
2,1775671482560,2971,540,16769,4541172,-547335,-648738,0,0,0,527,563,258,479,530,533,260,191,381,262,182,582,0,
1,1775671482576,4709,-2373,19210,6174625,1133765,-493579,0,0,0,246,250,154,292,170,273,473,473,278,400,432,83,0,
2,1775671482576,3680,727,18659,5367061,-682947,-869872,0,0,0,535,561,273,473,525,527,252,170,383,246,168,540,0,
1,1775671482592,6202,-4455,25508,5380501,-742812,504574,0,0,0,253,261,187,299,175,297,480,481,286,416,437,96,0,
2,1775671482592,4240,425,21942,6272364,-790459,-1119105,0,0,0,511,536,256,463,514,513,249,163,374,227,151,476,0,
1,1775671482608,-2368,-650,20650,3535688,-588874,1036027,0,0,0,263,280,205,315,188,323,493,493,295,421,439,113,0,
2,1775671482608,5302,-1038,26838,7237531,-761138,-1345125,0,0,0,454,516,237,451,494,495,261,164,359,214,144,420,0,
1,1775671482624,-6748,291,12849,1844813,-20769,343306,0,0,0,265,292,249,331,209,368,506,507,317,430,455,180,0,
2,1775671482624,7102,-1086,29873,8045095,-118507,-1618792,0,0,0,390,485,219,422,453,462,276,174,332,192,132,374,0,
1,1775671482640,-3244,-564,9949,919963,146607,-262672,0,0,0,305,304,259,358,207,374,522,522,319,441,471,221,0,
2,1775671482640,6700,2053,31720,8592430,538783,-1997529,0,0,0,317,453,220,373,407,419,293,224,297,154,122,294,0,
1,1775671482656,-1268,-363,10098,333532,146607,-244346,0,0,0,312,312,257,358,210,379,540,538,329,438,463,243,0,
2,1775671482656,7193,4958,30389,8936958,860098,-2411695,0,0,0,275,435,231,341,379,392,309,271,282,123,115,224,0,
1,1775671482672,-1737,593,10763,100181,141720,-14660,0,0,0,318,308,250,366,210,377,544,540,320,454,466,258,0,
2,1775671482672,9643,7896,21349,8910080,924849,-3100751,0,0,0,268,433,237,334,371,387,318,291,282,111,113,201,0,
1,1775671482688,-2244,1052,10394,75747,102625,8552,0,0,0,327,306,263,369,219,378,543,540,320,450,460,267,0,
2,1775671482688,8801,11538,12873,7672467,266337,-3837455,0,0,0,265,438,236,332,380,386,318,297,280,114,117,203,0,
1,1775671482704,-2201,1100,10002,117286,52534,-12217,0,0,0,343,312,268,377,220,385,546,528,331,446,469,282,0,
2,1775671482704,4379,16908,10519,3933972,-959058,-3406184,0,0,0,260,440,234,328,387,383,317,297,272,114,118,203,0,
1,1775671482720,-1966,1086,10035,185703,15882,4886,0,0,0,345,319,272,379,224,389,545,504,341,441,471,292,0,
2,1775671482720,2589,19679,9624,-1222952,-1918116,-1736079,0,0,0,265,442,236,337,376,389,317,296,270,114,117,203,0,
1,1775671482736,-1856,1129,10236,274889,-62308,46425,0,0,0,339,324,269,377,228,393,536,481,343,438,449,305,0,
2,1775671482736,5135,14668,8566,-5243667,-1957212,254119,0,0,0,264,442,235,339,377,389,322,298,273,122,122,203,0,
1,1775671482752,-1871,1191,11079,345749,-174707,68416,0,0,0,336,328,267,380,229,399,529,462,345,428,427,319,0,
2,1775671482752,7542,7245,5747,-5725029,-1027475,660956,0,0,0,260,442,236,343,379,392,324,304,276,149,130,201,0,
1,1775671482768,-1847,1249,13050,320093,-204028,72082,0,0,0,335,331,264,384,234,401,528,444,349,413,409,326,0,
2,1775671482768,7331,3551,3776,-5149593,-52534,211359,0,0,0,260,442,238,346,383,396,324,304,275,116,119,201,0,
1,1775671482784,-1976,1076,11485,354301,-218689,64751,0,0,0,333,333,255,384,240,400,528,429,348,403,397,329,0,
2,1775671482784,5690,3675,4383,-4844161,404392,-328645,0,0,0,256,442,238,344,383,392,324,306,275,115,119,201,0,
1,1775671482800,-2110,856,9595,383623,-215024,64751,0,0,0,330,333,250,382,243,399,519,428,352,408,394,332,0,
2,1775671482800,4666,4335,5924,-5021312,654847,-555887,0,0,0,256,442,237,344,383,395,325,307,274,116,118,202,0,
1,1775671482816,-2158,727,9030,353080,-179594,70860,0,0,0,329,331,248,379,241,397,509,435,365,428,381,333,0,
2,1775671482816,4197,4761,7619,-5424483,960280,-433714,0,0,0,259,442,236,344,380,392,323,306,273,117,118,198,0,
1,1775671482832,-2139,717,9523,282219,-127059,79412,0,0,0,328,332,254,384,238,403,529,404,359,387,366,348,0,
2,1775671482832,3914,4761,8925,-5693264,1343903,-64751,0,0,0,259,440,235,344,381,391,325,308,273,115,119,198,0,
1,1775671482848,-2129,727,9619,238237,-75747,83077,0,0,0,326,336,250,386,240,400,525,388,352,379,354,348,0,
2,1775671482848,3833,4632,10150,-5885075,1727526,355523,0,0,0,260,443,237,346,384,394,327,310,274,118,121,200,0,
1,1775671482864,-2105,732,9576,218689,-35430,84299,0,0,0,323,337,258,387,255,415,525,398,358,376,357,358,0,
2,1775671482864,3555,4479,11902,-6070778,2144136,819781,0,0,0,258,443,237,346,384,395,327,310,274,119,121,200,0,
1,1775671482880,-2014,713,9624,215024,-20769,78190,0,0,0,326,342,258,388,256,418,524,381,364,372,344,372,0,
2,1775671482880,3077,4422,14041,-6276029,2427578,1244943,0,0,0,257,442,237,345,384,394,327,311,275,116,120,200,0,
1,1775671482896,-1957,679,9734,221133,-35430,69638,0,0,0,325,339,254,392,260,425,522,374,363,366,339,386,0,
2,1775671482896,2914,4316,16506,-6519153,2508212,1560149,0,0,0,259,444,240,343,382,394,328,311,276,115,120,199,0,
1,1775671482912,-2019,650,9820,249233,-72082,74525,0,0,0,337,354,257,408,256,427,526,361,364,369,331,394,0,
2,1775671482912,3129,3986,19353,-6768386,2547308,1745852,0,0,0,258,445,241,343,381,394,331,313,277,117,120,198,0,
1,1775671482928,-2105,612,9801,293215,-91629,96516,0,0,0,340,368,257,415,261,430,528,347,368,359,320,405,0,
2,1775671482928,3541,3474,22813,-6987076,2597398,1786169,0,0,0,258,445,239,347,384,396,333,312,279,117,120,198,0,
1,1775671482944,-2172,569,9777,346971,-101403,125838,0,0,0,343,366,255,416,271,441,530,327,373,358,307,420,0,
2,1775671482944,3996,3196,27604,-7177666,2634050,1825265,0,0,0,260,444,241,346,382,394,333,307,279,118,119,198,0,
1,1775671482960,-2196,531,9815,406836,-105068,155159,0,0,0,347,363,260,417,277,453,526,304,390,354,293,441,0,
2,1775671482960,4206,2182,32179,-7376808,2676811,2015855,0,0,0,256,443,239,347,381,394,335,302,280,118,118,200,0,
1,1775671482976,-2201,478,9901,470366,-124616,183259,0,0,0,347,366,263,429,281,460,520,282,414,334,269,465,0,
2,1775671482976,3311,-2301,35448,-7497759,2938261,2425134,0,0,0,263,444,242,349,380,392,344,303,286,120,120,200,0,
1,1775671482992,-2268,411,10122,564439,-202807,224798,0,0,0,350,365,259,449,286,469,522,257,433,314,227,487,0,
2,1775671482992,402,-13323,37496,-7076262,3180164,2838079,0,0,0,261,443,236,354,384,400,352,303,295,121,117,201,0,
1,1775671483008,-2450,349,10409,679282,-329867,280998,0,0,0,356,367,272,457,292,488,514,235,444,294,198,514,0,
2,1775671483008,28,-28121,34893,-6089104,2317622,2692693,0,0,0,264,443,238,356,387,405,354,305,302,124,120,205,0,
1,1775671483024,-2603,306,10854,827111,-430049,334754,0,0,0,367,381,269,483,309,508,500,226,437,286,183,535,0,
2,1775671483024,4565,-45704,23752,-4364021,871093,1080009,0,0,0,262,443,236,357,388,404,352,306,296,145,126,201,0,
1,1775671483040,-2684,282,11557,1065348,-412944,371406,0,0,0,379,395,237,491,341,513,482,214,440,276,174,548,0,
2,1775671483040,-1191,-51926,15252,-2225992,1304808,-1955990,0,0,0,260,443,237,356,387,403,353,308,295,131,122,200,0,
1,1775671483056,-2368,148,12227,1387885,-349414,388510,0,0,0,380,420,227,499,350,529,457,209,449,270,174,562,0,
2,1775671483056,-16132,-46786,16190,-171042,1225395,-3766595,0,0,0,250,439,237,350,386,400,356,344,290,123,136,197,0,
1,1775671483072,-1923,-4,12653,1737300,-371406,355523,0,0,0,411,418,218,505,350,545,418,192,448,262,153,565,0,
2,1775671483072,-15343,-33223,20459,1433089,-1139874,-2590068,0,0,0,239,421,216,350,380,390,385,417,276,137,176,189,0,
1,1775671483088,-2493,-43,13103,2164906,-500909,340862,0,0,0,419,418,203,497,353,540,377,189,451,269,158,575,0,
2,1775671483088,-3201,-5546,22287,2734232,-3312111,-823446,0,0,0,239,389,192,348,360,378,432,471,267,166,234,179,0,
1,1775671483104,-3627,-57,13591,2643824,-540004,450818,0,0,0,406,408,204,485,346,538,345,177,454,256,141,579,0,
2,1775671483104,8987,23426,14821,3241250,-4564385,968832,0,0,0,247,368,185,339,339,376,468,480,271,191,284,174,0,
1,1775671483120,-4450,-100,14491,3306002,-441044,729373,0,0,0,407,409,212,480,360,539,302,156,473,243,134,581,0,
2,1775671483120,3369,11926,8092,4047593,-3979176,1701870,0,0,0,252,372,180,347,338,381,493,493,280,210,314,175,0,
1,1775671483136,-5216,14,15663,4057366,-302989,1055575,0,0,0,418,393,221,470,357,537,259,146,469,223,116,568,0,
2,1775671483136,-6680,-2555,13697,5075068,-2338392,1433089,0,0,0,257,379,186,360,347,392,507,508,293,266,355,180,0,
1,1775671483152,-6317,282,17654,4875926,-221133,1446528,0,0,0,407,383,224,438,353,522,224,137,449,191,103,526,0,
2,1775671483152,-7441,-2703,22526,4846604,-912632,51312,0,0,0,262,389,221,373,358,406,506,506,317,309,336,194,0,
1,1775671483168,-7834,177,21450,5738468,-221133,1857030,0,0,0,381,380,217,401,343,494,203,128,426,169,105,465,0,
2,1775671483168,210,1268,22617,3632204,-386066,-741590,0,0,0,273,412,253,380,365,416,532,532,310,214,310,205,0,
1,1775671483184,-9786,81,25159,6603453,-136833,2273640,0,0,0,353,362,206,376,313,456,191,133,388,159,104,388,0,
2,1775671483184,4694,1564,15726,2040289,-294437,-216246,0,0,0,284,436,282,388,381,428,541,541,316,218,308,231,0,
1,1775671483200,-10208,0,27901,7327939,67195,2719572,0,0,0,295,342,199,335,288,403,194,153,334,140,105,288,0,
2,1775671483200,1789,392,11026,1069014,-183259,273667,0,0,0,305,457,300,408,397,437,556,556,326,229,303,257,0,
1,1775671483216,-9523,847,29533,7842287,326202,3071430,0,0,0,247,317,200,285,248,343,236,192,302,133,135,203,0,
2,1775671483216,287,210,9868,570548,-102625,252898,0,0,0,333,465,311,417,399,444,558,558,326,238,299,281,0,
1,1775671483232,-10524,3618,28073,8207585,717155,3310889,0,0,0,227,285,193,249,194,275,289,239,270,136,182,122,0,
2,1775671483232,1038,708,10284,350636,-171042,61086,0,0,0,355,479,319,425,404,449,568,568,329,239,295,293,0,
1,1775671483248,-13050,8877,19133,8207585,977384,3590665,0,0,0,250,281,205,257,189,286,301,247,275,150,208,121,0,
2,1775671483248,1335,1124,10251,179594,-294437,13439,0,0,0,372,482,330,430,411,453,571,571,325,243,296,305,0,
1,1775671483264,-13060,11304,12170,7622376,1050688,3902207,0,0,0,238,287,213,254,191,293,293,255,279,152,222,124,0,
2,1775671483264,1124,1349,10203,108734,-301767,19547,0,0,0,382,482,335,431,411,454,572,572,318,247,294,318,0,
1,1775671483280,-9499,13424,10059,5411044,844215,3461162,0,0,0,231,291,212,251,196,293,298,261,277,150,217,126,0,
2,1775671483280,1005,1435,10232,158824,-251676,14660,0,0,0,392,488,337,435,412,456,570,569,319,248,287,326,0,
1,1775671483296,-4804,16434,9624,873537,990823,1137431,0,0,0,232,295,214,248,197,293,298,263,275,154,221,130,0,
2,1775671483296,923,1502,10275,238237,-208915,0,0,0,0,395,490,337,434,411,457,572,564,328,245,277,332,0,
1,1775671483312,-3594,14285,8600,-3252246,1854586,-1456302,0,0,0,236,296,215,251,200,289,296,260,280,199,221,145,0,
2,1775671483312,804,1560,10294,320093,-101403,-8552,0,0,0,404,490,338,434,411,458,541,534,351,244,263,341,0,
1,1775671483328,-6628,8470,6092,-4250400,2359161,-2067167,0,0,0,234,295,212,249,197,285,300,259,286,174,228,130,0,
2,1775671483328,818,1521,10241,393397,28099,-9773,0,0,0,416,493,341,438,413,462,528,515,357,244,248,358,0,
1,1775671483344,-9083,4958,3804,-4282165,1875356,-1536936,0,0,0,231,296,211,249,199,289,301,260,286,155,229,123,0,
2,1775671483344,961,1354,10078,449596,123394,-9773,0,0,0,419,497,341,441,417,467,569,530,341,243,238,373,0,
1,1775671483360,-8332,4546,3584,-4293160,778242,-634078,0,0,0,231,298,212,251,203,293,302,264,285,153,227,124,0,
2,1775671483360,1086,1158,9877,455705,140499,-15882,0,0,0,423,499,338,444,418,469,569,516,339,243,226,380,0,
1,1775671483376,-6312,4690,4704,-4538728,153938,-64751,0,0,0,230,299,214,250,202,293,305,267,286,154,229,124,0,
2,1775671483376,1148,1081,9791,433714,123394,-21991,0,0,0,428,499,337,439,417,468,568,504,339,241,215,388,0,
1,1775671483392,-5058,4781,6475,-4995655,189368,-9773,0,0,0,229,297,215,249,202,292,308,267,287,155,230,126,0,
2,1775671483392,1215,1048,9806,401949,87964,-34208,0,0,0,429,499,334,443,418,473,565,493,340,243,207,393,0,
1,1775671483408,-5561,4541,8059,-5602855,211359,-356745,0,0,0,230,297,215,253,206,297,306,268,283,155,224,127,0,
2,1775671483408,1268,1000,9844,381179,41538,-46425,0,0,0,434,500,331,450,422,481,559,469,337,247,206,394,0,
1,1775671483424,-6312,3953,9542,-6185621,-23212,-803898,0,0,0,233,300,219,254,204,300,303,268,283,156,222,126,0,
2,1775671483424,1282,966,9892,364075,-12217,-58643,0,0,0,437,503,330,456,425,482,562,457,349,247,200,407,0,
1,1775671483440,-6910,2780,11275,-6655987,-496022,-1348790,0,0,0,236,299,220,256,205,301,308,271,284,159,224,125,0,
2,1775671483440,1234,938,9949,361632,-54977,-68416,0,0,0,457,525,342,460,464,476,566,450,360,241,188,416,0,
1,1775671483456,-7298,1679,12974,-6867347,-908967,-1806939,0,0,0,234,299,220,254,204,300,309,271,285,158,224,125,0,
2,1775671483456,1186,909,9992,383623,-68416,-74525,0,0,0,456,517,336,465,444,495,560,434,361,240,180,426,0,
1,1775671483472,-7843,813,14922,-6905220,-1273043,-2182010,0,0,0,235,303,222,250,201,298,282,251,284,156,226,126,0,
2,1775671483472,1172,866,10016,419053,-64751,-78190,0,0,0,458,518,335,470,443,500,555,409,365,240,175,439,0,
1,1775671483488,-8600,201,17525,-6901555,-1667662,-2410474,0,0,0,236,304,222,255,203,301,312,273,282,222,218,150,0,
2,1775671483488,1201,756,10045,453262,-43982,-91629,0,0,0,460,520,332,472,449,505,544,381,375,308,229,450,0,
1,1775671483504,-9169,-344,20674,-6924768,-2012190,-2442239,0,0,0,230,300,222,253,201,299,315,273,282,166,222,128,0,
2,1775671483504,1229,646,10054,476474,-17104,-112399,0,0,0,465,520,329,473,455,510,540,361,377,282,199,471,0,
1,1775671483520,-9772,-1301,24685,-6917437,-2166128,-2361605,0,0,0,231,302,224,254,201,299,316,274,280,157,222,122,0,
2,1775671483520,1277,574,10074,500909,9773,-139277,0,0,0,476,524,330,477,464,517,537,339,381,251,163,496,0,
1,1775671483536,-10935,-2976,28360,-6828251,-2232101,-2361605,0,0,0,232,303,225,257,206,302,316,274,280,158,224,121,0,
2,1775671483536,1387,526,10155,538783,35430,-171042,0,0,0,485,532,329,482,474,519,536,319,394,255,164,511,0,
1,1775671483552,-11806,-6561,31452,-6668204,-2646268,-2476447,0,0,0,231,304,223,257,206,301,318,275,281,156,220,117,0,
2,1775671483552,1469,497,10361,607200,47647,-213802,0,0,0,493,539,329,487,480,519,527,297,397,261,168,524,0,
1,1775671483568,-9112,-13759,33826,-6530149,-3590665,-2566855,0,0,0,230,304,221,260,207,302,317,270,281,165,215,118,0,
2,1775671483568,1435,435,10614,733038,26878,-245567,0,0,0,503,543,330,494,487,527,505,267,390,275,176,543,0,
1,1775671483584,-4077,-24345,32773,-6313903,-3819129,-2460565,0,0,0,229,306,220,264,210,305,319,266,284,170,217,121,0,
2,1775671483584,1421,363,10940,886976,17104,-262672,0,0,0,505,549,320,498,494,531,486,248,395,288,183,560,0,
1,1775671483600,-1095,-35123,25776,-5666385,-3109304,-1819156,0,0,0,229,307,220,264,209,308,325,266,288,167,220,122,0,
2,1775671483600,1521,344,11686,1150870,41538,-279776,0,0,0,508,555,308,506,503,535,455,232,390,282,182,578,0,
1,1775671483616,4125,-46460,16228,-3819129,-2492330,213802,0,0,0,230,302,216,266,206,308,331,265,289,175,223,121,0,
2,1775671483616,1483,358,12471,1514945,87964,-306654,0,0,0,511,559,297,514,517,544,426,227,397,277,180,585,0,
1,1775671483632,13433,-48781,14477,-1667662,-1503950,1744631,0,0,0,225,290,203,263,198,296,346,276,285,199,255,117,0,
2,1775671483632,1306,248,13007,1949881,138055,-328645,0,0,0,509,559,274,509,523,555,398,221,399,276,180,593,0,
1,1775671483648,16544,-42225,17903,471587,552222,1880243,0,0,0,229,271,186,264,183,272,390,347,267,246,354,101,0,
2,1775671483648,1450,191,13768,2450791,145385,-334754,0,0,0,514,554,252,506,530,560,356,217,391,276,191,601,0,
1,1775671483664,6795,-16319,20717,2918714,3900985,678060,0,0,0,239,242,160,264,166,245,448,427,244,289,401,84,0,
2,1775671483664,1990,201,14783,3011565,75747,-370184,0,0,0,511,553,238,504,535,560,311,200,395,274,189,605,0,
1,1775671483680,-4848,11414,15290,4626693,6093991,-494800,0,0,0,245,247,144,280,161,243,464,463,260,321,414,76,0,
2,1775671483680,2804,157,15946,3706730,-57421,-480140,0,0,0,523,553,246,495,529,545,288,188,391,269,185,606,0,
1,1775671483696,-1076,8571,14261,5615073,4627915,-801455,0,0,0,244,242,135,288,161,258,477,477,270,357,424,80,0,
2,1775671483696,3575,268,17209,4466646,-182037,-674395,0,0,0,525,548,247,490,526,543,270,167,395,259,172,590,0,
1,1775671483712,6838,-2608,22531,5843536,1551597,-271224,0,0,0,250,251,154,295,165,276,484,485,279,386,429,88,0,
2,1775671483712,4350,679,19913,5429370,-290771,-955393,0,0,0,521,536,251,491,507,544,260,160,402,248,160,544,0,
1,1775671483728,3067,-3172,25709,4427551,46425,725707,0,0,0,257,268,178,304,178,294,489,490,290,396,433,99,0,
2,1775671483728,5312,765,24431,6582683,-368962,-1257160,0,0,0,483,516,246,481,490,526,263,155,395,230,151,468,0,
1,1775671483744,-4895,-689,19028,2375044,-155159,730594,0,0,0,262,279,215,317,192,332,500,501,308,404,443,127,0,
2,1775671483744,6360,1335,29911,7874052,-108734,-1566258,0,0,0,418,485,215,459,467,495,272,160,370,208,136,394,0,
1,1775671483760,-4728,593,11275,1181413,119729,-94073,0,0,0,273,292,240,337,204,359,512,512,322,418,455,176,0,
2,1775671483760,6523,2488,32567,8824559,466701,-1841147,0,0,0,351,457,202,415,435,452,287,183,332,177,122,338,0,
1,1775671483776,-2244,205,8451,608421,252898,-378736,0,0,0,293,303,249,354,209,364,523,523,328,428,466,213,0,
2,1775671483776,6757,3795,33002,9478185,1216843,-2162462,0,0,0,293,435,218,360,393,405,294,228,296,134,106,264,0,
1,1775671483792,-1689,-62,9777,283441,315206,-177150,0,0,0,309,309,254,359,207,362,534,533,328,439,474,219,0,
2,1775671483792,8848,5943,28509,9699318,2278527,-2741563,0,0,0,266,426,232,333,367,383,296,268,282,105,95,199,0,
1,1775671483808,-1971,445,10643,3665,365297,-23212,0,0,0,318,315,255,360,211,364,539,535,323,455,477,227,0,
2,1775671483808,10150,10107,17999,9359677,2849075,-3663969,0,0,0,280,438,238,341,373,390,313,277,285,110,103,205,0,
1,1775671483824,-2014,1263,10457,-85521,313984,-12217,0,0,0,328,316,256,365,212,365,542,531,322,447,479,237,0,
2,1775671483824,5771,11820,13687,8010886,1643227,-4448320,0,0,0,287,440,240,339,370,389,311,290,280,110,107,202,0,
1,1775671483840,-1837,1397,10208,65973,162490,-9773,0,0,0,329,321,258,369,220,371,544,521,323,442,474,253,0,
2,1775671483840,-1268,16893,12199,5027420,-557109,-3656639,0,0,0,279,440,235,337,369,385,315,293,277,111,107,199,0,
1,1775671483856,-1756,1292,10198,228463,28099,20769,0,0,0,340,325,265,371,222,377,545,513,333,440,473,269,0,
2,1775671483856,-335,20028,9026,-204028,-2557081,-709825,0,0,0,277,441,234,337,369,382,315,290,271,111,106,200,0,
1,1775671483872,-1756,1158,10260,333532,-89186,54977,0,0,0,337,326,265,378,222,389,544,492,346,424,449,289,0,
2,1775671483872,5905,16013,6647,-4798957,-2923601,1799608,0,0,0,276,440,233,341,372,384,320,290,271,115,108,200,0,
1,1775671483888,-1809,1177,10131,386066,-199142,64751,0,0,0,333,336,262,374,250,390,539,479,347,416,434,306,0,
2,1775671483888,10208,7336,6834,-6978524,-1606575,2135584,0,0,0,273,441,234,342,371,384,321,292,272,118,111,201,0,
1,1775671483904,-1914,1158,9849,415388,-260228,63529,0,0,0,329,329,262,381,229,395,539,451,349,407,416,329,0,
2,1775671483904,7556,4058,7590,-6976081,-746477,871093,0,0,0,274,443,237,341,371,384,319,293,272,115,108,201,0,
1,1775671483920,-2067,995,9576,421497,-252898,59864,0,0,0,330,328,259,383,225,399,536,439,345,399,399,336,0,
2,1775671483920,5063,3163,7614,-6849021,-564439,-57421,0,0,0,269,441,235,341,371,385,321,295,273,113,108,201,0,
1,1775671483936,-2129,823,9523,395840,-194255,63529,0,0,0,332,327,255,381,231,406,524,418,350,392,385,343,0,
2,1775671483936,4474,2589,7614,-6806260,-563217,-513126,0,0,0,268,443,238,343,374,388,324,298,276,114,111,201,0,
1,1775671483952,-2129,760,9562,350636,-120951,72082,0,0,0,327,329,252,381,241,407,528,410,351,383,373,347,0,
2,1775671483952,4608,2373,8705,-6857573,-23212,-619417,0,0,0,267,444,240,344,375,388,323,298,274,115,112,201,0,
1,1775671483968,-2100,780,9619,311541,-67195,78190,0,0,0,324,338,252,380,254,407,536,406,349,375,365,351,0,
2,1775671483968,3795,2981,10447,-6943094,634078,-481361,0,0,0,265,443,238,346,377,389,323,300,274,114,111,199,0,
1,1775671483984,-2057,770,9681,287106,-18325,84299,0,0,0,324,349,254,380,261,411,533,388,349,375,361,360,0,
2,1775671483984,2928,3570,12333,-7064045,1049466,-31764,0,0,0,265,443,237,345,377,389,325,303,276,114,112,200,0,
1,1775671484000,-1990,717,9700,283441,-2443,84299,0,0,0,326,354,257,384,259,415,532,377,351,374,353,367,0,
2,1775671484000,3417,3263,14075,-7205766,1265712,596204,0,0,0,267,444,238,344,375,388,327,303,277,116,113,202,0,
1,1775671484016,-1933,670,9710,285884,-3665,84299,0,0,0,331,352,260,389,257,422,533,380,360,366,334,377,0,
2,1775671484016,4111,2799,16037,-7376808,1604132,1098335,0,0,0,269,447,242,343,380,388,328,302,278,116,112,201,0,
1,1775671484032,-1914,626,9734,298102,-20769,80634,0,0,0,336,347,260,394,261,422,527,363,358,362,322,389,0,
2,1775671484032,4020,2268,18506,-7527081,1982868,1363451,0,0,0,269,447,244,338,383,386,331,304,279,116,110,200,0,
1,1775671484048,-1919,603,9791,318871,-39095,76969,0,0,0,337,369,260,399,282,426,525,342,362,359,315,396,0,
2,1775671484048,3742,1531,21349,-7528303,2171015,1532050,0,0,0,265,444,241,342,373,388,333,303,281,115,111,202,0,
1,1775671484064,-1947,588,9882,354301,-58643,78190,0,0,0,343,375,265,396,306,432,498,330,377,341,299,417,0,
2,1775671484064,4402,1091,25240,-7362147,2078163,1631010,0,0,0,265,444,240,343,373,388,333,302,280,112,109,199,0,
1,1775671484080,-2043,540,9954,420275,-85521,97738,0,0,0,350,385,264,420,330,444,510,302,372,340,284,426,0,
2,1775671484080,5867,765,29681,-7326717,2031737,1679879,0,0,0,269,445,240,347,373,388,334,299,278,115,109,196,0,
1,1775671484096,-2191,483,9997,502131,-109955,134390,0,0,0,352,386,264,417,330,449,508,281,393,328,265,456,0,
2,1775671484096,7068,-1679,33668,-7447668,2194227,1756848,0,0,0,270,445,239,353,373,390,344,300,283,115,109,196,0,
1,1775671484112,-2330,416,10074,591317,-133168,195476,0,0,0,359,384,259,418,332,460,505,254,394,323,241,483,0,
2,1775671484112,5848,-10318,35209,-7341378,2722015,1920560,0,0,0,272,446,240,357,379,397,344,298,288,117,108,198,0,
1,1775671484128,-2483,291,10208,698829,-168598,287106,0,0,0,370,387,259,438,336,476,502,244,406,304,217,505,0,
2,1775671484128,2144,-22239,34228,-6636439,2981022,2008524,0,0,0,271,445,239,358,381,402,344,293,292,116,104,205,0,
1,1775671484144,-2450,148,10390,813672,-201585,370184,0,0,0,387,402,258,457,347,492,494,232,413,287,194,522,0,
2,1775671484144,-1928,-35793,28657,-5139820,2375044,1866804,0,0,0,273,446,241,359,379,400,348,298,294,121,111,203,0,
1,1775671484160,-2278,100,10949,985936,-237015,419053,0,0,0,397,417,247,467,355,499,479,217,412,278,178,536,0,
2,1775671484160,-4288,-46676,18846,-2905275,1457524,916297,0,0,0,271,444,238,356,379,398,351,302,295,121,113,203,0,
1,1775671484176,-2072,100,11777,1215621,-272445,433714,0,0,0,400,421,236,473,366,507,455,213,419,269,172,554,0,
2,1775671484176,-7446,-50179,14185,-977384,993266,-493579,0,0,0,265,441,235,353,382,394,355,324,290,125,125,202,0,
1,1775671484192,-1703,-4,12428,1566258,-344527,395840,0,0,0,404,425,225,478,386,520,421,214,432,261,173,571,0,
2,1775671484192,-9930,-43206,16611,777020,37873,-1555262,0,0,0,254,432,224,353,383,391,376,402,280,135,168,195,0,
1,1775671484208,-1799,-134,12840,1924225,-431270,335975,0,0,0,410,441,211,481,396,519,383,203,442,258,166,579,0,
2,1775671484208,-6987,-20722,21828,2365270,-1535715,-1527163,0,0,0,246,399,204,345,366,379,414,464,268,181,252,184,0,
1,1775671484224,-3034,-110,13405,2383596,-461814,356745,0,0,0,411,437,208,486,391,530,342,194,449,254,161,584,0,
2,1775671484224,2598,13811,19588,3408628,-3523470,-480140,0,0,0,247,370,187,337,344,371,453,480,267,204,297,178,0,
1,1775671484240,-4058,-110,14252,2962696,-324980,576656,0,0,0,424,445,201,473,397,539,287,173,445,249,150,580,0,
2,1775671484240,4781,14065,10801,4144109,-4074471,455705,0,0,0,257,370,182,343,339,378,455,487,285,185,287,180,0,
1,1775671484256,-4742,-100,15252,3629761,-133168,850324,0,0,0,424,425,214,461,421,544,201,168,447,229,134,574,0,
