sole_id,timestamp,accel_x,accel_y,accel_z,gyro_x,gyro_y,gyro_z,magn_x,magn_y,magn_z,pressure_01,pressure_02,pressure_03,pressure_04,pressure_05,pressure_06,pressure_07,pressure_08,pressure_09,pressure_10,pressure_11,pressure_12,corrupt,transition,concrete,asphalt,brick,dirt,grass
1,1779205816032,-2010,1076,9724,0,-39095,9773,0,0,0,138,186,70,141,123,113,387,378,150,363,354,25,0,,,,,,
1,1779205816048,-2010,1072,9743,0,-40317,10995,0,0,0,139,187,71,138,122,107,387,378,150,362,354,20,0,,,,,,
2,1779205816048,2010,794,9724,19547,-42760,8552,0,0,0,167,160,171,168,107,182,368,322,189,337,292,81,0,,,,,,
1,1779205816064,-2010,1062,9743,0,-41538,10995,0,0,0,141,188,75,140,122,108,386,379,151,363,355,24,0,,,,,,
2,1779205816064,1995,784,9734,20769,-43982,8552,0,0,0,169,161,173,168,108,183,366,323,188,337,292,82,0,,,,,,
1,1779205816080,-2010,1062,9743,0,-42760,10995,0,0,0,140,187,74,140,121,113,384,377,149,364,355,25,0,,,,,,
2,1779205816080,1995,784,9739,21991,-45204,9773,0,0,0,168,162,172,171,112,184,366,322,185,336,294,80,0,,,,,,
1,1779205816096,-2014,1057,9739,0,-42760,10995,0,0,0,138,185,68,140,122,112,383,377,147,364,355,25,0,,,,,,
2,1779205816096,2000,794,9743,21991,-45204,10995,0,0,0,172,162,174,171,110,182,368,320,185,339,295,85,0,,,,,,
1,1779205816112,-2019,1062,9739,-2443,-42760,10995,0,0,0,137,185,67,141,123,108,386,381,148,365,356,32,0,,,,,,
2,1779205816112,2010,794,9743,21991,-43982,10995,0,0,0,177,165,177,172,110,183,368,319,188,340,297,82,0,,,,,,
1,1779205816128,-2014,1076,9743,-3665,-40317,9773,0,0,0,135,185,67,136,119,108,384,378,147,364,356,41,0,,,,,,
2,1779205816128,2014,794,9743,21991,-42760,10995,0,0,0,175,164,178,170,110,181,370,321,188,338,297,84,0,,,,,,
1,1779205816144,-2010,1086,9748,-3665,-40317,9773,0,0,0,135,185,67,135,119,106,384,379,145,361,354,30,0,,,,,,
2,1779205816144,2014,789,9753,24434,-42760,9773,0,0,0,175,162,181,170,106,186,375,320,193,338,296,83,0,,,,,,
1,1779205816160,-2010,1081,9753,0,-40317,9773,0,0,0,134,186,69,136,122,109,385,381,146,363,355,24,0,,,,,,
2,1779205816160,2005,789,9753,26878,-42760,8552,0,0,0,179,161,186,171,107,187,375,317,193,338,296,79,0,,,,,,
1,1779205816176,-2014,1076,9753,0,-41538,9773,0,0,0,133,185,79,134,120,116,385,381,150,364,357,34,0,,,,,,
2,1779205816176,2000,794,9753,30543,-43982,8552,0,0,0,175,159,185,171,103,190,378,320,198,337,295,80,0,,,,,,
1,1779205816192,-2019,1081,9748,0,-41538,9773,0,0,0,135,183,88,134,118,119,383,380,152,363,357,36,0,,,,,,
2,1779205816192,2005,794,9743,31764,-42760,8552,0,0,0,177,159,185,173,103,189,375,316,195,338,293,82,0,,,,,,
1,1779205816208,-2014,1091,9753,0,-42760,10995,0,0,0,135,182,86,138,120,117,382,379,150,364,358,31,0,x,,,,,
2,1779205816208,2010,784,9739,31764,-42760,8552,0,0,0,173,160,179,173,105,188,373,316,193,338,295,80,0,x,,,,,
1,1779205816224,-2010,1081,9753,0,-41538,10995,0,0,0,133,179,85,135,115,117,381,378,149,366,360,41,0,,,,,,
2,1779205816224,2014,775,9739,29321,-42760,8552,0,0,0,171,160,179,171,105,191,369,319,195,338,299,83,0,,,,,,
1,1779205816240,-2005,1076,9748,-1221,-40317,9773,0,0,0,133,179,87,134,117,121,380,377,148,365,357,38,0,,,,,,
2,1779205816240,2010,775,9743,28099,-42760,8552,0,0,0,168,160,178,172,108,193,371,322,197,338,299,83,0,,,,,,
1,1779205816256,-2010,1086,9743,-3665,-39095,9773,0,0,0,135,180,86,131,114,117,378,376,144,363,358,36,0,,,,,,
2,1779205816256,2010,775,9743,26878,-43982,7330,0,0,0,170,161,178,173,108,194,373,323,197,338,299,83,0,,,,,,
1,1779205816272,-2010,1095,9753,0,-39095,9773,0,0,0,153,178,61,149,114,102,374,375,140,365,358,27,0,,,,,,
2,1779205816272,2014,784,9748,26878,-45204,7330,0,0,0,171,163,179,173,109,194,375,324,197,339,299,83,0,,,,,,
1,1779205816288,-2005,1095,9767,3665,-39095,10995,0,0,0,157,178,61,149,114,102,382,378,132,364,357,21,0,,,,,,
2,1779205816288,2014,784,9753,29321,-45204,7330,0,0,0,170,164,180,174,110,195,373,324,200,338,299,83,0,,,,,,
1,1779205816304,-2000,1091,9772,7330,-40317,12217,0,0,0,138,182,62,136,120,107,382,380,134,364,357,27,0,,,,,,
2,1779205816304,2014,775,9753,30543,-45204,6108,0,0,0,171,160,182,173,108,200,370,320,202,335,298,83,0,,,,,,
1,1779205816320,-1995,1091,9767,8552,-40317,10995,0,0,0,136,182,65,135,119,108,379,381,132,364,360,30,0,,,,,,
2,1779205816320,2014,770,9748,28099,-45204,6108,0,0,0,169,160,182,175,107,202,375,316,203,341,300,86,0,,,,,,
1,1779205816336,-1995,1091,9763,8552,-39095,9773,0,0,0,134,180,61,134,116,103,377,380,126,363,359,27,0,,,,,,
2,1779205816336,2024,775,9743,25656,-46425,7330,0,0,0,172,160,187,174,107,200,376,312,205,346,299,90,0,,,,,,
1,1779205816352,-2005,1076,9758,6108,-36651,8552,0,0,0,135,181,61,135,116,101,377,381,125,362,359,24,0,,,,,,
2,1779205816352,2024,784,9748,25656,-46425,7330,0,0,0,171,159,188,174,106,202,387,319,204,344,298,97,0,,,,,,
1,1779205816368,-2014,1072,9748,2443,-34208,8552,0,0,0,135,182,63,134,118,101,375,379,124,363,360,24,0,,,,,,
2,1779205816368,2024,784,9758,31764,-47647,7330,0,0,0,171,158,190,174,105,200,384,315,200,343,295,110,0,,,,,,
1,1779205816384,-1995,1091,9729,0,-31764,8552,0,0,0,134,182,61,135,119,101,374,379,123,362,360,21,0,,,,,,
2,1779205816384,2024,770,9767,40317,-47647,6108,0,0,0,171,158,186,175,107,190,389,317,198,340,292,92,0,,,,,,
1,1779205816400,-1986,1115,9729,7330,-32986,9773,0,0,0,134,184,60,138,121,99,376,380,122,362,359,20,0,,,,,,
2,1779205816400,2014,760,9767,45204,-48869,4886,0,0,0,171,153,188,176,107,184,390,316,193,343,291,100,0,,,,,,
1,1779205816416,-1990,1119,9763,25656,-41538,13439,0,0,0,136,185,61,138,120,99,379,377,125,364,355,25,0,,,,,,
2,1779205816416,2024,756,9772,47647,-53756,3665,0,0,0,167,153,187,176,106,181,382,316,192,340,292,108,0,,,,,,
1,1779205816432,-1990,1091,9782,39095,-47647,14660,0,0,0,136,185,64,135,125,102,382,375,131,363,350,25,0,,,,,,
2,1779205816432,2033,756,9772,46425,-57421,3665,0,0,0,166,156,188,177,110,181,377,319,192,336,294,114,0,,,,,,
1,1779205816448,-1981,1048,9772,42760,-50090,15882,0,0,0,137,184,65,131,136,95,381,375,131,362,349,21,0,,,,,,
2,1779205816448,2019,756,9763,46425,-58643,3665,0,0,0,165,158,189,177,113,184,372,320,192,334,293,113,0,,,,,,
1,1779205816464,-1986,1038,9748,34208,-51312,14660,0,0,0,135,185,62,138,123,105,379,375,133,366,350,29,0,,,,,,
2,1779205816464,2005,760,9763,46425,-59864,3665,0,0,0,166,159,189,176,118,182,372,317,192,334,290,105,0,,,,,,
1,1779205816480,-1990,1048,9739,25656,-50090,14660,0,0,0,137,185,63,140,123,106,381,371,136,366,350,28,0,,,,,,
2,1779205816480,2000,760,9772,51312,-58643,2443,0,0,0,168,159,191,176,121,183,371,313,193,332,288,99,0,,,,,,
1,1779205816496,-1990,1052,9739,20769,-50090,13439,0,0,0,141,188,64,138,127,103,381,371,137,366,350,30,0,,,,,,
2,1779205816496,2000,741,9772,54977,-54977,2443,0,0,0,170,163,193,178,123,186,371,309,194,331,288,93,0,,,,,,
1,1779205816512,-1995,1052,9748,18325,-50090,13439,0,0,0,141,186,68,135,118,103,382,371,139,364,350,31,0,,,,,,
2,1779205816512,2000,727,9763,56199,-53756,2443,0,0,0,174,166,190,183,127,182,374,306,191,333,287,94,0,,,,,,
1,1779205816528,-1995,1057,9753,17104,-50090,12217,0,0,0,138,185,64,137,120,105,383,371,140,365,350,33,0,,,,,,
2,1779205816528,2000,727,9758,54977,-52534,2443,0,0,0,172,165,186,181,124,177,373,304,188,334,285,110,0,,,,,,
1,1779205816544,-1986,1052,9767,15882,-50090,12217,0,0,0,136,185,64,140,122,109,382,373,139,366,352,30,0,,,,,,
2,1779205816544,1995,727,9758,53756,-50090,2443,0,0,0,165,169,189,175,128,177,374,307,194,332,282,100,0,,,,,,
1,1779205816560,-1986,1048,9767,12217,-48869,12217,0,0,0,137,189,64,137,121,107,385,374,144,368,354,30,0,,,,,,
2,1779205816560,1995,717,9753,53756,-50090,2443,0,0,0,167,170,189,175,127,176,374,300,187,333,282,102,0,,,,,,
1,1779205816576,-1995,1048,9767,8552,-47647,12217,0,0,0,136,192,71,136,121,118,385,373,155,369,354,38,0,,,,,,
2,1779205816576,1995,708,9753,53756,-50090,2443,0,0,0,167,175,187,176,135,177,378,304,192,336,285,104,0,,,,,,
1,1779205816592,-2005,1057,9763,7330,-43982,12217,0,0,0,136,190,71,136,122,116,383,372,154,369,354,37,0,,,,,,
2,1779205816592,1995,708,9753,53756,-50090,2443,0,0,0,169,175,190,177,132,182,378,303,197,330,279,100,0,,,,,,
1,1779205816608,-2000,1072,9763,10995,-42760,12217,0,0,0,139,189,66,135,120,106,385,373,149,369,356,31,0,,,,,,
2,1779205816608,1990,708,9758,56199,-51312,2443,0,0,0,166,176,191,177,136,188,370,303,204,314,288,92,0,,,,,,
1,1779205816624,-1995,1067,9782,19547,-43982,13439,0,0,0,139,190,66,134,120,109,385,373,153,368,354,30,0,,,,,,
2,1779205816624,1995,708,9767,58643,-53756,1221,0,0,0,167,175,193,174,132,188,365,299,209,312,292,94,0,,,,,,
1,1779205816640,-1995,1048,9791,23212,-46425,14660,0,0,0,137,189,65,134,123,110,382,370,152,367,353,27,0,,,,,,
2,1779205816640,1995,693,9767,59864,-53756,1221,0,0,0,165,171,194,174,130,195,363,297,215,310,276,92,0,,,,,,
1,1779205816656,-1990,1024,9782,23212,-47647,13439,0,0,0,137,189,70,139,123,111,383,369,153,367,353,32,0,,,,,,
2,1779205816656,1995,689,9767,61086,-53756,2443,0,0,0,161,172,196,171,128,198,355,297,218,304,274,96,0,,,,,,
1,1779205816672,-1990,1019,9777,18325,-46425,12217,0,0,0,136,188,81,138,123,118,385,366,159,369,354,37,0,,,,,,
2,1779205816672,1995,684,9777,63529,-51312,1221,0,0,0,157,167,198,170,124,196,349,295,216,304,274,99,0,,,,,,
1,1779205816688,-1995,1019,9758,13439,-43982,12217,0,0,0,137,188,88,134,122,125,384,365,165,370,355,46,0,,,,,,
2,1779205816688,1995,679,9777,68416,-52534,0,0,0,0,155,160,214,167,119,204,346,291,225,302,273,109,0,,,,,,
1,1779205816704,-2000,1024,9753,10995,-41538,13439,0,0,0,138,188,95,134,122,127,384,365,169,368,353,39,0,,,,,,
2,1779205816704,1986,670,9772,70860,-53756,0,0,0,0,150,155,236,162,115,215,342,288,241,296,269,121,0,,,,,,
1,1779205816720,-1990,1028,9753,8552,-41538,13439,0,0,0,144,190,78,140,122,120,386,366,159,368,354,32,0,,,,,,
2,1779205816720,1971,646,9758,69638,-54977,0,0,0,0,144,154,244,157,114,219,341,290,249,293,267,125,0,,,,,,
1,1779205816736,-1986,1019,9767,3665,-45204,12217,0,0,0,146,192,74,139,124,119,387,369,158,367,353,28,0,,,,,,
2,1779205816736,1971,631,9753,65973,-54977,2443,0,0,0,143,156,246,155,115,225,340,295,251,288,269,127,0,,,,,,
1,1779205816752,-1986,1019,9772,0,-48869,10995,0,0,0,147,194,73,136,122,120,348,350,161,365,350,25,0,,,,,,
2,1779205816752,1976,626,9753,62308,-54977,3665,0,0,0,146,154,240,158,114,220,342,301,241,285,268,122,0,,,,,,
1,1779205816768,-1990,1024,9772,0,-51312,10995,0,0,0,141,192,70,139,125,121,375,366,157,366,356,31,0,,,,,,
2,1779205816768,1971,622,9767,61086,-56199,4886,0,0,0,151,153,245,157,111,220,341,297,239,286,269,122,0,,,,,,
1,1779205816784,-1995,1028,9763,-4886,-51312,10995,0,0,0,141,192,74,139,127,123,387,371,159,365,355,32,0,,,,,,
2,1779205816784,1971,622,9782,61086,-57421,4886,0,0,0,142,150,245,163,112,220,353,291,239,290,260,118,0,,,,,,
1,1779205816800,-1995,1009,9753,-15882,-45204,7330,0,0,0,143,196,73,140,127,120,388,374,160,366,359,31,0,,,,,,
2,1779205816800,1976,612,9786,61086,-58643,4886,0,0,0,148,150,245,163,109,219,348,290,239,295,265,126,0,,,,,,
1,1779205816816,-1990,995,9743,-35430,-40317,2443,0,0,0,145,198,79,138,125,120,388,372,158,363,366,32,0,,,,,,
2,1779205816816,1986,603,9786,62308,-61086,6108,0,0,0,147,149,244,161,106,220,336,290,240,286,261,127,0,,,,,,
1,1779205816832,-1981,995,9719,-65973,-36651,-1221,0,0,0,143,197,85,136,124,122,390,374,158,359,373,34,0,,,,,,
2,1779205816832,1981,593,9786,62308,-61086,6108,0,0,0,145,150,242,160,111,222,329,294,238,287,260,123,0,,,,,,
1,1779205816848,-1981,1043,9700,-89186,-34208,-3665,0,0,0,136,194,78,135,124,123,393,379,156,359,374,31,0,,,,,,
2,1779205816848,1971,583,9782,58643,-62308,7330,0,0,0,149,149,242,165,109,220,332,289,237,292,257,123,0,,,,,,
1,1779205816864,-1981,1095,9710,-95294,-32986,-4886,0,0,0,134,193,79,136,123,127,393,379,157,359,371,29,0,,,,,,
2,1779205816864,1957,569,9767,50090,-61086,9773,0,0,0,151,151,240,172,110,220,331,283,235,290,248,120,0,,,,,,
1,1779205816880,-1981,1129,9743,-83077,-30543,-2443,0,0,0,136,193,97,135,119,131,394,376,160,362,371,35,0,,,,,,
2,1779205816880,1962,617,9791,50090,-58643,9773,0,0,0,149,152,236,169,112,216,319,274,232,286,247,118,0,,,,,,
1,1779205816896,-1957,1124,9767,-65973,-31764,-2443,0,0,0,138,192,87,140,121,127,396,378,148,367,375,37,0,,,,,,
2,1779205816896,2014,660,9892,78190,-61086,3665,0,0,0,150,158,211,168,120,206,312,269,221,280,250,107,0,,,,,,
1,1779205816912,-1952,1119,9772,-59864,-36651,-4886,0,0,0,150,197,81,145,117,117,400,391,140,367,380,22,0,,,,,,
2,1779205816912,2053,641,9978,133168,-70860,-7330,0,0,0,174,170,175,170,124,198,311,258,211,271,238,99,0,,,,,,
1,1779205816928,-1952,1115,9753,-64751,-45204,-8552,0,0,0,146,199,78,145,121,117,396,405,133,363,390,30,0,,,,,,
2,1779205816928,2072,593,10021,188146,-80634,-23212,0,0,0,191,170,149,169,116,189,300,229,203,265,209,100,0,,,,,,
1,1779205816944,-1952,1134,9734,-67195,-52534,-8552,0,0,0,148,196,71,150,123,123,397,403,137,390,392,27,0,,,,,,
2,1779205816944,2110,550,10064,251676,-94073,-45204,0,0,0,158,152,122,172,118,176,280,212,185,250,190,88,0,,,,,,
1,1779205816960,-1952,1167,9715,-65973,-61086,-8552,0,0,0,139,196,68,148,130,127,386,415,139,392,400,23,0,,,,,,
2,1779205816960,2167,531,10155,316428,-119729,-74525,0,0,0,147,150,110,169,118,173,266,210,177,235,174,86,0,,,,,,
1,1779205816976,-1947,1177,9700,-62308,-64751,-8552,0,0,0,137,198,86,141,127,129,395,420,143,384,407,27,0,,,,,,
2,1779205816976,2225,526,10294,399505,-156381,-111177,0,0,0,136,136,92,172,115,166,268,166,165,244,139,78,0,,,,,,
1,1779205816992,-1943,1153,9672,-59864,-70860,-8552,0,0,0,137,198,87,142,126,133,408,425,154,403,413,28,0,,,,,,
2,1779205816992,2311,512,10538,518013,-207694,-155159,0,0,0,117,131,85,146,96,160,235,164,169,183,143,86,0,,,,,,
1,1779205817008,-1938,1148,9648,-64751,-81855,-9773,0,0,0,137,198,93,149,123,139,412,429,160,421,422,34,0,,,,,,
2,1779205817008,2569,492,10839,668286,-251676,-218689,0,0,0,92,107,80,113,84,149,185,132,143,163,113,84,0,,,,,,
1,1779205817024,-1938,1158,9643,-78190,-100181,-9773,0,0,0,138,196,104,153,120,141,416,433,161,432,432,42,0,,,,,,
2,1779205817024,2871,445,11500,877202,-218689,-351858,0,0,0,108,115,72,106,56,128,192,110,127,158,111,73,0,,,,,,
1,1779205817040,-1957,1196,9652,-97738,-114842,-12217,0,0,0,142,200,144,137,124,134,429,440,163,442,442,51,0,,,,,,
2,1779205817040,2670,421,12309,1098335,-171042,-469144,0,0,0,86,104,55,99,60,104,180,115,115,148,115,49,0,,,,,,
1,1779205817056,-1990,1225,9667,-111177,-123394,-13439,0,0,0,144,201,183,124,128,138,446,450,178,449,449,68,0,,,,,,
2,1779205817056,2708,378,12682,1356120,-190589,-531452,0,0,0,79,77,42,96,58,86,164,110,92,148,119,38,0,,,,,,
1,1779205817072,-2014,1263,9676,-118507,-129503,-10995,0,0,0,145,197,191,127,125,157,460,460,200,458,458,85,0,,,,,,
2,1779205817072,3206,306,12773,1626123,-229685,-610865,0,0,0,76,70,39,95,55,79,176,120,91,140,117,33,0,,,,,,
1,1779205817088,-2038,1306,9710,-117286,-135612,-6108,0,0,0,156,206,183,130,131,157,473,473,192,478,478,82,0,,,,,,
2,1779205817088,4024,224,12596,1854586,-235793,-756251,0,0,0,66,65,35,90,55,73,184,124,87,143,121,31,0,,,,,,
1,1779205817104,-2072,1340,9772,-103847,-135612,0,0,0,0,177,221,174,142,147,145,489,489,156,499,499,62,0,,,,,,
2,1779205817104,5092,344,11916,2003637,-141720,-1015258,0,0,0,57,55,28,86,49,65,182,121,79,149,122,29,0,,,,,,
1,1779205817120,-2110,1359,9830,-86742,-130725,0,0,0,0,185,220,199,144,145,162,501,501,157,512,512,61,0,,,,,,
2,1779205817120,5881,631,10906,2009746,69638,-1447750,0,0,0,49,43,23,73,38,53,190,124,82,144,120,26,0,,,,,,
1,1779205817136,-2153,1383,9873,-57421,-118507,4886,0,0,0,175,220,247,135,146,173,508,508,179,521,521,79,0,,,,,,
2,1779205817136,6269,1981,9825,1879021,289550,-1926668,0,0,0,42,34,33,57,29,61,196,129,103,135,121,33,0,,,,,,
1,1779205817152,-2172,1421,9892,-18325,-103847,13439,0,0,0,173,226,222,146,153,150,528,528,176,534,534,88,0,,,,,,
2,1779205817152,5044,6211,9361,1436755,353080,-2375044,0,0,0,39,32,45,54,25,86,195,132,125,136,123,48,0,,,,,,
1,1779205817168,-2177,1440,9882,28099,-89186,23212,0,0,0,175,222,234,139,146,151,534,534,175,531,531,73,0,,,,,,
2,1779205817168,3129,10662,9054,503352,-346971,-2301740,0,0,0,38,33,36,56,27,79,200,136,119,143,121,40,0,,,,,,
1,1779205817184,-2167,1416,9849,75747,-75747,32986,0,0,0,182,232,230,148,156,146,502,502,158,515,515,75,0,,,,,,
2,1779205817184,4364,11596,7307,-310319,-877202,-1859473,0,0,0,43,33,24,61,33,45,200,133,87,151,125,19,0,,,,,,
1,1779205817200,-2148,1373,9801,113620,-68416,41538,0,0,0,190,234,235,148,154,145,520,520,157,517,517,57,0,,,,,,
2,1779205817200,6341,10567,5599,-882089,-530231,-1336573,0,0,0,42,39,26,64,31,39,198,135,87,144,127,23,0,,,,,,
1,1779205817216,-2134,1335,9772,142942,-62308,46425,0,0,0,191,237,258,142,157,163,515,515,173,516,516,75,0,,,,,,
2,1779205817216,6594,9820,5393,-1233947,149051,-868650,0,0,0,39,39,26,67,36,48,198,135,87,150,127,20,0,,,,,,
1,1779205817232,-2120,1296,9753,162490,-58643,48869,0,0,0,178,242,243,141,166,173,498,498,192,502,502,88,0,,,,,,
2,1779205817232,5570,9719,6441,-1532050,662177,-392175,0,0,0,41,43,26,64,35,46,204,138,86,149,133,25,0,,,,,,
1,1779205817248,-2110,1239,9719,163711,-53756,47647,0,0,0,176,259,222,143,178,186,482,482,213,491,491,110,0,,,,,,
2,1779205817248,4953,9179,7360,-1904677,890641,64751,0,0,0,45,44,27,70,38,48,203,135,79,151,136,20,0,,,,,,
1,1779205817264,-2110,1191,9672,153938,-45204,45204,0,0,0,178,259,244,154,176,200,473,473,222,480,480,131,0,,,,,,
2,1779205817264,4484,8222,8226,-2224771,1086118,415388,0,0,0,46,46,30,69,39,54,201,136,89,150,139,21,0,,,,,,
1,1779205817280,-2120,1143,9638,135612,-31764,41538,0,0,0,176,254,276,154,169,210,470,470,231,473,473,144,0,,,,,,
2,1779205817280,3881,7260,9356,-2449569,1246165,636521,0,0,0,50,47,33,70,41,54,200,134,86,157,137,21,0,,,,,,
1,1779205817296,-2105,1119,9638,113620,-23212,39095,0,0,0,182,267,290,143,167,213,471,471,239,473,473,152,0,,,,,,
2,1779205817296,3302,6508,10504,-2618168,1288925,817337,0,0,0,55,44,30,76,42,54,206,132,85,161,134,21,0,,,,,,
1,1779205817312,-2072,1115,9643,90408,-24434,37873,0,0,0,212,285,289,143,168,214,473,473,228,480,480,153,0,,,,,,
2,1779205817312,2847,5470,11682,-2783102,1303586,1062905,0,0,0,56,46,32,78,42,52,209,134,89,161,136,23,0,,,,,,
1,1779205817328,-2048,1119,9652,68416,-32986,35430,0,0,0,237,289,273,155,171,217,472,472,212,483,483,151,0,,,,,,
2,1779205817328,2598,4307,12639,-2868623,1318247,1321912,0,0,0,56,47,35,79,41,52,211,136,89,159,136,23,0,,,,,,
1,1779205817344,-2067,1129,9681,56199,-45204,34208,0,0,0,195,280,284,166,174,222,472,472,215,473,473,144,0,,,,,,
2,1779205817344,2378,3192,13496,-2905275,1304808,1568701,0,0,0,56,45,35,80,41,54,214,135,91,158,134,25,0,,,,,,
1,1779205817360,-2086,1139,9729,59864,-52534,35430,0,0,0,185,279,302,174,180,221,468,468,219,460,460,124,0,,,,,,
2,1779205817360,2258,2096,14103,-2937040,1231504,1758070,0,0,0,55,46,37,78,43,57,212,137,94,159,135,29,0,,,,,,
1,1779205817376,-2100,1139,9772,74525,-54977,39095,0,0,0,193,284,296,175,185,209,468,468,232,456,456,115,0,,,,,,
2,1779205817376,2301,961,14237,-2926044,1099557,1819156,0,0,0,55,49,38,77,46,57,210,139,91,159,137,27,0,,,,,,
1,1779205817392,-2105,1139,9801,101403,-57421,45204,0,0,0,197,300,265,180,192,212,464,464,200,449,449,82,0,,,,,,
2,1779205817392,2493,-320,13998,-2823419,943175,1776396,0,0,0,57,52,42,79,46,57,214,145,91,159,136,26,0,,,,,,
1,1779205817408,-2105,1158,9830,138055,-62308,52534,0,0,0,210,303,258,174,186,209,457,457,229,444,444,84,0,,,,,,
2,1779205817408,2732,-1976,13433,-2586403,813672,1671327,0,0,0,57,48,43,77,40,57,211,143,93,165,136,26,0,,,,,,
1,1779205817424,-2115,1139,9858,189368,-68416,61086,0,0,0,203,325,247,191,165,225,451,449,226,440,440,118,0,,,,,,
2,1779205817424,2742,-3670,12859,-2309070,737925,1539380,0,0,0,61,55,44,80,46,60,214,151,93,159,138,26,0,,,,,,
1,1779205817440,-2134,1100,9877,233350,-73303,69638,0,0,0,203,290,277,215,155,251,447,410,264,427,408,102,0,,,,,,
2,1779205817440,2397,-5422,12438,-1964542,681725,1354899,0,0,0,65,63,43,80,46,59,213,153,88,164,144,29,0,,,,,,
1,1779205817456,-2144,1062,9887,287106,-79412,81855,0,0,0,227,293,261,254,143,265,435,340,271,410,339,100,0,,,,,,
2,1779205817456,1947,-7446,12017,-1534493,570548,1137431,0,0,0,58,97,33,81,73,57,211,163,84,162,149,24,0,,,,,,
1,1779205817472,-2148,1009,9901,339641,-86742,92851,0,0,0,243,337,273,255,174,260,421,271,272,394,253,104,0,,,,,,
2,1779205817472,1670,-9681,11380,-1018923,416610,868650,0,0,0,65,66,37,82,49,55,214,152,86,162,140,24,0,,,,,,
1,1779205817488,-2148,957,9935,393397,-95294,96516,0,0,0,258,360,281,296,188,253,413,213,283,386,202,109,0,,,,,,
2,1779205817488,1445,-11184,10643,-423940,260228,518013,0,0,0,68,56,40,83,44,58,217,146,89,162,138,27,0,,,,,,
1,1779205817504,-2148,894,10021,476474,-122173,102625,0,0,0,258,354,266,314,190,277,406,164,276,354,174,125,0,,,,,,
2,1779205817504,1105,-11605,10117,146607,105068,195476,0,0,0,67,53,41,83,44,60,216,141,91,165,134,28,0,,,,,,
1,1779205817520,-2182,827,10122,566882,-153938,113620,0,0,0,258,357,227,317,198,274,398,135,257,329,154,147,0,,,,,,
2,1779205817520,847,-10949,9815,697608,-50090,-10995,0,0,0,51,59,35,77,54,64,201,156,93,149,142,28,0,,,,,,
1,1779205817536,-2215,741,10251,667064,-188146,127059,0,0,0,247,376,222,341,208,294,384,130,262,293,141,189,0,,,,,,
2,1779205817536,167,-9796,10758,1189965,-208915,-15882,0,0,0,33,56,20,70,58,60,194,185,87,134,164,22,0,,,,,,
1,1779205817552,-2254,655,10490,791681,-244346,142942,0,0,0,219,385,226,340,235,355,350,130,316,231,122,243,0,,,,,,
2,1779205817552,-33,-3914,11926,1899790,-829554,288328,0,0,0,25,43,9,64,52,46,200,216,76,134,204,14,0,,,,,,
1,1779205817568,-2321,579,10815,940732,-301767,168598,0,0,0,200,370,151,306,271,363,322,123,378,192,98,262,0,,,,,,
2,1779205817568,1804,5326,10227,2415361,-1386664,598647,0,0,0,26,38,8,65,47,39,225,247,77,161,249,15,0,,,,,,
1,1779205817584,-2474,454,11241,1132544,-321315,202807,0,0,0,178,348,116,341,227,375,343,128,362,182,102,238,0,,,,,,
2,1779205817584,1387,5537,9547,2463008,-1347568,470366,0,0,0,41,49,10,73,44,39,265,289,81,209,289,20,0,,,,,,
1,1779205817600,-2818,344,11615,1345125,-320093,249233,0,0,0,177,344,104,321,211,348,273,112,355,168,71,224,0,,,,,,
2,1779205817600,177,2713,11103,2581516,-1154535,73303,0,0,0,47,65,16,64,54,37,252,351,67,212,349,22,0,,,,,,
1,1779205817616,-3211,224,11983,1611462,-315206,344527,0,0,0,185,336,89,333,204,367,396,104,306,168,75,192,0,,,,,,
2,1779205817616,387,894,13299,2660928,-884532,-329867,0,0,0,35,60,13,60,61,40,214,351,69,206,381,21,0,,,,,,
1,1779205817632,-3321,201,12390,1899790,-250454,456927,0,0,0,173,366,71,343,241,356,203,89,321,185,106,228,0,,,,,,
2,1779205817632,2024,1239,13898,2576629,-559552,-448375,0,0,0,43,61,18,67,55,44,226,362,67,240,393,24,0,,,,,,
1,1779205817648,-3230,201,12811,2230879,-73303,543670,0,0,0,173,348,65,320,271,294,172,110,306,142,111,201,0,,,,,,
2,1779205817648,2833,1521,13424,2269975,-348193,-280998,0,0,0,41,64,32,67,52,49,250,367,65,279,415,30,0,,,,,,
1,1779205817664,-3450,28,13318,2604729,149051,612086,0,0,0,150,303,68,327,226,306,161,106,269,132,91,176,0,,,,,,
2,1779205817664,2636,1153,12342,1799608,-353080,-114842,0,0,0,74,71,67,79,52,61,311,395,75,342,415,42,0,,,,,,
1,1779205817680,-4182,-124,14161,3065321,366519,748920,0,0,0,145,283,75,260,188,306,158,92,250,95,66,126,0,,,,,,
2,1779205817680,2239,818,11012,1331686,-422718,-35430,0,0,0,101,77,68,98,53,64,368,420,59,385,432,30,0,,,,,,
1,1779205817696,-4838,-14,15156,3510031,572991,932180,0,0,0,132,248,74,188,173,276,148,121,243,88,72,116,0,,,,,,
2,1779205817696,2120,583,10260,866206,-404392,12217,0,0,0,114,82,73,97,48,69,409,441,72,465,476,33,0,,,,,,
1,1779205817712,-5360,-387,16621,4001167,823446,1147204,0,0,0,114,222,82,145,153,232,139,127,200,75,82,92,0,,,,,,
2,1779205817712,2014,287,10160,354301,-356745,54977,0,0,0,137,90,103,101,48,84,446,467,90,504,504,47,0,,,,,,
1,1779205817728,-6025,-708,18099,4489859,1040914,1359786,0,0,0,90,180,67,116,117,173,271,98,158,55,55,57,0,,,,,,
2,1779205817728,1813,483,10160,-26878,-293215,63529,0,0,0,160,90,119,123,50,96,489,496,94,530,530,60,0,,,,,,
1,1779205817744,-6389,-330,19186,4963890,1191187,1600466,0,0,0,65,130,43,93,86,124,251,77,118,45,39,34,0,,,,,,
2,1779205817744,1780,909,10102,-189368,-218689,54977,0,0,0,176,93,142,147,57,105,521,521,94,551,551,74,0,,,,,,
1,1779205817760,-5585,-215,19684,5374392,1317025,1781283,0,0,0,48,84,33,69,61,109,110,76,92,56,48,36,0,,,,,,
2,1779205817760,1847,1258,10136,-146607,-130725,36651,0,0,0,178,95,168,151,61,106,540,540,107,567,567,82,0,,,,,,
1,1779205817776,-5570,90,19420,5761680,1299921,1892460,0,0,0,36,45,38,49,44,104,119,74,83,77,53,40,0,,,,,,
2,1779205817776,1876,1344,10131,-15882,-46425,18325,0,0,0,169,95,181,143,57,104,551,551,115,583,583,68,0,,,,,,
1,1779205817792,-5752,746,17630,5953492,1419650,1991420,0,0,0,31,44,50,46,47,76,228,86,63,95,70,26,0,,,,,,
2,1779205817792,1890,1306,10016,85521,7330,7330,0,0,0,166,98,182,142,61,119,556,556,115,593,593,64,0,,,,,,
1,1779205817808,-6298,1167,13673,5877745,1965764,2028072,0,0,0,37,70,42,43,48,59,434,99,60,109,89,23,0,,,,,,
2,1779205817808,1923,1234,9897,141720,36651,3665,0,0,0,164,94,159,140,65,130,562,562,128,597,597,85,0,,,,,,
1,1779205817824,-8796,4039,9743,5406157,2258979,2043955,0,0,0,38,62,38,45,47,64,466,93,58,84,95,32,0,,,,,,
2,1779205817824,1947,1182,9844,158824,53756,1221,0,0,0,192,115,139,156,66,106,565,565,99,602,602,67,0,,,,,,
1,1779205817840,-10753,10729,8097,3830125,1440420,1755626,0,0,0,46,65,24,49,47,54,470,93,44,90,92,22,0,,,,,,
2,1779205817840,1995,1148,9815,164933,67195,-1221,0,0,0,182,138,145,154,80,123,563,563,111,593,593,54,0,,,,,,
1,1779205817856,-8413,15199,8145,1049466,278554,836885,0,0,0,42,68,24,50,49,64,472,97,47,70,80,12,0,,,,,,
2,1779205817856,2062,1134,9825,169820,64751,-9773,0,0,0,182,127,139,163,84,115,557,557,107,594,594,63,0,,,,,,
1,1779205817872,-5206,13156,7437,-1695761,92851,-478918,0,0,0,42,71,24,45,49,58,473,102,51,64,80,15,0,,,,,,
2,1779205817872,2077,1143,9873,183259,51312,-24434,0,0,0,191,126,167,166,82,146,544,544,153,583,583,111,0,,,,,,
1,1779205817888,-6336,7188,5422,-2790432,427605,-1183856,0,0,0,38,73,23,45,51,56,474,101,44,71,93,19,0,,,,,,
2,1779205817888,2067,1148,9877,206472,40317,-36651,0,0,0,189,131,200,155,75,184,529,510,182,568,568,121,0,,,,,,
1,1779205817904,-7748,4225,4364,-2862514,13439,-1044579,0,0,0,39,71,20,47,52,54,473,96,38,75,98,23,0,,,,,,
2,1779205817904,2062,1110,9830,233350,24434,-41538,0,0,0,205,149,187,166,85,160,514,435,170,557,557,107,0,,,,,,
1,1779205817920,-6484,3967,5111,-2841745,-678060,-631634,0,0,0,39,72,22,42,52,51,478,98,44,60,87,8,0,,,,,,
2,1779205817920,2048,1043,9758,245567,3665,-41538,0,0,0,199,145,185,162,81,155,494,399,179,535,535,100,0,,,,,,
1,1779205817936,-4972,4182,6326,-3045774,-819781,-530231,0,0,0,42,73,25,45,53,53,477,100,48,61,86,10,0,,,,,,
2,1779205817936,2014,985,9715,234572,-3665,-40317,0,0,0,190,131,209,165,79,182,482,379,205,515,515,114,0,,,,,,
1,1779205817952,-4642,4264,7422,-3403741,-702495,-719599,0,0,0,44,74,26,47,55,55,472,103,50,67,82,12,0,,,,,,
2,1779205817952,2019,952,9696,219911,-6108,-39095,0,0,0,189,124,213,170,83,188,474,350,208,505,505,131,0,,,,,,
1,1779205817968,-4977,4278,8523,-3850894,-831998,-1028697,0,0,0,42,75,27,49,56,58,472,103,52,66,83,16,0,,,,,,
2,1779205817968,2053,923,9696,207694,-14660,-37873,0,0,0,192,128,210,174,86,177,472,342,197,496,484,131,0,,,,,,
1,1779205817984,-4982,4216,9983,-4439768,-1213178,-1361007,0,0,0,49,77,35,52,55,60,468,107,56,79,93,21,0,,,,,,
2,1779205817984,2067,904,9719,201585,-28099,-37873,0,0,0,193,139,212,172,86,176,469,330,206,478,438,122,0,,,,,,
1,1779205818000,-4824,3479,11648,-5071403,-1555262,-1595580,0,0,0,49,76,35,53,55,60,469,109,60,93,102,25,0,,,,,,
2,1779205818000,2072,899,9753,208915,-42760,-39095,0,0,0,194,148,206,167,91,180,456,299,223,457,392,116,0,,,,,,
1,1779205818016,-4594,2086,13141,-5354844,-1737300,-1485624,0,0,0,39,73,28,54,56,62,472,105,57,94,105,24,0,,,,,,
2,1779205818016,2077,885,9777,228463,-53756,-39095,0,0,0,196,148,212,175,97,176,444,290,224,441,375,113,0,,,,,,
1,1779205818032,-4158,890,14730,-5417152,-1880243,-1203404,0,0,0,40,71,31,51,55,60,467,107,54,92,100,20,0,,,,,,
2,1779205818032,2048,832,9777,248011,-57421,-39095,0,0,0,190,142,240,187,95,193,436,283,247,425,355,118,0,,,,,,
1,1779205818048,-3531,181,16530,-5341405,-1937664,-847880,0,0,0,42,71,30,53,58,61,477,99,52,77,94,25,0,,,,,,
2,1779205818048,2029,780,9767,259006,-58643,-39095,0,0,0,210,166,210,203,105,189,430,274,234,412,315,97,0,,,,,,
1,1779205818064,-3278,-4,18009,-5303532,-1870469,-707381,0,0,0,42,71,25,54,58,57,475,95,39,80,93,25,0,,,,,,
2,1779205818064,2038,737,9810,272445,-53756,-41538,0,0,0,218,175,240,211,112,193,427,232,248,399,255,112,0,,,,,,
1,1779205818080,-3795,-234,19258,-5261993,-1792278,-866206,0,0,0,42,73,29,51,56,60,479,98,52,82,96,30,0,,,,,,
2,1779205818080,2091,732,9906,300545,-51312,-50090,0,0,0,196,170,261,198,123,217,427,275,254,369,249,112,0,,,,,,
1,1779205818096,-4446,-760,20258,-5152037,-1831373,-1191187,0,0,0,47,73,33,54,56,61,474,100,52,82,94,28,0,,,,,,
2,1779205818096,2148,713,9987,350636,-51312,-65973,0,0,0,223,202,244,213,145,217,417,242,252,347,225,141,0,,,,,,
1,1779205818112,-4977,-1799,21584,-4966334,-2013411,-1646892,0,0,0,43,73,29,52,56,57,477,111,52,78,91,23,0,,,,,,
2,1779205818112,2134,660,10002,416610,-54977,-87964,0,0,0,199,238,277,217,166,271,393,202,289,320,203,158,0,,,,,,
1,1779205818128,-4895,-3843,23536,-4860043,-2304183,-2069611,0,0,0,42,73,28,52,57,57,478,105,53,66,81,13,0,,,,,,
2,1779205818128,2086,579,9964,476474,-48869,-107512,0,0,0,222,238,274,241,167,287,410,182,307,312,191,175,0,,,,,,
1,1779205818144,-4355,-7193,24938,-4919908,-2390926,-2276083,0,0,0,44,70,24,54,55,58,480,104,54,70,77,9,0,,,,,,
2,1779205818144,2081,497,9968,541226,-21991,-124616,0,0,0,228,261,230,278,196,267,395,186,294,245,158,160,0,,,,,,
1,1779205818160,-4206,-12108,24326,-5002986,-2134363,-2054950,0,0,0,45,70,27,52,50,55,473,104,51,84,79,9,0,,,,,,
2,1779205818160,2234,430,10174,624304,7330,-146607,0,0,0,221,289,209,305,238,285,380,175,297,203,138,154,0,,,,,,
1,1779205818176,-3632,-19028,20808,-4724431,-1854586,-1108109,0,0,0,46,69,26,56,49,57,476,104,51,91,80,17,0,,,,,,
2,1779205818176,2388,339,10500,752585,25656,-185703,0,0,0,221,305,201,310,252,303,367,166,297,182,128,166,0,,,,,,
1,1779205818192,-339,-24871,17071,-4017049,-1781283,40317,0,0,0,45,71,26,56,53,61,481,106,55,80,76,15,0,,,,,,
2,1779205818192,2349,253,10844,945619,15882,-243124,0,0,0,217,306,171,314,275,311,336,168,288,174,138,189,0,,,,,,
1,1779205818208,5881,-28920,14261,-2811201,-1547932,1016479,0,0,0,45,73,28,53,56,62,482,108,59,68,73,10,0,,,,,,
2,1779205818208,2163,177,11150,1175304,36651,-279776,0,0,0,206,295,141,320,299,328,290,149,290,178,140,218,0,,,,,,
1,1779205818224,10519,-30485,13132,-1468520,-833220,1403768,0,0,0,44,76,28,53,57,60,481,110,58,73,82,15,0,,,,,,
2,1779205818224,2139,95,11495,1413542,105068,-306654,0,0,0,215,290,144,320,265,346,253,111,312,179,103,233,0,,,,,,
1,1779205818240,9877,-28662,13156,-133168,237015,1317025,0,0,0,48,71,25,58,54,55,450,113,56,78,90,17,0,,,,,,
2,1779205818240,2421,-76,11816,1693318,171042,-348193,0,0,0,242,288,138,343,256,360,231,104,321,186,96,229,0,,,,,,
1,1779205818256,6278,-24393,13749,1028697,1073901,1081231,0,0,0,54,47,20,64,42,51,338,139,64,81,98,5,0,,,,,,
2,1779205818256,2837,-253,12155,2002416,161268,-423940,0,0,0,272,276,132,342,257,350,230,117,293,175,98,231,0,,,,,,
1,1779205818272,765,-11294,15769,2004859,1671327,592539,0,0,0,38,37,18,52,45,66,194,225,81,117,169,15,0,,,,,,
2,1779205818272,3038,-368,12586,2370157,75747,-540004,0,0,0,262,254,137,318,199,362,223,120,321,139,99,252,0,,,,,,
1,1779205818288,-5623,13974,13630,2114815,2602285,-504574,0,0,0,24,27,12,40,36,51,232,334,78,154,273,12,0,,,,,,
2,1779205818288,3096,-540,13194,2784323,-18325,-660956,0,0,0,268,265,131,300,232,360,183,128,327,130,112,267,0,,,,,,
1,1779205818304,-5283,18291,8011,2174680,3500257,-1306029,0,0,0,35,46,3,48,52,42,254,384,48,188,369,4,0,,,,,,
2,1779205818304,3512,-670,14252,3258355,-76969,-788016,0,0,0,280,257,145,297,158,378,190,72,341,108,48,216,0,,,,,,
1,1779205818320,1273,4268,8475,3434284,3510031,-1153313,0,0,0,74,65,14,77,37,53,375,420,48,307,405,14,0,,,,,,
2,1779205818320,4776,-588,15860,3932750,-166155,-1022588,0,0,0,238,247,161,278,195,323,175,98,330,118,68,195,0,,,,,,
1,1779205818336,3962,-1517,17075,4179539,2047620,-237015,0,0,0,77,51,22,78,34,44,465,469,53,413,452,5,0,,,,,,
2,1779205818336,5738,-660,17822,4640132,-311541,-1326799,0,0,0,190,261,139,226,192,314,157,97,330,78,57,158,0,,,,,,
1,1779205818352,1091,-421,21225,3532022,1016479,439822,0,0,0,102,52,24,98,43,47,478,478,49,454,465,8,0,,,,,,
2,1779205818352,5991,-942,20669,5414709,-467922,-1628566,0,0,0,156,203,114,195,143,270,149,76,287,64,38,120,0,,,,,,
1,1779205818368,-3048,952,19382,2140471,448375,438601,0,0,0,114,55,26,99,40,49,479,479,56,460,462,3,0,,,,,,
2,1779205818368,5833,-526,23924,6202725,-521678,-1798387,0,0,0,125,144,75,159,105,178,148,77,209,62,35,83,0,,,,,,
1,1779205818384,-2924,521,13950,994488,56199,-35430,0,0,0,112,62,31,96,34,50,483,483,68,465,470,8,0,,,,,,
2,1779205818384,5886,-76,26015,6895446,-389732,-1904677,0,0,0,91,95,51,127,69,116,153,75,149,66,34,53,0,,,,,,
1,1779205818400,-1919,684,10208,474031,-173485,-204028,0,0,0,119,76,56,92,40,106,486,486,93,471,473,23,0,,,,,,
2,1779205818400,6073,177,26757,7433008,-8552,-2059837,0,0,0,57,56,39,89,48,80,152,78,108,58,34,35,0,,,,,,
1,1779205818416,-1938,1249,9155,342084,-195476,-102625,0,0,0,123,103,73,92,57,137,497,497,121,479,479,34,0,,,,,,
2,1779205818416,7092,1162,25403,7778757,335975,-2269975,0,0,0,45,38,34,63,42,58,151,96,86,52,45,26,0,,,,,,
1,1779205818432,-2464,1268,9585,239459,-79412,-41538,0,0,0,127,121,90,99,67,111,505,505,126,485,485,34,0,,,,,,
2,1779205818432,8915,4139,18913,7735997,394618,-2564412,0,0,0,45,37,49,66,35,75,150,109,104,60,62,33,0,,,,,,
1,1779205818448,-2550,1273,9877,141720,36651,-23212,0,0,0,130,119,134,107,69,111,505,505,145,484,484,44,0,,,,,,
2,1779205818448,9849,9121,10461,6888116,262672,-3010343,0,0,0,38,41,58,62,40,85,139,114,116,64,78,49,0,,,,,,
1,1779205818464,-2191,1411,9997,128281,87964,0,0,0,0,125,119,155,117,79,142,500,500,182,478,478,64,0,,,,,,
2,1779205818464,6762,16563,8968,3539353,54977,-2725680,0,0,0,41,42,43,66,40,66,148,105,84,78,92,28,0,,,,,,
1,1779205818480,-1885,1526,10059,205250,31764,29321,0,0,0,121,126,135,128,86,144,485,485,180,462,462,63,0,,,,,,
2,1779205818480,3072,19186,10768,-1094670,-543670,-1382998,0,0,0,32,39,91,55,31,102,141,101,130,74,80,61,0,,,,,,
1,1779205818496,-2024,1493,10107,298102,-73303,43982,0,0,0,122,126,162,128,68,185,470,470,199,439,439,58,0,,,,,,
2,1779205818496,2196,12936,11155,-4784296,-1657888,305432,0,0,0,41,49,35,62,42,57,141,114,82,69,90,23,0,,,,,,
1,1779205818512,-2201,1435,10083,375071,-117286,52534,0,0,0,129,129,131,140,70,183,456,456,185,423,421,42,0,,,,,,
2,1779205818512,4685,5910,7418,-5059185,-2219884,687834,0,0,0,43,49,35,65,44,57,147,121,82,69,87,24,0,,,,,,
1,1779205818528,-2244,1335,9935,432492,-112399,61086,0,0,0,134,108,114,155,63,198,449,449,191,403,388,46,0,,,,,,
2,1779205818528,7374,2981,3795,-4515515,-1907121,386066,0,0,0,40,50,36,61,44,61,144,119,90,76,88,29,0,,,,,,
1,1779205818544,-2263,1210,9705,430049,-95294,65973,0,0,0,142,108,116,161,65,208,449,449,233,395,354,46,0,,,,,,
2,1779205818544,7925,4446,3876,-4520402,-744033,-64751,0,0,0,47,51,40,74,44,67,157,121,87,80,87,30,0,,,,,,
1,1779205818560,-2306,1100,9552,387288,-75747,74525,0,0,0,142,129,127,153,89,206,442,442,194,341,347,46,0,,,,,,
2,1779205818560,6575,5546,5924,-4982216,124616,-205250,0,0,0,52,54,45,75,47,68,163,123,92,79,85,28,0,,,,,,
1,1779205818576,-2297,1000,9528,316428,-48869,89186,0,0,0,145,135,110,163,93,190,439,439,183,322,336,52,0,,,,,,
2,1779205818576,4752,5331,8303,-5470909,294437,65973,0,0,0,48,56,53,70,49,74,159,124,96,73,86,31,0,,,,,,
1,1779205818592,-2234,985,9609,272445,-30543,95294,0,0,0,136,127,110,150,94,184,433,424,187,312,321,53,0,,,,,,
2,1779205818592,5106,4388,8992,-5632177,160046,546113,0,0,0,47,58,47,76,54,74,164,128,95,75,88,32,0,,,,,,
1,1779205818608,-2225,1019,9705,252898,-17104,96516,0,0,0,126,132,115,159,88,196,428,394,212,307,307,57,0,,,,,,
2,1779205818608,6666,3670,9236,-5660277,615752,966388,0,0,0,45,56,41,77,53,75,163,129,96,76,90,32,0,,,,,,
1,1779205818624,-2234,1014,9739,251676,1221,94073,0,0,0,130,125,111,167,79,208,423,376,218,290,286,65,0,,,,,,
2,1779205818624,6810,3464,10476,-5703037,1297477,1226617,0,0,0,41,53,61,69,45,91,156,125,117,73,88,45,0,,,,,,
1,1779205818640,-2206,938,9700,248011,12217,89186,0,0,0,144,121,126,189,78,222,415,329,226,271,244,82,0,,,,,,
2,1779205818640,5991,3464,12505,-5765346,1755626,1458746,0,0,0,39,48,93,65,40,112,155,121,143,72,85,65,0,,,,,,
1,1779205818656,-2167,885,9686,246789,9773,84299,0,0,0,155,132,128,208,82,226,411,295,238,260,207,90,0,,,,,,
2,1779205818656,5647,3359,14725,-5854532,1872912,1699427,0,0,0,39,45,105,66,39,123,155,118,152,74,85,73,0,,,,,,
1,1779205818672,-2100,847,9734,254119,-4886,81855,0,0,0,155,144,121,210,88,227,407,265,239,259,177,96,0,,,,,,
2,1779205818672,5848,3235,17075,-5980370,1932777,1872912,0,0,0,43,48,103,66,38,118,159,118,147,78,84,68,0,,,,,,
1,1779205818688,-2048,813,9810,273667,-34208,80634,0,0,0,143,161,122,204,98,228,402,227,240,265,153,106,0,,,,,,
2,1779205818688,6393,3067,20162,-6190508,1981646,2004859,0,0,0,50,53,65,74,48,80,168,125,104,83,87,33,0,,,,,,
1,1779205818704,-2129,760,9830,305432,-74525,87964,0,0,0,135,176,114,189,111,217,404,215,245,262,147,112,0,,,,,,
2,1779205818704,7111,2747,23488,-6426302,2024407,2153910,0,0,0,54,57,43,77,52,68,168,126,95,81,90,28,0,,,,,,
1,1779205818720,-2282,727,9830,348193,-98960,111177,0,0,0,138,166,101,179,112,199,405,208,249,240,147,124,0,,,,,,
2,1779205818720,8260,1727,27432,-6648657,2064724,2422691,0,0,0,59,50,40,83,44,68,173,124,100,85,88,28,0,,,,,,
1,1779205818736,-2383,684,9830,405614,-103847,153938,0,0,0,125,189,104,175,112,213,409,198,283,223,159,146,0,,,,,,
2,1779205818736,9820,-2096,30002,-6698748,2205223,2877175,0,0,0,61,52,44,89,45,79,179,124,103,80,74,33,0,,,,,,
1,1779205818752,-2378,641,9916,467922,-105068,199142,0,0,0,137,208,105,210,113,239,379,169,284,191,122,147,0,,,,,,
2,1779205818752,9959,-8791,30705,-6462954,2662150,3186273,0,0,0,55,53,40,86,46,64,188,120,92,88,72,24,0,,,,,,
1,1779205818768,-2464,598,10054,553443,-118507,245567,0,0,0,144,230,121,207,140,253,338,185,333,150,117,165,0,,,,,,
2,1779205818768,7001,-19765,30375,-5678603,3119077,3006678,0,0,0,62,49,29,96,45,59,204,125,91,100,79,23,0,,,,,,
1,1779205818784,-2613,536,10232,669508,-146607,298102,0,0,0,142,251,136,239,163,321,351,139,382,135,80,201,0,,,,,,
2,1779205818784,2660,-30452,26795,-4505742,2527760,2069611,0,0,0,67,46,28,101,41,60,215,123,97,103,76,22,0,,,,,,
1,1779205818800,-2627,536,10734,840550,-177150,342084,0,0,0,175,257,107,263,166,370,317,140,395,134,77,251,0,,x,,,,
2,1779205818800,-2029,-37779,19794,-2987131,1628566,326202,0,0,0,64,45,30,102,41,63,217,120,99,104,77,24,0,,x,,,,
1,1779205818816,-2440,449,11418,1103222,-182037,368962,0,0,0,148,245,114,256,160,401,319,111,411,130,74,267,0,,,,,,
2,1779205818816,-6848,-41148,15793,-1546710,970053,-1420872,0,0,0,62,47,37,98,42,69,210,120,100,101,77,26,0,,,,,,
1,1779205818832,-1990,263,11959,1403768,-193033,354301,0,0,0,154,290,98,298,171,416,305,112,412,119,86,272,0,,,,,,
2,1779205818832,-8413,-40167,16022,-294437,112399,-2332283,0,0,0,58,61,36,89,55,66,191,154,99,99,84,26,0,,,,,,
1,1779205818848,-2196,162,12457,1732413,-263893,311541,0,0,0,158,295,81,339,217,429,251,108,401,145,96,283,0,,,,,,
2,1779205818848,-6776,-33419,17463,1081231,-833220,-2493551,0,0,0,51,60,21,81,56,50,187,188,85,125,138,21,0,,,,,,
1,1779205818864,-3086,138,13031,2103819,-299323,354301,0,0,0,142,316,81,357,240,437,219,105,394,146,99,280,0,,,,,,
2,1779205818864,-1608,-8408,20966,2470339,-2081828,-1591914,0,0,0,39,37,7,70,42,42,203,221,70,153,244,12,0,,,,,,
1,1779205818880,-3852,138,13735,2587625,-252898,526565,0,0,0,142,328,79,337,234,440,192,95,394,127,99,283,0,,,,,,
2,1779205818880,6355,22756,17094,2824640,-3393967,317649,0,0,0,22,35,10,62,53,53,207,312,73,163,342,9,0,,,,,,
1,1779205818896,-3962,181,14903,3224146,-128281,748920,0,0,0,161,288,76,310,218,432,181,81,398,116,74,266,0,,,,,,
2,1779205818896,5221,16290,7992,3182607,-3391523,1751961,0,0,0,41,42,14,84,63,76,251,397,71,258,404,23,0,,,,,,
1,1779205818912,-4599,311,16243,3935193,26878,959058,0,0,0,163,235,87,292,195,410,192,77,393,98,40,198,0,,,,,,
2,1779205818912,-2747,57,10533,4285830,-2129476,1795943,0,0,0,40,38,20,91,55,93,308,439,95,321,465,38,0,,,,,,
1,1779205818928,-6322,569,18109,4754975,190589,1253495,0,0,0,142,210,102,244,158,365,191,70,353,79,38,128,0,,,,,,
2,1779205818928,-8609,-5589,20210,4691445,-554665,461814,0,0,0,80,55,37,125,50,108,351,476,97,403,506,44,0,,,,,,
1,1779205818944,-8509,397,21517,5728694,339641,1747074,0,0,0,126,173,103,187,105,274,212,57,262,95,34,93,0,,,,,,
2,1779205818944,-1880,550,20784,3846007,-69638,-889419,0,0,0,79,61,35,100,56,109,416,509,92,488,552,47,0,,,,,,
1,1779205818960,-9538,344,24895,6572909,410501,2233323,0,0,0,91,125,61,154,83,205,176,66,178,117,53,74,0,,,,,,
2,1779205818960,5082,2450,16913,2917492,-36651,-946841,0,0,0,96,71,43,103,53,75,444,518,70,538,566,38,0,,,,,,
1,1779205818976,-9083,760,27188,7235087,410501,2624277,0,0,0,54,95,42,79,56,126,110,47,129,81,37,61,0,,,,,,
2,1779205818976,5494,607,12462,1935221,-216246,-98960,0,0,0,119,91,73,106,59,72,488,578,66,553,608,26,0,,,,,,
1,1779205818992,-7719,2158,28451,7746992,415388,2900388,0,0,0,43,62,27,50,37,61,114,67,58,34,31,24,0,,,,,,
2,1779205818992,2316,-100,10878,1086118,-307876,213802,0,0,0,137,78,131,112,49,90,528,576,116,606,619,58,0,,,,,,
1,1779205819008,-8542,4532,27121,8036543,637743,3049439,0,0,0,43,42,19,44,24,35,382,69,37,53,29,2,0,,,,,,
2,1779205819008,1454,224,10413,482583,-283441,152716,0,0,0,149,78,119,126,52,92,562,579,104,628,628,48,0,,,,,,
1,1779205819024,-11103,8265,20277,8074416,851546,3249803,0,0,0,59,50,19,56,22,42,400,78,42,74,52,9,0,,,,,,
2,1779205819024,1943,813,10260,156381,-235793,36651,0,0,0,168,85,117,142,53,90,579,584,92,637,637,42,0,,,,,,
1,1779205819040,-12964,12878,11251,7323052,643851,3638313,0,0,0,49,56,16,45,32,42,409,98,43,72,63,13,0,,,,,,
2,1779205819040,2139,1124,10136,31764,-195476,18325,0,0,0,178,92,126,141,56,87,577,578,89,639,639,45,0,,,,,,
1,1779205819056,-9255,17650,9064,4219857,13439,3163060,0,0,0,35,47,10,45,36,39,391,103,45,80,70,6,0,,,,,,
2,1779205819056,2091,1229,10054,19547,-183259,35430,0,0,0,171,100,131,131,56,91,570,571,93,633,633,56,0,,,,,,
1,1779205819072,-3622,19487,9207,-375071,116064,1248608,0,0,0,36,49,18,44,34,52,370,102,65,75,65,14,0,,,,,,
2,1779205819072,1981,1378,10122,61086,-204028,17104,0,0,0,164,105,134,134,51,96,559,565,95,621,621,65,0,,,,,,
1,1779205819088,-2378,14663,8772,-3881437,1243721,-1115439,0,0,0,39,50,17,49,40,53,365,98,58,80,66,12,0,,,,,,
2,1779205819088,1823,1531,10165,153938,-175929,-9773,0,0,0,161,107,132,135,54,94,532,544,89,599,599,62,0,,,,,,
1,1779205819104,-6207,8303,6585,-4875926,1831373,-2083050,0,0,0,46,60,25,46,41,57,363,96,61,81,69,15,0,,,,,,
2,1779205819104,1708,1560,10098,283441,-81855,-28099,0,0,0,148,115,141,119,61,109,500,515,111,568,568,71,0,,,,,,
1,1779205819120,-9026,4915,4699,-4604702,784350,-1557706,0,0,0,46,63,27,45,41,58,359,98,62,82,74,19,0,,,,,,
2,1779205819120,1751,1435,9954,382401,2443,-21991,0,0,0,147,119,140,125,70,110,487,488,119,532,532,62,0,,,,,,
1,1779205819136,-7753,4326,4891,-4392121,-427605,-847880,0,0,0,42,59,17,49,42,51,358,102,54,87,78,17,0,,,,,,
2,1779205819136,1856,1296,9820,419053,24434,-10995,0,0,0,143,126,140,126,84,128,467,474,124,512,512,74,0,,,,,,
1,1779205819152,-4795,4723,6599,-4513072,-902858,-514348,0,0,0,43,62,15,47,43,46,358,105,51,90,78,14,0,,,,,,
2,1779205819152,1943,1143,9686,400727,2443,-8552,0,0,0,159,142,125,130,83,100,460,454,91,488,488,43,0,,,,,,
1,1779205819168,-3838,4938,8399,-4979773,-723264,-682947,0,0,0,43,63,18,47,44,45,361,104,48,92,78,10,0,,,,,,
2,1779205819168,1986,1028,9571,356745,-21991,-19547,0,0,0,150,147,134,118,75,107,433,442,108,477,477,46,0,,,,,,
1,1779205819184,-3924,4771,9992,-5551543,-763581,-954171,0,0,0,46,65,20,49,47,47,389,103,45,95,80,9,0,,,,,,
2,1779205819184,1957,1005,9552,304210,-48869,-35430,0,0,0,160,154,134,127,79,110,424,421,116,462,462,48,0,,,,,,
1,1779205819200,-4039,4039,11586,-6096435,-1086118,-1186300,0,0,0,51,63,21,49,43,44,388,108,47,93,77,9,0,,,,,,
2,1779205819200,1919,1024,9619,273667,-74525,-51312,0,0,0,157,179,141,129,98,115,405,359,117,449,422,47,0,,,,,,
1,1779205819216,-3488,2904,13424,-6418971,-1385442,-1251052,0,0,0,49,62,21,48,44,45,389,103,45,102,76,6,0,,,,,,
2,1779205819216,1919,1048,9691,277332,-96516,-61086,0,0,0,164,196,142,132,102,116,394,311,117,435,398,49,0,,,,,,
1,1779205819232,-3067,1861,15582,-6544810,-1494176,-1164309,0,0,0,43,60,19,47,43,44,379,119,52,87,74,2,0,,,,,,
2,1779205819232,1876,971,9705,288328,-116064,-62308,0,0,0,160,199,187,133,97,147,386,278,151,423,362,79,0,,,,,,
1,1779205819248,-3278,1359,17702,-6559470,-1512502,-940732,0,0,0,44,58,18,47,35,43,381,113,58,89,68,5,0,,,,,,
2,1779205819248,1813,899,9719,295658,-125838,-59864,0,0,0,174,197,193,144,93,148,389,247,157,411,314,81,0,,,,,,
1,1779205819264,-3622,1048,20138,-6677978,-1616349,-714712,0,0,0,40,58,18,51,43,46,377,110,59,94,74,8,0,,,,,,
2,1779205819264,1799,861,9777,311541,-125838,-57421,0,0,0,190,198,189,161,99,147,389,212,156,401,270,82,0,,,,,,
1,1779205819280,-4173,521,22555,-6814812,-1677435,-742812,0,0,0,41,58,15,47,38,43,377,114,58,95,73,8,0,,,,,,
2,1779205819280,1832,871,9873,357967,-124616,-65973,0,0,0,187,202,226,167,116,170,370,197,179,392,246,105,0,,,,,,
1,1779205819296,-5522,-607,24981,-6809925,-1716531,-1163087,0,0,0,43,60,11,49,40,42,375,113,58,92,72,8,0,,,,,,
2,1779205819296,1876,847,9987,431270,-123394,-83077,0,0,0,187,224,255,166,134,187,346,188,201,376,223,118,0,,,,,,
1,1779205819312,-7461,-2632,27475,-6585127,-1909564,-1857030,0,0,0,44,61,14,53,44,46,391,107,50,99,78,12,0,,,,,,
2,1779205819312,1914,765,10088,522900,-114842,-108734,0,0,0,204,273,242,174,154,196,333,146,214,334,175,114,0,,,,,,
1,1779205819328,-8925,-7183,30619,-6210056,-2502104,-2745228,0,0,0,37,63,13,50,53,45,400,107,46,101,83,15,0,,,,,,
2,1779205819328,1981,670,10174,615752,-94073,-142942,0,0,0,201,290,250,175,184,210,301,159,226,261,167,120,0,,,,,,
1,1779205819344,-8485,-14189,32285,-5955936,-3020117,-3244916,0,0,0,35,60,11,53,55,52,403,104,58,111,77,16,0,,,,,,
2,1779205819344,2187,550,10337,720820,-53756,-201585,0,0,0,207,310,260,176,197,220,272,126,230,217,119,135,0,,,,,,
1,1779205819360,-5642,-25082,29906,-5684711,-3039665,-3010343,0,0,0,45,57,15,65,49,65,410,97,73,122,70,20,0,,,,,,
2,1779205819360,2397,473,10720,850324,-34208,-288328,0,0,0,222,333,253,198,198,253,264,118,259,205,118,183,0,,,,,,
1,1779205819376,440,-36688,22718,-4646241,-2506990,-1742187,0,0,0,49,61,20,73,51,75,412,102,80,116,70,24,0,,,,,,
2,1779205819376,2359,445,11337,1072679,-84299,-366519,0,0,0,233,342,240,221,190,275,263,102,253,222,102,180,0,,,,,,
1,1779205819392,7930,-44431,16238,-2871066,-1707979,18325,0,0,0,46,66,22,73,59,82,410,110,85,108,72,25,0,,,,,,
2,1779205819392,2297,358,12031,1374446,-138055,-425162,0,0,0,281,369,157,255,213,287,198,110,219,196,116,216,0,,,,,,
1,1779205819408,13338,-45206,15027,-1065348,-460592,1511280,0,0,0,58,73,27,71,59,84,375,108,86,114,80,28,0,,,,,,
2,1779205819408,2067,268,12974,1782504,-147829,-475253,0,0,0,285,372,146,263,242,296,183,111,253,174,109,250,0,,,,,,
1,1779205819424,13204,-40368,16396,406836,1042136,2119702,0,0,0,83,83,25,61,54,63,198,136,82,129,97,22,0,,,,,,
2,1779205819424,2124,248,13993,2273640,-164933,-500909,0,0,0,324,380,123,279,300,283,181,128,233,167,131,225,0,,,,,,
1,1779205819440,5178,-21928,19234,1806939,2530203,1711644,0,0,0,39,31,3,47,32,25,236,223,58,182,187,10,0,,,,,,
2,1779205819440,2852,153,14783,2853962,-282219,-564439,0,0,0,351,381,117,303,285,256,203,118,207,171,116,188,0,,,,,,
1,1779205819456,-7575,12668,17176,2753780,3739716,463035,0,0,0,35,40,5,50,43,45,272,355,53,149,327,12,0,,,,,,
2,1779205819456,3426,129,15405,3488040,-465479,-736703,0,0,0,351,364,112,277,232,253,186,112,190,143,110,168,0,,,,,,
1,1779205819472,-8513,16764,9748,3144734,3782477,-808785,0,0,0,37,42,18,61,39,90,333,395,78,275,382,11,0,,,,,,
2,1779205819472,3838,157,16252,4096462,-634078,-922406,0,0,0,312,348,111,250,206,272,161,103,220,108,85,136,0,,,,,,
1,1779205819488,28,2833,11256,4588819,2254092,-1550375,0,0,0,38,25,6,74,34,86,427,437,82,393,426,15,0,,,,,,
2,1779205819488,5211,90,17702,4857600,-812450,-1204626,0,0,0,250,355,123,240,205,270,165,101,238,83,60,115,0,,,,,,
1,1779205819504,6824,-2790,20282,5067738,339641,-690277,0,0,0,56,37,16,83,39,98,477,477,79,458,462,13,0,,,,,,
2,1779205819504,6934,-124,19999,5660277,-978606,-1620014,0,0,0,193,331,119,204,202,225,175,117,208,64,58,93,0,,,,,,
1,1779205819520,3536,-440,22622,4118453,-271224,656069,0,0,0,94,57,22,111,31,83,494,494,53,484,484,4,0,,,,,,
2,1779205819520,7791,-531,23924,6525262,-1221730,-2076941,0,0,0,140,243,92,147,178,176,159,123,165,52,54,57,0,,,,,,
1,1779205819536,-3804,1464,18229,2678033,-151494,1003040,0,0,0,107,57,36,119,35,94,510,510,52,519,519,18,0,,,,,,
2,1779205819536,8604,86,27264,7271739,-1268156,-2421469,0,0,0,93,146,71,112,116,154,134,94,129,51,39,51,0,,,,,,
1,1779205819552,-5661,220,12457,1367116,-147829,161268,0,0,0,123,60,49,133,42,101,531,531,68,533,533,30,0,,,,,,
2,1779205819552,8327,1464,28614,7787310,-900415,-2678033,0,0,0,68,57,38,88,47,80,154,78,94,70,35,25,0,,,,,,
1,1779205819568,-2675,-291,10581,678060,-212581,-230907,0,0,0,142,83,74,138,49,117,547,547,103,541,541,30,0,,,,,,
2,1779205819568,8379,2837,28604,8146498,-284663,-2990796,0,0,0,65,27,20,103,30,47,171,102,81,78,64,14,0,,,,,,
1,1779205819584,-1517,454,9949,290771,-171042,-179594,0,0,0,155,109,96,140,55,128,555,555,119,549,549,30,0,,,,,,
2,1779205819584,9356,5532,22359,7970569,-142942,-3367089,0,0,0,76,41,24,113,40,56,189,121,82,91,72,19,0,,,,,,
1,1779205819600,-2201,1234,10002,188146,-41538,4886,0,0,0,165,115,139,144,54,137,557,557,135,549,549,44,0,,,,,,
2,1779205819600,9523,11782,13424,5982814,-860098,-3391523,0,0,0,77,46,25,121,46,54,191,120,72,95,73,11,0,,,,,,
1,1779205819616,-2627,1244,10026,188146,73303,32986,0,0,0,180,114,192,144,50,160,552,552,170,541,541,51,0,,,,,,
2,1779205819616,8116,18501,11074,2106263,-1205847,-2432465,0,0,0,72,48,24,114,38,49,198,112,81,89,69,14,0,,,,,,
1,1779205819632,-2144,1220,10083,204028,92851,9773,0,0,0,202,130,164,159,64,145,541,541,136,522,522,27,0,,,,,,
2,1779205819632,5594,18468,12404,-2204001,-1389107,-525344,0,0,0,74,45,29,119,41,59,193,114,83,96,73,25,0,,,,,,
1,1779205819648,-1885,1363,10260,256563,32986,20769,0,0,0,202,132,171,179,63,144,515,515,151,482,482,40,0,,,,,,
2,1779205819648,5953,10614,9045,-4186870,-1815491,1109331,0,0,0,77,51,27,121,45,57,188,120,81,100,80,22,0,,,,,,
1,1779205819664,-1971,1502,10346,359188,-35430,52534,0,0,0,202,145,160,192,61,173,474,474,202,439,439,60,0,,,,,,
2,1779205819664,8758,5508,3474,-3605326,-1276708,1187522,0,0,0,79,54,29,123,48,57,187,123,78,97,83,17,0,,,,,,
1,1779205819680,-1990,1435,10160,466701,-89186,72082,0,0,0,191,171,148,174,65,172,453,453,193,420,415,51,0,,,,,,
2,1779205819680,8753,4958,1990,-3290120,-73303,819781,0,0,0,80,55,28,123,49,58,187,126,77,96,87,16,0,,,,,,
1,1779205819696,-1976,1249,9925,522900,-142942,75747,0,0,0,187,172,126,174,73,172,442,442,165,402,355,38,0,,,,,,
2,1779205819696,5982,7006,4752,-3871663,709825,594982,0,0,0,81,56,26,123,49,55,186,128,76,98,89,17,0,,,,,,
1,1779205819712,-2057,1009,9700,515570,-172263,80634,0,0,0,174,171,105,184,76,156,424,402,143,381,320,33,0,,,,,,
2,1779205819712,5623,6690,6360,-4652349,587652,729373,0,0,0,81,55,28,125,50,56,184,125,77,101,89,19,0,,,,,,
1,1779205819728,-2167,832,9552,461814,-152716,91629,0,0,0,163,169,96,178,81,154,411,344,144,351,305,33,0,,,,,,
2,1779205819728,6432,5431,6695,-5012760,748920,763581,0,0,0,79,55,29,129,53,61,184,123,77,117,93,26,0,,,,,,
1,1779205819744,-2244,756,9495,404392,-116064,101403,0,0,0,156,166,88,180,83,167,406,306,171,340,291,37,0,,,,,,
2,1779205819744,6341,4508,7518,-5158146,1359786,690277,0,0,0,81,58,32,130,52,60,185,122,76,131,95,30,0,,,,,,
1,1779205819760,-2282,756,9542,366519,-73303,107512,0,0,0,155,166,96,182,81,171,400,272,176,333,260,45,0,,,,,,
2,1779205819760,5135,4613,9399,-5391496,1759291,766025,0,0,0,80,58,30,127,51,58,184,125,79,102,92,26,0,,,,,,
1,1779205819776,-2268,760,9605,350636,-30543,114842,0,0,0,155,169,114,185,80,183,397,237,201,315,218,52,0,,,,,,
2,1779205819776,4704,4493,11189,-5692042,1953547,987158,0,0,0,80,60,27,123,53,60,185,125,78,104,91,24,0,,,,,,
1,1779205819792,-2177,751,9667,348193,0,120951,0,0,0,150,173,128,180,81,204,396,216,218,296,188,62,0,,,,,,
2,1779205819792,4838,4201,12878,-5920505,2129476,1258382,0,0,0,82,61,34,123,52,60,186,125,78,104,88,19,0,,,,,,
1,1779205819808,-2081,717,9748,361632,4886,124616,0,0,0,145,186,128,179,93,220,393,183,214,284,160,72,0,,,,,,
2,1779205819808,4924,4249,15223,-6096435,2348165,1539380,0,0,0,82,61,34,126,52,61,192,126,78,107,92,25,0,,,,,,
1,1779205819824,-2014,655,9853,390953,-21991,134390,0,0,0,153,199,123,200,100,241,394,140,240,259,136,81,0,,,,,,
2,1779205819824,5293,4469,18042,-6339559,2538755,1793500,0,0,0,84,59,34,129,54,60,193,128,79,107,90,23,0,,,,,,
1,1779205819840,-2043,569,9911,439822,-89186,153938,0,0,0,165,205,131,219,91,270,396,127,287,222,119,105,0,,,,,,
2,1779205819840,5853,4422,21560,-6697526,2708576,2026850,0,0,0,88,62,34,131,50,61,186,125,80,106,88,22,0,,,,,,
1,1779205819856,-2153,531,9944,505796,-153938,183259,0,0,0,171,221,146,229,98,288,393,119,311,201,88,143,0,,,,,,
2,1779205819856,6642,3555,26580,-7032280,2780658,2365270,0,0,0,86,58,33,130,47,59,191,121,79,107,81,23,0,,,,,,
1,1779205819872,-2316,435,10059,604756,-207694,226020,0,0,0,171,248,146,233,123,305,383,111,329,178,81,164,0,,,,,,
2,1779205819872,7949,1703,31045,-7089701,2795319,2781880,0,0,0,65,57,36,96,50,62,181,124,88,94,81,27,0,,,,,,
1,1779205819888,-2368,282,10179,701273,-254119,272445,0,0,0,163,291,131,229,170,335,359,115,319,157,83,175,0,,,,,,
2,1779205819888,8777,-3125,34299,-6939429,3142290,3251024,0,0,0,54,57,35,80,52,64,175,123,90,85,79,26,0,,,,,,
1,1779205819904,-2431,229,10524,810007,-302989,316428,0,0,0,140,278,131,214,176,380,343,92,328,149,84,203,0,,,,,,
2,1779205819904,6111,-13965,36970,-6480058,3676187,3516140,0,0,0,55,59,34,75,54,64,180,122,86,89,75,24,0,,,,,,
1,1779205819920,-2507,196,11117,1016479,-349414,361632,0,0,0,165,305,115,280,176,378,316,99,335,146,72,247,0,,,,,,
2,1779205819920,3206,-27977,35304,-5646838,3026226,3243694,0,0,0,55,60,34,76,53,65,179,124,90,88,78,23,0,,,,,,
1,1779205819936,-2431,138,11725,1253495,-401949,394618,0,0,0,152,301,122,267,203,402,276,99,366,121,68,261,0,,,,,,
2,1779205819936,2335,-42335,24335,-3980397,1627344,1536936,0,0,0,55,61,35,81,52,67,175,127,97,82,83,23,0,,,,,,
1,1779205819952,-2239,47,12242,1529606,-460592,398284,0,0,0,163,319,98,296,208,417,202,91,384,129,80,290,0,,,,,,
2,1779205819952,-2608,-48212,16042,-2155132,1370781,-756251,0,0,0,56,60,36,80,51,67,178,126,99,85,82,24,0,,,,,,
1,1779205819968,-2182,-47,12490,1853365,-508239,370184,0,0,0,185,342,98,309,196,418,168,73,384,156,76,302,0,,,,,,
2,1779205819968,-12026,-46006,16362,-623082,1291369,-2296853,0,0,0,57,50,31,79,46,62,194,138,97,101,107,20,0,,,,,,
1,1779205819984,-2469,-129,12825,2261423,-541226,350636,0,0,0,230,359,106,327,176,420,166,60,383,152,70,319,0,,,,,,
2,1779205819984,-15764,-37252,22005,884532,-251676,-2155132,0,0,0,50,38,18,75,50,62,229,230,85,144,223,15,0,,,,,,
1,1779205820000,-3531,-186,13500,2707354,-504574,408057,0,0,0,223,346,115,300,200,417,311,84,371,134,76,336,0,,,,,,
2,1779205820000,-4446,-7590,22402,2605951,-2927266,-618195,0,0,0,41,28,27,74,38,72,275,349,70,260,322,39,0,,,,,,
1,1779205820016,-4910,-253,14534,3316998,-328645,627969,0,0,0,185,305,115,280,235,404,374,130,375,121,76,318,0,,,,,,
2,1779205820016,5340,14596,14285,3578448,-4459316,733038,0,0,0,60,52,20,106,54,69,284,419,66,297,434,24,0,,,,,,
1,1779205820032,-5771,-134,16219,4095240,-108734,992045,0,0,0,154,268,102,275,223,382,276,125,376,106,61,248,0,,,,,,
2,1779205820032,2751,10040,9911,4480085,-3954741,1202182,0,0,0,62,76,21,102,78,83,359,514,63,445,552,30,0,,,,,,
1,1779205820048,-6896,205,19095,4950451,52534,1389107,0,0,0,131,232,97,224,179,341,281,106,321,86,50,162,0,,,,,,
2,1779205820048,-5317,-1282,19344,5283984,-1863138,329867,0,0,0,57,48,24,112,63,80,436,549,61,534,600,25,0,,,,,,
1,1779205820064,-9107,196,23627,5946162,193033,1847256,0,0,0,109,181,90,153,131,272,328,111,233,70,53,101,0,,,,,,
2,1779205820064,-3646,-2282,25130,4950451,-445931,-786794,0,0,0,83,52,25,123,56,79,511,563,79,584,610,20,0,,,,,,
1,1779205820080,-10882,234,27628,6882007,333532,2332283,0,0,0,77,130,56,117,85,190,146,71,164,63,44,72,0,,,,,,
2,1779205820080,4235,713,20784,3540574,-199142,-877202,0,0,0,127,64,44,124,40,73,567,576,89,612,616,40,0,,,,,,
1,1779205820096,-10088,1124,30026,7637037,510683,2779436,0,0,0,42,82,33,78,63,128,121,63,100,52,35,38,0,,,,,,
2,1779205820096,4680,559,13931,2039068,-331088,-101403,0,0,0,128,95,86,120,57,82,571,589,90,633,633,39,0,,,,,,
1,1779205820112,-10189,2943,30772,8211250,519235,3084869,0,0,0,34,54,16,52,56,56,100,88,75,53,68,5,0,,,,,,
2,1779205820112,2225,-23,10270,935845,-279776,276111,0,0,0,130,92,104,126,55,87,581,593,97,648,648,50,0,,,,,,
1,1779205820128,-12065,6652,27901,8643743,92851,3452610,0,0,0,33,87,24,35,66,70,160,114,81,40,55,14,0,,,,,,
2,1779205820128,1363,148,9964,425162,-139277,150272,0,0,0,147,84,117,138,50,93,602,603,114,654,654,63,0,,,,,,
1,1779205820144,-11725,11208,18549,8332201,47647,3929085,0,0,0,30,83,9,57,57,57,446,86,33,51,47,0,0,,,,,,
2,1779205820144,2120,837,10150,221133,-204028,25656,0,0,0,158,90,143,141,58,105,614,614,119,660,660,71,0,,,,,,
1,1779205820160,-9949,14716,11706,6559470,360410,3941302,0,0,0,37,82,17,60,52,77,381,93,50,67,67,2,0,,,,,,
2,1779205820160,2278,1234,10126,84299,-250454,19547,0,0,0,157,109,157,137,69,110,608,608,110,664,664,77,0,,,,,,
1,1779205820176,-6202,18277,9696,2498438,596204,2614503,0,0,0,42,90,15,47,51,42,403,96,37,110,76,13,0,,,,,,
2,1779205820176,2096,1325,10035,50090,-223576,39095,0,0,0,161,129,164,139,81,113,590,592,116,655,655,81,0,,,,,,
1,1779205820192,-3350,16587,9408,-1964542,1160643,144164,0,0,0,39,92,11,47,51,37,386,94,39,74,71,6,0,,,,,,
2,1779205820192,1947,1430,10054,112399,-189368,9773,0,0,0,161,107,185,141,78,130,564,568,136,631,631,102,0,,,,,,
1,1779205820208,-4312,10519,7173,-4476420,1909564,-1646892,0,0,0,40,93,9,50,55,40,370,100,38,62,72,4,0,,,,,,
2,1779205820208,1804,1555,10098,227241,-128281,-19547,0,0,0,162,114,181,136,74,122,545,545,136,602,602,103,0,,,,,,
1,1779205820224,-7599,5752,4383,-4605923,1764178,-1682322,0,0,0,39,98,9,47,63,42,375,115,37,56,76,4,0,,,,,,
2,1779205820224,1765,1564,10083,357967,-21991,-34208,0,0,0,166,143,172,143,94,108,524,525,123,566,566,91,0,,,,,,
1,1779205820240,-7824,4996,3852,-4420220,653625,-1003040,0,0,0,42,100,11,50,64,40,382,116,36,65,77,4,0,,,,,,
2,1779205820240,1871,1407,9949,436157,59864,-26878,0,0,0,155,127,200,148,80,132,481,498,139,516,516,87,0,,,,,,
1,1779205820256,-5967,5427,4919,-4553389,-158824,-565661,0,0,0,44,99,11,54,62,40,381,106,36,78,77,5,0,,,,,,
2,1779205820256,1986,1220,9796,449596,78190,-23212,0,0,0,147,139,172,142,88,132,465,482,131,497,484,69,0,,,,,,
1,1779205820272,-4690,5915,6704,-5064072,-190589,-582765,0,0,0,39,97,9,50,59,41,382,110,42,76,77,4,0,,,,,,
2,1779205820272,2057,1067,9657,411723,56199,-28099,0,0,0,143,136,175,149,85,135,456,451,138,469,484,60,0,,,,,,
1,1779205820288,-5556,5494,8336,-5770233,-205250,-724486,0,0,0,31,97,9,42,56,40,386,126,50,65,76,1,0,,,,,,
2,1779205820288,2100,1043,9576,356745,17104,-36651,0,0,0,153,150,168,162,90,142,435,414,141,448,457,55,0,,,,,,
1,1779205820304,-6044,4603,9897,-6344446,-609643,-785572,0,0,0,29,97,10,44,59,42,386,124,44,63,79,2,0,,,,,,
2,1779205820304,2134,1052,9557,315206,-30543,-46425,0,0,0,143,156,164,152,95,141,421,414,151,425,435,62,0,,,,,,
1,1779205820320,-5355,3421,11581,-6713408,-1158200,-818559,0,0,0,37,97,13,46,58,43,386,123,39,69,78,6,0,,,,,,
2,1779205820320,2139,1057,9614,298102,-95294,-57421,0,0,0,140,160,165,143,98,144,421,375,169,408,396,66,0,,,,,,
1,1779205820336,-4350,2158,13615,-6925990,-1469741,-877202,0,0,0,47,96,12,57,57,41,388,125,38,82,75,1,0,,,,,,
2,1779205820336,2072,1009,9672,306654,-147829,-63529,0,0,0,144,169,178,139,105,160,413,313,181,397,352,83,0,,,,,,
1,1779205820352,-4407,1440,15869,-6943094,-1567480,-834441,0,0,0,52,98,12,61,57,49,387,120,42,87,75,1,0,,,,,,
2,1779205820352,1986,923,9700,320093,-177150,-65973,0,0,0,160,181,176,154,114,160,406,279,168,385,314,82,0,,,,,,
1,1779205820368,-4781,1177,18305,-6907664,-1792278,-700051,0,0,0,48,98,13,57,61,50,385,114,42,87,78,1,0,,,,,,
2,1779205820368,1885,842,9719,340862,-172263,-69638,0,0,0,185,183,214,179,110,167,396,259,176,370,295,85,0,,,,,,
1,1779205820384,-4776,957,21134,-6921103,-2116037,-610865,0,0,0,54,103,17,57,60,51,386,119,50,86,80,7,0,,,,,,
2,1779205820384,1837,794,9777,367740,-149051,-75747,0,0,0,187,200,265,181,114,191,362,242,204,349,299,111,0,,,,,,
1,1779205820400,-4900,335,24292,-6973637,-2258979,-884532,0,0,0,48,99,15,58,58,55,386,113,49,91,82,8,0,,,,,,
2,1779205820400,1880,770,9844,405614,-119729,-85521,0,0,0,172,232,245,178,140,192,333,247,198,327,291,104,0,,,,,,
1,1779205820416,-6030,-1033,27705,-6903998,-2328618,-1539380,0,0,0,47,98,17,62,60,58,387,114,48,93,81,9,0,,,,,,
2,1779205820416,1976,741,9887,460592,-102625,-101403,0,0,0,176,209,275,181,147,209,326,227,210,307,256,114,0,,,,,,
1,1779205820432,-7475,-3924,31193,-6662096,-2612059,-2454456,0,0,0,44,100,15,63,64,56,386,109,43,90,81,10,0,,,,,,
2,1779205820432,2077,689,9964,530231,-95294,-135612,0,0,0,197,243,283,191,159,217,319,187,222,278,218,117,0,,,,,,
1,1779205820448,-7116,-10399,33998,-6366437,-3066543,-3183829,0,0,0,39,94,15,57,55,56,386,110,49,88,69,8,0,,,,,,
2,1779205820448,2206,603,10126,616973,-75747,-190589,0,0,0,184,251,309,189,161,248,289,141,277,215,144,153,0,,,,,,
1,1779205820464,-5575,-19573,33534,-6097656,-3031113,-3260798,0,0,0,40,90,12,62,59,50,383,111,44,86,71,4,0,,,,,,
2,1779205820464,2392,488,10437,730594,-53756,-263893,0,0,0,224,289,269,213,181,249,298,134,261,183,107,143,0,,,,,,
1,1779205820480,-2799,-31691,27599,-5531995,-2532647,-2345722,0,0,0,43,88,9,68,61,48,384,108,42,86,72,4,0,,,,,,
2,1779205820480,2402,425,11007,926071,-68416,-346971,0,0,0,253,322,261,241,201,263,283,125,269,180,99,179,0,,,,,,
1,1779205820496,4479,-41789,19990,-4083023,-2267531,-557109,0,0,0,42,85,9,66,61,50,413,106,41,86,67,3,0,,,,,,
2,1779205820496,2215,402,11653,1193630,-100181,-398284,0,0,0,287,359,170,284,284,239,262,133,238,200,120,196,0,,,,,,
1,1779205820512,13577,-46561,16199,-2276083,-1589471,1076344,0,0,0,42,81,24,62,64,61,335,114,59,80,76,13,0,,,,,,
2,1779205820512,2067,320,12337,1552819,-107512,-422718,0,0,0,309,352,135,287,255,267,226,127,236,205,127,193,0,,,,,,
1,1779205820528,16999,-44627,16668,-400727,223576,1998751,0,0,0,43,77,34,52,60,64,173,160,77,88,121,26,0,,,,,,
2,1779205820528,2038,201,13204,1962099,-59864,-438601,0,0,0,340,339,137,286,216,281,204,106,232,183,100,198,0,,,,,,
1,1779205820544,7360,-26120,20157,1461189,2604729,1892460,0,0,0,31,65,6,40,54,39,190,279,44,129,227,8,0,,,,,,
2,1779205820544,2412,134,14209,2421469,-51312,-474031,0,0,0,341,351,123,304,246,266,196,109,226,164,96,205,0,,,,,,
1,1779205820560,-4915,2785,17482,2889392,4342030,1152091,0,0,0,11,25,0,52,58,58,218,377,49,181,349,11,0,,,,,,
2,1779205820560,3077,110,15242,3055547,-160046,-574213,0,0,0,349,348,120,301,244,247,193,105,223,172,107,187,0,,,,,,
1,1779205820576,-9121,14850,11428,3792251,4489859,4886,0,0,0,25,42,1,73,62,79,307,399,59,273,391,12,0,,,,,,
2,1779205820576,3728,134,16027,3802025,-338419,-761138,0,0,0,325,347,116,262,216,249,177,101,220,148,98,163,0,,,,,,
1,1779205820592,-1268,4130,15884,4968777,2364048,-763581,0,0,0,30,64,9,80,64,112,376,423,80,346,415,17,0,,,,,,
2,1779205820592,4513,229,17181,4542393,-507018,-998153,0,0,0,255,329,108,222,222,270,158,101,238,85,68,147,0,,,,,,
1,1779205820608,4838,-2311,23139,5158146,430049,-469144,0,0,0,59,39,21,86,43,112,444,444,101,443,443,26,0,,,,,,
2,1779205820608,5742,320,19224,5336518,-660956,-1318247,0,0,0,197,246,134,194,214,276,157,89,268,51,39,128,0,,,,,,
1,1779205820624,1531,-636,23029,3769038,-63529,579100,0,0,0,106,71,36,87,43,66,452,452,55,446,446,13,0,,,,,,
2,1779205820624,6939,76,22809,6257703,-890641,-1722639,0,0,0,147,190,142,158,146,231,146,92,240,43,30,108,0,,,,,,
1,1779205820640,-4991,1708,15238,2205223,178372,620639,0,0,0,102,74,92,81,32,84,485,485,117,484,484,53,0,,,,,,
2,1779205820640,8131,167,26977,7134905,-1104444,-2074498,0,0,0,103,149,57,144,120,142,124,70,163,43,31,43,0,,,,,,
1,1779205820656,-4259,1124,10083,1335351,150272,-108734,0,0,0,125,61,138,90,27,100,527,527,156,517,517,60,0,,,,,,
2,1779205820656,8719,1115,29581,7844731,-918741,-2371378,0,0,0,56,82,35,103,102,88,128,69,131,71,52,27,0,,,,,,
1,1779205820672,-2120,95,9648,687834,65973,-332310,0,0,0,135,71,140,105,32,110,546,546,140,547,547,59,0,,,,,,
2,1779205820672,9040,2522,29944,8328536,-441044,-2664594,0,0,0,36,40,48,62,49,104,120,108,122,55,68,45,0,,,,,,
1,1779205820688,-1512,268,10959,144164,89186,-124616,0,0,0,149,82,161,118,36,118,558,558,133,566,566,59,0,,,,,,
2,1779205820688,10069,4824,25862,8422609,59864,-3070208,0,0,0,60,44,52,90,45,88,168,110,124,74,79,35,0,,,,,,
1,1779205820704,-2043,1186,10811,-84299,162490,21991,0,0,0,155,91,169,116,33,124,566,566,142,570,570,63,0,,,,,,
2,1779205820704,10906,8911,15979,7541742,-125838,-3490483,0,0,0,52,45,46,89,49,83,158,111,120,71,74,37,0,,,,,,
1,1779205820720,-2196,1761,10102,-56199,130725,12217,0,0,0,158,126,200,119,41,138,567,567,167,569,569,60,0,,,,,,
2,1779205820720,10758,15352,10007,4706105,-576656,-3448945,0,0,0,45,43,42,74,47,78,172,114,130,73,76,38,0,,,,,,
1,1779205820736,-2120,1885,9987,76969,54977,8552,0,0,0,154,160,207,121,52,149,560,560,194,564,564,71,0,,,,,,
2,1779205820736,6116,19889,12524,-1163087,-899193,-2025629,0,0,0,46,46,44,73,48,81,171,117,129,75,77,37,0,,,,,,
1,1779205820752,-2010,1804,10222,232128,0,47647,0,0,0,151,162,181,122,58,152,541,541,198,546,546,85,0,,,,,,
2,1779205820752,3670,14338,12031,-4278500,-1821600,-481361,0,0,0,43,48,45,74,50,83,175,122,127,75,78,35,0,,,,,,
1,1779205820768,-1919,1713,10227,338419,-63529,81855,0,0,0,154,147,171,130,63,149,514,514,186,512,512,75,0,,,,,,
2,1779205820768,7245,6815,4929,-4155105,-2134363,91629,0,0,0,39,47,44,69,48,82,176,126,130,75,82,33,0,,,,,,
1,1779205820784,-1957,1689,10021,404392,-133168,85521,0,0,0,144,146,158,127,62,136,484,484,190,470,470,63,0,,,,,,
2,1779205820784,9542,4474,971,-3701843,-1015258,-15882,0,0,0,39,46,44,68,48,82,173,127,133,76,85,34,0,,,,,,
1,1779205820800,-2081,1598,9791,422718,-158824,72082,0,0,0,137,167,134,119,69,126,462,462,179,435,435,46,0,,,,,,
2,1779205820800,7317,6259,2837,-3958406,561996,-116064,0,0,0,45,47,44,77,49,82,175,126,132,81,86,36,0,,,,,,
1,1779205820816,-2187,1430,9633,404392,-142942,68416,0,0,0,133,169,140,118,68,127,451,451,173,423,419,41,0,,,,,,
2,1779205820816,4910,7073,6073,-4737870,734260,427605,0,0,0,52,49,45,86,50,82,176,125,132,86,88,36,0,,,,,,
1,1779205820832,-2230,1277,9533,351858,-91629,74525,0,0,0,147,169,175,114,65,152,437,434,171,399,392,39,0,,,,,,
2,1779205820832,5632,5920,6992,-5211902,660956,1028697,0,0,0,43,48,45,72,53,86,174,127,133,83,90,37,0,,,,,,
1,1779205820848,-2234,1239,9495,306654,-42760,80634,0,0,0,140,167,168,123,71,156,426,398,181,379,363,44,0,,,,,,
2,1779205820848,6882,4383,7068,-5255884,1141096,1290147,0,0,0,39,49,45,71,52,89,172,130,136,80,93,37,0,,,,,,
1,1779205820864,-2206,1244,9514,290771,-6108,84299,0,0,0,137,173,188,114,70,164,416,364,201,359,320,51,0,,,,,,
2,1779205820864,5699,4158,8781,-5240002,1798387,1348790,0,0,0,45,56,49,71,49,88,171,127,136,81,93,38,0,,,,,,
1,1779205820880,-2105,1249,9562,288328,4886,91629,0,0,0,128,179,175,120,76,171,410,331,211,321,301,54,0,,,,,,
2,1779205820880,4546,4431,10849,-5403713,2014633,1486845,0,0,0,45,58,50,72,52,86,171,127,134,81,95,35,0,,,,,,
1,1779205820896,-2005,1249,9619,293215,-12217,96516,0,0,0,141,164,170,149,80,186,404,288,202,319,279,54,0,,,,,,
2,1779205820896,4580,4580,12624,-5729915,1984090,1693318,0,0,0,52,59,48,87,54,89,179,127,135,87,93,39,0,,,,,,
1,1779205820912,-1981,1186,9648,312763,-56199,92851,0,0,0,139,159,167,146,81,182,400,278,204,296,267,56,0,,,,,,
2,1779205820912,5240,4465,14625,-6098878,2129476,1853365,0,0,0,46,54,45,86,53,88,177,125,134,79,89,34,0,,,,,,
1,1779205820928,-2010,1129,9691,348193,-100181,91629,0,0,0,134,162,176,146,94,202,391,279,213,269,254,65,0,,,,,,
2,1779205820928,5675,4264,17319,-6451958,2375044,1952325,0,0,0,49,54,45,84,56,89,152,118,134,81,89,35,0,,,,,,
1,1779205820944,-2024,1086,9801,408057,-150272,98960,0,0,0,126,169,171,149,99,230,377,254,233,244,228,85,0,,,,,,
2,1779205820944,5977,3814,20803,-6790377,2581516,2019520,0,0,0,47,53,45,80,53,87,173,120,134,89,86,36,0,,,,,,
1,1779205820960,-2053,1009,9877,477696,-205250,118507,0,0,0,129,176,196,150,89,233,386,213,253,233,205,94,0,,,,,,
2,1779205820960,6642,3067,24862,-7011511,2663372,2179567,0,0,0,45,52,47,79,50,87,185,123,133,90,85,35,0,,,,,,
1,1779205820976,-2163,938,9877,529009,-238237,138055,0,0,0,142,196,224,163,97,236,396,198,261,234,189,118,0,,,,,,
2,1779205820976,7944,1737,29662,-7095810,2740341,2513099,0,0,0,43,50,46,74,50,89,182,123,135,86,83,36,0,,,,,,
1,1779205820992,-2397,842,9839,575435,-241902,172263,0,0,0,141,230,229,175,122,264,388,177,267,213,160,172,0,,,,,,
2,1779205820992,8863,-2732,33443,-6929655,3077539,3068986,0,0,0,41,51,46,70,48,89,177,122,137,81,83,39,0,,,,,,
1,1779205821008,-2569,765,9954,629191,-228463,230907,0,0,0,139,254,232,182,137,292,381,139,289,176,130,197,0,,,,,,
2,1779205821008,7078,-10447,36046,-6548475,3634648,3469714,0,0,0,40,50,46,70,44,89,178,121,139,81,81,40,0,,,,,,
1,1779205821024,-2751,717,10169,718377,-216246,298102,0,0,0,152,271,219,218,136,313,366,128,318,162,114,201,0,,,,,,
2,1779205821024,2522,-23991,36482,-5764124,3467271,3374419,0,0,0,40,49,44,73,43,90,182,120,137,83,78,36,0,,,,,,
1,1779205821040,-2775,650,10681,872315,-206472,361632,0,0,0,144,296,201,244,142,358,343,115,342,146,87,251,0,,,,,,
2,1779205821040,1038,-39090,28556,-4629136,1883908,2075720,0,0,0,42,50,43,77,47,87,185,121,132,80,79,32,0,,,,,,
1,1779205821056,-2684,559,11490,1104444,-177150,395840,0,0,0,127,313,166,221,166,393,303,113,368,144,92,269,0,,,,,,
2,1779205821056,-1928,-47968,17458,-2871066,1119105,-789237,0,0,0,48,53,43,82,45,85,191,124,133,85,82,34,0,,,,,,
1,1779205821072,-2402,536,12242,1400103,-138055,411723,0,0,0,127,307,113,230,192,405,214,105,390,108,91,271,0,,,,,,
2,1779205821072,-10576,-47384,14773,-1062905,951728,-3075095,0,0,0,51,53,42,83,46,83,196,132,129,89,92,30,0,,,,,,
1,1779205821088,-1890,473,12687,1750739,-206472,393397,0,0,0,162,290,106,253,167,406,196,78,389,133,79,355,0,,,,,,
2,1779205821088,-14788,-40904,18535,327423,-37873,-3247359,0,0,0,58,53,30,68,41,55,204,174,102,103,143,15,0,,,,,,
1,1779205821104,-2062,363,13180,2123367,-342084,359188,0,0,0,178,317,98,285,218,416,285,81,389,159,95,359,0,,,,,,
2,1779205821104,-6733,-18162,23268,1938886,-2135584,-1765400,0,0,0,27,43,6,58,49,42,199,275,70,137,250,18,0,,,,,,
1,1779205821120,-3340,373,13988,2700024,-415388,445931,0,0,0,183,312,87,328,243,413,206,68,385,168,78,372,0,,,,,,
2,1779205821120,5092,12471,19358,2982244,-3853337,23212,0,0,0,50,35,7,66,48,53,230,343,76,171,365,16,0,,,,,,
1,1779205821136,-4134,387,15008,3347541,-351858,646295,0,0,0,151,303,92,282,221,410,275,92,400,137,82,329,0,,,,,,
2,1779205821136,8308,19238,9442,3699399,-4245513,1345125,0,0,0,56,47,12,84,56,76,294,398,70,262,402,23,0,,,,,,
1,1779205821152,-4752,507,16295,4091575,-164933,889419,0,0,0,160,298,92,233,190,409,254,89,396,94,65,236,0,,,,,,
2,1779205821152,-1124,2852,12146,4948008,-2674368,1441641,0,0,0,56,44,7,107,60,81,340,443,57,355,460,21,0,,,,,,
1,1779205821168,-6475,827,18463,4983438,48869,1230282,0,0,0,128,294,77,205,192,392,223,101,356,68,56,156,0,,,,,,
2,1779205821168,-7877,-5058,20995,5243667,-938289,491135,0,0,0,69,43,24,122,50,89,408,479,94,461,506,29,0,,,,,,
1,1779205821184,-8628,813,21990,5916840,218689,1678657,0,0,0,91,241,68,172,171,337,338,118,272,54,48,114,0,,,,,,
2,1779205821184,-3096,-665,23091,4333478,-293215,-829554,0,0,0,88,59,32,124,44,82,480,509,80,529,537,29,0,,,,,,
1,1779205821200,-10299,789,26216,6878342,332310,2229658,0,0,0,72,164,69,126,118,264,422,97,186,49,44,87,0,,,,,,
2,1779205821200,4852,1651,16970,3021339,-378736,-737925,0,0,0,114,70,53,130,44,77,524,530,72,555,555,30,0,,,,,,
1,1779205821216,-9830,1277,29049,7618711,491135,2670702,0,0,0,53,100,54,77,75,163,385,72,122,40,39,50,0,,,,,,
2,1779205821216,5063,378,12218,1850921,-483805,-1221,0,0,0,144,74,90,129,42,79,552,552,82,580,580,39,0,,,,,,
1,1779205821232,-9006,2732,30356,8131838,725707,2941926,0,0,0,36,61,26,44,56,64,362,78,80,27,35,18,0,,,,,,
2,1779205821232,1617,-780,10595,821002,-434936,342084,0,0,0,159,84,124,127,46,87,573,573,94,608,608,53,0,,,,,,
1,1779205821248,-10031,5585,28489,8459261,1025031,3116634,0,0,0,38,55,17,41,40,40,320,75,69,44,46,15,0,,,,,,
2,1779205821248,1368,28,10514,313984,-331088,136833,0,0,0,155,93,148,135,60,97,586,586,111,621,621,64,0,,,,,,
1,1779205821264,-13180,9710,20617,8519126,1115439,3357315,0,0,0,50,62,18,54,40,44,159,84,60,65,43,10,0,,,,,,
2,1779205821264,1880,885,10308,65973,-282219,-2443,0,0,0,158,95,163,135,61,100,597,597,120,630,630,65,0,,,,,,
1,1779205821280,-13898,13093,12701,7540520,482583,3853337,0,0,0,49,61,18,64,42,50,160,90,59,77,49,9,0,,,,,,
2,1779205821280,2096,1201,10155,23212,-211359,8552,0,0,0,167,101,162,136,52,96,598,598,115,636,636,56,0,,,,,,
1,1779205821296,-8791,17133,9743,4638910,-24434,3525914,0,0,0,51,59,9,64,38,44,168,98,53,89,54,9,0,,,,,,
2,1779205821296,2043,1153,10107,25656,-163711,36651,0,0,0,160,97,152,131,55,100,591,591,112,643,643,73,0,,,,,,
1,1779205821312,-2033,19282,9571,-338419,701273,1323134,0,0,0,56,59,15,63,37,44,168,88,53,86,50,6,0,,,,,,
2,1779205821312,1943,1229,10136,41538,-158824,23212,0,0,0,169,112,158,134,57,103,582,582,112,627,627,67,0,,,,,,
1,1779205821328,-3689,14300,8150,-3578448,2018298,-974940,0,0,0,53,59,16,63,38,46,163,93,53,79,57,11,0,,,,,,
2,1779205821328,1804,1411,10155,109955,-125838,-7330,0,0,0,180,129,162,147,85,118,525,529,135,594,594,64,0,,,,,,
1,1779205821344,-7882,8236,5809,-4950451,2244318,-1902234,0,0,0,48,61,15,65,43,50,164,93,59,79,58,12,0,,,,,,
2,1779205821344,1785,1474,10059,246789,-37873,-21991,0,0,0,170,118,170,140,66,126,529,514,144,572,572,81,0,,,,,,
1,1779205821360,-9466,5001,4493,-4937012,1128878,-1379333,0,0,0,48,59,14,66,41,50,166,91,61,88,59,16,0,,,,,,
2,1779205821360,1809,1407,9949,366519,24434,-25656,0,0,0,156,134,170,122,81,124,507,484,141,537,537,58,0,,,,,,
1,1779205821376,-7336,4402,4958,-4885700,124616,-768468,0,0,0,43,59,14,62,40,47,177,96,61,90,62,12,0,,,,,,
2,1779205821376,1847,1277,9849,430049,52534,-21991,0,0,0,143,164,155,123,103,125,487,450,140,508,479,57,0,,,,,,
1,1779205821392,-5838,4221,6010,-4985882,-207694,-541226,0,0,0,40,61,12,58,40,46,181,100,63,91,66,13,0,,,,,,
2,1779205821392,1904,1153,9739,425162,51312,-19547,0,0,0,142,158,149,123,96,118,468,427,132,478,439,56,0,,,,,,
1,1779205821408,-6025,4235,7236,-5276653,-230907,-625526,0,0,0,48,60,11,68,38,48,187,95,64,112,64,13,0,,,,,,
2,1779205821408,1971,1038,9605,397062,37873,-23212,0,0,0,140,149,150,125,93,116,446,428,133,443,431,56,0,,,,,,
1,1779205821424,-6360,4216,8863,-5815437,-505796,-872315,0,0,0,55,58,16,73,39,51,195,91,68,126,62,13,0,,,,,,
2,1779205821424,2024,966,9538,360410,2443,-29321,0,0,0,142,153,152,130,99,118,434,423,136,428,423,59,0,,,,,,
1,1779205821440,-6456,3728,10547,-6333450,-847880,-1189965,0,0,0,57,60,18,72,41,51,196,96,70,123,64,13,0,,,,,,
2,1779205821440,2038,928,9571,335975,-51312,-32986,0,0,0,153,159,152,139,99,121,419,392,139,423,392,61,0,,,,,,
1,1779205821456,-6671,2450,12510,-6697526,-1221730,-1521054,0,0,0,59,62,16,73,42,49,192,100,66,121,67,8,0,,,,,,
2,1779205821456,2010,909,9638,327423,-103847,-35430,0,0,0,159,161,151,145,95,128,393,349,146,405,344,59,0,,,,,,
1,1779205821472,-6920,1560,14620,-6753726,-1512502,-1585806,0,0,0,59,60,17,76,43,51,190,96,64,124,68,6,0,,,,,,
2,1779205821472,1938,899,9705,340862,-134390,-39095,0,0,0,156,162,175,146,98,142,377,312,158,388,303,66,0,,,,,,
1,1779205821488,-7106,1148,17176,-6833138,-1770287,-1556484,0,0,0,59,59,14,79,41,53,188,90,69,129,67,12,0,,,,,,
2,1779205821488,1876,851,9801,375071,-140499,-45204,0,0,0,165,174,210,154,106,165,373,280,183,375,283,86,0,,,,,,
1,1779205821504,-7284,823,20109,-7010289,-1984090,-1473406,0,0,0,59,58,14,76,41,52,191,89,66,128,64,10,0,,,,,,
2,1779205821504,1842,784,9887,416610,-130725,-53756,0,0,0,172,209,199,151,120,168,374,255,183,355,241,95,0,,,,,,
1,1779205821520,-7456,-43,23311,-7195992,-2134363,-1456302,0,0,0,59,56,17,74,39,53,196,97,75,128,66,11,0,,,,,,
2,1779205821520,1847,732,9959,474031,-105068,-69638,0,0,0,191,227,251,154,129,192,373,231,210,330,202,105,0,,,,,,
1,1779205821536,-8456,-1617,26570,-7103140,-2193006,-1742187,0,0,0,60,61,23,76,40,59,193,88,84,128,59,12,0,,,,,,
2,1779205821536,1895,655,9983,542448,-72082,-87964,0,0,0,207,285,241,176,170,212,359,216,221,301,190,100,0,,,,,,
1,1779205821552,-9930,-4020,29762,-6798930,-2434908,-2265088,0,0,0,52,55,14,76,40,59,192,85,81,132,58,13,0,,,,,,
2,1779205821552,1933,526,10011,602313,-36651,-112399,0,0,0,185,261,249,183,162,244,365,176,236,252,160,119,0,,,,,,
1,1779205821568,-9925,-8872,33026,-6382320,-3148399,-2907718,0,0,0,59,59,18,82,38,64,199,88,82,144,65,15,0,,,,,,
2,1779205821568,2057,387,10112,668286,7330,-153938,0,0,0,169,286,264,179,204,254,305,162,264,211,160,131,0,,,,,,
1,1779205821584,-6135,-18147,34046,-6036570,-3577226,-3050661,0,0,0,56,61,18,65,45,54,187,90,72,132,71,16,0,,,,,,
2,1779205821584,2301,344,10404,762359,28099,-224798,0,0,0,163,294,255,206,213,273,272,143,260,183,135,136,0,,,,,,
1,1779205821600,-2335,-28600,30471,-5583308,-3115412,-2516764,0,0,0,56,63,20,70,49,58,179,94,66,140,77,23,0,,,,,,
2,1779205821600,2474,339,10959,935845,0,-310319,0,0,0,178,293,215,247,228,294,261,118,280,184,113,155,0,,,,,,
1,1779205821616,1526,-39071,22689,-4630358,-2323731,-1029918,0,0,0,52,54,18,80,51,64,184,93,71,117,69,20,0,,,,,,
2,1779205821616,2589,287,11653,1199739,-73303,-383623,0,0,0,209,325,159,289,258,298,257,155,275,169,115,165,0,,,,,,
1,1779205821632,9801,-45149,16726,-2879618,-1703092,1119105,0,0,0,46,52,17,78,49,64,181,95,74,97,64,15,0,,,,,,
2,1779205821632,2522,186,12581,1621236,-116064,-472809,0,0,0,226,343,134,314,268,291,227,142,273,185,123,195,0,,,,,,
1,1779205821648,16903,-45474,16037,-1069014,-554665,2210110,0,0,0,41,58,18,65,46,56,185,128,67,98,93,11,0,,,,,,
2,1779205821648,2263,110,13448,2096489,-101403,-544891,0,0,0,241,333,125,316,260,282,199,112,262,183,127,203,0,,,,,,
1,1779205821664,14577,-37238,19037,779464,1368338,1783726,0,0,0,31,53,16,47,47,40,194,221,53,114,180,4,0,,,,,,
2,1779205821664,2392,67,14328,2612059,-106290,-597426,0,0,0,262,316,117,320,253,283,198,114,235,165,122,203,0,,,,,,
1,1779205821680,1952,-11007,21225,2423913,3210707,569326,0,0,0,23,37,8,41,52,39,221,336,52,147,301,3,0,,,,,,
2,1779205821680,3082,19,15118,3199712,-202807,-703716,0,0,0,284,300,121,327,235,290,190,106,230,158,104,209,0,,,,,,
1,1779205821696,-6939,14132,13567,3183829,4268726,-659734,0,0,0,28,33,5,67,57,66,298,397,67,231,383,11,0,,,,,,
2,1779205821696,3728,-4,16166,3985284,-340862,-912632,0,0,0,298,289,122,304,202,296,155,89,251,119,80,179,0,,,,,,
1,1779205821712,-2976,10945,10026,4207639,3663969,-1370781,0,0,0,34,28,4,102,57,86,390,431,62,362,426,20,0,,,,,,
2,1779205821712,4359,143,17721,4773300,-449596,-1158200,0,0,0,263,291,123,275,192,311,150,77,286,97,59,179,0,,,,,,
1,1779205821728,5254,-263,18741,5176472,1362229,-863763,0,0,0,48,33,9,104,45,85,457,469,64,453,474,25,0,,,,,,
2,1779205821728,5876,172,20334,5670051,-532674,-1485624,0,0,0,210,237,152,248,165,287,178,76,278,54,29,149,0,,,,,,
1,1779205821744,5269,-2019,23723,4853935,-30543,239459,0,0,0,64,48,15,101,50,83,509,509,84,501,511,17,0,,,,,,
2,1779205821744,7293,-162,24589,6682865,-591317,-1887573,0,0,0,138,208,88,212,148,262,151,75,230,57,38,115,0,,,,,,
1,1779205821760,-2981,799,20263,3275459,-101403,908967,0,0,0,98,40,80,109,36,102,536,536,117,529,529,35,0,,,,,,
2,1779205821760,8245,215,29346,7593054,-491135,-2223549,0,0,0,130,128,62,191,95,166,165,65,163,66,27,58,0,,,,,,
1,1779205821776,-6302,842,14108,1882686,134390,282219,0,0,0,122,55,87,110,40,103,561,561,102,574,574,23,0,,,,,,
2,1779205821776,8289,1655,31902,8350527,-100181,-2500882,0,0,0,65,65,42,101,63,89,168,63,94,79,38,30,0,,,,,,
1,1779205821792,-3196,67,10882,949284,112399,-265115,0,0,0,154,94,109,109,56,106,577,577,120,588,588,41,0,,,,,,
2,1779205821792,8829,3125,31639,8794015,421497,-2800206,0,0,0,62,43,34,92,46,65,160,91,80,78,57,23,0,,,,,,
1,1779205821808,-1249,239,10303,376292,40317,-246789,0,0,0,163,106,146,107,55,116,579,579,125,583,583,42,0,,,,,,
2,1779205821808,10169,6178,25991,8827002,1007927,-3265685,0,0,0,53,45,34,81,47,64,155,107,94,74,73,21,0,,,,,,
1,1779205821824,-1761,1100,10591,144164,65973,-3665,0,0,0,174,132,163,110,48,120,590,590,132,585,585,44,0,,,,,,
2,1779205821824,9652,12888,15137,7341378,717155,-3749490,0,0,0,47,48,37,72,49,69,158,116,101,71,74,24,0,,,,,,
1,1779205821840,-2311,1517,10251,124616,102625,24434,0,0,0,178,143,168,117,50,127,594,594,149,584,584,53,0,,,,,,
2,1779205821840,6628,19966,11031,3568674,-268780,-3396410,0,0,0,54,48,30,79,50,64,162,117,92,75,75,20,0,,,,,,
1,1779205821856,-2258,1603,10002,180816,101403,13439,0,0,0,162,129,205,114,51,153,573,573,178,565,565,62,0,,,,,,
2,1779205821856,3048,21435,12969,-2023185,-1651779,-1626123,0,0,0,53,52,27,80,54,61,159,117,86,77,81,19,0,,,,,,
1,1779205821872,-1947,1574,10112,280998,73303,29321,0,0,0,155,123,222,119,61,167,543,543,202,531,531,69,0,,,,,,
2,1779205821872,4426,13424,10246,-4577824,-2537534,-30543,0,0,0,46,56,30,77,58,66,156,123,90,74,86,24,0,,,,,,
1,1779205821888,-1847,1627,10289,377514,4886,61086,0,0,0,157,126,237,135,78,178,507,507,213,487,487,78,0,,,,,,
2,1779205821888,7695,6523,4723,-4977329,-2410474,508239,0,0,0,44,55,30,79,61,72,155,126,97,72,88,24,0,,,,,,
1,1779205821904,-1856,1631,10318,469144,-83077,79412,0,0,0,164,131,227,148,79,172,472,472,207,447,447,74,0,,,,,,
2,1779205821904,9495,4422,1325,-4475198,-1040914,149051,0,0,0,44,56,30,78,62,76,156,125,94,78,91,25,0,,,,,,
1,1779205821920,-1895,1512,10212,536339,-174707,83077,0,0,0,167,136,186,152,66,158,450,450,197,421,399,54,0,,,,,,
2,1779205821920,7164,6178,3847,-4831944,226020,-8552,0,0,0,51,58,30,84,57,68,167,123,87,87,92,28,0,,,,,,
1,1779205821936,-1990,1292,9868,547335,-229685,85521,0,0,0,159,143,188,156,75,183,436,426,199,387,322,48,0,,,,,,
2,1779205821936,5599,6580,6360,-5374392,586430,260228,0,0,0,45,58,32,85,60,73,162,125,92,83,89,23,0,,,,,,
1,1779205821952,-2124,1086,9538,491135,-204028,91629,0,0,0,147,148,201,159,84,206,424,381,196,344,272,48,0,,,,,,
2,1779205821952,5958,5111,7413,-5684711,729373,712268,0,0,0,41,96,33,73,82,73,162,139,91,82,104,22,0,,,,,,
1,1779205821968,-2249,952,9428,433714,-153938,96516,0,0,0,143,135,198,137,78,193,418,350,214,311,240,54,0,,,,,,
2,1779205821968,6211,3986,7997,-5585751,1284038,908967,0,0,0,41,64,31,73,61,70,157,133,93,80,95,22,0,,,,,,
1,1779205821984,-2292,914,9451,400727,-102625,101403,0,0,0,143,141,182,134,86,172,410,312,207,293,233,55,0,,,,,,
2,1779205821984,5565,3929,9485,-5582086,1764178,1056796,0,0,0,47,56,27,83,62,73,160,129,93,84,92,26,0,,,,,,
1,1779205822000,-2244,909,9499,371406,-47647,108734,0,0,0,148,147,191,132,85,174,404,296,205,275,214,55,0,,,,,,
2,1779205822000,4996,4364,11591,-5820323,2013411,1275486,0,0,0,46,55,30,83,58,73,137,118,93,84,90,24,0,,,,,,
1,1779205822016,-2163,909,9576,350636,-8552,116064,0,0,0,145,157,192,135,101,189,403,288,221,272,209,64,0,,,,,,
2,1779205822016,5044,4417,13395,-6140417,2123367,1525941,0,0,0,43,57,34,76,58,71,164,129,95,83,90,24,0,,,,,,
1,1779205822032,-2077,885,9676,344527,4886,117286,0,0,0,146,165,182,136,99,189,395,215,234,260,170,67,0,,,,,,
2,1779205822032,5369,4139,15702,-6371324,2294409,1767844,0,0,0,42,56,31,76,60,72,168,133,97,85,94,27,0,,,,,,
1,1779205822048,-1966,847,9810,366519,-14660,118507,0,0,0,132,182,191,136,109,228,399,206,267,238,180,90,0,,,,,,
2,1779205822048,5599,3948,19009,-6531371,2502104,1930334,0,0,0,42,56,30,78,59,73,152,127,96,84,96,28,0,,,,,,
1,1779205822064,-1923,784,9959,414166,-75747,123394,0,0,0,163,199,207,164,122,236,397,195,235,216,156,92,0,,,,,,
2,1779205822064,5891,3919,23211,-6763499,2640159,2020742,0,0,0,41,54,33,79,56,75,155,127,100,82,93,27,0,,,,,,
1,1779205822080,-2139,713,9964,482583,-147829,147829,0,0,0,160,192,232,172,124,263,380,163,260,196,122,123,0,,,,,,
2,1779205822080,6365,3665,28049,-7055493,2759889,2199114,0,0,0,42,55,34,78,59,75,173,135,102,83,91,27,0,,,,,,
1,1779205822096,-2392,626,9667,566882,-183259,206472,0,0,0,149,198,254,178,129,281,366,142,289,181,105,144,0,,,,,,
2,1779205822096,6365,1957,32782,-7247305,2893057,2612059,0,0,0,46,59,30,79,64,70,175,132,93,90,90,26,0,,,,,,
1,1779205822112,-2579,516,9657,643851,-190589,279776,0,0,0,150,226,251,186,150,296,364,129,320,163,97,175,0,,,,,,
2,1779205822112,4771,-4843,36415,-7060380,3196046,3258355,0,0,0,47,52,28,83,57,67,177,125,91,99,87,24,0,,,,,,
1,1779205822128,-2756,411,10155,726929,-180816,373849,0,0,0,142,265,203,214,179,335,352,127,366,137,85,201,0,,,,,,
2,1779205822128,2546,-16396,38482,-6476393,3081204,3622430,0,0,0,48,49,26,87,57,66,177,132,93,91,89,23,0,,,,,,
1,1779205822144,-2646,378,10686,858876,-149051,433714,0,0,0,144,299,152,259,186,378,330,125,400,123,80,219,0,,,,,,
2,1779205822144,3857,-32663,33433,-5385387,1666440,2915048,0,0,0,49,48,28,94,58,74,176,132,92,90,85,24,0,,,,,,
1,1779205822160,-2426,416,11289,1072679,-112399,466701,0,0,0,169,309,134,285,177,397,292,111,400,127,85,250,0,,,,,,
2,1779205822160,4718,-44685,21316,-3754377,1040914,448375,0,0,0,52,54,23,103,72,77,178,150,91,88,101,24,0,,,,,,
1,1779205822176,-2163,430,11993,1353677,-76969,458148,0,0,0,179,310,122,291,180,405,226,101,379,131,87,285,0,,,,,,
2,1779205822176,-4962,-48202,15156,-1941329,1532050,-2151467,0,0,0,51,54,25,96,69,74,178,153,92,87,104,24,0,,,,,,
1,1779205822192,-1842,272,12605,1689653,-80634,425162,0,0,0,179,343,116,298,186,411,237,82,360,133,77,337,0,,,,,,
2,1779205822192,-16984,-44307,17927,-437379,989601,-2923601,0,0,0,44,48,23,84,59,66,178,161,87,94,123,24,0,,,,,,
1,1779205822208,-1861,57,13117,2069611,-162490,362853,0,0,0,170,350,115,303,205,412,385,81,360,105,68,357,0,,,,,,
2,1779205822208,-11696,-31921,22244,1238834,-1420872,-1850921,0,0,0,32,34,13,69,48,44,208,229,73,150,231,20,0,,,,,,
1,1779205822224,-2895,71,13797,2547308,-222354,375071,0,0,0,186,379,111,311,208,403,153,108,363,123,95,326,0,,,,,,
2,1779205822224,933,-5364,21191,2684141,-3292563,-779464,0,0,0,33,33,10,52,35,43,240,322,64,186,336,16,0,,,,,,
1,1779205822240,-3924,186,14639,3110525,-145385,536339,0,0,0,185,332,120,273,213,414,406,113,346,120,78,294,0,,,,,,
2,1779205822240,9853,17970,11864,3646865,-4207639,240680,0,0,0,53,41,8,89,50,64,286,392,68,252,397,20,0,,,,,,
1,1779205822256,-4632,201,15989,3892433,25656,823446,0,0,0,181,318,98,290,214,375,238,92,378,103,64,249,0,,,,,,
2,1779205822256,2904,7207,11289,4640132,-3163060,697608,0,0,0,71,48,13,122,62,86,355,446,62,364,458,21,0,,,,,,
1,1779205822272,-5680,363,17980,4707327,122173,1145983,0,0,0,151,280,105,243,183,365,202,85,347,82,53,188,0,,,,,,
2,1779205822272,-4742,-2938,19224,5221676,-1491732,507018,0,0,0,82,47,17,122,57,93,434,484,66,477,509,26,0,,,,,,
1,1779205822288,-7633,382,21713,5685933,168598,1571145,0,0,0,166,178,75,272,118,315,235,66,265,111,40,139,0,,,,,,
2,1779205822288,-3460,-2254,24819,4454429,-444709,-420275,0,0,0,106,56,39,118,44,92,497,509,74,540,540,36,0,,,,,,
1,1779205822304,-9442,406,25948,6671870,279776,2059837,0,0,0,98,115,79,167,73,287,166,52,250,89,32,152,0,,,,,,
2,1779205822304,3278,933,18846,2899166,-415388,-530231,0,0,0,147,74,77,128,40,86,537,537,75,566,566,39,0,,,,,,
1,1779205822320,-9724,942,28896,7465994,491135,2497217,0,0,0,43,119,56,97,100,185,303,79,155,48,32,77,0,,,,,,
2,1779205822320,4398,1062,12557,1646892,-474031,-42760,0,0,0,173,79,104,133,41,88,562,562,110,583,583,55,0,,,,,,
1,1779205822336,-8743,2206,30547,8025547,789237,2792875,0,0,0,25,84,21,57,76,74,431,92,57,37,62,26,0,,,,,,
2,1779205822336,2019,105,9954,807563,-393397,260228,0,0,0,171,79,126,136,36,126,580,580,166,597,597,99,0,,,,,,
1,1779205822352,-9624,5125,28978,8403062,1009149,2966361,0,0,0,25,60,10,37,51,37,464,99,29,44,68,19,0,,,,,,
2,1779205822352,1450,349,10260,311541,-257785,127059,0,0,0,169,78,127,142,39,93,604,604,124,613,613,64,0,,,,,,
1,1779205822368,-12356,9499,21674,8524013,962723,3230255,0,0,0,35,61,15,42,49,45,466,100,36,50,53,15,0,,,,,,
2,1779205822368,1895,1062,10385,101403,-244346,12217,0,0,0,183,94,153,133,41,81,598,598,111,618,618,41,0,,,,,,
1,1779205822384,-13031,12356,13505,7767762,511905,3655417,0,0,0,40,57,13,46,45,47,470,95,34,44,52,3,0,,,,,,
2,1779205822384,2005,1507,10169,30543,-210137,6108,0,0,0,205,119,176,145,52,81,602,602,97,626,626,37,0,,,,,,
1,1779205822400,-8064,16085,10653,4571715,250454,3122743,0,0,0,36,60,11,40,47,42,474,104,31,43,67,5,0,,,,,,
2,1779205822400,1928,1564,10007,41538,-136833,25656,0,0,0,193,91,166,154,58,113,587,587,141,622,622,59,0,,,,,,
1,1779205822416,-3254,18056,9820,-119729,766025,1128878,0,0,0,37,64,10,47,57,41,472,108,28,64,86,16,0,,,,,,
2,1779205822416,1904,1588,10007,106290,-109955,9773,0,0,0,201,87,182,173,57,100,582,582,123,604,604,68,0,,,,,,
1,1779205822432,-3613,14094,8614,-3650530,1750739,-1165530,0,0,0,37,77,7,47,80,40,471,127,32,67,94,14,0,,,,,,
2,1779205822432,1818,1684,10078,202807,-94073,-14660,0,0,0,204,117,191,177,78,111,557,557,131,581,581,76,0,,,,,,
1,1779205822448,-7398,7800,5924,-4699997,1966986,-2036624,0,0,0,40,94,14,39,90,33,471,136,35,67,99,14,0,,,,,,
2,1779205822448,1718,1732,10054,332310,-20769,-29321,0,0,0,190,126,186,171,85,118,534,534,138,548,548,79,0,,,,,,
1,1779205822464,-8882,4857,4201,-4460537,884532,-1439198,0,0,0,38,87,16,41,79,45,467,133,50,64,96,11,0,,,,,,
2,1779205822464,1742,1660,9949,433714,51312,-29321,0,0,0,183,119,182,164,83,118,508,508,140,519,519,72,0,,,,,,
1,1779205822480,-7614,4469,4283,-4386012,-135612,-824668,0,0,0,40,92,16,43,80,36,463,128,39,62,91,12,0,,,,,,
2,1779205822480,1842,1469,9815,475253,79412,-21991,0,0,0,178,117,202,150,80,124,484,466,148,491,484,74,0,,,,,,
1,1779205822496,-5628,4938,5661,-4627915,-496022,-598647,0,0,0,42,98,17,43,67,43,464,120,38,63,88,13,0,,,,,,
2,1779205822496,1938,1292,9700,443488,54977,-20769,0,0,0,168,119,212,142,79,138,466,417,159,466,460,76,0,,,,,,
1,1779205822512,-5604,4905,7193,-5106833,-304210,-788016,0,0,0,38,103,15,45,75,45,465,124,35,66,95,16,0,,,,,,
2,1779205822512,2000,1206,9600,390953,10995,-26878,0,0,0,161,124,206,141,84,146,444,380,164,442,440,70,0,,,,,,
1,1779205822528,-6288,4603,8705,-5693264,-313984,-1015258,0,0,0,41,78,11,49,53,40,469,129,42,79,89,14,0,,,,,,
2,1779205822528,2024,1196,9581,346971,-47647,-35430,0,0,0,158,129,204,140,96,150,421,360,170,423,396,69,0,,,,,,
1,1779205822544,-6949,3857,10337,-6317568,-693942,-1207069,0,0,0,39,69,9,47,53,42,463,137,47,74,71,4,0,,,,,,
2,1779205822544,1990,1158,9619,332310,-96516,-40317,0,0,0,158,136,196,148,103,155,414,336,175,417,335,71,0,,,,,,
1,1779205822560,-6824,2809,11935,-6706078,-1204626,-1310916,0,0,0,37,71,9,46,58,42,465,138,53,73,79,7,0,,,,,,
2,1779205822560,1928,1095,9662,324980,-130725,-43982,0,0,0,167,149,196,158,96,158,414,300,170,404,297,75,0,,,,,,
1,1779205822576,-6288,1957,13955,-6840468,-1556484,-1373225,0,0,0,38,69,11,48,57,43,466,133,49,72,86,14,0,,,,,,
2,1779205822576,1847,1033,9696,323758,-135612,-50090,0,0,0,167,144,220,156,84,177,403,266,195,385,283,95,0,,,,,,
1,1779205822592,-6202,1531,16511,-6918659,-1759291,-1391551,0,0,0,41,70,12,49,60,46,456,135,48,73,84,10,0,,,,,,
2,1779205822592,1794,1033,9763,340862,-120951,-56199,0,0,0,172,153,217,154,80,160,396,233,187,378,236,95,0,,,,,,
1,1779205822608,-6613,1220,19535,-7026171,-1957212,-1286482,0,0,0,42,71,12,50,58,49,452,136,53,80,87,7,0,,,,,,
2,1779205822608,1794,1028,9853,383623,-102625,-63529,0,0,0,195,160,215,168,93,163,371,239,191,333,219,91,0,,,,,,
1,1779205822624,-6647,421,23282,-7158118,-2245540,-1087340,0,0,0,39,67,9,52,50,49,459,128,48,78,95,11,0,,,,,,
2,1779205822624,1871,985,9940,450818,-85521,-73303,0,0,0,179,184,247,161,112,211,356,214,236,333,197,129,0,,,,,,
1,1779205822640,-6685,-670,27097,-7219205,-2408030,-1082453,0,0,0,40,67,12,52,53,53,457,135,53,75,107,11,0,,,,,,
2,1779205822640,1923,871,9930,515570,-72082,-92851,0,0,0,180,210,294,161,121,235,330,185,252,292,185,140,0,,,,,,
1,1779205822656,-7441,-3225,30858,-7128797,-2575407,-1532050,0,0,0,45,65,17,48,47,63,461,125,57,92,112,13,0,,,,,,
2,1779205822656,1966,741,9944,570548,-53756,-124616,0,0,0,177,272,298,187,161,238,325,178,264,263,161,132,0,,,,,,
1,1779205822672,-7461,-8585,34261,-6886894,-3086091,-2241875,0,0,0,42,57,18,54,42,49,471,97,47,85,79,6,0,,,,,,
2,1779205822672,2091,670,10122,638965,-20769,-174707,0,0,0,182,288,297,193,190,235,332,154,265,229,134,135,0,,,,,,
1,1779205822688,-5508,-17391,35295,-6521597,-3508809,-2676811,0,0,0,40,59,58,56,46,88,458,93,87,81,79,40,0,,,,,,
2,1779205822688,2287,622,10466,757472,-3665,-244346,0,0,0,196,302,290,221,222,275,320,135,284,200,107,157,0,,,,,,
1,1779205822704,-3010,-28925,31461,-5944940,-3132516,-2388483,0,0,0,41,74,46,54,42,82,448,90,77,87,67,28,0,,,,,,
2,1779205822704,2354,574,10935,945619,-13439,-323758,0,0,0,208,311,258,252,219,303,305,131,297,189,98,175,0,,,,,,
1,1779205822720,1072,-40756,22703,-4634023,-2526538,-1025031,0,0,0,39,54,50,61,43,91,424,87,95,73,52,28,0,,,,,,
2,1779205822720,2316,531,11538,1202182,-36651,-389732,0,0,0,222,308,200,265,206,294,273,127,282,177,96,173,0,,,,,,
1,1779205822736,9136,-47216,16956,-2916270,-2122145,426383,0,0,0,39,56,64,57,44,99,410,94,104,83,66,39,0,,,,,,
2,1779205822736,2100,440,12266,1556484,-56199,-428827,0,0,0,234,326,159,286,228,283,232,120,258,164,98,165,0,,,,,,
1,1779205822752,18750,-47527,15860,-684169,-805120,1353677,0,0,0,31,57,26,49,53,60,382,109,62,66,79,12,0,,,,,,
2,1779205822752,2019,263,12883,1954768,-62308,-448375,0,0,0,237,356,147,319,263,297,203,113,267,162,112,184,0,,,,,,
1,1779205822768,13926,-38516,18162,1088561,1318247,970053,0,0,0,32,50,8,45,48,40,266,171,67,105,133,2,0,,,,,,
2,1779205822768,2182,177,13720,2381152,-67195,-472809,0,0,0,244,346,120,310,270,320,172,108,301,158,124,220,0,,,,,,
1,1779205822784,2459,-13543,20535,2491108,2795319,386066,0,0,0,25,43,7,40,46,44,223,287,60,129,249,5,0,,,,,,
2,1779205822784,2943,157,14615,2961474,-150272,-560774,0,0,0,266,330,126,285,260,306,186,116,255,143,107,199,0,,,,,,
1,1779205822800,-7882,20334,15917,2972470,3770260,-426383,0,0,0,24,38,10,50,51,63,270,373,59,180,350,13,0,,,,,,
2,1779205822800,3713,57,15439,3678630,-273667,-761138,0,0,0,281,298,158,290,210,308,192,89,252,137,74,226,0,,,,,,
1,1779205822816,-5623,19612,8805,3170390,3952298,-981049,0,0,0,28,33,13,64,50,92,351,421,79,281,408,25,0,,,,,,
2,1779205822816,4173,67,16568,4397007,-370184,-1016479,0,0,0,252,304,141,266,212,293,177,87,274,107,63,175,0,,,,,,
1,1779205822832,3627,717,14395,4695110,2204001,-814894,0,0,0,48,54,28,69,50,126,429,469,107,398,470,34,0,,,,,,
2,1779205822832,5498,210,18827,5241223,-471587,-1341460,0,0,0,224,310,124,243,215,278,163,86,296,78,53,124,0,,,,,,
1,1779205822848,5809,-3823,22263,5043303,437379,64751,0,0,0,82,75,33,89,51,119,482,502,99,486,516,33,0,,,,,,
2,1779205822848,6838,-38,21986,6126978,-598647,-1726305,0,0,0,173,311,129,215,229,285,149,106,274,53,55,87,0,,,,,,
1,1779205822864,-1005,-186,21339,3718947,100181,700051,0,0,0,104,67,28,111,43,69,522,522,59,530,534,27,0,,,,,,
2,1779205822864,7776,-224,26556,7068932,-645073,-2112371,0,0,0,118,204,97,178,140,228,137,76,190,50,31,87,0,,,,,,
1,1779205822880,-5489,1158,16329,2150245,174707,395840,0,0,0,123,71,46,105,39,58,551,551,73,563,563,19,0,,,,,,
2,1779205822880,7910,641,29619,7806857,-327423,-2364048,0,0,0,88,108,58,138,82,124,148,68,118,62,27,51,0,,,,,,
1,1779205822896,-3598,378,11672,1056796,163711,-239459,0,0,0,135,75,62,116,48,76,569,569,81,561,561,24,0,,,,,,
2,1779205822896,7891,2239,30954,8461705,196698,-2631607,0,0,0,63,56,31,100,52,70,147,74,85,73,58,25,0,,,,,,
1,1779205822912,-1129,215,10074,466701,-21991,-293215,0,0,0,162,76,115,114,38,77,574,574,102,589,589,24,0,,,,,,
2,1779205822912,8600,3967,29131,8747590,777020,-2972470,0,0,0,54,48,32,87,43,63,161,89,81,85,82,22,0,,,,,,
1,1779205822928,-1713,990,10265,257785,-47647,-61086,0,0,0,176,103,119,109,39,115,574,574,127,593,593,46,0,,,,,,
2,1779205822928,8868,8561,20689,8280889,691499,-3413514,0,0,0,52,51,33,88,47,60,174,108,81,89,93,22,0,,,,,,
1,1779205822944,-2383,1478,10284,183259,2443,20769,0,0,0,170,163,125,134,77,109,549,550,129,577,577,50,0,,,,,,
2,1779205822944,7949,15372,12404,6087882,-157603,-3595552,0,0,0,47,49,26,81,53,57,166,123,80,82,95,18,0,,,,,,
1,1779205822960,-2368,1584,10050,222354,37873,15882,0,0,0,170,143,194,130,58,141,552,552,144,562,562,58,0,,,,,,
2,1779205822960,5451,21210,10983,1061683,-1222952,-2671924,0,0,0,43,50,26,74,57,59,157,126,81,80,91,17,0,,,,,,
1,1779205822976,-2105,1555,9978,290771,40317,24434,0,0,0,180,132,204,129,55,139,533,533,141,537,537,58,0,,,,,,
2,1779205822976,4168,16970,11610,-3154508,-1908343,-960280,0,0,0,47,48,25,80,60,60,164,122,85,84,89,20,0,,,,,,
1,1779205822992,-1933,1560,10155,359188,0,48869,0,0,0,170,149,170,136,75,125,503,503,154,493,493,52,0,,,,,,
2,1779205822992,5451,9246,7824,-4883256,-2265088,215024,0,0,0,44,46,24,84,61,63,174,118,94,83,87,16,0,,,,,,
1,1779205823008,-1966,1651,10270,428827,-68416,65973,0,0,0,169,147,139,147,74,125,476,476,147,456,456,45,0,,,,,,
2,1779205823008,7930,4422,2751,-4444655,-1745852,343306,0,0,0,57,48,25,98,61,62,186,112,90,96,86,14,0,,,,,,
1,1779205823024,-2024,1641,10184,500909,-133168,72082,0,0,0,166,140,146,155,71,137,458,458,145,432,432,38,0,,,,,,
2,1779205823024,7944,4766,2378,-4246735,-585208,146607,0,0,0,52,50,22,94,62,64,135,101,87,91,92,15,0,,,,,,
1,1779205823040,-2081,1440,9863,546113,-175929,79412,0,0,0,162,139,170,155,75,153,443,434,177,416,394,43,0,,,,,,
2,1779205823040,6523,5982,4608,-4659680,177150,268780,0,0,0,39,55,32,80,80,74,157,126,98,83,100,31,0,,,,,,
1,1779205823056,-2124,1167,9576,525344,-172263,86742,0,0,0,158,139,179,149,76,165,430,401,208,386,351,54,0,,,,,,
2,1779205823056,6010,5876,6537,-5243667,316428,712268,0,0,0,47,60,30,88,93,74,174,127,84,94,101,18,0,,,,,,
1,1779205823072,-2211,966,9442,454483,-141720,89186,0,0,0,152,147,188,146,75,177,420,355,213,354,321,63,0,,,,,,
2,1779205823072,6939,4484,7063,-5500230,624304,1104444,0,0,0,43,73,23,86,113,70,166,137,83,86,108,20,0,,,,,,
1,1779205823088,-2297,923,9447,393397,-102625,91629,0,0,0,151,158,200,147,75,190,410,301,213,339,296,70,0,,,,,,
2,1779205823088,7097,3546,7901,-5573534,1183856,1335351,0,0,0,38,74,22,80,119,67,159,142,80,84,112,18,0,,,,,,
1,1779205823104,-2321,947,9509,355523,-53756,98960,0,0,0,149,161,200,146,76,197,404,270,222,319,277,64,0,,,,,,
2,1779205823104,6202,3431,9672,-5659055,1677435,1529606,0,0,0,43,69,21,86,113,67,168,138,83,89,107,19,0,,,,,,
1,1779205823120,-2254,947,9571,335975,-10995,106290,0,0,0,154,163,215,150,73,205,399,230,228,305,244,74,0,,,,,,
2,1779205823120,5742,3632,11777,-5937610,1791056,1809382,0,0,0,45,67,23,88,105,69,168,134,88,90,103,19,0,,,,,,
1,1779205823136,-2139,928,9662,329867,6108,111177,0,0,0,136,163,213,149,79,218,398,220,242,277,230,84,0,,,,,,
2,1779205823136,6034,3570,13510,-6208834,1872912,2017077,0,0,0,44,66,26,88,103,70,166,136,91,90,105,20,0,,,,,,
1,1779205823152,-2057,894,9763,343306,0,111177,0,0,0,132,178,214,143,89,240,391,183,302,268,198,110,0,,,,,,
2,1779205823152,6599,3230,15946,-6449515,2138028,2102598,0,0,0,44,65,25,89,105,69,170,138,86,92,107,21,0,,,,,,
1,1779205823168,-1990,866,9858,376292,-36651,111177,0,0,0,135,183,204,145,87,234,391,158,263,255,186,104,0,,,,,,
2,1779205823168,6537,2847,19353,-6599788,2393370,2030516,0,0,0,45,67,24,91,106,68,174,140,84,91,106,20,0,,,,,,
1,1779205823184,-2014,789,9944,426383,-101403,113620,0,0,0,134,197,229,141,85,283,381,158,288,229,154,136,0,,,,,,
2,1779205823184,6637,2435,23579,-6776938,2486221,1982868,0,0,0,45,72,26,89,105,70,177,143,89,90,105,20,0,,,,,,
1,1779205823200,-2172,693,9949,483805,-168598,133168,0,0,0,127,198,244,138,88,293,375,143,320,201,110,177,0,,,,,,
2,1779205823200,7461,1780,28566,-6968750,2470339,2092824,0,0,0,44,71,26,88,99,69,175,140,89,89,101,25,0,,,,,,
1,1779205823216,-2397,603,9887,547335,-215024,180816,0,0,0,133,242,214,144,98,295,366,132,326,160,92,187,0,,,,,,
2,1779205823216,8475,-119,32615,-7054271,2542421,2432465,0,0,0,44,73,27,87,104,69,174,135,88,93,101,24,0,,,,,,
1,1779205823232,-2593,536,10093,618195,-221133,244346,0,0,0,137,240,194,177,102,332,352,118,351,147,93,184,0,,,,,,
2,1779205823232,8083,-7059,34912,-6849021,2982244,2944370,0,0,0,51,62,26,95,89,69,192,123,85,123,90,21,0,,,,,,
1,1779205823248,-2876,488,10471,739146,-194255,317649,0,0,0,157,241,167,222,124,345,357,104,350,149,76,187,0,,,,,,
2,1779205823248,5599,-18760,35769,-6267477,3251024,3045774,0,0,0,39,59,27,87,79,77,168,122,89,94,97,24,0,,,,,,
1,1779205823264,-2991,373,10806,904080,-122173,394618,0,0,0,158,270,141,242,146,360,345,101,349,147,62,223,0,,,,,,
2,1779205823264,3426,-33792,29667,-5143485,2288301,1931555,0,0,0,44,67,28,91,79,75,177,128,92,94,96,22,0,,,,,,
1,1779205823280,-2617,320,11351,1108109,-63529,448375,0,0,0,146,310,123,242,165,382,298,103,353,136,70,264,0,,,,,,
2,1779205823280,-693,-44311,20588,-3628539,1648114,-89186,0,0,0,44,70,26,91,77,75,177,127,90,103,111,24,0,,,,,,
1,1779205823296,-2182,344,12002,1373225,-50090,460592,0,0,0,145,350,122,268,207,397,253,109,360,131,79,295,0,,,,,,
2,1779205823296,-9978,-46699,16137,-1929112,1434311,-2118480,0,0,0,48,80,28,91,73,72,177,131,90,99,117,25,0,,,,,,
1,1779205823312,-1832,224,12390,1692096,-97738,426383,0,0,0,143,367,116,307,244,408,214,101,368,142,81,331,0,,,,,,
2,1779205823312,-16707,-43991,17745,-416610,417831,-2775771,0,0,0,51,70,29,87,79,68,193,176,93,104,151,21,0,,,,,,
1,1779205823328,-2105,47,12830,2050063,-179594,378736,0,0,0,146,360,89,307,238,397,216,68,345,148,88,339,0,,,,,,
2,1779205823328,-10404,-27647,22311,1436755,-1723861,-1890017,0,0,0,32,42,11,68,57,51,210,249,74,147,247,17,0,,,,,,
1,1779205823344,-3125,43,13582,2510656,-232128,417831,0,0,0,154,368,110,278,226,410,379,89,353,132,90,323,0,,,,,,
2,1779205823344,2182,4876,20569,2744006,-3580892,-640186,0,0,0,32,33,0,76,52,56,244,345,62,219,348,11,0,,,,,,
1,1779205823360,-4034,119,14606,3098308,-177150,608421,0,0,0,158,352,100,244,232,402,383,92,378,130,111,322,0,,,,,,
2,1779205823360,6393,15194,11485,3324328,-4279721,296880,0,0,0,43,56,10,82,72,74,287,418,73,286,419,20,0,,,,,,
1,1779205823376,-4589,172,15975,3852116,-52534,889419,0,0,0,164,306,91,292,235,384,262,97,379,114,83,276,0,,,,,,
2,1779205823376,1416,5656,10375,4366464,-3512475,631634,0,0,0,52,67,20,95,79,88,338,455,75,363,468,27,0,,,,,,
1,1779205823392,-5503,416,17870,4629136,12217,1177748,0,0,0,154,270,99,240,159,352,250,102,348,88,58,202,0,,,,,,
2,1779205823392,-4991,-3732,18942,5013981,-1646892,183259,0,0,0,60,56,19,125,63,99,408,492,65,477,521,15,0,,,,,,
1,1779205823408,-7274,526,21746,5610186,15882,1579697,0,0,0,144,272,81,215,134,265,275,123,273,72,48,104,0,,,,,,
2,1779205823408,-1617,-708,22383,4295604,-532674,-619417,0,0,0,70,70,21,119,70,93,480,528,79,562,565,18,0,,,,,,
1,1779205823424,-8901,555,26341,6715852,20769,2050063,0,0,0,88,159,64,150,126,243,246,116,215,73,60,94,0,,,,,,
2,1779205823424,3790,1742,18310,3105638,-334754,-649960,0,0,0,107,78,33,121,83,75,533,544,74,578,578,30,0,,,,,,
1,1779205823440,-8748,1124,28762,7535633,140499,2428800,0,0,0,43,99,50,89,90,182,346,85,138,45,44,59,0,,,,,,
2,1779205823440,4541,981,12763,1935221,-476474,-61086,0,0,0,133,98,90,121,70,83,562,562,81,591,591,33,0,,,,,,
1,1779205823456,-7901,2206,30064,8086634,338419,2693915,0,0,0,30,63,25,51,53,81,189,85,83,35,49,24,0,,,,,,
2,1779205823456,2153,-14,10964,1032362,-399505,202807,0,0,0,137,82,112,129,65,100,571,571,135,597,597,49,0,,,,,,
1,1779205823472,-8758,4484,29274,8425053,643851,2855184,0,0,0,32,55,14,42,44,40,301,83,49,59,47,9,0,,,,,,
2,1779205823472,1383,239,10576,448375,-224798,153938,0,0,0,138,88,164,124,66,112,581,581,152,608,608,97,0,,,,,,
1,1779205823488,-11753,9097,21521,8345640,825889,3065321,0,0,0,36,61,15,44,44,39,392,90,44,60,46,8,0,,,,,,
2,1779205823488,1995,1076,10270,208915,-163711,37873,0,0,0,146,79,149,140,56,112,582,582,126,615,615,75,0,,,,,,
1,1779205823504,-12821,13132,13127,7464773,637743,3446501,0,0,0,43,64,21,44,50,47,246,117,51,53,54,8,0,,,,,,
2,1779205823504,2053,1325,10045,145385,-169820,32986,0,0,0,162,79,149,145,55,104,585,585,130,610,610,66,0,,,,,,
1,1779205823520,-8748,17200,9729,4541172,279776,3185051,0,0,0,41,60,22,47,52,49,250,117,49,58,61,12,0,,,,,,
2,1779205823520,1952,1397,10026,136833,-139277,31764,0,0,0,168,90,156,159,60,108,576,576,135,593,593,60,0,,,,,,
1,1779205823536,-3522,18152,9796,-379958,878424,1121548,0,0,0,35,61,20,50,49,47,310,97,49,65,62,20,0,,,,,,
2,1779205823536,1856,1469,10093,200363,-94073,6108,0,0,0,183,104,144,174,65,108,550,550,129,562,562,51,0,,,,,,
1,1779205823552,-3058,13716,8925,-3809355,1920560,-912632,0,0,0,39,68,26,50,47,56,143,100,64,66,61,20,0,,,,,,
2,1779205823552,1765,1545,10093,310319,-23212,-20769,0,0,0,186,100,141,185,65,121,527,527,133,534,534,48,0,,,,,,
1,1779205823568,-6752,6958,6087,-4747644,2350609,-1748296,0,0,0,43,61,39,52,40,69,148,100,73,68,63,22,0,,,,,,
2,1779205823568,1751,1555,10040,417831,68416,-32986,0,0,0,183,104,132,187,75,120,498,498,131,497,497,43,0,,,,,,
1,1779205823584,-8494,4431,4020,-4298047,1329242,-1220508,0,0,0,37,57,41,47,41,79,148,103,84,62,67,25,0,,,,,,
2,1779205823584,1856,1450,9901,497244,149051,-34208,0,0,0,176,121,135,179,91,121,477,470,135,457,460,45,0,,,,,,
1,1779205823600,-7398,4393,3977,-4117231,295658,-701273,0,0,0,39,62,39,52,51,68,148,114,74,62,67,21,0,,,,,,
2,1779205823600,1981,1249,9724,510683,163711,-39095,0,0,0,174,131,154,172,92,136,457,427,156,424,418,53,0,,,,,,
1,1779205823616,-5455,5149,5585,-4455651,-17104,-591317,0,0,0,38,58,28,52,49,68,165,111,86,66,67,25,0,,,,,,
2,1779205823616,2072,1100,9605,485026,141720,-46425,0,0,0,176,129,159,171,81,147,438,373,173,399,364,53,0,,,,,,
1,1779205823632,-5800,5020,7135,-5059185,226020,-842994,0,0,0,39,63,44,46,46,95,156,115,111,66,67,32,0,,,,,,
2,1779205823632,2158,1062,9590,452040,92851,-53756,0,0,0,167,134,146,163,86,156,435,337,180,378,318,51,0,,,,,,
1,1779205823648,-7599,3981,8360,-5661499,14660,-1122770,0,0,0,41,65,43,41,47,71,165,115,87,65,67,21,0,,,,,,
2,1779205823648,2220,1009,9605,427605,30543,-54977,0,0,0,167,143,142,160,95,166,428,296,181,364,292,58,0,,,,,,
1,1779205823664,-8250,2957,9839,-6122091,-510683,-1336573,0,0,0,38,69,36,45,47,58,163,116,81,69,73,21,0,,,,,,
2,1779205823664,2191,894,9609,390953,-47647,-54977,0,0,0,174,154,159,163,101,147,424,257,170,361,268,62,0,,,,,,
1,1779205823680,-7997,2105,11634,-6455623,-917519,-1567480,0,0,0,41,72,42,40,46,56,165,116,85,68,71,17,0,,,,,,
2,1779205823680,2110,842,9667,366519,-97738,-54977,0,0,0,179,160,151,178,105,146,416,238,200,359,278,62,0,,,,,,
1,1779205823696,-8585,1167,13649,-6712187,-1077566,-1819156,0,0,0,39,73,42,39,46,58,163,115,88,70,74,19,0,,,,,,
2,1779205823696,2010,847,9758,368962,-111177,-62308,0,0,0,204,159,171,195,100,159,410,198,219,336,202,61,0,,,,,,
1,1779205823712,-9652,358,15797,-6875899,-1320690,-1921782,0,0,0,39,78,41,44,49,58,159,114,84,74,80,21,0,,,,,,
2,1779205823712,1957,823,9806,403171,-89186,-68416,0,0,0,167,216,194,169,159,184,407,196,224,329,183,90,0,,,,,,
1,1779205823728,-10466,-162,18913,-7016398,-1723861,-1876578,0,0,0,38,80,35,45,52,57,158,115,84,73,79,22,0,,,,,,
2,1779205823728,1986,741,9820,442266,-53756,-75747,0,0,0,160,187,218,173,129,212,394,195,235,302,167,104,0,,,,,,
1,1779205823744,-10873,-703,22474,-7175223,-2053728,-1821600,0,0,0,37,76,30,46,54,58,160,116,85,69,71,22,0,,,,,,
2,1779205823744,2081,660,9844,472809,-18325,-91629,0,0,0,171,176,227,194,134,224,388,188,245,246,151,125,0,,,,,,
1,1779205823760,-11940,-2526,26680,-7294952,-2316400,-1888795,0,0,0,43,72,35,53,57,59,164,112,79,69,67,21,0,,,,,,
2,1779205823760,2163,588,9877,508239,9773,-122173,0,0,0,176,189,245,188,137,246,398,157,283,231,115,137,0,,,,,,
1,1779205823776,-13242,-6006,30203,-7235087,-2674368,-2028072,0,0,0,50,67,35,59,53,59,180,107,81,80,65,19,0,,,,,,
2,1779205823776,2177,526,9959,561996,31764,-158824,0,0,0,183,211,256,199,150,258,392,129,316,235,90,139,0,,,,,,
1,1779205823792,-11935,-11552,32323,-6947981,-3522248,-2112371,0,0,0,55,58,30,67,44,56,198,101,79,98,60,16,0,,,,,,
2,1779205823792,2239,435,10184,659734,56199,-197920,0,0,0,197,247,239,227,175,265,374,137,314,217,116,145,0,,,,,,
1,1779205823808,-5412,-20181,33247,-6372546,-4362799,-1974316,0,0,0,52,48,35,69,34,59,201,94,83,106,56,21,0,,,,,,
2,1779205823808,2364,320,10466,789237,61086,-239459,0,0,0,203,270,196,257,199,276,352,151,306,195,136,153,0,,,,,,
1,1779205823824,1349,-29605,29844,-5539325,-3858224,-1573588,0,0,0,58,49,34,72,39,63,201,85,91,105,59,24,0,,,,,,
2,1779205823824,2464,268,10969,979827,45204,-291993,0,0,0,198,262,157,277,211,292,313,137,323,186,111,173,0,,,,,,
1,1779205823840,4551,-38104,22187,-4384790,-2503325,-618195,0,0,0,61,60,38,73,43,69,209,109,95,105,84,21,0,,,,,,
2,1779205823840,2440,272,11576,1230282,54977,-337197,0,0,0,199,262,149,275,214,323,272,120,343,159,98,216,0,,,,,,
1,1779205823856,8226,-44412,16424,-2789210,-1475850,1058018,0,0,0,56,56,35,78,45,73,213,108,96,108,82,21,0,,,,,,
2,1779205823856,2431,177,12060,1584584,102625,-388510,0,0,0,219,257,160,311,241,357,257,113,349,145,84,225,0,,,,,,
1,1779205823872,14170,-45781,15936,-976162,-461814,2151467,0,0,0,49,55,40,58,46,78,179,98,99,81,65,28,0,,,,,,
2,1779205823872,2345,33,12605,1992642,158824,-438601,0,0,0,254,267,137,350,223,386,236,106,348,159,82,243,0,,,,,,
1,1779205823888,14926,-39334,18578,871093,1015258,1776396,0,0,0,43,58,18,55,61,60,195,184,81,95,157,18,0,,,,,,
2,1779205823888,2823,-38,13457,2421469,163711,-493579,0,0,0,248,272,134,378,223,359,228,102,344,150,85,248,0,,,,,,
1,1779205823904,3718,-11883,21062,2493551,2720793,436157,0,0,0,34,35,6,55,43,40,239,265,54,165,256,12,0,,,,,,
2,1779205823904,3603,-143,14304,2935818,89186,-620639,0,0,0,241,266,133,344,207,413,190,84,328,160,92,275,0,,,,,,
1,1779205823920,-6810,20200,16826,2884505,3971845,-978606,0,0,0,32,28,7,45,36,48,279,352,54,193,341,8,0,,,,,,
2,1779205823920,4230,-306,15261,3591887,-43982,-856433,0,0,0,232,252,121,336,228,353,186,98,334,138,86,266,0,,,,,,
1,1779205823936,-5254,22120,7666,2803871,4351803,-1899790,0,0,0,41,34,7,74,42,63,349,408,55,284,398,3,0,,,,,,
2,1779205823936,4848,-129,16874,4359134,-109955,-1149648,0,0,0,263,237,124,304,222,344,203,82,314,125,75,208,0,,,,,,
1,1779205823952,4383,3034,12065,4311486,2905275,-1336573,0,0,0,46,52,13,85,44,81,426,446,69,414,447,0,0,,,,,,
2,1779205823952,6144,90,19329,5242445,-144164,-1495398,0,0,0,197,252,113,257,201,323,174,85,295,86,57,154,0,,,,,,
1,1779205823968,7207,-4015,20574,5026199,1127657,-157603,0,0,0,62,59,18,87,44,81,487,491,72,495,495,10,0,,,,,,
2,1779205823968,7532,19,22890,6210056,-163711,-1883908,0,0,0,164,196,86,263,149,260,185,71,234,94,38,111,0,,,,,,
1,1779205823984,19,-277,23498,3968180,168598,873537,0,0,0,94,55,20,110,46,69,528,528,57,524,524,19,0,,,,,,
2,1779205823984,7776,521,27303,7192327,15882,-2222327,0,0,0,136,141,66,211,97,163,184,67,168,96,34,76,0,,,,,,
1,1779205824000,-4857,894,17616,2195449,112399,392175,0,0,0,122,69,36,119,42,72,547,547,65,537,537,10,0,,,,,,
2,1779205824000,7250,1435,30806,8040208,452040,-2459343,0,0,0,86,103,49,115,72,92,151,77,119,69,38,40,0,,,,,,
1,1779205824016,-3694,191,12256,965167,31764,-213802,0,0,0,141,80,55,114,38,68,561,561,80,559,559,10,0,,,,,,
2,1779205824016,6829,2742,32203,8585100,1034805,-2652376,0,0,0,49,71,37,65,70,70,130,106,89,54,69,20,0,,,,,,
1,1779205824032,-1292,191,9830,388510,-122173,-298102,0,0,0,151,78,70,130,45,82,559,559,78,561,561,23,0,,,,,,
2,1779205824032,8174,6006,29255,8686503,1486845,-2928487,0,0,0,47,68,40,64,68,66,137,149,85,67,122,29,0,,,,,,
1,1779205824048,-1718,1134,9825,260228,-131946,-69638,0,0,0,154,98,82,122,44,89,579,579,93,568,568,8,0,,,,,,
2,1779205824048,9600,11978,18329,7845953,1414763,-3462384,0,0,0,48,65,38,67,62,65,145,142,85,73,113,31,0,,,,,,
1,1779205824064,-2569,1478,10016,216246,24434,13439,0,0,0,185,146,110,142,62,98,573,573,103,560,560,13,0,,,,,,
2,1779205824064,7776,17080,11366,5406157,498466,-3782477,0,0,0,44,59,29,69,61,63,146,138,83,80,112,22,0,,,,,,
1,1779205824080,-2459,1545,10021,208915,140499,19547,0,0,0,187,148,127,146,61,111,552,552,125,542,542,34,0,,,,,,
2,1779205824080,4321,19904,11246,531452,-913854,-2597398,0,0,0,42,58,28,66,58,59,147,121,84,73,97,13,0,,,,,,
1,1779205824096,-2005,1545,10069,285884,97738,29321,0,0,0,203,134,129,180,66,115,531,531,123,517,517,31,0,,,,,,
2,1779205824096,3388,16846,10892,-3922976,-1925447,-747699,0,0,0,38,56,31,66,60,65,145,117,84,81,106,29,0,,,,,,
1,1779205824112,-1909,1593,10208,378736,17104,48869,0,0,0,194,144,133,148,63,123,499,499,132,468,468,34,0,,,,,,
2,1779205824112,4972,9102,7729,-5795889,-2218662,483805,0,0,0,43,60,34,68,58,66,153,122,90,84,106,28,0,,,,,,
1,1779205824128,-2038,1636,10284,478918,-61086,68416,0,0,0,187,180,131,153,99,121,461,461,119,434,434,26,0,,,,,,
2,1779205824128,6523,4469,4225,-5488013,-1958433,474031,0,0,0,51,60,34,81,59,67,164,118,91,102,103,24,0,,,,,,
1,1779205824144,-2062,1536,10107,549778,-117286,75747,0,0,0,172,176,119,153,94,120,444,444,128,399,410,26,0,,,,,,
2,1779205824144,7413,4044,2938,-4993212,-1183856,31764,0,0,0,56,60,38,87,60,65,173,120,90,102,102,23,0,,,,,,
1,1779205824160,-2091,1311,9786,559552,-155159,85521,0,0,0,161,165,110,161,87,142,431,424,131,353,355,24,0,,,,,,
2,1779205824160,7102,5398,4245,-5110498,-158824,-248011,0,0,0,54,61,36,82,62,67,172,126,92,93,99,25,0,,,,,,
1,1779205824176,-2172,1100,9547,526565,-157603,92851,0,0,0,159,173,111,155,91,146,422,394,157,319,299,34,0,,,,,,
2,1779205824176,5613,5891,6786,-5645616,417831,-68416,0,0,0,49,63,35,74,64,68,160,128,97,82,102,23,0,,,,,,
1,1779205824192,-2287,981,9480,477696,-122173,101403,0,0,0,152,186,110,143,93,136,416,364,168,294,277,44,0,,,,,,
2,1779205824192,4881,5331,8499,-6018244,686612,293215,0,0,0,45,63,36,70,68,68,155,128,98,84,106,25,0,,,,,,
1,1779205824208,-2340,942,9571,459370,-72082,111177,0,0,0,147,190,104,142,97,131,410,335,166,272,255,45,0,,,,,,
2,1779205824208,5403,4225,9428,-6166073,921184,712268,0,0,0,44,63,35,73,71,70,157,130,94,90,109,28,0,,,,,,
1,1779205824224,-2301,923,9676,459370,-32986,123394,0,0,0,150,189,104,148,105,133,407,305,187,269,215,57,0,,,,,,
2,1779205824224,5699,3608,10868,-6216164,1358564,994488,0,0,0,47,64,35,79,69,72,161,132,94,90,111,28,0,,,,,,
1,1779205824240,-2196,894,9734,467922,-7330,131946,0,0,0,148,203,110,154,114,147,399,270,190,285,189,75,0,,,,,,
2,1779205824240,5580,3340,12773,-6273586,1687209,1243721,0,0,0,48,64,37,80,67,73,163,130,98,93,112,29,0,,,,,,
1,1779205824256,-2124,818,9772,482583,-6108,135612,0,0,0,141,247,102,152,143,158,389,198,175,225,143,76,0,,,,,,
2,1779205824256,6020,3273,15003,-6365215,1902234,1480737,0,0,0,45,63,35,75,69,73,162,130,100,93,115,28,0,,,,,,
1,1779205824272,-2105,727,9825,508239,-31764,140499,0,0,0,135,251,113,157,156,166,383,161,178,231,127,129,0,,,,,,
2,1779205824272,6719,3340,18018,-6553362,2163684,1615127,0,0,0,49,64,38,75,68,75,165,134,104,85,115,26,0,,,,,,
1,1779205824288,-2115,612,9906,551000,-95294,161268,0,0,0,132,251,104,183,165,226,372,175,219,161,110,100,0,,,,,,
2,1779205824288,7188,3244,21660,-6786712,2381152,1739744,0,0,0,40,62,37,74,69,78,159,135,103,81,113,28,0,,,,,,
1,1779205824304,-2191,531,9925,602313,-167377,195476,0,0,0,150,232,105,198,155,217,370,147,257,175,105,129,0,,,,,,
2,1779205824304,7915,2684,26274,-6989520,2530203,1977981,0,0,0,39,61,37,74,72,78,154,143,103,82,114,29,0,,,,,,
1,1779205824320,-2278,454,9959,678060,-227241,239459,0,0,0,167,203,102,209,126,253,362,120,255,168,77,141,0,,,,,,
2,1779205824320,9021,808,30878,-7023728,2703689,2387261,0,0,0,43,72,37,78,81,72,171,151,104,93,119,28,0,,,,,,
1,1779205824336,-2416,315,10160,773355,-249233,276111,0,0,0,142,223,174,211,113,304,343,99,294,157,68,180,0,,,,,,
2,1779205824336,8437,-5900,33740,-6764721,3202155,3004235,0,0,0,48,71,36,78,75,72,169,151,100,81,117,25,0,,,,,,
1,1779205824352,-2641,181,10500,885754,-240680,322536,0,0,0,133,230,175,215,121,327,304,115,309,177,78,207,0,,,,,,
2,1779205824352,5116,-15754,35237,-6207612,3628539,3440393,0,0,0,39,75,31,70,89,72,159,180,105,73,145,25,0,,,,,,
1,1779205824368,-2622,157,10768,1027475,-212581,377514,0,0,0,130,253,155,212,164,347,270,120,338,141,79,244,0,,,,,,
2,1779205824368,2407,-29820,32371,-5104389,2698802,3248581,0,0,0,39,77,30,76,92,72,162,188,109,75,158,25,0,,,,,,
1,1779205824384,-2440,167,11208,1196074,-190589,411723,0,0,0,133,300,136,236,183,366,262,98,359,133,75,260,0,,,,,,
2,1779205824384,2139,-43239,22727,-3536909,1331686,1914451,0,0,0,46,74,30,85,88,73,182,188,106,97,161,22,0,,,,,,
1,1779205824400,-2282,124,11840,1419650,-183259,412944,0,0,0,138,315,113,275,199,394,216,81,370,143,85,296,0,,,,,,
2,1779205824400,-1751,-48336,14778,-1886351,1218065,-266337,0,0,0,40,61,26,81,75,70,184,164,101,93,133,22,0,,,,,,
1,1779205824416,-1957,-52,12256,1740965,-210137,379958,0,0,0,150,312,104,301,225,416,291,95,372,140,92,335,0,,,,,,
2,1779205824416,-10002,-45819,16190,-309097,926071,-1631010,0,0,0,30,51,26,74,76,65,174,202,93,112,185,23,0,,,,,,
1,1779205824432,-2091,-177,12691,2092824,-263893,337197,0,0,0,166,314,114,319,222,420,340,103,376,135,81,339,0,,,,,,
2,1779205824432,-11686,-33763,21770,1372003,-572991,-1644449,0,0,0,28,47,21,70,82,58,181,301,77,167,315,22,0,,,,,,
1,1779205824448,-3235,-196,13419,2521651,-270002,372627,0,0,0,175,313,120,330,196,417,268,84,368,136,72,322,0,,,,,,
2,1779205824448,-1186,-1354,21909,3004235,-2889392,-441044,0,0,0,29,40,9,63,67,57,207,368,75,215,386,28,0,,,,,,
1,1779205824464,-4575,-181,14501,3108082,-133168,574213,0,0,0,194,320,113,314,188,409,364,85,332,130,76,288,0,,,,,,
2,1779205824464,5551,13620,12452,3733608,-3729943,572991,0,0,0,37,42,20,82,65,87,269,421,101,298,427,38,0,,,,,,
1,1779205824480,-5436,-95,16056,3832568,74525,897971,0,0,0,224,300,110,295,165,390,247,92,340,106,60,223,0,,,,,,
2,1779205824480,1919,6771,10973,4797735,-2944370,901637,0,0,0,48,44,23,110,68,109,383,477,82,411,502,26,0,,,,,,
1,1779205824496,-6637,23,18918,4710992,210137,1307251,0,0,0,149,269,92,252,157,367,247,96,318,75,44,157,0,,,,,,
2,1779205824496,-5522,-3546,20330,5434257,-1145983,249233,0,0,0,63,43,38,119,54,112,482,535,94,545,574,21,0,,,,,,
1,1779205824512,-8451,-67,23091,5660277,261450,1742187,0,0,0,115,199,81,195,140,289,221,91,273,68,41,100,0,,,,,,
2,1779205824512,-2129,-1775,23828,4520402,-310319,-752585,0,0,0,83,64,13,145,62,92,570,570,71,608,608,37,0,,,,,,
1,1779205824528,-10007,234,26671,6599788,362853,2200336,0,0,0,77,151,88,118,99,279,205,77,222,68,38,90,0,,,,,,
2,1779205824528,4383,751,19090,2941926,-217468,-775798,0,0,0,116,57,54,144,38,87,571,571,61,611,611,41,0,,,,,,
1,1779205824544,-10208,942,29136,7430564,537561,2669481,0,0,0,45,106,31,79,76,135,122,64,98,32,23,27,0,,,,,,
2,1779205824544,5025,488,12519,1505171,-327423,-14660,0,0,0,123,58,66,138,51,82,585,585,76,622,622,35,0,,,,,,
1,1779205824560,-9059,2608,30500,7996225,713490,3000570,0,0,0,26,58,14,55,55,61,117,77,91,30,31,23,0,,,,,,
2,1779205824560,2115,71,10212,715934,-173485,234572,0,0,0,130,80,87,126,54,94,589,589,96,637,637,60,0,,,,,,
1,1779205824576,-10361,5800,28279,8370075,911410,3209485,0,0,0,45,48,17,60,39,44,145,82,62,44,40,11,0,,,,,,
2,1779205824576,1416,507,9877,372627,-51312,139277,0,0,0,144,92,116,129,54,115,588,588,117,642,642,69,0,,,,,,
1,1779205824592,-13213,10437,20330,8367632,868650,3496592,0,0,0,44,55,15,59,42,46,329,86,44,46,55,10,0,,,,,,
2,1779205824592,2211,1129,10011,244346,-118507,12217,0,0,0,156,100,134,145,60,136,593,593,114,643,643,64,0,,,,,,
1,1779205824608,-13974,14357,11820,7349930,238237,3892433,0,0,0,40,62,13,53,43,44,408,90,37,54,68,12,0,,,,,,
2,1779205824608,2364,1359,9983,171042,-210137,19547,0,0,0,151,99,164,156,78,138,594,594,135,640,640,84,0,,,,,,
1,1779205824624,-7552,18497,9475,3558900,-318871,3006678,0,0,0,36,61,13,45,45,44,260,99,48,58,75,12,0,,,,,,
