sole_id,timestamp,accel_x,accel_y,accel_z,gyro_x,gyro_y,gyro_z,magn_x,magn_y,magn_z,pressure_01,pressure_02,pressure_03,pressure_04,pressure_05,pressure_06,pressure_07,pressure_08,pressure_09,pressure_10,pressure_11,pressure_12,corrupt,concrete
1,1775068072800,-1086,1014,9786,505796,239459,-1551597,0,0,0,276,273,217,278,172,254,354,271,240,239,279,122,0,
2,1775068072800,1416,799,9882,-28099,-86742,0,0,0,0,448,479,349,412,385,454,517,410,353,241,174,396,0,
1,1775068072816,-1196,1177,9595,559552,252898,-1458746,0,0,0,281,274,217,278,172,253,351,272,238,236,278,114,0,
2,1775068072816,1411,804,9897,-31764,-85521,0,0,0,0,448,479,344,412,382,455,520,408,352,245,177,400,0,
1,1775068072832,-1383,1392,9327,591317,293215,-1325577,0,0,0,279,273,216,278,172,254,355,276,240,235,280,115,0,
2,1775068072832,1407,808,9897,-34208,-92851,0,0,0,0,446,475,337,413,383,459,520,411,351,242,180,401,0,
1,1775068072848,-1660,1612,9026,575435,310319,-1216843,0,0,0,291,269,212,282,175,251,359,276,239,238,281,118,0,
2,1775068072848,1397,827,9897,-37873,-101403,0,0,0,0,443,472,333,411,381,454,522,417,351,242,179,397,0,
1,1775068072864,-2268,1971,8585,566882,224798,-1148426,0,0,0,267,280,217,273,171,249,356,274,241,232,280,118,0,
2,1775068072864,1383,842,9887,-32986,-105068,0,0,0,0,448,475,336,414,382,453,519,419,346,245,183,395,0,
1,1775068072880,-2852,2402,8265,607200,63529,-1163087,0,0,0,267,281,218,275,171,249,358,279,243,236,284,118,0,
2,1775068072880,1368,851,9892,-26878,-103847,0,0,0,0,449,478,338,413,379,451,520,422,340,248,188,394,0,
1,1775068072896,-3512,2708,8025,645073,-75747,-1271821,0,0,0,261,281,217,277,180,254,358,280,243,237,285,117,0,
2,1775068072896,1363,861,9911,-19547,-98960,0,0,0,0,449,478,338,414,380,449,519,426,334,248,189,392,0,
1,1775068072912,-4273,2737,7791,637743,-205250,-1372003,0,0,0,256,275,213,279,178,255,359,280,243,238,284,117,0,
2,1775068072912,1363,866,9906,-13439,-98960,0,0,0,0,448,478,338,417,381,448,518,425,333,247,187,389,0,
1,1775068072928,-4924,2464,7662,602313,-361632,-1404990,0,0,0,258,276,217,280,176,258,358,280,244,237,285,118,0,
2,1775068072928,1368,866,9887,-13439,-103847,0,0,0,0,447,480,338,414,376,442,520,424,339,247,187,385,0,
1,1775068072944,-5254,2129,7839,557109,-533896,-1319468,0,0,0,261,273,218,281,175,256,358,279,240,234,284,115,0,
2,1775068072944,1330,866,9873,-20769,-108734,1221,0,0,0,447,480,337,413,375,441,520,425,344,247,191,383,0,
1,1775068072960,-5273,1904,8198,452040,-698829,-1176526,0,0,0,262,274,214,284,178,256,360,279,238,238,284,117,0,
2,1775068072960,1301,871,9873,-30543,-106290,1221,0,0,0,446,481,339,418,379,447,521,426,342,243,190,384,0,
1,1775068072976,-3704,2761,9284,175929,-712268,-906524,0,0,0,268,275,215,288,175,261,373,279,240,255,279,121,0,
2,1775068072976,1311,890,9901,-36651,-98960,2443,0,0,0,446,481,339,415,379,441,523,430,341,242,190,383,0,
1,1775068072992,392,3182,12050,-614530,-452040,-122173,0,0,0,283,275,220,293,167,263,392,278,239,272,275,121,0,
2,1775068072992,1340,923,9968,-26878,-95294,2443,0,0,0,447,484,339,411,379,437,523,432,339,238,192,379,0,
1,1775068073008,2445,1866,12806,-1051909,-405614,471587,0,0,0,298,280,220,301,168,257,402,280,235,282,289,124,0,
2,1775068073008,1354,933,10021,-9773,-96516,0,0,0,0,454,485,339,425,396,436,520,431,334,242,192,378,0,
1,1775068073024,698,1493,11519,-796568,-747699,273667,0,0,0,301,267,221,307,164,257,415,283,238,301,300,134,0,
2,1775068073024,1340,928,10021,7330,-98960,-1221,0,0,0,450,477,332,411,384,434,513,428,331,241,188,378,0,
1,1775068073040,-2555,1038,10748,-362853,-758694,-138055,0,0,0,304,274,225,317,178,271,422,291,249,316,299,141,0,
2,1775068073040,1306,928,10016,25656,-98960,-4886,0,0,0,439,477,356,410,387,441,515,434,342,236,193,379,0,
1,1775068073056,-3417,732,10591,-127059,-390953,-177150,0,0,0,305,275,230,332,185,304,430,291,275,325,298,167,0,
2,1775068073056,1287,923,10007,43982,-91629,-10995,0,0,0,432,477,361,406,383,437,511,435,339,240,194,371,0,
1,1775068073072,-2230,698,10500,-6108,-72082,3665,0,0,0,303,282,220,319,193,278,429,288,251,325,302,167,0,
2,1775068073072,1287,909,9968,67195,-80634,-17104,0,0,0,431,481,362,406,375,435,506,434,329,244,197,378,0,
1,1775068073088,-1526,531,10126,119729,-50090,61086,0,0,0,304,282,225,325,197,296,429,286,256,325,299,183,0,
2,1775068073088,1282,894,9920,83077,-74525,-23212,0,0,0,429,482,360,405,373,433,505,433,325,245,197,382,0,
1,1775068073104,-1311,339,9724,164933,-131946,28099,0,0,0,303,281,225,336,208,305,426,282,257,320,299,191,0,
2,1775068073104,1273,871,9887,83077,-72082,-26878,0,0,0,425,481,354,401,371,427,501,429,322,243,197,380,0,
1,1775068073120,-1603,277,9528,122173,-227241,-13439,0,0,0,306,282,224,341,207,309,434,279,264,321,291,197,0,
2,1775068073120,1273,842,9863,68416,-72082,-26878,0,0,0,425,481,353,402,368,428,497,424,313,242,196,375,0,
1,1775068073136,-1962,320,9566,61086,-194255,-2443,0,0,0,306,279,221,343,206,311,438,278,263,326,286,213,0,
2,1775068073136,1277,837,9849,50090,-74525,-28099,0,0,0,423,479,349,406,367,432,497,423,310,241,194,373,0,
1,1775068073152,-1971,311,9605,17104,-125838,13439,0,0,0,308,281,226,349,207,321,443,271,272,342,282,224,0,
2,1775068073152,1282,837,9868,36651,-86742,-30543,0,0,0,418,475,343,404,373,427,497,422,312,240,193,373,0,
1,1775068073168,-1799,301,9600,-25656,-85521,10995,0,0,0,311,286,232,357,213,334,450,269,282,347,285,232,0,
2,1775068073168,1282,842,9911,32986,-97738,-31764,0,0,0,417,477,344,397,375,420,497,421,314,241,192,373,0,
1,1775068073184,-1722,344,9629,-61086,-80634,-1221,0,0,0,311,287,232,365,218,336,454,277,284,340,294,240,0,
2,1775068073184,1263,851,9949,37873,-105068,-34208,0,0,0,419,477,347,397,366,427,497,419,321,237,189,371,0,
1,1775068073200,-1799,416,9743,-85521,-83077,-12217,0,0,0,315,285,231,373,216,332,460,287,288,348,300,244,0,
2,1775068073200,1239,851,9978,47647,-102625,-34208,0,0,0,422,473,352,399,364,425,488,412,326,233,187,352,0,
1,1775068073216,-1871,459,9868,-91629,-75747,-14660,0,0,0,335,287,229,370,221,334,469,299,287,370,304,254,0,
2,1775068073216,1225,861,9992,58643,-96516,-35430,0,0,0,420,468,358,398,362,426,484,409,319,232,185,353,0,
1,1775068073232,-1866,469,9930,-79412,-65973,-14660,0,0,0,338,293,234,370,223,345,467,298,296,372,316,267,0,
2,1775068073232,1201,847,9983,70860,-83077,-35430,0,0,0,420,469,359,397,360,422,475,408,312,231,184,351,0,
1,1775068073248,-1880,473,9911,-63529,-63529,-14660,0,0,0,313,290,223,369,216,330,477,290,291,363,306,263,0,
2,1775068073248,1201,832,9968,80634,-67195,-34208,0,0,0,410,469,364,397,372,422,484,404,315,235,185,350,0,
1,1775068073264,-1909,478,9849,-56199,-56199,-12217,0,0,0,308,290,223,363,226,331,429,275,299,363,308,263,0,
2,1775068073264,1220,818,9954,85521,-58643,-32986,0,0,0,409,472,337,389,361,412,475,404,310,230,186,342,0,
1,1775068073280,-1895,459,9786,-63529,-43982,-9773,0,0,0,315,287,220,372,219,334,483,306,294,362,313,266,0,
2,1775068073280,1229,794,9920,81855,-58643,-31764,0,0,0,410,473,317,392,361,408,473,395,301,236,183,341,0,
1,1775068073296,-1866,430,9734,-89186,-31764,-9773,0,0,0,317,288,226,371,214,338,487,314,299,375,317,261,0,
2,1775068073296,1225,780,9868,73303,-63529,-30543,0,0,0,409,469,312,387,354,401,471,393,299,232,180,342,0,
1,1775068073312,-1837,449,9705,-123394,-21991,-14660,0,0,0,313,290,229,367,217,342,484,324,299,360,332,260,0,
2,1775068073312,1206,760,9820,57421,-67195,-26878,0,0,0,406,465,303,388,354,398,470,396,299,230,180,340,0,
1,1775068073328,-1852,531,9729,-156381,-15882,-23212,0,0,0,319,294,239,362,218,340,482,342,295,363,336,257,0,
2,1775068073328,1191,741,9806,32986,-72082,-24434,0,0,0,403,463,300,388,356,398,470,398,296,228,182,334,0,
1,1775068073344,-1899,612,9782,-168598,-8552,-25656,0,0,0,319,296,237,359,215,339,477,352,299,371,344,258,0,
2,1775068073344,1196,746,9839,8552,-76969,-20769,0,0,0,402,461,300,385,352,395,439,384,300,221,180,323,0,
1,1775068073360,-1933,646,9820,-155159,0,-20769,0,0,0,320,299,236,364,217,342,480,362,304,374,350,258,0,
2,1775068073360,1220,765,9911,-1221,-79412,-18325,0,0,0,399,458,298,385,350,397,421,377,298,219,181,314,0,
1,1775068073376,-1923,660,9825,-134390,8552,-12217,0,0,0,325,301,243,367,218,344,486,380,301,372,354,253,0,
2,1775068073376,1244,789,9987,0,-80634,-18325,0,0,0,394,457,295,388,353,400,460,398,284,222,187,316,0,
1,1775068073392,-1871,670,9810,-119729,13439,-7330,0,0,0,327,300,254,358,216,344,485,390,294,366,369,247,0,
2,1775068073392,1253,808,10040,8552,-80634,-19547,0,0,0,392,456,294,380,347,388,463,399,290,234,191,313,0,
1,1775068073408,-1794,650,9782,-124616,1221,-9773,0,0,0,335,313,270,351,218,340,487,393,293,368,383,238,0,
2,1775068073408,1258,813,10059,26878,-81855,-21991,0,0,0,390,453,292,379,342,386,462,394,290,264,200,293,0,
1,1775068073424,-1761,636,9748,-147829,-19547,-18325,0,0,0,332,337,267,348,229,321,485,404,284,360,388,220,0,
2,1775068073424,1244,808,10045,46425,-84299,-25656,0,0,0,393,454,296,376,336,382,451,385,286,210,174,289,0,
1,1775068073440,-1785,684,9748,-178372,-47647,-28099,0,0,0,336,307,267,353,220,324,490,413,286,365,382,213,0,
2,1775068073440,1196,789,9987,61086,-80634,-26878,0,0,0,380,443,282,375,335,381,437,374,270,206,169,285,0,
1,1775068073456,-1847,780,9763,-184481,-67195,-34208,0,0,0,330,305,276,344,215,323,494,401,292,375,373,223,0,
2,1775068073456,1162,775,9944,70860,-73303,-26878,0,0,0,376,443,287,372,330,380,439,378,278,201,168,269,0,
1,1775068073472,-1876,818,9734,-177150,-67195,-39095,0,0,0,330,305,265,350,215,316,442,366,292,366,375,206,0,
2,1775068073472,1167,751,9954,73303,-64751,-24434,0,0,0,363,436,280,372,343,374,447,383,283,300,224,250,0,
1,1775068073488,-1890,861,9667,-161268,-51312,-39095,0,0,0,323,301,253,353,215,319,502,408,286,384,387,212,0,
2,1775068073488,1196,703,9968,65973,-53756,-21991,0,0,0,352,435,283,366,334,370,438,376,277,213,180,234,0,
1,1775068073504,-1890,942,9705,-119729,-35430,-32986,0,0,0,325,299,256,350,210,318,508,426,280,397,391,214,0,
2,1775068073504,1225,717,9983,57421,-51312,-21991,0,0,0,335,431,277,358,336,367,435,377,274,183,168,227,0,
1,1775068073520,-1885,942,9834,-65973,-36651,-23212,0,0,0,331,296,259,353,206,320,517,433,280,415,407,210,0,
2,1775068073520,1229,765,9978,54977,-59864,-21991,0,0,0,322,430,274,350,332,353,429,375,263,178,168,208,0,
1,1775068073536,-1899,885,9844,-32986,-46425,-15882,0,0,0,331,298,258,358,208,321,519,440,280,425,421,209,0,
2,1775068073536,1234,751,9968,50090,-68416,-21991,0,0,0,306,424,267,341,328,342,425,374,260,173,169,193,0,
1,1775068073552,-1904,847,9782,-28099,-46425,-12217,0,0,0,325,307,259,349,208,320,517,457,282,418,426,212,0,
2,1775068073552,1249,703,9954,32986,-74525,-24434,0,0,0,292,419,260,338,328,341,419,376,258,169,169,187,0,
1,1775068073568,-1904,856,9739,-37873,-35430,-10995,0,0,0,324,305,256,348,212,322,518,463,283,419,431,213,0,
2,1775068073568,1162,679,9940,1221,-64751,-24434,0,0,0,279,416,253,333,329,340,412,379,253,161,170,177,0,
1,1775068073584,-1895,885,9763,-43982,-32986,-9773,0,0,0,328,296,257,359,218,325,519,469,280,432,439,210,0,
2,1775068073584,1048,555,10031,-58643,-15882,-13439,0,0,0,270,413,249,326,327,336,408,380,253,152,167,166,0,
1,1775068073600,-1890,923,9786,-32986,-40317,-8552,0,0,0,332,296,265,366,217,328,521,479,277,441,441,206,0,
2,1775068073600,1158,478,10184,-195476,72082,17104,0,0,0,269,412,249,327,326,336,403,374,255,152,164,164,0,
1,1775068073616,-1895,938,9801,-8552,-48869,-2443,0,0,0,332,298,266,365,210,330,526,471,279,443,436,207,0,
2,1775068073616,1387,607,10232,-345749,128281,57421,0,0,0,268,413,250,327,328,337,399,375,253,149,164,161,0,
1,1775068073632,-1909,928,9786,6108,-53756,0,0,0,0,331,292,265,357,204,334,524,465,283,441,435,218,0,
2,1775068073632,1612,990,10040,-433714,120951,105068,0,0,0,267,415,249,326,328,337,402,371,253,150,163,163,0,
1,1775068073648,-1928,928,9748,15882,-52534,2443,0,0,0,330,296,264,362,207,331,529,466,280,447,438,216,0,
2,1775068073648,1957,1608,9638,-345749,74525,179594,0,0,0,269,412,245,329,328,337,410,368,254,170,176,178,0,
1,1775068073664,-1933,933,9743,37873,-40317,7330,0,0,0,328,291,272,366,214,344,531,476,287,442,443,221,0,
2,1775068073664,2426,2086,9394,-204028,62308,340862,0,0,0,258,404,237,324,320,328,400,349,244,236,241,191,0,
1,1775068073680,-1923,928,9763,61086,-26878,13439,0,0,0,326,292,270,364,210,346,531,479,284,432,441,221,0,
2,1775068073680,2656,1914,9274,-84299,105068,649960,0,0,0,260,402,237,324,321,327,403,352,245,231,233,191,0,
1,1775068073696,-1919,918,9777,76969,-10995,15882,0,0,0,326,304,265,361,225,335,534,480,285,423,444,219,0,
2,1775068073696,2273,1459,9279,30543,149051,941954,0,0,0,264,409,242,325,324,330,411,368,251,187,185,191,0,
1,1775068073712,-1914,890,9772,84299,0,19547,0,0,0,329,312,275,354,224,329,532,476,279,418,442,220,0,
2,1775068073712,1268,1005,9509,151494,146607,1055575,0,0,0,257,403,234,325,320,328,401,357,245,215,219,188,0,
1,1775068073728,-1890,861,9748,80634,0,19547,0,0,0,326,321,272,354,247,334,534,480,282,412,442,220,0,
2,1775068073728,291,598,9810,239459,94073,912632,0,0,0,259,406,236,325,321,328,407,362,248,216,220,188,0,
1,1775068073744,-1885,847,9743,74525,0,20769,0,0,0,325,321,278,356,261,341,537,479,284,414,443,223,0,
2,1775068073744,-445,320,10064,315206,6108,590095,0,0,0,262,411,241,328,327,332,413,372,249,183,191,174,0,
1,1775068073760,-1876,832,9739,63529,0,19547,0,0,0,326,319,281,357,262,342,541,480,286,418,444,225,0,
2,1775068073760,-167,540,10102,367740,-98960,173485,0,0,0,265,413,245,331,334,335,419,377,249,173,181,172,0,
1,1775068073776,-1871,818,9734,48869,0,18325,0,0,0,335,322,277,359,262,343,540,481,288,421,445,230,0,
2,1775068073776,1158,827,10093,367740,-151494,-73303,0,0,0,267,414,247,330,333,332,418,378,244,174,180,176,0,
1,1775068073792,-1866,827,9729,36651,0,18325,0,0,0,338,329,278,358,264,341,537,480,288,421,443,230,0,
2,1775068073792,1876,837,10074,305432,-160046,-62308,0,0,0,268,416,247,331,332,330,418,380,242,173,178,176,0,
1,1775068073808,-1866,861,9763,40317,0,18325,0,0,0,333,337,278,358,268,337,537,481,288,420,440,225,0,
2,1775068073808,1464,894,9964,255341,-169820,12217,0,0,0,269,416,246,333,332,329,418,380,243,174,177,179,0,
1,1775068073824,-1861,866,9801,56199,0,20769,0,0,0,333,341,267,361,274,340,532,484,292,420,439,227,0,
2,1775068073824,1110,928,9964,255341,-184481,7330,0,0,0,278,419,249,334,333,329,418,379,245,175,175,183,0,
1,1775068073840,-1852,837,9796,65973,-3665,23212,0,0,0,327,346,263,355,280,342,531,484,293,423,440,230,0,
2,1775068073840,1301,780,10117,259006,-194255,-18325,0,0,0,292,421,255,336,333,331,418,379,243,173,173,182,0,
1,1775068073856,-1847,813,9777,67195,-4886,23212,0,0,0,321,352,263,358,291,348,529,479,290,427,438,228,0,
2,1775068073856,1340,574,10169,184481,-196698,-4886,0,0,0,304,423,258,335,326,330,413,372,240,198,203,177,0,
1,1775068073872,-1837,804,9767,61086,-2443,23212,0,0,0,319,345,264,353,285,347,523,475,293,420,437,227,0,
2,1775068073872,1167,516,10040,84299,-169820,-3665,0,0,0,314,421,262,334,320,330,407,362,241,263,277,175,0,
1,1775068073888,-1828,804,9763,52534,0,20769,0,0,0,316,351,268,356,287,354,522,475,300,421,437,233,0,
2,1775068073888,1091,650,9844,15882,-123394,-10995,0,0,0,320,421,268,342,325,339,414,369,244,230,233,180,0,
1,1775068073904,-1828,804,9772,48869,0,19547,0,0,0,312,354,266,356,288,357,520,462,297,415,433,231,0,
2,1775068073904,1110,713,9777,-12217,-91629,-9773,0,0,0,335,421,265,348,325,341,418,365,247,240,239,181,0,
1,1775068073920,-1832,823,9801,61086,4886,19547,0,0,0,315,354,261,358,285,355,523,459,297,415,434,230,0,
2,1775068073920,1153,727,9801,-34208,-73303,-2443,0,0,0,345,428,264,358,333,346,434,381,254,199,185,200,0,
1,1775068073936,-1832,832,9839,86742,14660,24434,0,0,0,318,358,262,356,277,353,516,456,296,409,427,238,0,
2,1775068073936,1162,780,9853,-34208,-59864,0,0,0,0,357,433,274,360,336,352,438,382,262,199,180,215,0,
1,1775068073952,-1813,813,9877,125838,17104,29321,0,0,0,313,355,259,355,276,353,514,446,298,400,398,253,0,
2,1775068073952,1153,832,9935,-3665,-45204,-1221,0,0,0,373,433,275,367,339,360,443,378,266,200,173,223,0,
1,1775068073968,-1813,808,9935,164933,13439,35430,0,0,0,315,349,283,356,273,374,509,416,318,388,380,287,0,
2,1775068073968,1148,832,10026,42760,-23212,-4886,0,0,0,382,435,279,373,340,366,438,380,270,198,169,232,0,
1,1775068073984,-1832,808,10011,212581,7330,43982,0,0,0,318,359,274,355,271,370,502,382,320,378,361,292,0,
2,1775068073984,1186,756,10011,59864,-4886,-1221,0,0,0,390,442,285,375,342,377,439,381,277,199,169,256,0,
1,1775068074000,-1852,789,10078,268780,1221,54977,0,0,0,324,360,248,370,264,354,491,337,311,377,327,286,0,
2,1775068074000,1201,708,9920,41538,-3665,0,0,0,0,397,444,292,376,346,383,446,384,281,201,171,269,0,
1,1775068074016,-1880,784,10189,340862,-8552,73303,0,0,0,331,344,248,388,250,358,473,287,311,369,292,303,0,
2,1775068074016,1177,703,9810,3665,-13439,6108,0,0,0,401,449,297,381,352,384,452,387,284,205,173,267,0,
1,1775068074032,-2000,818,10433,454483,-17104,105068,0,0,0,333,339,250,379,248,368,445,255,317,342,266,329,0,
2,1775068074032,1172,717,9758,-31764,-34208,17104,0,0,0,404,457,299,387,357,388,460,391,288,211,176,273,0,
1,1775068074048,-2273,837,10768,630412,15882,164933,0,0,0,327,365,234,365,276,366,410,236,319,316,247,349,0,
2,1775068074048,1191,746,9767,-58643,-65973,29321,0,0,0,409,459,303,390,355,393,471,404,293,261,205,288,0,
1,1775068074064,-2670,847,11184,840550,150272,255341,0,0,0,314,380,224,361,289,363,377,229,308,302,235,330,0,
2,1775068074064,1191,765,9801,-94073,-85521,36651,0,0,0,414,462,310,390,355,394,479,410,295,312,236,293,0,
1,1775068074080,-3283,871,12313,1174082,423940,431270,0,0,0,322,325,217,364,239,361,358,201,297,304,213,325,0,
2,1775068074080,1182,794,9868,-133168,-78190,41538,0,0,0,419,466,312,392,358,401,483,401,292,237,190,308,0,
1,1775068074096,-3297,904,13979,1561371,621860,618195,0,0,0,318,337,215,352,238,361,331,204,286,282,206,318,0,
2,1775068074096,1201,871,9987,-141720,-54977,41538,0,0,0,424,471,318,396,361,409,490,400,298,244,190,321,0,
1,1775068074112,-3196,775,14649,2004859,748920,761138,0,0,0,324,334,219,336,231,360,315,204,280,266,206,309,0,
2,1775068074112,1258,928,10107,-119729,-37873,34208,0,0,0,427,475,315,395,362,415,498,414,310,247,198,340,0,
1,1775068074128,-3560,545,14199,2370157,852767,882089,0,0,0,323,322,211,324,211,330,315,204,263,256,208,259,0,
2,1775068074128,1330,957,10203,-73303,-24434,23212,0,0,0,434,478,322,396,364,420,504,418,310,249,200,343,0,
1,1775068074144,-4335,282,13524,2599842,908967,1036027,0,0,0,295,306,245,298,195,338,323,212,272,252,221,233,0,
2,1775068074144,1368,957,10203,-20769,-20769,8552,0,0,0,433,489,340,384,353,411,511,420,318,245,200,349,0,
1,1775068074160,-5101,-315,13074,2745228,890641,1312138,0,0,0,287,287,219,279,173,284,331,223,252,249,233,156,0,
2,1775068074160,1368,961,10165,25656,-26878,-2443,0,0,0,431,488,334,389,362,423,520,426,318,244,200,355,0,
1,1775068074176,-4852,-1043,12146,2700024,1003040,1601688,0,0,0,281,261,208,285,151,260,344,227,248,253,237,131,0,
2,1775068074176,1330,957,10136,64751,-36651,-13439,0,0,0,435,486,341,397,368,416,525,427,316,368,258,341,0,
1,1775068074192,-4996,-569,10289,2478891,1343903,1754404,0,0,0,280,249,208,293,144,262,351,230,248,256,238,129,0,
2,1775068074192,1320,938,10136,92851,-40317,-19547,0,0,0,429,489,337,395,366,418,521,424,317,285,221,357,0,
1,1775068074208,-7432,4101,7939,1918116,1430646,1676214,0,0,0,280,249,208,295,144,264,352,231,248,256,238,129,0,
2,1775068074208,1340,909,10112,112399,-46425,-24434,0,0,0,428,489,336,403,376,428,521,423,321,253,203,366,0,
1,1775068074224,-10021,10332,5728,777020,731816,1242499,0,0,0,276,250,208,294,145,263,352,231,250,258,240,131,0,
2,1775068074224,1335,894,10064,125838,-59864,-30543,0,0,0,430,489,338,402,373,430,526,424,326,321,229,356,0,
1,1775068074240,-8963,11012,4393,-200363,-327423,392175,0,0,0,267,254,209,290,148,264,349,232,251,258,242,133,0,
2,1775068074240,1268,880,10002,141720,-69638,-32986,0,0,0,433,488,342,401,370,428,527,424,327,307,219,359,0,
1,1775068074256,-7475,9657,3809,-502131,-982271,-260228,0,0,0,259,260,213,283,149,263,344,232,254,254,242,134,0,
2,1775068074256,1229,842,9959,146607,-67195,-34208,0,0,0,435,490,343,403,372,429,522,419,325,253,195,371,0,
1,1775068074272,-5939,9432,4599,-627969,-1441641,-640186,0,0,0,258,261,212,282,148,262,340,227,251,256,243,134,0,
2,1775068074272,1244,789,9916,131946,-63529,-30543,0,0,0,434,493,343,404,375,431,519,417,324,253,196,375,0,
1,1775068074288,-4321,9786,6355,-1134987,-1705535,-895528,0,0,0,257,267,213,280,151,260,346,235,251,255,246,132,0,
2,1775068074288,1268,770,9892,114842,-72082,-28099,0,0,0,429,496,342,404,377,433,518,420,325,252,195,377,0,
1,1775068074304,-2981,8925,7872,-1681101,-1832595,-1117883,0,0,0,257,267,215,279,153,264,343,235,251,248,241,131,0,
2,1775068074304,1244,775,9873,102625,-86742,-28099,0,0,0,427,500,345,402,379,434,516,416,326,251,196,379,0,
1,1775068074320,-2115,7331,9193,-2046398,-1863138,-1254717,0,0,0,256,267,212,280,153,261,338,232,244,252,246,130,0,
2,1775068074320,1210,770,9873,95294,-97738,-26878,0,0,0,424,499,343,407,383,440,517,417,332,252,196,379,0,
1,1775068074336,-1603,5905,10528,-2345722,-1836260,-1334129,0,0,0,254,267,213,265,191,255,337,236,247,247,242,131,0,
2,1775068074336,1196,746,9892,85521,-100181,-24434,0,0,0,429,494,344,411,384,440,517,415,329,251,195,377,0,
1,1775068074352,-1316,4776,11710,-2598620,-1742187,-1365894,0,0,0,254,264,214,273,162,262,335,234,248,248,245,137,0,
2,1775068074352,1196,732,9920,73303,-96516,-23212,0,0,0,428,494,342,412,383,440,517,413,327,247,187,376,0,
1,1775068074368,-947,3656,12782,-2795319,-1601688,-1391551,0,0,0,255,266,215,278,152,265,333,231,246,249,248,140,0,
2,1775068074368,1201,732,9944,63529,-94073,-23212,0,0,0,438,500,342,414,379,448,513,404,324,250,191,385,0,
1,1775068074384,-693,2455,13764,-2924822,-1445307,-1423316,0,0,0,254,265,213,276,152,262,334,233,246,250,250,135,0,
2,1775068074384,1201,737,9959,63529,-91629,-24434,0,0,0,445,510,337,422,379,438,517,402,326,255,190,388,0,
1,1775068074400,-961,1363,14266,-2978578,-1298699,-1418429,0,0,0,254,264,213,276,153,263,333,231,247,248,248,134,0,
2,1775068074400,1206,727,9968,68416,-85521,-26878,0,0,0,447,510,343,413,379,446,518,400,331,252,187,390,0,
1,1775068074416,-1435,33,14496,-3017674,-1141096,-1361007,0,0,0,254,265,213,276,150,262,332,229,245,247,245,134,0,
2,1775068074416,1206,727,9992,83077,-79412,-31764,0,0,0,444,509,340,413,375,444,514,395,328,239,177,387,0,
1,1775068074432,-1842,-1402,14405,-2995683,-1007927,-1268156,0,0,0,255,266,213,275,149,258,334,231,242,247,246,132,0,
2,1775068074432,1206,741,10026,111177,-72082,-37873,0,0,0,435,499,346,420,386,456,515,390,334,250,185,394,0,
1,1775068074448,-2330,-3206,14180,-2872288,-894306,-1154535,0,0,0,256,267,213,277,153,259,335,233,242,246,249,131,0,
2,1775068074448,1206,741,10064,158824,-54977,-45204,0,0,0,431,495,349,418,390,457,516,382,340,247,183,401,0,
1,1775068074464,-2904,-5235,13807,-2678033,-827111,-1010371,0,0,0,255,267,213,278,152,260,334,234,244,245,250,131,0,
2,1775068074464,1206,722,10117,207694,-32986,-54977,0,0,0,433,499,353,422,394,455,507,366,337,242,174,408,0,
1,1775068074480,-3096,-7236,13194,-2421469,-813672,-829554,0,0,0,255,269,215,278,152,263,332,233,244,249,256,135,0,
2,1775068074480,1234,689,10150,256563,-10995,-64751,0,0,0,438,503,362,423,397,453,494,348,334,244,172,422,0,
1,1775068074496,-2450,-9131,12294,-2017077,-774577,-599869,0,0,0,259,272,215,277,152,260,332,233,244,252,257,136,0,
2,1775068074496,1273,660,10189,318871,4886,-76969,0,0,0,444,508,362,418,396,456,482,328,337,242,167,439,0,
1,1775068074512,-1555,-10390,11418,-1528384,-689055,-381179,0,0,0,256,275,215,279,157,265,334,241,247,244,256,132,0,
2,1775068074512,1301,622,10251,389732,23212,-90408,0,0,0,446,513,354,422,399,467,470,312,341,242,162,454,0,
1,1775068074528,-746,-10863,10691,-981049,-577878,-168598,0,0,0,257,277,215,278,157,261,335,243,246,247,262,129,0,
2,1775068074528,1368,555,10327,453262,40317,-103847,0,0,0,450,516,351,426,402,470,457,314,343,243,164,463,0,
1,1775068074544,9,-10964,10184,-437379,-442266,21991,0,0,0,251,276,210,278,162,263,336,245,246,243,260,129,0,
2,1775068074544,1512,459,10452,527787,42760,-128281,0,0,0,454,520,343,431,406,468,435,297,344,237,160,459,0,
1,1775068074560,875,-10945,10208,83077,-243124,131946,0,0,0,253,265,212,279,150,266,353,249,264,246,255,124,0,
2,1775068074560,1555,459,10662,645073,6108,-167377,0,0,0,456,525,317,437,411,478,428,266,351,241,160,470,0,
1,1775068074576,3455,-11136,11643,736703,414166,69638,0,0,0,253,252,197,283,149,258,375,279,259,256,284,108,0,
2,1775068074576,1469,425,10849,796568,-37873,-193033,0,0,0,456,524,337,435,418,475,407,225,358,249,163,478,0,
1,1775068074592,3709,-6628,12289,1627344,1766622,-259006,0,0,0,249,244,189,281,151,244,394,324,244,269,329,96,0,
2,1775068074592,1411,311,11194,988379,-37873,-206472,0,0,0,468,543,298,435,423,473,392,219,353,245,160,491,0,
1,1775068074608,402,3038,11141,2064724,2153910,-474031,0,0,0,253,244,183,283,154,230,415,362,229,280,359,90,0,
2,1775068074608,1507,191,11682,1231504,-6108,-230907,0,0,0,476,530,291,439,431,491,372,218,359,245,159,504,0,
1,1775068074624,-526,6379,10457,2119702,1681101,-256563,0,0,0,258,246,180,287,154,227,432,378,223,294,368,88,0,
2,1775068074624,1698,76,12122,1496619,-1221,-271224,0,0,0,478,521,279,440,429,489,346,214,353,243,159,506,0,
1,1775068074640,-81,2861,11868,2290744,1047023,372627,0,0,0,262,243,184,291,147,231,440,379,229,308,371,87,0,
2,1775068074640,1775,43,12423,1782504,-65973,-318871,0,0,0,470,512,252,440,433,476,313,204,349,277,189,516,0,
1,1775068074656,-1507,411,13524,2384817,680503,687834,0,0,0,266,244,196,295,143,239,440,379,243,323,377,90,0,
2,1775068074656,1818,-67,12701,2105041,-190589,-356745,0,0,0,462,508,230,429,442,475,282,194,345,269,196,517,0,
1,1775068074672,-3421,129,13926,2045176,531452,496022,0,0,0,267,251,208,299,147,249,441,382,250,342,385,99,0,
2,1775068074672,1966,-229,13117,2443460,-287106,-403171,0,0,0,471,503,233,417,437,476,269,192,341,263,192,523,0,
1,1775068074688,-3105,454,12605,1384220,460592,113620,0,0,0,273,256,212,301,150,247,446,386,241,353,388,96,0,
2,1775068074688,2268,-248,13907,2823419,-353080,-471587,0,0,0,470,507,241,407,432,467,260,183,338,257,185,515,0,
1,1775068074704,-1943,957,10591,844215,389732,-74525,0,0,0,286,261,218,307,150,252,458,388,236,354,390,96,0,
2,1775068074704,2904,-335,15089,3313333,-455705,-588874,0,0,0,461,501,240,399,428,459,253,172,334,237,168,484,0,
1,1775068074720,-1785,1000,9609,624304,355523,-47647,0,0,0,302,262,223,322,151,264,478,406,234,365,414,110,0,
2,1775068074720,3484,-564,16601,3844785,-614530,-753807,0,0,0,451,485,237,391,421,453,247,162,326,216,152,441,0,
1,1775068074736,-1880,579,9791,412944,310319,-56199,0,0,0,315,272,231,352,175,272,478,425,251,388,421,125,0,
2,1775068074736,3756,-708,18420,4448320,-829554,-930958,0,0,0,424,479,230,382,413,436,246,156,316,205,147,389,0,
1,1775068074752,-1794,282,10385,112399,221133,-85521,0,0,0,321,278,235,349,186,283,485,434,254,414,417,141,0,
2,1775068074752,4316,-612,19602,4977329,-979827,-1067792,0,0,0,377,472,220,368,399,407,254,166,301,195,146,343,0,
1,1775068074768,-1718,684,10342,-90408,120951,-65973,0,0,0,324,288,238,351,194,282,495,449,255,416,437,151,0,
2,1775068074768,4972,-650,19406,5375614,-836885,-1263269,0,0,0,331,446,210,354,381,386,265,185,277,175,137,307,0,
1,1775068074784,-1737,1062,10179,-119729,36651,-30543,0,0,0,325,285,236,367,199,299,502,458,258,427,434,165,0,
2,1775068074784,5326,-808,19535,5721363,-459370,-1541823,0,0,0,297,417,201,332,354,354,291,227,253,141,112,234,0,
1,1775068074800,-1775,1186,10165,-18325,-67195,-9773,0,0,0,329,290,246,367,198,313,505,461,272,439,428,176,0,
2,1775068074800,6604,-708,18870,5869193,3665,-1880243,0,0,0,233,382,202,292,318,326,307,258,246,110,103,154,0,
1,1775068074816,-1847,1172,10160,86742,-175929,0,0,0,0,325,290,251,365,201,328,516,468,296,437,428,194,0,
2,1775068074816,7446,248,13701,5502674,94073,-2350609,0,0,0,250,395,208,301,320,326,307,258,248,113,107,166,0,
1,1775068074832,-1976,1072,10026,168598,-248011,9773,0,0,0,317,287,248,362,203,332,528,468,305,429,427,212,0,
2,1775068074832,7202,4828,9073,4411668,-343306,-2583959,0,0,0,252,398,208,302,322,324,300,255,242,109,101,165,0,
1,1775068074848,-2086,985,9853,208915,-256563,21991,0,0,0,316,293,248,355,203,338,529,459,313,423,424,226,0,
2,1775068074848,6810,12380,8796,2007303,-781907,-2149023,0,0,0,246,399,204,302,326,325,299,256,236,118,109,165,0,
1,1775068074864,-2120,957,9763,213802,-216246,39095,0,0,0,320,299,253,360,206,367,523,457,338,415,422,241,0,
2,1775068074864,5709,12854,9016,-874759,-1072679,-1099557,0,0,0,241,398,204,298,326,324,280,262,242,111,109,166,0,
1,1775068074880,-2120,947,9815,218689,-183259,54977,0,0,0,322,301,253,374,206,367,524,455,326,413,427,250,0,
2,1775068074880,5838,7652,6341,-2040289,-1287703,-463035,0,0,0,237,399,208,297,327,325,286,262,237,106,104,164,0,
1,1775068074896,-2120,918,9839,234572,-162490,67195,0,0,0,314,300,262,370,208,367,529,436,322,402,418,279,0,
2,1775068074896,6508,5240,4072,-1910786,-867428,-505796,0,0,0,230,401,210,298,331,327,296,262,233,107,105,164,0,
1,1775068074912,-2081,890,9810,259006,-157603,78190,0,0,0,314,299,273,381,206,375,529,421,332,401,379,294,0,
2,1775068074912,5556,5872,4053,-1996307,-89186,-580321,0,0,0,229,403,212,298,334,327,296,263,232,112,110,166,0,
1,1775068074928,-2077,861,9782,280998,-167377,84299,0,0,0,310,294,244,377,209,379,540,404,334,398,357,303,0,
2,1775068074928,3953,7130,5465,-2504547,266337,-300545,0,0,0,229,405,214,296,334,326,295,263,233,116,113,167,0,
1,1775068074944,-2110,818,9748,295658,-175929,86742,0,0,0,314,296,249,382,209,371,535,388,318,393,346,310,0,
2,1775068074944,3866,7188,6269,-3082425,426383,169820,0,0,0,228,405,214,295,333,325,296,266,234,116,114,167,0,
1,1775068074960,-2139,746,9590,272445,-150272,85521,0,0,0,316,297,240,398,216,376,533,372,327,383,332,319,0,
2,1775068074960,4943,6255,6657,-3477044,823446,553443,0,0,0,230,405,214,295,332,324,295,266,233,116,114,167,0,
1,1775068074976,-2167,698,9528,235793,-114842,81855,0,0,0,316,295,234,403,216,370,539,362,319,389,331,319,0,
2,1775068074976,4321,5848,7977,-3750712,1396437,753807,0,0,0,230,405,214,295,333,326,294,265,233,115,115,168,0,
1,1775068074992,-2187,684,9605,228463,-95294,78190,0,0,0,320,289,239,404,210,372,540,353,331,396,332,325,0,
2,1775068074992,3000,5623,9763,-4152661,1701870,1010371,0,0,0,229,406,216,294,332,325,294,264,232,113,114,169,0,
1,1775068075008,-2153,646,9643,228463,-83077,74525,0,0,0,322,289,244,404,213,375,544,348,345,402,333,335,0,
2,1775068075008,2584,5082,11007,-4576602,1639562,1269377,0,0,0,228,405,215,294,332,325,296,267,236,109,114,169,0,
1,1775068075024,-2129,607,9643,207694,-63529,67195,0,0,0,318,293,245,400,224,374,518,336,350,390,324,342,0,
2,1775068075024,3096,4249,12132,-4902804,1659109,1420872,0,0,0,226,404,215,296,332,327,299,267,236,113,116,169,0,
1,1775068075040,-2124,579,9648,169820,-36651,53756,0,0,0,319,302,248,395,240,377,501,336,348,371,313,352,0,
2,1775068075040,3249,3828,13720,-5120272,1815491,1458746,0,0,0,228,405,218,296,333,329,300,267,237,113,115,171,0,
1,1775068075056,-2124,559,9681,147829,-20769,45204,0,0,0,323,308,253,395,253,383,538,348,335,374,311,364,0,
2,1775068075056,2991,3761,15759,-5324301,1909564,1479515,0,0,0,229,406,218,300,335,332,301,268,240,113,116,172,0,
1,1775068075072,-2124,550,9719,151494,-23212,43982,0,0,0,325,294,252,406,247,394,541,332,336,373,296,370,0,
2,1775068075072,2952,3589,17817,-5544212,1927890,1538158,0,0,0,229,405,218,298,333,330,299,266,239,109,112,168,0,
1,1775068075088,-2148,555,9763,168598,-29321,47647,0,0,0,335,305,245,419,244,401,543,343,337,381,305,370,0,
2,1775068075088,3105,3354,19774,-5716476,1959655,1620014,0,0,0,227,405,217,299,335,331,300,265,239,113,114,169,0,
1,1775068075104,-2206,559,9810,195476,-30543,58643,0,0,0,334,319,248,404,252,402,529,329,358,372,297,368,0,
2,1775068075104,2933,3024,22210,-5833763,2026850,1740965,0,0,0,226,406,216,302,336,333,303,265,239,114,115,174,0,
1,1775068075120,-2220,521,9849,227241,-25656,75747,0,0,0,334,319,248,415,258,400,506,317,343,358,286,380,0,
2,1775068075120,2364,2043,24551,-5871636,2007303,1946216,0,0,0,227,406,216,302,334,331,305,265,240,111,111,173,0,
1,1775068075136,-2191,464,9887,266337,-32986,92851,0,0,0,342,321,254,421,266,422,499,301,359,355,278,394,0,
2,1775068075136,1885,-162,26288,-5793445,1868025,2239431,0,0,0,228,406,216,289,347,324,309,265,242,110,109,169,0,
1,1775068075152,-2158,421,9906,304210,-48869,105068,0,0,0,349,325,255,423,275,422,500,282,354,339,257,398,0,
2,1775068075152,2680,-4996,27398,-5567425,1595580,2443460,0,0,0,228,407,216,283,359,321,312,266,244,112,110,170,0,
1,1775068075168,-2191,392,9906,349414,-62308,116064,0,0,0,343,322,242,420,292,412,487,274,344,332,247,409,0,
2,1775068075168,5455,-12682,26283,-5215567,1221730,2135584,0,0,0,232,408,216,310,338,334,311,265,246,112,108,170,0,
1,1775068075184,-2273,378,9992,406836,-68416,134390,0,0,0,339,317,248,439,293,429,497,242,346,319,223,430,0,
2,1775068075184,6781,-21024,21392,-4472755,1213178,916297,0,0,0,233,408,215,309,338,333,314,267,249,111,109,167,0,
1,1775068075200,-2297,320,10145,491135,-75747,160046,0,0,0,336,343,256,444,319,445,489,231,351,297,208,447,0,
2,1775068075200,1957,-26350,16721,-3230255,1609019,-480140,0,0,0,236,410,218,311,338,335,313,267,249,110,108,169,0,
1,1775068075216,-2359,248,10294,586430,-95294,185703,0,0,0,333,357,244,440,335,451,468,218,352,280,190,456,0,
2,1775068075216,-7633,-26757,15266,-1716531,1419650,-1003040,0,0,0,236,409,219,309,338,335,314,268,250,110,109,170,0,
1,1775068075232,-2479,191,10528,708603,-130725,227241,0,0,0,332,354,229,444,332,456,450,195,358,291,176,468,0,
2,1775068075232,-10897,-26441,14539,-548556,420275,-626747,0,0,0,236,409,215,310,338,335,312,266,247,116,109,174,0,
1,1775068075248,-2364,138,10949,915076,-130725,276111,0,0,0,347,359,224,468,333,463,434,182,359,292,163,487,0,
2,1775068075248,-6628,-25766,13141,579100,-624304,-8552,0,0,0,235,410,218,310,340,337,309,269,249,111,110,173,0,
1,1775068075264,-2330,52,11337,1144761,-131946,309097,0,0,0,364,367,222,488,333,474,417,173,359,267,142,507,0,
2,1775068075264,-2900,-21392,13199,1723861,-733038,133168,0,0,0,227,406,217,310,341,336,318,313,243,125,132,178,0,
1,1775068075280,-2569,-76,11639,1402546,-173485,359188,0,0,0,359,377,221,479,339,483,401,168,369,259,136,529,0,
2,1775068075280,-842,-8834,15692,2681698,-831998,321315,0,0,0,224,400,198,317,342,326,360,370,233,141,163,160,0,
1,1775068075296,-2747,-205,11916,1674992,-194255,436157,0,0,0,356,389,210,483,356,484,397,164,358,263,133,543,0,
2,1775068075296,2699,14520,15568,2979800,-1541823,814894,0,0,0,226,390,203,313,334,329,373,403,236,150,180,155,0,
1,1775068075312,-2670,-272,12438,2012190,-183259,520457,0,0,0,369,376,204,479,348,489,339,159,382,250,127,539,0,
2,1775068075312,2732,15439,9413,3110525,-2463008,1049466,0,0,0,228,384,195,311,335,324,387,431,235,158,207,153,0,
1,1775068075328,-2847,-349,13117,2419026,-144164,586430,0,0,0,371,376,208,467,348,477,297,159,389,244,125,545,0,
2,1775068075328,-770,4292,8825,3916867,-2574186,799011,0,0,0,229,385,186,314,335,326,404,443,235,178,236,158,0,
1,1775068075344,-3484,-492,13653,2877175,-65973,684169,0,0,0,387,398,207,464,341,490,235,157,405,237,125,542,0,
2,1775068075344,-3263,-1785,14687,4196644,-1612684,208915,0,0,0,230,387,194,318,335,333,418,454,239,200,263,163,0,
1,1775068075360,-3862,-588,14180,3369532,13439,855211,0,0,0,385,377,209,433,327,485,204,150,388,216,118,532,0,
2,1775068075360,-1780,81,17630,3685960,-763581,-339641,0,0,0,236,393,214,320,333,338,432,466,244,219,283,167,0,
1,1775068075376,-3747,-655,15372,3946189,29321,1042136,0,0,0,394,355,218,403,325,476,190,145,394,184,109,509,0,
2,1775068075376,1923,2569,16817,2965139,-430049,-487470,0,0,0,246,402,234,320,331,343,449,473,251,224,285,170,0,
1,1775068075392,-4044,-1091,17315,4590041,-21991,1186300,0,0,0,399,345,212,385,328,465,194,152,388,168,107,472,0,
2,1775068075392,2689,985,14673,2091602,-357967,-120951,0,0,0,254,409,250,327,334,351,460,474,261,247,313,174,0,
1,1775068075408,-5297,-1306,19636,5288871,-83077,1339016,0,0,0,371,344,192,391,321,434,191,152,368,156,108,408,0,x
2,1775068075408,1574,248,11782,1112996,-276111,149051,0,0,0,268,411,260,343,334,351,468,469,261,334,391,175,0,x
1,1775068075424,-7130,-1263,21138,5858197,-57421,1585806,0,0,0,336,336,181,367,295,397,207,142,332,149,103,322,0,
2,1775068075424,961,732,10217,482583,-197920,125838,0,0,0,288,419,269,355,337,365,479,475,257,350,397,181,0,
1,1775068075440,-7738,-1368,22388,6300464,217468,1958433,0,0,0,298,318,192,316,245,368,209,136,296,136,93,258,0,
2,1775068075440,1115,899,10131,120951,-160046,53756,0,0,0,303,430,275,353,337,358,455,467,268,332,391,188,0,
1,1775068075456,-7111,-335,23053,6674313,553443,2274862,0,0,0,257,308,196,270,206,323,214,160,265,131,118,202,0,
2,1775068075456,1311,990,10466,-35430,-158824,13439,0,0,0,316,434,280,356,337,359,484,484,264,373,436,192,0,
1,1775068075472,-6657,981,22799,7043276,764803,2421469,0,0,0,247,286,181,256,182,258,263,194,239,162,165,142,0,
2,1775068075472,1167,1277,10332,-72082,-103847,3665,0,0,0,324,436,290,366,339,368,501,486,265,376,424,193,0,
1,1775068075488,-8442,3455,17961,7206988,673173,2493551,0,0,0,281,227,188,278,132,229,309,189,236,197,166,130,0,
2,1775068075488,1172,1507,10174,-62308,-21991,-3665,0,0,0,331,440,287,367,344,364,500,488,265,376,430,201,0,
1,1775068075504,-9447,7446,10954,6662096,183259,2659707,0,0,0,266,234,196,273,133,241,307,194,246,178,160,117,0,
2,1775068075504,1316,1588,10093,-15882,15882,-13439,0,0,0,334,438,283,361,336,359,503,491,268,373,422,210,0,
1,1775068075520,-7499,12691,8695,4637688,-179594,2309070,0,0,0,261,242,197,269,139,251,293,202,247,168,170,116,0,
2,1775068075520,1354,1631,10078,40317,0,-20769,0,0,0,335,440,282,365,339,362,502,493,271,367,419,204,0,
1,1775068075536,-3149,16424,10734,-135612,536339,210137,0,0,0,262,247,192,275,154,247,306,219,242,168,177,115,0,
2,1775068075536,1296,1665,10064,128281,-4886,-24434,0,0,0,333,440,283,362,340,368,500,490,282,359,412,208,0,
1,1775068075552,-4187,11624,10031,-2795319,1616349,-1374446,0,0,0,267,252,199,270,154,235,303,225,232,175,185,123,0,
2,1775068075552,1292,1603,10007,202807,6108,-26878,0,0,0,341,444,287,364,344,370,506,491,281,292,340,227,0,
1,1775068075568,-7690,5508,6762,-3573561,1847256,-1747074,0,0,0,259,253,195,271,158,239,304,233,232,171,193,114,0,
2,1775068075568,1320,1493,9925,246789,12217,-28099,0,0,0,349,449,289,369,350,370,509,488,275,239,278,239,0,
1,1775068075584,-8949,3273,4201,-3056769,766025,-833220,0,0,0,259,256,193,270,162,238,301,238,234,167,195,112,0,
2,1775068075584,1354,1426,9863,254119,2443,-30543,0,0,0,351,448,288,370,351,371,507,478,277,237,262,246,0,
1,1775068075600,-5953,4546,5264,-3233920,-4886,-168598,0,0,0,260,258,195,270,162,241,300,236,237,168,195,113,0,
2,1775068075600,1354,1411,9853,255341,-14660,-35430,0,0,0,355,445,287,372,352,373,509,470,282,237,249,261,0,
1,1775068075616,-3771,5436,6896,-3892433,64751,-98960,0,0,0,261,258,198,269,161,245,297,234,244,168,196,118,0,
2,1775068075616,1340,1411,9868,268780,-24434,-42760,0,0,0,360,449,287,375,357,381,513,464,286,237,246,272,0,
1,1775068075632,-4407,4991,7853,-4690223,445931,-421497,0,0,0,262,259,197,269,161,242,297,235,238,170,198,116,0,
2,1775068075632,1354,1407,9863,295658,-28099,-48869,0,0,0,365,455,289,378,359,384,512,457,287,238,239,280,0,
1,1775068075648,-5805,3929,8403,-5196019,355523,-663399,0,0,0,262,260,198,269,164,239,298,237,232,171,199,113,0,
2,1775068075648,1373,1378,9868,328645,-30543,-53756,0,0,0,370,456,292,387,359,389,517,440,291,236,218,300,0,
1,1775068075664,-6039,2794,9356,-5440365,-205250,-821002,0,0,0,263,261,200,269,167,242,297,240,233,168,198,112,0,
2,1775068075664,1368,1340,9892,366519,-30543,-59864,0,0,0,380,458,294,392,358,396,504,422,290,236,205,313,0,
1,1775068075680,-5494,1938,10681,-5618738,-696386,-1026253,0,0,0,259,263,203,269,166,247,295,239,233,167,199,114,0,
2,1775068075680,1344,1273,9892,398284,-25656,-63529,0,0,0,390,468,300,395,357,408,515,409,308,284,237,321,0,
1,1775068075696,-5216,1244,12242,-5801998,-962723,-1279151,0,0,0,254,264,205,266,167,248,295,239,234,168,200,117,0,
2,1775068075696,1325,1177,9906,411723,-19547,-64751,0,0,0,386,459,296,395,357,410,502,390,309,274,230,337,0,
1,1775068075712,-5494,559,13998,-5943718,-1189965,-1407433,0,0,0,255,266,204,267,165,246,298,243,238,168,200,116,0,
2,1775068075712,1340,1076,9930,404392,-9773,-61086,0,0,0,401,470,302,404,365,419,507,381,314,241,180,353,0,
1,1775068075728,-5589,4,15793,-6003583,-1434311,-1378111,0,0,0,252,266,201,267,165,245,294,240,235,169,203,114,0,
2,1775068075728,1411,1014,9944,394618,-9773,-53756,0,0,0,400,477,300,410,371,431,504,371,318,229,170,363,0,
1,1775068075744,-5331,-440,17764,-6004805,-1637118,-1271821,0,0,0,257,265,203,268,167,244,292,239,231,167,201,109,0,
2,1775068075744,1478,976,9983,403171,-26878,-57421,0,0,0,410,478,308,411,375,437,500,354,318,224,160,374,0,
1,1775068075760,-5120,-813,19980,-5975483,-1728748,-1253495,0,0,0,257,264,200,273,168,244,301,241,232,172,201,107,0,
2,1775068075760,1450,928,10026,431270,-43982,-75747,0,0,0,421,483,316,412,381,444,498,338,330,225,156,394,0,
1,1775068075776,-5250,-1373,22067,-5933944,-1797165,-1395216,0,0,0,257,264,200,272,165,242,301,240,231,172,204,108,0,
2,1775068075776,1426,880,10064,463035,-43982,-95294,0,0,0,427,488,322,415,386,448,489,319,339,229,154,408,0,
1,1775068075792,-5345,-2876,24460,-5870414,-1957212,-1743409,0,0,0,255,265,203,271,165,243,297,240,233,173,205,115,0,
2,1775068075792,1445,818,10088,507018,-19547,-116064,0,0,0,431,494,319,418,389,448,475,296,342,232,154,428,0,
1,1775068075808,-4814,-6843,26977,-5780006,-2152689,-2233323,0,0,0,251,261,199,273,165,244,304,247,232,170,196,109,0,
2,1775068075808,1521,751,10150,560774,12217,-135612,0,0,0,434,502,313,425,400,455,465,281,345,240,158,453,0,
1,1775068075824,-4867,-13371,27341,-5673716,-1986533,-2401922,0,0,0,253,267,200,269,166,242,312,248,237,166,198,106,0,
2,1775068075824,1655,698,10327,624304,42760,-160046,0,0,0,438,506,315,433,409,465,461,263,346,246,159,468,0,
1,1775068075840,-6025,-21105,24469,-5442809,-1610240,-1892460,0,0,0,251,266,198,267,167,244,315,248,242,168,202,109,0,
2,1775068075840,1809,650,10782,737925,61086,-200363,0,0,0,447,517,312,440,409,469,451,233,351,242,156,479,0,
1,1775068075856,-5144,-28236,19506,-4818505,-1578475,-618195,0,0,0,246,269,194,265,175,243,312,250,242,171,208,112,0,
2,1775068075856,1722,646,11418,992045,35430,-244346,0,0,0,453,534,304,453,420,481,422,226,360,243,156,498,0,
1,1775068075872,1789,-33615,15558,-3617543,-1860695,811229,0,0,0,245,274,192,268,185,245,307,249,241,173,212,112,0,
2,1775068075872,1430,626,11921,1312138,53756,-262672,0,0,0,468,529,300,453,431,488,392,212,369,248,158,527,0,
1,1775068075888,12266,-36960,14558,-2003637,-1304808,1369559,0,0,0,242,275,195,269,187,253,305,241,258,177,208,117,0,
2,1775068075888,1387,526,12376,1646892,125838,-246789,0,0,0,472,535,287,462,433,495,367,204,385,247,158,533,0,
1,1775068075904,16132,-37544,14333,-360410,360410,1099557,0,0,0,238,272,193,267,182,252,318,253,274,199,233,119,0,
2,1775068075904,1842,339,12979,2045176,149051,-249233,0,0,0,459,546,255,449,448,480,333,202,368,251,172,547,0,
1,1775068075920,8212,-27389,16075,1125213,1955990,742812,0,0,0,237,253,172,272,163,227,365,313,245,246,298,101,0,
2,1775068075920,2598,210,13687,2521651,51312,-329867,0,0,0,475,539,240,460,446,490,290,189,361,249,165,548,0,
1,1775068075936,-1789,-2072,16501,2569299,3194825,488692,0,0,0,234,231,141,269,139,205,428,387,207,288,346,77,0,
2,1775068075936,2837,134,14457,3050661,-146607,-469144,0,0,0,468,521,227,453,452,497,257,178,357,244,161,549,0,
1,1775068075952,-4742,12361,11701,3386636,3573561,108734,0,0,0,229,229,134,253,141,207,445,411,206,303,400,75,0,
2,1775068075952,3278,100,15381,3643200,-343306,-618195,0,0,0,463,513,220,433,450,485,234,164,348,245,169,544,0,
1,1775068075968,-703,5958,11854,4278500,2811201,-92851,0,0,0,237,235,134,258,142,210,456,446,211,316,412,71,0,
2,1775068075968,4072,205,16472,4279721,-488692,-818559,0,0,0,471,505,234,425,449,488,230,150,363,237,160,521,0,
1,1775068075984,3072,-2325,17927,4704884,1354899,147829,0,0,0,227,239,146,262,149,226,468,466,215,332,419,74,0,
2,1775068075984,4283,172,18741,5089729,-590095,-1109331,0,0,0,463,486,237,425,438,476,231,139,356,222,144,463,0,
1,1775068076000,47,-1292,20033,3749490,513126,671951,0,0,0,232,247,164,267,152,233,484,484,223,340,429,73,0,
2,1775068076000,3957,220,22426,5960823,-593761,-1276708,0,0,0,429,469,220,415,427,457,231,135,334,206,136,391,0,
1,1775068076016,-3642,320,16898,2494773,307876,581543,0,0,0,240,255,184,278,166,251,488,477,235,376,438,97,0,
2,1775068076016,4355,708,25398,6701191,-448375,-1343903,0,0,0,371,455,202,393,412,430,239,146,313,186,131,337,0,
1,1775068076032,-3785,263,12596,1401324,240680,32986,0,0,0,260,262,209,307,170,273,491,478,242,395,445,129,0,
2,1775068076032,4938,1325,26944,7360926,-125838,-1462411,0,0,0,310,436,194,361,386,393,255,169,282,160,121,291,0,
1,1775068076048,-2014,-43,10361,648738,134390,-208915,0,0,0,266,272,227,328,192,298,501,473,256,407,456,156,0,
2,1775068076048,5326,2081,27666,7913148,326202,-1712866,0,0,0,263,409,199,321,355,356,267,200,251,127,107,227,0,
1,1775068076064,-1627,277,10054,241902,98960,-139277,0,0,0,282,278,249,340,197,313,508,474,270,415,462,169,0,
2,1775068076064,6949,3383,25455,8299215,733038,-2032959,0,0,0,231,394,208,291,325,329,279,231,247,102,98,158,0,
1,1775068076080,-1957,832,10232,76969,108734,-46425,0,0,0,300,275,255,349,190,323,512,485,281,420,461,177,0,
2,1775068076080,9365,6896,17161,8190481,913854,-2559525,0,0,0,244,398,214,300,324,338,288,242,255,120,117,173,0,
1,1775068076096,-2038,1067,10208,43982,96516,-21991,0,0,0,307,273,252,356,190,336,515,499,288,421,460,190,0,
2,1775068076096,7566,12945,11605,6505714,428827,-3050661,0,0,0,240,397,206,303,328,337,291,244,244,118,113,166,0,
1,1775068076112,-1909,1134,10141,90408,34208,-6108,0,0,0,308,278,256,361,194,341,517,500,285,418,459,201,0,
2,1775068076112,3981,19736,10064,2437352,-510683,-2682920,0,0,0,240,403,206,297,331,327,293,252,240,114,115,163,0,
1,1775068076128,-1828,1148,10126,152716,-48869,18325,0,0,0,310,283,250,356,197,342,517,489,290,416,455,208,0,
2,1775068076128,2354,19358,11012,-2893057,-1466076,-1231504,0,0,0,240,403,206,299,331,326,290,248,234,122,116,163,0,
1,1775068076144,-1895,1167,10131,206472,-122173,39095,0,0,0,314,288,255,353,198,361,509,480,316,421,450,234,0,
2,1775068076144,4178,10212,8982,-5218010,-1781283,-100181,0,0,0,235,403,208,296,330,326,296,250,236,120,116,165,0,
1,1775068076160,-1981,1172,10031,265115,-161268,50090,0,0,0,331,292,244,363,197,363,511,470,313,420,425,263,0,
2,1775068076160,5742,4383,5876,-5125159,-1568701,90408,0,0,0,230,404,209,295,330,328,293,253,237,120,120,166,0,
1,1775068076176,-2029,1129,9815,307876,-166155,58643,0,0,0,312,290,236,364,197,351,518,455,301,413,412,238,0,
2,1775068076176,6427,3503,4259,-4546059,-989601,-150272,0,0,0,226,405,206,295,333,329,294,254,238,117,121,167,0,
1,1775068076192,-2077,1024,9633,326202,-152716,63529,0,0,0,316,292,246,356,195,353,506,442,298,411,396,259,0,
2,1775068076192,6068,5039,5278,-4792848,-274889,-287106,0,0,0,232,407,210,295,333,329,292,253,236,121,125,169,0,
1,1775068076208,-2115,899,9518,311541,-128281,69638,0,0,0,313,292,239,360,198,354,508,435,301,405,408,248,0,
2,1775068076208,5125,5695,7154,-5408600,273667,-210137,0,0,0,230,408,210,296,333,329,293,254,237,124,123,167,0,
1,1775068076224,-2062,861,9518,271224,-96516,78190,0,0,0,320,294,248,363,199,354,500,421,307,408,379,252,0,
2,1775068076224,4556,4881,8236,-5734802,493579,29321,0,0,0,227,408,209,298,334,330,295,254,237,123,122,166,0,
1,1775068076240,-2010,885,9595,241902,-80634,80634,0,0,0,315,287,242,340,196,360,498,412,310,396,360,260,0,
2,1775068076240,4503,3814,8949,-5777563,774577,397062,0,0,0,223,406,210,298,336,331,295,254,237,123,124,167,0,
1,1775068076256,-2000,914,9686,227241,-72082,78190,0,0,0,315,285,242,352,197,359,500,397,308,386,347,266,0,
2,1775068076256,4513,3594,9916,-5827654,1123992,689055,0,0,0,220,406,209,297,336,332,295,256,240,123,125,168,0,
1,1775068076272,-2033,871,9657,223576,-56199,69638,0,0,0,317,290,242,362,200,354,506,394,305,379,344,275,0,
2,1775068076272,4388,3570,11222,-5942497,1439198,926071,0,0,0,221,411,210,297,339,333,295,260,241,120,124,165,0,
1,1775068076288,-2029,813,9600,218689,-31764,62308,0,0,0,318,296,241,360,197,352,516,383,302,370,336,287,0,
2,1775068076288,4168,3450,13366,-6124534,1721418,1180191,0,0,0,221,413,210,298,345,334,293,259,239,122,127,168,0,
1,1775068076304,-2000,775,9619,219911,-15882,59864,0,0,0,318,298,238,372,205,351,522,367,302,369,322,300,0,
2,1775068076304,4350,3163,15659,-6280916,1805717,1362229,0,0,0,221,406,210,301,338,336,298,255,240,124,123,168,0,
1,1775068076320,-1966,727,9700,233350,-29321,67195,0,0,0,315,295,229,393,226,350,522,367,309,374,313,314,0,
2,1775068076320,4938,2919,18186,-6425080,1882686,1501506,0,0,0,220,406,212,301,337,336,302,260,246,123,122,167,0,
1,1775068076336,-1943,674,9748,249233,-64751,80634,0,0,0,310,287,221,408,229,362,522,355,316,372,303,335,0,
2,1775068076336,5508,2900,21540,-6566801,2057394,1621236,0,0,0,225,407,214,302,337,336,302,258,245,120,122,167,0,
1,1775068076352,-1990,646,9777,266337,-105068,90408,0,0,0,314,293,233,399,223,379,514,340,325,370,302,365,0,
2,1775068076352,5814,2598,25771,-6747617,2221106,1854586,0,0,0,225,407,214,299,335,335,303,256,245,174,138,167,0,
1,1775068076368,-2139,665,9806,300545,-124616,108734,0,0,0,314,296,232,382,234,376,507,305,324,347,281,355,0,
2,1775068076368,6030,473,29222,-6923546,2339613,2326174,0,0,0,224,405,212,303,336,337,303,254,247,132,125,172,0,
1,1775068076384,-2278,698,9897,370184,-108734,139277,0,0,0,319,301,235,390,245,399,503,306,336,338,257,374,0,
2,1775068076384,5072,-6020,31505,-6761056,2778215,2868623,0,0,0,227,406,211,311,338,339,310,253,252,128,123,172,0,
1,1775068076400,-2268,622,10069,474031,-76969,178372,0,0,0,316,351,231,408,290,407,499,270,336,325,249,389,0,
2,1775068076400,2297,-15539,33113,-6112317,2987131,3079982,0,0,0,229,407,210,315,338,339,313,250,255,125,118,172,0,
1,1775068076416,-2225,512,10160,563217,-61086,207694,0,0,0,333,366,249,406,287,424,486,242,354,328,235,424,0,
2,1775068076416,354,-27566,30332,-4956560,2092824,2608394,0,0,0,230,407,210,316,339,340,316,250,256,125,117,173,0,
1,1775068076432,-2354,449,10265,648738,-54977,227241,0,0,0,346,381,245,409,306,449,482,223,365,299,212,466,0,
2,1775068076432,354,-37798,21746,-3415958,1128878,987158,0,0,0,233,408,211,317,337,342,320,251,256,124,116,170,0,
1,1775068076448,-2603,421,10500,758694,-61086,259006,0,0,0,362,400,248,426,351,466,468,220,380,281,204,504,0,
2,1775068076448,-4422,-43081,16190,-1753183,927293,-1043357,0,0,0,233,408,211,317,336,343,322,252,256,123,115,169,0,
1,1775068076464,-2646,320,10978,917519,-100181,323758,0,0,0,359,421,241,438,352,482,450,203,384,274,183,524,0,
2,1775068076464,-11806,-42612,16515,-306654,516791,-2189341,0,0,0,227,404,209,318,342,344,329,289,249,126,128,165,0,
1,1775068076480,-2110,167,11859,1186300,-123394,362853,0,0,0,373,420,234,438,346,492,418,184,383,269,167,531,0,
2,1775068076480,-11026,-32610,19741,1266934,-910189,-1843591,0,0,0,222,401,197,316,344,337,349,364,236,140,162,160,0,
1,1775068076496,-2062,105,12725,1532050,-167377,365297,0,0,0,380,417,231,439,337,496,376,174,393,256,148,536,0,
2,1775068076496,-1028,-3048,20813,2943148,-2692693,-883311,0,0,0,223,394,179,312,336,318,379,412,230,160,200,158,0,
1,1775068076512,-2613,67,13414,1982868,-235793,410501,0,0,0,374,410,220,451,335,499,335,159,403,242,132,545,0,
2,1775068076512,6374,14663,12653,3678630,-3379306,-34208,0,0,0,226,380,177,312,335,320,399,436,234,165,220,153,0,
1,1775068076528,-3086,157,14194,2557081,-280998,527787,0,0,0,375,393,204,451,355,498,279,141,407,231,134,553,0,
2,1775068076528,4010,7843,9375,4528954,-2781880,547335,0,0,0,230,386,178,316,335,328,410,446,237,184,250,151,0,
1,1775068076544,-3546,258,15104,3251024,-204028,719599,0,0,0,378,391,206,426,360,494,205,141,412,213,130,549,0,
2,1775068076544,-2512,-2187,16089,4835609,-1255938,619417,0,0,0,230,388,187,321,338,334,419,452,236,258,334,155,0,
1,1775068076560,-3981,311,16142,3976732,-65973,934623,0,0,0,391,375,219,431,324,496,187,137,394,202,111,536,0,
2,1775068076560,-3948,-1612,19325,4272391,-376292,179594,0,0,0,236,389,206,325,333,345,428,467,239,228,298,163,0,
1,1775068076576,-4474,349,17674,4695110,20769,1150870,0,0,0,411,348,219,424,306,476,180,119,402,178,87,505,0,
2,1775068076576,-626,2153,17506,3475823,-128281,-365297,0,0,0,251,405,233,324,335,341,451,466,239,235,316,167,0,
1,1775068076592,-5987,-52,20320,5522221,46425,1422094,0,0,0,407,327,204,405,308,446,178,116,348,162,85,431,0,
2,1775068076592,2756,1837,14783,2643824,-131946,-404392,0,0,0,259,407,248,336,332,343,456,460,247,311,370,166,0,
1,1775068076608,-8188,-162,22498,6267477,94073,1777617,0,0,0,339,332,189,357,308,415,179,121,331,154,98,358,0,
2,1775068076608,2488,114,12246,1490511,-175929,-8552,0,0,0,278,417,263,350,341,361,480,466,258,353,406,179,0,
1,1775068076624,-9447,-81,23895,6783047,310319,2218662,0,0,0,305,317,188,323,265,375,175,119,295,131,92,273,0,
2,1775068076624,1225,28,10662,565661,-221133,179594,0,0,0,306,433,275,360,350,369,492,486,266,276,324,204,0,
1,1775068076640,-9322,650,25661,7197214,718377,2640159,0,0,0,253,293,184,279,225,320,206,143,270,129,102,219,0,
2,1775068076640,938,459,10437,144164,-241902,95294,0,0,0,333,440,279,367,351,371,496,493,270,285,329,216,0,
1,1775068076656,-9026,2550,25833,7578394,1048244,2918714,0,0,0,230,260,180,241,177,258,256,183,245,125,124,134,0,
2,1775068076656,1139,856,10380,-37873,-234572,6108,0,0,0,339,438,282,366,348,369,495,491,267,342,390,216,0,
1,1775068076672,-10916,5704,21335,7942469,1219287,3159395,0,0,0,271,234,182,272,144,232,292,193,237,157,151,110,0,
2,1775068076672,1143,1172,10332,-70860,-178372,-7330,0,0,0,335,439,285,366,347,370,495,500,265,338,397,215,0,
1,1775068076688,-13141,9361,14725,7863057,927293,3508809,0,0,0,282,236,189,284,144,233,295,205,238,177,184,120,0,
2,1775068076688,1110,1392,10294,-56199,-95294,-4886,0,0,0,341,446,290,371,350,374,500,513,268,292,359,220,0,
1,1775068076704,-10672,14874,10552,5792224,-10995,3379306,0,0,0,265,249,191,276,159,240,288,219,240,172,199,122,0,
2,1775068076704,1167,1497,10236,3665,-50090,-13439,0,0,0,348,451,295,370,352,375,504,515,271,275,338,223,0,
1,1775068076720,-4364,19564,10002,1628566,-112399,1591914,0,0,0,264,254,191,280,164,241,290,220,238,169,195,117,0,
2,1775068076720,1177,1536,10217,86742,-58643,-25656,0,0,0,348,453,293,367,350,374,502,509,273,294,347,225,0,
1,1775068076736,-1655,17846,10681,-2954144,1257160,-1417207,0,0,0,266,256,194,280,162,237,293,221,236,170,194,117,0,
2,1775068076736,1134,1526,10212,185703,-56199,-34208,0,0,0,353,455,293,370,348,378,504,508,281,290,336,233,0,
1,1775068076752,-7016,10710,8724,-4516737,2029294,-2631607,0,0,0,266,256,191,284,162,239,300,224,238,173,193,116,0,
2,1775068076752,1110,1454,10107,271224,-28099,-35430,0,0,0,360,464,298,370,351,384,509,501,287,262,284,254,0,
1,1775068076768,-10457,6264,6336,-4648684,1194852,-2149023,0,0,0,264,256,190,281,163,239,299,225,238,174,200,120,0,
2,1775068076768,1134,1383,10011,324980,-12217,-34208,0,0,0,363,469,296,369,353,378,503,483,284,340,309,239,0,
1,1775068076784,-8600,5407,5556,-4549724,-355523,-912632,0,0,0,264,257,193,285,165,244,299,228,244,172,201,119,0,
2,1775068076784,1191,1325,9944,353080,-20769,-31764,0,0,0,370,479,295,375,368,384,503,480,285,233,256,258,0,
1,1775068076800,-4536,6302,7221,-5136154,-615752,-340862,0,0,0,268,254,193,292,163,243,304,228,239,173,201,115,0,
2,1775068076800,1253,1292,9897,360410,-54977,-31764,0,0,0,376,484,295,378,382,384,499,464,287,235,247,276,0,
1,1775068076816,-2818,6594,9499,-6056117,-127059,-267558,0,0,0,268,254,192,291,160,243,304,225,239,179,201,119,0,
2,1775068076816,1296,1273,9873,368962,-113620,-36651,0,0,0,381,480,289,386,378,396,484,439,278,222,217,279,0,
1,1775068076832,-3756,5910,11107,-6790377,20769,-406836,0,0,0,267,250,189,296,160,243,305,221,240,189,208,123,0,
2,1775068076832,1287,1244,9916,397062,-175929,-48869,0,0,0,393,481,298,391,375,401,483,420,287,225,200,295,0,
1,1775068076848,-4087,5226,12438,-7352374,-301767,-516791,0,0,0,269,256,192,293,161,239,306,229,240,185,208,119,0,
2,1775068076848,1143,1167,9987,443488,-200363,-61086,0,0,0,405,484,301,397,375,409,480,401,296,229,192,325,0,
1,1775068076864,-3790,4268,13673,-7670023,-657290,-640186,0,0,0,266,258,191,294,165,242,306,233,243,184,216,117,0,
2,1775068076864,1005,1072,10050,482583,-174707,-64751,0,0,0,416,495,299,399,382,411,476,382,301,247,194,338,0,
1,1775068076880,-4560,2699,14702,-7553959,-934623,-728151,0,0,0,262,259,192,289,165,240,303,234,242,178,217,115,0,
2,1775068076880,985,981,10045,508239,-123394,-56199,0,0,0,428,506,307,401,391,415,473,360,308,240,183,351,0,
1,1775068076896,-5589,1799,15998,-7171557,-1406211,-711047,0,0,0,262,259,193,289,166,240,307,232,241,183,215,117,0,
2,1775068076896,1024,875,10021,535117,-75747,-51312,0,0,0,428,506,313,408,396,425,468,334,314,230,170,370,0,
1,1775068076912,-5953,1751,18913,-6787934,-2043955,-790459,0,0,0,261,259,193,289,167,242,309,231,242,190,213,120,0,
2,1775068076912,1119,770,10059,570548,-42760,-61086,0,0,0,425,503,316,417,399,435,460,311,324,232,161,393,0,
1,1775068076928,-6479,1675,22167,-6666983,-2419026,-1105666,0,0,0,257,261,195,287,166,242,307,232,242,188,211,119,0,
2,1775068076928,1206,660,10155,613308,-4886,-89186,0,0,0,433,508,320,423,404,442,452,291,335,234,154,414,0,
1,1775068076944,-7791,488,25953,-6594901,-2713463,-1637118,0,0,0,254,262,196,287,166,246,308,231,242,185,210,114,0,
2,1775068076944,1325,598,10289,663399,26878,-127059,0,0,0,445,515,317,425,414,449,441,267,338,233,152,427,0,
1,1775068076960,-8485,-2225,29633,-6415306,-3160616,-2238210,0,0,0,251,262,195,285,165,250,307,227,240,185,209,111,0,
2,1775068076960,1517,603,10547,758694,14660,-185703,0,0,0,451,518,307,441,420,457,420,243,342,232,151,447,0,
1,1775068076976,-6274,-7595,33136,-6125756,-3809355,-2806314,0,0,0,247,260,195,277,164,246,307,216,241,190,198,117,0,
2,1775068076976,1545,550,10787,901637,-35430,-240680,0,0,0,456,521,295,450,428,465,414,225,349,240,156,469,0,
1,1775068076992,-3464,-17401,33921,-5828876,-3650530,-2932153,0,0,0,247,261,194,280,169,252,314,220,249,189,197,114,0,
2,1775068076992,1411,402,11127,1095892,-65973,-295658,0,0,0,470,526,286,444,436,467,396,207,351,249,161,485,0,
1,1775068077008,-3895,-30303,29265,-5287649,-2825862,-2183232,0,0,0,251,261,193,286,171,252,325,223,252,213,196,117,0,
2,1775068077008,1311,368,11854,1350012,-50090,-316428,0,0,0,471,533,284,448,451,478,367,201,351,249,163,505,0,
1,1775068077024,-1608,-40894,21440,-4070805,-2441017,-409279,0,0,0,247,264,191,286,177,254,315,221,248,197,206,117,0,
2,1775068077024,1229,402,12696,1709200,-46425,-328645,0,0,0,477,549,282,448,455,481,342,201,355,248,164,521,0,
1,1775068077040,11423,-44929,17458,-2094046,-2131919,1177748,0,0,0,247,265,191,286,172,252,319,222,246,204,207,124,0,
2,1775068077040,851,335,13156,2141693,-63529,-313984,0,0,0,476,547,267,450,453,482,310,194,350,265,167,525,0,
1,1775068077056,18817,-44943,17482,-409279,-660956,1225395,0,0,0,234,262,193,275,173,250,312,247,248,209,231,111,0,
2,1775068077056,851,157,13596,2626720,-50090,-252898,0,0,0,481,550,248,446,457,485,264,184,340,254,172,544,0,
1,1775068077072,10303,-34759,18880,1400103,1404990,511905,0,0,0,218,250,168,257,172,238,379,307,246,252,304,94,0,
2,1775068077072,1856,47,14491,3159395,-48869,-255341,0,0,0,488,542,231,441,464,480,241,179,342,248,168,552,0,
1,1775068077088,-2680,-4446,19349,3071430,2827084,-43982,0,0,0,215,237,134,246,161,211,424,399,217,289,380,76,0,
2,1775068077088,2924,28,15745,3758042,-133168,-397062,0,0,0,489,528,237,425,454,477,229,166,338,249,166,544,0,
1,1775068077104,-7695,20205,12519,3758042,3605326,-559552,0,0,0,221,226,121,246,147,207,446,447,211,323,414,70,0,
2,1775068077104,3560,201,17453,4539950,-284663,-642630,0,0,0,489,516,240,423,444,483,224,148,342,236,159,517,0,
1,1775068077120,315,8930,10323,4616919,3397632,-618195,0,0,0,217,221,121,257,145,222,463,463,219,358,426,70,0,
2,1775068077120,4379,201,20066,5516113,-420275,-961501,0,0,0,479,504,239,427,449,484,225,144,344,220,152,462,0,
1,1775068077136,5814,-3584,18731,5222897,1929112,-41538,0,0,0,220,226,132,270,148,237,476,475,226,390,437,72,0,
2,1775068077136,4431,95,24177,6488610,-443488,-1230282,0,0,0,442,489,229,413,445,465,224,143,333,208,145,400,0,
1,1775068077152,1459,-2201,23134,4376238,420275,740368,0,0,0,239,240,154,274,144,240,489,489,231,415,444,76,0,
2,1775068077152,4632,851,28131,7384139,-329867,-1384220,0,0,0,375,466,205,387,419,429,231,146,308,189,135,345,0,
1,1775068077168,-4245,899,19181,3073873,6108,711047,0,0,0,245,250,178,277,147,245,501,500,235,432,450,82,0,
2,1775068077168,4790,2014,30638,8148942,-90408,-1496619,0,0,0,308,435,190,360,381,388,255,174,275,156,119,285,0,
1,1775068077184,-4886,1105,13117,1892460,161268,79412,0,0,0,256,251,219,289,162,282,498,497,257,446,451,100,0,
2,1775068077184,5862,3608,31796,8842885,284663,-1734857,0,0,0,270,407,200,321,345,349,272,212,250,121,102,212,0,
1,1775068077200,-2206,110,10629,1045801,237015,-208915,0,0,0,286,259,256,315,171,312,510,510,280,464,466,129,0,
2,1775068077200,8351,5494,29404,9309586,703716,-2116037,0,0,0,246,389,209,295,325,335,283,243,254,102,97,165,0,
1,1775068077216,-1627,129,10504,551000,163711,-134390,0,0,0,286,268,238,323,175,289,534,534,249,453,482,145,0,
2,1775068077216,10299,10691,18702,8624195,731816,-2761110,0,0,0,238,397,206,298,329,343,287,250,254,104,102,169,0,
1,1775068077232,-2220,832,10346,302989,153938,-25656,0,0,0,290,274,281,325,201,323,525,525,293,460,477,177,0,
2,1775068077232,7987,18061,10098,5553986,189368,-3089756,0,0,0,241,403,206,305,334,338,287,250,247,105,99,167,0,
1,1775068077248,-2230,1277,10045,211359,182037,7330,0,0,0,298,278,283,340,184,332,530,530,291,458,477,176,0,
2,1775068077248,2713,22206,10758,109955,-851546,-1991420,0,0,0,243,403,205,301,331,333,288,247,241,102,98,165,0,
1,1775068077264,-1947,1340,10102,249233,136833,28099,0,0,0,300,280,288,345,188,336,533,524,287,444,483,181,0,
2,1775068077264,2139,15855,12021,-4166100,-2186897,-134390,0,0,0,240,402,205,300,330,332,288,248,238,104,98,164,0,
1,1775068077280,-1856,1296,10260,312763,52534,52534,0,0,0,304,283,281,347,191,344,524,517,301,435,473,196,0,
2,1775068077280,5436,8035,8537,-5455026,-2730567,713490,0,0,0,235,402,201,300,331,335,292,255,239,104,99,164,0,
1,1775068077296,-1885,1296,10308,379958,-48869,70860,0,0,0,308,286,290,355,190,355,519,494,308,435,451,221,0,
2,1775068077296,8853,3929,3642,-4957782,-1913229,420275,0,0,0,231,403,202,300,333,336,290,255,239,109,103,165,0,
1,1775068077312,-1919,1316,10107,438601,-138055,75747,0,0,0,310,294,281,366,197,359,519,473,311,427,422,237,0,
2,1775068077312,7796,5063,3689,-4911356,-516791,-120951,0,0,0,226,404,204,299,334,335,292,260,239,106,103,165,0,
1,1775068077328,-2000,1273,9858,475253,-188146,76969,0,0,0,311,295,249,373,203,357,519,455,306,412,400,242,0,
2,1775068077328,5307,6628,6197,-5530773,222354,-263893,0,0,0,225,406,205,300,334,336,294,262,241,106,104,164,0,
1,1775068077344,-2124,1129,9600,470366,-183259,79412,0,0,0,305,290,234,372,206,359,516,425,302,396,381,253,0,
2,1775068077344,5053,6164,7863,-6194173,227241,19547,0,0,0,226,406,207,292,343,335,294,263,242,105,105,165,0,
1,1775068077360,-2144,918,9461,426383,-133168,80634,0,0,0,297,292,249,373,211,368,511,398,312,381,360,271,0,
2,1775068077360,5652,5020,8743,-6585127,513126,300545,0,0,0,224,404,206,292,344,335,296,264,242,105,105,165,0,
1,1775068077376,-2115,794,9428,367740,-69638,79412,0,0,0,296,301,271,377,213,378,501,381,321,374,351,282,0,
2,1775068077376,5431,4101,10011,-6721961,1192408,540004,0,0,0,221,403,205,299,337,338,297,264,242,106,104,162,0,
1,1775068077392,-2081,827,9509,329867,-25656,79412,0,0,0,296,327,270,373,225,381,496,363,320,376,341,297,0,
2,1775068077392,4460,3828,11931,-6814812,1668883,766025,0,0,0,223,405,207,299,338,337,297,264,242,105,103,162,0,
1,1775068077408,-2019,837,9595,307876,-2443,79412,0,0,0,293,341,271,369,233,389,497,354,333,377,336,319,0,
2,1775068077408,3996,3656,13955,-6976081,1809382,962723,0,0,0,226,405,208,298,338,337,298,263,243,106,103,164,0,
1,1775068077424,-1971,804,9681,301767,-4886,80634,0,0,0,303,346,270,398,246,384,501,345,349,372,321,339,0,
2,1775068077424,4388,3158,16070,-7178888,1905899,1026253,0,0,0,223,404,206,301,336,338,298,264,244,109,106,164,0,
1,1775068077440,-1947,727,9724,311541,-28099,80634,0,0,0,301,338,233,389,246,372,499,329,321,363,315,349,0,
2,1775068077440,4804,2809,18760,-7299839,2116037,955393,0,0,0,223,404,209,304,337,340,296,261,243,109,108,166,0,
1,1775068077456,-1966,665,9729,331088,-57421,87964,0,0,0,308,327,231,396,253,375,503,316,314,423,292,345,0,
2,1775068077456,4785,3225,22340,-7341378,2362826,864985,0,0,0,224,404,208,304,337,341,276,269,256,101,99,165,0,
1,1775068077472,-2038,655,9724,367740,-85521,106290,0,0,0,300,325,227,398,252,380,498,308,315,362,285,368,0,
2,1775068077472,4632,3953,28020,-7542963,2554638,1006705,0,0,0,223,403,208,307,337,342,301,261,252,111,108,171,0,
1,1775068077488,-2086,622,9724,421497,-106290,135612,0,0,0,305,331,239,403,261,398,485,288,332,335,277,380,0,
2,1775068077488,4178,2378,33266,-7820296,2767219,1468520,0,0,0,225,404,207,309,339,343,307,264,252,113,109,166,0,
1,1775068077504,-2057,531,9830,486248,-152716,167377,0,0,0,328,335,251,402,274,405,476,258,337,331,254,394,0,
2,1775068077504,2584,-3905,36587,-7694458,3073873,2051285,0,0,0,226,405,203,313,341,341,311,268,256,108,107,162,0,
1,1775068077520,-2129,473,10002,542448,-216246,195476,0,0,0,331,342,240,411,286,412,479,233,342,324,227,413,0,
2,1775068077520,842,-14611,38621,-6960198,2955366,2428800,0,0,0,229,403,202,318,342,344,318,264,263,110,103,164,0,
1,1775068077536,-2498,464,10189,609643,-260228,240680,0,0,0,329,358,226,419,298,429,477,216,351,305,203,439,0,
2,1775068077536,2794,-29155,34242,-5524665,1821600,1903456,0,0,0,235,405,204,321,342,346,319,257,262,116,107,170,0,
1,1775068077552,-2766,378,10366,712268,-240680,312763,0,0,0,345,367,221,431,302,447,474,203,352,290,183,465,0,
2,1775068077552,2952,-40928,23866,-3813020,1451415,65973,0,0,0,237,406,205,322,342,348,320,256,262,120,113,174,0,
1,1775068077568,-2651,272,10777,869872,-221133,382401,0,0,0,359,362,221,451,302,461,462,189,356,290,170,494,0,
2,1775068077568,-7255,-46398,17860,-1940107,1799608,-1749518,0,0,0,235,403,201,322,343,346,325,268,259,124,119,179,0,
1,1775068077584,-2077,220,11548,1100779,-240680,397062,0,0,0,366,365,226,461,305,484,423,171,374,286,160,529,0,
2,1775068077584,-18999,-43656,18918,-193033,915076,-2043955,0,0,0,229,397,195,320,344,339,343,317,250,139,144,172,0,
1,1775068077600,-1718,177,12395,1395216,-301767,350636,0,0,0,379,376,222,461,305,497,392,158,386,275,146,548,0,
2,1775068077600,-12567,-29906,22502,1414763,-1442863,-929736,0,0,0,223,386,182,316,342,327,372,390,238,156,182,153,0,
1,1775068077616,-2340,100,13103,1783726,-375071,302989,0,0,0,366,369,204,460,314,495,350,146,396,249,130,553,0,
2,1775068077616,167,-540,20311,3025004,-3393967,167377,0,0,0,222,371,161,311,338,315,395,433,229,159,209,148,0,
1,1775068077632,-3388,71,13764,2287079,-367740,410501,0,0,0,378,368,187,459,328,502,313,142,402,234,124,561,0,
2,1775068077632,4704,13338,11509,4014606,-3705508,800233,0,0,0,222,363,156,311,331,319,406,443,229,178,249,155,0,
1,1775068077648,-4101,157,14587,2941926,-256563,634078,0,0,0,365,392,194,459,350,503,240,144,389,219,127,566,0,
2,1775068077648,-746,5441,10672,4935791,-2582738,1000597,0,0,0,220,365,158,311,329,325,422,459,238,223,318,174,0,
1,1775068077664,-4714,234,15520,3667634,-58643,911410,0,0,0,383,381,205,435,346,492,194,131,402,210,111,561,0,
2,1775068077664,-5948,-1919,17975,4893030,-1084896,361632,0,0,0,218,366,166,303,321,329,424,484,249,258,384,169,0,
1,1775068077680,-5221,363,16970,4405560,68416,1216843,0,0,0,382,352,210,417,331,488,188,124,394,200,98,521,0,
2,1775068077680,-3785,-397,19660,4332256,-289550,-496022,0,0,0,225,376,166,315,332,330,442,471,243,242,360,167,0,
1,1775068077696,-5891,291,19626,5187467,76969,1521054,0,0,0,386,334,202,410,304,469,227,118,377,186,93,447,0,
2,1775068077696,2790,3010,16080,3725056,-9773,-799011,0,0,0,232,384,193,322,333,342,450,488,245,272,382,171,0,
1,1775068077712,-7590,86,22909,6076887,0,1861917,0,0,0,353,328,200,369,276,437,201,112,342,154,86,374,0,
2,1775068077712,4254,1751,13625,3064100,-91629,-208915,0,0,0,242,391,223,325,322,342,451,505,239,352,457,167,0,
1,1775068077728,-8734,253,24685,6792821,15882,2227214,0,0,0,300,321,197,327,259,402,172,118,313,133,86,310,0,
2,1775068077728,2450,234,12443,2109928,-304210,255341,0,0,0,254,409,241,331,321,349,459,509,241,359,462,174,0,
1,1775068077744,-8394,746,25838,7323052,180816,2607172,0,0,0,261,302,188,297,236,352,194,142,283,129,101,243,0,
2,1775068077744,1081,325,11720,1153313,-414166,248011,0,0,0,261,407,253,323,350,348,474,516,247,365,462,179,0,
1,1775068077760,-8025,2278,26460,7768984,388510,2901609,0,0,0,245,269,185,266,187,282,234,170,248,133,126,168,0,
2,1775068077760,1153,670,11141,590095,-421497,138055,0,0,0,275,417,267,344,353,361,489,519,255,360,446,190,0,
1,1775068077776,-9715,4599,23962,8081747,572991,3083647,0,0,0,252,237,187,262,139,231,277,183,238,150,149,110,0,
2,1775068077776,1330,813,10691,326202,-386066,73303,0,0,0,286,425,274,360,348,370,500,520,256,349,428,187,0,
1,1775068077792,-11318,9088,15855,7881383,499687,3415958,0,0,0,265,238,189,271,138,237,284,183,249,166,153,123,0,
2,1775068077792,1086,990,10452,204028,-293215,37873,0,0,0,291,427,278,363,349,371,504,522,258,342,420,186,0,
1,1775068077808,-9504,13022,10878,6487388,438601,3562566,0,0,0,262,246,194,267,152,244,285,210,248,165,176,122,0,
2,1775068077808,990,1206,10318,138055,-182037,-1221,0,0,0,300,436,285,365,353,375,505,525,264,336,415,197,0,
1,1775068077824,-5259,17324,10528,2482556,836885,2194227,0,0,0,264,254,194,268,161,244,284,218,242,157,186,116,0,
2,1775068077824,1091,1320,10203,120951,-86742,-35430,0,0,0,309,445,289,366,352,376,505,525,266,336,412,210,0,
1,1775068077840,-3560,17109,10614,-1946216,1486845,-53756,0,0,0,264,254,194,268,159,240,284,214,239,158,183,114,0,
2,1775068077840,1186,1325,10136,127059,-48869,-46425,0,0,0,313,446,289,367,350,376,503,519,268,345,415,214,0,
1,1775068077856,-5384,11591,9250,-4272391,1828930,-1618792,0,0,0,260,264,190,268,178,240,283,218,239,157,186,112,0,
2,1775068077856,1215,1373,10074,151494,-34208,-51312,0,0,0,318,450,286,368,356,378,502,515,265,352,416,207,0,
1,1775068077872,-7595,6503,6642,-4395786,1358564,-1617571,0,0,0,262,257,196,270,165,243,286,215,242,157,185,111,0,
2,1775068077872,1206,1435,9968,205250,-36651,-48869,0,0,0,319,457,284,370,356,377,502,511,268,341,397,214,0,
1,1775068077888,-7872,4307,5202,-4206418,559552,-1014036,0,0,0,263,254,197,271,160,245,290,212,242,162,187,114,0,
2,1775068077888,1234,1421,9916,270002,-48869,-39095,0,0,0,324,462,283,375,364,382,494,502,271,283,334,228,0,
1,1775068077904,-6068,4508,5953,-4426329,79412,-493579,0,0,0,263,255,196,271,158,242,294,214,243,161,187,112,0,
2,1775068077904,1268,1340,9906,326202,-75747,-29321,0,0,0,329,466,285,367,357,378,442,454,288,298,336,228,0,
1,1775068077920,-4613,4852,7269,-4929682,-2443,-354301,0,0,0,265,258,198,270,158,241,298,219,245,161,188,112,0,
2,1775068077920,1244,1210,9887,349414,-105068,-24434,0,0,0,343,472,291,375,363,382,504,484,276,261,294,239,0,
1,1775068077936,-4417,4594,8580,-5544212,1221,-561996,0,0,0,264,260,199,270,158,243,301,222,246,162,188,115,0,
2,1775068077936,1206,1095,9868,344527,-120951,-24434,0,0,0,343,473,291,370,364,385,512,485,288,224,252,251,0,
1,1775068077952,-4996,3493,9686,-5986479,-387288,-895528,0,0,0,263,260,198,273,159,245,304,221,244,166,188,118,0,
2,1775068077952,1186,1057,9887,323758,-123394,-32986,0,0,0,352,472,301,376,365,395,503,473,291,224,239,257,0,
1,1775068077968,-5120,2598,10825,-6228381,-833220,-1144761,0,0,0,265,260,197,276,158,244,303,218,243,170,190,118,0,
2,1775068077968,1158,1038,9887,309097,-113620,-42760,0,0,0,359,471,298,381,364,395,502,468,288,226,225,274,0,
1,1775068077984,-5139,1904,12423,-6404311,-1154535,-1342681,0,0,0,267,258,197,277,156,243,301,216,243,168,188,113,0,
2,1775068077984,1119,1000,9868,300545,-100181,-47647,0,0,0,365,474,297,387,368,399,500,454,284,228,216,289,0,
1,1775068078000,-5498,1158,14261,-6528927,-1426981,-1442863,0,0,0,267,259,198,278,159,243,303,216,245,169,191,115,0,
2,1775068078000,1100,966,9853,299323,-83077,-46425,0,0,0,373,476,298,391,368,401,500,445,290,229,207,307,0,
1,1775068078016,-6006,301,16377,-6561914,-1729970,-1364672,0,0,0,265,259,197,276,165,240,302,216,244,170,189,116,0,
2,1775068078016,1105,952,9897,317649,-67195,-41538,0,0,0,378,478,297,397,369,406,490,429,293,229,197,318,0,
1,1775068078032,-6010,-335,18813,-6509379,-1990198,-1240056,0,0,0,263,260,197,273,165,239,303,216,242,174,191,119,0,
2,1775068078032,1129,942,10007,357967,-48869,-42760,0,0,0,386,486,299,402,372,413,482,412,298,229,188,337,0,
1,1775068078048,-6130,-928,21555,-6453180,-2129476,-1351233,0,0,0,254,262,200,272,162,243,307,219,244,169,190,119,0,
2,1775068078048,1167,914,10064,414166,-35430,-52534,0,0,0,396,493,298,402,374,423,488,402,309,231,180,367,0,
1,1775068078064,-6929,-2287,24656,-6384763,-2229658,-1886351,0,0,0,249,263,201,272,162,243,309,218,240,169,185,118,0,
2,1775068078064,1177,813,10078,472809,-19547,-67195,0,0,0,401,491,295,406,379,433,488,383,318,229,172,379,0,
1,1775068078080,-7413,-4694,27652,-6310237,-2505769,-2506990,0,0,0,249,264,203,272,163,249,309,212,240,170,188,119,0,
2,1775068078080,1167,698,10078,526565,3665,-81855,0,0,0,416,491,305,413,383,437,487,356,333,230,166,389,0,
1,1775068078096,-6685,-9523,30590,-6262590,-2976135,-3021339,0,0,0,248,265,199,276,167,251,311,210,242,173,187,114,0,
2,1775068078096,1225,670,10107,590095,37873,-98960,0,0,0,427,499,312,421,389,459,490,322,345,243,163,416,0,
1,1775068078112,-5637,-17525,30557,-6153856,-2949257,-2946813,0,0,0,245,265,197,277,167,249,315,209,243,174,184,109,0,
2,1775068078112,1363,698,10337,675616,64751,-118507,0,0,0,436,499,313,430,396,454,485,290,344,251,163,446,0,
1,1775068078128,-5675,-28523,25982,-5618738,-2386039,-2050063,0,0,0,243,265,196,277,170,251,315,216,245,174,187,107,0,
2,1775068078128,1584,674,10782,801455,85521,-150272,0,0,0,458,515,323,430,404,455,470,258,352,241,152,461,0,
1,1775068078144,-2799,-35400,19870,-4492302,-2310292,-356745,0,0,0,243,266,196,274,185,252,314,216,245,181,192,113,0,
2,1775068078144,1780,526,11313,968832,105068,-196698,0,0,0,459,520,315,439,419,468,446,227,354,246,157,486,0,
1,1775068078160,6987,-41028,15439,-2879618,-2287079,1541823,0,0,0,245,266,197,272,191,251,316,206,244,187,190,119,0,
2,1775068078160,1794,368,11883,1232726,81855,-257785,0,0,0,461,526,295,444,429,481,412,204,359,246,153,513,0,
1,1775068078176,15214,-42512,15644,-1263269,-862541,1885130,0,0,0,243,265,196,284,171,256,319,213,248,180,188,109,0,
2,1775068078176,1670,339,12596,1623679,58643,-306654,0,0,0,477,536,282,448,431,484,379,194,370,254,164,534,0,
1,1775068078192,12557,-38879,16118,552222,1287703,1467298,0,0,0,238,264,194,277,168,252,314,219,246,191,207,109,0,
2,1775068078192,1880,325,13653,2109928,76969,-364075,0,0,0,469,535,257,453,442,484,344,188,366,258,168,540,0,
1,1775068078208,1751,-25393,17047,2210110,2593733,1047023,0,0,0,231,265,181,277,155,244,373,291,245,249,283,92,0,
2,1775068078208,2335,268,14687,2723237,18325,-477696,0,0,0,466,532,237,444,440,481,308,212,354,252,169,546,0,
1,1775068078224,-7997,12510,17697,2883283,2961474,243124,0,0,0,210,219,132,245,139,211,428,362,214,278,359,75,0,
2,1775068078224,2512,287,15496,3347541,-113620,-604756,0,0,0,475,528,228,439,456,480,261,188,354,249,168,549,0,
1,1775068078240,-8547,30705,10122,2659707,3391523,-1064127,0,0,0,221,223,124,253,140,208,439,406,210,294,400,61,0,
2,1775068078240,2766,440,16917,4200309,-291993,-763581,0,0,0,474,513,227,433,459,483,233,153,358,245,165,537,0,
1,1775068078256,545,9035,8762,3628539,3409849,-1210734,0,0,0,211,219,119,247,137,215,464,458,218,321,415,71,0,
2,1775068078256,4111,890,19253,5131268,-408057,-959058,0,0,0,471,494,238,429,445,485,230,138,361,235,156,499,0,
1,1775068078272,6207,-4560,15348,4484972,2403143,-552222,0,0,0,217,222,116,261,140,221,472,471,218,390,430,72,0,
2,1775068078272,5594,1038,22431,6180734,-527787,-1265712,0,0,0,454,477,237,422,435,475,230,132,355,214,143,435,0,
1,1775068078288,3943,-2574,21124,4178318,883311,526565,0,0,0,230,228,138,273,139,239,483,483,225,423,442,75,0,
2,1775068078288,5551,1172,26743,7208209,-463035,-1549154,0,0,0,396,459,209,402,416,446,233,137,328,192,132,368,0,
1,1775068078304,-2536,1636,18779,3216816,287106,757472,0,0,0,240,241,163,276,142,248,491,491,226,418,450,86,0,
2,1775068078304,4886,2297,29820,8107403,-116064,-1712866,0,0,0,329,439,191,377,388,407,247,153,293,174,125,318,0,
1,1775068078320,-4704,1076,14716,2267531,238237,261450,0,0,0,241,249,183,282,161,261,505,505,235,411,455,92,0,
2,1775068078320,4187,4029,30533,8797681,392175,-1824043,0,0,0,285,417,196,328,357,367,259,186,258,139,113,265,0,
1,1775068078336,-2464,-272,12026,1390329,255341,-150272,0,0,0,246,261,206,295,173,277,516,516,256,411,459,107,0,
2,1775068078336,5632,4924,28260,9121439,737925,-2041511,0,0,0,238,391,200,300,328,331,272,221,246,102,89,166,0,
1,1775068078352,-1306,-81,10768,725707,128281,-191811,0,0,0,257,269,227,315,176,295,521,521,275,418,469,144,0,
2,1775068078352,8743,7269,20717,9084787,761138,-2436130,0,0,0,248,393,214,301,325,340,286,237,260,105,97,172,0,
1,1775068078368,-1976,832,10394,417831,30543,-58643,0,0,0,267,269,235,332,186,312,529,527,281,434,479,173,0,
2,1775068078368,10543,12007,11390,8123285,267558,-3125186,0,0,0,240,393,215,300,328,344,289,249,259,104,99,172,0,
1,1775068078384,-2177,952,10265,379958,92851,-23212,0,0,0,276,280,243,335,202,323,535,528,285,447,476,177,0,
2,1775068078384,6939,19947,8289,4307821,-474031,-2965139,0,0,0,244,397,205,301,330,333,285,246,243,104,100,176,0,
1,1775068078400,-1923,875,10217,360410,111177,-4886,0,0,0,286,284,262,340,212,337,538,525,297,448,470,190,0,
2,1775068078400,2809,23464,9021,-1822821,-1183856,-1312138,0,0,0,245,398,205,302,330,332,289,247,241,104,97,166,0,
1,1775068078416,-1761,875,10236,333532,53756,18325,0,0,0,296,276,275,346,207,344,541,513,302,445,472,202,0,
2,1775068078416,2809,15462,10026,-6036570,-1863138,642630,0,0,0,238,400,205,302,330,334,289,246,241,105,100,166,0,
1,1775068078432,-1785,1014,10323,340862,-17104,39095,0,0,0,295,294,280,345,206,355,517,495,319,445,443,219,0,
2,1775068078432,6360,5470,7049,-6361550,-2075720,1232726,0,0,0,226,398,206,302,333,338,289,250,241,110,106,168,0,
1,1775068078448,-1804,1119,10299,403171,-96516,56199,0,0,0,293,289,281,341,194,353,529,463,317,414,423,233,0,
2,1775068078448,9246,1536,3699,-5435478,-1374446,829554,0,0,0,219,398,207,299,333,339,291,254,243,107,105,168,0,
1,1775068078464,-1809,1024,10035,477696,-188146,68416,0,0,0,300,301,253,349,206,356,515,463,309,402,406,244,0,
2,1775068078464,8155,3795,4541,-5381722,-262672,189368,0,0,0,218,400,210,298,333,341,291,256,245,106,105,170,0,
1,1775068078480,-1880,866,9743,496022,-238237,70860,0,0,0,293,314,243,354,216,356,510,450,318,394,393,254,0,
2,1775068078480,5575,5417,7111,-5969375,417831,-130725,0,0,0,218,402,211,297,335,341,291,256,244,106,106,171,0,
1,1775068078496,-1995,679,9485,454483,-223576,72082,0,0,0,289,316,247,355,218,361,510,432,325,377,385,265,0,
2,1775068078496,3469,4709,9317,-6547253,548556,8552,0,0,0,221,404,210,297,337,337,285,257,242,107,110,171,0,
1,1775068078512,-2038,540,9380,382401,-156381,72082,0,0,0,294,308,253,354,214,360,510,416,316,364,379,270,0,
2,1775068078512,3015,3330,10122,-6618113,657290,320093,0,0,0,222,404,210,298,336,336,282,259,243,110,112,171,0,
1,1775068078528,-2048,497,9413,313984,-91629,72082,0,0,0,302,305,251,357,218,358,511,402,318,363,371,280,0,
2,1775068078528,3263,2684,10720,-6346889,1023810,708603,0,0,0,221,404,212,299,335,337,292,259,242,106,106,169,0,
1,1775068078544,-2033,531,9514,254119,-25656,73303,0,0,0,306,305,251,359,224,358,513,393,320,362,359,294,0,
2,1775068078544,2967,3110,12289,-6313903,1293812,1011592,0,0,0,220,404,212,301,337,340,296,259,245,106,105,169,0,
1,1775068078560,-1976,540,9595,218689,21991,75747,0,0,0,306,309,248,359,223,359,516,377,315,361,346,307,0,
2,1775068078560,3230,3230,14008,-6396980,1437976,1235169,0,0,0,223,406,213,301,336,340,297,259,248,108,106,170,0,
1,1775068078576,-1895,492,9676,212581,34208,76969,0,0,0,308,311,244,363,220,358,523,353,314,365,335,318,0,
2,1775068078576,3953,3216,16118,-6533814,1629788,1295034,0,0,0,222,406,213,301,336,339,301,263,251,104,105,169,0,
1,1775068078592,-1832,435,9739,215024,17104,78190,0,0,0,306,305,256,366,220,364,523,338,317,363,325,332,0,
2,1775068078592,4230,3517,18990,-6764721,1850921,1175304,0,0,0,223,406,214,301,337,339,297,262,247,120,113,173,0,
1,1775068078608,-1837,406,9777,224798,-21991,84299,0,0,0,297,303,263,353,224,392,511,329,330,358,324,355,0,
2,1775068078608,4326,3575,22081,-7000515,1971872,1088561,0,0,0,221,406,213,300,336,339,299,264,248,104,106,169,0,
1,1775068078624,-1895,411,9810,250454,-63529,96516,0,0,0,295,315,234,359,241,375,516,329,322,350,314,361,0,
2,1775068078624,4426,2751,26144,-7109249,2053728,1165530,0,0,0,223,414,211,305,344,343,302,265,252,106,109,172,0,
1,1775068078640,-1966,402,9834,295658,-96516,119729,0,0,0,310,325,260,360,239,387,507,307,330,350,317,378,0,
2,1775068078640,4225,315,30059,-7037167,2194227,1481959,0,0,0,223,414,208,307,344,341,305,266,254,111,112,173,0,
1,1775068078656,-1986,358,9892,367740,-130725,149051,0,0,0,341,325,291,380,256,406,513,293,335,350,281,401,0,
2,1775068078656,3493,-6106,33165,-6697526,2454456,2018298,0,0,0,226,412,203,313,344,342,311,258,256,114,112,172,0,
1,1775068078672,-1995,344,10035,464257,-188146,178372,0,0,0,338,350,261,406,270,415,518,257,345,354,243,426,0,
2,1775068078672,3259,-16673,33165,-5949827,2304183,2116037,0,0,0,233,410,205,317,342,343,315,255,258,115,109,173,0,
1,1775068078688,-2115,344,10275,576656,-259006,207694,0,0,0,338,355,251,412,273,426,519,238,349,328,227,451,0,
2,1775068078688,3761,-28025,28705,-4869817,1830152,1495398,0,0,0,235,407,204,321,342,343,319,256,257,118,108,172,0,
1,1775068078704,-2359,330,10624,715934,-318871,244346,0,0,0,342,362,248,405,282,440,491,219,363,291,197,467,0,
2,1775068078704,818,-37697,20952,-3296228,1678657,0,0,0,0,238,406,202,329,343,345,325,256,256,124,108,173,0,
1,1775068078720,-2718,277,11016,880867,-331088,291993,0,0,0,361,375,239,415,302,457,479,207,379,281,183,498,0,
2,1775068078720,-8906,-40918,17975,-1633453,1492954,-1269377,0,0,0,241,405,204,320,354,340,330,257,257,127,109,175,0,
1,1775068078736,-2847,143,11457,1099557,-260228,362853,0,0,0,368,381,227,436,313,470,465,191,386,284,171,523,0,
2,1775068078736,-14036,-40660,17961,-108734,338419,-1582140,0,0,0,237,404,205,295,366,328,329,274,257,124,117,175,0,
1,1775068078752,-2325,0,12175,1415985,-166155,415388,0,0,0,358,383,221,464,304,486,435,174,387,279,149,529,0,
2,1775068078752,-8202,-33491,18434,1406211,-938289,-1156978,0,0,0,227,401,204,312,344,334,339,336,247,133,152,176,0,
1,1775068078768,-2340,-138,12959,1821600,-168598,441044,0,0,0,364,382,209,483,298,498,398,163,388,272,135,540,0,
2,1775068078768,612,-9638,19784,2785545,-1736079,-492357,0,0,0,220,383,175,315,341,320,377,410,235,151,194,162,0,
1,1775068078784,-2914,-129,13687,2324953,-248011,543670,0,0,0,385,375,191,477,300,497,351,142,392,265,126,552,0,
2,1775068078784,8193,22900,14984,3236364,-2421469,764803,0,0,0,225,368,169,308,328,317,401,448,231,168,234,155,0,
1,1775068078800,-3182,-81,14491,2871066,-279776,698829,0,0,0,390,375,191,463,296,502,296,124,404,252,116,555,0,
2,1775068078800,4020,15955,7604,3679852,-2806314,1722639,0,0,0,228,370,158,313,326,319,424,449,235,189,270,154,0,
1,1775068078816,-3933,-14,15702,3613878,-266337,908967,0,0,0,391,345,185,431,309,502,223,118,407,232,111,549,0,
2,1775068078816,-5269,-1153,10954,4669453,-2291966,1563815,0,0,0,229,372,163,318,326,331,440,464,240,275,388,148,0,
1,1775068078832,-5446,296,17463,4477642,-224798,1216843,0,0,0,407,341,200,421,319,490,223,118,402,192,101,515,0,
2,1775068078832,-7595,-3278,18559,4614476,-1182635,111177,0,0,0,235,379,187,321,325,339,467,471,256,208,320,157,0,
1,1775068078848,-7523,526,20612,5429370,-112399,1656666,0,0,0,370,348,204,389,274,473,191,119,394,155,86,477,0,
2,1775068078848,-1569,1555,20138,4061032,-474031,-872315,0,0,0,247,387,213,328,319,347,473,502,249,306,404,154,0,
1,1775068078864,-9155,397,24589,6377433,-51312,2146580,0,0,0,348,317,195,355,260,434,179,118,362,152,86,410,0,
2,1775068078864,4594,2636,17664,3198490,-208915,-629191,0,0,0,256,395,238,337,324,354,475,520,253,345,436,168,0,
1,1775068078880,-9475,933,27035,7215540,-62308,2607172,0,0,0,305,314,176,339,235,372,194,122,318,155,86,287,0,
2,1775068078880,2823,157,14280,1935221,-215024,90408,0,0,0,265,404,253,346,338,362,482,526,257,352,438,180,0,
1,1775068078896,-8308,2148,28628,7788531,-58643,2983465,0,0,0,252,290,180,282,218,328,218,155,292,138,115,222,0,
2,1775068078896,612,-301,11811,915076,-151494,294437,0,0,0,283,415,265,360,348,371,504,522,267,364,419,193,0,
1,1775068078912,-8896,3790,28638,8169711,291993,3221703,0,0,0,247,242,174,267,159,255,266,174,248,144,133,135,0,
2,1775068078912,454,689,10375,415388,-36651,144164,0,0,0,300,424,275,366,354,379,516,524,275,333,384,210,0,
1,1775068078928,-11811,7374,21761,8302880,789237,3436727,0,0,0,254,234,177,275,141,236,285,185,237,155,153,106,0,
2,1775068078928,1292,1119,10040,333532,-80634,52534,0,0,0,311,433,281,366,357,383,511,531,275,309,375,222,0,
1,1775068078944,-12825,12160,12194,7682241,686612,3762929,0,0,0,254,240,189,276,147,250,285,191,246,161,165,115,0,
2,1775068078944,1387,1162,10150,266337,-164933,36651,0,0,0,320,437,284,372,355,386,509,531,272,321,384,226,0,
1,1775068078960,-9600,17319,8805,5302310,256563,3252246,0,0,0,254,243,190,275,147,249,285,193,246,164,165,117,0,
2,1775068078960,1134,1234,10246,213802,-197920,24434,0,0,0,329,437,288,370,369,385,515,530,276,305,360,236,0,
1,1775068078976,-4225,19923,9528,615752,475253,764803,0,0,0,256,247,183,275,148,241,291,197,237,166,165,116,0,
2,1775068078976,995,1378,10232,217468,-184481,0,0,0,0,334,441,292,361,384,385,517,526,281,299,344,244,0,
1,1775068078992,-2861,16381,9203,-3050661,1284038,-1722639,0,0,0,255,249,180,275,152,242,294,200,234,174,167,129,0,
2,1775068078992,938,1497,10256,283441,-125838,-18325,0,0,0,339,442,296,371,355,399,515,521,288,292,325,255,0,
1,1775068079008,-6336,8561,6532,-4466646,1835039,-2940705,0,0,0,253,247,179,278,155,244,290,202,237,176,172,133,0,
2,1775068079008,918,1454,10227,370184,-21991,-21991,0,0,0,346,446,301,378,364,417,518,511,297,255,269,288,0,
1,1775068079024,-8107,5541,4718,-4130670,1017701,-2279749,0,0,0,253,251,183,279,160,244,292,210,239,166,176,122,0,
2,1775068079024,981,1349,10088,434936,68416,-23212,0,0,0,348,446,303,382,360,417,520,496,297,232,228,302,0,
1,1775068079040,-6398,4891,4876,-4019493,-3665,-1339016,0,0,0,253,254,184,278,165,248,294,214,243,171,179,123,0,
2,1775068079040,1105,1225,9916,453262,98960,-28099,0,0,0,361,453,306,380,358,414,516,478,309,225,216,310,0,
1,1775068079056,-3311,5599,6963,-4603480,135612,-1028697,0,0,0,256,258,187,277,164,247,289,211,238,171,184,123,0,
2,1775068079056,1239,1081,9806,443488,70860,-34208,0,0,0,363,452,297,382,358,411,513,450,306,238,209,323,0,
1,1775068079072,-2976,5369,8580,-5345070,647517,-1055575,0,0,0,257,259,187,273,164,246,297,220,242,164,183,113,0,
2,1775068079072,1296,985,9786,410501,6108,-50090,0,0,0,366,452,296,393,368,424,515,442,313,235,203,334,0,
1,1775068079088,-4881,4029,9514,-5908288,610865,-1099557,0,0,0,251,266,187,272,171,247,284,211,234,172,187,128,0,
2,1775068079088,1263,914,9777,364075,-48869,-69638,0,0,0,368,459,296,399,371,430,511,435,316,228,193,349,0,
1,1775068079104,-5130,2861,10753,-6135530,-109955,-1025031,0,0,0,244,265,190,270,171,254,285,214,242,163,188,117,0,
2,1775068079104,1182,880,9777,316428,-90408,-85521,0,0,0,376,463,298,394,367,435,509,424,322,227,188,361,0,
1,1775068079120,-4340,2292,12447,-6331007,-564439,-1076344,0,0,0,240,264,193,270,172,257,286,217,248,160,188,114,0,
2,1775068079120,1119,890,9844,295658,-102625,-83077,0,0,0,382,471,309,397,368,433,503,411,334,266,232,358,0,
1,1775068079136,-4469,1651,14481,-6594901,-626747,-1286482,0,0,0,245,267,194,276,171,260,294,213,252,167,189,118,0,
2,1775068079136,1091,880,9944,296880,-102625,-78190,0,0,0,390,476,315,399,369,431,500,397,333,260,218,363,0,
1,1775068079152,-5685,679,16396,-6773273,-740368,-1385442,0,0,0,247,270,198,275,171,266,292,214,261,163,190,122,0,
2,1775068079152,1095,837,10031,317649,-91629,-78190,0,0,0,402,481,311,398,371,430,496,379,324,230,175,374,0,
1,1775068079168,-6580,-253,18559,-6784269,-1098335,-1265712,0,0,0,244,271,200,269,172,268,287,218,268,158,188,124,0,
2,1775068079168,1153,808,10074,351858,-78190,-87964,0,0,0,409,483,304,404,377,432,496,356,326,230,171,384,0,
1,1775068079184,-6298,-617,21239,-6732956,-1381777,-1211956,0,0,0,243,272,200,268,171,266,289,221,270,162,187,127,0,
2,1775068079184,1229,770,10102,395840,-70860,-103847,0,0,0,416,483,304,414,381,440,500,334,333,229,163,399,0,
1,1775068079200,-6800,-1038,24216,-6743952,-1474628,-1401324,0,0,0,241,272,199,268,173,266,290,223,271,162,186,129,0,
2,1775068079200,1258,713,10126,447153,-65973,-127059,0,0,0,427,492,310,423,388,444,490,312,330,233,153,423,0,
1,1775068079216,-8327,-2775,26920,-6801373,-1676214,-1762957,0,0,0,239,271,196,269,176,264,290,222,270,162,183,128,0,
2,1775068079216,1330,641,10184,494800,-43982,-157603,0,0,0,430,502,312,424,399,442,476,281,325,245,158,467,0,
1,1775068079232,-8973,-7054,29504,-6767165,-2199114,-2134363,0,0,0,240,275,194,270,178,258,286,216,258,161,183,122,0,
2,1775068079232,1502,559,10332,558330,-7330,-206472,0,0,0,440,512,312,442,407,462,469,260,351,243,155,459,0,
1,1775068079248,-7446,-14802,30887,-6478836,-2712241,-2212553,0,0,0,240,276,190,276,180,258,301,223,249,161,183,110,0,
2,1775068079248,1636,521,10662,667064,-6108,-268780,0,0,0,452,512,310,440,413,471,449,233,367,247,156,485,0,
1,1775068079264,-4627,-24723,28461,-5820323,-2544864,-1587027,0,0,0,240,270,191,276,175,264,300,211,253,167,174,111,0,
2,1775068079264,1588,531,11127,894306,-74525,-326202,0,0,0,468,512,307,451,422,481,433,211,367,252,158,500,0,
1,1775068079280,454,-33955,23081,-4754975,-2293188,-502131,0,0,0,237,270,191,279,181,266,294,203,250,169,174,112,0,
2,1775068079280,1450,483,11653,1178969,-81855,-368962,0,0,0,471,519,291,448,433,474,400,199,366,264,168,532,0,
1,1775068079296,8346,-40205,17678,-3158173,-1831373,547335,0,0,0,240,273,192,279,176,264,295,203,250,172,179,115,0,
2,1775068079296,1005,411,12447,1514945,28099,-371406,0,0,0,467,528,268,451,448,488,367,185,370,252,165,532,0,
1,1775068079312,13969,-43593,14864,-1418429,-788016,1145983,0,0,0,237,274,193,279,177,265,297,206,251,173,180,117,0,
2,1775068079312,775,320,13165,1924225,128281,-334754,0,0,0,462,526,254,462,466,495,339,185,373,252,171,543,0,
1,1775068079328,12811,-41100,14883,223576,640186,1192408,0,0,0,230,272,195,273,171,259,296,212,251,174,203,110,0,
2,1775068079328,1182,239,13773,2415361,138055,-294437,0,0,0,464,524,234,463,465,489,297,174,359,250,170,547,0,
1,1775068079344,4575,-28437,16520,1993864,1770287,970053,0,0,0,219,263,178,266,167,246,356,273,238,237,279,97,0,
2,1775068079344,2167,181,14496,3016452,30543,-350636,0,0,0,472,524,227,453,461,489,260,164,358,253,171,556,0,
1,1775068079360,-3622,57,19353,3018896,2202780,522900,0,0,0,214,240,145,259,156,223,407,357,218,298,366,80,0,
2,1775068079360,2919,86,15314,3622430,-109955,-498466,0,0,0,479,514,227,445,471,490,237,156,356,250,167,553,0,
1,1775068079376,-7365,24584,13050,3003013,2757445,-265115,0,0,0,218,229,126,257,149,209,434,421,207,329,410,69,0,
2,1775068079376,3364,234,16788,4386012,-250454,-723264,0,0,0,483,507,229,445,464,495,223,138,349,239,158,531,0,
1,1775068079392,-2814,15032,7748,3627317,3026226,-555887,0,0,0,223,234,124,257,150,217,456,456,212,355,423,72,0,
2,1775068079392,4350,301,18808,5214345,-332310,-979827,0,0,0,478,496,234,441,441,496,215,125,349,219,142,481,0,
1,1775068079408,3450,-1899,15592,4858822,1690874,-124616,0,0,0,225,239,134,264,152,233,475,475,229,396,436,89,0,
2,1775068079408,5407,14,22325,6210056,-305432,-1326799,0,0,0,445,470,229,421,425,477,219,127,348,203,130,417,0,
1,1775068079424,2651,-4197,23125,4624249,270002,610865,0,0,0,236,250,160,278,151,239,489,489,238,435,451,102,0,
2,1775068079424,5149,440,26499,7125132,-76969,-1587027,0,0,0,388,451,209,400,411,446,229,132,327,194,130,366,0,
1,1775068079440,-3278,354,20937,3133738,-74525,834441,0,0,0,245,270,192,287,162,256,502,502,227,436,460,88,0,
2,1775068079440,4699,1584,29260,7877718,193033,-1731192,0,0,0,321,435,188,378,388,408,249,161,296,168,122,315,0,
1,1775068079456,-4326,938,13921,1749518,97738,188146,0,0,0,253,282,218,301,182,286,507,507,252,427,457,118,0,
2,1775068079456,4915,2986,30600,8548448,526565,-1876578,0,0,0,274,401,186,319,349,354,272,220,255,130,108,249,0,
1,1775068079472,-2359,129,10394,999375,90408,-191811,0,0,0,280,285,237,338,197,307,525,524,270,442,474,168,0,
2,1775068079472,6623,4211,29557,9016370,1131322,-2217440,0,0,0,233,376,202,287,318,324,278,235,247,95,88,162,0,
1,1775068079488,-1474,-95,10021,587652,-21991,-145385,0,0,0,296,310,253,339,212,333,519,520,306,457,477,202,0,
2,1775068079488,7920,8719,21124,8730485,1279151,-2762332,0,0,0,243,388,208,301,327,340,287,242,256,108,98,174,0,
1,1775068079504,-2297,564,10241,376292,20769,-6108,0,0,0,302,297,257,348,206,333,529,515,282,455,474,206,0,
2,1775068079504,6518,15774,11816,6735400,445931,-3207042,0,0,0,236,388,200,303,330,335,287,246,248,109,99,169,0,
1,1775068079520,-2450,971,10102,304210,107512,31764,0,0,0,308,304,262,353,206,345,532,520,288,445,474,227,0,
2,1775068079520,2766,22000,10083,2032959,-1038470,-2461786,0,0,0,236,392,199,301,331,331,287,243,241,110,102,169,0,
1,1775068079536,-2057,995,10074,299323,105068,30543,0,0,0,307,298,259,356,214,347,536,507,294,436,468,242,0,
2,1775068079536,1340,20009,12222,-3210707,-2359161,-664621,0,0,0,241,394,201,304,331,331,287,241,237,110,103,169,0,
1,1775068079552,-1914,1000,10208,312763,37873,37873,0,0,0,301,317,251,338,262,339,531,469,298,430,447,277,0,
2,1775068079552,4192,10078,9973,-5183802,-3020117,507018,0,0,0,239,394,202,303,329,331,285,241,238,101,96,165,0,
1,1775068079568,-1990,1124,10351,356745,-37873,61086,0,0,0,293,325,243,342,266,347,533,428,303,420,427,294,0,
2,1775068079568,7633,3326,5336,-4937012,-2868623,560774,0,0,0,243,396,204,300,329,329,291,246,239,99,96,165,0,
1,1775068079584,-1971,1162,10227,423940,-108734,75747,0,0,0,295,328,250,357,254,369,523,412,311,409,404,307,0,
2,1775068079584,8949,3598,3527,-4505742,-1816713,-29321,0,0,0,246,399,208,299,329,330,291,248,239,98,96,165,0,
1,1775068079600,-1990,1019,9897,486248,-201585,76969,0,0,0,301,336,255,364,260,382,508,402,314,397,385,325,0,
2,1775068079600,7915,5565,4876,-4917465,-818559,-387288,0,0,0,237,398,206,299,332,332,292,252,240,100,98,166,0,
1,1775068079616,-2129,751,9562,465479,-205250,68416,0,0,0,298,342,246,362,268,380,507,378,312,381,379,336,0,
2,1775068079616,6183,6149,7523,-5863084,-331088,-239459,0,0,0,230,397,204,299,335,333,294,255,241,105,102,167,0,
1,1775068079632,-2225,564,9361,398284,-142942,65973,0,0,0,293,348,244,357,273,380,507,361,313,369,372,343,0,
2,1775068079632,6231,4895,8518,-6363994,-15882,112399,0,0,0,231,397,203,300,337,335,293,255,240,106,103,167,0,
1,1775068079648,-2187,555,9384,326202,-73303,70860,0,0,0,296,343,244,361,271,384,502,353,314,360,358,350,0,
2,1775068079648,6767,3268,8848,-6385985,637743,452040,0,0,0,227,395,201,302,339,335,294,258,240,102,101,165,0,
1,1775068079664,-2120,593,9504,283441,-34208,74525,0,0,0,296,351,249,369,271,389,503,341,319,352,348,357,0,
2,1775068079664,5781,2847,10222,-6280916,1304808,708603,0,0,0,225,393,200,302,338,337,294,260,243,98,98,163,0,
1,1775068079680,-2057,622,9614,278554,-23212,76969,0,0,0,302,352,255,369,274,395,501,325,318,357,345,359,0,
2,1775068079680,4929,3082,12031,-6313903,1631010,966388,0,0,0,226,397,203,303,338,336,298,260,245,101,98,163,0,
1,1775068079696,-2019,593,9691,289550,-31764,84299,0,0,0,294,344,250,363,279,392,494,318,322,349,332,372,0,
2,1775068079696,5178,3412,13874,-6550918,1753183,1133765,0,0,0,226,397,203,306,341,341,300,265,245,103,102,167,0,
1,1775068079712,-2019,540,9748,306654,-58643,97738,0,0,0,292,345,250,365,280,392,498,305,322,347,323,381,0,
2,1775068079712,5546,3259,16214,-6856351,2010968,1104444,0,0,0,227,398,203,300,335,336,301,265,245,100,100,166,0,
1,1775068079728,-2062,483,9748,328645,-83077,113620,0,0,0,294,349,249,369,291,396,492,290,324,343,313,402,0,
2,1775068079728,5331,2957,19358,-7067710,2294409,963945,0,0,0,225,398,204,300,334,334,296,263,245,100,98,166,0,
1,1775068079744,-2110,430,9739,362853,-103847,134390,0,0,0,305,384,256,374,305,400,487,279,330,336,309,405,0,
2,1775068079744,4943,3043,22991,-7181331,2453234,852767,0,0,0,224,393,200,302,333,334,300,261,245,112,110,181,0,
1,1775068079760,-2167,421,9777,415388,-133168,164933,0,0,0,312,375,245,385,306,406,481,256,334,339,291,411,0,
2,1775068079760,4565,2981,27681,-7389025,2593733,981049,0,0,0,224,392,199,303,333,335,304,261,248,110,110,182,0,
1,1775068079776,-2268,430,9901,467922,-160046,197920,0,0,0,319,370,251,390,314,423,474,236,345,329,273,435,0,
2,1775068079776,3474,588,31945,-7551516,2820975,1507615,0,0,0,227,394,200,303,333,334,307,258,249,110,109,182,0,
1,1775068079792,-2416,354,10083,546113,-175929,246789,0,0,0,323,378,245,394,323,443,470,222,354,314,254,460,0,
2,1775068079792,1842,-6168,34965,-7310835,3150842,2334726,0,0,0,226,394,198,309,336,336,308,256,250,113,110,179,0,
1,1775068079808,-2522,224,10279,663399,-195476,307876,0,0,0,330,388,235,405,330,463,470,210,363,298,220,485,0,
2,1775068079808,1229,-19478,36305,-6271142,2864957,2822197,0,0,0,233,395,200,314,337,338,309,252,254,117,110,182,0,
1,1775068079824,-2531,114,10600,810007,-212581,367740,0,0,0,345,393,230,426,325,476,464,195,373,306,191,509,0,
2,1775068079824,3244,-32600,31404,-5006651,1773952,2179567,0,0,0,240,399,204,319,339,343,309,253,258,117,108,182,0,
1,1775068079840,-2517,76,11088,968832,-194255,409279,0,0,0,375,385,224,445,308,479,446,186,380,321,176,534,0,
2,1775068079840,335,-42593,21832,-3345098,1457524,223576,0,0,0,242,400,204,323,342,347,310,256,259,117,107,180,0,
1,1775068079856,-2292,14,11701,1204626,-156381,422718,0,0,0,408,380,219,449,307,487,425,186,388,294,150,558,0,
2,1775068079856,-10193,-46647,17520,-1523497,1453859,-1532050,0,0,0,234,397,201,321,343,343,316,277,257,119,117,177,0,
1,1775068079872,-2014,-114,12160,1488067,-174707,401949,0,0,0,383,390,214,446,326,486,388,166,391,271,137,560,0,
2,1775068079872,-14955,-43115,19411,213802,124616,-1788613,0,0,0,220,387,191,317,342,335,336,335,251,126,148,163,0,
1,1775068079888,-1947,-306,12624,1837482,-273667,350636,0,0,0,394,385,203,467,335,479,357,148,383,270,132,569,0,
2,1775068079888,-9131,-25130,22876,1982868,-1822821,-1257160,0,0,0,220,373,174,318,338,327,365,395,237,175,226,153,0,
1,1775068079904,-2660,-291,13304,2306627,-386066,367740,0,0,0,404,392,191,474,343,493,309,132,399,259,125,583,0,
2,1775068079904,4053,9456,18329,3368310,-3599217,-272445,0,0,0,220,360,166,306,321,316,389,428,226,263,342,151,0,
1,1775068079920,-3292,-215,14161,2893057,-441044,502131,0,0,0,393,403,177,472,368,501,273,138,395,253,131,573,0,
2,1775068079920,6336,14357,9844,4268726,-3623652,609643,0,0,0,230,367,162,316,331,321,420,446,235,186,274,146,0,
1,1775068079936,-4044,-186,15223,3589444,-378736,703716,0,0,0,412,397,182,450,358,508,191,129,405,226,129,562,0,
2,1775068079936,-842,1761,12342,5232671,-2280970,1044579,0,0,0,235,374,170,320,335,334,443,459,245,184,282,152,0,
1,1775068079952,-5178,-71,16558,4300491,-273667,970053,0,0,0,421,357,189,438,339,508,176,114,430,208,100,534,0,
2,1775068079952,-6020,-2962,19851,4928460,-890641,354301,0,0,0,232,375,178,317,319,336,432,493,238,322,404,148,0,
1,1775068079968,-6207,-119,18994,5054298,-202807,1315803,0,0,0,399,358,203,405,313,502,169,109,433,178,88,487,0,
2,1775068079968,-2847,397,20760,4032932,-261450,-587652,0,0,0,236,380,199,324,323,342,453,497,243,324,409,160,0,
1,1775068079984,-8155,-392,22775,6028018,-151494,1750739,0,0,0,357,347,200,368,290,467,165,112,405,152,85,401,0,
2,1775068079984,2909,2531,16826,3117856,-179594,-693942,0,0,0,255,392,234,329,321,348,466,503,245,365,431,169,0,
1,1775068080000,-10145,-272,25321,6869790,25656,2228436,0,0,0,307,322,189,337,266,420,170,121,348,134,86,317,0,
2,1775068080000,3421,1024,12974,2037846,-216246,-92851,0,0,0,270,409,252,345,343,358,487,512,259,357,425,187,0,
1,1775068080016,-9868,-100,27183,7373143,365297,2690250,0,0,0,265,307,184,299,240,367,188,131,297,126,91,253,0,
2,1775068080016,1612,-19,11261,1082453,-276111,230907,0,0,0,285,419,265,354,346,367,494,516,265,356,425,203,0,
1,1775068080032,-9064,1813,27824,7793418,623082,3026226,0,0,0,241,285,179,268,205,295,231,149,258,131,105,176,0,
2,1775068080032,555,253,10973,364075,-294437,157603,0,0,0,303,425,275,363,343,377,501,514,267,375,438,212,0,
1,1775068080048,-10404,5513,24771,8208807,489913,3233920,0,0,0,245,249,177,265,166,234,280,178,234,146,129,101,0,
2,1775068080048,985,995,10538,152716,-261450,29321,0,0,0,316,432,281,368,344,382,505,516,266,375,435,217,0,
1,1775068080064,-11988,10409,18090,8263784,73303,3561344,0,0,0,264,246,187,272,154,234,289,187,241,161,148,107,0,
2,1775068080064,1119,1373,10203,76969,-207694,-8552,0,0,0,322,436,284,371,345,379,504,519,269,365,427,218,0,
1,1775068080080,-10308,14572,11686,7062823,-414166,3767816,0,0,0,259,252,187,275,161,239,288,193,239,161,149,108,0,
2,1775068080080,1033,1454,10217,58643,-124616,-4886,0,0,0,327,434,283,375,346,379,512,519,277,357,417,221,0,
1,1775068080096,-4412,18497,10390,3012787,67195,2156354,0,0,0,257,257,183,275,169,241,290,198,243,163,157,112,0,
2,1775068080096,1005,1545,10236,75747,-51312,-17104,0,0,0,329,435,283,371,347,383,518,524,276,304,361,237,0,
1,1775068080112,-1502,18095,11069,-1778839,1419650,-598647,0,0,0,260,257,183,275,165,237,294,200,239,164,152,111,0,
2,1775068080112,1024,1660,10174,155159,6108,-37873,0,0,0,333,442,287,372,353,386,522,524,284,243,305,243,0,
1,1775068080128,-4881,11586,10413,-4577824,2642603,-2658485,0,0,0,259,257,184,274,165,239,296,199,239,165,153,111,0,
2,1775068080128,1028,1665,10098,272445,57421,-43982,0,0,0,339,446,288,373,355,386,524,518,291,238,293,254,0,
1,1775068080144,-9035,5872,6862,-4532620,2041511,-2326174,0,0,0,261,258,185,277,166,242,297,202,241,168,157,112,0,
2,1775068080144,1086,1569,10007,372627,98960,-39095,0,0,0,341,446,288,381,358,392,518,508,287,245,287,269,0,
1,1775068080160,-8092,4517,5283,-4295604,829554,-1313360,0,0,0,261,257,185,277,165,240,297,202,238,169,159,114,0,
2,1775068080160,1201,1450,9882,412944,105068,-31764,0,0,0,345,449,290,383,358,393,523,494,292,245,274,284,0,
1,1775068080176,-5283,4934,6087,-4539950,339641,-693942,0,0,0,260,257,185,277,162,242,296,200,238,169,160,112,0,
2,1775068080176,1282,1359,9796,405614,65973,-32986,0,0,0,342,449,285,381,361,400,511,474,293,240,254,292,0,
1,1775068080192,-3886,5350,8054,-5248554,700051,-635299,0,0,0,260,256,188,278,162,244,296,201,238,172,163,114,0,
2,1775068080192,1325,1330,9825,409279,25656,-45204,0,0,0,349,454,285,384,364,401,512,457,297,236,241,310,0,
1,1775068080208,-5326,4560,9313,-5930279,863763,-800233,0,0,0,260,256,189,279,162,244,297,203,238,175,166,118,0,
2,1775068080208,1335,1320,9901,442266,-8552,-62308,0,0,0,361,454,289,392,362,406,512,442,302,241,229,323,0,
1,1775068080224,-6446,3220,10222,-6378654,500909,-904080,0,0,0,259,255,187,279,161,244,302,204,240,173,164,117,0,
2,1775068080224,1282,1253,9949,477696,-31764,-78190,0,0,0,374,455,295,402,362,413,513,424,311,259,212,335,0,
1,1775068080240,-6302,1971,11217,-6569244,-53756,-976162,0,0,0,260,254,188,280,160,246,304,201,240,176,160,115,0,
2,1775068080240,1196,1100,9920,478918,-23212,-83077,0,0,0,382,458,300,402,362,416,505,409,314,277,223,350,0,
1,1775068080256,-6345,1316,12553,-6666983,-346971,-1093448,0,0,0,267,258,194,283,161,250,300,193,238,186,161,118,0,
2,1775068080256,1162,961,9873,458148,-2443,-81855,0,0,0,391,465,302,401,366,419,496,394,317,260,212,368,0,
1,1775068080272,-6982,770,14252,-6779382,-684169,-1187522,0,0,0,273,261,196,280,162,249,300,193,241,187,160,120,0,
2,1775068080272,1225,918,9911,445931,12217,-79412,0,0,0,401,478,305,407,373,428,496,375,325,230,171,380,0,
1,1775068080288,-7485,124,16712,-6827029,-1191187,-1169196,0,0,0,265,258,190,284,162,246,306,195,238,192,158,119,0,
2,1775068080288,1373,909,10021,465479,0,-86742,0,0,0,405,488,308,413,377,439,496,348,337,227,163,388,0,
1,1775068080304,-7384,-368,19229,-6763499,-1591914,-1119105,0,0,0,265,261,192,284,165,248,304,202,240,185,163,117,0,
2,1775068080304,1497,851,10112,500909,-20769,-111177,0,0,0,411,489,302,419,381,445,491,325,346,231,159,407,0,
1,1775068080320,-7312,-713,22263,-6644992,-1886351,-1131322,0,0,0,266,260,193,285,164,248,306,194,241,190,162,120,0,
2,1775068080320,1483,751,10141,532674,-26878,-152716,0,0,0,425,495,304,432,387,456,488,305,340,235,154,427,0,
1,1775068080336,-7126,-1641,25809,-6592457,-2223549,-1321912,0,0,0,265,260,194,284,162,250,299,194,244,211,160,130,0,
2,1775068080336,1445,679,10169,559552,4886,-188146,0,0,0,432,500,301,437,399,464,475,277,343,236,149,444,0,
1,1775068080352,-5398,-4570,29518,-6615670,-2692693,-1692096,0,0,0,254,270,196,279,167,251,304,199,244,187,159,116,0,
2,1775068080352,1660,607,10260,620639,37873,-233350,0,0,0,436,508,306,436,400,460,459,252,350,248,158,465,0,
1,1775068080368,-2239,-12026,31978,-6559470,-2819753,-2001194,0,0,0,246,268,196,274,169,254,298,207,254,171,168,116,0,
2,1775068080368,1866,531,10519,728151,7330,-302989,0,0,0,446,499,317,444,409,476,453,233,355,241,155,484,0,
1,1775068080384,-1024,-23747,31438,-6148969,-2175901,-1771509,0,0,0,245,268,196,273,177,257,292,213,254,169,175,116,0,
2,1775068080384,1957,469,10906,878424,-67195,-371406,0,0,0,457,508,305,446,412,485,437,205,363,248,156,508,0,
1,1775068080400,-1880,-33500,24910,-5210680,-1528384,-693942,0,0,0,246,269,197,276,179,258,295,217,254,171,177,114,0,
2,1775068080400,1804,464,11495,1075122,-108734,-422718,0,0,0,462,528,290,447,427,487,401,193,372,247,158,525,0,
1,1775068080416,4498,-38640,18755,-4036597,-1866804,703716,0,0,0,238,270,183,277,178,250,308,232,248,192,211,112,0,
2,1775068080416,1296,473,12356,1420872,-63529,-438601,0,0,0,465,527,278,456,436,490,371,184,377,243,159,526,0,
1,1775068080432,15663,-43723,16798,-2460565,-1343903,1229060,0,0,0,226,265,169,268,178,238,325,283,243,222,292,104,0,
2,1775068080432,923,406,13012,1852143,28099,-410501,0,0,0,471,528,265,457,444,491,336,178,370,246,167,543,0,
1,1775068080448,19492,-49877,18899,277332,949284,708603,0,0,0,218,249,152,245,184,217,371,367,232,262,370,83,0,
2,1775068080448,971,344,13625,2360383,76969,-342084,0,0,0,470,524,244,452,452,489,295,173,361,249,172,559,0,
1,1775068080464,8494,-29801,16740,3810577,3279124,447153,0,0,0,213,238,121,233,178,196,434,429,204,308,397,64,0,
2,1775068080464,1660,263,14405,2894279,24434,-305432,0,0,0,470,519,230,447,457,491,260,164,361,245,175,569,0,
1,1775068080480,-3790,6168,16085,5569869,3706730,507018,0,0,0,223,245,121,249,157,209,448,452,206,319,416,65,0,
2,1775068080480,2665,201,15458,3536909,-113620,-368962,0,0,0,475,514,226,447,467,500,236,153,355,238,169,560,0,
1,1775068080496,-2450,8590,18679,5051855,2133141,657290,0,0,0,224,257,133,259,163,223,457,457,221,341,420,71,0,
2,1775068080496,3656,344,16946,4323704,-276111,-565661,0,0,0,483,505,230,441,467,501,226,144,347,234,158,533,0,
1,1775068080512,67,-550,22474,4753753,866206,723264,0,0,0,222,264,173,260,166,248,471,466,247,363,426,93,0,
2,1775068080512,4618,512,19152,5156924,-403171,-842994,0,0,0,482,493,237,430,446,489,226,136,352,229,150,489,0,
1,1775068080528,-1588,-3239,20799,3491705,414166,564439,0,0,0,238,271,171,270,172,240,479,459,235,362,432,86,0,
2,1775068080528,5139,402,23503,6224716,-425162,-1182635,0,0,0,447,479,234,425,431,478,229,134,347,211,136,419,0,
1,1775068080544,-3306,-727,14501,1909564,260228,169820,0,0,0,247,276,207,281,188,282,489,468,259,388,438,104,0,
2,1775068080544,5824,727,27303,7187440,-272445,-1444085,0,0,0,386,468,208,411,413,448,237,141,327,194,136,361,0,
1,1775068080560,-2866,1560,8810,899193,210137,-161268,0,0,0,264,282,225,308,189,307,492,479,281,400,449,165,0,
2,1775068080560,6345,1593,29222,7981565,17104,-1696983,0,0,0,316,443,186,369,388,409,254,163,293,170,126,318,0,
1,1775068080576,-1986,502,8466,518013,240680,-178372,0,0,0,277,290,232,327,198,311,502,485,279,414,462,170,0,
2,1775068080576,6829,2780,29595,8566774,466701,-2021963,0,0,0,273,408,189,319,352,354,274,224,254,133,107,250,0,
1,1775068080592,-1689,-119,10370,95294,326202,-74525,0,0,0,290,289,233,336,199,312,510,483,283,438,465,167,0,
2,1775068080592,8073,4144,28437,9022479,1249830,-2452013,0,0,0,234,389,200,292,324,326,277,228,251,96,92,163,0,
1,1775068080608,-1732,660,10753,-112399,277332,-31764,0,0,0,297,294,237,339,203,313,513,485,280,454,467,170,0,
2,1775068080608,9054,8088,22105,8968723,1839926,-3059213,0,0,0,246,396,210,304,330,341,283,239,256,108,97,171,0,
1,1775068080624,-1813,1282,10303,-134390,150272,-25656,0,0,0,302,300,239,343,206,316,515,487,277,453,468,171,0,
2,1775068080624,5273,14769,14213,6890559,836885,-3629761,0,0,0,242,397,204,303,331,337,283,240,250,109,99,169,0,
1,1775068080640,-1866,1306,9987,-43982,51312,-19547,0,0,0,304,303,235,350,216,320,519,486,278,450,468,174,0,
2,1775068080640,1675,20401,10882,2427578,-989601,-3046995,0,0,0,240,401,203,301,335,333,286,241,243,103,97,166,0,
1,1775068080656,-1842,1306,10131,57421,9773,3665,0,0,0,306,307,233,357,224,323,518,484,278,451,466,182,0,
2,1775068080656,2479,19100,11002,-2879618,-2177123,-1409876,0,0,0,237,402,202,305,335,336,287,241,241,109,101,169,0,
1,1775068080672,-1823,1311,10198,179594,-43982,29321,0,0,0,312,313,240,352,215,321,519,478,275,442,455,187,0,
2,1775068080672,5254,10323,9451,-5294979,-1880243,-186924,0,0,0,232,402,202,306,335,338,290,243,242,112,104,171,0,
1,1775068080688,-1871,1234,10016,252898,-79412,41538,0,0,0,315,320,253,343,212,320,524,467,272,431,436,186,0,
2,1775068080688,6288,4570,6168,-5120272,-1209513,23212,0,0,0,225,403,200,304,336,337,290,247,243,110,107,172,0,
1,1775068080704,-1938,1119,9806,283441,-80634,47647,0,0,0,316,334,250,353,223,328,510,469,280,438,414,195,0,
2,1775068080704,5920,3790,3890,-4397007,-568104,-228463,0,0,0,220,404,202,302,336,337,293,250,245,108,107,173,0,
1,1775068080720,-1966,1043,9686,274889,-47647,52534,0,0,0,305,341,249,352,230,337,502,452,287,436,410,208,0,
2,1775068080720,4867,5508,4924,-4775744,-175929,-233350,0,0,0,221,405,206,302,337,338,297,253,245,106,104,172,0,
1,1775068080736,-1909,1014,9657,248011,-12217,56199,0,0,0,304,341,236,350,225,336,495,447,293,407,401,208,0,
2,1775068080736,4422,5881,6513,-5441587,67195,6108,0,0,0,224,406,207,305,338,338,296,255,243,108,102,168,0,
1,1775068080752,-1813,1005,9672,224798,-3665,59864,0,0,0,302,342,230,350,238,332,498,440,296,399,401,216,0,
2,1775068080752,4747,5250,7585,-5904623,398284,285884,0,0,0,224,405,204,304,336,337,299,258,246,112,105,170,0,
1,1775068080768,-1770,1038,9710,223576,-23212,61086,0,0,0,304,347,231,352,242,336,494,419,297,392,382,221,0,
2,1775068080768,4795,4556,8533,-6096435,941954,500909,0,0,0,223,403,204,304,338,336,301,260,246,110,107,171,0,
1,1775068080784,-1809,1076,9739,265115,-42760,61086,0,0,0,302,342,238,357,243,350,492,411,304,377,376,242,0,
2,1775068080784,3948,4115,10011,-6245486,1350012,741590,0,0,0,222,403,205,304,335,335,297,255,246,104,100,169,0,
1,1775068080800,-1832,1024,9758,324980,-57421,62308,0,0,0,299,347,236,360,255,355,495,388,296,359,362,256,0,
2,1775068080800,3670,3603,11404,-6354220,1518610,981049,0,0,0,224,404,206,305,336,339,298,256,247,113,107,173,0,
1,1775068080816,-1818,909,9739,365297,-67195,62308,0,0,0,298,347,248,354,257,373,502,363,301,357,342,292,0,
2,1775068080816,4072,3263,12998,-6453180,1642005,1145983,0,0,0,224,404,205,305,333,336,299,257,247,109,104,170,0,
1,1775068080832,-1809,842,9748,408057,-79412,67195,0,0,0,301,347,258,349,264,387,502,343,313,353,324,337,0,
2,1775068080832,4517,3407,15563,-6706078,1832595,1209513,0,0,0,225,402,205,306,333,338,300,258,247,114,104,171,0,
1,1775068080848,-1837,799,9853,466701,-95294,81855,0,0,0,305,356,250,354,278,386,492,327,319,342,312,359,0,
2,1775068080848,4781,3412,18525,-7015176,1992642,1281595,0,0,0,227,402,206,309,337,340,301,259,248,111,103,171,0,
1,1775068080864,-1919,746,9987,554665,-116064,111177,0,0,0,310,368,242,366,282,389,481,315,321,331,299,372,0,
2,1775068080864,5058,3139,22081,-7169114,2161241,1457524,0,0,0,228,400,208,306,333,337,304,258,251,113,107,171,0,
1,1775068080880,-2033,684,10093,645073,-129503,147829,0,0,0,320,379,243,376,286,397,459,291,332,321,277,393,0,
2,1775068080880,5273,3024,26585,-7230200,2345722,1761735,0,0,0,229,400,209,308,334,339,306,256,253,114,107,172,0,
1,1775068080896,-2129,550,10112,715934,-125838,193033,0,0,0,329,383,248,386,298,403,423,255,359,320,257,405,0,
2,1775068080896,5235,1627,31414,-7301061,2547308,2371378,0,0,0,230,401,206,312,338,342,308,254,254,114,104,170,0,
1,1775068080912,-2268,406,10131,777020,-111177,250454,0,0,0,340,404,254,400,330,431,452,237,367,301,246,431,0,
2,1775068080912,4211,-6063,34467,-7169114,2951700,3147177,0,0,0,233,402,204,315,339,341,301,257,257,111,103,170,0,
1,1775068080928,-2455,287,10323,867428,-87964,332310,0,0,0,353,425,263,412,322,451,446,208,379,298,213,463,0,
2,1775068080928,2770,-19707,36104,-6486167,2889392,3488040,0,0,0,236,405,203,317,340,342,304,261,261,114,106,173,0,
1,1775068080944,-2450,157,10648,994488,-65973,421497,0,0,0,394,422,236,440,323,462,429,187,372,290,181,482,0,
2,1775068080944,3886,-37013,31284,-5020090,1684766,2707354,0,0,0,236,405,202,320,343,344,322,260,262,123,113,179,0,
1,1775068080960,-2191,67,11208,1139874,-57421,481361,0,0,0,390,427,232,439,319,472,402,177,374,280,168,512,0,
2,1775068080960,1493,-47475,21268,-2979800,1310916,543670,0,0,0,235,404,200,323,344,344,331,276,261,143,127,177,0,
1,1775068080976,-1746,47,12036,1367116,-53756,470366,0,0,0,416,442,212,458,323,480,377,172,378,273,156,523,0,
2,1775068080976,-8188,-49849,17664,-1128878,1292590,-1277930,0,0,0,222,397,188,319,343,335,357,342,255,222,187,172,0,
1,1775068080992,-1474,0,12677,1704314,-67195,419053,0,0,0,435,445,208,453,334,494,341,158,377,266,149,540,0,
2,1775068080992,-16582,-45618,23220,885754,-221133,-1729970,0,0,0,222,384,178,317,342,324,370,405,237,205,232,156,0,
1,1775068081008,-1675,-105,13409,2141693,-111177,364075,0,0,0,425,452,191,446,375,502,287,154,385,247,149,558,0,
2,1775068081008,-5967,-16898,21215,3472158,-2926044,-824668,0,0,0,222,368,158,313,336,315,415,447,233,171,232,146,0,
1,1775068081024,-2684,-9,14496,2731789,-133168,383623,0,0,0,423,460,185,439,376,502,224,145,392,235,146,567,0,
2,1775068081024,6293,12471,13845,4906469,-3918089,87964,0,0,0,228,371,158,313,334,319,411,451,233,198,280,147,0,
1,1775068081040,-3991,81,15391,3391523,-47647,568104,0,0,0,437,447,199,420,359,496,183,130,393,228,133,555,0,
2,1775068081040,2397,7035,14869,5202128,-2318844,470366,0,0,0,228,373,173,310,325,328,406,477,234,263,358,148,0,
1,1775068081056,-4804,110,16707,4136779,124616,899193,0,0,0,447,428,209,406,364,491,167,133,395,209,117,527,0,
2,1775068081056,-3996,-1383,20416,5106833,-711047,291993,0,0,0,230,388,185,320,350,340,442,474,247,288,368,152,0,
1,1775068081072,-5431,90,19157,4932125,272445,1252273,0,0,0,436,412,204,400,357,483,155,144,387,183,107,487,0,
2,1775068081072,-3838,-1852,21737,4290717,41538,-354301,0,0,0,244,393,217,324,331,348,447,487,246,341,412,150,0,
1,1775068081088,-7150,-210,22699,5810550,409279,1604132,0,0,0,399,377,194,369,320,452,152,125,356,165,99,420,0,
2,1775068081088,1852,1349,16099,3027448,69638,-489913,0,0,0,259,401,241,334,330,352,458,492,245,355,419,164,0,
1,1775068081104,-9638,47,25259,6682865,587652,2048842,0,0,0,320,377,195,341,297,422,153,132,319,142,101,340,0,
2,1775068081104,3555,1536,11682,1940107,-37873,-123394,0,0,0,284,415,260,353,340,365,491,502,260,341,387,188,0,
1,1775068081120,-10107,818,27078,7406130,849102,2598620,0,0,0,275,330,204,304,253,375,178,140,298,132,95,287,0,
2,1775068081120,1966,263,10777,959058,-191811,149051,0,0,0,310,428,279,362,343,377,501,505,270,374,407,201,0,
1,1775068081136,-9093,2660,28475,7942469,1125213,2976135,0,0,0,246,289,201,284,204,306,233,158,260,152,119,192,0,
2,1775068081136,894,47,10988,288328,-304210,138055,0,0,0,333,438,289,366,343,378,504,512,271,335,369,215,0,
1,1775068081152,-9834,5656,27288,8456818,1414763,3185051,0,0,0,260,239,187,265,137,235,282,187,236,161,140,116,0,
2,1775068081152,947,914,10605,61086,-300545,24434,0,0,0,347,443,293,368,343,374,510,516,274,302,338,224,0,
1,1775068081168,-12715,9595,19645,8581434,1367116,3463605,0,0,0,263,256,192,268,162,238,288,218,241,164,183,119,0,
2,1775068081168,1081,1483,10251,31764,-226020,-12217,0,0,0,355,445,298,368,343,374,506,509,274,373,402,221,0,
1,1775068081184,-12677,13787,12227,7498981,794124,3527135,0,0,0,260,262,196,267,165,248,283,219,242,167,187,122,0,
2,1775068081184,1148,1612,10236,83077,-140499,-6108,0,0,0,367,447,304,373,344,377,507,506,273,380,403,227,0,
1,1775068081200,-7374,19588,9791,3633426,103847,2062281,0,0,0,263,263,194,269,169,244,285,220,241,165,184,118,0,
2,1775068081200,1115,1598,10222,152716,-124616,-13439,0,0,0,367,449,309,371,349,386,507,503,284,365,392,235,0,
1,1775068081216,-3819,19353,10949,-1513724,703716,-1105666,0,0,0,261,262,190,274,170,242,293,223,240,167,181,113,0,
2,1775068081216,1052,1631,10179,235793,-116064,-26878,0,0,0,370,453,304,372,349,384,510,495,284,308,327,247,0,
1,1775068081232,-6374,13299,9873,-4265061,1389107,-3057991,0,0,0,259,265,188,274,170,240,296,225,241,170,185,114,0,
2,1775068081232,1000,1655,10160,331088,-74525,-31764,0,0,0,380,459,301,380,356,389,511,485,284,288,294,272,0,
1,1775068081248,-9964,6695,6551,-4333478,579100,-2542421,0,0,0,261,267,189,272,170,238,298,226,242,170,189,114,0,
2,1775068081248,1009,1555,10093,410501,-13439,-24434,0,0,0,384,467,305,384,361,393,510,475,284,235,233,288,0,
1,1775068081264,-7987,4871,5541,-4063475,-557109,-1299921,0,0,0,263,267,191,273,172,241,301,229,243,170,189,115,0,
2,1775068081264,1095,1368,9973,441044,23212,-18325,0,0,0,389,470,308,386,363,394,509,459,290,251,233,300,0,
1,1775068081280,-3589,5671,7049,-4477642,-730594,-509461,0,0,0,262,267,193,273,172,245,301,227,245,171,188,119,0,
2,1775068081280,1182,1249,9882,415388,15882,-26878,0,0,0,388,471,309,382,362,393,504,447,297,235,217,312,0,
1,1775068081296,-3120,6054,8954,-5464800,-75747,-499687,0,0,0,258,267,195,273,170,249,297,225,248,171,188,120,0,
2,1775068081296,1201,1258,9863,388510,-10995,-41538,0,0,0,395,480,305,387,365,398,503,431,305,228,203,324,0,
1,1775068081312,-4565,5465,10131,-6200282,-45204,-566882,0,0,0,258,266,197,275,170,253,296,226,251,172,191,123,0,
2,1775068081312,1196,1282,9911,397062,-34208,-56199,0,0,0,395,479,300,390,367,404,502,409,308,221,186,337,0,
1,1775068081328,-4752,4302,11347,-6610783,-741590,-618195,0,0,0,255,265,196,274,171,251,297,226,251,172,191,119,0,
2,1775068081328,1172,1215,9987,433714,-45204,-70860,0,0,0,394,485,306,389,371,411,497,389,312,217,176,348,0,
1,1775068081344,-3780,3254,12773,-6824586,-1268156,-778242,0,0,0,255,267,197,273,171,251,294,226,251,172,193,121,0,
2,1775068081344,1129,1095,9992,460592,-45204,-79412,0,0,0,399,488,308,392,374,416,488,373,315,217,170,363,0,
1,1775068081360,-3326,2215,14419,-6914994,-1437976,-1044579,0,0,0,256,269,197,270,171,249,298,229,255,169,193,119,0,
2,1775068081360,1091,1019,9978,474031,-34208,-84299,0,0,0,407,494,311,400,374,426,476,350,319,217,163,376,0,
1,1775068081376,-4211,1268,16286,-6849021,-1571145,-1236391,0,0,0,261,274,202,266,167,245,299,228,250,170,196,118,0,
2,1775068081376,1095,981,10002,486248,-15882,-83077,0,0,0,419,503,316,410,383,440,467,326,326,222,163,388,0,
1,1775068081392,-4986,756,18640,-6728069,-1872912,-1290147,0,0,0,254,273,201,271,169,247,304,231,252,171,195,120,0,
2,1775068081392,1229,904,10074,505796,2443,-85521,0,0,0,428,508,316,421,395,445,464,310,332,233,167,408,0,
