sole_id,timestamp,accel_x,accel_y,accel_z,gyro_x,gyro_y,gyro_z,magn_x,magn_y,magn_z,pressure_01,pressure_02,pressure_03,pressure_04,pressure_05,pressure_06,pressure_07,pressure_08,pressure_09,pressure_10,pressure_11,pressure_12,corrupt
1,1773244476224,-172,-875,17071,3164281,-300545,783129,0,0,0,265,321,225,323,163,286,548,548,221,510,521,98,0
1,1773244476240,-4168,990,15946,2109928,-68416,816115,0,0,0,279,322,270,340,172,290,561,562,233,529,532,114,0
1,1773244476256,-3910,229,13093,1293812,25656,184481,0,0,0,277,322,293,334,207,313,578,578,260,539,547,137,0
1,1773244476272,-2144,28,10696,663399,-29321,-179594,0,0,0,294,361,296,335,231,333,587,578,270,561,565,153,0
1,1773244476288,-1588,550,9753,306654,-57421,-133168,0,0,0,304,405,298,341,255,334,590,579,267,572,578,176,0
1,1773244476304,-2057,861,9830,105068,40317,-23212,0,0,0,304,419,304,342,252,343,596,587,275,579,589,212,0
1,1773244476320,-2182,885,9944,2443,127059,-10995,0,0,0,318,409,317,342,233,357,602,587,283,587,599,233,0
1,1773244476336,-1947,966,9925,-28099,131946,-14660,0,0,0,332,407,337,342,246,354,603,581,273,589,605,236,0
1,1773244476352,-1761,1139,9959,-29321,80634,-3665,0,0,0,325,435,350,350,273,357,601,583,269,595,602,252,0
1,1773244476368,-1809,1263,10040,26878,-7330,7330,0,0,0,328,435,375,352,285,370,600,587,281,593,600,260,0
1,1773244476384,-1856,1311,10040,116064,-76969,15882,0,0,0,319,446,381,352,276,380,600,584,277,591,599,268,0
1,1773244476400,-1866,1277,9954,230907,-138055,29321,0,0,0,314,450,353,341,274,394,603,568,289,585,596,289,0
1,1773244476416,-1933,1124,9767,305432,-172263,39095,0,0,0,348,471,361,366,280,385,594,560,283,583,592,282,0
1,1773244476432,-2010,957,9576,300545,-157603,45204,0,0,0,345,466,363,371,293,408,591,559,309,571,576,292,0
1,1773244476448,-2024,909,9523,235793,-111177,51312,0,0,0,327,477,371,367,295,412,591,539,303,573,582,299,0
2,1773244476448,0,0,0,0,0,0,0,0,0,258,438,196,351,382,349,320,319,252,138,151,179,0
1,1773244476464,-2000,947,9581,194255,-75747,57421,0,0,0,325,479,374,379,297,407,592,523,308,578,587,303,0
2,1773244476464,-1201,-1124,1450,-15882,-20769,2443,0,0,0,258,437,192,348,381,347,320,319,251,138,151,179,0
1,1773244476480,-1966,981,9667,188146,-61086,62308,0,0,0,325,475,380,384,303,418,591,511,311,560,583,304,0
1,1773244476496,-1957,952,9696,194255,-58643,62308,0,0,0,327,469,395,392,312,429,582,497,317,546,575,312,0
2,1773244476496,-5087,-2196,17018,-2096489,-774577,541226,0,0,0,258,438,193,350,381,347,321,320,253,139,152,180,0
1,1773244476512,-1962,923,9696,200363,-54977,61086,0,0,0,342,465,400,401,315,431,578,473,342,549,558,320,0
2,1773244476512,780,3665,17056,-4937012,350636,659734,0,0,0,260,440,198,352,384,350,324,320,255,137,151,180,0
1,1773244476528,-1966,904,9681,217468,-50090,61086,0,0,0,348,467,389,401,315,434,585,455,355,544,536,328,0
2,1773244476528,3144,4527,16927,-6213721,1598023,568104,0,0,0,254,440,191,351,383,349,335,323,259,132,147,172,0
1,1773244476544,-1947,856,9676,237015,-48869,62308,0,0,0,330,471,386,416,323,432,582,453,342,530,527,351,0
2,1773244476544,2809,2723,19435,-6039013,1966986,675616,0,0,0,252,443,191,346,378,344,338,319,258,131,143,172,0
1,1773244476560,-1938,789,9691,241902,-59864,61086,0,0,0,326,477,388,425,328,443,577,431,349,528,513,376,0
2,1773244476560,2560,1957,22694,-5816658,1946216,1028697,0,0,0,254,444,193,345,378,344,339,316,258,131,142,173,0
1,1773244476576,-1952,751,9729,248011,-74525,61086,0,0,0,322,490,389,402,333,460,575,428,349,505,497,411,0
2,1773244476576,2833,1440,25972,-5843536,1896125,1589471,0,0,0,252,442,194,346,379,346,342,318,261,133,144,175,0
1,1773244476592,-1995,760,9796,268780,-85521,67195,0,0,0,334,482,369,412,330,468,566,408,353,484,473,423,0
2,1773244476592,4015,-1890,28456,-5929058,1887573,2257757,0,0,0,250,446,190,349,381,348,340,313,260,148,173,173,0
1,1773244476608,-2043,760,9825,299323,-80634,81855,0,0,0,352,500,362,464,337,477,569,397,356,484,458,446,0
2,1773244476608,5034,-7992,29494,-5858197,1952325,2544864,0,0,0,250,445,186,348,382,346,340,311,259,154,187,171,0
1,1773244476624,-2014,679,9763,323758,-72082,98960,0,0,0,349,503,386,431,338,507,566,361,376,446,449,464,0
2,1773244476624,5025,-17339,27298,-5387831,1805717,2092824,0,0,0,267,442,187,352,382,346,342,313,259,152,180,171,0
2,1773244476640,3306,-25379,22191,-4461759,1660331,1189965,0,0,0,278,444,190,357,382,348,340,315,258,151,178,172,0
1,1773244476656,-2086,593,9834,377514,-76969,130725,0,0,0,389,510,373,465,378,522,564,324,408,401,390,500,0
2,1773244476656,-1727,-30241,16453,-2967583,1690874,31764,0,0,0,258,448,194,351,384,349,339,318,259,146,179,172,0
1,1773244476672,-2187,593,9973,475253,-85521,157603,0,0,0,396,513,381,460,382,527,563,305,417,378,357,520,0
2,1773244476672,-8609,-32337,14194,-1352455,1241278,-808785,0,0,0,260,446,194,351,384,350,344,321,263,146,175,174,0
1,1773244476688,-2249,564,10160,582765,-78190,195476,0,0,0,407,506,408,459,384,550,559,270,425,360,311,538,0
2,1773244476688,-10820,-32993,14113,-222354,234572,-1031140,0,0,0,255,443,182,349,383,345,353,330,262,141,161,169,0
1,1773244476704,-2306,521,10380,675616,-53756,229685,0,0,0,409,512,394,474,389,560,539,236,425,344,261,543,0
2,1773244476704,-7619,-27102,15563,1072679,-902858,-916297,0,0,0,242,442,172,348,389,341,383,389,259,156,195,167,0
1,1773244476720,-2440,416,10571,767246,-18325,266337,0,0,0,414,534,343,499,410,557,514,232,427,321,234,557,0
2,1773244476720,-1541,-8997,16941,2550973,-2083050,-641408,0,0,0,258,434,169,343,374,324,384,459,238,181,260,159,0
1,1773244476736,-2407,277,10940,927293,24434,327423,0,0,0,426,553,309,523,464,575,493,226,448,315,224,572,0
1,1773244476752,-2220,143,11485,1165530,46425,381179,0,0,0,433,570,285,550,503,582,464,207,473,342,216,579,0
2,1773244476752,4254,9590,10346,4148996,-2959031,138055,0,0,0,249,425,161,346,371,340,431,484,240,288,376,150,0
1,1773244476768,-2215,57,12026,1445307,29321,417831,0,0,0,473,563,261,541,527,583,433,208,463,311,254,591,0
2,1773244476768,-186,282,13888,4295604,-1909564,313984,0,0,0,254,429,177,355,373,362,463,493,257,235,351,163,0
1,1773244476784,-2345,-67,12668,1836260,15882,471587,0,0,0,471,548,279,541,519,597,413,204,436,298,219,591,0
2,1773244476784,-2048,-1751,17535,3683517,-1072679,131946,0,0,0,263,435,191,368,368,366,499,511,252,309,403,156,0
1,1773244476800,-2479,-90,13180,2254092,25656,533896,0,0,0,471,551,219,554,515,586,371,191,439,282,212,587,0
2,1773244476800,19,770,17291,2715906,-730594,-199142,0,0,0,265,440,210,371,364,368,516,532,263,335,425,163,0
1,1773244476816,-2885,-86,13687,2776993,56199,645073,0,0,0,464,559,201,536,541,581,296,206,445,266,186,584,0
2,1773244476816,1871,1249,14950,1846034,-503352,-199142,0,0,0,287,451,261,369,356,378,520,546,270,340,425,182,0
1,1773244476832,-3364,-134,14505,3308446,128281,794124,0,0,0,448,558,223,538,539,567,281,190,441,255,173,572,0
2,1773244476832,1789,765,11725,1073901,-277332,30543,0,0,0,317,467,298,379,360,391,529,550,278,344,412,208,0
1,1773244476848,-3785,-129,15678,3855781,232128,959058,0,0,0,443,558,239,499,518,557,288,189,454,217,155,553,0
2,1773244476848,1191,794,9724,542448,-185703,142942,0,0,0,334,475,297,392,370,399,545,554,289,347,411,225,0
2,1773244476864,1009,746,9767,172263,-227241,107512,0,0,0,348,473,302,394,371,405,558,564,295,366,433,230,0
1,1773244476880,-5982,-832,19885,5242445,443488,1448972,0,0,0,425,509,254,453,511,545,276,164,428,179,139,450,0
2,1773244476880,1110,851,10251,-85521,-246789,48869,0,0,0,362,475,315,400,374,411,572,573,303,376,425,244,0
1,1773244476896,-7150,-689,21426,5875301,521678,1786169,0,0,0,393,477,223,422,479,495,263,186,372,175,151,384,0
2,1773244476896,1148,1229,10308,-184481,-200363,21991,0,0,0,369,481,338,410,369,417,581,579,311,397,442,244,0
1,1773244476912,-7351,-315,22708,6442184,599869,2123367,0,0,0,327,434,208,377,398,432,279,197,319,184,154,318,0
2,1773244476912,1162,1502,10174,-128281,-103847,14660,0,0,0,379,482,367,420,372,424,580,576,304,452,494,233,0
1,1773244476928,-6436,722,23756,6927211,805120,2370157,0,0,0,269,394,228,325,293,395,315,199,309,195,176,253,0
2,1773244476928,1229,1579,10117,-54977,-52534,6108,0,0,0,387,487,333,417,369,414,596,593,305,452,495,243,0
1,1773244476944,-6642,1952,23637,7257079,1192408,2516764,0,0,0,250,342,258,289,225,344,324,233,290,189,222,188,0
2,1773244476944,1244,1579,10078,4886,-43982,-3665,0,0,0,389,489,357,413,373,420,596,592,303,448,484,243,0
1,1773244476960,-9093,3153,18923,7305948,1402546,2626720,0,0,0,257,302,275,282,178,305,310,248,264,195,239,176,0
2,1773244476960,1206,1593,10078,63529,-37873,-13439,0,0,0,414,495,372,418,373,418,603,595,297,450,477,244,0
1,1773244476976,-10279,7231,11112,6365215,1001818,2728124,0,0,0,243,314,260,288,191,311,309,250,265,196,247,169,0
2,1773244476976,1206,1579,10083,123394,-17104,-19547,0,0,0,423,497,371,426,373,411,562,567,320,458,481,242,0
1,1773244476992,-8533,14390,9069,3728721,448375,2032959,0,0,0,242,321,261,275,190,306,310,249,264,197,232,178,0
1,1773244477008,-5039,18205,10844,-361632,516791,136833,0,0,0,236,321,227,278,194,290,318,255,261,206,240,178,0
2,1773244477008,1263,1469,9911,184481,-10995,-26878,0,0,0,406,498,358,410,381,416,587,578,311,441,468,264,0
1,1773244477024,-6551,11887,8906,-2977357,1275486,-1561371,0,0,0,254,326,258,283,191,302,316,255,260,200,242,179,0
2,1773244477024,1282,1426,9834,190589,-34208,-31764,0,0,0,409,499,360,407,378,413,581,569,309,430,452,265,0
1,1773244477040,-9514,5838,5087,-3247359,906524,-1578475,0,0,0,252,332,261,297,195,309,319,260,254,196,243,158,0
2,1773244477040,1253,1435,9844,201585,-58643,-41538,0,0,0,413,503,361,411,382,413,578,556,307,413,433,263,0
1,1773244477056,-7681,4742,4010,-2990796,-300545,-647517,0,0,0,223,326,277,278,194,324,316,254,257,195,237,180,0
2,1773244477056,1196,1454,9858,227241,-58643,-52534,0,0,0,416,510,363,415,388,423,578,550,312,370,394,270,0
2,1773244477072,1172,1421,9853,265115,-35430,-62308,0,0,0,417,513,370,414,387,435,580,551,324,319,337,289,0
1,1773244477088,-3584,6207,7006,-4152661,-195476,-432492,0,0,0,221,334,267,274,195,315,311,254,255,202,238,193,0
2,1773244477088,1225,1344,9834,287106,-18325,-63529,0,0,0,418,511,363,422,391,441,576,545,323,341,339,305,0
1,1773244477104,-4623,5589,7915,-4807509,-167377,-737925,0,0,0,221,337,267,278,207,320,310,259,266,206,246,203,0
2,1773244477104,1268,1306,9801,293215,-26878,-63529,0,0,0,417,520,336,429,404,447,571,531,321,383,370,312,0
1,1773244477120,-4714,4709,8724,-5160589,-709825,-928515,0,0,0,216,336,253,281,208,320,307,262,267,204,251,199,0
2,1773244477120,1287,1287,9772,296880,-57421,-58643,0,0,0,426,531,326,435,418,451,567,529,339,312,300,337,0
1,1773244477136,-3354,3905,10169,-5437922,-1159422,-1145983,0,0,0,209,331,252,279,198,324,310,262,270,204,253,205,0
2,1773244477136,1277,1215,9796,300545,-95294,-52534,0,0,0,424,542,336,436,437,459,568,516,341,309,293,365,0
1,1773244477152,-2459,3139,11715,-5710368,-1275486,-1336573,0,0,0,209,332,251,279,200,325,322,265,271,208,256,209,0
2,1773244477152,1258,1158,9868,310319,-122173,-51312,0,0,0,420,541,348,444,417,479,563,491,343,301,280,375,0
1,1773244477168,-2636,2392,13338,-5968153,-1225395,-1361007,0,0,0,208,338,249,280,198,319,345,267,268,214,250,198,0
2,1773244477168,1253,1158,9968,345749,-128281,-56199,0,0,0,441,547,358,460,418,493,560,469,342,280,250,395,0
1,1773244477184,-3182,1785,15261,-6097656,-1364672,-1105666,0,0,0,208,344,248,275,200,319,324,269,267,207,256,190,0
2,1773244477184,1234,1148,10074,409279,-123394,-67195,0,0,0,449,561,346,472,423,499,550,437,364,324,267,420,0
1,1773244477200,-3091,1182,17659,-6130643,-1598023,-829554,0,0,0,211,347,248,282,212,327,321,276,276,200,260,182,0
2,1773244477200,1225,1110,10160,494800,-102625,-80634,0,0,0,470,579,355,477,445,513,541,391,366,347,270,453,0
1,1773244477216,-2866,516,20004,-6091548,-1687209,-821002,0,0,0,215,345,248,284,210,327,333,276,276,199,260,161,0
2,1773244477216,1263,1033,10265,590095,-64751,-98960,0,0,0,485,592,372,481,452,526,527,362,380,358,268,482,0
1,1773244477232,-3364,-363,22321,-6028018,-1706757,-1095892,0,0,0,223,340,257,280,218,322,345,264,270,215,273,165,0
2,1773244477232,1335,957,10361,684169,-18325,-123394,0,0,0,493,596,388,490,458,538,519,334,386,336,245,503,0
1,1773244477248,-4211,-1603,24527,-5974262,-1789835,-1650557,0,0,0,220,340,267,280,207,329,330,269,275,202,263,175,0
1,1773244477264,-4656,-4450,26958,-5935166,-1944994,-2548529,0,0,0,217,344,261,276,214,321,315,271,273,196,260,174,0
2,1773244477264,1641,679,10806,919963,80634,-215024,0,0,0,530,606,368,494,475,557,497,278,400,259,171,557,0
1,1773244477280,-5163,-9997,28537,-5822767,-1969429,-3314554,0,0,0,215,344,251,277,215,314,310,269,269,196,257,178,0
2,1773244477280,1564,593,11203,1115439,64751,-263893,0,0,0,542,614,345,500,489,565,463,253,407,261,176,581,0
2,1773244477296,1263,598,11935,1440420,81855,-280998,0,0,0,545,614,329,517,498,569,429,233,407,272,177,609,0
1,1773244477312,-7470,-27551,22306,-4912578,-1682322,-1563815,0,0,0,225,351,264,291,211,321,339,259,269,226,257,177,0
2,1773244477312,1182,583,12883,1844813,152716,-270002,0,0,0,562,608,298,526,501,570,406,236,409,279,172,614,0
1,1773244477328,1115,-31418,17501,-3760486,-2034181,117286,0,0,0,232,354,247,302,209,313,354,254,259,235,257,175,0
2,1773244477328,1627,488,13687,2322509,163711,-278554,0,0,0,568,600,261,535,514,566,362,240,400,262,173,614,0
1,1773244477344,10567,-34055,14156,-2327396,-1672549,1061683,0,0,0,231,350,223,298,208,304,351,267,259,236,271,170,0
2,1773244477344,2120,507,14400,2855184,56199,-327423,0,0,0,565,614,247,523,526,555,303,230,392,262,179,629,0
1,1773244477360,13108,-36860,12591,-926071,-412944,1319468,0,0,0,223,335,194,289,200,297,364,311,257,252,325,152,0
2,1773244477360,2546,464,15132,3413514,-141720,-410501,0,0,0,572,605,241,519,551,571,271,234,408,277,205,634,0
1,1773244477376,10471,-32677,15099,599869,1177748,1398881,0,0,0,221,323,174,297,194,278,419,388,237,304,412,115,0
2,1773244477376,3120,440,16128,4113566,-335975,-560774,0,0,0,569,593,241,503,535,555,242,202,392,261,181,624,0
1,1773244477392,4259,-13003,17118,2665815,3104417,889419,0,0,0,216,284,151,276,185,259,446,459,236,384,434,96,0
2,1773244477392,3790,516,17697,4882034,-483805,-772133,0,0,0,569,588,263,498,544,577,246,174,383,249,163,565,0
1,1773244477408,-3311,8676,15271,4222300,3543018,-87964,0,0,0,217,278,203,287,165,301,473,473,259,430,450,119,0
2,1773244477408,4469,402,20454,5703037,-647517,-1015258,0,0,0,539,563,253,497,544,570,232,146,373,234,156,508,0
1,1773244477424,-1340,7264,14984,5035973,1842369,-558330,0,0,0,230,280,216,316,158,330,491,491,269,463,474,127,0
2,1773244477424,5197,555,24551,6642548,-858876,-1247386,0,0,0,483,537,223,477,523,531,231,144,350,226,149,434,0
1,1773244477440,2426,-172,19047,4867374,416610,25656,0,0,0,226,286,211,315,162,340,520,520,266,488,500,125,0
2,1773244477440,5479,1258,27523,7385360,-883311,-1414763,0,0,0,414,506,198,435,467,470,237,157,325,209,137,374,0
1,1773244477456,344,-2469,20397,3678630,41538,698829,0,0,0,237,291,225,321,172,289,552,551,244,501,527,144,0
2,1773244477456,5178,2167,28762,8048760,-741590,-1555262,0,0,0,344,474,182,381,416,409,260,205,285,186,141,334,0
1,1773244477472,-4111,-847,16645,2130697,174707,591317,0,0,0,248,319,269,332,180,318,552,551,271,520,530,150,0
2,1773244477472,5991,3239,27618,8532565,-387288,-1728748,0,0,0,286,440,178,341,380,364,290,263,263,150,138,246,0
1,1773244477488,-3910,512,11366,1080009,185703,-25656,0,0,0,257,361,272,338,249,367,555,555,290,539,540,166,0
2,1773244477488,8083,4785,22689,8696277,131946,-2030516,0,0,0,262,422,191,334,367,354,309,294,268,130,134,182,0
1,1773244477520,-1727,129,9830,98960,307876,-117286,0,0,0,293,404,298,354,263,377,582,580,312,580,579,228,0
2,1773244477520,7183,16515,9547,4699997,254119,-2698802,0,0,0,263,431,208,342,373,362,311,295,266,134,131,197,0
1,1773244477536,-1981,751,10500,-166155,366519,-13439,0,0,0,302,398,311,355,255,387,589,587,317,592,593,241,0
2,1773244477536,1899,21019,11806,-355523,-739146,-1401324,0,0,0,263,434,213,344,371,357,313,296,258,134,134,186,0
1,1773244477552,-2010,1244,10366,-188146,290771,-18325,0,0,0,295,407,333,350,265,406,590,590,331,600,600,258,0
2,1773244477552,2244,13969,11308,-4233296,-2322509,478918,0,0,0,265,433,215,343,372,361,319,300,264,141,149,190,0
1,1773244477568,-1914,1354,10136,-85521,164933,-15882,0,0,0,293,425,363,347,278,418,592,592,339,600,600,274,0
2,1773244477568,6580,5575,6245,-5017647,-2635272,1022588,0,0,0,259,432,211,341,376,359,318,303,261,137,141,190,0
1,1773244477584,-1866,1387,10145,19547,73303,10995,0,0,0,313,430,362,352,286,411,596,593,321,604,603,274,0
2,1773244477584,8035,3752,3306,-4471533,-1203404,324980,0,0,0,253,431,210,341,375,365,314,303,273,139,144,190,0
1,1773244477600,-1842,1416,10208,131946,-10995,40317,0,0,0,326,430,359,349,288,414,588,574,318,600,601,277,0
2,1773244477600,5905,5077,4216,-4541172,109955,-233350,0,0,0,258,445,225,341,371,349,312,299,256,155,147,174,0
1,1773244477616,-1861,1373,10045,246789,-119729,53756,0,0,0,331,434,341,355,297,414,576,559,321,589,589,285,0
2,1773244477616,3330,6144,6599,-5111720,423940,-243124,0,0,0,254,446,220,306,409,331,312,302,252,136,140,174,0
1,1773244477632,-1957,1268,9763,310319,-178372,57421,0,0,0,339,426,355,365,299,413,574,535,321,585,585,292,0
2,1773244477632,3469,5053,7609,-5530773,324980,89186,0,0,0,250,437,206,340,382,352,312,306,253,134,145,177,0
1,1773244477648,-2067,1153,9538,313984,-161268,57421,0,0,0,308,430,375,359,303,429,568,529,334,566,577,306,0
2,1773244477648,4201,3752,8054,-5626068,630412,340862,0,0,0,254,437,209,346,375,354,314,307,254,135,144,177,0
1,1773244477664,-2091,1095,9533,271224,-91629,58643,0,0,0,307,433,353,355,313,420,563,524,317,542,572,299,0
2,1773244477664,3685,3034,9361,-5557651,1222952,547335,0,0,0,252,435,206,349,377,358,318,309,257,147,149,178,0
1,1773244477680,-2057,1091,9595,233350,-34208,63529,0,0,0,310,441,349,357,316,400,564,509,309,532,566,299,0
2,1773244477680,2589,2971,11160,-5522221,1596801,791681,0,0,0,253,435,206,350,379,360,320,312,259,145,148,181,0
1,1773244477696,-1990,1100,9643,215024,-7330,67195,0,0,0,314,444,348,372,318,392,555,498,303,519,567,292,0
2,1773244477696,1866,3335,12969,-5639507,1712866,1045801,0,0,0,255,437,206,350,379,358,321,312,259,141,145,182,0
1,1773244477712,-1909,1105,9691,210137,-3665,68416,0,0,0,321,448,324,387,315,388,548,488,304,515,565,285,0
2,1773244477712,1641,3570,15075,-5969375,1782504,1243721,0,0,0,255,437,201,351,378,358,325,313,262,150,147,182,0
2,1773244477728,1574,3369,17147,-6282138,1844813,1329242,0,0,0,256,437,199,351,378,358,326,315,264,152,148,181,0
1,1773244477744,-1899,1033,9676,210137,-48869,50090,0,0,0,327,458,343,369,311,406,548,484,307,502,548,306,0
2,1773244477744,1660,2900,19535,-6454402,1848478,1353677,0,0,0,255,439,201,352,379,360,325,315,265,136,141,182,0
1,1773244477760,-1962,1000,9643,216246,-45204,45204,0,0,0,333,456,350,372,328,423,543,480,308,475,539,320,0
2,1773244477760,2091,2574,22440,-6533814,1839926,1403768,0,0,0,253,436,201,350,379,362,324,315,273,136,140,185,0
1,1773244477776,-1986,981,9667,227241,-24434,47647,0,0,0,323,465,331,395,353,444,551,467,316,449,528,345,0
2,1773244477776,2517,2211,26321,-6636439,1879021,1591914,0,0,0,256,438,203,350,378,362,326,315,276,143,141,183,0
1,1773244477792,-1957,971,9892,238237,0,62308,0,0,0,331,481,329,403,350,437,545,438,318,449,501,355,0
2,1773244477792,2718,-703,30164,-6812369,1820378,2108706,0,0,0,256,439,195,353,377,358,325,307,262,185,161,173,0
1,1773244477808,-1947,966,10002,312763,-19547,79412,0,0,0,361,467,346,421,342,451,538,383,358,447,460,388,0
2,1773244477808,3632,-7245,32222,-6828251,1705535,2563190,0,0,0,259,438,197,357,381,356,329,307,258,140,137,176,0
1,1773244477824,-1952,923,9940,401949,-50090,97738,0,0,0,347,471,380,423,359,479,547,358,363,428,416,429,0
2,1773244477824,5388,-18334,31380,-6437297,1409876,2481334,0,0,0,263,436,190,371,385,356,337,308,258,148,138,176,0
1,1773244477840,-2010,856,9901,477696,-62308,118507,0,0,0,389,507,353,487,393,495,565,342,362,425,357,448,0
2,1773244477840,6882,-30547,24833,-5210680,1020144,1259604,0,0,0,269,439,196,376,386,357,337,309,261,152,140,179,0
1,1773244477856,-2129,794,10026,561996,-50090,145385,0,0,0,376,549,391,477,441,515,544,326,394,379,338,498,0
2,1773244477856,3316,-37171,18114,-3508809,1419650,-404392,0,0,0,267,439,192,381,381,354,339,311,264,156,138,183,0
1,1773244477872,-2268,708,10232,685390,-45204,193033,0,0,0,393,568,387,491,439,536,536,285,427,352,303,520,0
2,1773244477872,-6307,-39033,15855,-1783726,1836260,-1786169,0,0,0,267,437,193,378,382,357,339,312,263,155,139,181,0
1,1773244477888,-2455,574,10461,825889,-56199,262672,0,0,0,411,577,402,513,468,583,520,240,432,347,260,551,0
1,1773244477904,-2608,497,10811,978606,-58643,349414,0,0,0,424,582,360,524,489,589,530,232,432,337,244,562,0
2,1773244477904,-9145,-33524,18645,1089783,-1270599,-1527163,0,0,0,249,432,163,357,378,336,387,430,245,189,254,156,0
1,1773244477920,-2455,478,11414,1172861,-32986,434936,0,0,0,441,588,337,531,509,588,491,219,447,313,223,568,0
2,1773244477920,1703,-4623,18463,2995683,-3057991,-659734,0,0,0,246,421,152,350,371,333,420,462,243,201,287,157,0
1,1773244477936,-1952,363,12328,1483180,-40317,460592,0,0,0,457,596,313,538,535,587,431,208,455,290,214,577,0
2,1773244477936,7681,13673,12739,4008497,-3673743,270002,0,0,0,248,417,156,344,366,337,441,472,245,218,330,151,0
2,1773244477952,4465,8423,10054,4736649,-2844188,1134987,0,0,0,258,419,166,347,357,345,442,497,250,252,380,143,0
1,1773244477968,-2206,186,13591,2368935,-87964,449596,0,0,0,491,595,256,571,586,595,371,221,454,296,218,584,0
2,1773244477968,-4111,-1603,16305,4911356,-1126435,1238834,0,0,0,265,423,174,354,353,354,450,521,257,302,431,142,0
1,1773244477984,-2766,196,14094,2944370,-6108,509461,0,0,0,513,589,225,552,605,596,304,220,465,282,210,583,0
2,1773244477984,-6503,-1780,20397,4199087,-293215,289550,0,0,0,261,432,191,365,364,372,508,527,261,325,421,158,0
1,1773244478000,-3651,143,14764,3479488,117286,646295,0,0,0,513,587,234,547,587,573,271,204,486,245,188,584,0
2,1773244478000,-454,1287,18281,3110525,-194255,-524122,0,0,0,275,449,249,371,365,389,533,534,283,310,404,189,0
1,1773244478016,-4417,76,15807,4076914,265115,899193,0,0,0,520,576,225,500,520,580,288,213,503,231,159,562,0
2,1773244478016,3536,1292,14419,1971872,-52534,-381179,0,0,0,304,461,273,384,366,392,548,549,290,313,398,211,0
1,1773244478032,-5010,-57,17573,4710992,399505,1188743,0,0,0,494,562,278,482,496,586,257,176,494,203,148,516,0
2,1773244478032,2785,157,11304,1027475,2443,127059,0,0,0,336,473,310,390,370,412,559,559,306,328,396,240,0
1,1773244478048,-6384,-569,20684,5435478,548556,1511280,0,0,0,473,536,251,465,506,545,246,164,466,168,125,419,0
2,1773244478048,1225,129,10394,422718,-146607,206472,0,0,0,345,482,309,399,384,411,581,582,330,334,404,256,0
1,1773244478064,-8150,-425,23043,6101322,720820,1850921,0,0,0,399,511,245,413,449,499,263,155,389,172,121,392,0
2,1773244478064,789,670,10342,97738,-273667,81855,0,0,0,368,483,311,415,388,415,583,583,321,333,398,264,0
1,1773244478080,-8724,110,24527,6746395,937067,2252871,0,0,0,324,447,215,364,324,432,238,164,317,154,140,314,0
2,1773244478080,1081,1129,10337,8552,-243124,6108,0,0,0,378,487,332,406,379,413,586,597,326,394,483,251,0
1,1773244478096,-7370,1550,26049,7189883,1282817,2526538,0,0,0,262,422,237,313,274,384,269,207,298,167,192,236,0
2,1773244478096,1201,1378,10236,-19547,-160046,1221,0,0,0,375,491,326,398,377,410,592,605,336,400,475,267,0
1,1773244478112,-7824,3254,26259,7588167,1716531,2654820,0,0,0,238,338,237,281,208,321,296,237,279,190,227,198,0
2,1773244478112,1182,1483,10165,-4886,-114842,9773,0,0,0,376,493,321,400,380,414,595,604,336,365,430,268,0
1,1773244478128,-10547,5647,20421,7836179,1924225,2789210,0,0,0,237,302,237,278,185,306,314,251,267,200,241,185,0
2,1773244478128,1134,1584,10160,51312,-125838,-6108,0,0,0,379,497,322,400,391,421,598,603,343,367,431,269,0
1,1773244478160,-9600,16080,11634,4250400,830776,1837482,0,0,0,238,319,204,286,202,303,323,256,251,199,245,177,0
2,1773244478160,1000,1612,10117,212581,-76969,-32986,0,0,0,389,513,324,402,416,428,591,593,350,305,371,288,0
1,1773244478176,-5278,19138,11505,-167377,514348,-408057,0,0,0,241,326,210,287,197,312,326,255,257,202,247,174,0
2,1773244478176,1038,1531,10002,277332,-30543,-29321,0,0,0,399,518,329,404,420,425,587,588,347,289,353,294,0
1,1773244478192,-5455,13730,9590,-3612657,1152091,-2664594,0,0,0,245,329,222,288,194,310,329,253,259,201,240,167,0
2,1773244478192,1091,1445,9897,309097,-17104,-23212,0,0,0,401,523,335,408,420,427,583,580,338,281,339,300,0
1,1773244478208,-8829,7374,5704,-3787364,702495,-2483778,0,0,0,249,330,225,302,198,315,332,257,263,206,241,167,0
2,1773244478208,1115,1378,9830,307876,-35430,-21991,0,0,0,401,529,333,420,424,441,579,569,338,279,327,306,0
1,1773244478224,-8121,5072,4206,-3483153,-301767,-1518610,0,0,0,241,335,232,307,199,319,340,257,264,207,241,171,0
2,1773244478224,1124,1349,9825,301767,-52534,-30543,0,0,0,401,537,332,428,431,445,569,553,332,282,320,312,0
1,1773244478240,-4431,5824,5498,-3610213,-786794,-681725,0,0,0,218,332,231,274,206,317,325,258,257,185,238,169,0
2,1773244478240,1129,1320,9858,299323,-68416,-42760,0,0,0,408,539,333,420,438,445,568,547,339,276,303,321,0
1,1773244478256,-3082,6647,7485,-4411668,-434936,-581543,0,0,0,223,335,234,276,199,317,331,261,266,187,243,173,0
2,1773244478256,1129,1277,9887,306654,-83077,-51312,0,0,0,407,542,332,430,425,450,553,523,337,275,285,335,0
1,1773244478272,-3551,6432,8738,-5159367,-409279,-638965,0,0,0,235,334,246,285,199,318,344,262,265,198,247,176,0
2,1773244478272,1119,1229,9892,320093,-101403,-58643,0,0,0,415,546,332,435,420,461,554,515,346,271,267,348,0
1,1773244478288,-3326,5455,10007,-5759237,-824668,-642630,0,0,0,219,334,247,278,199,312,341,261,257,194,243,175,0
2,1773244478288,1076,1196,9877,339641,-116064,-64751,0,0,0,420,556,347,435,426,477,554,490,367,271,261,375,0
1,1773244478304,-2526,4364,11347,-6167295,-1134987,-587652,0,0,0,218,336,242,275,204,306,329,258,250,193,247,175,0
2,1773244478304,1014,1162,9887,362853,-117286,-64751,0,0,0,440,563,336,435,424,470,547,461,365,271,238,381,0
1,1773244478320,-1895,3220,12921,-6415306,-1318247,-442266,0,0,0,216,338,244,273,203,305,325,256,254,193,250,177,0
2,1773244478320,1005,1105,9959,386066,-109955,-62308,0,0,0,447,568,335,441,429,469,551,442,362,259,216,393,0
1,1773244478336,-1416,2593,14926,-6475171,-1502728,-218689,0,0,0,220,346,244,285,218,309,326,257,263,198,257,176,0
2,1773244478336,1062,1024,10040,419053,-103847,-62308,0,0,0,455,582,340,448,438,483,542,417,375,265,213,421,0
1,1773244478352,-957,2292,17267,-6500827,-1659109,-41538,0,0,0,227,349,247,296,221,314,328,258,268,202,259,173,0
2,1773244478352,1139,947,10088,461814,-100181,-74525,0,0,0,467,595,348,453,447,497,533,389,381,266,205,455,0
1,1773244478368,-593,1713,19463,-6525262,-1742187,-29321,0,0,0,232,345,251,297,209,316,331,256,268,207,256,173,0
2,1773244478368,1210,914,10179,521678,-89186,-102625,0,0,0,480,605,364,463,465,511,527,362,379,264,194,488,0
1,1773244478400,-2196,86,23929,-6387206,-1892460,-922406,0,0,0,217,340,265,276,219,321,323,260,272,204,257,182,0
2,1773244478400,1488,751,10576,722042,-37873,-216246,0,0,0,509,620,359,480,492,528,504,302,415,338,210,513,0
1,1773244478416,-3445,-1617,27389,-6343224,-2157576,-2128254,0,0,0,213,368,259,271,254,319,322,270,269,200,271,181,0
2,1773244478416,1588,713,10949,885754,-67195,-295658,0,0,0,513,622,355,508,496,534,475,268,410,400,211,528,0
1,1773244478432,-3756,-5900,30504,-6345668,-2202780,-3362202,0,0,0,214,348,228,277,215,310,324,265,255,198,256,171,0
2,1773244478432,1555,674,11342,1092227,-113620,-359188,0,0,0,539,623,362,517,505,526,432,239,393,274,170,587,0
1,1773244478448,-5149,-15300,30567,-6170960,-1771509,-3692069,0,0,0,222,364,227,281,221,310,318,269,255,198,263,163,0
2,1773244478448,1335,569,11921,1369559,-149051,-395840,0,0,0,558,634,343,510,529,541,407,234,397,276,181,614,0
1,1773244478464,-6494,-26805,27322,-5623625,-1475850,-2874731,0,0,0,221,372,237,276,215,318,313,256,270,204,260,156,0
2,1773244478464,1014,492,12672,1743409,-182037,-379958,0,0,0,556,641,330,517,529,552,368,236,398,275,182,613,0
1,1773244478480,-76,-35008,21507,-4240626,-1723861,-1141096,0,0,0,216,395,242,242,305,312,313,273,274,198,280,169,0
2,1773244478480,1057,449,13309,2144136,-239459,-346971,0,0,0,577,638,279,509,521,539,326,238,393,267,182,609,0
1,1773244478496,10026,-38702,16668,-2463008,-1425759,111177,0,0,0,208,367,258,277,233,333,316,257,278,208,282,185,0
2,1773244478496,1517,330,14027,2607172,-329867,-342084,0,0,0,569,633,251,514,553,550,289,235,384,269,182,612,0
1,1773244478512,14572,-40775,14008,-938289,-215024,623082,0,0,0,205,367,231,285,212,311,331,280,257,232,305,182,0
2,1773244478512,1995,354,15084,3203377,-454483,-410501,0,0,0,577,634,239,492,548,541,269,228,382,267,184,615,0
1,1773244478528,11002,-38410,14453,498466,1199739,894306,0,0,0,209,354,220,278,219,289,364,362,239,278,390,170,0
2,1773244478528,2565,382,16176,3808133,-598647,-516791,0,0,0,581,632,245,489,541,533,265,216,376,267,189,595,0
1,1773244478544,2656,-23551,17185,2216219,2073276,1016479,0,0,0,212,333,213,261,216,300,399,442,244,330,439,144,0
2,1773244478544,3603,339,17506,4566828,-758694,-736703,0,0,0,567,621,274,492,544,526,255,188,368,250,178,554,0
1,1773244478560,-5647,1789,17037,3795916,2368935,1036027,0,0,0,217,320,188,272,202,296,452,479,248,399,454,122,0
2,1773244478560,4355,287,19660,5400048,-893084,-1038470,0,0,0,534,587,265,480,539,511,241,176,358,229,156,489,0
1,1773244478576,-5762,8394,15070,4626693,2108706,792903,0,0,0,213,311,187,289,194,305,487,493,249,456,483,129,0
2,1773244478576,4886,-14,23110,6219829,-1026253,-1304808,0,0,0,477,552,231,467,522,489,243,167,337,217,140,434,0
1,1773244478592,-1263,784,17764,5055520,1138652,382401,0,0,0,220,309,211,294,202,318,507,517,246,486,519,130,0
2,1773244478592,6034,421,26053,7034724,-1034805,-1554041,0,0,0,404,523,201,441,486,454,252,167,310,208,141,395,0
2,1773244478608,6116,1837,26968,7689571,-700051,-1822821,0,0,0,334,486,173,387,439,402,264,210,283,193,153,339,0
1,1773244478624,-1574,-607,18047,3026226,160046,489913,0,0,0,243,319,267,336,211,326,559,559,266,550,554,138,0
2,1773244478624,5226,3302,27992,8267450,-173485,-2144136,0,0,0,276,457,171,341,409,354,305,268,261,160,160,256,0
1,1773244478640,-3149,689,12605,1744631,149051,246789,0,0,0,259,331,247,337,222,348,589,587,265,566,582,165,0
2,1773244478640,6647,4455,24895,8492248,-57421,-2465452,0,0,0,245,431,184,338,373,341,326,291,254,136,146,177,0
1,1773244478656,-2297,-277,10289,825889,51312,-74525,0,0,0,292,346,308,352,254,360,607,599,273,570,597,209,0
1,1773244478672,-1655,-435,10452,208915,2443,-128281,0,0,0,300,393,288,359,255,362,607,599,281,580,608,232,0
2,1773244478672,6958,14903,11442,5204571,-1061683,-2708576,0,0,0,244,439,181,354,385,343,323,296,255,144,150,180,0
1,1773244478688,-1789,646,10605,35430,0,-56199,0,0,0,310,405,331,366,256,383,598,582,301,620,624,294,0
2,1773244478688,4221,21043,10806,217468,-1277930,-1174082,0,0,0,249,440,176,350,381,335,324,296,249,140,147,170,0
1,1773244478704,-2024,1220,10308,63529,-13439,-25656,0,0,0,320,376,332,381,238,383,606,585,289,626,626,287,0
2,1773244478704,4513,15998,10160,-3501479,-1354899,742812,0,0,0,251,441,179,350,387,338,319,301,247,138,150,171,0
1,1773244478720,-2086,1196,10045,150272,-20769,-15882,0,0,0,316,368,355,374,257,402,608,582,306,627,627,297,0
2,1773244478720,6867,7556,6748,-4836830,-1224173,1802052,0,0,0,252,444,182,350,382,339,319,302,247,142,153,171,0
1,1773244478736,-1938,1052,10045,217468,-28099,9773,0,0,0,311,381,355,369,270,423,606,581,326,614,615,308,0
2,1773244478736,8116,3541,3709,-4130670,-599869,1468520,0,0,0,251,443,184,350,385,341,319,305,249,143,154,169,0
1,1773244478752,-1847,1076,10126,268780,-65973,36651,0,0,0,309,378,352,372,267,431,603,569,332,569,597,311,0
2,1773244478752,6647,4651,4053,-3938859,83077,783129,0,0,0,249,445,182,352,388,343,321,306,250,140,154,168,0
1,1773244478768,-1876,1119,10112,331088,-130725,53756,0,0,0,306,389,351,381,271,434,597,539,328,532,592,341,0
2,1773244478768,5326,5929,5527,-4428772,378736,364075,0,0,0,250,444,183,351,387,344,317,306,251,140,156,170,0
1,1773244478784,-1928,1067,9964,387288,-185703,64751,0,0,0,302,409,354,393,281,442,580,512,334,502,576,354,0
2,1773244478784,5039,5853,6819,-5114163,502131,164933,0,0,0,249,445,182,351,392,346,315,308,249,137,155,167,0
1,1773244478800,-1962,928,9782,395840,-205250,70860,0,0,0,302,420,342,399,291,445,564,493,346,469,553,337,0
2,1773244478800,4881,4685,7872,-5496565,904080,52534,0,0,0,251,447,183,351,392,346,316,310,245,135,153,164,0
2,1773244478816,4053,4010,9116,-5593082,1386664,86742,0,0,0,252,448,185,351,388,343,317,309,244,137,153,165,0
1,1773244478832,-1952,842,9069,260228,-136833,87964,0,0,0,309,416,301,394,294,442,560,432,343,458,524,357,0
2,1773244478832,3249,3981,10667,-5707924,1706757,344527,0,0,0,249,446,182,350,386,341,319,309,246,136,153,164,0
1,1773244478848,-2010,780,9394,291993,-149051,87964,0,0,0,318,411,304,392,277,440,561,420,350,449,521,356,0
2,1773244478848,2938,3977,12414,-5926614,1921782,703716,0,0,0,249,449,183,347,389,343,320,309,247,136,151,165,0
1,1773244478864,-2077,703,9609,310319,-140499,87964,0,0,0,319,414,305,385,276,431,561,386,347,464,481,364,0
2,1773244478864,3034,3847,14276,-6156299,2073276,1051909,0,0,0,251,451,187,346,399,346,322,310,249,137,152,168,0
1,1773244478880,-2081,655,9542,266337,-87964,85521,0,0,0,323,409,310,399,268,438,560,403,347,448,485,378,0
2,1773244478880,3283,3488,16740,-6318790,2239431,1306029,0,0,0,252,447,187,352,385,347,321,311,249,138,152,169,0
1,1773244478896,-2000,636,9466,189368,-19547,78190,0,0,0,328,416,295,414,267,442,560,403,352,438,469,382,0
2,1773244478896,3498,3096,19679,-6416528,2364048,1433089,0,0,0,255,448,187,355,385,348,324,311,249,138,151,167,0
1,1773244478912,-1933,641,9585,151494,4886,69638,0,0,0,340,399,321,423,266,457,563,388,359,459,468,411,0
2,1773244478912,3981,2780,23311,-6515488,2400700,1497841,0,0,0,251,444,187,350,383,343,324,311,249,139,151,167,0
1,1773244478928,-1914,636,9734,157603,-3665,68416,0,0,0,327,409,318,418,294,475,562,379,359,442,430,433,0
2,1773244478928,4594,2263,27355,-6647435,2460565,1624901,0,0,0,254,446,187,351,384,343,330,314,257,135,146,166,0
1,1773244478944,-1904,607,9825,194255,-40317,79412,0,0,0,326,418,326,422,314,481,558,365,363,428,406,443,0
2,1773244478944,4388,-282,31366,-6786712,2681698,1966986,0,0,0,253,448,181,355,388,347,332,310,255,138,149,166,0
1,1773244478960,-1976,612,9853,244346,-76969,95294,0,0,0,327,418,329,433,313,494,559,342,367,418,390,454,0
2,1773244478960,2603,-6532,34773,-6763499,3010343,2398256,0,0,0,256,446,184,359,390,348,333,307,257,142,149,167,0
1,1773244478976,-2110,626,9887,321315,-94073,122173,0,0,0,328,429,331,442,327,514,560,328,387,397,360,484,0
2,1773244478976,138,-16822,35123,-6345668,2746450,2565634,0,0,0,258,441,183,367,389,352,347,308,260,146,149,168,0
1,1773244478992,-2163,612,9964,420275,-86742,160046,0,0,0,341,462,340,449,359,535,561,309,417,370,325,512,0
2,1773244478992,1751,-31859,27695,-5181358,1434311,1780061,0,0,0,258,438,181,369,389,356,350,309,260,149,150,173,0
1,1773244479008,-2153,545,10117,515570,-83077,189368,0,0,0,356,490,336,468,374,548,565,279,427,349,296,521,0
2,1773244479008,2407,-42732,18018,-3503923,1004262,-65973,0,0,0,258,439,181,368,389,357,350,313,260,149,156,175,0
1,1773244479024,-2311,502,10299,620639,-86742,221133,0,0,0,369,490,316,498,370,547,565,265,422,333,263,533,0
2,1773244479024,-5656,-45580,14122,-1622458,1538158,-2217440,0,0,0,256,438,176,364,388,351,358,348,258,154,177,169,0
1,1773244479040,-2675,449,10643,775798,-106290,290771,0,0,0,398,517,321,505,381,557,544,232,447,338,238,552,0
2,1773244479040,-16348,-41641,19875,122173,395840,-2709798,0,0,0,247,430,166,355,382,338,379,418,247,171,227,159,0
1,1773244479056,-2790,358,11280,1006705,-120951,401949,0,0,0,386,517,284,503,426,573,533,218,459,364,220,563,0
2,1773244479056,-14065,-25288,23924,2437352,-3148399,-1662775,0,0,0,242,415,155,346,367,332,414,469,241,198,294,154,0
1,1773244479072,-2335,253,12036,1319468,-117286,488692,0,0,0,415,523,255,526,455,588,517,202,475,298,213,584,0
2,1773244479072,1727,2531,17525,4287052,-5644394,-293215,0,0,0,245,403,151,344,356,342,443,488,248,222,332,155,0
1,1773244479088,-1670,105,12720,1701870,-175929,469144,0,0,0,401,541,245,532,439,595,453,195,485,283,200,592,0
2,1773244479088,5288,8925,13046,4811174,-4210083,596204,0,0,0,252,402,161,353,353,359,474,508,254,234,374,153,0
1,1773244479104,-1794,-43,13347,2144136,-283441,416610,0,0,0,401,533,223,564,491,598,412,195,477,281,180,602,0
2,1773244479104,-2158,1574,17286,4775744,-1929112,740368,0,0,0,247,410,168,357,360,363,504,526,261,275,427,150,0
1,1773244479120,-2904,-62,14051,2671924,-315206,464257,0,0,0,420,556,214,558,534,605,357,190,494,260,194,610,0
2,1773244479120,-4364,-1201,21933,3986506,-769690,6108,0,0,0,255,424,188,368,371,374,520,535,265,327,450,163,0
1,1773244479136,-4058,14,14907,3246137,-207694,632856,0,0,0,432,561,224,562,517,595,317,186,485,246,180,604,0
2,1773244479136,655,416,19238,2753780,-405614,-340862,0,0,0,275,436,232,386,365,384,543,545,278,323,441,186,0
1,1773244479152,-5120,162,16276,3985284,48869,951728,0,0,0,446,528,242,524,493,588,295,176,482,231,174,583,0
2,1773244479152,3407,1636,12983,1667662,-195476,-6108,0,0,0,302,459,267,395,387,392,563,566,279,323,431,199,0
1,1773244479168,-5790,339,18535,4762305,222354,1297477,0,0,0,447,516,253,501,484,586,317,178,468,205,156,529,0
2,1773244479168,2134,1005,9466,860098,-122173,268780,0,0,0,319,471,301,397,381,411,573,574,301,309,413,226,0
1,1773244479184,-6977,201,21823,5646838,337197,1661553,0,0,0,420,507,253,481,460,554,335,173,428,184,131,455,0
2,1773244479184,1038,157,9944,305432,-279776,227241,0,0,0,342,483,315,402,375,412,584,587,302,330,435,234,0
1,1773244479200,-8461,306,24910,6528927,383623,2070833,0,0,0,357,476,234,426,412,492,316,170,375,186,132,375,0
2,1773244479200,990,713,10758,23212,-404392,78190,0,0,0,356,486,319,425,381,415,583,584,300,350,456,238,0
1,1773244479216,-8614,856,26465,7258300,459370,2472782,0,0,0,306,428,205,369,347,428,293,190,326,193,160,291,0
2,1773244479216,1043,1536,10514,-80634,-339641,7330,0,0,0,367,489,332,437,383,420,587,587,309,359,461,246,0
1,1773244479232,-7733,2072,27595,7728667,665843,2768441,0,0,0,304,358,195,338,257,356,290,208,281,174,187,206,0
2,1773244479232,1105,1852,10112,-48869,-158824,4886,0,0,0,372,491,339,436,383,419,594,594,308,363,462,258,0
1,1773244479248,-9667,3914,26044,8026769,1015258,2921157,0,0,0,219,323,196,270,191,286,312,245,247,165,219,125,0
2,1773244479248,1143,1765,10160,20769,-68416,-7330,0,0,0,370,493,335,429,384,418,597,598,305,366,463,265,0
2,1773244479264,1143,1732,10174,81855,-28099,-29321,0,0,0,370,495,333,424,386,422,596,598,307,358,457,264,0
1,1773244479280,-11529,13677,12270,6429967,483805,3088534,0,0,0,240,320,223,281,191,308,322,250,266,183,234,144,0
2,1773244479280,1148,1780,10069,147829,4886,-42760,0,0,0,370,496,333,424,387,428,595,597,304,343,440,266,0
1,1773244479296,-7212,20267,11069,2647489,334754,1634675,0,0,0,249,324,237,297,191,306,348,250,263,187,235,147,0
1,1773244479312,-4316,19669,11629,-1870469,1115439,-1125213,0,0,0,251,329,226,302,194,299,375,254,263,198,241,148,0
2,1773244479312,1287,1698,9858,296880,24434,-37873,0,0,0,370,500,330,422,397,432,592,602,307,319,406,277,0
1,1773244479328,-7796,11753,7609,-3249803,1499063,-2409252,0,0,0,247,328,225,302,195,302,382,255,264,203,241,142,0
2,1773244479328,1330,1593,9849,324980,-15882,-34208,0,0,0,382,507,346,422,389,425,577,584,305,315,390,284,0
1,1773244479344,-9834,7039,4125,-3202155,718377,-2083050,0,0,0,240,332,216,294,203,304,359,261,264,196,248,140,0
2,1773244479344,1340,1536,9834,321315,-57421,-36651,0,0,0,381,509,333,413,388,425,569,577,301,273,333,289,0
1,1773244479360,-6661,7006,4618,-3519805,-237015,-1192408,0,0,0,240,334,218,294,202,301,359,262,262,196,250,138,0
2,1773244479360,1316,1512,9806,309097,-90408,-45204,0,0,0,396,511,337,440,393,429,565,568,302,279,323,294,0
1,1773244479376,-3445,7327,6704,-4448320,-190589,-885754,0,0,0,232,333,227,289,201,303,354,263,264,193,249,142,0
2,1773244479376,1268,1488,9806,310319,-107512,-53756,0,0,0,396,512,339,426,392,431,560,544,301,275,310,307,0
1,1773244479392,-3531,6164,8025,-5297423,320093,-1007927,0,0,0,224,333,234,276,200,301,338,264,263,184,249,145,0
2,1773244479392,1220,1464,9820,326202,-114842,-62308,0,0,0,415,517,351,427,390,436,495,483,348,272,287,327,0
1,1773244479408,-4580,4603,8662,-5643173,86742,-978606,0,0,0,228,336,237,270,197,294,332,263,266,178,246,141,0
2,1773244479408,1182,1416,9825,343306,-105068,-59864,0,0,0,416,519,345,437,403,451,537,489,337,276,270,341,0
1,1773244479424,-4130,3905,9825,-5880188,-371406,-913854,0,0,0,226,338,238,267,197,297,324,261,273,175,240,139,0
2,1773244479424,1177,1363,9839,367740,-90408,-53756,0,0,0,428,534,359,446,409,461,553,472,328,275,256,362,0
1,1773244479440,-3613,3388,11730,-6224716,-660956,-950506,0,0,0,222,336,237,266,193,297,325,259,263,177,235,144,0
2,1773244479440,1225,1330,9911,411723,-83077,-52534,0,0,0,430,542,355,461,415,469,551,447,340,273,243,382,0
1,1773244479456,-3886,2507,13500,-6515488,-853989,-961501,0,0,0,226,337,238,273,199,305,329,258,266,179,239,148,0
2,1773244479456,1244,1253,10007,470366,-85521,-61086,0,0,0,442,548,368,462,419,475,546,421,343,267,221,399,0
2,1773244479472,1258,1162,10078,521678,-80634,-75747,0,0,0,457,554,389,461,427,487,541,396,351,258,199,424,0
1,1773244479488,-4551,435,17391,-6577796,-1420872,-693942,0,0,0,234,332,276,276,193,312,331,256,274,179,240,149,0
2,1773244479488,1282,1095,10122,559552,-61086,-96516,0,0,0,465,563,390,470,444,502,540,368,370,254,188,455,0
1,1773244479504,-4603,-411,19564,-6431189,-1621236,-636521,0,0,0,232,333,276,281,195,308,337,262,264,178,241,143,0
2,1773244479504,1387,1052,10198,612086,-26878,-125838,0,0,0,482,575,392,476,459,506,538,335,385,263,183,483,0
1,1773244479520,-5159,-1282,21785,-6211277,-1676214,-823446,0,0,0,249,335,269,294,193,299,352,257,251,184,239,133,0
2,1773244479520,1555,966,10327,687834,-4886,-168598,0,0,0,499,585,390,486,465,511,527,307,400,285,188,504,0
1,1773244479536,-6039,-2775,24670,-5849645,-1783726,-1361007,0,0,0,239,336,241,296,199,307,352,263,260,189,251,140,0
2,1773244479536,1708,794,10591,807563,-17104,-237015,0,0,0,511,598,367,496,477,527,504,276,411,304,194,521,0
1,1773244479552,-6379,-5637,27604,-5496565,-1996307,-2113593,0,0,0,228,339,232,293,203,317,343,271,268,193,261,150,0
1,1773244479568,-6527,-11787,29466,-5301088,-2230879,-2800206,0,0,0,225,342,233,289,202,320,342,270,269,194,255,152,0
2,1773244479568,1459,751,11462,1186300,-94073,-322536,0,0,0,538,608,357,508,499,559,452,234,400,278,183,586,0
1,1773244479584,-6987,-20301,28360,-5277875,-2311514,-2937040,0,0,0,225,344,235,288,204,320,337,263,274,193,246,151,0
2,1773244479584,1201,684,12222,1541823,-42760,-321315,0,0,0,538,611,329,515,516,542,431,220,417,281,192,616,0
1,1773244479600,-3991,-29480,22847,-5076290,-2502104,-2079385,0,0,0,225,347,238,289,211,322,325,259,282,190,245,151,0
2,1773244479600,1076,593,12926,1926668,4886,-298102,0,0,0,546,609,279,538,525,556,386,230,417,267,179,613,0
1,1773244479616,3608,-36008,17540,-4219857,-2629163,-1010371,0,0,0,228,346,239,297,211,326,327,259,285,189,249,151,0
2,1773244479616,1301,531,13682,2364048,-2443,-273667,0,0,0,552,610,259,527,535,558,334,227,409,272,179,613,0
1,1773244479632,11289,-40947,14008,-2658485,-1941329,-41538,0,0,0,234,346,244,306,210,324,339,262,285,195,257,153,0
2,1773244479632,2067,507,14462,2927266,-122173,-310319,0,0,0,561,606,242,525,539,561,294,225,406,266,176,619,0
1,1773244479648,14070,-43728,12845,-955393,-477696,785572,0,0,0,225,344,242,298,214,326,350,270,282,200,292,148,0
2,1773244479648,2569,435,15300,3490483,-259006,-422718,0,0,0,570,607,248,519,538,558,257,213,396,269,181,633,0
1,1773244479664,10413,-37276,14185,700051,1218065,1397659,0,0,0,225,309,230,302,206,318,399,341,254,263,387,123,0
2,1773244479664,2933,464,16420,4118453,-398284,-570548,0,0,0,571,608,267,509,535,553,240,190,402,265,181,606,0
1,1773244479680,1115,-12490,16774,2211332,2585181,1330464,0,0,0,218,296,148,284,181,238,438,430,221,320,418,83,0
2,1773244479680,4211,540,18257,4991990,-581543,-816115,0,0,0,561,591,274,500,539,549,228,160,396,252,167,551,0
2,1773244479696,5245,335,20890,5848423,-781907,-1123992,0,0,0,527,568,266,489,537,536,222,143,377,235,151,488,0
1,1773244479712,-5637,11265,11619,4657236,3327993,-68416,0,0,0,244,298,149,300,177,260,509,516,239,446,493,88,0
2,1773244479712,5685,301,24747,6684087,-948062,-1397659,0,0,0,460,541,236,468,513,509,231,147,360,219,146,418,0
1,1773244479728,2306,-2110,18856,5330410,1565036,-180816,0,0,0,243,300,155,327,170,271,536,537,246,480,516,83,0
2,1773244479728,5987,1229,28375,7568620,-900415,-1645670,0,0,0,382,508,187,434,467,462,245,167,330,211,150,359,0
1,1773244479744,2861,-3531,23464,4478863,502131,379958,0,0,0,244,313,183,322,174,288,552,553,257,520,534,99,0
2,1773244479744,5704,2957,29217,8263784,-564439,-1836260,0,0,0,314,469,161,388,413,394,266,220,273,196,151,306,0
1,1773244479760,-2459,-320,20205,2875953,279776,695164,0,0,0,267,322,247,315,190,309,579,570,256,530,552,119,0
2,1773244479760,6341,4570,28317,8803789,-35430,-2105041,0,0,0,258,425,172,349,372,356,306,285,257,141,137,212,0
1,1773244479776,-4067,335,12988,1514945,205250,107512,0,0,0,286,332,285,330,198,332,606,586,285,537,569,160,0
2,1773244479776,7619,6748,21239,8596095,186924,-2497217,0,0,0,253,434,179,343,373,361,318,305,265,129,143,179,0
1,1773244479792,-2359,-172,9365,722042,113620,-267558,0,0,0,299,340,295,350,212,355,616,602,303,560,578,203,0
2,1773244479792,8145,11744,12170,6950424,-134390,-2871066,0,0,0,259,437,186,342,379,349,312,302,257,130,133,177,0
1,1773244479808,-1651,-57,9724,272445,147829,-155159,0,0,0,310,355,317,359,232,369,615,613,289,584,585,225,0
1,1773244479824,-1928,516,10308,-14660,218689,-25656,0,0,0,313,389,345,360,238,375,615,614,290,599,598,239,0
2,1773244479824,2632,18789,11897,-1944994,-1439198,-1160643,0,0,0,259,438,198,340,375,355,319,302,278,125,133,178,0
1,1773244479840,-2048,875,10294,-86742,200363,-18325,0,0,0,326,392,357,362,237,381,622,622,285,606,607,244,0
2,1773244479840,3967,10734,8963,-4318817,-2320066,202807,0,0,0,253,436,188,341,376,346,318,306,256,130,136,173,0
1,1773244479856,-1943,1028,10160,-58643,105068,-30543,0,0,0,337,376,376,361,223,370,630,625,282,612,614,263,0
2,1773244479856,7805,5058,3704,-3858224,-1705535,339641,0,0,0,252,436,187,345,380,346,318,309,248,132,137,172,0
1,1773244479872,-1952,1182,10174,47647,29321,0,0,0,0,317,374,411,367,230,388,620,602,285,613,614,281,0
2,1773244479872,7930,4465,2608,-3604104,-447153,63529,0,0,0,251,439,183,349,383,348,318,307,245,132,138,170,0
1,1773244479888,-1928,1282,10256,190589,-20769,39095,0,0,0,312,379,383,374,257,406,605,570,304,598,598,289,0
2,1773244479888,5240,6092,4895,-4045149,318871,-68416,0,0,0,242,442,180,343,385,349,325,310,260,126,135,167,0
2,1773244479904,4278,6288,6599,-4704884,289550,105068,0,0,0,245,446,181,345,387,349,320,308,252,126,135,165,0
1,1773244479920,-1866,1052,9954,431270,-190589,69638,0,0,0,322,380,372,376,251,413,574,492,324,569,583,320,0
2,1773244479920,5532,4915,7020,-5141041,530231,277332,0,0,0,251,445,184,347,388,348,311,307,246,129,136,167,0
1,1773244479936,-2019,914,9930,382401,-186924,59864,0,0,0,342,382,337,411,243,421,573,484,329,533,563,317,0
2,1773244479936,5384,4000,8021,-5327966,1187522,337197,0,0,0,249,441,183,346,386,347,314,309,251,130,137,169,0
1,1773244479952,-2096,866,10069,283441,-118507,61086,0,0,0,334,387,348,402,255,417,571,472,329,525,554,325,0
2,1773244479952,4312,3847,9542,-5499008,1578475,464257,0,0,0,248,442,181,348,387,349,322,310,249,129,137,168,0
1,1773244479968,-2062,827,9763,282219,-108734,68416,0,0,0,316,392,359,386,260,419,569,452,332,507,527,324,0
2,1773244479968,3780,3694,11261,-5792224,1847256,692721,0,0,0,251,443,184,347,393,349,324,315,250,129,138,168,0
1,1773244479984,-2038,818,9514,327423,-122173,80634,0,0,0,305,395,358,382,261,431,562,425,336,493,508,327,0
2,1773244479984,3876,3498,12912,-6070778,2050063,907745,0,0,0,250,443,182,345,395,345,324,318,249,130,142,167,0
1,1773244480000,-2010,808,9619,353080,-114842,89186,0,0,0,306,396,359,386,269,446,557,405,342,483,491,341,0
2,1773244480000,3756,3297,15247,-6284581,2249205,1077566,0,0,0,246,444,185,347,397,354,321,318,251,127,140,167,0
1,1773244480016,-2000,770,9748,355523,-100181,91629,0,0,0,320,399,361,396,277,451,554,391,352,461,453,362,0
2,1773244480016,3651,3024,17894,-6465397,2364048,1199739,0,0,0,247,446,183,347,385,355,320,313,251,124,135,167,0
1,1773244480032,-2024,722,9739,345749,-79412,85521,0,0,0,329,401,352,415,286,448,547,382,357,449,424,394,0
2,1773244480032,3704,2660,20598,-6596122,2428800,1276708,0,0,0,247,447,192,344,382,351,320,313,252,123,131,161,0
1,1773244480048,-2038,655,9681,353080,-50090,79412,0,0,0,318,407,350,412,321,459,552,388,353,418,397,420,0
2,1773244480048,3608,2378,24618,-6675535,2531425,1452637,0,0,0,253,447,190,348,386,351,320,312,251,125,133,168,0
1,1773244480064,-2000,593,9791,394618,-46425,87964,0,0,0,329,435,368,409,336,499,548,351,374,393,379,462,0
2,1773244480064,3105,2010,28906,-6752504,2577851,1843591,0,0,0,250,444,185,348,392,353,323,315,252,126,136,169,0
1,1773244480080,-1981,512,9944,452040,-70860,105068,0,0,0,341,403,361,448,303,502,551,330,378,391,352,481,0
2,1773244480080,2703,-1770,33036,-6893003,2615724,2647489,0,0,0,253,449,191,348,383,355,323,306,267,127,128,163,0
1,1773244480096,-2062,435,9992,502131,-103847,125838,0,0,0,353,423,348,466,344,518,549,309,414,396,320,503,0
2,1773244480096,2096,-9509,35151,-6808703,2731789,3232698,0,0,0,252,447,183,355,383,356,331,305,264,129,127,163,0
1,1773244480112,-2244,368,9930,547335,-114842,166155,0,0,0,353,445,346,465,340,535,568,286,393,376,306,521,0
2,1773244480112,2895,-24000,32419,-6057339,1919338,2987131,0,0,0,255,446,181,362,391,361,338,308,264,132,130,166,0
2,1773244480128,6657,-39487,23096,-4629136,784350,1481959,0,0,0,256,447,182,361,392,362,341,311,267,132,130,168,0
1,1773244480144,-2617,220,10102,676838,-94073,300545,0,0,0,381,479,366,476,340,569,542,224,416,344,250,535,0
2,1773244480144,3680,-47250,14347,-2711019,1329242,-1056796,0,0,0,257,448,183,359,389,361,340,311,266,132,130,167,0
1,1773244480160,-2761,153,10524,802676,-45204,405614,0,0,0,387,506,331,501,366,576,530,217,427,318,216,561,0
2,1773244480160,-9451,-45642,15687,-1066570,1792278,-2506990,0,0,0,252,445,182,357,390,355,341,317,261,134,138,164,0
1,1773244480176,-2584,86,11127,970053,10995,486248,0,0,0,411,520,297,529,401,592,518,193,434,315,192,580,0
2,1773244480176,-16477,-40645,18961,675616,254119,-2456899,0,0,0,240,437,170,355,391,348,364,375,254,151,188,160,0
1,1773244480192,-2100,43,11902,1252273,0,516791,0,0,0,421,532,267,533,437,589,497,188,445,309,193,585,0
1,1773244480208,-1474,-38,12476,1618792,-95294,489913,0,0,0,421,541,252,532,472,584,458,194,453,297,197,587,0
2,1773244480208,7106,12222,16932,3643200,-3618765,818559,0,0,0,244,403,146,346,354,333,439,478,264,220,304,146,0
1,1773244480224,-1167,-201,12892,2012190,-251676,395840,0,0,0,432,547,242,549,507,591,401,198,470,291,192,601,0
2,1773244480224,6499,18353,9729,4348138,-3896098,2103819,0,0,0,250,405,149,359,354,344,473,491,285,217,354,140,0
1,1773244480240,-2077,-215,13649,2515543,-416610,342084,0,0,0,444,560,224,554,533,595,350,196,498,304,196,607,0
2,1773244480240,-4982,1809,12811,5046968,-2620611,1847256,0,0,0,257,410,150,357,358,352,512,516,297,233,406,140,0
1,1773244480256,-3393,-148,14611,3104417,-412944,438601,0,0,0,453,575,221,537,537,596,324,179,499,310,199,598,0
2,1773244480256,-10337,-4795,19712,5000542,-1187522,576656,0,0,0,266,420,182,357,349,356,523,561,297,319,459,146,0
1,1773244480272,-4704,-129,15855,3841120,-172263,703716,0,0,0,458,584,222,520,512,584,319,184,490,257,175,586,0
2,1773244480272,-3584,-430,22579,4164879,-430049,-731816,0,0,0,292,441,248,386,351,386,554,557,281,345,457,184,0
1,1773244480288,-6130,-38,17382,4590041,50090,1062905,0,0,0,454,562,259,533,487,594,329,214,496,216,149,557,0
2,1773244480288,3756,933,18387,2613281,-212581,-489913,0,0,0,300,457,271,392,375,412,568,568,303,372,466,216,0
1,1773244480304,-7504,-172,20157,5423261,239459,1544267,0,0,0,448,540,264,493,466,589,311,173,479,176,116,514,0
2,1773244480304,3503,-320,13400,1203404,-147829,163711,0,0,0,332,470,280,395,374,435,581,582,316,376,469,252,0
1,1773244480320,-9045,-339,23732,6250373,401949,2024407,0,0,0,425,487,254,434,419,543,275,176,446,159,109,412,0
2,1773244480320,775,-344,10772,465479,-85521,271224,0,0,0,350,483,300,408,386,437,581,582,313,385,466,276,0
1,1773244480336,-9987,134,26475,7021285,631634,2495995,0,0,0,336,431,219,393,351,471,289,165,358,153,127,349,0
2,1773244480336,521,607,10117,260228,-35430,78190,0,0,0,363,489,314,422,392,435,584,593,308,402,459,281,0
2,1773244480352,1507,1148,10160,221133,-85521,-28099,0,0,0,371,495,314,425,389,438,580,602,317,413,453,289,0
1,1773244480368,-9260,3493,28987,8008443,1362229,3064100,0,0,0,236,330,241,276,221,320,281,234,276,164,218,176,0
2,1773244480368,1454,1119,10160,150272,-135612,4886,0,0,0,375,501,322,420,389,445,581,598,328,419,448,302,0
1,1773244480384,-11648,6494,24144,8396953,1606575,3230255,0,0,0,237,307,234,271,193,308,317,256,287,168,241,155,0
2,1773244480384,1258,1148,10141,144164,-162490,14660,0,0,0,378,504,338,418,392,449,594,595,324,422,442,311,0
1,1773244480400,-14850,11021,14960,8023104,1215621,3573561,0,0,0,242,309,255,272,181,325,319,260,311,167,243,167,0
2,1773244480400,1148,1277,10169,212581,-199142,-3665,0,0,0,384,509,338,419,399,444,588,592,314,402,418,328,0
1,1773244480416,-12620,17645,10241,5672494,105068,3271794,0,0,0,239,331,259,272,192,334,322,272,316,168,256,172,0
2,1773244480416,1038,1378,10232,299323,-191811,-15882,0,0,0,409,509,333,424,398,441,574,582,320,352,365,346,0
1,1773244480432,-4460,22727,10557,926071,-179594,1110553,0,0,0,234,348,251,271,209,334,325,280,313,171,266,170,0
2,1773244480432,957,1330,10236,404392,-107512,-17104,0,0,0,422,512,335,429,395,445,541,545,339,329,330,363,0
1,1773244480448,-2976,17674,9839,-3425732,1540602,-2026850,0,0,0,234,348,256,272,205,332,328,275,314,171,258,167,0
1,1773244480464,-8638,9739,6403,-4858822,2166128,-3086091,0,0,0,240,347,259,274,200,329,340,278,315,176,255,168,0
2,1773244480464,1100,914,9897,447153,15882,-15882,0,0,0,416,518,329,449,419,448,565,534,353,317,298,363,0
1,1773244480480,-9839,6211,4340,-4599815,452040,-1904677,0,0,0,243,341,258,275,200,329,340,280,312,187,255,172,0
2,1773244480480,1191,804,9786,399505,0,-23212,0,0,0,415,529,329,450,421,451,564,516,363,309,282,370,0
1,1773244480496,-5857,5963,5312,-4690223,-638965,-944397,0,0,0,241,341,248,283,202,326,349,277,309,176,266,160,0
2,1773244480496,1210,799,9810,357967,-37873,-34208,0,0,0,415,526,328,450,417,464,563,508,346,310,268,385,0
1,1773244480512,-3273,6116,7360,-5247332,-322536,-748920,0,0,0,235,345,248,280,206,328,348,283,318,173,271,159,0
2,1773244480512,1210,832,9897,342084,-72082,-47647,0,0,0,425,536,336,445,419,469,557,481,345,299,253,390,0
1,1773244480528,-3685,5556,8834,-5803219,-24434,-784350,0,0,0,232,348,255,275,208,331,330,285,312,166,279,163,0
2,1773244480528,1186,827,9983,357967,-91629,-62308,0,0,0,425,538,332,455,435,475,543,452,345,287,242,398,0
1,1773244480544,-4513,4661,9964,-6145304,-388510,-779464,0,0,0,227,350,251,275,213,342,322,300,323,161,296,163,0
2,1773244480544,1153,775,10016,378736,-102625,-72082,0,0,0,435,545,339,463,439,488,510,416,359,280,225,407,0
2,1773244480560,1139,708,10035,403171,-102625,-74525,0,0,0,450,557,341,468,439,498,516,390,363,283,217,424,0
1,1773244480576,-2971,3053,13749,-6654765,-1158200,-660956,0,0,0,222,351,264,273,211,339,317,283,317,168,289,162,0
2,1773244480576,1172,665,10088,437379,-86742,-84299,0,0,0,467,564,340,472,446,500,530,377,367,273,202,446,0
1,1773244480592,-2881,2239,15941,-6809925,-1347568,-491135,0,0,0,220,351,267,276,216,343,321,284,317,173,288,165,0
2,1773244480592,1258,617,10165,491135,-61086,-108734,0,0,0,477,568,345,475,454,502,520,355,373,265,187,471,0
1,1773244480608,-2392,1679,18358,-6803817,-1653001,-327423,0,0,0,229,358,257,287,229,341,334,283,315,187,291,166,0
2,1773244480608,1368,516,10212,554665,-51312,-144164,0,0,0,482,572,348,480,461,512,508,324,375,271,186,500,0
1,1773244480624,-1536,1239,21244,-6713408,-1844813,-344527,0,0,0,230,360,253,285,220,335,331,282,311,184,288,162,0
2,1773244480624,1416,406,10332,631634,-63529,-199142,0,0,0,493,575,339,486,473,525,498,299,381,270,183,525,0
1,1773244480640,-2402,827,24201,-6704856,-1715309,-755029,0,0,0,227,361,266,283,207,339,329,283,315,194,282,166,0
2,1773244480640,1354,354,10528,736703,-95294,-257785,0,0,0,500,592,333,494,483,530,488,272,379,281,185,537,0
1,1773244480656,-4871,-181,27422,-6790377,-1756848,-1372003,0,0,0,226,362,264,282,210,339,325,283,316,193,280,166,0
2,1773244480656,1373,291,10734,861319,-118507,-284663,0,0,0,516,602,364,493,487,535,460,249,398,270,177,547,0
1,1773244480672,-6532,-3766,30342,-6889338,-2174680,-2008524,0,0,0,224,366,255,278,217,337,312,282,314,175,282,161,0
2,1773244480672,1440,191,11112,1044579,-133168,-316428,0,0,0,539,614,357,503,485,524,432,226,413,281,171,577,0
1,1773244480688,-7068,-11596,32419,-6768386,-2525316,-2566855,0,0,0,219,372,265,275,219,347,316,284,319,181,284,163,0
2,1773244480688,1258,119,11777,1297477,-125838,-348193,0,0,0,541,620,326,516,508,529,430,232,424,282,183,609,0
1,1773244480704,-6934,-21861,31117,-6249151,-2382374,-2484999,0,0,0,210,367,270,271,217,350,317,289,323,175,283,161,0
1,1773244480720,-2656,-31887,25805,-5171585,-2210110,-1572367,0,0,0,210,373,273,269,214,347,324,292,335,172,279,165,0
2,1773244480720,823,14,12998,2019520,-119729,-290771,0,0,0,546,629,272,521,548,550,338,227,430,275,190,622,0
1,1773244480736,7049,-39080,19573,-3582113,-2021963,-577878,0,0,0,214,374,270,280,219,357,339,291,344,187,284,184,0
2,1773244480736,1287,0,13787,2453234,-157603,-256563,0,0,0,561,620,251,508,544,545,299,221,414,271,191,625,0
1,1773244480752,14496,-43675,15381,-1744631,-1133765,-36651,0,0,0,218,381,272,282,222,360,345,282,335,187,287,171,0
2,1773244480752,2297,0,15156,3042108,-238237,-335975,0,0,0,565,602,242,513,544,546,261,210,408,264,182,627,0
1,1773244480768,16099,-45063,14534,-45204,190589,370184,0,0,0,219,346,227,287,215,310,371,338,259,259,369,122,0
2,1773244480768,3105,81,16846,3781255,-384845,-511905,0,0,0,560,595,251,508,560,550,239,189,406,257,179,615,0
2,1773244480784,4010,282,18851,4640132,-572991,-757472,0,0,0,551,579,263,502,558,546,229,161,404,250,170,561,0
1,1773244480800,-1081,-4800,16850,4069584,3125186,529009,0,0,0,229,296,168,287,165,282,462,474,251,383,455,114,0
2,1773244480800,5317,473,22483,5825210,-786794,-1145983,0,0,0,525,561,256,488,536,531,229,146,388,239,160,482,0
1,1773244480816,-5987,10696,15453,5343849,2839301,103847,0,0,0,220,296,164,294,160,276,506,513,245,448,504,117,0
2,1773244480816,6034,454,26810,6882007,-940732,-1470963,0,0,0,456,535,224,469,503,502,239,152,354,229,155,419,0
1,1773244480832,100,2656,19760,5698150,1127657,-146607,0,0,0,222,297,185,296,160,276,536,546,238,491,541,108,0
2,1773244480832,6704,1636,29796,7781201,-780685,-1720196,0,0,0,373,499,188,434,457,450,255,179,307,215,150,368,0
1,1773244480848,2747,-2904,23814,5026199,67195,273667,0,0,0,236,289,266,302,168,299,560,572,247,515,566,128,0
2,1773244480848,6762,3665,31347,8703607,-219911,-2043955,0,0,0,310,460,175,378,410,385,277,229,263,177,139,291,0
1,1773244480864,-1526,-2517,21134,3368310,-9773,634078,0,0,0,251,293,333,325,177,333,579,588,267,546,581,163,0
2,1773244480864,7178,5144,30763,9178861,421497,-2406809,0,0,0,255,428,181,347,378,351,304,282,253,137,131,199,0
1,1773244480880,-4005,-526,13548,1615127,151494,131946,0,0,0,267,325,340,354,187,355,595,593,285,577,587,183,0
2,1773244480880,9217,7997,22823,9106778,529009,-2996904,0,0,0,273,433,189,352,376,359,311,307,260,135,137,187,0
1,1773244480896,-2775,105,9485,651182,158824,-223576,0,0,0,283,366,376,348,206,374,607,598,308,581,599,214,0
2,1773244480896,9940,12974,14108,7811744,105068,-3604104,0,0,0,271,433,184,357,378,350,315,326,258,138,143,188,0
1,1773244480912,-1493,95,9514,274889,144164,-179594,0,0,0,288,390,410,336,220,391,617,603,330,574,601,230,0
2,1773244480912,5575,20559,10916,3276681,-317649,-2972470,0,0,0,259,435,181,349,379,350,306,317,238,133,137,179,0
1,1773244480928,-1871,464,10433,200363,190589,-41538,0,0,0,301,380,409,358,233,398,622,613,331,590,610,252,0
2,1773244480928,1694,21607,11150,-2035402,-1000597,-1111774,0,0,0,273,436,182,381,380,339,320,315,239,150,137,177,0
1,1773244480944,-2196,813,10399,186924,228463,-6108,0,0,0,317,387,438,332,214,416,622,601,329,594,618,268,0
2,1773244480944,2718,13917,9964,-5191132,-1831373,823446,0,0,0,270,437,181,387,381,341,325,316,241,215,179,177,0
1,1773244480960,-2000,990,10069,243124,222354,-6108,0,0,0,334,398,485,356,219,396,625,576,323,597,618,277,0
1,1773244480976,-1718,1091,10160,360410,166155,20769,0,0,0,357,433,493,359,281,395,616,542,325,580,603,282,0
2,1773244480976,8456,3780,2354,-4174653,-36651,662177,0,0,0,251,441,181,364,378,342,333,324,255,140,139,177,0
1,1773244480992,-1684,1052,10394,470366,52534,48869,0,0,0,327,447,481,374,291,415,613,513,349,551,592,299,0
2,1773244480992,5623,5795,4125,-4268726,921184,228463,0,0,0,250,439,181,361,383,343,326,324,244,141,143,176,0
2,1773244481008,3752,6786,6858,-5122715,919963,280998,0,0,0,253,439,182,360,384,343,319,324,243,142,145,176,0
1,1773244481024,-1794,684,9619,502131,-91629,58643,0,0,0,323,458,477,386,296,414,593,446,366,505,554,322,0
2,1773244481024,4340,5652,8049,-5725029,877202,419053,0,0,0,255,440,183,360,384,340,318,326,243,140,144,174,0
1,1773244481040,-1799,550,9317,410501,-50090,58643,0,0,0,326,464,479,396,299,434,587,417,374,501,522,339,0
2,1773244481040,4532,4398,8758,-5780006,1374446,410501,0,0,0,257,439,183,364,384,343,321,328,245,141,146,174,0
1,1773244481056,-1871,502,9609,427605,-46425,69638,0,0,0,337,476,481,406,309,441,576,396,379,479,488,339,0
2,1773244481056,3340,4201,10409,-5759237,1910786,447153,0,0,0,257,441,185,366,384,347,323,328,248,145,146,175,0
1,1773244481072,-1933,430,9782,469144,-52534,89186,0,0,0,353,494,472,410,329,442,566,373,379,466,460,334,0
2,1773244481072,2407,4680,12342,-5929058,2086715,629191,0,0,0,258,440,185,366,382,345,323,328,248,149,148,172,0
1,1773244481088,-1904,354,9719,461814,-39095,106290,0,0,0,359,513,454,420,330,446,563,350,381,464,436,347,0
2,1773244481088,2254,4833,14826,-6346889,2218662,930958,0,0,0,261,444,189,362,382,342,323,329,248,143,147,175,0
1,1773244481104,-1828,330,9652,423940,-13439,118507,0,0,0,353,508,450,433,309,443,567,336,378,451,417,371,0
2,1773244481104,1923,4536,17200,-6604674,2406809,1138652,0,0,0,259,445,192,364,389,352,328,333,252,139,146,178,0
1,1773244481120,-1775,311,9715,397062,3665,120951,0,0,0,360,488,442,438,310,448,569,323,378,449,409,373,0
2,1773244481120,1287,4149,20172,-6688974,2519208,1285260,0,0,0,254,444,192,355,393,356,326,333,257,134,146,176,0
1,1773244481136,-1756,263,9763,379958,10995,120951,0,0,0,358,508,425,436,298,450,572,326,376,440,402,387,0
2,1773244481136,1124,3890,23881,-6813590,2487443,1433089,0,0,0,255,443,188,361,391,354,324,328,251,139,145,177,0
1,1773244481152,-1775,196,9758,370184,19547,122173,0,0,0,346,496,452,423,290,486,550,314,387,445,411,425,0
2,1773244481152,1100,3450,28485,-7084815,2373822,1733635,0,0,0,260,444,191,356,386,351,328,323,251,139,144,177,0
1,1773244481168,-1785,148,9786,368962,35430,131946,0,0,0,364,515,484,438,334,491,563,292,399,427,377,435,0
2,1773244481168,449,890,32548,-7325495,2315179,2251649,0,0,0,259,444,188,357,389,351,327,320,249,136,142,173,0
1,1773244481184,-1828,114,9877,384845,50090,151494,0,0,0,356,511,436,426,293,492,568,284,422,423,365,445,0
2,1773244481184,229,-6853,35611,-7297396,2156354,2867401,0,0,0,256,442,185,362,392,357,331,320,257,138,142,173,0
1,1773244481200,-1971,129,10007,436157,57421,196698,0,0,0,371,501,444,453,321,529,562,253,412,405,318,449,0
2,1773244481200,3096,-19530,35898,-6811147,1439198,2939483,0,0,0,259,441,187,364,391,358,335,319,259,139,144,172,0
1,1773244481216,-2177,157,10141,525344,78190,273667,0,0,0,389,518,474,480,368,568,531,239,423,406,290,489,0
2,1773244481216,9160,-36477,27886,-5425705,548556,1582140,0,0,0,268,446,192,364,390,359,335,316,259,140,144,173,0
1,1773244481232,-2292,57,10275,642630,109955,378736,0,0,0,397,552,458,505,432,582,553,239,433,388,260,503,0
2,1773244481232,1895,-43795,19224,-3353650,1611462,-331088,0,0,0,266,447,192,363,389,360,338,318,260,142,143,174,0
1,1773244481248,-2110,-119,10552,786794,151494,470366,0,0,0,399,578,474,512,483,585,538,242,440,356,248,528,0
2,1773244481248,-14113,-44474,17166,-1109331,2061059,-1315803,0,0,0,250,444,182,360,388,355,348,344,258,157,183,165,0
1,1773244481264,-2024,-186,11050,962723,191811,533896,0,0,0,431,593,451,532,491,585,507,222,441,344,223,568,0
2,1773244481264,-18190,-42603,19425,371406,125838,-667064,0,0,0,239,436,165,357,385,346,376,406,248,178,247,154,0
1,1773244481280,-1832,-220,11825,1218065,233350,559552,0,0,0,464,602,395,556,499,588,488,197,441,337,205,577,0
2,1773244481280,-5250,-27073,20655,2240653,-2230879,-133168,0,0,0,242,416,152,352,372,341,424,465,240,192,287,151,0
1,1773244481296,-1497,-268,12423,1514945,249233,549778,0,0,0,476,612,361,565,537,589,466,186,446,325,209,570,0
2,1773244481296,5838,2474,16520,4203974,-3706730,-179594,0,0,0,248,403,149,346,355,340,460,477,240,226,358,148,0
1,1773244481312,-1177,-358,12983,1937664,222354,497244,0,0,0,486,622,337,569,572,589,429,176,450,323,212,582,0
2,1773244481312,5709,12830,13093,5215567,-3717725,-92851,0,0,0,253,409,152,358,355,355,496,498,250,278,422,154,0
1,1773244481328,-1555,-445,13811,2465452,199142,447153,0,0,0,470,610,320,565,581,597,375,172,445,312,212,581,0
2,1773244481328,-976,2665,18300,5313305,-2182010,307876,0,0,0,264,424,180,360,354,368,528,529,258,307,433,159,0
1,1773244481344,-2459,-435,14984,3029891,228463,503352,0,0,0,477,619,294,553,585,574,280,171,446,271,208,588,0
2,1773244481344,-3833,-2747,23866,4592484,-671951,261450,0,0,0,278,435,212,371,362,383,548,551,274,357,437,181,0
1,1773244481360,-3575,-167,16400,3875329,365297,718377,0,0,0,524,606,306,544,537,573,270,170,419,246,170,557,0
2,1773244481360,-129,-291,19995,3120299,-263893,-42760,0,0,0,296,455,249,365,398,383,557,557,293,327,433,204,0
1,1773244481376,-5015,110,18104,4767192,586430,1042136,0,0,0,524,573,296,506,502,572,228,173,453,210,151,525,0
2,1773244481376,2091,1105,13314,1690874,-108734,-9773,0,0,0,304,468,298,391,379,416,577,577,315,344,426,225,0
1,1773244481392,-7188,-62,21249,5739689,780685,1543045,0,0,0,498,564,310,476,471,533,227,159,426,188,123,454,0
2,1773244481392,1660,253,10078,746477,-13439,131946,0,0,0,328,471,325,413,377,432,589,589,305,366,424,243,0
1,1773244481408,-9365,-1397,25096,6671870,889419,2102598,0,0,0,430,536,277,449,415,497,224,147,368,187,122,387,0
2,1773244481408,1148,186,10524,298102,-17104,90408,0,0,0,337,478,315,411,381,432,594,594,322,369,428,274,0
1,1773244481424,-10629,-1828,28336,7398799,976162,2616946,0,0,0,330,481,230,365,380,407,224,175,301,162,143,313,0
2,1773244481424,1134,1052,10744,108734,-43982,3665,0,0,0,351,486,304,422,387,432,595,595,314,371,431,275,0
2,1773244481440,1316,1660,10256,84299,-23212,-18325,0,0,0,363,492,308,429,389,436,596,596,318,369,422,281,0
1,1773244481456,-10165,5010,27207,8049982,1726305,3362202,0,0,0,261,368,239,286,229,306,307,248,255,178,219,153,0
2,1773244481456,1373,1684,10059,112399,-2443,-7330,0,0,0,372,499,314,432,390,442,601,601,324,377,417,290,0
1,1773244481472,-11701,7059,20272,8001112,1859473,3573561,0,0,0,264,336,237,287,207,293,316,267,259,179,251,143,0
2,1773244481472,1344,1679,10169,201585,-19547,-17104,0,0,0,372,503,328,431,400,451,600,601,336,355,395,299,0
1,1773244481488,-11548,10189,13026,6719517,1376890,3211929,0,0,0,254,345,245,279,211,302,307,283,261,174,268,147,0
2,1773244481488,1225,1698,10265,329867,-34208,-36651,0,0,0,367,506,335,429,409,455,591,592,340,314,360,315,0
1,1773244481504,-6302,16094,11342,2965139,370184,890641,0,0,0,259,350,240,275,211,301,306,290,261,174,262,145,0
2,1773244481504,1153,1665,10131,436157,18325,-40317,0,0,0,370,510,323,429,407,453,585,587,325,306,339,339,0
1,1773244481520,-3369,16013,11533,-1657888,1001818,-2852740,0,0,0,255,347,238,277,213,307,312,288,276,176,264,150,0
2,1773244481520,1206,1564,9954,494800,81855,-34208,0,0,0,370,507,324,430,402,454,583,580,334,309,321,354,0
1,1773244481536,-7681,10131,8303,-3563787,1554041,-4337143,0,0,0,254,346,220,290,226,302,332,304,276,183,274,148,0
2,1773244481536,1273,1373,9815,494800,108734,-34208,0,0,0,374,503,321,437,394,454,578,561,347,315,307,351,0
1,1773244481552,-8858,5675,4828,-3263242,387288,-3147177,0,0,0,243,356,232,267,267,305,321,305,282,182,280,155,0
2,1773244481552,1340,1229,9729,461814,118507,-47647,0,0,0,373,504,321,437,406,472,572,542,343,274,275,369,0
1,1773244481568,-4312,5317,4283,-3099530,-559552,-1622458,0,0,0,238,350,227,272,215,293,309,302,270,180,280,172,0
2,1773244481568,1416,1215,9734,426383,94073,-59864,0,0,0,378,507,327,435,406,469,577,525,349,273,268,367,0
1,1773244481584,-1153,6944,5857,-3808133,6108,-1022588,0,0,0,230,348,235,273,222,312,305,302,284,177,292,159,0
2,1773244481584,1497,1167,9743,395840,45204,-67195,0,0,0,378,503,327,450,406,477,568,506,349,269,248,381,0
1,1773244481600,-3235,6834,6891,-4822170,570548,-821002,0,0,0,235,348,232,277,216,307,307,303,283,179,295,153,0
1,1773244481616,-4651,5814,7930,-5549099,271224,-571769,0,0,0,252,350,237,302,216,301,321,311,283,189,293,145,0
2,1773244481616,1507,1052,9806,335975,-91629,-74525,0,0,0,403,511,313,455,413,480,568,472,363,269,234,390,0
1,1773244481632,-3895,4900,9542,-5974262,-291993,-544891,0,0,0,248,353,241,292,217,303,315,313,285,181,293,146,0
2,1773244481632,1435,1033,9892,328645,-129503,-75747,0,0,0,409,516,317,455,414,482,569,453,399,270,229,401,0
2,1773244481648,1354,985,9930,342084,-124616,-80634,0,0,0,419,521,319,458,416,492,564,442,382,257,211,419,0
1,1773244481664,-4819,2412,13309,-6762278,-665843,-1561371,0,0,0,239,363,253,270,220,312,306,315,293,162,291,155,0
2,1773244481664,1320,928,9959,364075,-103847,-86742,0,0,0,431,528,331,463,419,496,556,411,385,263,203,434,0
1,1773244481680,-6369,689,14644,-6798930,-971275,-1718974,0,0,0,237,367,244,276,233,308,313,320,300,164,293,152,0
2,1773244481680,1421,890,10011,397062,-83077,-100181,0,0,0,449,540,349,471,432,501,553,383,399,265,196,447,0
1,1773244481696,-7298,-516,16496,-6693861,-1369559,-1545489,0,0,0,238,370,233,281,247,298,317,324,295,173,294,142,0
2,1773244481696,1536,875,10088,444709,-74525,-125838,0,0,0,471,554,358,481,449,514,547,357,401,258,181,469,0
1,1773244481712,-7379,-938,18908,-6610783,-1661553,-1276708,0,0,0,235,370,233,280,250,296,318,328,292,175,293,142,0
2,1773244481712,1646,847,10222,513126,-68416,-162490,0,0,0,485,561,370,486,453,525,531,320,403,300,204,495,0
1,1773244481728,-7652,-1454,21871,-6569244,-1908343,-1155757,0,0,0,235,371,232,279,250,295,314,328,288,167,295,139,0
2,1773244481728,1818,770,10409,605978,-54977,-217468,0,0,0,488,569,384,490,462,528,523,291,402,333,231,518,0
1,1773244481744,-8547,-2546,25269,-6530149,-2205223,-1286482,0,0,0,239,367,237,289,250,306,320,328,277,176,293,141,0
2,1773244481744,1899,674,10715,737925,-47647,-293215,0,0,0,501,580,365,495,492,532,521,273,407,262,175,542,0
1,1773244481760,-8332,-5441,28619,-6470284,-2803871,-1632231,0,0,0,240,365,236,292,241,302,330,328,277,182,289,138,0
2,1773244481760,1785,650,11112,944397,-79412,-360410,0,0,0,523,585,360,504,491,550,484,239,419,262,162,570,0
1,1773244481776,-5618,-10198,31222,-6388428,-3336545,-1932777,0,0,0,241,370,254,279,242,302,318,320,287,171,288,137,0
2,1773244481776,1560,636,11672,1231504,-69638,-388510,0,0,0,543,594,328,512,510,554,456,225,435,259,159,592,0
1,1773244481792,-2177,-17922,31251,-6201503,-3094643,-1848478,0,0,0,245,370,256,291,239,294,318,320,261,169,278,129,0
2,1773244481792,1110,569,12380,1589471,6108,-378736,0,0,0,544,581,298,530,523,575,429,220,457,266,176,615,0
1,1773244481808,-358,-26388,27398,-5728694,-2361605,-1120326,0,0,0,245,378,250,287,240,298,311,320,265,167,282,124,0
2,1773244481808,856,421,12907,2003637,118507,-320093,0,0,0,554,586,257,549,541,569,384,210,440,264,176,635,0
1,1773244481824,2804,-33294,20698,-4599815,-1893682,284663,0,0,0,235,375,242,283,244,309,311,316,280,173,277,138,0
2,1773244481824,1316,272,13452,2445904,158824,-266337,0,0,0,562,605,271,524,533,569,334,203,444,269,183,633,0
1,1773244481840,10318,-37678,16357,-2937040,-1590693,1354899,0,0,0,232,380,245,284,247,309,315,316,282,184,276,159,0
2,1773244481840,2148,248,14209,2959031,102625,-282219,0,0,0,567,581,247,536,562,574,287,195,437,280,184,630,0
1,1773244481872,14271,-38425,15070,274889,652404,917519,0,0,0,234,369,245,303,233,307,366,337,252,238,342,129,0
2,1773244481872,3201,244,16424,4289495,-98960,-615752,0,0,0,567,561,237,515,541,585,294,237,405,261,171,628,0
1,1773244481888,5111,-23780,17047,1880243,1830152,443488,0,0,0,234,343,187,305,204,273,431,395,234,314,406,104,0
2,1773244481888,4005,435,18607,5144707,-105068,-851546,0,0,0,554,548,252,515,544,589,267,182,401,249,155,570,0
1,1773244481904,-4565,6771,16104,2823419,2951700,-95294,0,0,0,233,320,143,286,180,241,472,467,234,379,450,104,0
2,1773244481904,4714,373,22230,6086661,-84299,-1116661,0,0,0,519,530,244,505,535,575,246,139,399,240,151,490,0
1,1773244481920,-5924,18104,11452,3563787,3633426,-730594,0,0,0,230,309,149,272,175,250,494,517,267,423,489,108,0
2,1773244481920,4996,784,26786,7114136,37873,-1352455,0,0,0,446,500,207,485,495,532,252,146,371,230,150,417,0
1,1773244481936,2230,3321,12969,4703662,2651155,-906524,0,0,0,220,308,154,284,176,276,518,542,301,471,529,107,0
2,1773244481936,4465,1871,29624,7935139,285884,-1474628,0,0,0,365,469,173,446,440,461,262,168,319,213,139,363,0
1,1773244481952,5431,-2737,19837,4689001,956614,-86742,0,0,0,224,307,170,291,176,290,553,569,282,527,565,112,0
2,1773244481952,4393,2876,31299,8630304,602313,-1593136,0,0,0,305,441,162,383,397,389,283,227,277,179,135,286,0
1,1773244481968,134,-842,21464,3547905,172263,758694,0,0,0,236,327,172,311,192,278,586,586,262,541,571,98,0
2,1773244481968,6173,4158,30978,9136100,1055575,-1806939,0,0,0,246,419,173,343,373,351,311,287,264,138,134,181,0
1,1773244481984,-4383,354,16716,2031737,189368,404392,0,0,0,260,342,238,317,214,318,596,596,272,545,576,119,0
2,1773244481984,8571,8442,22775,8869763,1143539,-2290744,0,0,0,250,427,184,347,380,364,322,304,273,135,144,190,0
1,1773244482000,-3613,397,12045,985936,208915,-129503,0,0,0,281,359,297,330,222,351,604,606,272,572,583,158,0
2,1773244482000,7336,14505,14386,7119023,254119,-2855184,0,0,0,253,427,180,353,387,361,317,308,263,132,141,180,0
1,1773244482016,-1397,239,10064,431270,130725,-246789,0,0,0,287,361,306,348,220,378,608,613,303,567,594,188,0
2,1773244482016,4221,20784,11892,2765997,-1240056,-2484999,0,0,0,257,431,180,348,390,350,316,307,254,132,141,174,0
1,1773244482032,-1737,837,10040,160046,112399,-57421,0,0,0,293,367,353,341,225,412,603,613,331,576,607,210,0
2,1773244482032,3852,18793,11864,-2537534,-1937664,-1031140,0,0,0,258,430,176,353,390,351,317,307,258,135,143,174,0
1,1773244482048,-2244,1363,9973,30543,172263,12217,0,0,0,305,370,361,348,227,418,599,618,320,579,608,213,0
2,1773244482048,4407,11184,9786,-5250997,-2058615,61086,0,0,0,258,432,178,349,376,347,317,305,256,136,143,174,0
1,1773244482064,-2120,1584,9935,18325,200363,-1221,0,0,0,301,382,342,350,251,414,593,609,315,580,600,228,0
2,1773244482064,5149,5398,6211,-5192354,-2030516,262672,0,0,0,255,432,179,354,380,352,323,310,260,139,146,178,0
1,1773244482080,-1823,1584,10074,96516,130725,8552,0,0,0,317,391,342,347,255,401,590,603,309,568,592,242,0
2,1773244482080,6350,5015,4158,-4896695,-1715309,-25656,0,0,0,254,432,180,358,382,355,321,310,260,140,147,178,0
1,1773244482112,-1761,1617,10155,333532,-67195,64751,0,0,0,330,420,354,359,300,440,563,566,331,548,566,288,0
2,1773244482112,5623,6307,6302,-5855754,-153938,-497244,0,0,0,255,433,187,357,381,354,325,316,263,138,144,178,0
1,1773244482128,-1852,1517,9882,409279,-128281,69638,0,0,0,321,424,374,356,268,441,562,540,330,521,559,316,0
2,1773244482128,4235,5613,8116,-6213721,256563,-434936,0,0,0,258,435,188,360,382,354,327,317,262,139,144,175,0
1,1773244482144,-1971,1335,9585,393397,-107512,65973,0,0,0,321,429,365,370,259,447,561,509,343,489,545,346,0
2,1773244482144,4168,4627,9126,-6299242,475253,-186924,0,0,0,259,436,186,362,383,353,326,318,259,141,145,173,0
1,1773244482160,-2010,1196,9518,351858,-61086,63529,0,0,0,334,436,322,388,253,452,547,496,347,485,529,343,0
2,1773244482160,4493,4221,10260,-6367659,965167,46425,0,0,0,258,435,185,345,397,346,325,318,259,142,148,173,0
1,1773244482176,-1971,1172,9518,329867,-46425,67195,0,0,0,344,447,350,384,248,451,552,464,345,462,524,353,0
2,1773244482176,4005,3957,12476,-6517932,1539380,324980,0,0,0,258,434,185,338,404,343,328,317,261,143,148,174,0
1,1773244482192,-1933,1215,9585,311541,-29321,73303,0,0,0,331,457,324,385,263,447,552,448,344,451,531,370,0
2,1773244482192,3508,3713,14792,-6640105,1712866,574213,0,0,0,255,433,182,364,383,354,330,318,262,142,149,173,0
1,1773244482208,-1885,1220,9643,307876,-12217,74525,0,0,0,315,481,308,391,307,432,557,440,333,453,520,405,0
2,1773244482208,3689,3632,17434,-6787934,1821600,767246,0,0,0,255,434,182,362,383,355,331,324,263,144,155,173,0
1,1773244482224,-1809,1167,9696,313984,-17104,74525,0,0,0,350,471,316,405,293,456,552,423,360,465,502,428,0
2,1773244482224,4383,3699,20655,-7032280,2019520,828333,0,0,0,256,436,184,357,379,351,332,325,263,143,155,173,0
1,1773244482240,-1809,1091,9767,328645,-50090,73303,0,0,0,367,470,356,416,319,470,547,404,382,461,482,446,0
2,1773244482240,4627,3263,24881,-7298617,2287079,877202,0,0,0,262,438,192,362,384,358,332,327,265,145,156,176,0
1,1773244482256,-1885,1028,9767,350636,-74525,78190,0,0,0,348,501,368,408,306,487,531,404,380,436,466,463,0
2,1773244482256,4527,1828,29987,-7429343,2419026,1237612,0,0,0,259,438,185,362,386,355,333,330,266,145,156,173,0
1,1773244482272,-1933,981,9724,377514,-79412,92851,0,0,0,375,520,360,416,298,500,529,364,368,409,418,486,0
2,1773244482272,4680,-2364,33117,-7280291,2511877,2094046,0,0,0,259,438,186,364,386,355,333,330,267,141,147,170,0
1,1773244482288,-1933,909,9748,419053,-79412,113620,0,0,0,386,542,396,437,331,529,524,324,368,386,395,509,0
2,1773244482288,4254,-10701,35257,-6873455,2902831,3009122,0,0,0,260,437,180,364,383,356,342,334,265,141,146,174,0
2,1773244482304,2842,-22062,35300,-6148969,2835636,3235142,0,0,0,258,439,177,361,381,359,341,344,268,140,144,174,0
1,1773244482320,-2153,890,10122,616973,-80634,171042,0,0,0,391,594,418,498,412,575,549,288,389,354,341,546,0
2,1773244482320,3115,-34520,28413,-4818505,1731192,2324953,0,0,0,259,440,185,359,381,361,340,347,269,140,143,176,0
1,1773244482336,-2330,770,10327,739146,-85521,219911,0,0,0,405,601,391,509,442,600,531,267,406,322,277,579,0
2,1773244482336,1842,-43014,19617,-3165503,1373225,652404,0,0,0,262,443,189,360,379,360,341,345,267,141,142,175,0
1,1773244482352,-2790,531,10485,825889,-95294,322536,0,0,0,430,606,321,525,455,615,509,229,424,308,239,601,0
2,1773244482352,-5412,-46958,15199,-1453859,1646892,-1347568,0,0,0,261,442,184,358,377,357,341,347,267,141,145,174,0
1,1773244482368,-2861,478,10935,923628,-68416,458148,0,0,0,455,615,308,551,470,598,484,210,444,290,215,599,0
1,1773244482384,-2158,526,11768,1185078,-2443,520457,0,0,0,510,624,336,564,506,632,456,203,466,295,202,605,0
2,1773244482384,-9758,-35702,17875,1794722,-1043357,-1896125,0,0,0,261,437,170,357,381,339,364,383,248,176,200,162,0
1,1773244482400,-1392,449,12481,1566258,0,487470,0,0,0,534,619,260,552,555,635,416,224,465,294,211,616,0
2,1773244482400,856,-8083,19794,3004235,-2085493,-813672,0,0,0,257,426,153,361,378,337,404,452,240,220,288,156,0
1,1773244482416,-1081,306,12964,1991420,-100181,382401,0,0,0,522,619,258,577,538,635,368,194,470,285,208,616,0
2,1773244482416,10696,27532,15678,3141069,-2588846,725707,0,0,0,252,406,148,356,358,343,440,473,247,239,363,145,0
1,1773244482432,-1856,181,13443,2443460,-127059,307876,0,0,0,528,636,246,574,548,635,320,190,480,261,189,632,0
2,1773244482432,6484,21933,7374,3371976,-2742784,1595580,0,0,0,260,402,154,355,344,359,469,497,255,301,424,140,0
1,1773244482448,-3062,-47,13792,2924822,-29321,355523,0,0,0,548,640,259,561,572,625,268,192,463,251,186,632,0
2,1773244482448,-3924,-473,12170,4857600,-1964542,1359786,0,0,0,264,408,166,355,341,369,476,533,247,311,458,138,0
1,1773244482464,-4115,-363,14582,3469714,81855,593761,0,0,0,540,628,242,553,583,629,273,196,475,230,171,613,0
2,1773244482464,-7556,-5939,20765,5029864,-824668,382401,0,0,0,249,411,168,366,354,378,533,545,266,334,462,150,0
1,1773244482480,-4757,-196,16171,3977954,112399,880867,0,0,0,528,615,253,540,575,621,257,187,487,210,154,590,0
2,1773244482480,-1895,957,22029,4023158,-215024,-616973,0,0,0,275,425,213,376,356,388,553,552,274,353,464,177,0
1,1773244482496,-5632,-291,18056,4513072,259006,1188743,0,0,0,511,602,273,532,524,602,260,175,480,189,132,562,0
2,1773244482496,3158,2435,16850,2819753,-96516,-481361,0,0,0,294,449,257,385,355,399,562,580,285,394,492,200,0
1,1773244482512,-6513,-564,20014,5147150,458148,1534493,0,0,0,492,564,268,506,488,584,273,167,458,173,116,497,0
2,1773244482512,3043,392,12586,1633453,-58643,48869,0,0,0,327,460,271,393,357,404,571,588,328,387,493,223,0
2,1773244482528,1239,-363,11117,730594,-41538,213802,0,0,0,350,473,293,401,363,411,580,599,314,385,499,268,0
1,1773244482544,-8585,224,24364,6756169,926071,2381152,0,0,0,343,472,229,396,391,464,300,168,355,176,136,345,0
2,1773244482544,985,559,10461,313984,-59864,112399,0,0,0,363,481,323,413,371,428,584,593,302,397,503,285,0
1,1773244482560,-8671,660,26642,7408573,1142317,2748893,0,0,0,266,424,217,336,334,381,296,222,292,166,198,273,0
2,1773244482560,1440,1402,10045,196698,-112399,2443,0,0,0,370,490,327,414,377,428,593,607,309,398,502,288,0
1,1773244482576,-7810,2962,27331,7854505,1169196,2974913,0,0,0,231,375,219,284,240,326,279,271,271,150,253,166,0
2,1773244482576,1478,1363,10021,149051,-139277,2443,0,0,0,379,499,323,419,377,432,597,609,309,403,501,290,0
1,1773244482592,-8509,5996,23096,8181929,1089783,3105638,0,0,0,255,307,203,278,195,292,306,264,287,192,235,165,0
2,1773244482592,1392,1301,10126,107512,-164933,6108,0,0,0,384,503,347,425,375,443,597,604,308,406,491,290,0
1,1773244482608,-9954,9164,15927,7784866,908967,3185051,0,0,0,265,322,195,290,195,290,318,258,270,191,243,153,0
2,1773244482608,1263,1459,10208,123394,-184481,-9773,0,0,0,385,503,352,426,376,442,594,602,308,384,456,298,0
1,1773244482624,-8088,13586,12136,5330410,610865,2394591,0,0,0,265,334,209,286,201,298,303,267,268,184,241,167,0
2,1773244482624,1119,1655,10227,204028,-152716,-28099,0,0,0,384,505,320,432,384,435,586,588,303,352,417,314,0
1,1773244482640,-4335,17535,11155,902858,735481,245567,0,0,0,256,338,202,288,226,303,326,273,288,185,241,164,0
2,1773244482640,1052,1694,10150,334754,-56199,-34208,0,0,0,386,505,317,440,390,443,582,571,307,341,405,324,0
1,1773244482656,-4273,14635,10217,-3070208,1457524,-2197893,0,0,0,269,333,222,294,215,305,324,269,281,193,239,167,0
2,1773244482656,1110,1493,9973,415388,31764,-26878,0,0,0,388,503,322,445,391,447,578,560,317,331,376,334,0
1,1773244482672,-7714,8418,6542,-3773925,1166752,-2495995,0,0,0,270,328,228,302,206,308,336,268,282,193,239,160,0
2,1773244482672,1201,1301,9815,431270,75747,-23212,0,0,0,391,506,338,441,395,452,572,548,327,330,364,351,0
1,1773244482688,-7796,4910,3876,-3558900,152716,-1783726,0,0,0,266,320,239,298,194,321,346,264,291,200,237,167,0
2,1773244482688,1301,1186,9743,400727,72082,-28099,0,0,0,403,513,359,441,397,463,562,527,331,374,393,353,0
1,1773244482704,-4091,5407,4541,-3604104,-328645,-1042136,0,0,0,264,318,233,297,191,322,336,252,293,195,240,163,0
2,1773244482704,1378,1129,9743,356745,35430,-41538,0,0,0,396,505,346,452,403,464,576,531,341,356,377,360,0
1,1773244482720,-2895,6326,6111,-4222300,-8552,-956614,0,0,0,265,323,223,299,198,315,337,259,288,187,245,151,0
2,1773244482720,1416,1100,9772,313984,-9773,-57421,0,0,0,397,508,342,458,410,477,564,499,337,314,325,377,0
1,1773244482736,-4168,6221,7456,-5027420,199142,-1108109,0,0,0,262,326,223,295,204,315,343,275,286,184,248,148,0
2,1773244482736,1426,1086,9820,283441,-58643,-69638,0,0,0,409,514,359,452,410,476,561,490,349,317,321,383,0
1,1773244482752,-4560,5273,8614,-5545434,-172263,-1159422,0,0,0,254,327,228,294,205,321,330,272,286,184,252,152,0
2,1773244482752,1373,1086,9858,276111,-96516,-80634,0,0,0,420,519,348,457,415,473,562,480,348,332,330,384,0
1,1773244482768,-4106,4393,9844,-5913175,-481361,-1218065,0,0,0,255,329,236,300,208,324,322,271,280,196,256,152,0
2,1773244482768,1249,1091,9882,290771,-105068,-87964,0,0,0,423,521,340,464,418,485,556,465,350,313,312,394,0
1,1773244482784,-3977,3149,11232,-6250373,-640186,-1259604,0,0,0,259,329,236,310,207,320,328,276,276,213,253,156,0
2,1773244482784,1201,1067,9940,316428,-80634,-81855,0,0,0,429,533,338,466,428,490,559,452,356,294,276,409,0
1,1773244482800,-4249,1823,12653,-6459289,-827111,-1154535,0,0,0,254,331,227,303,210,319,323,274,275,189,253,152,0
2,1773244482800,1234,981,10007,353080,-51312,-75747,0,0,0,437,544,334,468,431,490,563,433,362,290,249,428,0
1,1773244482816,-4364,938,14347,-6465397,-1108109,-901637,0,0,0,255,331,221,301,209,316,329,278,269,190,252,145,0
2,1773244482816,1349,918,10045,393397,-40317,-83077,0,0,0,455,549,335,475,435,492,549,409,365,281,220,451,0
1,1773244482832,-4211,722,16525,-6373767,-1395216,-697608,0,0,0,246,333,215,299,207,306,334,278,269,186,250,140,0
2,1773244482832,1459,914,10107,458148,-43982,-102625,0,0,0,471,554,348,482,442,503,540,388,381,269,193,480,0
1,1773244482848,-4182,655,19104,-6333450,-1620014,-619417,0,0,0,243,333,213,298,205,305,331,284,265,186,251,142,0
2,1773244482848,1493,880,10174,536339,-36651,-135612,0,0,0,478,558,355,486,451,514,543,363,403,274,185,510,0
1,1773244482864,-4594,95,21890,-6352998,-1766622,-695164,0,0,0,230,328,220,294,204,309,329,282,266,186,251,151,0
2,1773244482864,1531,751,10260,623082,12217,-180816,0,0,0,486,558,350,496,459,519,529,318,414,283,184,528,0
1,1773244482880,-5206,-1038,24637,-6349333,-1935221,-860098,0,0,0,229,328,218,294,203,307,328,278,267,186,247,152,0
2,1773244482880,1722,631,10471,726929,84299,-243124,0,0,0,499,565,361,514,464,535,521,279,442,280,182,543,0
1,1773244482896,-5728,-2986,27609,-6326120,-2162462,-1163087,0,0,0,229,326,242,293,197,314,326,275,273,183,241,157,0
2,1773244482896,1780,636,10964,869872,84299,-298102,0,0,0,512,584,356,526,482,553,521,254,449,280,184,568,0
1,1773244482912,-5972,-7528,30634,-6362772,-2414139,-1524719,0,0,0,229,326,264,291,191,331,322,270,292,178,235,161,0
2,1773244482912,1780,622,11572,1119105,30543,-343306,0,0,0,525,576,346,534,498,566,467,229,466,268,170,602,0
1,1773244482928,-6188,-16501,31442,-6379876,-2431243,-1419650,0,0,0,234,330,262,291,192,329,320,262,293,174,229,155,0
2,1773244482928,1512,550,12251,1450194,25656,-367740,0,0,0,538,586,312,534,508,568,427,223,452,272,174,613,0
1,1773244482944,-3881,-25982,27489,-5909510,-2243097,-370184,0,0,0,235,336,244,297,206,314,326,261,282,176,231,147,0
2,1773244482944,1273,459,12964,1872912,90408,-353080,0,0,0,552,598,278,534,519,571,388,217,438,276,178,625,0
2,1773244482960,1445,354,13591,2349387,120951,-329867,0,0,0,561,595,253,540,538,587,354,221,438,264,174,634,0
1,1773244482976,13180,-39325,16726,-2829527,-1318247,1656666,0,0,0,218,366,238,298,276,317,332,277,293,183,256,148,0
2,1773244482976,1971,325,14194,2888170,61086,-345749,0,0,0,566,594,247,534,532,583,312,207,428,263,183,628,0
1,1773244482992,16276,-42230,14563,-1210734,-248011,1685988,0,0,0,210,364,222,285,268,310,325,282,290,185,263,148,0
2,1773244482992,2479,248,15166,3499036,-39095,-441044,0,0,0,569,587,255,523,533,576,270,189,439,267,182,635,0
1,1773244483008,13845,-39171,15108,364075,966388,1370781,0,0,0,208,337,209,304,235,303,406,341,282,266,381,131,0
1,1773244483024,6369,-18372,17942,2056172,2445904,665843,0,0,0,204,339,137,265,247,247,422,464,221,329,435,97,0
2,1773244483024,4498,425,18315,5040859,-249233,-844215,0,0,0,560,561,253,512,555,570,237,140,414,237,156,573,0
1,1773244483040,-3345,11289,15305,3219259,3749490,-448375,0,0,0,220,299,137,282,205,244,476,487,232,369,459,90,0
2,1773244483040,5230,335,21048,5926614,-349414,-1150870,0,0,0,524,542,259,509,548,571,238,136,397,221,142,501,0
1,1773244483056,-2881,13103,11926,4107457,3605326,-995710,0,0,0,231,297,153,277,185,252,487,520,256,412,498,95,0
2,1773244483056,5197,574,25307,6923546,-339641,-1435533,0,0,0,448,517,235,488,507,538,244,151,381,219,142,442,0
1,1773244483072,4364,435,16855,4671897,1819156,-421497,0,0,0,229,323,138,296,200,266,520,531,249,460,515,94,0
2,1773244483072,4757,1430,27843,7615046,-111177,-1547932,0,0,0,373,487,191,445,448,474,258,182,349,213,142,388,0
1,1773244483088,4666,-2129,20464,4332256,410501,605978,0,0,0,228,316,166,303,214,278,548,558,258,477,532,96,0
2,1773244483088,4182,2569,29475,8366410,279776,-1677435,0,0,0,313,461,166,394,404,412,282,230,292,185,138,305,0
1,1773244483104,-3015,483,17793,3253468,96516,926071,0,0,0,258,312,230,317,212,312,572,579,269,496,550,110,0
2,1773244483104,4647,3479,29528,8875871,750142,-1832595,0,0,0,253,436,172,348,385,373,298,278,265,154,151,219,0
1,1773244483120,-5843,373,13677,2092824,169820,267558,0,0,0,266,316,264,332,208,336,589,589,276,526,563,131,0
2,1773244483120,7714,6518,22445,8873428,1061683,-2191784,0,0,0,248,429,181,346,385,364,312,317,275,131,158,187,0
1,1773244483136,-2924,-258,11165,1100779,239459,-221133,0,0,0,255,318,270,347,219,343,596,596,292,556,573,153,0
2,1773244483136,7513,11835,14242,7651697,533896,-2741563,0,0,0,254,433,185,352,388,366,312,325,269,130,143,184,0
1,1773244483152,-1311,-47,10380,437379,222354,-217468,0,0,0,281,333,288,369,249,353,595,594,309,575,575,176,0
2,1773244483152,4259,19004,11715,3324328,-995710,-2668259,0,0,0,262,433,192,351,381,358,312,319,261,130,140,178,0
1,1773244483168,-1765,751,10390,98960,177150,-17104,0,0,0,291,341,298,373,256,352,600,599,312,569,574,195,0
2,1773244483168,3287,20186,11816,-2171015,-2017077,-1729970,0,0,0,268,430,176,376,385,346,328,315,250,153,147,175,0
2,1773244483184,4063,12969,10552,-5255884,-2127032,-704938,0,0,0,271,431,175,367,379,343,323,317,255,145,147,175,0
1,1773244483200,-2033,1162,10064,12217,127059,-21991,0,0,0,323,356,308,379,215,355,609,609,305,562,586,216,0
2,1773244483200,4747,6226,6786,-5095837,-2046398,-312763,0,0,0,270,434,180,363,376,339,319,314,253,143,147,172,0
1,1773244483216,-1866,1220,10150,40317,58643,-9773,0,0,0,294,377,299,381,229,364,611,610,309,547,593,246,0
2,1773244483216,6025,4254,4197,-4557054,-1890017,-230907,0,0,0,270,432,181,370,383,346,326,320,255,147,153,173,0
1,1773244483232,-1909,1330,10203,128281,-19547,25656,0,0,0,298,360,325,379,224,392,598,597,325,560,583,255,0
2,1773244483232,7293,5455,4781,-4957782,-1266934,-250454,0,0,0,266,436,183,365,382,345,324,321,251,144,152,170,0
1,1773244483248,-1919,1359,10107,229685,-89186,47647,0,0,0,309,367,313,388,234,385,590,576,320,551,573,262,0
2,1773244483248,7552,5824,6465,-5640729,-360410,-183259,0,0,0,264,436,182,364,381,344,322,320,248,143,152,170,0
1,1773244483264,-1919,1301,9901,312763,-155159,53756,0,0,0,313,372,296,388,243,385,592,566,325,543,574,277,0
1,1773244483280,-2019,1167,9686,340862,-183259,53756,0,0,0,317,362,287,383,228,394,594,548,336,537,577,305,0
2,1773244483280,5762,3531,9356,-6084217,725707,492357,0,0,0,267,440,185,361,380,343,316,318,245,138,153,168,0
1,1773244483296,-2105,1052,9542,317649,-157603,54977,0,0,0,323,357,292,386,224,406,596,526,342,523,576,301,0
2,1773244483296,5484,2723,10404,-6046344,1064127,873537,0,0,0,264,439,185,356,380,343,316,323,246,137,154,168,0
1,1773244483312,-2115,981,9466,218689,-70860,59864,0,0,0,331,362,291,408,221,398,589,515,340,513,567,291,0
2,1773244483312,5403,2675,11945,-6114761,1404990,1138652,0,0,0,266,440,188,357,384,346,316,331,249,139,156,168,0
1,1773244483328,-2081,995,9533,151494,-7330,61086,0,0,0,335,375,295,414,214,386,581,509,336,504,560,294,0
2,1773244483328,5379,2842,13692,-6293133,1659109,1285260,0,0,0,267,442,187,356,384,343,318,339,249,138,161,168,0
1,1773244483344,-2053,1057,9595,173485,-6108,62308,0,0,0,327,384,310,401,223,393,577,494,345,483,553,304,0
2,1773244483344,5245,2727,16099,-6543588,1905899,1350012,0,0,0,265,442,187,356,385,343,320,342,248,137,160,169,0
1,1773244483360,-2005,1081,9629,204028,-7330,65973,0,0,0,312,383,318,399,238,410,573,480,368,463,542,313,0
2,1773244483360,4843,2187,18607,-6623000,2046398,1336573,0,0,0,266,442,188,358,385,345,320,342,248,137,160,168,0
1,1773244483376,-1947,1038,9638,204028,-2443,68416,0,0,0,311,385,322,406,235,422,570,469,375,468,538,308,0
2,1773244483376,4637,1856,21579,-6615670,2130697,1357342,0,0,0,266,441,187,361,382,349,322,331,255,140,166,167,0
2,1773244483392,4804,2077,25537,-6658431,2223549,1512502,0,0,0,267,442,188,356,382,349,313,331,260,139,162,167,0
1,1773244483408,-1966,938,9691,202807,-15882,61086,0,0,0,314,410,324,396,260,440,577,409,368,477,520,330,0
2,1773244483408,4728,1249,29920,-6928433,2354274,1955990,0,0,0,266,443,188,360,387,349,325,336,259,142,166,168,0
1,1773244483424,-2005,918,9729,226020,-12217,69638,0,0,0,324,419,309,407,306,458,577,404,371,469,520,328,0
2,1773244483424,4000,-3172,32935,-7137349,2618168,2548529,0,0,0,267,441,184,365,388,352,331,327,260,144,162,170,0
1,1773244483440,-2000,866,9734,251676,-7330,85521,0,0,0,329,427,368,408,310,498,576,382,371,464,495,373,0
2,1773244483440,2526,-12782,33950,-6759834,2675589,2819753,0,0,0,269,440,184,366,386,348,333,327,261,151,171,172,0
1,1773244483456,-2000,847,9734,294437,-7330,107512,0,0,0,332,452,363,435,336,520,569,363,388,453,469,406,0
2,1773244483456,2857,-24345,31653,-5888740,1924225,2437352,0,0,0,267,440,184,367,385,353,335,319,267,151,166,173,0
1,1773244483472,-2048,885,9853,367740,-10995,131946,0,0,0,344,476,381,452,331,514,565,344,415,422,428,444,0
2,1773244483472,4527,-37195,23091,-4367686,960280,805120,0,0,0,268,442,184,369,386,358,338,317,272,153,162,175,0
1,1773244483488,-2129,923,10102,509461,-10995,167377,0,0,0,374,512,415,457,330,527,568,306,433,396,400,511,0
2,1773244483488,-2708,-43019,17291,-2755002,1380555,-1313360,0,0,0,268,442,185,370,387,362,338,317,278,153,162,178,0
1,1773244483504,-2234,851,10390,695164,0,202807,0,0,0,389,538,400,502,379,549,573,269,449,388,345,557,0
2,1773244483504,-14113,-44981,16453,-1027475,1116661,-2627942,0,0,0,268,441,186,373,387,364,337,317,278,153,162,179,0
1,1773244483520,-2474,703,10677,882089,0,250454,0,0,0,403,553,388,530,414,562,564,245,456,366,290,575,0
1,1773244483536,-2761,564,10983,1029918,-3665,342084,0,0,0,416,575,383,528,431,571,542,223,456,332,244,581,0
2,1773244483536,-3484,-25350,19085,2340835,-2138028,-1525941,0,0,0,257,438,176,359,380,347,377,426,254,184,251,162,0
1,1773244483552,-2646,459,11509,1207069,26878,442266,0,0,0,429,599,330,543,481,588,501,201,456,315,208,584,0
2,1773244483552,6920,10629,20028,3175277,-2772106,-748920,0,0,0,246,415,158,355,368,345,415,465,248,221,298,155,0
1,1773244483568,-2211,368,12471,1524719,76969,499687,0,0,0,474,602,281,556,528,603,433,200,454,309,210,596,0
2,1773244483568,8145,22785,11849,3138625,-3079982,267558,0,0,0,259,402,155,350,347,341,435,485,233,225,363,146,0
1,1773244483584,-2234,263,13472,2020742,108734,510683,0,0,0,503,613,292,562,558,616,390,192,456,293,200,603,0
2,1773244483584,2134,7810,7432,4246735,-2689028,1077566,0,0,0,266,406,162,364,346,360,464,507,255,286,430,155,0
1,1773244483600,-2421,181,14166,2587625,149051,561996,0,0,0,519,616,279,583,576,602,331,193,462,276,192,593,0
2,1773244483600,-4804,-5905,14907,5222897,-1251052,1050688,0,0,0,258,407,165,364,351,365,504,516,263,278,425,160,0
2,1773244483616,-4331,-1727,20952,4421442,-234572,64751,0,0,0,270,424,204,366,357,379,534,541,277,320,445,174,0
1,1773244483632,-3536,392,15730,3869220,323758,770911,0,0,0,502,598,241,536,538,584,251,194,469,245,176,597,0
2,1773244483632,938,2785,19655,3210707,-58643,-590095,0,0,0,279,436,227,383,359,390,550,551,280,327,454,196,0
1,1773244483648,-4814,425,16860,4542393,439822,1022588,0,0,0,486,572,276,518,553,558,252,195,475,207,164,552,0
2,1773244483648,2928,1148,14950,2023185,-57421,-239459,0,0,0,298,452,263,386,368,408,559,560,286,341,468,230,0
1,1773244483664,-5776,119,19411,5309640,555887,1404990,0,0,0,452,551,301,489,486,574,240,171,452,172,128,469,0
2,1773244483664,2273,-248,11361,992045,-6108,136833,0,0,0,332,467,300,400,367,410,553,587,288,342,483,260,0
1,1773244483680,-6791,-344,22402,6020687,708603,1745852,0,0,0,416,529,294,441,429,541,224,163,413,156,112,413,0
2,1773244483680,1296,114,10232,410501,-47647,208915,0,0,0,338,473,308,404,376,421,568,587,300,334,474,280,0
1,1773244483696,-8054,19,24527,6710965,922406,2079385,0,0,0,347,492,259,388,364,490,211,163,365,164,132,385,0
2,1773244483696,1344,985,10236,222354,-183259,95294,0,0,0,345,479,309,405,382,431,580,582,308,338,471,291,0
1,1773244483712,-7686,995,25752,7217983,1197295,2379930,0,0,0,291,441,226,338,309,429,230,193,312,166,168,310,0
2,1773244483712,1407,1292,10179,94073,-239459,25656,0,0,0,355,485,309,407,386,435,582,588,309,357,482,301,0
1,1773244483728,-6379,2938,26939,7667580,1474628,2582738,0,0,0,243,362,235,281,240,376,274,233,289,158,210,207,0
2,1773244483728,1344,1320,10098,15882,-195476,10995,0,0,0,359,489,311,412,390,435,584,593,309,374,490,313,0
1,1773244483744,-7441,4556,23842,8092742,1538158,2648711,0,0,0,221,319,256,249,191,345,308,255,297,163,244,163,0
2,1773244483744,1316,1474,10098,23212,-146607,1221,0,0,0,366,495,317,420,389,436,584,595,304,375,487,318,0
1,1773244483760,-9873,7097,16975,8009665,1358564,2757445,0,0,0,250,336,251,264,195,329,312,258,298,183,263,175,0
2,1773244483760,1292,1670,10150,116064,-128281,-19547,0,0,0,371,506,316,426,391,433,584,597,310,360,464,318,0
1,1773244483776,-9389,11246,12438,6394537,813672,2536312,0,0,0,278,331,239,278,196,321,318,257,283,193,276,166,0
2,1773244483776,1191,1703,10169,255341,-81855,-39095,0,0,0,373,516,316,422,396,434,582,594,332,339,442,327,0
1,1773244483792,-4469,17023,11907,1881464,641408,735481,0,0,0,274,339,207,288,210,310,343,262,271,198,278,161,0
2,1773244483792,1153,1608,10107,367740,0,-42760,0,0,0,384,511,327,422,394,450,576,590,329,324,421,339,0
1,1773244483808,-3134,15912,11174,-2161241,1290147,-1419650,0,0,0,293,349,218,288,229,319,349,272,285,200,287,167,0
2,1773244483808,1225,1469,9959,406836,64751,-35430,0,0,0,391,506,331,426,398,447,571,587,312,322,410,330,0
1,1773244483824,-7039,9088,7556,-3677408,1382998,-2268753,0,0,0,242,349,230,270,213,345,321,275,313,182,288,180,0
2,1773244483824,1335,1325,9839,398284,86742,-32986,0,0,0,387,513,328,430,399,454,573,570,324,381,426,341,0
2,1773244483840,1435,1234,9763,359188,57421,-40317,0,0,0,398,512,328,443,403,456,576,558,325,371,396,350,0
1,1773244483856,-5604,5240,4608,-3582113,-12217,-1012814,0,0,0,228,344,242,262,200,347,312,262,306,188,293,182,0
2,1773244483856,1497,1215,9729,326202,1221,-52534,0,0,0,399,512,324,446,408,460,560,544,327,361,370,365,0
1,1773244483872,-4044,6121,5728,-4142888,167377,-658512,0,0,0,224,351,252,261,202,352,311,266,307,185,294,182,0
2,1773244483872,1488,1234,9777,320093,-65973,-64751,0,0,0,412,516,331,447,412,460,560,519,339,320,317,377,0
1,1773244483888,-5288,5991,6771,-4932125,367740,-615752,0,0,0,222,353,251,258,202,351,310,265,306,188,291,180,0
2,1773244483888,1450,1201,9868,332310,-112399,-70860,0,0,0,420,520,348,437,409,462,563,505,360,304,294,384,0
1,1773244483904,-5963,4905,7843,-5481904,-144164,-481361,0,0,0,221,350,256,255,199,350,306,262,302,181,290,177,0
1,1773244483920,-5092,4101,9107,-5798332,-674395,-434936,0,0,0,216,348,251,257,202,346,310,265,292,174,287,171,0
2,1773244483920,1320,1043,9887,345749,-144164,-74525,0,0,0,429,531,336,450,412,486,560,469,345,301,268,410,0
1,1773244483936,-4067,3330,10614,-6076887,-938289,-572991,0,0,0,218,349,238,265,206,335,318,267,281,181,280,162,0
2,1773244483936,1263,1000,9868,360410,-127059,-72082,0,0,0,438,541,337,462,420,485,561,450,354,313,255,419,0
1,1773244483952,-4388,2124,11993,-6263812,-1049466,-674395,0,0,0,227,351,236,273,205,328,321,262,279,198,275,158,0
2,1773244483952,1282,966,9935,386066,-98960,-72082,0,0,0,445,552,339,474,431,493,555,427,368,318,240,429,0
1,1773244483968,-4857,1186,13529,-6299242,-1324355,-575435,0,0,0,227,351,241,275,205,336,324,256,284,211,277,165,0
2,1773244483968,1378,942,10050,431270,-78190,-81855,0,0,0,452,557,347,471,437,499,542,401,387,291,225,455,0
1,1773244483984,-4603,1014,15888,-6250373,-1765400,-353080,0,0,0,227,353,244,274,210,341,328,252,287,212,275,168,0
2,1773244483984,1445,899,10126,483805,-70860,-100181,0,0,0,463,558,351,470,444,506,536,383,401,283,206,475,0
1,1773244484000,-4067,866,18482,-6251594,-2079385,-271224,0,0,0,226,356,257,269,215,352,321,255,299,207,278,172,0
2,1773244484000,1488,832,10174,548556,-56199,-130725,0,0,0,482,566,370,472,446,514,531,366,392,280,194,499,0
1,1773244484016,-4221,148,21435,-6227160,-2224771,-499687,0,0,0,231,356,273,262,205,362,316,255,307,201,274,173,0
2,1773244484016,1608,737,10299,630412,-17104,-174707,0,0,0,501,574,353,486,467,529,526,327,411,270,179,523,0
1,1773244484032,-5096,-866,24206,-6084217,-2389704,-944397,0,0,0,243,355,266,274,205,343,314,247,284,202,275,160,0
2,1773244484032,1732,650,10547,739146,4886,-229685,0,0,0,511,576,353,492,470,543,505,298,398,275,182,555,0
2,1773244484048,1756,612,10935,905302,-23212,-280998,0,0,0,516,598,353,498,490,540,494,273,411,272,182,568,0
1,1773244484064,-4345,-6384,30519,-5911953,-2873510,-2394591,0,0,0,227,360,243,276,217,333,326,252,288,206,269,155,0
2,1773244484064,1689,583,11337,1121548,-84299,-313984,0,0,0,531,608,333,515,502,545,465,242,398,265,163,592,0
1,1773244484080,-3311,-14309,31710,-6019466,-2632829,-2813645,0,0,0,223,359,243,278,218,335,325,254,299,207,269,156,0
2,1773244484080,1407,478,11792,1412320,-96516,-326202,0,0,0,536,604,292,538,524,559,418,235,412,276,170,611,0
1,1773244484096,-3962,-24680,28317,-5870414,-2053728,-2175901,0,0,0,214,363,240,277,229,338,319,261,302,195,270,161,0
2,1773244484096,995,325,12356,1794722,-39095,-294437,0,0,0,545,607,278,535,542,575,380,230,421,280,177,614,0
1,1773244484112,-593,-33969,21349,-4784296,-1982868,-428827,0,0,0,210,362,258,274,236,349,309,264,315,188,273,172,0
2,1773244484112,1072,167,13074,2188119,67195,-244346,0,0,0,552,611,248,540,542,571,350,221,406,276,188,624,0
1,1773244484128,8030,-38243,16214,-3178942,-1964542,934623,0,0,0,211,360,277,273,236,354,306,267,326,185,273,177,0
2,1773244484128,1957,86,13965,2640159,207694,-265115,0,0,0,575,608,247,531,537,572,310,217,427,260,177,633,0
1,1773244484144,15797,-40167,14290,-1334129,-1034805,1308473,0,0,0,214,362,279,273,236,350,310,267,317,182,268,173,0
2,1773244484144,2608,162,14725,3152064,189368,-409279,0,0,0,584,597,252,523,542,582,276,210,425,264,179,635,0
1,1773244484160,15367,-38808,14051,228463,400727,1043357,0,0,0,216,364,265,274,229,334,318,273,291,193,277,156,0
1,1773244484176,7872,-31725,14548,1534493,1469741,599869,0,0,0,208,359,232,271,215,316,350,321,273,236,332,136,0
2,1773244484176,3015,229,16333,4395786,-278554,-643851,0,0,0,577,582,250,505,566,572,238,169,413,259,182,617,0
1,1773244484192,-1837,-6097,17138,2684141,1904677,-61086,0,0,0,191,327,195,273,201,319,418,416,285,320,421,142,0
2,1773244484192,4800,9,18300,5250997,-394618,-910189,0,0,0,568,561,261,506,565,574,234,141,416,239,158,555,0
1,1773244484208,-8178,23584,14950,3026226,2521651,-993266,0,0,0,218,283,228,281,160,304,463,475,276,381,446,132,0
2,1773244484208,5704,-100,22134,6280916,-442266,-1320690,0,0,0,520,538,244,490,534,557,239,132,404,224,146,479,0
1,1773244484224,-3239,16898,10375,3784921,2780658,-1475850,0,0,0,240,286,156,288,151,254,521,524,247,433,500,80,0
2,1773244484224,5197,497,26082,7054271,-389732,-1550375,0,0,0,428,515,202,465,485,503,248,143,362,222,151,414,0
1,1773244484240,6058,-1641,15319,5048190,1613905,-1093448,0,0,0,225,297,175,286,162,286,543,561,261,468,534,93,0
2,1773244484240,4417,1359,28556,7731110,-178372,-1615127,0,0,0,360,478,181,422,428,448,265,176,316,205,140,351,0
1,1773244484256,5154,-3862,22172,4414112,371406,232128,0,0,0,260,300,213,284,229,282,557,583,244,489,554,81,0
2,1773244484256,4326,2234,29514,8354193,206472,-1684766,0,0,0,306,463,178,362,409,380,274,240,267,175,145,293,0
2,1773244484272,6087,3508,27293,8754920,814894,-1912008,0,0,0,252,424,171,338,372,337,301,270,253,163,191,178,0
1,1773244484288,-5379,1182,14247,1507615,130725,312763,0,0,0,238,316,270,340,181,357,577,577,292,518,555,142,0
2,1773244484288,8260,7231,20177,8640077,1059240,-2375044,0,0,0,250,431,185,352,380,368,307,283,270,168,205,204,0
1,1773244484304,-2680,588,9791,861319,79412,-267558,0,0,0,263,322,283,358,215,371,589,589,304,546,567,172,0
2,1773244484304,6748,12830,13658,7217983,206472,-2935818,0,0,0,257,435,183,353,377,353,307,286,256,170,206,183,0
1,1773244484320,-1282,148,9672,530231,-39095,-208915,0,0,0,286,317,348,365,211,385,601,601,314,555,580,216,0
2,1773244484320,3038,20100,11409,2399478,-1551597,-2205223,0,0,0,249,436,179,344,375,345,307,286,249,168,206,177,0
1,1773244484336,-2029,655,10112,316428,29321,-61086,0,0,0,297,349,373,372,243,388,605,605,328,570,587,252,0
2,1773244484336,3637,19822,10710,-2977357,-2448347,-703716,0,0,0,252,435,179,346,374,340,311,288,244,171,205,175,0
1,1773244484352,-2345,1095,10093,201585,139277,-4886,0,0,0,307,373,359,361,296,389,607,607,346,578,589,265,0
2,1773244484352,5474,11318,9337,-5673716,-2246762,173485,0,0,0,254,438,185,349,379,348,311,292,244,167,197,176,0
1,1773244484368,-1957,1206,9954,191811,180816,0,0,0,0,329,364,362,363,286,393,618,607,345,571,593,276,0
2,1773244484368,5972,4809,7044,-5918062,-1905899,199142,0,0,0,255,440,183,351,377,351,310,292,244,170,199,177,0
1,1773244484384,-1708,1162,10160,232128,91629,15882,0,0,0,350,359,385,392,245,404,625,590,339,566,596,302,0
2,1773244484384,6211,3043,4843,-5090950,-1604132,-249233,0,0,0,252,441,181,349,376,350,311,295,244,171,202,177,0
1,1773244484400,-1756,1225,10356,287106,-7330,36651,0,0,0,341,377,391,389,277,427,611,554,365,558,585,325,0
2,1773244484400,7106,4469,4905,-5187467,-1017701,-542448,0,0,0,252,441,182,347,378,349,311,300,244,162,189,177,0
1,1773244484416,-1813,1258,10246,367740,-103847,54977,0,0,0,323,403,364,392,299,421,608,533,353,528,574,319,0
1,1773244484432,-1856,1158,9868,428827,-185703,64751,0,0,0,313,395,384,390,276,447,592,495,378,503,559,336,0
2,1773244484432,5618,4881,7872,-5900958,520457,-504574,0,0,0,258,439,183,355,382,347,313,306,246,160,185,173,0
1,1773244484448,-1895,957,8829,370184,-183259,73303,0,0,0,322,390,357,390,257,447,591,469,378,497,558,341,0
2,1773244484448,4833,4130,9212,-5902179,951728,-6108,0,0,0,256,440,185,352,381,347,313,304,248,158,189,171,0
1,1773244484464,-1952,837,8662,278554,-119729,79412,0,0,0,311,392,346,398,275,442,590,439,380,472,536,353,0
2,1773244484464,4991,3737,10509,-5974262,1402546,514348,0,0,0,254,442,185,349,379,345,313,301,247,165,204,171,0
2,1773244484480,4967,3541,12103,-6126978,1789835,894306,0,0,0,254,444,188,349,379,349,311,300,248,165,206,174,0
1,1773244484496,-2096,880,9691,310319,-36651,84299,0,0,0,311,412,344,400,289,441,582,417,384,465,510,366,0
2,1773244484496,4613,3326,14127,-6287025,2039068,1164309,0,0,0,254,446,188,351,379,350,311,296,250,171,219,174,0
1,1773244484512,-1990,871,9676,300545,13439,90408,0,0,0,316,412,345,404,285,449,576,399,385,459,501,383,0
2,1773244484512,4350,3182,16817,-6421415,2155132,1317025,0,0,0,249,443,186,348,379,349,309,295,248,172,220,175,0
1,1773244484528,-1818,842,9648,288328,32986,91629,0,0,0,314,412,361,394,283,465,569,380,388,456,484,403,0
2,1773244484528,4335,3211,19703,-6588792,2233323,1342681,0,0,0,253,446,192,350,381,353,313,298,254,171,217,172,0
1,1773244484544,-1761,784,9753,301767,6108,83077,0,0,0,316,413,382,391,286,476,567,361,398,442,453,414,0
2,1773244484544,4532,3168,23101,-6806260,2326174,1331686,0,0,0,255,447,194,352,382,356,316,300,256,175,220,178,0
1,1773244484560,-1789,713,9815,322536,-21991,76969,0,0,0,318,415,380,398,281,481,570,338,406,426,416,431,0
2,1773244484560,4690,2632,27504,-6985854,2432465,1440420,0,0,0,256,449,194,350,379,354,317,298,257,173,217,176,0
1,1773244484576,-1880,674,9820,359188,-47647,86742,0,0,0,321,427,357,409,278,490,576,321,409,419,387,464,0
2,1773244484576,3919,14,31433,-6990741,2548529,1931555,0,0,0,253,447,192,353,379,355,318,294,257,173,209,173,0
1,1773244484592,-1966,646,9820,409279,-58643,111177,0,0,0,337,443,359,436,296,515,578,320,423,410,369,494,0
2,1773244484592,2220,-6197,34362,-6807482,2770884,2651155,0,0,0,253,446,185,358,384,356,320,294,254,178,209,173,0
1,1773244484608,-2029,588,9863,474031,-57421,149051,0,0,0,358,444,376,449,312,533,577,296,435,396,346,509,0
2,1773244484608,1172,-18071,34778,-6232047,2357939,3089756,0,0,0,251,446,178,361,385,355,322,296,256,179,206,175,0
1,1773244484624,-2120,550,9987,544891,-56199,189368,0,0,0,385,456,371,453,344,548,579,264,445,366,300,523,0
2,1773244484624,4484,-33462,28466,-5123937,1092227,2506990,0,0,0,250,446,178,361,384,356,324,296,262,182,205,177,0
1,1773244484640,-2354,502,10246,653625,-64751,251676,0,0,0,385,482,361,467,385,543,555,252,481,362,271,520,0
2,1773244484640,5704,-43728,18607,-3599217,1058018,620639,0,0,0,251,445,185,360,384,364,328,299,270,194,209,184,0
1,1773244484656,-2560,402,10543,805120,-75747,348193,0,0,0,404,502,345,512,412,550,511,268,495,344,256,571,0
2,1773244484656,-6532,-46661,15434,-1599245,1952325,-1783726,0,0,0,249,443,185,360,384,369,331,304,273,200,209,188,0
1,1773244484672,-2531,291,10906,981049,-50090,448375,0,0,0,423,534,339,528,396,569,541,219,498,344,231,582,0
1,1773244484688,-2239,210,11471,1191187,-25656,518013,0,0,0,421,541,288,559,438,589,520,210,496,315,203,574,0
2,1773244484688,-9954,-31088,20387,1657888,-1458746,-1932777,0,0,0,248,427,160,358,386,345,384,437,247,182,236,161,0
2,1773244484704,2354,-1052,19832,3072652,-3259576,-1029918,0,0,0,245,406,149,349,361,339,430,460,244,209,301,156,0
1,1773244484720,-1115,-76,12624,1861917,-173485,425162,0,0,0,431,566,237,581,503,607,453,188,488,300,184,587,0
2,1773244484720,10002,19282,12361,3920533,-3814242,130725,0,0,0,253,406,160,348,356,356,461,472,254,241,337,155,0
1,1773244484736,-1789,-143,13347,2304183,-333532,354301,0,0,0,452,567,207,572,551,611,431,189,488,297,186,590,0
2,1773244484736,2421,6030,11509,4748866,-2675589,954171,0,0,0,254,409,166,361,353,371,478,502,255,238,379,154,0
1,1773244484752,-2967,-90,14032,2785545,-357967,412944,0,0,0,477,575,205,553,557,608,383,192,495,280,190,609,0
2,1773244484752,-5853,-3819,18047,5005429,-1293812,822224,0,0,0,261,417,175,368,351,377,518,534,262,313,434,157,0
1,1773244484768,-3895,-110,14922,3408628,-204028,635299,0,0,0,481,580,224,537,535,608,324,187,500,244,176,610,0
2,1773244484768,-3306,-914,21493,4136779,-658512,-174707,0,0,0,279,429,222,383,354,385,550,554,269,355,459,176,0
1,1773244484784,-4603,-81,16400,4147774,-29321,932180,0,0,0,469,566,253,523,517,617,294,188,504,212,158,584,0
2,1773244484784,2077,1502,18803,2904053,-401949,-430049,0,0,0,296,449,248,392,361,397,562,570,280,383,479,208,0
1,1773244484800,-5589,-4,18492,4906469,85521,1252273,0,0,0,464,539,277,508,490,613,284,191,505,190,153,554,0
2,1773244484800,3335,646,13400,1484402,-205250,31764,0,0,0,313,462,281,399,364,413,577,586,302,389,486,234,0
1,1773244484816,-7456,-430,21947,5798332,202807,1657888,0,0,0,439,509,282,482,456,591,275,153,471,157,107,487,0
2,1773244484816,1311,-248,10973,591317,-103847,227241,0,0,0,334,477,299,409,377,427,587,592,314,386,470,257,0
1,1773244484832,-9160,-392,24713,6594901,291993,2087937,0,0,0,382,479,286,417,424,525,240,159,433,162,111,411,0
2,1773244484832,684,311,10409,205250,-91629,122173,0,0,0,350,489,305,421,387,436,590,592,316,394,471,271,0
1,1773244484848,-9566,43,26910,7336491,441044,2554638,0,0,0,304,436,227,422,325,447,304,168,341,168,134,331,0
2,1773244484848,1201,1139,10318,147829,-124616,8552,0,0,0,359,494,314,428,384,441,594,595,319,400,481,281,0
1,1773244484864,-8576,1785,28494,7817853,744033,2907718,0,0,0,235,410,231,306,274,421,241,222,308,139,177,225,0
2,1773244484864,1392,1450,10160,107512,-130725,-10995,0,0,0,366,502,320,427,382,439,594,600,322,401,479,291,0
1,1773244484880,-8992,4077,27724,8223467,938289,3128851,0,0,0,224,314,253,253,210,336,298,241,295,159,211,175,0
2,1773244484880,1316,1454,10093,90408,-122173,3665,0,0,0,372,513,322,428,386,433,591,608,317,416,486,295,0
1,1773244484896,-11648,7413,21095,8451931,877202,3356093,0,0,0,241,305,247,268,183,323,306,252,297,184,264,164,0
2,1773244484896,1220,1483,10145,145385,-141720,-10995,0,0,0,385,515,334,430,386,436,590,610,310,413,474,307,0
1,1773244484912,-12065,12562,13103,7425677,470366,3616322,0,0,0,248,314,224,280,191,321,307,262,287,191,261,161,0
2,1773244484912,1062,1564,10179,240680,-133168,-30543,0,0,0,399,511,340,440,394,445,586,595,314,375,427,322,0
1,1773244484928,-7662,19478,10179,3987728,272445,2712241,0,0,0,248,314,224,279,191,331,309,258,289,187,245,169,0
2,1773244484928,985,1617,10179,334754,-50090,-31764,0,0,0,393,508,338,437,394,444,583,596,313,321,369,340,0
1,1773244484944,-3627,20473,10672,-1958433,878424,-421497,0,0,0,244,315,224,277,189,340,310,260,296,183,240,172,0
2,1773244484944,1100,1497,10069,405614,32986,-18325,0,0,0,392,513,342,441,414,451,575,572,312,407,435,327,0
1,1773244484960,-5853,13055,9073,-4868595,1376890,-2459343,0,0,0,238,319,224,274,191,344,312,270,299,181,247,170,0
2,1773244484960,1244,1301,9911,428827,50090,-14660,0,0,0,403,523,342,444,405,452,573,556,313,326,357,354,0
1,1773244484976,-8944,6097,5929,-4907691,866206,-2504547,0,0,0,232,325,230,270,195,342,311,275,298,183,253,179,0
2,1773244484976,1301,1191,9801,393397,9773,-23212,0,0,0,410,524,354,447,399,457,562,547,340,342,360,353,0
1,1773244484992,-7035,4259,4647,-4139222,-323758,-1395216,0,0,0,229,327,233,267,202,339,305,274,298,187,254,197,0
2,1773244484992,1311,1158,9791,353080,-32986,-35430,0,0,0,405,520,345,451,408,465,554,535,335,324,335,367,0
1,1773244485008,-3613,5580,6149,-4322482,-507018,-919963,0,0,0,229,323,234,267,206,346,311,267,303,187,246,188,0
2,1773244485008,1311,1119,9844,322536,-73303,-48869,0,0,0,411,520,347,451,410,470,548,519,333,294,294,372,0
1,1773244485024,-3024,6235,8293,-5314527,-37873,-1098335,0,0,0,227,323,238,273,189,342,324,261,297,195,246,172,0
2,1773244485024,1282,1057,9834,307876,-98960,-61086,0,0,0,410,526,342,455,412,466,550,503,342,280,269,383,0
1,1773244485040,-4058,5336,9428,-6001140,-87964,-1257160,0,0,0,217,328,233,274,195,348,328,262,300,190,246,172,0
2,1773244485040,1215,1014,9810,294437,-111177,-73303,0,0,0,418,530,344,459,413,467,552,484,342,275,249,390,0
1,1773244485056,-3991,4024,10428,-6283359,-526565,-1243721,0,0,0,222,328,239,281,197,351,330,262,301,192,246,172,0
2,1773244485056,1143,1014,9839,290771,-102625,-74525,0,0,0,426,537,342,455,417,481,556,466,344,269,233,390,0
1,1773244485072,-3474,2895,11801,-6449515,-852767,-1170417,0,0,0,225,328,242,282,191,353,320,257,308,192,249,181,0
2,1773244485072,1115,1028,9911,305432,-83077,-68416,0,0,0,433,546,343,456,424,499,556,447,351,267,228,402,0
1,1773244485088,-3287,2100,13572,-6581462,-990823,-1005484,0,0,0,224,332,230,277,191,337,316,251,301,188,245,180,0
2,1773244485088,1148,1005,9992,343306,-58643,-64751,0,0,0,447,550,356,465,432,504,547,427,353,273,222,426,0
1,1773244485104,-3560,1541,15793,-6724404,-1156978,-702495,0,0,0,219,334,233,277,201,340,316,262,297,188,254,174,0
2,1773244485104,1225,933,10064,399505,-35430,-73303,0,0,0,459,555,354,467,440,499,546,405,364,293,212,450,0
1,1773244485120,-3598,938,18023,-6802595,-1380555,-423940,0,0,0,220,333,239,279,199,344,322,268,298,186,255,169,0
2,1773244485120,1296,861,10122,472809,-14660,-94073,0,0,0,476,563,362,470,448,505,537,379,377,319,213,478,0
2,1773244485136,1320,837,10179,541226,3665,-119729,0,0,0,483,572,371,482,456,510,525,347,391,277,192,505,0
1,1773244485152,-4694,-842,22823,-6665761,-1689653,-723264,0,0,0,236,334,248,285,193,337,329,264,298,192,248,171,0
2,1773244485152,1474,775,10323,626747,32986,-153938,0,0,0,499,587,364,497,468,529,509,314,399,291,196,527,0
1,1773244485168,-6599,-2321,25824,-6454402,-1998751,-1440420,0,0,0,224,333,248,283,193,332,330,259,291,193,249,171,0
2,1773244485168,1732,646,10586,733038,53756,-216246,0,0,0,500,580,364,504,486,545,490,273,423,271,177,545,0
1,1773244485184,-7614,-5288,29083,-6280916,-2472782,-2211332,0,0,0,219,335,248,280,197,334,330,260,292,189,248,170,0
2,1773244485184,1866,583,11036,899193,8552,-298102,0,0,0,530,598,356,504,491,553,479,251,414,278,183,567,0
1,1773244485200,-7016,-11457,31399,-6148969,-2785545,-2671924,0,0,0,224,339,255,282,198,340,332,260,295,188,244,167,0
2,1773244485200,1737,564,11605,1139874,-39095,-362853,0,0,0,528,590,326,525,503,559,460,235,417,282,184,584,0
1,1773244485216,-6470,-20866,29600,-5865528,-2508212,-2214997,0,0,0,223,340,245,274,199,329,325,265,295,184,245,164,0
2,1773244485216,1277,526,12256,1473406,-36651,-381179,0,0,0,543,608,323,523,509,562,437,229,407,273,175,605,0
1,1773244485232,-3819,-30002,24536,-5171585,-2367713,-1115439,0,0,0,213,340,236,271,206,333,327,279,299,178,245,161,0
2,1773244485232,1048,411,12792,1864360,-7330,-338419,0,0,0,549,607,289,523,518,560,380,218,428,280,180,622,0
1,1773244485248,4723,-35855,18937,-3882659,-2447126,31764,0,0,0,224,345,228,290,205,327,330,271,294,186,245,161,0
2,1773244485248,1340,296,13452,2280970,-20769,-301767,0,0,0,560,608,257,521,525,578,328,212,424,278,180,628,0
1,1773244485264,14099,-40607,15625,-2169793,-1495398,669508,0,0,0,213,346,244,271,218,336,329,274,298,180,247,162,0
2,1773244485264,2120,263,14395,2838079,-122173,-340862,0,0,0,571,600,245,532,540,582,290,211,405,276,180,632,0
1,1773244485280,16865,-43790,14371,-547335,164933,1102000,0,0,0,206,327,223,270,200,327,333,295,290,204,303,150,0
2,1773244485280,2665,263,15400,3418401,-244346,-444709,0,0,0,581,592,245,526,550,567,261,204,404,274,180,632,0
1,1773244485296,11026,-33572,16353,1098335,1857030,1346346,0,0,0,208,317,186,283,198,298,402,382,285,291,399,141,0
2,1773244485296,3263,382,16817,4221078,-406836,-630412,0,0,0,581,591,251,507,557,553,241,179,407,266,171,614,0
1,1773244485312,483,-6188,17439,2767219,3448945,1066570,0,0,0,220,292,156,285,169,270,453,458,261,348,436,114,0
1,1773244485328,-7379,15381,13668,3952298,4100127,234572,0,0,0,224,285,204,275,160,296,496,500,289,400,466,118,0
2,1773244485328,4790,392,21761,5984035,-653625,-1202182,0,0,0,520,553,255,507,538,534,240,129,389,235,155,492,0
1,1773244485344,-2617,6838,14146,5022533,2833192,-345749,0,0,0,222,287,210,282,162,318,520,520,312,442,497,133,0
2,1773244485344,4804,588,25752,6894225,-687834,-1415985,0,0,0,443,526,221,487,494,495,245,135,359,237,144,423,0
2,1773244485360,5163,1502,28150,7662693,-432492,-1547932,0,0,0,369,493,187,445,455,451,265,170,321,216,140,364,0
1,1773244485376,1474,-1919,21574,4189313,241902,587652,0,0,0,243,292,239,306,168,292,570,576,238,492,540,105,0
2,1773244485376,4958,2498,29097,8333423,20769,-1729970,0,0,0,313,460,159,392,414,401,273,223,271,182,138,315,0
1,1773244485392,-3938,-215,17717,2601064,162490,646295,0,0,0,267,301,297,325,185,305,585,587,259,515,547,111,0
2,1773244485392,6106,3531,27738,8763472,596204,-2017077,0,0,0,251,427,177,339,377,345,303,277,258,135,130,187,0
1,1773244485408,-4522,86,11911,1291369,197920,-51312,0,0,0,252,328,295,351,223,364,579,579,316,538,553,177,0
2,1773244485408,7791,6479,21488,8719490,780685,-2450791,0,0,0,251,432,185,349,384,362,315,298,272,133,139,187,0
1,1773244485424,-2072,-157,9897,624304,141720,-259006,0,0,0,284,340,331,359,210,386,584,580,326,557,566,211,0
2,1773244485424,7197,11993,13692,7413460,-6108,-2973691,0,0,0,250,434,181,351,392,362,317,304,269,133,141,186,0
1,1773244485440,-1368,33,10107,212581,130725,-125838,0,0,0,307,348,350,388,223,376,597,588,314,581,581,218,0
2,1773244485440,4374,19028,11174,3119077,-1163087,-2558303,0,0,0,253,436,179,355,390,354,319,303,256,136,142,180,0
1,1773244485456,-1986,670,10442,63529,131946,-6108,0,0,0,321,335,328,394,245,362,612,588,311,590,589,239,0
2,1773244485456,2967,19966,11112,-1904677,-1769065,-1252273,0,0,0,255,437,179,354,389,352,322,304,254,137,144,179,0
1,1773244485472,-2177,1076,10174,65973,101403,1221,0,0,0,339,341,328,394,240,385,618,583,314,581,603,287,0
