sole_id,timestamp,accel_x,accel_y,accel_z,gyro_x,gyro_y,gyro_z,magn_x,magn_y,magn_z,pressure_01,pressure_02,pressure_03,pressure_04,pressure_05,pressure_06,pressure_07,pressure_08,pressure_09,pressure_10,pressure_11,pressure_12,corrupt
1,1773251382224,-2569,-57,10643,692721,1221,-78190,0,0,0,302,321,328,333,176,342,539,539,288,504,513,188,0
1,1773251382240,-1775,545,9796,207694,41538,-103847,0,0,0,302,327,312,333,184,357,543,544,305,522,523,224,0
1,1773251382256,-1919,813,9916,37873,114842,-30543,0,0,0,318,338,293,346,202,367,556,555,305,539,539,234,0
1,1773251382272,-2019,904,10074,-28099,133168,-18325,0,0,0,324,334,297,346,198,365,565,565,317,547,547,253,0
1,1773251382288,-2000,990,10078,-31764,109955,-24434,0,0,0,323,334,300,354,222,359,583,572,302,562,562,249,0
1,1773251382304,-1928,1172,9973,21991,78190,-3665,0,0,0,320,346,300,364,247,369,587,570,309,566,566,258,0
1,1773251382320,-1885,1263,9978,117286,36651,20769,0,0,0,321,359,301,372,258,383,583,561,320,560,561,271,0
1,1773251382336,-1871,1177,10050,212581,-20769,34208,0,0,0,327,367,308,371,264,392,582,545,322,558,564,282,0
1,1773251382352,-1904,1052,9968,266337,-79412,40317,0,0,0,331,374,311,371,271,395,584,530,316,558,568,284,0
1,1773251382368,-1938,971,9786,277332,-102625,42760,0,0,0,335,379,310,376,273,396,586,512,311,548,560,295,0
1,1773251382384,-1976,918,9672,255341,-92851,43982,0,0,0,338,385,310,382,268,398,575,489,319,534,541,309,0
1,1773251382400,-2000,880,9648,222354,-63529,46425,0,0,0,337,393,317,392,272,403,557,478,330,529,524,291,0
1,1773251382416,-1971,856,9633,184481,-32986,52534,0,0,0,335,379,329,389,263,407,575,493,320,518,515,296,0
1,1773251382432,-1919,847,9633,152716,-21991,54977,0,0,0,326,380,317,388,264,408,575,488,328,508,503,306,0
1,1773251382448,-1890,851,9652,136833,-31764,54977,0,0,0,328,381,307,391,257,413,572,484,343,508,487,319,0
2,1773251382448,-9,-9,9,0,0,0,0,0,0,251,452,200,344,423,369,355,327,268,127,130,187,0
1,1773251382464,-1899,861,9657,123394,-42760,51312,0,0,0,327,387,322,376,262,419,574,479,339,485,495,325,0
2,1773251382464,-3230,-2904,4221,-76969,-83077,29321,0,0,0,252,452,200,338,424,368,360,330,272,130,130,188,0
1,1773251382480,-1928,861,9643,119729,-39095,47647,0,0,0,327,387,318,375,264,418,575,474,343,477,462,325,0
1,1773251382496,-1943,875,9633,129503,-23212,45204,0,0,0,331,392,315,373,264,417,575,460,340,504,443,330,0
2,1773251382496,-1813,2526,16616,-3751934,-117286,1031140,0,0,0,258,447,203,373,402,385,361,332,276,130,132,191,0
1,1773251382512,-1919,866,9672,158824,-9773,45204,0,0,0,331,406,310,374,285,423,568,450,338,490,445,339,0
2,1773251382512,1617,5862,16333,-5899736,1374446,1126435,0,0,0,257,447,203,374,401,384,361,330,274,130,134,190,0
1,1773251382528,-1876,804,9710,183259,-14660,45204,0,0,0,337,424,312,383,300,426,560,445,341,471,442,352,0
2,1773251382528,2091,5537,17937,-6619335,2173458,1067792,0,0,0,259,446,204,373,401,385,364,331,277,130,132,192,0
1,1773251382544,-1866,770,9767,212581,-39095,52534,0,0,0,352,431,318,393,304,432,557,438,344,463,424,375,0
2,1773251382544,1531,3890,21808,-6505714,2090380,1161865,0,0,0,258,444,203,376,402,388,364,328,278,129,127,190,0
1,1773251382560,-1914,794,9825,271224,-67195,69638,0,0,0,365,428,318,400,307,441,562,417,353,455,398,396,0
2,1773251382560,2067,3182,25302,-6544810,1933999,1579697,0,0,0,256,448,204,376,402,387,364,327,276,131,123,201,0
1,1773251382576,-1966,760,9830,345749,-85521,96516,0,0,0,372,434,318,405,314,451,562,390,373,436,374,415,0
2,1773251382576,2794,1229,28504,-6627887,1962099,2265088,0,0,0,258,448,200,375,400,381,361,322,270,133,126,208,0
1,1773251382592,-1990,670,9844,409279,-92851,124616,0,0,0,377,452,325,422,323,465,549,374,384,405,351,449,0
2,1773251382592,3656,-4417,31538,-6575353,2247984,3099530,0,0,0,262,449,200,377,395,379,369,315,270,133,122,204,0
1,1773251382608,-2000,603,9882,467922,-96516,149051,0,0,0,379,451,321,451,326,469,553,358,381,395,321,476,0
2,1773251382608,3235,-14917,33117,-6255260,2422691,3452610,0,0,0,263,448,194,381,401,381,374,314,271,135,119,204,0
1,1773251382624,-2062,550,10011,535117,-101403,172263,0,0,0,390,467,348,465,321,495,548,321,400,383,302,511,0
2,1773251382624,4216,-28131,29715,-5534439,1602910,3076317,0,0,0,265,448,195,383,400,385,373,317,276,136,121,209,0
2,1773251382640,5173,-37827,20114,-3878994,987158,1369559,0,0,0,263,446,196,382,400,385,373,321,279,138,126,213,0
1,1773251382656,-2373,488,10495,695164,-50090,239459,0,0,0,387,487,327,475,425,542,529,256,407,338,250,528,0
2,1773251382656,-765,-40641,14591,-1901012,1276708,-758694,0,0,0,264,446,197,381,398,384,374,321,277,143,126,211,0
1,1773251382672,-2330,416,10811,831998,-26878,288328,0,0,0,404,509,311,502,464,542,497,232,424,319,230,547,0
2,1773251382672,-10801,-38042,15668,-327423,955393,-2008524,0,0,0,259,449,194,362,407,375,390,353,275,146,145,204,0
1,1773251382688,-2144,311,11395,1055575,-31764,334754,0,0,0,438,522,292,509,444,542,483,224,430,306,213,553,0
2,1773251382688,-9806,-31734,17827,926071,-806342,-1650557,0,0,0,247,443,177,354,406,363,414,415,268,156,188,199,0
1,1773251382704,-2091,224,12294,1413542,-61086,368962,0,0,0,440,516,267,525,451,561,432,211,430,305,216,566,0
2,1773251382704,-1158,-11366,18578,2448347,-2410474,-956614,0,0,0,243,423,158,369,384,360,431,468,257,184,237,198,0
1,1773251382720,-2330,148,13017,1819156,-64751,408057,0,0,0,460,512,266,532,436,572,393,191,439,298,196,567,0
2,1773251382720,6398,9121,13041,3343876,-2839301,-244346,0,0,0,249,410,162,364,373,364,453,482,258,219,293,191,0
1,1773251382736,-2703,67,13697,2321287,-18325,491135,0,0,0,461,510,248,527,433,571,355,180,441,282,181,566,0
1,1773251382752,-3350,196,14443,2910161,80634,631634,0,0,0,455,501,218,511,429,560,300,176,426,264,172,565,0
2,1773251382752,-1234,-416,13318,4564385,-878424,918741,0,0,0,249,410,159,368,368,379,476,518,265,330,441,161,0
1,1773251382768,-4039,244,15333,3511253,227241,862541,0,0,0,453,495,213,478,422,539,254,171,409,229,149,553,0
2,1773251382768,-4192,-1454,17851,4152661,-394618,272445,0,0,0,257,418,174,379,376,385,516,517,284,219,341,195,0
1,1773251382784,-4551,282,16812,4175874,353080,1131322,0,0,0,441,491,225,442,428,514,240,159,398,187,128,524,0
2,1773251382784,-856,923,18664,3220481,-361632,-588874,0,0,0,277,436,221,392,381,400,527,527,298,222,353,196,0
1,1773251382800,-5431,153,19176,4921130,453262,1411098,0,0,0,446,463,237,425,392,496,234,144,376,187,123,468,0
2,1773251382800,3670,1569,15931,2186897,-376292,-557109,0,0,0,278,450,253,396,393,412,535,535,305,232,358,209,0
1,1773251382816,-6762,-181,21741,5654168,603534,1706757,0,0,0,419,436,233,411,358,470,222,153,363,176,136,407,0
2,1773251382816,2790,665,12304,1244943,-248011,4886,0,0,0,301,464,278,404,391,428,553,553,313,266,414,235,0
1,1773251382832,-7772,119,23215,6306572,758694,2035402,0,0,0,326,419,208,367,337,428,237,169,345,177,150,343,0
2,1773251382832,1095,502,10193,605978,-171042,228463,0,0,0,327,471,307,405,391,435,571,579,303,272,421,282,0
1,1773251382848,-7111,981,24082,6831916,855211,2348165,0,0,0,294,398,215,332,272,362,242,187,308,183,157,307,0
2,1773251382848,914,732,10246,299323,-185703,125838,0,0,0,351,480,331,407,392,438,577,586,302,308,437,277,0
2,1773251382864,1167,942,10399,108734,-197920,37873,0,0,0,366,487,333,415,396,439,581,593,301,303,445,297,0
1,1773251382880,-7930,3527,22239,7550294,1634675,2631607,0,0,0,251,304,218,277,183,279,342,255,261,214,254,141,0
2,1773251382880,1273,1210,10222,-1221,-167377,14660,0,0,0,372,489,334,420,398,444,586,594,303,299,459,299,0
1,1773251382896,-10825,6384,14524,7269296,1938886,2775771,0,0,0,243,301,230,271,181,302,325,263,280,206,266,153,0
2,1773251382896,1215,1383,10069,-10995,-120951,14660,0,0,0,377,489,335,424,398,445,584,594,302,322,482,299,0
1,1773251382912,-12452,12108,9710,5899736,1382998,2761110,0,0,0,242,309,225,274,180,297,324,260,272,208,263,150,0
2,1773251382912,1229,1483,10031,17104,-98960,1221,0,0,0,382,491,336,425,400,445,583,595,300,334,489,312,0
1,1773251382928,-8030,19267,10174,1661553,254119,1452637,0,0,0,245,314,224,288,178,293,344,255,261,213,262,148,0
2,1773251382928,1215,1526,10078,75747,-94073,-10995,0,0,0,383,495,338,424,403,450,586,592,309,304,449,322,0
1,1773251382944,-4259,17975,9997,-2149023,559552,-494800,0,0,0,247,316,223,290,178,291,346,254,258,212,264,149,0
2,1773251382944,1139,1564,10117,147829,-48869,-19547,0,0,0,379,497,333,425,407,456,583,583,320,273,384,331,0
1,1773251382960,-6441,10667,6609,-3646865,1290147,-1705535,0,0,0,248,315,222,282,181,291,335,255,262,210,268,150,0
2,1773251382960,1091,1550,10069,226020,28099,-25656,0,0,0,373,497,333,425,410,459,581,581,322,267,366,341,0
1,1773251382976,-9040,5647,3694,-3242472,367740,-1332907,0,0,0,248,315,226,278,184,295,334,256,269,210,270,153,0
2,1773251382976,1153,1454,9949,294437,95294,-31764,0,0,0,380,511,333,428,410,462,587,584,314,263,346,348,0
1,1773251382992,-6944,4900,4144,-3020117,-707381,-744033,0,0,0,249,319,229,276,185,295,336,256,272,212,270,156,0
1,1773251383008,-3560,5843,6441,-3522248,-781907,-669508,0,0,0,251,325,228,279,189,294,346,257,270,222,272,153,0
2,1773251383008,1368,1330,9863,356745,81855,-34208,0,0,0,397,505,351,430,408,468,581,563,334,250,276,366,0
1,1773251383024,-4115,5513,7719,-4353025,-335975,-1066570,0,0,0,250,322,229,280,184,290,354,257,271,225,271,152,0
2,1773251383024,1416,1316,9853,382401,35430,-40317,0,0,0,403,507,330,434,415,468,573,560,341,266,299,380,0
1,1773251383040,-5321,4359,8499,-4937012,-498466,-1363451,0,0,0,246,325,229,277,191,299,345,259,276,220,273,152,0
2,1773251383040,1426,1253,9815,400727,-14660,-50090,0,0,0,404,508,318,450,430,479,575,557,348,259,274,383,0
1,1773251383056,-4795,3335,9863,-5199684,-1051909,-1558928,0,0,0,246,319,230,277,183,297,345,257,276,220,264,151,0
2,1773251383056,1373,1143,9786,388510,-54977,-58643,0,0,0,411,509,317,455,431,484,573,541,350,258,253,395,0
2,1773251383072,1301,1057,9810,367740,-75747,-64751,0,0,0,419,508,317,460,450,492,575,516,347,315,289,393,0
1,1773251383088,-4398,1828,13376,-5799554,-1352455,-1841147,0,0,0,242,322,235,271,187,303,324,262,280,207,274,157,0
2,1773251383088,1277,1043,9868,360410,-69638,-69638,0,0,0,430,518,320,459,455,502,572,496,351,280,238,411,0
1,1773251383104,-4690,851,15089,-6047565,-1505171,-1628566,0,0,0,243,326,237,273,187,301,327,262,280,209,274,156,0
2,1773251383104,1311,1028,9901,377514,-61086,-68416,0,0,0,439,528,331,462,449,510,568,480,356,242,193,430,0
1,1773251383120,-4302,-143,17128,-6117204,-1707979,-1159422,0,0,0,244,325,238,275,184,302,335,261,284,213,273,156,0
2,1773251383120,1330,971,9897,400727,-62308,-65973,0,0,0,446,533,335,468,447,515,566,459,360,246,192,445,0
1,1773251383136,-3680,-799,19200,-6023131,-1743409,-781907,0,0,0,242,325,238,275,185,305,338,262,286,217,274,160,0
2,1773251383136,1320,890,9944,431270,-59864,-67195,0,0,0,452,537,330,472,454,516,566,436,370,250,186,461,0
1,1773251383152,-3795,-1340,21067,-5885075,-1704314,-697608,0,0,0,241,326,238,274,188,305,331,262,286,216,271,162,0
2,1773251383152,1330,808,10045,466701,-34208,-78190,0,0,0,463,543,335,482,462,522,567,414,390,251,178,479,0
1,1773251383168,-4599,-2316,22919,-5687155,-1865582,-1084896,0,0,0,239,326,238,269,189,305,321,261,284,210,268,160,0
2,1773251383168,1421,775,10150,513126,1221,-101403,0,0,0,479,548,342,493,464,528,562,380,401,253,172,500,0
1,1773251383184,-4556,-4015,24824,-5490456,-2166128,-1683544,0,0,0,237,327,239,267,189,307,317,261,284,206,267,159,0
2,1773251383184,1517,746,10217,570548,36651,-134390,0,0,0,489,549,343,492,464,530,556,338,395,292,176,513,0
1,1773251383200,-4158,-7279,26743,-5305975,-2309070,-2277305,0,0,0,238,329,241,268,188,306,320,262,288,203,261,156,0
2,1773251383200,1564,631,10323,640186,69638,-171042,0,0,0,503,555,345,498,478,540,532,307,402,429,216,515,0
1,1773251383216,-5532,-13586,26580,-5169141,-2030516,-2268753,0,0,0,236,329,234,270,189,304,323,263,288,209,265,154,0
2,1773251383216,1660,502,10605,742812,89186,-213802,0,0,0,509,566,337,512,486,540,521,274,417,264,157,565,0
1,1773251383232,-6886,-20301,23378,-5071403,-1909564,-1414763,0,0,0,241,329,235,273,186,302,328,259,284,212,264,149,0
2,1773251383232,1837,521,11150,957836,63529,-268780,0,0,0,515,568,335,517,502,554,507,253,432,271,178,576,0
1,1773251383248,-2148,-26958,18832,-4627915,-2321287,-87964,0,0,0,243,333,234,277,188,300,330,262,281,209,264,146,0
1,1773251383264,6700,-32591,15439,-3569896,-2389704,762359,0,0,0,247,336,234,280,188,298,337,267,281,213,268,146,0
2,1773251383264,1306,449,12428,1689653,163711,-329867,0,0,0,514,565,292,550,538,576,456,231,444,265,165,596,0
1,1773251383280,12572,-36386,13792,-1979203,-1543045,801455,0,0,0,244,309,213,294,182,296,402,250,267,259,279,138,0
2,1773251383280,1268,268,12845,2081828,233350,-306654,0,0,0,519,573,261,547,535,582,417,223,450,274,175,602,0
2,1773251383296,1861,224,13500,2549751,227241,-315206,0,0,0,527,570,240,541,538,588,371,219,458,270,177,608,0
1,1773251383312,9332,-27628,16941,1905899,2357939,345749,0,0,0,250,278,169,279,154,236,444,433,241,310,410,115,0
2,1773251383312,2498,196,14395,3062878,131946,-383623,0,0,0,530,567,228,537,547,600,335,215,457,259,171,610,0
1,1773251383328,2435,-6001,15860,3916867,4520402,-161268,0,0,0,249,274,148,268,151,222,473,472,245,373,435,117,0
2,1773251383328,3091,110,15582,3712838,-7330,-526565,0,0,0,535,558,225,532,543,603,312,206,454,252,167,608,0
1,1773251383344,-847,8164,14869,4886921,4035375,-678060,0,0,0,244,275,144,277,154,239,496,500,252,400,460,112,0
2,1773251383344,3895,272,17252,4538728,-113620,-761138,0,0,0,540,550,230,520,534,596,303,186,458,245,160,590,0
1,1773251383360,3096,3742,17812,4915021,1943773,-442266,0,0,0,243,275,150,292,155,256,513,516,258,422,481,108,0
2,1773251383360,4656,368,19530,5391496,-213802,-1028697,0,0,0,526,545,241,509,531,587,301,164,450,230,145,541,0
1,1773251383376,2464,-1856,21493,4074471,679282,531452,0,0,0,257,276,174,294,179,258,528,528,264,454,501,110,0
2,1773251383376,4967,315,23024,6316346,-289550,-1275486,0,0,0,481,526,234,510,515,570,291,149,419,216,133,464,0
1,1773251383392,-2555,-1780,20014,2875953,383623,736703,0,0,0,269,280,213,300,199,271,544,544,264,477,517,121,0
2,1773251383392,5039,832,26685,7183775,-131946,-1420872,0,0,0,422,503,197,497,483,534,282,148,387,203,132,394,0
1,1773251383408,-4651,-220,14630,1638340,324980,128281,0,0,0,266,286,262,321,173,311,557,556,269,495,525,145,0
2,1773251383408,4637,1555,29514,8078081,244346,-1547932,0,0,0,364,481,165,449,449,477,293,189,345,181,125,345,0
1,1773251383424,-2622,291,10035,799011,216246,-268780,0,0,0,295,295,303,326,178,322,566,567,279,493,526,152,0
2,1773251383424,4412,2163,30318,8699942,714712,-1682322,0,0,0,310,455,172,386,414,409,313,262,292,150,123,280,0
1,1773251383440,-1622,90,9432,357967,216246,-206472,0,0,0,292,310,264,345,185,333,574,574,287,526,538,186,0
2,1773251383440,5958,3780,27872,8962614,1341460,-1925447,0,0,0,267,438,199,348,378,370,333,304,275,110,112,183,0
1,1773251383456,-1828,349,10313,117286,279776,-52534,0,0,0,289,320,282,345,193,350,582,582,298,530,546,212,0
2,1773251383456,7188,8509,18966,8484918,1659109,-2360383,0,0,0,255,438,196,362,395,392,350,320,294,118,120,200,0
1,1773251383472,-1966,875,10370,35430,271224,-7330,0,0,0,306,323,325,356,196,374,570,570,315,542,545,238,0
2,1773251383472,5005,15223,11682,5920505,612086,-2703689,0,0,0,253,439,193,362,395,384,346,309,280,118,119,190,0
1,1773251383488,-1842,1081,10160,106290,173485,-4886,0,0,0,314,343,324,357,207,380,580,580,323,549,550,263,0
2,1773251383488,2751,20028,11055,1254717,-879645,-2240653,0,0,0,254,439,188,360,393,375,350,313,275,122,121,189,0
1,1773251383520,-1775,933,10318,278554,-32986,29321,0,0,0,320,354,328,367,220,373,577,564,315,551,552,280,0
2,1773251383520,3814,9131,8552,-4373795,-2223549,-652404,0,0,0,256,438,198,363,392,388,357,318,279,125,123,201,0
1,1773251383536,-1890,971,10179,333532,-96516,42760,0,0,0,320,358,325,374,224,382,569,540,323,532,528,289,0
2,1773251383536,5317,4809,4340,-4223522,-2166128,-669508,0,0,0,257,439,197,365,391,383,358,320,278,127,123,197,0
1,1773251383552,-1928,918,9901,378736,-125838,54977,0,0,0,322,367,331,372,226,397,558,508,335,526,503,309,0
2,1773251383552,6106,5369,2971,-4136779,-1538158,-929736,0,0,0,256,440,194,366,391,377,358,323,274,127,124,191,0
1,1773251383568,-1938,818,9451,370184,-117286,59864,0,0,0,325,371,335,371,234,402,554,484,344,528,480,333,0
2,1773251383568,5340,6719,4642,-4827057,-729373,-961501,0,0,0,257,441,197,366,392,377,356,322,272,126,124,189,0
1,1773251383584,-1952,746,8954,316428,-75747,65973,0,0,0,324,369,331,377,246,403,557,470,350,508,457,342,0
2,1773251383584,4412,6523,6508,-5529552,-158824,-755029,0,0,0,257,441,197,368,394,378,357,322,272,127,124,187,0
1,1773251383600,-1962,689,9102,284663,-41538,74525,0,0,0,322,371,334,384,243,410,537,442,360,469,447,344,0
2,1773251383600,4627,5173,7370,-5772676,218689,-383623,0,0,0,256,440,194,370,398,377,359,325,271,128,124,186,0
1,1773251383616,-1943,636,9643,290771,-26878,78190,0,0,0,325,377,339,386,236,414,515,416,366,456,445,357,0
2,1773251383616,4857,4259,8356,-5874080,775798,-13439,0,0,0,255,440,192,369,402,376,359,327,268,132,127,191,0
1,1773251383632,-1904,617,9801,287106,-17104,79412,0,0,0,327,387,335,386,246,415,540,443,349,459,434,365,0
2,1773251383632,4393,4053,9978,-5999918,1308473,326202,0,0,0,256,442,193,372,395,374,360,326,264,141,131,205,0
1,1773251383648,-1852,607,9719,278554,-13439,80634,0,0,0,331,387,334,384,254,412,535,434,349,450,427,369,0
2,1773251383648,3977,4082,12098,-6247929,1568701,690277,0,0,0,260,443,198,372,392,373,362,324,266,136,129,202,0
1,1773251383664,-1804,603,9739,285884,-29321,80634,0,0,0,330,392,315,388,266,412,533,418,343,439,410,380,0
2,1773251383664,4288,3938,14419,-6565579,1748296,998153,0,0,0,258,444,196,375,395,374,362,324,271,134,127,202,0
1,1773251383680,-1842,559,9767,313984,-36651,76969,0,0,0,327,400,317,399,270,414,544,379,335,435,394,401,0
2,1773251383680,4824,3297,16970,-6800151,1977981,1049466,0,0,0,262,445,198,375,395,376,362,327,269,134,127,209,0
1,1773251383696,-1871,512,9786,350636,-34208,78190,0,0,0,339,403,318,393,286,419,547,363,339,409,367,418,0
2,1773251383696,5020,2440,19999,-6906442,2212553,990823,0,0,0,259,444,196,369,391,373,361,327,266,133,125,207,0
1,1773251383712,-1856,488,9873,403171,-39095,87964,0,0,0,342,404,304,409,306,429,544,352,341,401,350,429,0
2,1773251383712,5068,1765,23426,-6893003,2346944,954171,0,0,0,257,443,197,369,392,380,363,327,266,132,124,213,0
2,1773251383728,5173,1167,28154,-6871012,2331061,1207069,0,0,0,261,444,197,374,394,377,364,323,266,136,124,214,0
1,1773251383744,-2005,325,10016,541226,-101403,138055,0,0,0,369,433,307,420,341,466,533,293,366,350,295,463,0
2,1773251383744,5589,-880,31796,-6874677,2258979,1831373,0,0,0,260,442,193,375,393,374,364,320,269,134,123,212,0
1,1773251383760,-2153,258,10031,613308,-113620,188146,0,0,0,377,450,314,440,341,483,532,282,383,336,281,490,0
2,1773251383760,5967,-6992,32835,-6795264,2689028,2759889,0,0,0,263,444,195,376,394,378,367,322,274,157,132,208,0
1,1773251383776,-2354,191,10184,711047,-106290,261450,0,0,0,386,455,302,445,328,489,522,265,394,322,254,518,0
2,1773251383776,3441,-18272,32979,-6208834,3387858,3274237,0,0,0,266,447,194,377,398,379,371,324,277,151,129,212,0
1,1773251383792,-2421,38,10370,827111,-92851,346971,0,0,0,394,455,280,448,342,497,507,242,394,301,225,536,0
2,1773251383792,1354,-29863,29322,-5172806,2640159,3042108,0,0,0,267,447,191,380,400,382,376,324,279,137,123,212,0
1,1773251383808,-2263,-81,10830,968832,-92851,422718,0,0,0,412,476,284,461,367,515,492,220,410,288,205,548,0
2,1773251383808,985,-39717,19942,-3595552,1560149,1604132,0,0,0,269,444,190,386,399,386,384,325,281,140,125,209,0
1,1773251383824,-1923,-52,11619,1185078,-131946,445931,0,0,0,427,494,288,482,368,528,465,209,434,283,190,553,0
2,1773251383824,-2675,-45364,13898,-1894903,1328021,-445931,0,0,0,265,439,182,382,395,377,395,361,276,168,158,201,0
1,1773251383840,-1507,-162,12141,1501506,-226020,425162,0,0,0,433,491,245,516,383,533,442,210,439,288,189,551,0
2,1773251383840,-10418,-45800,16597,-174707,822224,-2053728,0,0,0,250,424,166,364,384,360,412,439,259,212,236,185,0
1,1773251383856,-1282,-335,12624,1879021,-387288,359188,0,0,0,436,485,233,514,411,529,412,184,435,276,172,560,0
2,1773251383856,-11691,-31002,21828,2450791,-2070833,-1639562,0,0,0,245,398,152,356,367,351,443,479,249,221,306,192,0
1,1773251383872,-1976,-311,13361,2317622,-559552,318871,0,0,0,433,489,196,541,434,539,375,185,459,262,163,571,0
2,1773251383872,239,387,17851,5051855,-4654793,-244346,0,0,0,256,394,152,363,359,369,486,488,267,247,358,172,0
1,1773251383888,-3302,-229,14534,2893057,-547335,441044,0,0,0,422,479,199,532,390,563,352,154,449,245,134,577,0
1,1773251383904,-4556,-134,16046,3608991,-361632,687834,0,0,0,459,484,205,490,380,535,252,145,433,226,114,564,0
2,1773251383904,-2187,1856,20205,5406157,-1578475,778242,0,0,0,269,419,188,343,399,377,523,523,295,254,398,210,0
1,1773251383920,-5910,114,17965,4415333,-76969,1034805,0,0,0,431,485,211,465,380,531,228,141,433,182,105,535,0
2,1773251383920,-5211,-3134,25092,4271169,-364075,-106290,0,0,0,281,445,257,392,377,409,533,534,298,277,391,223,0
1,1773251383936,-7729,57,21258,5346292,234572,1489289,0,0,0,421,452,228,440,375,525,226,137,424,156,97,472,0
2,1773251383936,296,-760,19483,2422691,-168598,-367740,0,0,0,301,451,266,401,377,421,547,548,308,273,378,247,0
2,1773251383952,2833,1273,12179,1116661,28099,-40317,0,0,0,327,466,292,412,385,437,558,559,323,264,381,265,0
1,1773251383968,-10351,440,26848,7016398,724486,2533869,0,0,0,333,394,206,361,285,421,229,156,337,150,116,327,0
2,1773251383968,2024,1306,8198,521678,119729,256563,0,0,0,342,479,303,421,395,447,569,569,326,271,383,292,0
1,1773251383984,-9303,1737,28154,7569842,890641,2932153,0,0,0,278,363,199,313,244,341,265,203,291,166,175,236,0
2,1773251383984,1234,588,9490,261450,-123394,157603,0,0,0,361,486,320,418,394,447,575,575,324,270,375,301,0
1,1773251384000,-9289,3881,28092,8042651,1121548,3182607,0,0,0,261,313,199,301,204,292,339,236,259,193,231,158,0
2,1773251384000,1139,894,10710,29321,-365297,24434,0,0,0,367,489,320,436,401,456,576,576,320,279,376,311,0
1,1773251384016,-11897,7202,20559,8169711,1462411,3384193,0,0,0,263,284,197,308,188,280,380,247,254,208,254,125,0
2,1773251384016,1143,1579,10394,6108,-339641,8552,0,0,0,376,494,327,451,408,464,575,575,328,287,377,319,0
1,1773251384032,-14118,11978,12227,7494094,1285260,3617543,0,0,0,258,295,196,304,202,289,346,257,264,205,253,134,0
2,1773251384032,1148,1852,10112,102625,-245567,9773,0,0,0,393,500,340,451,409,468,575,575,338,287,367,331,0
1,1773251384048,-10619,19095,10509,4186870,273667,2775771,0,0,0,258,297,197,315,203,287,348,264,261,199,248,138,0
2,1773251384048,1081,1713,10169,227241,-196698,-1221,0,0,0,402,504,344,448,409,475,577,577,337,282,349,351,0
1,1773251384064,-5039,21861,11174,-356745,112399,616973,0,0,0,237,309,205,290,215,290,344,296,255,192,255,134,0
2,1773251384064,942,1684,10256,304210,-125838,-19547,0,0,0,406,509,348,450,411,477,580,578,340,274,320,364,0
1,1773251384080,-4192,15635,9739,-4092797,1193630,-2039068,0,0,0,239,312,221,277,210,289,336,280,256,189,252,139,0
2,1773251384080,890,1737,10222,376292,-4886,-28099,0,0,0,410,511,347,458,412,475,582,575,347,264,283,372,0
1,1773251384096,-9121,7628,5345,-4183205,989601,-2312735,0,0,0,254,306,226,304,203,289,359,275,252,202,252,136,0
2,1773251384096,985,1646,10074,439822,95294,-28099,0,0,0,409,511,344,455,417,482,581,555,340,261,270,379,0
1,1773251384112,-9107,4867,3761,-3578448,-405614,-1401324,0,0,0,270,301,232,332,197,289,383,271,248,216,252,133,0
2,1773251384112,1119,1450,9920,469144,139277,-31764,0,0,0,412,516,338,458,427,485,573,539,338,257,249,390,0
1,1773251384128,-4556,6015,5943,-3813020,-945619,-840550,0,0,0,262,307,229,325,197,289,375,274,254,214,252,134,0
2,1773251384128,1215,1268,9820,447153,125838,-43982,0,0,0,412,521,331,440,465,467,571,532,349,249,236,396,0
1,1773251384160,-3914,5891,9485,-5490456,-306654,-1200961,0,0,0,267,321,225,310,185,279,368,280,257,215,256,136,0
2,1773251384160,1316,1239,9810,373849,35430,-57421,0,0,0,425,524,333,457,423,490,578,493,364,250,220,409,0
1,1773251384176,-4580,4240,10428,-5844758,-768468,-1281595,0,0,0,253,323,233,287,189,287,352,283,264,203,257,141,0
2,1773251384176,1363,1206,9853,360410,-25656,-63529,0,0,0,433,533,338,459,431,496,565,469,369,244,208,413,0
1,1773251384192,-3814,3168,11907,-5968153,-1209513,-1306029,0,0,0,238,325,235,267,198,293,328,284,269,190,260,145,0
2,1773251384192,1306,1148,9897,354301,-87964,-74525,0,0,0,441,536,338,462,443,500,561,449,370,238,193,417,0
1,1773251384208,-3139,2689,13960,-6119647,-1361007,-1298699,0,0,0,232,324,236,265,205,296,320,282,270,189,259,145,0
2,1773251384208,1172,1100,9925,356745,-119729,-81855,0,0,0,444,538,338,464,443,507,559,439,372,260,190,427,0
1,1773251384224,-2928,2177,16233,-6378654,-1496619,-1156978,0,0,0,233,324,244,266,204,297,322,281,271,191,259,146,0
2,1773251384224,1115,1052,9911,364075,-101403,-76969,0,0,0,452,541,343,468,446,519,556,421,370,253,184,434,0
1,1773251384240,-2651,1445,18707,-6648657,-1688431,-821002,0,0,0,236,326,253,261,195,296,322,283,274,190,260,147,0
2,1773251384240,1153,976,9882,367740,-83077,-69638,0,0,0,458,542,343,474,475,507,559,403,375,240,176,447,0
1,1773251384256,-1923,464,21234,-6781825,-1786169,-518013,0,0,0,237,329,257,261,192,298,326,284,277,195,256,148,0
2,1773251384256,1258,904,9911,375071,-72082,-73303,0,0,0,461,544,338,475,480,507,562,384,384,241,170,467,0
1,1773251384272,-1957,-464,23393,-6767165,-1684766,-559552,0,0,0,234,331,257,265,194,306,334,287,279,208,255,154,0
2,1773251384272,1363,875,10016,406836,-67195,-102625,0,0,0,471,549,336,475,458,531,559,358,387,243,165,484,0
1,1773251384288,-3354,-1378,25273,-6602231,-1593136,-955393,0,0,0,229,330,252,264,196,306,325,285,281,192,262,151,0
2,1773251384288,1430,818,10098,461814,-64751,-150272,0,0,0,488,553,334,486,463,544,549,329,388,253,165,499,0
1,1773251384304,-5326,-3436,27992,-6356663,-1836260,-1704314,0,0,0,231,334,253,263,197,306,330,285,280,196,257,149,0
2,1773251384304,1430,765,10179,532674,-63529,-202807,0,0,0,497,558,333,498,476,548,536,307,402,267,173,528,0
1,1773251384320,-6499,-7733,30437,-6203947,-2252871,-2438574,0,0,0,238,339,246,270,196,303,340,281,276,203,257,148,0
2,1773251384320,1402,765,10413,646295,-85521,-246789,0,0,0,508,568,340,506,485,547,526,283,403,266,170,549,0
1,1773251384336,-6815,-16501,30011,-6021909,-2388483,-2625498,0,0,0,237,346,251,261,196,296,323,283,279,199,261,145,0
2,1773251384336,1474,727,10815,807563,-107512,-284663,0,0,0,515,577,330,530,516,561,508,250,398,264,166,567,0
1,1773251384352,-4613,-26403,26259,-5490456,-2338392,-2124589,0,0,0,234,345,235,278,201,303,338,288,285,205,262,148,0
2,1773251384352,1531,646,11423,1042136,-95294,-328645,0,0,0,526,583,328,519,511,554,483,228,404,267,166,589,0
1,1773251384368,3689,-35687,20062,-4102570,-2045176,-1159422,0,0,0,232,348,231,280,204,309,333,288,288,204,260,149,0
2,1773251384368,1311,612,12160,1350012,-63529,-362853,0,0,0,529,583,325,533,516,554,459,230,414,303,185,590,0
1,1773251384400,13797,-43397,13510,-748920,23212,549778,0,0,0,246,325,216,295,196,295,380,321,280,246,308,138,0
2,1773251384400,918,483,13347,2189341,-50090,-300545,0,0,0,544,596,274,545,530,573,381,219,422,277,181,602,0
1,1773251384416,11447,-37195,15984,747699,1464854,1215621,0,0,0,270,303,194,301,174,264,430,388,258,296,377,121,0
2,1773251384416,1459,402,14113,2675589,-107512,-263893,0,0,0,548,597,252,538,540,560,342,222,428,286,184,606,0
1,1773251384432,3316,-17410,17506,2734232,3236364,1406211,0,0,0,269,288,168,280,159,239,456,450,244,323,421,108,0
2,1773251384432,2522,344,15190,3301115,-255341,-344527,0,0,0,545,592,242,529,538,561,319,221,422,275,184,601,0
1,1773251384448,-5623,6207,15290,4378682,4059810,1060462,0,0,0,239,282,143,262,159,236,472,473,251,355,439,103,0
2,1773251384448,3144,378,16147,3960850,-443488,-507018,0,0,0,555,587,246,520,537,566,285,208,410,264,182,596,0
1,1773251384464,-4560,6843,15596,5053077,2878397,376292,0,0,0,246,287,148,279,158,242,481,482,253,395,455,101,0
2,1773251384464,3804,435,17200,4723210,-630412,-741590,0,0,0,554,574,244,523,539,556,271,181,405,249,166,576,0
1,1773251384480,847,-760,20028,5054298,1143539,54977,0,0,0,246,286,165,295,161,262,506,506,267,415,473,95,0
2,1773251384480,4407,349,19506,5578421,-711047,-1060462,0,0,0,538,555,240,518,527,552,268,154,399,231,147,525,0
1,1773251384496,765,-1598,20803,4073249,426383,393397,0,0,0,265,287,205,327,163,264,540,540,259,441,491,86,0
2,1773251384496,4465,105,23522,6506936,-758694,-1348790,0,0,0,495,534,228,497,506,541,264,144,384,214,135,454,0
1,1773251384512,-2909,47,16281,2610838,259006,499687,0,0,0,257,303,231,318,184,289,543,543,279,494,508,116,0
2,1773251384512,5336,641,26915,7329161,-640186,-1518610,0,0,0,422,513,197,469,483,500,271,157,358,201,128,393,0
1,1773251384528,-3354,244,12084,1621236,270002,83077,0,0,0,264,314,278,334,189,335,544,544,303,501,513,162,0
2,1773251384528,5786,1737,28681,8008443,-367740,-1707979,0,0,0,360,488,171,426,446,446,290,197,317,187,128,346,0
1,1773251384544,-2129,-306,10141,668286,234572,-195476,0,0,0,287,334,256,347,218,329,561,562,293,523,528,172,0
2,1773251384544,5967,3436,28848,8620530,168598,-2001194,0,0,0,317,455,181,371,409,401,316,261,283,161,133,277,0
1,1773251384560,-1435,-210,10686,147829,196698,-109955,0,0,0,311,338,266,363,211,343,566,566,293,530,534,192,0
2,1773251384560,7016,4627,25647,8851437,783129,-2389704,0,0,0,251,431,189,348,390,374,336,302,280,113,117,194,0
1,1773251384576,-1775,717,10634,10995,138055,-8552,0,0,0,323,344,282,359,203,346,577,577,298,531,543,204,0
2,1773251384576,7930,8178,17736,8243015,819781,-2899166,0,0,0,255,439,194,361,398,390,346,308,290,121,120,204,0
1,1773251384592,-2029,1225,10203,52534,61086,4886,0,0,0,340,345,279,381,205,343,581,581,295,544,552,229,0
2,1773251384592,5608,15367,11773,4937012,-249233,-2935818,0,0,0,251,437,191,364,404,392,344,302,288,123,119,204,0
2,1773251384608,2546,19650,11825,52534,-1514945,-1833817,0,0,0,254,437,192,365,399,386,354,308,277,130,122,199,0
1,1773251384624,-1938,1129,10122,288328,-25656,25656,0,0,0,333,360,287,376,225,367,581,578,315,533,547,269,0
2,1773251384624,2761,14912,12289,-4389677,-2708576,52534,0,0,0,256,439,196,363,395,383,353,308,276,126,124,198,0
1,1773251384640,-1904,1052,10198,382401,-78190,54977,0,0,0,335,371,299,383,228,377,568,554,331,506,531,280,0
2,1773251384640,6939,6944,7049,-4806287,-2630385,572991,0,0,0,255,440,196,367,398,387,349,309,276,126,125,194,0
1,1773251384656,-1923,1057,10074,431270,-136833,65973,0,0,0,332,379,305,381,232,390,558,529,344,482,512,300,0
1,1773251384672,-1957,1005,9849,442266,-174707,69638,0,0,0,330,381,297,382,233,387,556,505,343,465,484,318,0
2,1773251384672,6791,4752,4388,-4398229,-572991,-202807,0,0,0,256,442,198,365,398,384,352,315,272,125,123,191,0
1,1773251384688,-1995,856,9839,412944,-174707,72082,0,0,0,328,393,300,382,239,399,548,475,344,437,458,340,0
2,1773251384688,5010,5489,6412,-4960225,-477696,-18325,0,0,0,257,443,199,366,397,384,352,316,271,128,126,191,0
1,1773251384704,-2048,698,10614,306654,-103847,74525,0,0,0,325,393,291,386,244,403,538,457,342,421,454,346,0
2,1773251384704,5790,4804,6982,-5419596,-401949,423940,0,0,0,257,444,201,370,398,384,351,318,271,127,125,191,0
1,1773251384720,-2067,689,10394,267558,-61086,74525,0,0,0,333,405,280,393,277,392,531,444,343,411,434,350,0
2,1773251384720,6977,3799,6968,-5497787,218689,707381,0,0,0,256,443,199,372,399,385,352,320,270,127,124,190,0
1,1773251384736,-2043,689,9624,291993,-56199,75747,0,0,0,330,395,272,388,256,392,546,442,343,409,424,345,0
2,1773251384736,6082,3292,8317,-5507560,1080009,977384,0,0,0,255,443,199,371,401,385,355,321,268,128,124,190,0
1,1773251384752,-1976,665,9327,299323,-52534,79412,0,0,0,328,395,280,381,271,399,550,427,341,409,418,359,0
2,1773251384752,5029,2995,9830,-5528330,1505171,1280373,0,0,0,257,443,202,371,399,381,360,320,267,131,125,190,0
1,1773251384768,-1943,650,9600,266337,-34208,78190,0,0,0,328,404,296,419,283,407,545,420,346,428,399,374,0
2,1773251384768,4924,2828,11227,-5567425,1683544,1481959,0,0,0,259,443,200,373,397,380,369,321,270,135,126,191,0
1,1773251384784,-1909,646,9772,257785,-29321,75747,0,0,0,326,400,301,419,290,427,540,403,350,422,389,393,0
2,1773251384784,4833,3115,13137,-5720142,1898569,1538158,0,0,0,261,446,199,370,405,379,369,321,271,134,123,189,0
1,1773251384800,-1866,612,9801,288328,-58643,73303,0,0,0,320,397,285,407,286,429,544,378,349,408,371,402,0
2,1773251384800,4498,3608,15864,-6098878,2103819,1478293,0,0,0,258,451,198,329,432,361,370,321,270,135,123,189,0
2,1773251384816,4158,3259,18908,-6536258,2216219,1358564,0,0,0,260,444,198,380,401,387,370,321,271,134,124,190,0
1,1773251384832,-2053,536,9897,370184,-118507,94073,0,0,0,338,403,263,419,287,439,547,331,344,387,339,431,0
2,1773251384832,4082,2483,22033,-6723182,2301740,1262047,0,0,0,260,444,198,380,397,385,369,318,271,132,123,187,0
1,1773251384848,-2196,492,9877,439822,-108734,130725,0,0,0,356,413,271,429,286,447,545,308,356,382,320,450,0
2,1773251384848,4158,1914,26073,-6663318,2433687,1328021,0,0,0,263,445,201,382,397,385,369,317,270,132,121,186,0
1,1773251384864,-2282,425,9887,515570,-100181,182037,0,0,0,375,430,286,440,300,460,552,290,371,370,291,473,0
2,1773251384864,3421,512,30471,-6631553,2594955,1699427,0,0,0,260,443,195,386,397,389,370,314,272,132,117,186,0
1,1773251384880,-2316,373,10021,594982,-107512,248011,0,0,0,376,452,299,442,328,488,547,261,388,336,262,506,0
2,1773251384880,1713,-5111,33696,-6675535,2761110,2387261,0,0,0,261,445,195,390,397,391,376,316,275,128,117,183,0
1,1773251384896,-2368,311,10265,695164,-127059,311541,0,0,0,370,483,292,452,370,508,535,253,406,306,249,530,0
2,1773251384896,890,-14156,34721,-6566801,2549751,2779436,0,0,0,265,446,198,388,398,393,371,316,280,129,118,186,0
1,1773251384912,-2493,210,10624,839328,-139277,375071,0,0,0,394,462,261,486,376,525,510,232,402,287,219,546,0
2,1773251384912,3287,-28748,30385,-5882632,1469741,2306627,0,0,0,266,446,198,388,401,398,370,317,285,131,118,192,0
1,1773251384928,-2493,153,11375,1061683,-124616,434936,0,0,0,395,486,265,464,378,526,485,226,408,269,202,559,0
2,1773251384928,4503,-40521,20593,-4249178,1108109,271224,0,0,0,263,445,199,388,402,400,368,322,287,132,121,197,0
1,1773251384944,-2278,129,12122,1343903,-113620,472809,0,0,0,416,505,249,490,421,528,462,219,424,289,209,559,0
2,1773251384944,-3383,-45288,15175,-2310292,1633453,-1977981,0,0,0,254,442,188,385,403,393,376,354,284,143,157,190,0
1,1773251384960,-1794,-47,12553,1729970,-129503,461814,0,0,0,450,499,232,507,401,535,422,205,439,286,186,560,0
2,1773251384960,-15711,-43378,17506,-549778,1203404,-2845410,0,0,0,243,432,167,379,399,382,400,416,274,159,208,179,0
1,1773251384976,-1675,-244,12892,2116037,-178372,411723,0,0,0,429,509,221,495,439,550,386,200,433,256,181,574,0
2,1773251384976,-13644,-32940,22502,1516167,-1649336,-1791056,0,0,0,240,412,156,371,385,373,432,465,264,186,258,174,0
1,1773251384992,-2345,-258,13414,2558303,-221133,397062,0,0,0,434,510,209,499,436,558,324,185,435,252,173,559,0
2,1773251384992,-1277,-8035,19363,3700621,-4260174,-665843,0,0,0,244,388,150,363,366,370,461,479,267,235,326,168,0
1,1773251385008,-3560,-229,14352,3145955,-151494,543670,0,0,0,445,511,205,502,447,556,270,187,442,237,161,556,0
2,1773251385008,7791,11878,13141,4928460,-4691445,228463,0,0,0,250,387,145,366,362,371,450,499,284,197,325,184,0
1,1773251385024,-4632,-210,15563,3782477,-29321,797790,0,0,0,444,508,211,502,438,551,264,174,448,218,138,556,0
2,1773251385024,1005,4517,15754,5027420,-2756223,652404,0,0,0,259,402,160,373,367,389,505,505,280,212,363,170,0
1,1773251385040,-5431,-52,17659,4566828,42760,1166752,0,0,0,458,497,215,496,423,533,274,163,443,202,123,530,0
2,1773251385040,-5953,-2311,21914,4630358,-895528,365297,0,0,0,265,413,173,385,373,397,521,520,289,228,377,184,0
1,1773251385056,-6441,-220,21134,5502674,72082,1567480,0,0,0,453,462,224,478,399,507,257,151,431,187,114,471,0
2,1773251385056,-2129,-263,20713,3706730,-373849,-226020,0,0,0,278,432,221,396,376,411,532,531,303,240,364,206,0
1,1773251385072,-8054,-339,24637,6385985,102625,1921782,0,0,0,389,416,226,437,352,479,228,134,406,169,105,398,0
2,1773251385072,2426,1478,15472,2553416,-131946,-240680,0,0,0,289,452,255,404,383,415,550,550,312,252,366,232,0
1,1773251385088,-9030,248,27001,7224092,266337,2356718,0,0,0,319,400,194,374,311,429,221,162,346,147,123,331,0
2,1773251385088,2943,933,10538,1420872,-84299,157603,0,0,0,303,467,282,416,397,439,557,557,314,263,382,256,0
1,1773251385104,-8423,1464,28671,7875274,531452,2759889,0,0,0,277,369,195,324,249,359,254,195,311,162,160,265,0
2,1773251385104,1378,-224,10509,646295,-208915,234572,0,0,0,318,477,292,423,406,447,577,577,323,273,389,270,0
1,1773251385120,-8633,3575,28198,8249124,813672,2937040,0,0,0,247,310,202,228,185,289,340,241,286,174,233,139,0
2,1773251385120,784,52,11045,216246,-316428,128281,0,0,0,332,482,301,429,407,450,580,580,325,275,375,288,0
1,1773251385136,-10873,7427,21818,8361523,1123992,3082425,0,0,0,256,300,220,271,176,298,330,247,313,186,258,159,0
2,1773251385136,938,1043,10595,78190,-274889,24434,0,0,0,340,486,305,442,411,461,582,583,325,275,368,301,0
1,1773251385152,-12768,12050,13003,7583281,985936,3242472,0,0,0,261,301,220,292,173,299,332,242,313,202,262,160,0
2,1773251385152,1091,1469,10165,35430,-167377,0,0,0,0,347,488,309,443,408,458,590,590,327,279,369,312,0
1,1773251385168,-9188,18468,10835,4122118,327423,2480112,0,0,0,259,305,219,282,175,300,323,238,309,199,263,167,0
2,1773251385168,1182,1435,10184,41538,-89186,3665,0,0,0,353,492,313,439,406,453,590,590,324,277,366,317,0
1,1773251385184,-3924,20713,11868,-463035,596204,422718,0,0,0,254,307,211,291,183,306,331,244,296,200,260,158,0
2,1773251385184,1177,1459,10227,101403,-109955,-13439,0,0,0,357,498,316,438,413,456,584,585,323,272,357,319,0
1,1773251385200,-4766,14462,9763,-3477044,1721418,-1706757,0,0,0,272,309,204,315,177,288,391,240,262,224,262,143,0
2,1773251385200,1115,1560,10155,206472,-131946,-34208,0,0,0,361,504,315,440,422,460,584,584,333,273,342,329,0
1,1773251385216,-8365,8284,5920,-4046371,1701870,-2186897,0,0,0,269,312,200,317,177,280,415,242,253,227,262,135,0
2,1773251385216,1033,1560,10054,322536,-109955,-40317,0,0,0,370,510,317,443,427,464,582,582,338,269,320,348,0
1,1773251385232,-8901,5843,3948,-3776368,566882,-1510058,0,0,0,260,317,202,309,182,283,395,245,257,220,265,137,0
2,1773251385232,1000,1474,9983,403171,-65973,-32986,0,0,0,383,513,318,439,418,460,578,574,331,293,322,353,0
1,1773251385248,-5723,6231,5283,-4183205,-59864,-961501,0,0,0,257,319,206,301,185,288,366,247,263,212,265,140,0
2,1773251385248,1038,1316,9954,430049,-28099,-23212,0,0,0,393,518,320,441,418,461,573,550,321,418,427,343,0
2,1773251385264,1110,1162,9887,412944,-15882,-26878,0,0,0,401,522,320,460,423,463,576,542,323,408,415,359,0
1,1773251385280,-4991,5297,8394,-5672494,252898,-825889,0,0,0,254,320,206,289,186,287,336,254,268,203,266,143,0
2,1773251385280,1158,1081,9825,373849,-26878,-34208,0,0,0,403,516,322,444,423,465,576,527,333,385,389,350,0
1,1773251385296,-5360,3890,9514,-5971818,-278554,-702495,0,0,0,255,321,208,290,190,287,343,257,271,206,270,144,0
1,1773251385312,-4498,2933,11031,-6170960,-801455,-645073,0,0,0,256,320,215,291,184,291,340,254,274,204,264,146,0
2,1773251385312,1153,1072,9873,350636,-84299,-46425,0,0,0,422,526,326,447,433,467,575,506,341,283,262,410,0
1,1773251385328,-4178,2297,13007,-6438519,-1028697,-726929,0,0,0,256,320,215,290,185,295,334,253,275,199,269,146,0
2,1773251385328,1110,1024,9940,372627,-102625,-53756,0,0,0,427,532,319,452,441,476,569,494,348,260,229,410,0
1,1773251385344,-4651,1603,15194,-6723182,-1247386,-791681,0,0,0,253,321,215,289,186,294,336,253,272,199,272,145,0
2,1773251385344,1076,990,9978,388510,-102625,-57421,0,0,0,436,540,323,460,445,489,565,478,352,252,208,420,0
1,1773251385360,-4929,909,17310,-6814812,-1565036,-742812,0,0,0,243,323,222,282,188,292,340,256,275,202,272,143,0
2,1773251385360,1052,966,9992,409279,-97738,-58643,0,0,0,445,543,327,467,450,491,563,457,354,249,192,439,0
1,1773251385376,-4857,272,19746,-6776938,-1865582,-706160,0,0,0,243,323,226,282,185,292,339,254,276,202,272,144,0
2,1773251385376,1067,885,10002,444709,-84299,-57421,0,0,0,454,550,331,474,460,501,559,433,358,246,184,455,0
1,1773251385392,-5025,-282,22526,-6680422,-2026850,-867428,0,0,0,245,323,227,281,186,289,339,254,275,202,268,146,0
2,1773251385392,1091,775,10026,488692,-63529,-63529,0,0,0,469,556,338,478,469,511,554,405,367,248,181,474,0
1,1773251385408,-6293,-1526,25967,-6552140,-2136806,-1414763,0,0,0,247,324,225,283,188,291,340,251,277,202,263,147,0
2,1773251385408,1119,670,10054,527787,-32986,-81855,0,0,0,487,558,342,484,469,516,517,378,381,254,176,492,0
1,1773251385424,-7609,-4206,29437,-6418971,-2393370,-2160019,0,0,0,248,325,223,288,187,294,341,250,278,206,256,148,0
2,1773251385424,1191,612,10184,580321,20769,-117286,0,0,0,496,561,343,494,469,523,491,346,396,257,168,505,0
1,1773251385440,-7240,-10270,31978,-6342002,-2735454,-2801427,0,0,0,249,325,222,291,187,296,348,251,279,210,251,144,0
2,1773251385440,1368,603,10437,658512,67195,-166155,0,0,0,497,562,343,501,477,531,527,303,406,263,165,529,0
1,1773251385456,-6575,-18655,31734,-6273586,-2678033,-2996904,0,0,0,245,325,221,290,189,297,351,252,282,210,251,143,0
2,1773251385456,1531,588,10892,795346,48869,-222354,0,0,0,506,563,335,507,488,543,512,268,416,267,165,557,0
2,1773251385472,1622,531,11371,1031140,-24434,-270002,0,0,0,517,565,324,516,498,552,491,242,411,274,174,575,0
1,1773251385488,-655,-36707,19071,-4432438,-2291966,-1054353,0,0,0,249,328,224,294,193,301,359,248,283,223,254,147,0
2,1773251385488,1584,425,11959,1341460,-50090,-324980,0,0,0,532,576,323,522,517,555,464,234,421,275,170,578,0
1,1773251385504,8887,-41234,14673,-2488664,-2102598,109955,0,0,0,255,326,227,296,189,303,375,245,286,239,248,149,0
2,1773251385504,1292,330,12629,1723861,-9773,-357967,0,0,0,536,586,304,529,518,559,429,221,417,280,175,593,0
1,1773251385520,14347,-42737,14343,-725707,-755029,503352,0,0,0,249,325,223,294,188,301,367,255,280,233,264,143,0
2,1773251385520,1153,282,13271,2138028,14660,-365297,0,0,0,536,580,259,538,534,561,393,223,423,279,181,596,0
1,1773251385536,12457,-38870,15041,667064,794124,499687,0,0,0,236,307,209,293,186,293,397,286,264,257,324,125,0
2,1773251385536,1545,263,14156,2648711,-35430,-365297,0,0,0,550,593,254,530,545,560,349,214,419,277,183,604,0
1,1773251385552,3728,-19372,17324,2070833,2108706,370184,0,0,0,239,281,163,280,166,250,436,414,252,313,414,121,0
1,1773251385568,-5436,10179,15931,3216816,3247359,85521,0,0,0,234,281,147,263,158,230,461,459,247,347,427,107,0
2,1773251385568,2818,248,16300,3958406,-313984,-610865,0,0,0,549,585,233,513,539,570,288,204,419,261,175,597,0
1,1773251385584,-5474,16774,11280,3965737,3597996,-252898,0,0,0,235,283,148,276,169,242,481,487,247,386,454,98,0
2,1773251385584,3340,536,18061,4875926,-426383,-825889,0,0,0,540,573,234,514,534,576,272,177,417,251,165,582,0
1,1773251385600,1631,2096,15640,4960225,2217440,-234572,0,0,0,235,269,142,281,153,246,507,509,256,427,476,100,0
2,1773251385600,4603,583,20464,5826432,-502131,-1087340,0,0,0,528,556,236,515,522,565,268,155,413,237,148,537,0
1,1773251385616,4111,-3460,21402,5061629,641408,244346,0,0,0,244,276,156,301,157,261,516,516,263,454,486,103,0
2,1773251385616,5628,244,24455,6852686,-557109,-1424537,0,0,0,484,533,220,504,502,540,271,147,400,222,134,464,0
1,1773251385632,-402,-1057,21641,4056145,-56199,801455,0,0,0,259,281,181,317,163,262,529,529,261,491,501,106,0
2,1773251385632,5987,842,28298,7753101,-367740,-1677435,0,0,0,409,512,201,472,476,505,279,158,368,217,134,394,0
1,1773251385648,-4517,291,15506,2439795,79412,428827,0,0,0,266,288,216,330,175,292,542,543,269,515,519,124,0
2,1773251385648,6030,2311,30361,8498357,43982,-1890017,0,0,0,343,484,192,424,440,455,295,200,325,198,130,339,0
1,1773251385664,-3254,-172,11217,1336573,182037,-96516,0,0,0,260,293,266,329,184,330,556,557,289,514,533,173,0
2,1773251385664,6374,4048,30361,9045692,649960,-2171015,0,0,0,287,450,174,370,407,397,316,266,281,143,122,268,0
1,1773251385680,-1718,-358,10447,668286,84299,-174707,0,0,0,273,301,315,332,190,356,561,562,305,517,539,217,0
2,1773251385680,7403,5824,25618,9221621,1254717,-2660928,0,0,0,255,438,196,357,395,376,337,299,280,123,120,201,0
2,1773251385696,7427,9686,17104,8644964,1039692,-3286454,0,0,0,259,442,201,368,403,385,345,313,282,133,140,205,0
1,1773251385712,-2206,813,10509,255341,13439,-14660,0,0,0,314,320,355,351,196,372,580,571,322,545,557,240,0
2,1773251385712,3493,15204,12347,6377433,-649960,-3538131,0,0,0,259,441,193,373,403,382,341,312,272,128,126,197,0
1,1773251385728,-2215,976,10026,299323,26878,2443,0,0,0,318,334,356,365,209,378,579,563,322,533,557,260,0
2,1773251385728,2005,20564,10911,1060462,-2467895,-2039068,0,0,0,267,444,193,373,400,379,343,309,267,124,121,190,0
1,1773251385744,-2038,904,9930,356745,43982,25656,0,0,0,325,344,378,380,225,389,584,555,304,521,557,283,0
2,1773251385744,4694,17855,9767,-4233296,-2791654,13439,0,0,0,267,441,188,376,399,379,349,311,267,126,123,188,0
1,1773251385760,-1904,851,10179,397062,2443,47647,0,0,0,344,343,373,377,219,391,577,536,324,513,549,310,0
2,1773251385760,6432,8997,8011,-6020687,-1850921,992045,0,0,0,264,442,190,375,400,379,349,312,265,128,124,189,0
1,1773251385776,-1899,871,10256,432492,-83077,58643,0,0,0,335,350,372,372,225,406,562,491,355,497,539,324,0
2,1773251385776,6049,3460,6006,-5815437,-1260825,1065348,0,0,0,263,446,197,375,402,380,352,316,265,130,127,191,0
1,1773251385792,-1976,847,10050,463035,-166155,65973,0,0,0,327,363,371,374,226,405,550,476,352,493,495,335,0
2,1773251385792,5800,2986,4852,-5208237,-1259604,707381,0,0,0,260,445,198,374,403,381,351,323,267,131,130,192,0
1,1773251385808,-1990,684,10093,403171,-140499,74525,0,0,0,328,364,372,379,222,417,552,464,351,462,468,342,0
1,1773251385824,-1995,593,10026,377514,-151494,76969,0,0,0,329,369,364,375,223,407,566,430,351,442,448,354,0
2,1773251385824,7039,4273,6748,-6063448,-337197,134390,0,0,0,257,444,196,375,403,380,353,325,263,133,137,188,0
1,1773251385840,-2057,531,9676,390953,-196698,79412,0,0,0,326,368,335,383,225,411,557,419,346,428,435,365,0
2,1773251385840,5853,3613,8571,-6403089,260228,83077,0,0,0,258,444,195,377,404,380,353,325,261,135,141,192,0
1,1773251385856,-2110,483,9480,379958,-195476,84299,0,0,0,326,367,322,385,226,415,553,412,351,412,432,386,0
2,1773251385856,5163,2617,10222,-6608340,653625,217468,0,0,0,261,446,197,376,403,379,353,328,263,137,145,194,0
1,1773251385872,-2134,459,9528,334754,-145385,91629,0,0,0,324,367,319,390,236,418,552,403,351,401,425,392,0
2,1773251385872,5709,1512,11270,-6657209,954171,458148,0,0,0,259,445,198,377,403,382,357,328,267,137,148,190,0
1,1773251385888,-2187,459,9605,304210,-78190,95294,0,0,0,324,368,320,397,248,425,547,396,349,393,414,400,0
2,1773251385888,5972,765,12486,-6569244,1413542,614530,0,0,0,255,445,197,380,403,383,359,327,268,140,155,190,0
2,1773251385904,5661,507,14180,-6426302,1833817,729373,0,0,0,255,445,195,378,401,382,361,328,267,142,157,192,0
1,1773251385920,-2048,411,9676,320093,21991,105068,0,0,0,332,387,315,412,257,439,548,373,356,381,397,426,0
2,1773251385920,5297,880,16295,-6323676,2091602,825889,0,0,0,258,447,196,384,406,388,358,325,264,141,155,191,0
1,1773251385936,-1919,354,9791,340862,2443,103847,0,0,0,334,393,305,431,270,448,550,361,364,374,369,436,0
2,1773251385936,5173,1536,18722,-6312681,2277305,917519,0,0,0,261,449,200,383,401,385,363,327,268,141,155,189,0
1,1773251385952,-1986,291,9920,381179,-46425,108734,0,0,0,366,414,313,441,267,445,551,322,371,368,335,451,0
2,1773251385952,5288,2120,22048,-6411641,2467895,1025031,0,0,0,262,450,198,383,402,385,369,327,269,145,163,189,0
1,1773251385968,-2254,272,9930,454483,-76969,146607,0,0,0,360,400,322,456,273,470,556,297,394,376,312,466,0
2,1773251385968,5580,1536,26432,-6563136,2700024,1205847,0,0,0,259,447,197,383,402,387,365,323,267,143,152,186,0
1,1773251385984,-2392,220,9911,537561,-80634,206472,0,0,0,377,421,313,499,310,459,546,278,385,362,295,480,0
2,1773251385984,5240,-789,29916,-6647435,2933374,1502728,0,0,0,262,447,198,382,412,386,365,324,269,133,127,190,0
1,1773251386000,-2531,95,10026,607200,-91629,279776,0,0,0,381,414,313,481,299,474,560,266,411,328,270,498,0
2,1773251386000,3283,-6546,32280,-6546031,3253468,1936442,0,0,0,262,447,197,384,408,389,368,323,278,130,119,188,0
1,1773251386016,-2684,38,10299,709825,-95294,372627,0,0,0,387,425,309,486,312,503,542,247,428,324,262,532,0
2,1773251386016,-291,-16448,32734,-6001140,3187494,2179567,0,0,0,265,449,198,387,406,392,371,323,283,131,121,188,0
1,1773251386032,-2675,19,10796,886976,-53756,466701,0,0,0,390,457,309,484,345,526,514,211,437,303,213,537,0
2,1773251386032,-2292,-27054,29820,-5105611,2460565,2025629,0,0,0,269,447,197,392,407,394,381,325,287,133,121,189,0
1,1773251386048,-2493,-81,11581,1142317,-20769,529009,0,0,0,428,468,263,500,384,521,484,203,437,302,200,553,0
2,1773251386048,-2526,-37233,22335,-3523470,1550375,943175,0,0,0,269,446,197,392,405,393,386,324,288,134,122,189,0
1,1773251386064,-2182,-181,12266,1447750,-47647,559552,0,0,0,433,479,226,522,403,526,457,194,450,292,190,564,0
2,1773251386064,-5039,-43364,16094,-1676214,1128878,-827111,0,0,0,262,443,189,386,402,390,384,326,282,137,128,192,0
1,1773251386080,-1713,-315,12691,1832595,-141720,538783,0,0,0,450,491,209,535,407,538,425,184,471,283,171,567,0
2,1773251386080,-10820,-42813,15668,-39095,778242,-2184454,0,0,0,251,436,171,380,400,382,398,381,272,152,166,189,0
1,1773251386096,-1517,-449,13103,2293188,-280998,481361,0,0,0,458,505,200,541,419,543,405,171,470,279,155,574,0
2,1773251386096,-11797,-29021,20693,1637118,-805120,-1940107,0,0,0,242,411,156,370,386,372,436,460,264,196,250,174,0
1,1773251386112,-2215,-464,13682,2803871,-425162,469144,0,0,0,442,507,196,538,438,548,372,161,457,263,145,575,0
2,1773251386112,-3125,-363,20263,3222925,-3273015,-755029,0,0,0,237,373,148,355,358,367,474,478,261,238,333,160,0
2,1773251386128,3967,11782,13175,4073249,-4151440,368962,0,0,0,250,374,153,358,351,375,501,501,271,208,368,165,0
1,1773251386144,-4374,-301,16759,4169766,-547335,869872,0,0,0,427,513,215,501,401,551,294,144,464,201,114,571,0
2,1773251386144,1201,5685,12959,4813618,-3194825,774577,0,0,0,258,379,156,372,349,385,516,521,273,246,416,178,0
1,1773251386160,-5987,-67,20023,5171585,-582765,1238834,0,0,0,429,487,213,492,376,531,314,137,462,172,93,527,0
2,1773251386160,-4924,-2383,20507,5044525,-1364672,329867,0,0,0,259,391,164,380,353,381,531,564,294,438,505,176,0
1,1773251386176,-7901,-138,23756,6214942,-574213,1660331,0,0,0,406,470,207,475,379,510,280,138,446,159,86,454,0
2,1773251386176,-1880,-760,22536,4057366,-581543,-221133,0,0,0,276,422,207,398,370,411,542,542,298,372,396,197,0
1,1773251386192,-9002,43,26647,7049384,-472809,2053728,0,0,0,373,425,219,458,323,469,259,153,394,160,94,385,0
1,1773251386208,-8571,382,29499,7701788,-164933,2458121,0,0,0,271,413,189,346,286,387,234,189,325,141,144,287,0
2,1773251386208,2517,1033,11117,1299921,-217468,226020,0,0,0,302,450,281,408,386,429,575,575,310,310,412,244,0
1,1773251386224,-8365,1904,31189,8156272,136833,2739119,0,0,0,238,333,178,275,227,297,271,262,281,147,233,166,0
2,1773251386224,1325,349,10040,711047,-182037,246789,0,0,0,322,474,299,413,396,445,582,583,330,334,425,265,0
1,1773251386240,-10433,5929,26422,8434827,-56199,2933374,0,0,0,246,309,199,268,189,291,312,252,280,171,242,146,0
2,1773251386240,1167,440,10567,406836,-280998,153938,0,0,0,333,475,309,426,400,448,587,587,327,328,424,272,0
1,1773251386256,-11591,11423,16482,8073194,-453262,3295007,0,0,0,253,300,206,271,172,293,326,250,287,187,240,152,0
2,1773251386256,1215,1009,10600,222354,-383623,73303,0,0,0,349,481,328,429,398,448,592,591,325,322,414,282,0
1,1773251386272,-8418,15553,11730,5836206,-375071,3522248,0,0,0,254,303,206,270,175,292,318,260,284,190,246,152,0
2,1773251386272,1115,1359,10323,105068,-356745,34208,0,0,0,353,482,340,430,400,451,598,599,328,349,431,283,0
1,1773251386288,-3689,18588,11299,1958433,470366,2696359,0,0,0,258,307,200,280,174,284,316,254,262,198,246,157,0
2,1773251386288,1033,1555,10160,95294,-251676,4886,0,0,0,357,484,343,436,405,456,596,597,336,350,426,290,0
1,1773251386304,-1737,16841,10926,-2367713,1901012,799011,0,0,0,251,306,195,277,174,281,320,250,251,200,242,166,0
2,1773251386304,981,1655,10189,205250,-185703,-15882,0,0,0,365,489,342,447,407,460,587,587,338,320,390,309,0
1,1773251386320,-4565,10964,7695,-4024380,2425134,-289550,0,0,0,239,307,196,268,181,287,317,255,254,195,242,169,0
2,1773251386320,909,1646,10189,312763,-117286,-26878,0,0,0,370,493,342,453,408,463,584,584,335,325,379,319,0
1,1773251386336,-7427,6063,4316,-4368908,1860695,-476474,0,0,0,237,309,198,273,186,290,318,256,253,197,244,170,0
2,1773251386336,938,1521,10098,383623,-19547,-23212,0,0,0,374,496,342,448,415,463,585,584,335,355,388,323,0
2,1773251386352,1043,1416,9983,410501,50090,-17104,0,0,0,376,497,333,444,429,462,581,576,334,348,364,338,0
1,1773251386368,-5250,5771,5202,-4568050,288328,-235793,0,0,0,232,311,202,270,189,291,324,261,258,196,243,170,0
2,1773251386368,1129,1349,9906,427605,69638,-19547,0,0,0,387,504,326,457,421,467,576,559,334,281,288,351,0
1,1773251386384,-5288,5508,6719,-5120272,255341,-691499,0,0,0,232,307,219,265,190,303,322,259,270,198,245,184,0
2,1773251386384,1167,1273,9858,442266,54977,-29321,0,0,0,395,505,325,468,421,467,566,544,337,262,264,363,0
1,1773251386400,-6494,4632,7954,-5564982,-81855,-1170417,0,0,0,234,312,206,274,190,293,320,259,257,194,244,170,0
2,1773251386400,1215,1177,9820,437379,25656,-39095,0,0,0,396,509,322,456,425,467,566,530,350,252,232,373,0
1,1773251386416,-6647,3819,9562,-5931501,-645073,-1578475,0,0,0,235,311,206,272,190,288,319,259,254,194,244,167,0
2,1773251386416,1244,1095,9820,410501,-15882,-48869,0,0,0,404,517,326,452,435,474,569,513,346,251,219,384,0
1,1773251386432,-6283,3110,11328,-6274807,-1042136,-1838704,0,0,0,238,319,211,269,186,296,322,262,259,194,251,167,0
2,1773251386432,1234,1033,9825,386066,-58643,-54977,0,0,0,412,517,328,452,432,479,567,499,352,250,216,392,0
1,1773251386448,-6484,2062,13290,-6657209,-1249830,-1771509,0,0,0,235,321,212,269,189,292,319,259,260,192,248,162,0
1,1773251386464,-6479,813,15529,-6944316,-1435533,-1408655,0,0,0,234,320,214,269,190,295,301,243,266,191,247,157,0
2,1773251386464,1143,957,9911,371406,-113620,-59864,0,0,0,428,528,329,457,439,490,566,462,359,245,195,411,0
1,1773251386480,-6054,-268,18152,-7018841,-1598023,-835663,0,0,0,233,320,217,271,190,298,313,253,266,187,250,145,0
2,1773251386480,1119,952,9997,400727,-107512,-63529,0,0,0,433,533,327,465,449,496,567,439,361,245,188,429,0
1,1773251386496,-5374,-1086,20856,-7024950,-1773952,-313984,0,0,0,233,323,222,271,192,298,322,269,264,184,261,140,0
2,1773251386496,1119,923,10059,453262,-84299,-72082,0,0,0,444,537,331,473,460,511,564,416,364,244,181,449,0
1,1773251386512,-4067,-2038,23761,-7035945,-1903456,-168598,0,0,0,233,326,219,272,195,297,323,274,262,185,267,139,0
2,1773251386512,1134,842,10059,507018,-51312,-84299,0,0,0,460,541,335,484,472,524,560,391,376,240,170,468,0
1,1773251386528,-3206,-3436,26403,-6921103,-1947438,-651182,0,0,0,233,326,213,274,197,296,323,274,260,185,265,137,0
2,1773251386528,1229,727,10102,561996,-9773,-105068,0,0,0,474,547,336,496,474,528,558,357,389,241,163,488,0
1,1773251386544,-3838,-6393,28791,-6524040,-2135584,-1841147,0,0,0,236,325,213,277,198,298,324,270,263,185,259,134,0
2,1773251386544,1349,636,10217,620639,18325,-140499,0,0,0,490,553,335,504,474,529,549,326,394,259,168,517,0
2,1773251386560,1512,579,10485,731816,20769,-193033,0,0,0,504,559,337,507,485,533,532,300,396,275,173,549,0
1,1773251386576,-7284,-20086,28939,-5723807,-2252871,-2967583,0,0,0,247,325,216,282,195,298,323,263,267,197,254,139,0
2,1773251386576,1665,583,10964,911410,-13439,-252898,0,0,0,513,567,339,508,491,541,520,271,404,265,160,558,0
1,1773251386592,-6087,-29576,23876,-5238780,-2013411,-1795943,0,0,0,254,326,218,290,193,298,340,262,268,208,259,143,0
2,1773251386592,1627,531,11572,1175304,-56199,-304210,0,0,0,524,576,326,515,501,549,498,259,413,265,163,571,0
1,1773251386608,4848,-35802,18525,-3828903,-1997529,-302989,0,0,0,265,337,224,293,188,294,349,259,265,204,248,137,0
2,1773251386608,1416,435,12275,1508837,-54977,-342084,0,0,0,535,577,327,527,519,568,470,230,421,261,163,588,0
1,1773251386624,13113,-39004,14970,-1916895,-1244943,207694,0,0,0,256,333,220,293,194,296,341,261,264,201,251,137,0
2,1773251386624,1215,349,12993,1916895,-8552,-355523,0,0,0,531,576,273,534,525,576,420,223,421,279,179,589,0
1,1773251386640,11241,-39956,13438,-249233,-109955,201585,0,0,0,235,329,198,279,211,295,333,282,268,227,319,139,0
2,1773251386640,1368,263,13711,2398256,-12217,-359188,0,0,0,536,584,259,538,538,571,383,223,426,271,182,600,0
1,1773251386656,8236,-34792,15032,1139874,849102,388510,0,0,0,240,297,176,293,182,266,414,390,255,301,378,117,0
2,1773251386656,1804,263,14539,2951700,-92851,-386066,0,0,0,543,584,246,528,543,575,336,222,430,267,179,600,0
1,1773251386672,1981,-9212,17573,2952922,2371378,327423,0,0,0,250,272,158,278,151,243,459,454,258,351,415,98,0
2,1773251386672,2354,268,15596,3593109,-239459,-480140,0,0,0,550,580,235,524,549,583,295,212,428,260,179,602,0
1,1773251386688,-3211,10897,14903,4302934,3271794,19547,0,0,0,250,269,153,273,146,243,472,472,261,403,437,96,0
2,1773251386688,2904,344,16831,4299269,-379958,-616973,0,0,0,544,579,229,520,551,568,278,191,426,266,179,599,0
1,1773251386704,-1679,8647,14161,5272988,2629163,-127059,0,0,0,248,273,149,288,151,261,489,489,260,438,455,96,0
1,1773251386720,2919,-1545,20047,5630955,919963,183259,0,0,0,246,278,195,300,160,268,508,508,267,450,469,96,0
2,1773251386720,5307,392,22134,6194173,-566882,-1200961,0,0,0,518,545,270,509,511,557,272,146,414,228,144,496,0
1,1773251386736,459,-2928,23282,4423886,-43982,814894,0,0,0,259,281,228,314,169,279,521,521,277,471,484,106,0
2,1773251386736,5881,397,26283,7153231,-554665,-1518610,0,0,0,453,516,233,494,490,534,274,149,383,214,136,426,0
1,1773251386752,-4307,-990,18808,2787988,-15882,670730,0,0,0,272,291,256,328,180,315,534,534,300,496,499,148,0
2,1773251386752,5824,1512,29834,8086634,-252898,-1755626,0,0,0,378,492,192,455,460,480,293,181,346,194,132,366,0
1,1773251386768,-3914,0,11868,1420872,182037,-46425,0,0,0,276,320,310,332,195,347,547,548,325,510,514,208,0
2,1773251386768,5652,3431,31088,8828224,243124,-1963320,0,0,0,315,464,172,404,424,420,312,234,302,167,128,306,0
2,1773251386784,6427,5068,29136,9294925,976162,-2296853,0,0,0,256,432,184,365,396,388,325,278,273,130,120,228,0
1,1773251386800,-1603,-129,10260,199142,178372,-96516,0,0,0,323,342,299,371,213,376,555,555,331,533,533,255,0
2,1773251386800,8150,7944,20995,9138543,1375668,-2861292,0,0,0,248,435,192,364,399,382,344,307,279,127,130,203,0
1,1773251386816,-2086,607,10658,26878,188146,7330,0,0,0,308,354,295,359,236,370,568,567,310,549,549,271,0
2,1773251386816,8102,12878,13620,7815409,1054353,-3451388,0,0,0,247,437,192,363,396,379,344,307,275,129,143,199,0
1,1773251386832,-2091,1005,10131,64751,155159,-4886,0,0,0,319,354,328,362,224,390,568,565,340,547,547,293,0
2,1773251386832,3622,20593,10701,3671300,-19547,-3104417,0,0,0,252,438,196,360,396,377,344,311,266,126,126,195,0
1,1773251386848,-1966,1072,9925,157603,109955,-2443,0,0,0,321,360,320,361,231,394,572,557,327,546,552,317,0
2,1773251386848,909,20349,11878,-2107485,-1532050,-844215,0,0,0,252,438,189,352,409,366,348,314,262,126,125,189,0
1,1773251386864,-1852,985,10222,271224,63529,37873,0,0,0,331,375,317,370,255,399,573,538,322,535,549,318,0
2,1773251386864,3560,12041,10227,-5367061,-2574186,1139874,0,0,0,256,440,194,363,400,379,351,317,268,123,124,188,0
1,1773251386880,-1746,952,10351,357967,-34208,63529,0,0,0,337,386,313,376,254,390,571,500,317,522,512,318,0
2,1773251386880,7489,5072,5585,-5066516,-2152689,1312138,0,0,0,253,440,192,366,398,382,355,322,270,126,127,192,0
1,1773251386896,-1785,923,10179,417831,-155159,68416,0,0,0,334,396,308,382,253,391,566,473,326,501,480,337,0
2,1773251386896,8332,3536,3201,-4464203,-1099557,764803,0,0,0,256,442,195,367,398,381,353,320,265,128,128,191,0
1,1773251386912,-1909,847,9830,433714,-216246,67195,0,0,0,334,395,299,380,254,395,561,454,322,484,462,344,0
2,1773251386912,6456,5412,4249,-4607145,-97738,205250,0,0,0,259,442,197,370,399,382,341,323,268,128,128,190,0
1,1773251386928,-1923,746,8777,361632,-168598,72082,0,0,0,336,402,293,378,267,393,556,453,323,473,448,354,0
2,1773251386928,4350,6542,6953,-5470909,263893,64751,0,0,0,264,444,197,370,398,382,343,323,269,125,126,187,0
1,1773251386944,-1928,670,8657,310319,-123394,74525,0,0,0,340,408,321,380,269,397,551,451,337,460,430,371,0
2,1773251386944,3608,5972,8686,-6146526,322536,130725,0,0,0,262,446,195,371,400,381,351,325,272,126,127,185,0
1,1773251386960,-2019,593,9451,338419,-124616,74525,0,0,0,342,399,364,383,255,408,551,429,340,443,413,379,0
1,1773251386976,-2072,564,9782,360410,-101403,80634,0,0,0,341,399,353,388,260,410,551,415,330,432,399,382,0
2,1773251386976,4034,3283,10528,-6372546,1148426,309097,0,0,0,257,444,196,371,398,384,357,330,277,128,130,187,0
1,1773251386992,-2048,564,9676,357967,-52534,91629,0,0,0,353,409,348,389,265,413,553,420,345,418,377,397,0
2,1773251386992,3259,3431,12457,-6379876,1640784,392175,0,0,0,259,444,197,371,398,384,355,329,274,130,129,187,0
2,1773251387008,2579,3924,14907,-6627887,1784948,546113,0,0,0,257,444,198,372,399,386,356,331,272,135,132,187,0
1,1773251387024,-1890,512,9786,398284,0,101403,0,0,0,349,397,355,402,275,436,551,385,355,396,340,435,0
2,1773251387024,2617,3790,17219,-6893003,1806939,670730,0,0,0,261,445,202,376,401,391,359,331,277,128,129,189,0
1,1773251387040,-1861,440,9897,442266,-28099,102625,0,0,0,365,409,363,410,299,435,551,347,362,403,307,445,0
2,1773251387040,3397,3015,19640,-7037167,1875356,681725,0,0,0,261,445,203,375,399,390,361,333,281,128,129,190,0
1,1773251387056,-1943,344,9983,493579,-69638,111177,0,0,0,390,420,370,424,285,443,541,294,363,385,281,462,0
2,1773251387056,4312,2479,23192,-7026171,2128254,601091,0,0,0,261,445,203,375,398,390,361,333,276,127,129,186,0
1,1773251387072,-2100,258,10021,548556,-98960,139277,0,0,0,381,432,340,439,291,464,487,285,382,366,272,482,0
2,1773251387072,4742,2120,27843,-7042054,2366491,715934,0,0,0,253,449,199,321,430,364,363,325,275,128,128,186,0
1,1773251387088,-2273,181,10045,624304,-112399,206472,0,0,0,390,451,324,468,320,476,514,277,382,357,259,499,0
2,1773251387088,5149,-741,32064,-7108027,2494773,1362229,0,0,0,260,445,203,373,402,386,366,323,275,128,123,185,0
1,1773251387104,-2402,129,10203,723264,-117286,299323,0,0,0,392,456,307,477,332,490,527,264,403,330,243,516,0
2,1773251387104,5570,-7800,34170,-7033502,2862514,2155132,0,0,0,259,443,197,382,399,386,368,323,274,124,121,179,0
1,1773251387120,-2278,28,10509,844215,-118507,377514,0,0,0,399,460,284,475,337,494,510,231,422,307,220,536,0
2,1773251387120,4087,-17932,34333,-6586349,3282789,2497217,0,0,0,263,446,195,385,403,387,369,320,278,130,124,190,0
1,1773251387136,-2043,-100,10935,996932,-133168,420275,0,0,0,411,471,280,485,354,503,490,204,426,304,204,548,0
2,1773251387136,349,-30327,30260,-5390274,2733011,2180788,0,0,0,263,446,192,382,401,384,378,318,282,134,124,195,0
1,1773251387152,-1981,-196,11524,1193630,-162490,420275,0,0,0,424,479,291,500,373,516,463,197,427,303,194,550,0
2,1773251387152,-2924,-40081,22407,-3667634,1750739,1326799,0,0,0,265,446,192,385,402,388,380,318,285,133,124,197,0
1,1773251387168,-2172,-229,12112,1499063,-169820,428827,0,0,0,443,493,270,505,382,524,423,185,427,284,176,561,0
2,1773251387168,-5867,-44910,16319,-1748296,1072679,-102625,0,0,0,265,444,188,386,405,389,376,321,280,135,130,198,0
1,1773251387184,-2010,-344,12400,1838704,-152716,438601,0,0,0,453,515,220,511,406,540,395,173,432,274,165,577,0
2,1773251387184,-8872,-45292,15252,-186924,541226,-1255938,0,0,0,257,439,177,379,403,383,390,372,271,141,165,187,0
1,1773251387200,-1923,-473,12653,2256536,-189368,431270,0,0,0,461,500,189,522,444,526,369,172,435,279,159,574,0
2,1773251387200,-10504,-35166,19827,1468520,-519235,-1589471,0,0,0,243,417,162,368,389,375,425,448,265,178,238,167,0
1,1773251387216,-2560,-536,13261,2715906,-238237,469144,0,0,0,446,499,207,503,467,547,325,167,439,262,163,573,0
2,1773251387216,-3369,-4388,20698,3139847,-2852740,-629191,0,0,0,241,380,147,359,364,366,463,480,261,247,330,162,0
1,1773251387232,-3421,-593,14467,3281568,-208915,634078,0,0,0,450,513,222,527,460,569,244,155,439,220,131,570,0
2,1773251387232,4718,15587,13831,4236961,-4482529,607200,0,0,0,253,378,150,363,359,375,489,494,263,266,397,172,0
1,1773251387248,-4355,-531,16219,4020715,-134390,888198,0,0,0,443,487,211,501,440,554,248,146,460,195,117,569,0
2,1773251387248,784,5508,13156,5068959,-3293785,1058018,0,0,0,259,388,160,373,362,390,510,510,278,251,401,173,0
1,1773251387264,-5733,-459,18702,4853935,-31764,1221730,0,0,0,468,461,236,465,438,532,229,144,456,164,95,542,0
2,1773251387264,-4929,-2455,19272,5353622,-1474628,747699,0,0,0,266,410,183,384,365,401,530,530,287,272,420,188,0
1,1773251387280,-7408,-780,21746,5694485,81855,1595580,0,0,0,449,465,256,446,405,533,258,130,435,158,96,462,0
2,1773251387280,-4288,-1746,23551,4566828,-432492,-39095,0,0,0,283,432,230,399,376,415,546,546,302,282,405,211,0
1,1773251387296,-9236,-655,24991,6579018,256563,2051285,0,0,0,399,446,215,411,403,482,230,152,400,148,113,391,0
2,1773251387296,1368,1024,19636,2906496,-298102,-342084,0,0,0,297,456,274,412,391,434,564,564,327,292,410,260,0
1,1773251387312,-9887,-215,28107,7392691,554665,2550973,0,0,0,322,415,193,380,343,418,228,174,356,154,152,347,0
2,1773251387312,2445,449,12979,1400103,-257785,63529,0,0,0,331,476,298,428,401,451,577,578,321,303,414,294,0
1,1773251387328,-9643,1081,29940,7958352,840550,2921157,0,0,0,264,366,189,321,262,340,259,209,301,158,191,239,0
2,1773251387328,1110,-301,9729,436157,-161268,255341,0,0,0,347,485,308,436,408,456,580,579,323,317,415,317,0
1,1773251387344,-10452,3871,28628,8392066,1001818,3202155,0,0,0,260,315,202,286,201,293,310,230,268,179,210,152,0
2,1773251387344,732,406,10189,199142,-194255,98960,0,0,0,361,502,322,438,412,460,583,583,324,316,425,318,0
1,1773251387360,-13227,7963,20602,8432383,849102,3521027,0,0,0,278,294,216,290,170,287,350,235,267,203,223,145,0
2,1773251387360,947,1119,10514,95294,-228463,0,0,0,0,370,507,318,442,417,461,588,587,324,316,415,327,0
1,1773251387376,-13285,11174,13634,7615046,267558,3878994,0,0,0,276,299,209,291,173,281,348,247,267,196,241,145,0
2,1773251387376,1091,1411,10346,58643,-155159,0,0,0,0,376,505,319,445,419,462,593,592,333,314,406,329,0
1,1773251387392,-6776,16056,11404,4238183,39095,2855184,0,0,0,271,303,206,308,179,281,344,242,260,204,240,145,0
2,1773251387392,1124,1483,10189,83077,-89186,7330,0,0,0,384,509,325,445,420,466,592,591,336,312,386,342,0
1,1773251387408,-1928,18387,10911,-597426,889419,272445,0,0,0,277,309,202,310,186,283,367,246,258,206,238,146,0
2,1773251387408,1095,1507,10184,168598,-85521,-4886,0,0,0,391,513,326,445,421,467,588,588,334,308,356,357,0
1,1773251387424,-3967,13941,9585,-4035375,2017077,-2111150,0,0,0,284,309,194,330,180,271,404,244,244,226,238,143,0
2,1773251387424,971,1545,10241,276111,-83077,-25656,0,0,0,397,516,322,447,425,465,582,583,330,305,327,367,0
2,1773251387440,914,1536,10217,356745,-34208,-29321,0,0,0,404,520,324,451,426,468,580,574,334,296,303,373,0
1,1773251387456,-8155,4359,4498,-4377460,387288,-1490511,0,0,0,270,315,203,312,188,283,371,251,257,209,247,142,0
2,1773251387456,957,1430,10059,414166,31764,-24434,0,0,0,408,521,327,453,425,470,578,562,344,275,282,375,0
1,1773251387472,-4953,4752,5149,-4298047,-218689,-791681,0,0,0,258,315,205,301,186,284,357,251,261,199,244,143,0
2,1773251387472,1014,1287,9901,428827,58643,-28099,0,0,0,409,520,318,452,427,470,569,548,344,262,257,386,0
1,1773251387488,-3780,5326,6451,-4627915,-101403,-618195,0,0,0,263,320,208,302,188,285,361,252,260,198,242,142,0
2,1773251387488,1072,1201,9825,427605,72082,-40317,0,0,0,413,525,318,458,435,469,560,529,358,270,249,389,0
1,1773251387504,-4718,5522,7858,-5249775,-29321,-702495,0,0,0,264,318,212,306,189,291,364,253,263,206,247,148,0
2,1773251387504,1134,1153,9839,416610,63529,-51312,0,0,0,418,525,316,453,485,459,562,518,353,255,226,401,0
1,1773251387520,-5159,5139,9447,-5943718,-538783,-855211,0,0,0,262,316,210,308,189,290,365,252,262,216,247,149,0
2,1773251387520,1220,1105,9868,403171,29321,-58643,0,0,0,418,528,316,460,439,483,576,489,353,254,215,404,0
1,1773251387536,-4656,4206,11227,-6553362,-1012814,-1092227,0,0,0,263,317,210,311,190,289,371,250,261,219,244,144,0
2,1773251387536,1296,1057,9897,394618,-35430,-67195,0,0,0,443,542,327,470,439,486,573,477,357,249,202,417,0
1,1773251387552,-4402,2727,12725,-6899112,-1199739,-1345125,0,0,0,264,317,214,316,190,291,377,248,261,217,245,141,0
2,1773251387552,1244,1009,9925,404392,-105068,-75747,0,0,0,443,542,328,465,437,487,567,443,372,252,192,432,0
1,1773251387568,-4795,1273,14410,-6938207,-1375668,-1463633,0,0,0,262,315,216,314,190,294,381,251,263,214,247,140,0
2,1773251387568,1124,947,9964,419053,-138055,-79412,0,0,0,448,543,324,467,488,480,560,418,367,257,190,456,0
1,1773251387584,-4982,689,16764,-6873455,-1644449,-1447750,0,0,0,255,314,222,306,189,294,378,252,270,212,247,140,0
2,1773251387584,1057,871,9992,441044,-123394,-80634,0,0,0,467,549,334,477,476,498,560,397,370,253,180,470,0
1,1773251387600,-4919,488,19980,-6961420,-1876578,-1368338,0,0,0,250,314,230,302,189,297,367,248,269,213,246,140,0
1,1773251387616,-4843,-57,23058,-7147123,-1991420,-1373225,0,0,0,256,317,217,305,189,297,381,247,263,216,243,138,0
2,1773251387616,1253,746,10145,531452,-46425,-119729,0,0,0,485,557,331,497,472,525,540,336,382,259,171,508,0
1,1773251387632,-5183,-1631,26436,-7181331,-1993864,-1681101,0,0,0,257,318,217,307,186,296,386,243,260,216,238,136,0
2,1773251387632,1368,674,10308,612086,-15882,-177150,0,0,0,497,561,328,509,482,533,528,307,387,263,168,525,0
2,1773251387648,1435,626,10552,714712,-18325,-237015,0,0,0,504,565,317,522,496,549,505,279,386,265,166,538,0
1,1773251387664,-5723,-9504,32376,-6539923,-2405587,-2918714,0,0,0,253,323,220,308,189,301,375,243,268,218,236,133,0
2,1773251387664,1488,559,10859,877202,-69638,-284663,0,0,0,515,575,310,525,515,561,480,257,390,263,166,557,0
1,1773251387680,-6226,-19425,32175,-6212499,-2219884,-3075095,0,0,0,249,343,216,308,186,296,369,248,272,211,236,133,0
2,1773251387680,1588,387,11261,1097113,-95294,-333532,0,0,0,522,582,312,528,534,556,478,234,405,264,166,569,0
1,1773251387696,-7049,-29633,27537,-5821545,-1777617,-2338392,0,0,0,251,346,215,312,191,298,373,249,269,219,242,135,0
2,1773251387696,1517,287,11940,1364672,-91629,-390953,0,0,0,521,590,303,532,543,563,458,226,421,278,182,582,0
1,1773251387712,-358,-38468,20296,-4527733,-1864360,-624304,0,0,0,255,347,213,323,192,297,382,243,266,226,245,137,0
2,1773251387712,1148,335,12648,1718974,-100181,-414166,0,0,0,532,591,276,537,544,578,411,220,424,282,186,597,0
1,1773251387728,10538,-42641,16027,-2668259,-1602910,645073,0,0,0,249,344,202,320,196,290,378,267,272,231,277,137,0
2,1773251387728,804,335,13117,2112371,-129503,-390953,0,0,0,544,607,267,522,529,563,363,230,411,263,170,606,0
1,1773251387744,16482,-43866,15041,-609643,-204028,1010371,0,0,0,240,317,191,298,192,282,388,336,272,271,341,130,0
2,1773251387744,727,272,13630,2549751,-157603,-321315,0,0,0,546,605,241,531,560,569,333,219,414,269,179,599,0
1,1773251387760,10533,-36831,17721,1262047,1716531,905302,0,0,0,242,285,173,279,173,262,423,414,265,311,396,116,0
2,1773251387760,1588,177,14702,3115412,-196698,-295658,0,0,0,548,598,231,533,571,569,297,218,419,259,173,601,0
1,1773251387776,205,-11548,16654,3641978,3533244,901637,0,0,0,246,275,153,272,158,243,461,465,266,333,427,105,0
2,1773251387776,2718,153,16195,3841120,-288328,-400727,0,0,0,549,590,222,528,566,571,272,207,412,255,172,600,0
1,1773251387792,-4905,7997,14663,5054298,3544240,640186,0,0,0,244,278,150,272,159,250,490,491,277,376,453,106,0
2,1773251387792,3598,296,17683,4621806,-432492,-616973,0,0,0,543,576,235,518,546,570,260,177,416,247,167,578,0
1,1773251387808,-1483,5025,17846,5585751,2042733,279776,0,0,0,240,275,146,289,154,265,516,516,277,430,482,107,0
2,1773251387808,4489,215,19995,5536882,-561996,-943175,0,0,0,543,561,248,514,532,561,257,150,410,231,146,520,0
1,1773251387824,2100,-2148,23340,5208237,544891,357967,0,0,0,245,284,166,307,173,273,532,533,266,458,496,107,0
2,1773251387824,4886,-110,23972,6517932,-627969,-1279151,0,0,0,497,542,232,503,521,544,261,148,390,216,136,451,0
1,1773251387840,-1340,-2555,21895,3442836,28099,604756,0,0,0,260,293,215,318,175,296,541,541,265,475,504,127,0
2,1773251387840,5733,536,28131,7445225,-503352,-1511280,0,0,0,418,515,195,473,490,505,273,166,357,202,133,394,0
1,1773251387872,-3029,406,9853,841772,65973,-166155,0,0,0,274,311,277,341,195,356,549,549,302,482,524,223,0
2,1773251387872,6939,3527,30260,8837998,370184,-2086715,0,0,0,296,455,177,377,411,397,318,272,277,141,122,268,0
1,1773251387888,-1928,392,9131,463035,89186,-202807,0,0,0,292,320,292,354,200,360,559,559,306,494,533,235,0
2,1773251387888,8633,5087,26130,9121439,1119105,-2564412,0,0,0,252,434,196,354,392,378,335,298,277,119,117,198,0
1,1773251387904,-1852,469,10265,285884,133168,-75747,0,0,0,303,332,309,368,208,377,561,562,314,497,533,243,0
2,1773251387904,9308,8781,19109,8620530,1258382,-3230255,0,0,0,256,439,202,361,402,387,340,308,279,122,122,203,0
1,1773251387920,-2206,899,10337,213802,164933,-6108,0,0,0,311,347,318,381,217,392,568,560,322,504,539,276,0
2,1773251387920,5206,15266,14008,5563760,-167377,-3464827,0,0,0,264,442,201,364,402,383,339,303,273,123,119,198,0
1,1773251387936,-2129,1110,9954,233350,162490,12217,0,0,0,325,357,314,395,227,387,570,558,317,505,540,294,0
2,1773251387936,2814,19114,11768,919963,-1628566,-2392148,0,0,0,256,442,197,371,406,383,344,307,269,124,121,194,0
1,1773251387952,-1899,1095,10011,305432,87964,25656,0,0,0,330,365,320,394,240,398,566,535,331,489,531,316,0
2,1773251387952,4249,15376,10088,-3942524,-2212553,-416610,0,0,0,256,442,202,371,403,383,345,306,267,126,121,194,0
1,1773251387968,-1856,1119,10035,393397,-24434,53756,0,0,0,328,374,326,394,250,414,556,500,350,463,513,341,0
2,1773251387968,6106,7872,7063,-4795292,-1563815,397062,0,0,0,256,442,200,369,399,383,348,310,273,127,125,194,0
1,1773251387984,-1842,1158,8576,370184,-58643,81855,0,0,0,328,380,317,400,253,417,552,475,350,446,490,362,0
2,1773251387984,6341,4383,4417,-4291939,-904080,427605,0,0,0,255,443,199,374,405,386,352,315,273,128,126,193,0
1,1773251388000,-1852,1019,8389,381179,-113620,81855,0,0,0,332,387,309,396,256,422,558,455,348,440,470,386,0
2,1773251388000,5561,4848,3527,-3864333,-375071,199142,0,0,0,254,444,198,376,410,388,354,316,273,128,127,193,0
1,1773251388016,-2005,789,9514,458148,-179594,64751,0,0,0,341,399,313,398,267,425,548,427,359,424,447,398,0
2,1773251388016,5226,6403,4752,-4502076,8552,191811,0,0,0,254,446,196,376,408,385,353,315,269,129,128,194,0
1,1773251388032,-2105,655,9786,455705,-158824,64751,0,0,0,348,410,289,409,288,416,544,397,359,414,422,405,0
2,1773251388032,5216,6685,6317,-5321857,389732,265115,0,0,0,252,447,195,376,409,386,354,316,269,128,126,192,0
1,1773251388048,-2134,612,9576,409279,-103847,72082,0,0,0,341,413,283,407,295,419,543,379,348,407,412,431,0
2,1773251388048,4862,5527,7762,-5819102,847880,371406,0,0,0,254,446,198,376,406,386,354,317,270,126,125,190,0
1,1773251388064,-2134,612,9495,373849,-50090,86742,0,0,0,341,403,292,406,280,440,555,359,349,391,391,418,0
2,1773251388064,4120,4326,9093,-5931501,1270599,510683,0,0,0,256,444,199,374,402,384,354,317,269,127,125,189,0
1,1773251388080,-2067,588,9700,384845,-21991,101403,0,0,0,353,401,293,406,280,426,549,343,350,386,355,436,0
2,1773251388080,3622,3905,10323,-5908288,1507615,671951,0,0,0,255,443,198,374,402,384,356,319,270,130,127,189,0
1,1773251388112,-1957,502,9849,412944,-26878,109955,0,0,0,363,414,292,415,309,441,540,313,365,378,312,463,0
2,1773251388112,3943,4130,14032,-6309016,1964542,966388,0,0,0,259,445,201,373,403,383,354,320,268,127,126,190,0
1,1773251388128,-1966,430,9820,427605,-40317,109955,0,0,0,366,419,297,414,330,449,537,296,373,364,296,471,0
2,1773251388128,3996,3933,16884,-6574131,2156354,1066570,0,0,0,259,445,200,375,402,384,348,322,271,127,125,192,0
1,1773251388144,-1995,358,9863,450818,-59864,116064,0,0,0,377,435,303,440,335,463,531,277,388,353,272,484,0
2,1773251388144,4288,3517,20172,-6783047,2282192,1153313,0,0,0,262,447,204,377,402,383,362,320,269,132,126,198,0
1,1773251388160,-2182,296,9959,489913,-86742,151494,0,0,0,385,440,294,463,345,469,534,264,394,337,253,493,0
2,1773251388160,4982,3144,24201,-6976081,2422691,1254717,0,0,0,256,450,198,379,405,386,364,318,270,130,125,194,0
1,1773251388176,-2469,258,10064,554665,-101403,227241,0,0,0,388,438,280,470,358,473,536,252,395,324,239,500,0
2,1773251388176,5833,2675,29849,-7237531,2579073,1514945,0,0,0,260,445,204,377,399,384,364,317,272,130,121,193,0
1,1773251388192,-2507,248,10251,673173,-73303,326202,0,0,0,389,442,276,480,358,488,521,238,396,319,227,514,0
2,1773251388192,6877,-23,34883,-7538077,2718350,2057394,0,0,0,262,447,201,343,431,369,368,315,274,132,121,198,0
1,1773251388208,-2397,157,10504,818559,-46425,409279,0,0,0,389,455,270,485,371,502,507,243,394,303,211,534,0
2,1773251388208,6159,-9241,36893,-7577172,3435506,2679254,0,0,0,263,446,200,379,407,387,365,310,278,134,122,199,0
1,1773251388224,-2144,-38,10878,1011592,-67195,467922,0,0,0,410,476,258,487,386,513,500,223,405,289,183,543,0
2,1773251388224,2086,-23239,37645,-6985854,3874107,2963918,0,0,0,260,449,191,379,401,384,383,310,284,128,118,194,0
1,1773251388240,-1971,-172,11165,1213178,-138055,481361,0,0,0,410,494,246,498,402,526,469,192,404,326,186,557,0
2,1773251388240,-1727,-39827,31892,-5428148,2536312,2564412,0,0,0,259,449,189,382,402,387,384,310,286,128,119,195,0
1,1773251388256,-1990,-239,11720,1461189,-201585,472809,0,0,0,421,502,226,490,425,539,431,183,423,277,194,569,0
2,1773251388256,-1684,-51548,19258,-3243694,1193630,849102,0,0,0,261,450,193,382,402,387,385,311,288,131,120,200,0
1,1773251388272,-2048,-272,12452,1776396,-207694,463035,0,0,0,441,513,205,516,453,545,402,178,435,279,171,565,0
2,1773251388272,-5905,-55467,13390,-1279151,1127657,-1288925,0,0,0,258,447,193,381,404,387,385,344,282,135,137,196,0
1,1773251388288,-1837,-320,12959,2182010,-204028,449596,0,0,0,430,528,190,537,451,545,360,181,447,275,166,569,0
2,1773251388288,-12663,-49652,16788,476474,733038,-2640159,0,0,0,246,433,171,377,400,379,407,420,269,150,197,185,0
2,1773251388304,-8590,-18937,23785,2439795,-1888795,-1925447,0,0,0,242,401,152,366,379,370,444,471,261,193,282,172,0
1,1773251388320,-3263,-497,14429,3222925,-211359,518013,0,0,0,443,535,183,502,495,548,254,165,457,215,146,574,0
2,1773251388320,3670,13840,19430,3624874,-4432438,-193033,0,0,0,249,378,152,361,361,374,476,485,270,217,348,165,0
1,1773251388336,-4465,-483,15845,3885102,-173485,744033,0,0,0,458,520,198,504,468,570,246,175,473,228,136,569,0
2,1773251388336,5742,12720,11232,4618141,-4491081,1341460,0,0,0,256,379,154,371,357,387,503,503,284,218,390,168,0
1,1773251388352,-5585,-464,18114,4735427,-140499,1117883,0,0,0,467,511,220,497,430,571,243,156,469,197,110,544,0
2,1773251388352,-3603,-1249,14266,5497787,-2621833,1618792,0,0,0,264,388,162,385,356,398,524,524,288,255,421,179,0
1,1773251388368,-7231,-780,21210,5649281,-147829,1543045,0,0,0,458,480,227,479,388,542,225,133,455,162,90,493,0
1,1773251388384,-9533,-631,24828,6621779,-35430,2072054,0,0,0,409,428,215,432,344,511,217,141,422,145,91,418,0
2,1773251388384,-1244,100,22388,3584557,-541226,-503352,0,0,0,289,433,228,404,372,418,559,559,310,290,426,219,0
1,1773251388400,-10705,-392,28255,7428121,249233,2592512,0,0,0,334,399,209,365,299,460,219,167,364,130,114,341,0
2,1773251388400,3929,1019,16735,1953547,-453262,-234572,0,0,0,301,464,269,410,382,435,571,572,318,396,481,229,0
1,1773251388416,-10538,650,30930,8037764,660956,3066543,0,0,0,265,367,210,309,249,363,239,202,311,142,164,259,0
2,1773251388416,2263,23,11098,789237,-283441,332310,0,0,0,317,467,286,422,402,458,571,570,331,290,405,288,0
1,1773251388432,-11170,4067,29480,8440935,784350,3376863,0,0,0,243,306,199,262,190,295,293,224,292,164,207,145,0
2,1773251388432,373,239,10045,456927,-109955,252898,0,0,0,343,480,307,425,404,455,580,580,326,279,391,306,0
1,1773251388448,-12663,8762,22861,8552113,766025,3667634,0,0,0,263,301,213,275,177,289,332,237,306,190,230,160,0
2,1773251388448,746,789,10251,346971,-133168,81855,0,0,0,351,489,318,426,406,458,586,586,327,276,385,313,0
1,1773251388464,-12902,12830,13807,7703010,548556,3946189,0,0,0,263,307,212,232,171,288,319,261,306,190,243,165,0
2,1773251388464,1234,1134,10318,218689,-212581,19547,0,0,0,356,492,312,432,419,469,584,584,343,280,375,329,0
1,1773251388480,-8078,16759,11026,4232074,317649,3097086,0,0,0,258,307,228,272,181,319,320,244,308,192,236,176,0
2,1773251388480,1225,1316,10203,161268,-212581,19547,0,0,0,365,496,312,435,422,471,586,586,342,284,363,338,0
1,1773251388496,-2632,18387,11174,-948062,893084,645073,0,0,0,269,309,211,292,183,302,349,242,277,204,236,156,0
2,1773251388496,1086,1416,10165,249233,-205250,6108,0,0,0,377,505,317,438,422,468,588,589,341,286,347,354,0
1,1773251388512,-4268,12467,9097,-3866776,1977981,-1573588,0,0,0,266,311,208,295,186,294,356,244,274,206,243,154,0
2,1773251388512,918,1478,10203,357967,-197920,-9773,0,0,0,391,512,323,454,425,471,584,583,343,282,316,374,0
2,1773251388528,751,1488,10256,453262,-107512,-14660,0,0,0,398,514,324,463,440,476,578,570,350,275,284,387,0
1,1773251388544,-8356,5072,3565,-4003610,719599,-1347568,0,0,0,249,322,213,280,193,294,338,254,279,191,249,158,0
2,1773251388544,818,1349,10184,524122,50090,-8552,0,0,0,399,515,320,457,450,478,579,555,361,269,270,397,0
1,1773251388560,-5546,5503,4532,-4219857,35430,-847880,0,0,0,241,324,215,278,193,296,337,254,279,190,250,157,0
2,1773251388560,985,1162,10035,558330,134390,-8552,0,0,0,407,519,322,463,439,485,583,534,361,268,265,404,0
1,1773251388576,-3977,5714,6326,-4756196,133168,-767246,0,0,0,238,323,216,279,195,299,338,254,278,187,250,153,0
2,1773251388576,1119,976,9863,552222,139277,-20769,0,0,0,414,523,323,466,440,493,574,510,349,266,258,407,0
1,1773251388592,-4752,5259,7748,-5310862,271224,-989601,0,0,0,240,328,215,283,204,298,347,256,278,192,253,151,0
2,1773251388592,1167,899,9839,513126,102625,-30543,0,0,0,422,524,320,477,445,499,575,494,358,267,249,414,0
1,1773251388608,-5412,4737,9217,-5882632,20769,-1298699,0,0,0,243,330,216,282,207,295,348,257,281,197,255,151,0
2,1773251388608,1268,832,9873,482583,59864,-40317,0,0,0,429,529,323,471,448,498,569,476,367,264,242,427,0
1,1773251388624,-5618,3804,10892,-6399424,-378736,-1709200,0,0,0,241,325,218,274,196,295,339,256,285,192,253,150,0
2,1773251388624,1349,760,9906,460592,0,-57421,0,0,0,436,528,323,474,445,499,568,440,364,266,227,436,0
1,1773251388640,-6092,2335,12586,-6761056,-708603,-2112371,0,0,0,238,324,219,276,194,298,338,259,287,188,252,153,0
2,1773251388640,1306,674,9873,437379,-46425,-85521,0,0,0,444,531,323,477,455,512,565,418,366,307,231,452,0
1,1773251388656,-6800,909,14228,-6899112,-982271,-2349387,0,0,0,238,325,224,276,195,306,337,256,288,188,251,150,0
2,1773251388656,1201,631,9873,420275,-59864,-109955,0,0,0,449,536,326,474,489,490,559,398,375,268,213,459,0
1,1773251388672,-7374,-28,16467,-6951646,-1276708,-2346944,0,0,0,239,325,220,276,193,299,341,258,286,189,254,149,0
2,1773251388672,1095,636,9944,416610,-45204,-122173,0,0,0,459,546,326,482,477,509,558,373,377,263,204,474,0
1,1773251388688,-7580,-507,19301,-7007846,-1549154,-2173458,0,0,0,244,325,221,286,194,299,364,262,283,201,266,147,0
2,1773251388688,1153,626,10107,443488,-8552,-122173,0,0,0,466,547,323,491,470,526,549,340,379,267,196,490,0
1,1773251388704,-7307,-851,22684,-7086036,-1704314,-1936442,0,0,0,250,324,222,297,195,302,381,257,283,206,260,146,0
2,1773251388704,1397,588,10284,507018,15882,-149051,0,0,0,479,550,320,497,473,532,542,317,393,275,198,514,0
1,1773251388720,-7020,-1919,26125,-7150788,-1798387,-1799608,0,0,0,248,326,221,298,196,302,379,255,283,205,260,146,0
2,1773251388720,1469,488,10457,604756,13439,-207694,0,0,0,486,554,317,502,482,538,534,291,401,277,192,530,0
1,1773251388736,-6082,-4383,29485,-7138571,-2019520,-1863138,0,0,0,257,324,221,308,190,302,397,248,284,219,249,146,0
2,1773251388736,1296,421,10591,748920,-20769,-250454,0,0,0,499,558,315,514,492,543,521,265,402,273,180,549,0
1,1773251388752,-4489,-8499,32481,-7082371,-2255314,-2053728,0,0,0,247,327,228,290,200,305,380,249,285,212,239,138,0
2,1773251388752,1349,315,10691,923628,-39095,-259006,0,0,0,512,565,308,526,504,550,507,249,409,268,172,567,0
1,1773251388768,-6068,-17439,32940,-6973637,-1946216,-1946216,0,0,0,246,330,222,292,198,303,370,250,288,211,235,136,0
2,1773251388768,1560,186,11031,1108109,-37873,-284663,0,0,0,518,571,300,530,516,559,488,238,420,265,168,576,0
1,1773251388784,-10370,-28868,28207,-6499606,-1632231,-847880,0,0,0,248,332,218,297,194,303,368,248,290,214,236,140,0
2,1773251388784,1694,86,11749,1346346,-53756,-334754,0,0,0,530,576,290,537,532,566,455,224,425,263,163,586,0
1,1773251388800,-2684,-38745,20550,-4900360,-2572964,1323134,0,0,0,248,334,220,298,197,307,368,248,291,217,238,144,0
2,1773251388800,1584,38,12538,1679879,-96516,-382401,0,0,0,527,580,265,546,552,575,429,218,421,265,170,592,0
1,1773251388816,13476,-42565,17118,-2939483,-2707354,2003637,0,0,0,250,335,223,299,198,308,372,251,291,219,240,145,0
2,1773251388816,1263,33,13189,2102598,-120951,-408057,0,0,0,543,590,259,532,542,563,393,222,422,261,175,606,0
1,1773251388832,17678,-43996,15721,-799011,-575435,833220,0,0,0,246,327,221,293,195,305,367,261,293,224,264,144,0
2,1773251388832,990,28,13730,2585181,-120951,-379958,0,0,0,565,596,247,533,557,580,350,222,434,264,175,608,0
1,1773251388848,9322,-40961,15099,921184,1066570,117286,0,0,0,234,304,204,284,190,294,373,307,287,255,342,137,0
2,1773251388848,1392,-28,14553,3110525,-120951,-359188,0,0,0,554,585,236,543,563,591,303,210,416,260,180,618,0
1,1773251388864,1742,-17535,18549,2535090,1932777,161268,0,0,0,236,284,160,288,178,251,452,416,254,313,413,108,0
2,1773251388864,2397,-95,15812,3791029,-144164,-433714,0,0,0,551,594,227,543,576,598,281,200,424,253,170,608,0
1,1773251388880,-3259,13582,17142,3584557,3145955,-218689,0,0,0,237,267,147,268,155,248,468,468,261,332,427,101,0
2,1773251388880,3086,148,17640,4674340,-202807,-642630,0,0,0,559,578,246,535,557,583,268,169,427,243,162,602,0
1,1773251388896,-1732,17855,11117,4279721,3756821,-735481,0,0,0,243,267,147,269,151,241,494,497,252,393,468,103,0
2,1773251388896,4044,138,20071,5643173,-235793,-906524,0,0,0,539,551,245,543,538,575,281,154,452,234,151,545,0
1,1773251388912,3814,1220,16085,5319414,2150245,-306654,0,0,0,244,269,141,296,155,253,512,514,256,433,490,105,0
2,1773251388912,5053,-363,23541,6575353,-157603,-1187522,0,0,0,491,523,234,534,504,556,275,140,434,220,141,466,0
1,1773251388928,3551,-4819,23646,5246110,301767,568104,0,0,0,251,279,162,309,163,269,537,537,264,449,504,102,0
2,1773251388928,5747,177,27977,7566176,134390,-1478293,0,0,0,419,497,205,503,476,524,276,146,392,217,133,405,0
1,1773251388944,-2766,-1598,23182,3780034,-268780,935845,0,0,0,261,284,217,321,175,307,546,546,277,473,512,115,0
2,1773251388944,5910,1383,31107,8356636,445931,-1706757,0,0,0,354,472,168,436,457,450,298,191,339,188,126,348,0
2,1773251388960,6599,3072,32538,9007818,929736,-2015855,0,0,0,290,444,167,372,414,387,324,255,296,138,115,252,0
1,1773251388976,-2885,110,10476,1003040,140499,-237015,0,0,0,293,300,275,357,188,343,570,571,305,510,543,188,0
2,1773251388976,8480,5747,29834,9321803,1745852,-2499660,0,0,0,254,432,186,357,389,377,339,296,283,117,116,194,0
1,1773251388992,-1871,57,9940,616973,42760,-169820,0,0,0,306,313,289,357,195,350,584,585,289,517,558,228,0
2,1773251388992,9006,11112,20555,8410392,2052507,-3371976,0,0,0,252,435,189,366,399,385,345,310,284,152,138,198,0
1,1773251389008,-2220,469,10212,410501,36651,-28099,0,0,0,315,325,290,369,207,360,589,586,302,528,564,256,0
1,1773251389024,-2569,933,10126,327423,129503,21991,0,0,0,321,339,309,388,213,381,585,578,338,536,559,277,0
2,1773251389024,373,20363,13256,403171,-1643227,-2528982,0,0,0,251,440,187,366,404,383,356,309,274,129,125,198,0
1,1773251389040,-2225,1019,9949,377514,174707,25656,0,0,0,328,357,334,385,220,393,581,570,321,515,554,296,0
2,1773251389040,2407,16137,11959,-4178318,-3050661,-387288,0,0,0,250,440,187,367,400,382,351,314,272,128,125,195,0
1,1773251389056,-1966,914,10088,444709,134390,41538,0,0,0,335,361,380,393,224,414,580,532,329,496,540,320,0
2,1773251389056,6211,8025,7681,-5310862,-2640159,531452,0,0,0,249,441,189,367,398,383,356,320,278,127,125,198,0
1,1773251389072,-2000,938,10313,478918,43982,58643,0,0,0,346,382,363,411,243,410,564,495,323,524,495,328,0
2,1773251389072,7092,3919,3737,-4836830,-1676214,361632,0,0,0,249,442,193,373,404,393,353,321,282,126,125,198,0
1,1773251389088,-2014,971,11294,454483,-8552,78190,0,0,0,340,381,337,401,252,421,568,479,339,462,486,362,0
2,1773251389088,5824,5355,3584,-4721988,-952949,-28099,0,0,0,253,444,195,372,404,388,350,321,275,126,126,195,0
1,1773251389104,-1952,899,11916,416610,-57421,81855,0,0,0,346,401,369,400,282,447,542,447,357,432,433,386,0
2,1773251389104,5044,6666,4972,-5248554,-437379,-120951,0,0,0,254,445,195,373,405,383,350,323,270,127,125,188,0
1,1773251389120,-2038,679,10222,502131,-157603,61086,0,0,0,368,407,352,413,297,432,539,422,349,417,418,401,0
2,1773251389120,4800,6503,6637,-5904623,13439,-20769,0,0,0,254,445,195,372,403,380,353,328,271,179,151,187,0
1,1773251389136,-2211,512,9361,532674,-157603,61086,0,0,0,383,413,334,414,274,433,540,370,348,403,382,417,0
2,1773251389136,4714,5302,7671,-6108652,499687,117286,0,0,0,254,445,195,372,401,380,353,328,269,140,133,187,0
1,1773251389152,-2297,440,9394,516791,-102625,81855,0,0,0,377,417,311,417,273,438,540,352,350,393,347,423,0
2,1773251389152,4412,4465,9054,-6183177,1021366,280998,0,0,0,255,445,195,372,401,381,354,329,269,126,126,188,0
1,1773251389168,-2234,425,9729,494800,-34208,111177,0,0,0,373,419,303,426,281,441,536,345,352,400,326,435,0
2,1773251389168,4096,4331,10782,-6334672,1334129,432492,0,0,0,256,446,196,373,403,383,353,329,268,130,128,189,0
2,1773251389184,3986,4187,12696,-6538701,1558928,561996,0,0,0,257,446,196,376,405,385,354,333,270,130,131,188,0
1,1773251389200,-2115,287,9743,497244,-4886,146607,0,0,0,376,415,295,420,297,452,536,297,361,388,298,477,0
2,1773251389200,4029,4010,14859,-6698748,1747074,625526,0,0,0,257,446,196,378,407,387,356,336,273,129,131,188,0
1,1773251389216,-2177,253,9796,504574,-17104,174707,0,0,0,378,429,290,421,308,461,526,281,366,369,286,491,0
2,1773251389216,4259,3957,17697,-6838025,1957212,586430,0,0,0,257,445,198,377,406,388,356,332,274,128,128,187,0
1,1773251389232,-2153,205,9930,532674,-26878,213802,0,0,0,374,445,275,425,317,462,516,272,375,341,269,500,0
2,1773251389232,4694,3924,21325,-7049384,2207666,511905,0,0,0,257,445,200,374,399,386,359,329,278,126,125,186,0
1,1773251389248,-2144,134,10088,587652,-30543,246789,0,0,0,384,448,269,426,321,474,509,253,395,319,238,511,0
2,1773251389248,5092,3598,26345,-7305948,2475225,585208,0,0,0,258,446,202,374,399,389,362,329,281,126,122,186,0
1,1773251389264,-2301,81,10332,689055,-28099,291993,0,0,0,387,464,261,436,338,485,495,232,387,307,221,517,0
1,1773251389280,-2407,9,10600,825889,-31764,357967,0,0,0,402,462,271,443,369,493,470,225,406,318,223,519,0
2,1773251389280,4852,-2919,35127,-7567398,2950479,1910786,0,0,0,257,444,197,380,401,395,370,324,289,128,121,184,0
1,1773251389296,-2364,-90,10892,1025031,-53756,432492,0,0,0,410,480,270,446,400,511,454,208,419,287,207,532,0
2,1773251389296,2689,-13017,37262,-7203322,3458718,2834414,0,0,0,257,444,195,383,404,398,369,321,291,125,120,182,0
1,1773251389312,-2167,-315,10983,1264491,-107512,488692,0,0,0,436,505,269,474,416,538,440,200,435,296,203,548,0
2,1773251389312,354,-27197,36898,-6332229,3104417,3274237,0,0,0,264,444,194,385,406,400,374,321,291,129,122,183,0
1,1773251389328,-2014,-531,11170,1464854,-164933,509461,0,0,0,453,515,244,480,450,544,418,192,431,272,188,550,0
2,1773251389328,1139,-41000,28844,-4874704,1710422,2651155,0,0,0,269,449,197,384,400,396,375,320,290,130,122,183,0
1,1773251389344,-2187,-550,11916,1714087,-172263,505796,0,0,0,445,522,217,482,457,540,405,176,435,271,190,569,0
2,1773251389344,-435,-50543,17674,-2660928,1384220,609643,0,0,0,268,450,197,386,408,401,376,320,292,131,122,185,0
1,1773251389360,-2201,-507,12562,2014633,-119729,507018,0,0,0,466,527,205,500,452,546,366,181,438,266,178,577,0
2,1773251389360,-8021,-52538,15070,-777020,1445307,-1246165,0,0,0,254,442,184,381,403,392,393,388,284,142,165,186,0
1,1773251389376,-2019,-626,12974,2449569,-40317,504574,0,0,0,475,539,215,494,448,554,305,176,445,240,162,580,0
2,1773251389376,-13314,-41698,20995,1086118,-51312,-1704314,0,0,0,239,415,159,366,382,372,426,456,266,218,260,171,0
2,1773251389392,-7370,-13998,23129,3005456,-2669481,-1048244,0,0,0,242,387,149,361,365,368,463,488,270,256,357,162,0
1,1773251389408,-3895,-861,14955,3525914,54977,664621,0,0,0,490,542,208,491,500,539,244,168,445,220,143,575,0
2,1773251389408,4063,11830,16381,4357912,-4623028,51312,0,0,0,253,383,153,367,363,383,491,500,281,244,400,165,0
1,1773251389424,-4953,-765,16975,4260174,133168,959058,0,0,0,501,515,229,498,460,545,243,150,449,192,107,556,0
2,1773251389424,2991,7437,13787,5456248,-3550348,862541,0,0,0,260,398,161,379,365,396,517,517,287,241,411,176,0
1,1773251389440,-6006,-1072,19875,5103168,162490,1318247,0,0,0,498,508,245,491,430,538,256,145,445,171,89,507,0
2,1773251389440,-5101,-2847,21698,5668829,-1211956,810007,0,0,0,268,414,186,390,366,403,539,538,298,267,421,187,0
1,1773251389456,-7829,-1325,23689,6074443,186924,1729970,0,0,0,455,467,234,462,377,514,234,148,419,159,85,432,0
2,1773251389456,-3833,-2096,24455,4163657,-320093,7330,0,0,0,282,432,231,399,374,417,552,551,308,299,432,202,0
1,1773251389472,-10002,-646,27379,7042054,401949,2225992,0,0,0,371,417,208,398,319,462,195,141,361,143,96,354,0
2,1773251389472,1325,804,18348,2334726,-189368,-246789,0,0,0,293,451,266,411,388,430,563,563,307,335,453,222,0
1,1773251389488,-10715,-33,30748,7855726,729373,2736676,0,0,0,310,384,227,347,266,414,217,178,324,151,132,327,0
2,1773251389488,2747,1277,11174,1142317,-125838,75747,0,0,0,308,470,292,419,393,439,576,576,319,329,450,240,0
1,1773251389504,-10643,2818,30978,8432383,957836,3136182,0,0,0,250,346,198,286,230,318,268,241,300,169,202,166,0
2,1773251389504,1306,469,9758,596204,-10995,194255,0,0,0,338,481,307,448,398,442,584,584,330,342,452,273,0
1,1773251389520,-11830,6657,26948,8845328,841772,3466049,0,0,0,266,315,209,273,190,280,321,240,270,183,224,146,0
1,1773251389536,-13113,11289,18329,8633969,316428,3820351,0,0,0,271,315,214,277,187,289,330,247,277,191,237,151,0
2,1773251389536,1143,1282,10557,188146,-211359,8552,0,0,0,354,489,321,441,401,447,595,595,334,339,445,285,0
1,1773251389552,-8700,15319,12897,6123313,-153938,3356093,0,0,0,277,319,208,285,192,295,330,252,279,194,237,153,0
2,1773251389552,1182,1588,10174,107512,-221133,0,0,0,0,369,502,338,444,407,446,586,586,321,340,433,294,0
1,1773251389568,-3048,19114,11538,1540602,260228,1281595,0,0,0,282,323,206,310,194,291,382,243,262,212,232,147,0
2,1773251389568,1143,1675,10054,112399,-208915,0,0,0,0,371,500,334,436,422,452,581,581,329,337,416,299,0
1,1773251389584,-2569,17114,11433,-3095865,1440420,-1524719,0,0,0,268,326,207,299,196,291,369,246,262,208,235,148,0
2,1773251389584,1038,1780,10203,217468,-232128,-17104,0,0,0,375,501,335,434,413,450,586,586,333,318,391,312,0
1,1773251389600,-8073,9246,7987,-4888143,1546710,-2549751,0,0,0,260,327,210,284,197,291,348,251,269,194,238,149,0
2,1773251389600,871,1866,10265,351858,-217468,-32986,0,0,0,378,503,344,426,411,452,591,587,329,323,384,315,0
2,1773251389616,784,1794,10150,465479,-120951,-26878,0,0,0,382,507,352,428,416,457,582,579,331,293,343,324,0
1,1773251389632,-4603,5393,5116,-4426329,-590095,-596204,0,0,0,258,329,217,280,197,293,340,260,276,190,241,150,0
2,1773251389632,823,1612,10040,529009,-29321,-18325,0,0,0,388,511,353,429,416,459,575,563,335,262,298,333,0
1,1773251389648,-2402,6398,6915,-4960225,-287106,-381179,0,0,0,252,330,217,280,198,291,338,262,276,191,244,149,0
2,1773251389648,928,1378,9959,538783,23212,-18325,0,0,0,399,514,359,431,416,462,575,545,338,271,294,338,0
1,1773251389664,-4082,6274,8499,-5791002,-41538,-532674,0,0,0,242,329,215,280,200,294,341,261,272,192,247,149,0
2,1773251389664,1009,1220,9863,499687,29321,-25656,0,0,0,410,522,368,441,425,468,575,529,344,279,293,347,0
1,1773251389680,-5187,5484,9901,-6372546,-531452,-594982,0,0,0,241,329,216,280,202,296,341,258,270,196,247,157,0
2,1773251389680,1057,1191,9791,453262,2443,-32986,0,0,0,412,524,359,438,448,466,573,513,353,248,253,365,0
1,1773251389696,-4091,4670,11629,-6704856,-1114218,-670730,0,0,0,233,330,218,272,219,298,332,269,277,188,249,151,0
2,1773251389696,1110,1201,9844,436157,-35430,-43982,0,0,0,416,523,357,436,477,461,566,486,368,247,229,382,0
1,1773251389712,-3350,3493,13524,-6985854,-1236391,-858876,0,0,0,236,335,224,276,203,301,332,262,277,190,248,151,0
2,1773251389712,1124,1153,9978,449596,-78190,-58643,0,0,0,427,532,360,449,446,476,572,453,365,245,212,403,0
1,1773251389728,-3603,2105,15419,-7169114,-1408655,-886976,0,0,0,236,332,222,282,207,300,334,263,279,192,251,149,0
2,1773251389728,1081,1076,10016,467922,-111177,-72082,0,0,0,441,543,355,456,450,491,562,426,365,236,194,404,0
1,1773251389744,-3235,1182,18047,-7192327,-1793500,-604756,0,0,0,232,330,220,279,205,299,325,257,276,200,254,147,0
2,1773251389744,1014,990,9959,485026,-128281,-78190,0,0,0,453,554,365,454,460,497,557,413,364,243,190,434,0
1,1773251389760,-2378,579,20842,-7204544,-2028072,-327423,0,0,0,224,328,216,293,209,303,323,256,271,191,254,146,0
2,1773251389760,966,890,9940,494800,-117286,-84299,0,0,0,466,555,369,464,460,486,524,379,348,248,178,478,0
1,1773251389776,-1928,-52,23393,-7254635,-2042733,-278554,0,0,0,234,335,221,286,211,297,336,271,276,189,263,146,0
2,1773251389776,1043,794,10026,513126,-90408,-101403,0,0,0,473,560,382,474,464,501,539,360,360,249,173,492,0
1,1773251389792,-3000,-1143,26140,-7194770,-2015855,-735481,0,0,0,238,341,227,278,211,296,336,276,279,186,266,145,0
2,1773251389792,1196,727,10165,558330,-83077,-135612,0,0,0,488,563,375,485,475,518,533,354,371,253,165,517,0
1,1773251389808,-4474,-3029,29088,-6982189,-2228436,-1540602,0,0,0,239,342,225,279,212,298,334,274,277,190,265,143,0
2,1773251389808,1182,717,10299,638965,-114842,-178372,0,0,0,499,565,362,491,487,528,523,319,382,263,168,542,0
1,1773251389824,-4871,-7733,32079,-6674313,-2700024,-2525316,0,0,0,238,342,223,280,211,300,337,273,276,196,265,142,0
2,1773251389824,1158,703,10471,740368,-145385,-210137,0,0,0,513,576,362,498,485,529,518,281,391,270,168,560,0
2,1773251389840,1191,622,10859,902858,-171042,-239459,0,0,0,525,582,357,509,487,544,502,254,395,262,162,561,0
1,1773251389856,-5441,-28513,29107,-5904623,-2377487,-2769662,0,0,0,231,342,215,282,216,307,328,272,287,191,271,143,0
2,1773251389856,1162,545,11490,1150870,-195476,-277332,0,0,0,528,589,353,526,505,568,474,233,408,269,164,571,0
1,1773251389872,382,-38990,21512,-4575380,-2238210,-1441641,0,0,0,226,342,211,287,220,307,330,271,301,190,271,144,0
2,1773251389872,981,559,12237,1502728,-189368,-296880,0,0,0,533,600,354,540,529,578,441,219,426,272,169,589,0
1,1773251389888,11127,-43689,16075,-2549751,-1711644,-375071,0,0,0,228,341,211,289,222,305,327,273,298,190,272,135,0
2,1773251389888,976,569,12950,1944994,-145385,-305432,0,0,0,550,607,341,543,546,571,399,214,427,249,166,596,0
1,1773251389904,14386,-44287,14601,-703716,-320093,65973,0,0,0,230,343,219,284,214,306,329,270,296,197,268,140,0
1,1773251389920,11998,-41320,14912,831998,972497,441044,0,0,0,230,335,221,298,204,305,351,284,277,218,294,135,0
2,1773251389920,1440,368,14893,3051882,-200363,-326202,0,0,0,574,625,297,543,551,578,299,216,414,248,172,602,0
1,1773251389936,5766,-29672,17142,2078163,1784948,575435,0,0,0,234,303,195,299,192,293,417,392,259,296,385,111,0
2,1773251389936,2321,402,16027,3738495,-408057,-393397,0,0,0,584,616,278,536,566,572,262,220,419,238,177,596,0
1,1773251389952,-4618,4307,18339,3029891,2277305,230907,0,0,0,247,272,160,288,158,247,457,449,254,334,418,95,0
2,1773251389952,3005,512,17013,4544837,-621860,-593761,0,0,0,598,618,265,515,574,569,242,200,393,242,176,589,0
1,1773251389968,-9471,22885,12256,3521027,2653598,-219911,0,0,0,252,269,145,280,155,245,476,482,245,379,450,99,0
2,1773251389968,3273,38,19047,5488013,-702495,-857654,0,0,0,598,606,299,521,565,552,242,165,395,241,167,554,0
1,1773251389984,-3924,9126,10102,4858822,2101376,-561996,0,0,0,245,273,145,286,160,256,489,508,249,450,495,113,0
2,1773251389984,4216,-1407,23326,6477614,-615752,-1126435,0,0,0,569,584,312,498,536,552,241,142,391,216,136,501,0
1,1773251390000,4958,-5202,20387,5907066,135612,-350636,0,0,0,247,277,180,301,163,274,515,526,266,483,522,123,0
2,1773251390000,5661,-119,27968,7274183,-426383,-1402546,0,0,0,486,551,253,496,516,541,261,141,364,207,129,429,0
1,1773251390016,1890,-2861,22732,4632801,-348193,586430,0,0,0,262,286,243,321,175,307,543,543,278,502,529,135,0
2,1773251390016,6886,1890,30614,7991339,-360410,-1694540,0,0,0,397,518,190,463,474,487,275,173,330,199,130,382,0
1,1773251390032,-3862,-129,18813,2893057,-173485,827111,0,0,0,279,303,272,344,193,345,559,559,298,529,535,163,0
2,1773251390032,7504,4044,31806,8819672,-237015,-2057394,0,0,0,328,474,176,405,429,426,300,239,290,167,127,318,0
2,1773251390048,7834,6164,30289,9463524,417831,-2528982,0,0,0,279,444,188,363,394,388,328,287,275,135,121,244,0
1,1773251390064,-2000,-502,10189,477696,4886,-243124,0,0,0,306,333,274,380,214,379,577,577,306,552,555,250,0
2,1773251390064,8533,8805,23555,9529497,867428,-3094643,0,0,0,257,437,197,354,384,378,340,307,274,124,120,209,0
1,1773251390080,-1560,378,10141,288328,-67195,-108734,0,0,0,317,341,285,387,220,396,584,581,317,559,564,278,0
2,1773251390080,8078,13711,14678,8075638,395840,-3545461,0,0,0,255,440,196,361,392,379,345,314,272,128,122,207,0
1,1773251390096,-2402,1005,10265,312763,-18325,43982,0,0,0,323,346,329,384,223,420,585,568,331,545,565,315,0
2,1773251390096,3498,21134,11562,3221703,-834441,-2410474,0,0,0,254,440,194,365,394,378,351,312,268,130,122,199,0
1,1773251390112,-2531,923,9968,338419,59864,39095,0,0,0,337,365,347,393,236,408,585,557,326,551,572,317,0
2,1773251390112,971,21837,12514,-3131295,-2315179,327423,0,0,0,253,440,199,369,395,379,353,312,266,129,123,198,0
1,1773251390128,-2182,875,9954,346971,75747,26878,0,0,0,342,363,342,411,239,417,581,548,332,532,540,343,0
2,1773251390128,5364,12739,10145,-5463578,-2825862,1877799,0,0,0,253,442,202,369,394,380,356,318,270,129,123,198,0
1,1773251390144,-2014,976,10241,392175,3665,51312,0,0,0,360,370,336,400,249,413,576,515,342,511,517,347,0
2,1773251390144,10074,4130,4934,-5641951,-2080607,1981646,0,0,0,258,442,202,373,397,381,356,320,271,133,127,197,0
1,1773251390160,-2014,985,10189,448375,-86742,78190,0,0,0,358,375,312,402,257,411,566,476,338,484,494,354,0
1,1773251390176,-2024,832,9638,412944,-125838,87964,0,0,0,369,373,302,399,254,413,553,430,348,470,473,377,0
2,1773251390176,5824,5474,5384,-5225341,-35430,379958,0,0,0,258,443,200,374,398,382,355,326,267,132,135,191,0
1,1773251390192,-2019,727,9461,370184,-157603,84299,0,0,0,359,381,297,400,261,425,542,427,358,442,454,400,0
2,1773251390192,4828,6226,7389,-5957157,-35430,229685,0,0,0,258,442,200,375,398,381,358,328,266,141,151,192,0
1,1773251390208,-2096,650,9538,375071,-210137,74525,0,0,0,350,388,288,398,269,429,539,422,360,421,439,410,0
2,1773251390208,5738,4910,8049,-6356663,212581,240680,0,0,0,257,445,198,376,400,381,356,326,264,138,153,189,0
1,1773251390224,-2249,569,9466,367740,-199142,70860,0,0,0,344,390,276,397,273,425,536,405,357,418,427,415,0
2,1773251390224,5374,3407,9088,-6269920,978606,261450,0,0,0,257,445,201,373,398,378,350,325,260,142,157,189,0
1,1773251390240,-2340,497,9375,327423,-129503,75747,0,0,0,339,389,274,405,278,426,531,392,357,424,417,418,0
2,1773251390240,4197,2857,10701,-6124534,1466076,394618,0,0,0,257,444,202,375,399,381,351,329,262,139,161,190,0
1,1773251390256,-2254,497,9428,274889,-36651,89186,0,0,0,346,383,285,417,280,434,533,381,358,423,404,418,0
2,1773251390256,3474,3019,12725,-6117204,1627344,660956,0,0,0,256,444,200,374,399,380,352,335,263,138,163,188,0
2,1773251390272,3278,3498,14816,-6298020,1760513,894306,0,0,0,258,446,201,375,400,381,354,338,264,140,163,187,0
1,1773251390288,-2038,574,9763,290771,0,92851,0,0,0,347,395,286,388,341,422,532,362,360,392,363,439,0
2,1773251390288,3172,3814,17540,-6687752,1992642,1049466,0,0,0,259,446,202,378,401,382,356,337,265,141,163,187,0
1,1773251390304,-2110,502,9897,356745,-34208,103847,0,0,0,345,396,288,413,284,447,545,328,353,388,335,442,0
2,1773251390304,3077,3536,20497,-7007846,2206445,1110553,0,0,0,258,445,202,377,400,382,357,336,266,139,163,186,0
1,1773251390320,-2273,435,9911,421497,-58643,129503,0,0,0,363,405,282,429,293,458,536,305,383,372,321,467,0
2,1773251390320,3316,2900,24273,-7150788,2345722,1120326,0,0,0,259,446,201,374,399,381,358,336,266,135,160,183,0
1,1773251390336,-2469,373,9858,499687,-68416,189368,0,0,0,369,422,270,428,321,465,538,318,385,367,318,499,0
2,1773251390336,4015,2029,28949,-7169114,2439795,1194852,0,0,0,259,446,201,375,400,382,360,334,267,135,157,180,0
1,1773251390352,-2565,282,9873,579100,-86742,277332,0,0,0,371,454,258,456,353,498,536,278,393,332,276,512,0
2,1773251390352,4268,-1182,34165,-7213096,2599842,1457524,0,0,0,263,446,200,380,400,384,365,332,269,139,156,181,0
1,1773251390368,-2574,239,10112,664621,-116064,367740,0,0,0,379,476,263,465,356,498,523,249,391,309,236,532,0
2,1773251390368,3302,-8470,36932,-7183775,2812423,1794722,0,0,0,262,446,193,380,401,384,372,324,273,138,153,178,0
1,1773251390384,-2675,196,10576,806342,-122173,450818,0,0,0,391,479,265,474,349,510,498,220,411,299,205,545,0
2,1773251390384,1694,-20851,35721,-6682865,2598620,1846034,0,0,0,266,447,196,385,401,387,364,316,277,141,152,178,0
1,1773251390400,-2550,71,11184,993266,-139277,525344,0,0,0,397,482,258,485,371,531,477,204,437,303,202,542,0
2,1773251390400,784,-34941,28982,-5491678,1936442,1368338,0,0,0,268,449,196,386,402,387,374,322,279,141,154,177,0
1,1773251390416,-2220,-38,11998,1263269,-197920,557109,0,0,0,414,487,259,503,395,553,455,191,448,296,192,553,0
1,1773251390432,-2014,-100,12653,1645670,-240680,527787,0,0,0,427,491,238,515,410,564,421,177,452,284,170,575,0
2,1773251390432,-10169,-49269,15453,-1527163,1510058,-1543045,0,0,0,265,448,204,380,397,394,377,325,283,145,158,191,0
1,1773251390448,-1895,-234,12921,2039068,-274889,483805,0,0,0,441,508,212,516,436,563,383,178,458,271,163,587,0
2,1773251390448,-14400,-46589,17272,97738,315206,-2373822,0,0,0,255,440,187,376,400,383,396,404,271,145,181,179,0
1,1773251390464,-2115,-253,13333,2555860,-324980,432492,0,0,0,465,531,217,520,459,570,340,179,467,251,162,592,0
2,1773251390464,-8604,-26058,21808,1932777,-1958433,-2070833,0,0,0,246,407,162,364,377,370,443,452,263,179,244,168,0
2,1773251390480,2727,7518,19712,3313333,-4243069,-840550,0,0,0,245,380,155,358,359,371,474,474,271,191,297,162,0
1,1773251390496,-4498,-354,15089,3682295,-175929,684169,0,0,0,451,550,227,488,443,574,243,158,465,203,120,578,0
2,1773251390496,6049,13630,11868,4039040,-4698775,623082,0,0,0,251,376,155,364,358,382,486,486,284,195,336,166,0
1,1773251390512,-5561,-201,16793,4473977,-28099,1044579,0,0,0,487,502,237,483,419,566,236,170,473,198,111,566,0
2,1773251390512,-296,2325,12213,4809952,-3316998,1246165,0,0,0,255,383,154,378,362,394,503,503,291,213,371,175,0
1,1773251390528,-6503,-449,19315,5263214,12217,1426981,0,0,0,471,493,226,468,401,550,216,135,473,166,88,522,0
2,1773251390528,-7264,-4020,18741,5125159,-1258382,788016,0,0,0,261,398,168,393,369,407,529,530,299,239,401,183,0
1,1773251390544,-8011,-650,23067,6203947,-25656,1858252,0,0,0,416,468,218,442,375,507,233,145,438,149,78,428,0
2,1773251390544,-3292,186,22014,4189313,-359188,-152716,0,0,0,278,426,214,406,379,422,550,551,311,261,414,198,0
1,1773251390560,-9327,-268,26197,7029837,68416,2280970,0,0,0,363,442,215,382,315,446,210,148,362,133,94,352,0
2,1773251390560,2770,1349,19760,2382374,-195476,-298102,0,0,0,291,449,261,412,389,432,565,565,322,268,402,224,0
1,1773251390576,-9270,33,29384,7657806,383623,2692693,0,0,0,295,391,209,345,283,388,223,173,317,134,129,295,0
2,1773251390576,3072,119,14166,908967,-313984,153938,0,0,0,300,464,285,413,398,441,575,576,329,282,396,259,0
1,1773251390592,-9026,2340,30155,8168489,615752,2948035,0,0,0,255,330,201,287,222,308,287,222,283,152,185,180,0
2,1773251390592,588,138,10509,350636,-206472,262672,0,0,0,317,476,291,420,404,457,584,587,336,270,398,288,0
1,1773251390608,-10720,6106,26494,8643743,476474,3169168,0,0,0,261,307,206,267,180,280,324,241,273,170,226,136,0
2,1773251390608,344,938,9925,299323,-57421,98960,0,0,0,333,487,299,425,408,461,545,587,350,339,455,284,0
1,1773251390624,-12021,11127,17889,8202698,-8552,3488040,0,0,0,264,320,204,271,182,289,323,244,273,174,236,141,0
2,1773251390624,1201,1363,10256,223576,-96516,-2443,0,0,0,342,487,310,427,409,456,593,596,321,334,461,286,0
1,1773251390640,-9633,16266,12299,5948605,-291993,3429397,0,0,0,254,325,197,275,193,294,319,252,269,174,235,142,0
2,1773251390640,1320,1445,10251,108734,-149051,-6108,0,0,0,352,491,314,432,415,457,593,593,327,294,437,300,0
1,1773251390656,-4163,20397,12031,1442863,263893,1953547,0,0,0,260,319,195,294,192,291,347,252,259,187,238,142,0
2,1773251390656,1086,1497,10174,67195,-157603,0,0,0,0,355,491,318,429,413,459,588,593,330,290,423,312,0
1,1773251390672,-3048,16755,11476,-2879618,1701870,-598647,0,0,0,274,321,194,317,191,287,391,245,249,209,241,140,0
1,1773251390688,-6724,10136,7762,-4343251,2196671,-1806939,0,0,0,263,322,198,306,190,292,374,244,258,205,238,144,0
2,1773251390688,890,1765,10189,278554,-90408,-43982,0,0,0,364,493,308,431,421,455,578,578,332,268,339,345,0
2,1773251390704,861,1789,10102,410501,-9773,-43982,0,0,0,367,498,308,435,428,462,575,575,334,265,319,351,0
1,1773251390720,-5905,6345,4800,-4383568,177150,-714712,0,0,0,246,328,218,293,195,307,347,252,270,188,240,154,0
2,1773251390720,942,1617,9949,503352,69638,-29321,0,0,0,371,502,310,436,427,463,561,555,342,257,290,363,0
1,1773251390736,-4173,5977,6527,-5032307,324980,-574213,0,0,0,247,320,241,292,200,306,385,242,273,213,232,158,0
2,1773251390736,1067,1387,9825,527787,101403,-24434,0,0,0,376,505,310,438,427,463,562,537,342,254,273,374,0
1,1773251390752,-4742,4996,7887,-5580864,554665,-597426,0,0,0,252,321,250,300,192,314,393,247,274,205,241,156,0
2,1773251390752,1167,1282,9796,499687,73303,-25656,0,0,0,385,506,309,446,427,473,573,528,342,257,265,388,0
1,1773251390768,-5958,4063,9049,-5949827,249233,-657290,0,0,0,253,323,232,299,192,307,384,251,271,205,243,146,0
2,1773251390768,1263,1282,9839,478918,14660,-26878,0,0,0,395,504,311,455,425,484,570,514,350,255,248,401,0
1,1773251390784,-5733,3752,10595,-6324898,-268780,-862541,0,0,0,245,321,241,289,191,314,363,254,278,197,243,152,0
2,1773251390784,1292,1229,9863,464257,-61086,-29321,0,0,0,399,506,313,465,430,485,567,497,348,260,236,396,0
1,1773251390800,-5762,3206,12457,-6784269,-637743,-1247386,0,0,0,241,320,240,279,191,312,353,261,281,189,240,151,0
2,1773251390800,1215,1100,9858,445931,-125838,-37873,0,0,0,412,509,314,475,440,499,567,465,351,279,233,404,0
1,1773251390816,-6551,2139,14079,-7079928,-911410,-1590693,0,0,0,244,320,238,281,192,312,350,259,279,188,242,151,0
2,1773251390816,1100,1024,9901,427605,-152716,-46425,0,0,0,427,519,323,475,446,506,569,447,363,244,202,420,0
1,1773251390832,-7054,851,16070,-7116580,-1368338,-1744631,0,0,0,240,322,240,281,194,314,348,255,278,189,246,151,0
2,1773251390832,1033,981,9968,431270,-129503,-50090,0,0,0,434,533,328,476,453,522,566,413,373,241,186,441,0
1,1773251390848,-7020,0,18722,-6998072,-1792278,-1782504,0,0,0,238,323,242,265,218,306,350,256,281,189,246,151,0
2,1773251390848,1067,952,10026,456927,-90408,-56199,0,0,0,439,540,328,485,481,520,564,377,373,238,165,453,0
1,1773251390864,-7183,-382,21981,-6874677,-2034181,-1809382,0,0,0,239,323,242,263,220,304,355,258,284,189,244,151,0
2,1773251390864,1234,890,10112,510683,-53756,-79412,0,0,0,457,555,344,483,480,522,558,345,380,239,164,473,0
1,1773251390880,-7776,-976,25771,-6849021,-2216219,-1853365,0,0,0,239,324,242,280,194,313,361,257,283,192,241,152,0
2,1773251390880,1588,751,10136,566882,-21991,-151494,0,0,0,466,552,346,500,480,535,551,323,386,260,167,488,0
1,1773251390896,-8279,-2718,29514,-6967528,-2362826,-1909564,0,0,0,240,322,243,283,191,314,368,252,283,197,235,152,0
2,1773251390896,1564,693,10356,630412,-8552,-251676,0,0,0,485,557,366,512,489,547,541,294,388,265,163,507,0
1,1773251390912,-7341,-7590,32213,-7071376,-2656042,-2034181,0,0,0,240,323,240,284,189,311,376,251,283,198,229,147,0
2,1773251390912,1153,756,10768,764803,-58643,-298102,0,0,0,498,560,358,515,490,554,531,270,400,262,162,535,0
1,1773251390928,-6293,-15180,33084,-6906442,-2812423,-2085493,0,0,0,239,323,235,294,190,308,391,245,279,207,238,142,0
2,1773251390928,1057,670,11036,992045,-116064,-278554,0,0,0,507,562,339,518,501,564,515,243,399,266,166,561,0
1,1773251390944,-5972,-26671,28997,-6170960,-2442239,-1464854,0,0,0,251,328,233,308,187,307,408,242,280,221,233,141,0
2,1773251390944,1158,488,11275,1210734,-106290,-270002,0,0,0,510,567,326,526,513,573,488,228,403,267,168,577,0
1,1773251390960,-1756,-37659,22057,-4930904,-2294409,-87964,0,0,0,256,329,233,314,187,307,413,241,280,221,235,141,0
2,1773251390960,1115,406,11931,1497841,-24434,-277332,0,0,0,520,577,308,533,525,572,455,225,413,262,168,586,0
1,1773251390976,10705,-45249,16812,-3103195,-2054950,1188743,0,0,0,253,329,231,306,187,305,404,244,281,219,238,147,0
2,1773251390976,1062,387,12586,1809382,31764,-274889,0,0,0,527,582,281,545,537,571,423,219,425,268,171,595,0
1,1773251390992,18281,-47987,15022,-1227839,-801455,1314581,0,0,0,249,328,217,303,188,297,374,258,282,215,249,141,0
2,1773251390992,1148,291,13314,2269975,42760,-260228,0,0,0,523,584,257,556,544,575,385,210,434,278,179,601,0
1,1773251391008,13807,-43239,15553,828333,1127657,669508,0,0,0,245,315,201,289,179,285,397,336,270,251,336,118,0
2,1773251391008,1722,263,14237,2800206,-10995,-271224,0,0,0,531,595,241,547,549,572,338,205,428,266,180,602,0
1,1773251391024,1962,-18927,19320,2730567,2543642,199142,0,0,0,238,283,171,266,162,251,438,422,255,295,399,103,0
2,1773251391024,2747,234,15434,3406184,-158824,-378736,0,0,0,538,598,237,539,546,585,299,206,420,257,170,606,0
1,1773251391040,-6082,11768,17779,4040262,3756821,-287106,0,0,0,242,270,153,266,156,233,467,468,248,340,425,96,0
2,1773251391040,3417,339,17013,4238183,-372627,-625526,0,0,0,541,595,227,528,548,582,279,194,431,247,170,603,0
1,1773251391056,-1938,11773,13778,4987103,3646865,-568104,0,0,0,245,273,161,279,156,250,485,485,257,388,451,102,0
2,1773251391056,4087,665,18813,5161811,-549778,-908967,0,0,0,541,571,235,513,533,565,266,163,423,244,158,578,0
1,1773251391072,4551,-90,18233,5759237,2015855,-291993,0,0,0,247,278,169,294,162,266,493,496,268,427,475,103,0
2,1773251391072,5058,780,21512,6130643,-658512,-1230282,0,0,0,516,542,237,520,516,561,307,212,407,216,139,499,0
1,1773251391088,2823,-3565,23972,4987103,328645,554665,0,0,0,259,286,193,313,174,280,507,510,276,463,489,108,0
2,1773251391088,5695,842,26254,7172779,-662177,-1547932,0,0,0,444,526,204,498,504,538,275,152,382,202,131,427,0
1,1773251391104,-3192,-1651,21540,3293785,-130725,773355,0,0,0,271,294,251,322,177,314,538,538,291,501,509,149,0
2,1773251391104,6647,1517,29973,8048760,-425162,-1783726,0,0,0,371,502,167,456,461,478,292,174,341,192,128,370,0
1,1773251391120,-5288,-52,14213,1671327,81855,160046,0,0,0,293,312,280,338,178,340,555,555,304,519,525,196,0
2,1773251391120,7547,2703,31820,8769581,141720,-2063502,0,0,0,314,460,170,400,418,423,312,244,297,161,125,297,0
2,1773251391136,8054,4704,31409,9271712,1037249,-2581516,0,0,0,272,437,185,365,395,392,336,298,282,133,124,222,0
1,1773251391152,-1450,4,9710,416610,56199,-172263,0,0,0,300,327,367,353,193,410,561,560,355,518,536,290,0
2,1773251391152,7910,8604,25513,9161756,1275486,-3163060,0,0,0,259,435,191,360,393,386,346,317,283,125,124,199,0
1,1773251391168,-2258,559,10461,299323,54977,4886,0,0,0,329,340,297,372,205,383,581,564,319,525,552,287,0
2,1773251391168,7188,16286,14687,6879564,-227241,-3623652,0,0,0,256,437,190,364,399,386,345,320,279,123,124,198,0
1,1773251391184,-2464,885,10189,279776,135612,30543,0,0,0,335,348,324,376,215,390,581,558,313,520,555,319,0
2,1773251391184,5987,23407,10614,1913229,-1604132,-3132516,0,0,0,252,437,188,364,401,381,346,320,272,123,125,192,0
1,1773251391200,-2091,871,9992,295658,124616,23212,0,0,0,335,357,323,386,231,396,575,544,317,523,555,329,0
2,1773251391200,4426,20803,11485,-3155729,-1813048,-1529606,0,0,0,254,439,187,365,399,378,351,323,271,126,128,190,0
1,1773251391216,-1971,856,10155,318871,28099,31764,0,0,0,347,375,338,380,269,403,573,528,327,513,534,340,0
2,1773251391216,5125,12816,8939,-5456248,-1744631,-205250,0,0,0,255,442,186,373,408,381,353,324,268,124,127,187,0
1,1773251391232,-2038,928,10275,359188,-50090,52534,0,0,0,340,382,334,387,261,410,562,520,333,493,504,345,0
2,1773251391232,7690,6642,4522,-5238780,-1192408,89186,0,0,0,253,442,186,377,422,384,348,328,261,122,127,184,0
1,1773251391248,-2024,942,9734,387288,-92851,70860,0,0,0,335,385,331,393,248,410,552,483,337,467,475,355,0
2,1773251391248,7360,5747,4168,-5024977,-52534,-147829,0,0,0,253,442,188,382,404,390,349,326,260,123,126,183,0
1,1773251391264,-1928,794,9121,359188,-98960,65973,0,0,0,332,388,333,389,246,412,546,450,340,445,458,364,0
2,1773251391264,5029,6312,6412,-5329188,570548,-86742,0,0,0,246,446,182,381,405,389,348,328,259,122,126,181,0
1,1773251391280,-2000,650,9351,372627,-142942,56199,0,0,0,326,389,342,385,249,422,536,433,348,435,442,373,0
2,1773251391280,3943,6077,8375,-5759237,602313,353080,0,0,0,248,446,186,378,403,387,347,328,261,122,126,181,0
1,1773251391296,-2144,579,9629,388510,-164933,56199,0,0,0,326,390,346,388,257,427,528,413,357,431,420,382,0
2,1773251391296,5187,4718,8743,-5847202,877202,764803,0,0,0,250,443,190,370,402,379,347,328,262,124,129,186,0
1,1773251391312,-2225,550,9495,353080,-103847,62308,0,0,0,331,392,335,398,270,429,528,393,359,425,403,385,0
1,1773251391328,-2206,540,9413,320093,-21991,75747,0,0,0,336,388,334,411,281,439,530,379,361,426,392,392,0
2,1773251391328,4020,4053,11787,-5747020,1882686,1178969,0,0,0,255,447,194,374,404,381,355,333,269,129,132,187,0
1,1773251391344,-2086,526,9538,318871,23212,87964,0,0,0,360,393,340,408,272,437,528,373,360,411,379,401,0
2,1773251391344,3345,4402,14003,-5926614,1966986,1412320,0,0,0,255,447,195,375,405,383,356,332,268,128,133,187,0
2,1773251391360,3527,4474,16137,-6288246,1980425,1600466,0,0,0,253,447,194,376,408,385,357,333,268,127,131,185,0
1,1773251391376,-1928,459,9810,367740,0,91629,0,0,0,357,397,350,411,261,474,536,342,369,397,337,433,0
2,1773251391376,3924,3771,18741,-6649878,2151467,1643227,0,0,0,255,449,197,376,409,385,358,333,270,126,129,183,0
1,1773251391392,-1962,392,9897,401949,-37873,91629,0,0,0,365,417,340,421,277,444,539,312,353,395,310,446,0
2,1773251391392,4139,2928,21655,-6817256,2344500,1594358,0,0,0,257,449,199,375,406,386,358,333,272,124,128,182,0
1,1773251391408,-2096,311,9964,450818,-75747,109955,0,0,0,375,417,351,421,298,447,534,274,347,385,290,466,0
2,1773251391408,4364,2335,25695,-6846577,2486221,1578475,0,0,0,254,445,197,375,402,385,350,334,276,123,126,181,0
1,1773251391424,-2273,229,9930,511905,-96516,157603,0,0,0,384,430,351,434,297,467,530,250,375,366,277,482,0
2,1773251391424,4833,1210,31265,-6961420,2410474,1866804,0,0,0,258,446,199,374,398,383,347,332,281,123,124,181,0
1,1773251391440,-2412,167,9911,576656,-105068,227241,0,0,0,377,430,345,442,311,479,527,233,380,348,254,495,0
2,1773251391440,5465,-3431,35194,-7236309,2453234,2561968,0,0,0,259,446,200,378,399,385,364,323,276,124,124,180,0
1,1773251391456,-2531,148,10093,651182,-94073,305432,0,0,0,387,441,322,440,328,485,525,226,405,323,226,517,0
2,1773251391456,3374,-13725,36214,-7077484,3104417,3078760,0,0,0,263,448,199,386,404,392,367,317,279,128,125,179,0
