sole_id,timestamp,accel_x,accel_y,accel_z,gyro_x,gyro_y,gyro_z,magn_x,magn_y,magn_z,pressure_01,pressure_02,pressure_03,pressure_04,pressure_05,pressure_06,pressure_07,pressure_08,pressure_09,pressure_10,pressure_11,pressure_12,corrupt
1,1773254538560,-3364,1253,16975,-5210680,-1974316,-1572367,0,0,0,278,327,259,295,219,322,372,267,291,204,234,133,0
2,1773254538560,966,1186,10040,317649,-37873,-34208,0,0,0,481,552,367,482,459,526,604,506,371,252,204,457,0
1,1773254538576,-3259,306,18913,-5210680,-1908343,-1435533,0,0,0,278,326,257,293,215,320,368,261,285,205,232,133,0
2,1773254538576,981,1115,10026,354301,8552,-47647,0,0,0,490,553,366,484,469,532,605,487,369,246,194,470,0
1,1773254538592,-3488,-607,20401,-5131268,-1795943,-1458746,0,0,0,278,325,255,297,219,321,370,263,286,202,230,132,0
2,1773254538592,1014,1024,10026,386066,3665,-53756,0,0,0,487,554,360,503,480,539,602,476,382,253,190,489,0
1,1773254538608,-3914,-1555,21430,-4966334,-1737300,-1704314,0,0,0,281,328,260,296,219,323,369,260,285,204,229,131,0
2,1773254538608,1052,976,10050,416610,2443,-62308,0,0,0,507,565,365,504,491,545,598,459,390,253,188,504,0
1,1773254538624,-4163,-2852,22488,-4764748,-1742187,-2058615,0,0,0,281,327,265,297,217,321,369,259,284,207,229,134,0
2,1773254538624,1110,957,10088,464257,2443,-78190,0,0,0,515,574,372,502,487,552,604,421,412,270,197,519,0
1,1773254538640,-4407,-4991,23613,-4590041,-1762957,-2415361,0,0,0,286,325,260,309,217,311,372,260,279,214,229,130,0
2,1773254538640,1167,909,10155,520457,-1221,-96516,0,0,0,526,578,387,508,487,560,588,388,402,260,181,535,0
1,1773254538656,-5484,-8662,23737,-4587597,-1656666,-2434908,0,0,0,292,325,258,316,215,304,377,260,276,215,225,127,0
2,1773254538656,1210,799,10256,582765,-10995,-122173,0,0,0,536,580,374,522,493,563,579,353,404,266,172,556,0
1,1773254538672,-6867,-13352,22067,-4623028,-1546710,-2018298,0,0,0,292,325,254,317,214,305,380,260,279,217,223,126,0
2,1773254538672,1316,698,10361,615752,9773,-151494,0,0,0,540,584,358,526,502,568,568,321,407,272,175,576,0
1,1773254538688,-6216,-19559,18382,-4445877,-1717753,-1014036,0,0,0,292,325,251,317,216,308,378,259,279,220,225,127,0
2,1773254538688,1407,636,10691,682947,46425,-199142,0,0,0,551,591,351,530,508,577,552,296,410,274,171,582,0
1,1773254538704,1459,-25288,14941,-3596774,-2064724,169820,0,0,0,294,326,253,317,217,308,375,257,277,222,225,129,0
2,1773254538704,1287,641,11227,888198,62308,-248011,0,0,0,554,594,350,533,519,585,532,278,413,275,169,588,0
1,1773254538720,9054,-28571,13414,-2401922,-1607797,568104,0,0,0,286,325,240,318,218,305,382,271,276,237,245,130,0
2,1773254538720,1239,564,11634,1200961,53756,-267558,0,0,0,549,594,339,536,534,592,510,269,419,273,175,597,0
1,1773254538736,10744,-30260,13089,-840550,-202807,335975,0,0,0,268,315,213,316,222,297,409,323,273,279,310,127,0
2,1773254538736,1311,425,12021,1521054,41538,-290771,0,0,0,551,599,315,541,541,594,482,263,422,272,173,600,0
1,1773254538752,8528,-30102,14486,899193,1499063,270002,0,0,0,277,306,216,309,210,288,445,389,266,299,362,115,0
2,1773254538752,1340,373,12529,1855808,-39095,-302989,0,0,0,554,599,301,534,538,581,446,253,416,272,176,608,0
1,1773254538768,1794,-13773,13720,3356093,3475823,712268,0,0,0,263,266,187,295,175,272,461,445,272,314,392,106,0
2,1773254538768,1526,296,13031,2240653,-166155,-316428,0,0,0,562,595,282,534,548,589,404,249,416,273,180,611,0
1,1773254538784,-3555,4350,13448,4516737,3756821,844215,0,0,0,264,273,189,293,170,278,462,456,294,329,416,104,0
2,1773254538784,1746,129,13491,2681698,-274889,-364075,0,0,0,569,592,267,526,556,592,362,242,409,283,189,620,0
1,1773254538800,-3259,6992,14773,4459316,2555860,513126,0,0,0,272,274,195,303,164,285,474,472,280,345,423,93,0
2,1773254538800,2043,19,14170,3145955,-366519,-438601,0,0,0,573,594,251,518,549,573,330,228,415,279,180,617,0
1,1773254538816,-110,765,17755,4199087,1214400,316428,0,0,0,281,278,202,315,170,294,489,486,278,391,437,89,0
2,1773254538816,2565,4,15223,3671300,-481361,-543670,0,0,0,572,591,254,503,537,567,312,213,412,274,180,600,0
1,1773254538832,-722,-2096,19416,3233920,624304,546113,0,0,0,288,291,226,322,189,303,494,488,278,401,439,89,0
2,1773254538832,3273,-105,16922,4284608,-591317,-707381,0,0,0,569,585,253,503,538,561,302,181,408,258,171,571,0
1,1773254538848,-3115,-1115,16324,1904677,379958,459370,0,0,0,293,299,253,329,201,313,508,488,283,410,451,98,0
2,1773254538848,3991,-373,19712,5098281,-689055,-939510,0,0,0,551,574,250,500,535,554,303,174,403,234,147,515,0
1,1773254538864,-3072,976,10792,945619,193033,36651,0,0,0,294,312,266,332,209,326,526,485,298,413,471,129,0
2,1773254538864,5144,-574,22593,5902179,-736703,-1186300,0,0,0,490,556,228,490,532,535,307,167,386,224,144,458,0
1,1773254538880,-1966,1354,8212,593761,91629,-158824,0,0,0,307,323,273,353,213,337,537,492,316,421,482,158,0
2,1773254538880,6322,-23,23828,6513045,-548556,-1499063,0,0,0,420,532,197,467,508,492,311,179,354,215,144,403,0
1,1773254538896,-1971,229,9590,338419,125838,-90408,0,0,0,323,327,280,371,221,348,540,508,325,435,485,175,0
2,1773254538896,6087,617,24398,7017619,-180816,-1858252,0,0,0,371,496,192,428,463,452,328,225,314,183,128,354,0
1,1773254538912,-2177,181,10504,-19547,164933,-42760,0,0,0,323,329,292,353,229,362,548,522,328,439,495,191,0
2,1773254538912,4723,885,24747,7464773,379958,-2244318,0,0,0,313,463,209,388,417,417,349,281,289,141,116,266,0
1,1773254538928,-2191,904,10303,-188146,144164,-40317,0,0,0,323,333,308,348,219,376,567,533,339,451,514,208,0
2,1773254538928,5278,2474,21349,7525859,646295,-2483778,0,0,0,276,450,222,368,397,403,362,312,284,130,118,207,0
1,1773254538944,-2048,1172,10050,-112399,48869,-36651,0,0,0,320,329,324,351,217,386,580,535,336,474,537,221,0
2,1773254538944,5762,8408,13869,6609561,210137,-2729345,0,0,0,277,454,227,366,397,405,369,317,285,130,118,204,0
1,1773254538960,-2115,1124,10098,-14660,-37873,-17104,0,0,0,319,327,315,353,225,386,585,536,326,480,544,217,0
2,1773254538960,4316,14118,11404,3584557,-1153313,-2257757,0,0,0,279,455,228,368,399,402,373,319,283,117,111,203,0
1,1773254538976,-2167,1124,10064,51312,-80634,8552,0,0,0,322,346,318,351,229,405,582,536,349,479,540,247,0
2,1773254538976,4570,15391,10892,-419053,-2162462,-1077566,0,0,0,276,453,225,371,400,401,375,321,281,120,112,203,0
1,1773254538992,-2172,1182,9873,119729,-116064,29321,0,0,0,328,348,319,358,231,408,583,534,364,479,538,247,0
2,1773254538992,6647,10165,8863,-3271794,-2047620,106290,0,0,0,276,454,226,372,400,404,374,322,282,119,114,203,0
1,1773254539008,-2182,1186,9763,189368,-138055,42760,0,0,0,334,352,324,349,229,389,593,519,352,482,544,244,0
2,1773254539008,6896,5288,5350,-3429397,-1211956,353080,0,0,0,277,456,236,373,403,411,374,322,291,117,116,207,0
1,1773254539024,-2239,1067,9719,232128,-129503,47647,0,0,0,339,352,330,365,233,388,588,516,348,484,540,252,0
2,1773254539024,5441,4182,3914,-3194825,-579100,419053,0,0,0,275,455,230,373,403,406,375,327,283,120,117,199,0
1,1773254539040,-2292,947,9657,230907,-97738,50090,0,0,0,339,349,323,369,236,391,592,510,350,476,540,252,0
2,1773254539040,3594,5728,4599,-3440393,-268780,767246,0,0,0,275,456,230,376,403,405,375,329,284,121,118,200,0
1,1773254539056,-2273,914,9629,205250,-62308,51312,0,0,0,337,352,321,374,236,390,593,491,342,463,528,262,0
2,1773254539056,3503,6513,5474,-4290717,-65973,1431868,0,0,0,279,459,233,376,403,404,381,334,288,122,116,201,0
1,1773254539072,-2196,933,9633,186924,-45204,54977,0,0,0,343,356,333,372,237,389,588,484,343,451,518,275,0
2,1773254539072,4000,5642,5924,-4908913,342084,1865582,0,0,0,278,457,231,378,405,407,380,334,285,120,115,201,0
1,1773254539088,-2153,938,9648,186924,-62308,58643,0,0,0,346,359,338,371,239,393,580,480,349,442,508,286,0
2,1773254539088,3555,4096,6781,-5119050,860098,2012190,0,0,0,276,457,230,376,403,407,383,336,287,122,117,201,0
1,1773254539104,-2134,928,9648,189368,-90408,59864,0,0,0,344,361,326,375,242,399,576,473,356,434,493,294,0
2,1773254539104,2636,3015,7877,-5150815,1137431,2061059,0,0,0,277,458,232,378,403,409,384,336,287,121,116,200,0
1,1773254539120,-2153,914,9614,193033,-118507,63529,0,0,0,344,364,312,378,245,401,575,472,366,422,478,299,0
2,1773254539120,1880,2546,9049,-5149593,1154535,2050063,0,0,0,278,457,232,376,402,407,387,337,289,121,115,199,0
1,1773254539136,-2211,890,9581,185703,-118507,62308,0,0,0,339,361,309,379,244,406,573,468,375,413,470,308,0
2,1773254539136,1670,2512,10179,-5250997,1104444,1920560,0,0,0,279,457,233,378,403,408,389,336,288,121,115,198,0
1,1773254539152,-2273,847,9566,169820,-92851,58643,0,0,0,332,360,306,380,253,419,575,463,369,417,472,313,0
2,1773254539152,1698,2488,11605,-5425705,1080009,1620014,0,0,0,279,459,233,381,406,410,388,336,288,122,116,198,0
1,1773254539168,-2278,808,9542,147829,-52534,53756,0,0,0,336,358,316,386,253,420,572,453,369,420,464,318,0
2,1773254539168,1832,2613,13079,-5596747,1082453,1218065,0,0,0,279,460,232,379,404,408,389,337,290,121,117,198,0
1,1773254539184,-2220,804,9562,139277,-24434,47647,0,0,0,336,358,316,393,250,433,572,453,377,420,458,351,0
2,1773254539184,1732,2895,14802,-5789780,1072679,781907,0,0,0,277,459,233,377,404,408,390,335,288,121,118,197,0
1,1773254539200,-2167,818,9638,153938,-26878,47647,0,0,0,337,360,322,412,257,419,572,445,379,414,455,344,0
2,1773254539200,1464,3134,16755,-5964488,1044579,409279,0,0,0,279,460,234,380,408,411,392,337,286,121,117,196,0
1,1773254539216,-2153,808,9734,186924,-58643,52534,0,0,0,341,357,310,422,255,427,573,433,380,400,447,371,0
2,1773254539216,1464,3034,19095,-6050009,1066570,226020,0,0,0,279,460,235,380,402,410,389,335,283,121,116,195,0
1,1773254539232,-2158,746,9772,233350,-114842,64751,0,0,0,344,364,305,425,271,429,574,424,388,384,433,377,0
2,1773254539232,1641,2388,21904,-6095213,1143539,237015,0,0,0,279,458,232,380,402,411,395,337,290,118,111,195,0
1,1773254539248,-2201,708,9662,284663,-168598,84299,0,0,0,354,357,314,411,280,444,579,411,398,372,412,389,0
2,1773254539248,1995,-301,25125,-6093991,1211956,492357,0,0,0,282,460,233,378,399,410,396,333,292,117,109,194,0
1,1773254539264,-2234,717,8973,316428,-193033,111177,0,0,0,370,352,303,435,279,464,579,410,408,361,372,414,0
2,1773254539264,2871,-5891,27886,-5985257,1229060,714712,0,0,0,282,459,227,385,403,410,399,329,289,118,109,188,0
1,1773254539280,-2258,727,8719,362853,-207694,138055,0,0,0,374,355,291,444,277,482,582,390,418,349,331,446,0
2,1773254539280,4402,-14783,28485,-5635842,1138652,571769,0,0,0,282,459,226,384,403,408,400,330,289,120,110,188,0
1,1773254539296,-2359,660,9638,481361,-255341,151494,0,0,0,373,363,289,434,283,493,588,359,421,337,301,470,0
2,1773254539296,4962,-23474,25001,-4856378,1025031,-140499,0,0,0,285,462,232,386,404,410,403,331,290,118,107,186,0
1,1773254539312,-2474,583,10265,599869,-287106,166155,0,0,0,381,373,288,451,298,489,588,331,431,325,270,484,0
2,1773254539312,2239,-30083,19765,-3491705,1183856,-1083674,0,0,0,286,461,232,382,401,407,402,331,291,130,112,188,0
1,1773254539328,-2526,550,10466,720820,-318871,185703,0,0,0,386,379,291,462,322,487,585,274,473,318,237,502,0
2,1773254539328,-3665,-31930,17042,-1879021,1291369,-1521054,0,0,0,287,462,233,376,405,404,403,332,289,127,113,188,0
1,1773254539344,-2474,521,10772,873537,-377514,199142,0,0,0,392,400,273,462,340,513,583,251,476,314,216,526,0
2,1773254539344,-7805,-32409,15888,-329867,863763,-1441641,0,0,0,286,460,231,377,402,404,401,331,286,123,113,189,0
1,1773254539360,-2608,349,11160,1095892,-452040,200363,0,0,0,385,422,267,471,363,550,556,247,490,280,206,555,0
2,1773254539360,-7087,-30763,15439,907745,-19547,-954171,0,0,0,282,459,232,376,398,402,409,370,285,125,131,185,0
1,1773254539376,-2904,220,11931,1369559,-527787,233350,0,0,0,392,428,239,519,379,546,527,219,474,284,186,557,0
2,1773254539376,-2948,-21445,16075,2096489,-783129,-426383,0,0,0,270,448,209,376,395,393,443,440,279,139,174,178,0
1,1773254539392,-3101,272,12672,1736079,-619417,328645,0,0,0,396,420,231,514,375,561,466,198,487,269,171,573,0
2,1773254539392,1722,818,17138,2872288,-1688431,277332,0,0,0,262,419,180,372,380,388,478,482,277,161,218,175,0
1,1773254539408,-3335,181,13007,2219884,-630412,480140,0,0,0,403,438,208,533,381,573,431,201,489,262,161,576,0
2,1773254539408,5278,24211,12179,2948035,-3214372,1484402,0,0,0,265,395,180,360,360,391,495,495,286,195,274,170,0
1,1773254539424,-3723,28,13385,2706133,-526565,623082,0,0,0,399,437,202,529,410,552,383,190,503,240,153,578,0
2,1773254539424,-847,9499,7657,3648087,-3739716,1709200,0,0,0,269,393,183,364,355,397,512,513,291,250,349,166,0
1,1773254539440,-4446,38,14156,3263242,-351858,802676,0,0,0,410,436,208,522,417,545,336,165,501,226,147,574,0
2,1773254539440,-6724,-2388,12964,4663345,-2957809,976162,0,0,0,274,408,193,381,360,411,533,532,297,255,338,178,0
1,1773254539456,-5288,119,15142,3898541,-138055,1070235,0,0,0,427,428,205,525,400,533,297,147,481,233,131,557,0
2,1773254539456,-4599,-1512,20100,4395786,-1968207,-18325,0,0,0,282,429,234,393,371,425,556,557,307,219,317,186,0
1,1773254539472,-6068,177,16831,4605923,48869,1390329,0,0,0,430,426,211,528,376,516,296,138,470,226,115,532,0
2,1773254539472,-177,842,20995,3271794,-1320690,-327423,0,0,0,299,464,286,401,383,433,568,567,309,241,362,209,0
1,1773254539488,-7173,134,19640,5356066,142942,1704314,0,0,0,408,427,217,497,365,499,289,140,453,190,107,485,0
2,1773254539488,1273,765,16085,1648114,-755029,20769,0,0,0,308,478,299,413,399,447,574,573,318,237,315,250,0
1,1773254539504,-8580,-9,22311,6056117,150272,2030516,0,0,0,369,412,207,443,356,470,251,153,405,159,105,406,0
2,1773254539504,-86,224,11241,604756,-287106,199142,0,0,0,340,487,319,418,405,452,579,578,323,246,308,277,0
1,1773254539520,-9447,52,24240,6665761,120951,2404365,0,0,0,331,387,206,409,320,427,254,167,356,151,108,323,0
2,1773254539520,-157,689,9605,250454,-107512,123394,0,0,0,355,492,337,425,416,462,583,583,331,252,312,292,0
1,1773254539536,-8638,1000,25029,7159340,302989,2745228,0,0,0,302,358,220,356,271,373,276,203,318,153,135,243,0
2,1773254539536,473,1220,9959,178372,-152716,37873,0,0,0,364,497,334,427,416,463,585,585,327,255,314,299,0
1,1773254539552,-8624,1952,24378,7476990,708603,2988352,0,0,0,277,318,230,312,227,315,321,234,290,163,186,142,0
2,1773254539552,464,1287,10284,69638,-191811,35430,0,0,0,368,500,333,432,420,466,590,590,329,257,315,308,0
1,1773254539568,-10413,4254,18478,7491651,1122770,3161838,0,0,0,306,290,230,312,174,288,357,240,285,182,210,128,0
2,1773254539568,258,1368,10251,-17104,-141720,34208,0,0,0,373,502,332,436,424,468,595,595,333,259,319,312,0
1,1773254539584,-11753,9035,10969,7033502,1167974,3434284,0,0,0,294,298,230,302,184,298,345,248,280,185,229,132,0
2,1773254539584,315,1588,10102,10995,-72082,15882,0,0,0,385,505,340,436,425,470,599,598,336,260,320,315,0
1,1773254539600,-10571,14883,8580,5247332,818559,3447723,0,0,0,288,306,233,301,190,300,345,251,277,180,224,129,0
2,1773254539600,406,1742,10131,124616,-59864,3665,0,0,0,399,510,346,440,428,476,602,599,336,256,307,324,0
1,1773254539616,-6532,18750,9131,1018923,620639,2169793,0,0,0,285,307,233,299,196,302,345,254,275,180,221,131,0
2,1773254539616,349,1727,10236,272445,-52534,-1221,0,0,0,400,515,341,449,436,484,600,596,337,249,288,335,0
1,1773254539632,-3804,16080,8963,-2956587,1062905,349414,0,0,0,289,311,233,299,200,301,350,254,271,184,221,135,0
2,1773254539632,263,1598,10232,362853,1221,-4886,0,0,0,399,515,339,451,439,489,599,592,344,248,276,347,0
1,1773254539648,-5092,9394,6929,-4359134,1646892,-685390,0,0,0,291,311,236,300,196,303,352,254,272,184,220,133,0
2,1773254539648,296,1497,10117,400727,67195,-6108,0,0,0,410,519,340,448,434,486,599,576,341,268,280,360,0
1,1773254539664,-7355,5135,5029,-4495968,1485624,-885754,0,0,0,290,309,240,301,192,310,353,254,276,184,219,135,0
2,1773254539664,402,1402,9968,393397,101403,-10995,0,0,0,416,524,343,452,439,489,602,562,345,313,332,359,0
1,1773254539680,-8111,4139,4886,-4323704,531452,-626747,0,0,0,287,312,237,300,198,308,355,257,276,186,222,135,0
2,1773254539680,473,1316,9892,381179,105068,-17104,0,0,0,425,527,347,458,438,494,607,538,347,411,433,349,0
1,1773254539696,-6791,4067,6298,-4486194,-144164,-596204,0,0,0,282,315,235,302,202,302,356,260,274,188,225,134,0
2,1773254539696,545,1229,9897,366519,83077,-28099,0,0,0,430,520,337,461,439,495,595,543,353,250,241,386,0
1,1773254539712,-5934,3799,7585,-4742757,-367740,-812450,0,0,0,278,315,236,304,201,303,355,261,274,187,227,136,0
2,1773254539712,579,1143,9882,339641,43982,-40317,0,0,0,442,526,340,468,443,499,595,541,364,238,220,397,0
1,1773254539728,-5972,3469,8647,-5065294,-575435,-1221730,0,0,0,278,317,236,303,203,303,361,263,276,187,227,133,0
2,1773254539728,559,1105,9877,310319,10995,-53756,0,0,0,442,526,340,469,448,508,599,516,362,317,305,397,0
1,1773254539744,-5757,3158,9944,-5409822,-945619,-1644449,0,0,0,284,317,237,306,205,303,373,261,277,193,223,130,0
2,1773254539744,559,1143,9930,304210,-6108,-67195,0,0,0,445,530,343,473,447,515,598,499,366,335,315,400,0
1,1773254539760,-5369,2598,11610,-5759237,-1340238,-2078163,0,0,0,280,318,237,303,208,306,366,261,277,188,225,132,0
2,1773254539760,579,1139,9954,327423,-17104,-73303,0,0,0,446,535,342,472,448,523,595,495,376,268,229,419,0
1,1773254539776,-5288,1727,13357,-5953492,-1657888,-2313957,0,0,0,282,320,239,297,203,306,364,261,278,193,228,134,0
2,1773254539776,574,1072,9935,345749,-34208,-75747,0,0,0,450,539,342,476,455,529,598,489,391,235,185,438,0
1,1773254539792,-5106,885,15324,-6003583,-1963320,-2332283,0,0,0,282,316,241,300,203,308,364,258,279,193,224,134,0
2,1773254539792,545,971,9930,356745,-47647,-76969,0,0,0,458,550,341,482,465,540,598,477,393,238,183,455,0
1,1773254539808,-4785,263,17525,-5954714,-2162462,-2158797,0,0,0,280,318,245,298,202,317,362,257,293,199,218,149,0
2,1773254539808,540,909,9987,373849,-48869,-84299,0,0,0,468,558,341,488,470,544,595,455,396,242,175,470,0
1,1773254539824,-4350,-536,20162,-5885075,-2251649,-1975538,0,0,0,278,317,246,297,202,315,362,258,288,192,220,142,0
2,1773254539824,612,885,10098,411723,-46425,-97738,0,0,0,476,556,343,495,471,539,596,432,406,251,167,487,0
1,1773254539840,-3828,-1560,22545,-5775119,-2120924,-1997529,0,0,0,282,317,250,295,197,311,355,254,280,186,219,140,0
2,1773254539840,713,866,10184,458148,-51312,-117286,0,0,0,486,558,344,501,478,544,597,408,401,258,167,509,0
1,1773254539856,-3622,-3072,24709,-5602855,-1789835,-2406809,0,0,0,285,317,249,298,198,313,357,253,281,192,220,145,0
2,1773254539856,827,827,10265,538783,-57421,-156381,0,0,0,497,569,349,512,494,557,592,371,395,245,157,528,0
1,1773254539872,-4096,-5398,26465,-5501452,-1536936,-2908940,0,0,0,286,316,246,304,201,313,363,254,282,194,216,145,0
2,1773254539872,866,732,10399,637743,-36651,-205250,0,0,0,507,577,346,515,501,566,591,337,414,252,160,538,0
1,1773254539888,-5910,-10758,27389,-5566204,-1361007,-3144734,0,0,0,285,317,244,305,202,312,360,250,283,190,209,144,0
2,1773254539888,871,617,10619,745255,-3665,-249233,0,0,0,533,590,351,520,511,571,592,308,423,253,160,557,0
1,1773254539904,-8920,-18248,25556,-5679824,-1154535,-2651155,0,0,0,281,318,240,305,201,310,360,249,282,188,206,142,0
2,1773254539904,823,521,11007,899193,14660,-285884,0,0,0,517,589,322,537,526,581,568,277,416,251,162,574,0
1,1773254539920,-10337,-26068,20923,-5484348,-1385442,-1271821,0,0,0,277,319,238,301,218,304,365,253,278,196,206,140,0
2,1773254539920,593,483,11466,1127657,43982,-300545,0,0,0,525,594,314,553,533,589,532,266,424,261,173,589,0
1,1773254539936,-2780,-31964,16812,-4450764,-2304183,496022,0,0,0,278,320,238,296,240,301,367,257,281,207,206,141,0
2,1773254539936,239,502,12065,1413542,140499,-291993,0,0,0,537,599,322,537,530,587,500,246,431,255,174,605,0
1,1773254539952,9633,-36003,14831,-2761110,-2255314,1473406,0,0,0,275,319,236,306,204,308,366,262,280,199,226,136,0
2,1773254539952,119,483,12730,1749518,337197,-261450,0,0,0,540,593,293,538,552,606,466,232,434,265,178,612,0
1,1773254539968,12462,-37099,14180,-1032362,-403171,1042136,0,0,0,257,309,223,300,207,304,380,294,278,235,287,130,0
2,1773254539968,636,335,13323,2134363,461814,-246789,0,0,0,546,593,264,546,568,611,430,248,444,255,167,615,0
1,1773254539984,6791,-33596,15855,889419,1620014,592539,0,0,0,257,303,216,296,196,296,414,381,266,261,355,115,0
2,1773254539984,1282,215,14070,2626720,438601,-271224,0,0,0,551,593,249,533,564,597,390,230,455,250,166,617,0
1,1773254540000,-1402,-15266,16606,3001791,2949257,714712,0,0,0,261,268,191,294,171,268,458,449,257,304,404,93,0
2,1773254540000,1722,220,14984,3233920,266337,-346971,0,0,0,557,584,246,529,556,587,355,204,451,256,171,614,0
1,1773254540016,-4513,5589,13247,4629136,3357315,907745,0,0,0,264,262,185,292,165,271,471,468,261,327,413,84,0
2,1773254540016,2459,239,16161,3915646,91629,-492357,0,0,0,558,574,246,525,551,579,327,187,444,258,167,605,0
1,1773254540032,-2737,7073,13491,5423261,2597398,778242,0,0,0,273,269,192,300,164,282,488,487,265,364,428,82,0
2,1773254540032,3551,291,18095,4765970,-72082,-741590,0,0,0,554,566,244,516,541,568,311,169,434,249,159,582,0
1,1773254540048,-746,-899,19253,5121494,1152091,637743,0,0,0,279,275,214,316,168,305,510,510,280,399,447,93,0
2,1773254540048,4431,516,21177,5799554,-261450,-1051909,0,0,0,537,557,238,515,526,559,307,159,416,235,148,526,0
1,1773254540064,-2086,-3326,21990,3958406,466701,632856,0,0,0,292,293,246,343,192,334,526,525,297,417,466,127,0
2,1773254540064,5546,583,24900,6736621,-393397,-1312138,0,0,0,477,538,220,499,505,541,306,158,395,214,130,439,0
1,1773254540080,-4627,-1631,18085,1979203,361632,333532,0,0,0,307,308,270,353,212,361,543,537,310,431,486,172,0
2,1773254540080,6456,837,28346,7491651,-256563,-1587027,0,0,0,406,512,192,470,480,501,314,173,362,196,121,384,0
1,1773254540096,-3450,153,11667,744033,188146,-103847,0,0,0,323,317,284,363,223,371,555,550,318,463,502,203,0
2,1773254540096,7035,1521,29624,8092742,97738,-1909564,0,0,0,353,479,176,419,435,442,330,221,310,170,115,331,0
1,1773254540112,-2182,679,8432,249233,47647,-216246,0,0,0,334,331,292,371,233,373,562,557,321,488,511,224,0
2,1773254540112,7599,2617,29236,8547226,844215,-2373822,0,0,0,279,443,210,365,391,399,356,293,284,114,100,209,0
1,1773254540128,-2426,325,9442,141720,94073,-106290,0,0,0,336,342,299,367,239,379,570,559,322,486,517,249,0
2,1773254540128,8356,7130,21971,8387179,1108109,-2967583,0,0,0,291,451,225,365,380,401,366,312,289,115,102,209,0
1,1773254540144,-2837,478,10308,7330,142942,-35430,0,0,0,336,346,308,369,237,384,573,566,321,482,520,261,0
2,1773254540144,8303,12065,13400,7347487,327423,-3486818,0,0,0,290,450,224,369,387,407,365,318,286,116,108,210,0
1,1773254540160,-2737,914,10021,-10995,116064,-26878,0,0,0,341,348,316,367,243,392,572,563,325,475,517,260,0
2,1773254540160,5604,17865,9418,4326147,-963945,-3269350,0,0,0,293,451,226,374,394,407,365,318,280,119,107,205,0
1,1773254540176,-2589,1067,9849,43982,61086,-4886,0,0,0,351,354,301,374,254,391,584,568,323,474,523,268,0
2,1773254540176,2818,20014,10169,-1170417,-1699427,-1314581,0,0,0,295,453,228,371,392,404,365,316,275,114,105,203,0
1,1773254540192,-2565,1043,9983,138055,-12217,31764,0,0,0,351,362,300,379,256,401,584,567,336,473,523,275,0
2,1773254540192,3498,13993,9576,-4985882,-2058615,626747,0,0,0,292,454,227,371,393,404,368,320,277,114,107,202,0
1,1773254540208,-2613,1019,10059,223576,-79412,62308,0,0,0,354,367,300,380,256,403,576,559,342,467,498,292,0
2,1773254540208,6302,6757,5934,-5192354,-1767844,1009149,0,0,0,289,456,229,371,393,403,374,326,281,116,109,202,0
1,1773254540224,-2622,1043,9920,295658,-128281,79412,0,0,0,351,369,304,378,266,406,572,535,349,467,478,300,0
2,1773254540224,7647,3450,3216,-4570493,-879645,643851,0,0,0,287,458,230,372,394,403,374,326,278,120,110,204,0
1,1773254540240,-2651,981,10107,300545,-109955,76969,0,0,0,351,382,299,381,282,411,565,526,352,464,465,314,0
2,1773254540240,6125,4402,3766,-4272391,232128,92851,0,0,0,287,457,231,373,396,405,373,325,280,120,111,205,0
1,1773254540256,-2699,880,10576,215024,-30543,72082,0,0,0,353,380,298,385,278,413,562,512,355,464,452,312,0
2,1773254540256,3579,5752,6322,-4806287,637743,53756,0,0,0,288,457,234,372,398,407,374,327,291,118,112,206,0
1,1773254540272,-2656,784,10184,173485,-3665,67195,0,0,0,353,374,300,385,275,415,561,500,355,463,440,310,0
2,1773254540272,2426,5738,8116,-5359731,665843,284663,0,0,0,286,457,234,371,397,411,366,325,296,115,109,204,0
1,1773254540288,-2584,770,9428,202807,-39095,67195,0,0,0,350,376,300,380,282,415,564,496,359,457,429,315,0
2,1773254540288,2804,4785,8801,-5621181,772133,580321,0,0,0,285,457,235,370,396,412,355,323,296,109,104,204,0
1,1773254540304,-2574,804,9270,211359,-35430,68416,0,0,0,351,380,300,379,283,415,563,485,364,454,419,322,0
2,1773254540304,2790,4245,9830,-5677381,1221730,824668,0,0,0,286,458,240,375,401,421,376,331,302,112,107,214,0
1,1773254540320,-2569,813,9480,195476,1221,70860,0,0,0,356,378,303,388,279,420,561,467,366,456,410,332,0
2,1773254540320,2077,4369,11452,-5764124,1534493,1047023,0,0,0,290,458,240,374,399,420,377,330,305,113,108,215,0
1,1773254540336,-2517,780,9576,183259,28099,69638,0,0,0,358,379,304,402,285,422,563,457,369,456,403,342,0
2,1773254540336,1794,4599,13472,-6024352,1607797,1273043,0,0,0,290,458,240,376,406,421,374,328,296,112,108,213,0
1,1773254540352,-2450,717,9533,171042,29321,61086,0,0,0,357,389,301,416,299,413,560,453,372,452,402,352,0
2,1773254540352,2172,4379,15563,-6385985,1655444,1386664,0,0,0,287,457,239,377,402,421,382,331,288,111,105,211,0
1,1773254540368,-2431,689,9533,157603,20769,51312,0,0,0,364,398,303,427,291,415,571,435,369,443,394,361,0
2,1773254540368,2780,3484,17946,-6721961,1781283,1279151,0,0,0,289,458,239,376,398,417,383,332,287,114,107,212,0
1,1773254540384,-2440,670,9595,156381,8552,48869,0,0,0,369,398,300,427,295,416,571,425,368,487,377,363,0
2,1773254540384,2962,2412,20937,-6839247,1892460,1033583,0,0,0,290,459,237,376,398,411,383,332,284,118,110,201,0
1,1773254540400,-2459,655,9681,183259,-10995,62308,0,0,0,364,395,283,448,319,438,577,431,382,409,369,386,0
2,1773254540400,3077,1545,24632,-6842912,1916895,918741,0,0,0,293,462,238,376,396,406,384,330,281,117,108,195,0
1,1773254540416,-2493,655,9724,235793,-37873,84299,0,0,0,375,425,323,432,335,447,560,402,384,429,351,397,0
2,1773254540416,2761,186,28293,-6794043,1927890,1324355,0,0,0,292,461,236,377,398,406,386,328,282,115,106,194,0
1,1773254540432,-2579,650,9739,304210,-53756,112399,0,0,0,379,428,302,419,351,443,565,384,387,407,345,418,0
2,1773254540432,2785,-3704,31749,-6712187,2068389,2119702,0,0,0,291,459,234,382,400,410,388,323,285,116,103,193,0
1,1773254540448,-2579,622,9796,376292,-47647,138055,0,0,0,379,448,330,407,363,456,563,369,414,393,328,452,0
2,1773254540448,2967,-11830,34041,-6508158,2441017,2866179,0,0,0,295,460,232,387,399,411,398,324,289,171,127,192,0
1,1773254540464,-2531,559,9868,460592,-64751,163711,0,0,0,377,463,313,421,385,467,557,339,427,379,308,468,0
2,1773254540464,3196,-24733,31983,-5800776,2053728,2764776,0,0,0,297,461,229,390,400,415,403,326,294,175,129,192,0
1,1773254540480,-2526,478,9959,563217,-124616,189368,0,0,0,383,454,303,446,416,476,544,299,426,346,272,506,0
2,1773254540480,4446,-36410,24101,-4482529,1257160,1797165,0,0,0,296,459,228,394,403,418,400,324,296,121,105,193,0
1,1773254540496,-2742,464,10265,664621,-208915,213802,0,0,0,392,471,322,469,411,494,534,276,442,328,247,533,0
2,1773254540496,1713,-42387,15955,-2637716,1346346,-169820,0,0,0,297,457,227,392,401,414,402,324,294,122,105,193,0
1,1773254540512,-3091,497,10744,779464,-248011,252898,0,0,0,404,487,314,482,408,513,514,257,460,327,235,549,0
2,1773254540512,-5929,-43072,13567,-951728,1414763,-1951103,0,0,0,296,457,227,388,399,410,400,324,289,122,105,191,0
1,1773254540528,-2895,421,11567,1016479,-211359,313984,0,0,0,417,492,288,499,427,528,492,237,462,328,222,565,0
2,1773254540528,-11428,-38635,15683,594982,302989,-2517986,0,0,0,291,459,229,385,401,410,403,344,286,123,117,190,0
1,1773254540544,-2474,287,12299,1368338,-222354,339641,0,0,0,420,507,263,513,466,536,466,227,458,316,212,574,0
2,1773254540544,-5790,-26360,17779,2208888,-1319468,-1904677,0,0,0,284,450,218,376,402,404,434,444,281,131,165,179,0
1,1773254540560,-2656,119,12854,1870469,-338419,353080,0,0,0,417,527,234,516,511,537,423,233,459,291,211,571,0
2,1773254540560,3924,2890,19712,3352428,-2765997,-862541,0,0,0,284,394,175,358,363,379,477,477,268,161,220,173,0
1,1773254540576,-3335,52,13309,2405587,-397062,419053,0,0,0,426,532,228,526,512,540,382,231,454,275,198,565,0
2,1773254540576,9605,27595,14161,3314554,-3986506,586430,0,0,0,265,388,184,348,360,390,493,493,278,191,277,164,0
1,1773254540592,-3819,100,13764,2938261,-327423,560774,0,0,0,430,534,220,504,496,541,330,207,466,257,187,576,0
2,1773254540592,3249,12634,7657,3893655,-3764151,1605353,0,0,0,272,390,183,357,354,400,504,505,294,181,281,176,0
1,1773254540608,-4541,57,14429,3545461,-142942,766025,0,0,0,439,487,198,498,474,553,263,201,481,230,161,586,0
2,1773254540608,-5719,-2914,11347,5066516,-2173458,1631010,0,0,0,277,378,192,369,339,411,527,527,297,189,286,190,0
1,1773254540624,-5637,52,15257,4177096,50090,1056796,0,0,0,458,461,214,492,442,528,250,172,481,218,126,573,0
2,1773254540624,-7360,-2938,19645,5106833,-722042,387288,0,0,0,285,402,221,379,341,427,539,539,322,204,294,225,0
1,1773254540640,-6527,81,17161,4818505,213802,1411098,0,0,0,443,459,231,500,415,531,269,148,480,209,119,539,0
2,1773254540640,-1450,861,22215,4106236,-456927,-561996,0,0,0,304,434,259,390,363,438,557,557,335,215,291,264,0
1,1773254540656,-8231,-201,20440,5588195,343306,1817934,0,0,0,431,434,235,452,377,506,240,137,438,182,101,472,0
2,1773254540656,3843,311,18028,2128254,-590095,-293215,0,0,0,332,460,290,409,390,452,573,573,336,221,284,296,0
1,1773254540672,-10126,-478,22847,6247929,378736,2236988,0,0,0,383,409,231,408,340,482,225,143,391,169,104,380,0
2,1773254540672,1430,-799,12629,768468,-406836,251676,0,0,0,353,477,309,427,406,466,582,582,335,232,282,315,0
1,1773254540688,-10093,-162,25115,6783047,641408,2689028,0,0,0,349,392,232,371,303,433,244,172,359,162,115,325,0
2,1773254540688,-210,-71,9825,197920,-244346,316428,0,0,0,363,486,318,436,412,472,589,589,337,249,306,324,0
1,1773254540704,-9791,1445,25546,7205766,1021366,3044552,0,0,0,306,358,236,329,260,366,279,219,317,162,165,234,0
2,1773254540704,196,808,9897,180816,-237015,120951,0,0,0,369,491,321,440,415,476,595,595,337,285,364,321,0
1,1773254540720,-9490,3249,23761,7555181,1354899,3302337,0,0,0,286,310,234,299,211,312,315,243,285,173,211,154,0
2,1773254540720,670,933,10390,131946,-256563,26878,0,0,0,378,497,329,441,416,478,605,604,337,318,401,314,0
1,1773254540736,-10480,5829,18114,7619932,1816713,3431840,0,0,0,293,288,231,295,185,293,336,245,280,187,223,134,0
2,1773254540736,540,904,10366,20769,-175929,36651,0,0,0,384,502,338,437,416,475,609,608,344,284,365,322,0
1,1773254540752,-12739,10461,10629,6681643,1863138,3514918,0,0,0,290,295,232,300,191,299,340,252,284,190,222,137,0
2,1773254540752,526,1139,10174,9773,-108734,28099,0,0,0,383,500,345,441,416,480,605,603,340,257,339,330,0
1,1773254540768,-10442,16056,9193,3365867,877202,3064100,0,0,0,286,300,233,301,197,308,342,250,281,186,221,140,0
2,1773254540768,574,1335,10179,89186,-112399,8552,0,0,0,389,502,346,446,421,482,608,603,339,255,334,336,0
1,1773254540784,-5369,17678,9758,-686612,507018,1726305,0,0,0,286,304,236,299,196,305,349,251,274,190,223,141,0
2,1773254540784,516,1378,10284,221133,-117286,-7330,0,0,0,392,509,342,445,429,481,605,601,346,253,327,346,0
1,1773254540800,-3957,12270,7829,-3336545,1253495,24434,0,0,0,281,306,235,295,199,307,346,257,278,191,229,142,0
2,1773254540800,402,1330,10265,323758,-48869,-9773,0,0,0,399,509,337,453,428,485,601,592,345,245,266,363,0
1,1773254540816,-6604,6451,4350,-3918089,1441641,-775798,0,0,0,282,306,238,295,199,308,346,258,279,193,230,142,0
2,1773254540816,382,1287,10150,384845,26878,-4886,0,0,0,395,506,331,459,425,490,605,579,345,258,263,370,0
1,1773254540832,-8303,4240,2699,-3496592,433714,-632856,0,0,0,282,308,245,296,199,305,342,256,273,194,232,138,0
2,1773254540832,464,1119,10002,404392,86742,0,0,0,0,400,511,330,460,429,491,599,571,355,242,240,379,0
1,1773254540848,-6164,4685,3943,-3445279,-516791,-489913,0,0,0,281,310,237,300,203,308,347,258,275,195,233,140,0
2,1773254540848,545,971,9906,401949,117286,-1221,0,0,0,407,513,334,461,432,495,591,553,354,233,218,388,0
1,1773254540864,-4245,5211,5675,-3781255,-713490,-718377,0,0,0,277,309,235,296,200,308,347,259,278,197,231,140,0
2,1773254540864,665,875,9849,383623,118507,-9773,0,0,0,415,514,336,465,436,500,586,536,356,233,205,399,0
1,1773254540880,-4565,5049,6939,-4322482,-586430,-1208291,0,0,0,276,310,236,297,200,308,351,262,280,194,232,141,0
2,1773254540880,780,823,9830,356745,73303,-18325,0,0,0,420,514,336,469,440,506,587,525,369,231,196,410,0
1,1773254540896,-5336,4426,8049,-4773300,-960280,-1588249,0,0,0,278,311,238,299,203,309,354,266,282,193,236,140,0
2,1773254540896,827,784,9834,331088,18325,-30543,0,0,0,423,515,336,474,444,513,592,515,373,234,189,416,0
1,1773254540912,-5010,3929,9490,-5160589,-1372003,-1883908,0,0,0,276,312,240,304,204,307,356,266,282,196,237,140,0
2,1773254540912,756,765,9882,310319,-29321,-50090,0,0,0,431,519,339,478,443,514,595,504,369,237,183,423,0
1,1773254540928,-4465,3316,11328,-5602855,-1511280,-2142915,0,0,0,271,313,240,301,204,306,353,264,280,196,235,140,0
2,1773254540928,708,765,9964,305432,-45204,-64751,0,0,0,441,523,343,477,440,512,593,495,375,233,177,433,0
1,1773254540944,-4699,2340,13390,-6040235,-1556484,-2255314,0,0,0,268,314,240,293,206,308,349,263,278,196,235,140,0
2,1773254540944,775,765,10045,321315,-50090,-70860,0,0,0,451,531,345,479,450,518,594,476,385,232,169,441,0
1,1773254540960,-4948,1545,15171,-6206390,-1716531,-2119702,0,0,0,269,317,239,292,209,310,351,261,277,197,236,142,0
2,1773254540960,804,698,10064,349414,-75747,-76969,0,0,0,456,533,340,486,459,524,588,454,379,241,173,460,0
1,1773254540976,-4560,894,17774,-6258925,-1938886,-1863138,0,0,0,272,318,240,294,210,310,353,260,277,194,233,141,0
2,1773254540976,737,612,10093,379958,-87964,-91629,0,0,0,465,539,347,495,467,531,592,439,390,241,166,473,0
1,1773254540992,-4077,397,20416,-6300464,-2013411,-1682322,0,0,0,270,314,238,292,204,310,354,260,278,191,227,141,0
2,1773254540992,713,559,10160,416610,-65973,-111177,0,0,0,481,550,353,500,513,516,592,410,400,256,171,490,0
1,1773254541008,-3785,-291,23201,-6299242,-1931555,-1720196,0,0,0,273,318,241,293,215,312,356,261,282,191,227,141,0
2,1773254541008,827,516,10208,465479,-26878,-141720,0,0,0,484,553,348,508,493,541,594,386,400,243,156,500,0
1,1773254541024,-3881,-1469,25915,-6173404,-1894903,-2032959,0,0,0,282,320,245,289,202,309,350,260,278,188,227,143,0
2,1773254541024,933,483,10251,516791,-6108,-175929,0,0,0,493,561,355,506,491,545,594,349,405,257,160,530,0
1,1773254541040,-4163,-3771,28839,-5990144,-2018298,-2546086,0,0,0,280,318,240,289,202,309,352,255,278,190,218,142,0
2,1773254541040,990,430,10409,597426,-25656,-215024,0,0,0,505,565,359,514,498,552,588,323,419,258,162,547,0
1,1773254541056,-4776,-9466,31136,-6001140,-2045176,-2946813,0,0,0,280,323,242,293,207,313,357,256,283,198,220,146,0
2,1773254541056,1014,373,10696,708603,-57421,-255341,0,0,0,509,568,353,515,504,563,573,292,417,258,164,560,0
1,1773254541072,-7441,-18927,29255,-6144082,-1633453,-2566855,0,0,0,280,328,243,295,212,313,356,256,285,198,221,145,0
2,1773254541072,1095,301,11155,897971,-62308,-306654,0,0,0,520,578,355,524,518,574,555,260,419,261,161,571,0
1,1773254541088,-7379,-30490,22531,-5695707,-1753183,-680503,0,0,0,276,328,242,297,215,318,355,259,290,202,224,145,0
2,1773254541088,827,263,11658,1145983,6108,-355523,0,0,0,524,580,346,537,534,580,528,248,423,266,159,584,0
1,1773254541104,2971,-38439,17205,-4361577,-2317622,1413542,0,0,0,276,330,240,300,218,320,354,259,287,203,225,146,0
2,1773254541104,440,239,12222,1457524,59864,-345749,0,0,0,525,580,321,540,545,585,499,240,431,264,163,597,0
1,1773254541120,15774,-40454,15635,-2378709,-1334129,1859473,0,0,0,278,333,241,301,221,319,354,260,283,202,227,146,0
2,1773254541120,655,100,12912,1901012,100181,-293215,0,0,0,532,586,293,538,547,585,467,224,441,266,173,606,0
1,1773254541136,16779,-39841,14888,-553443,568104,1307251,0,0,0,270,328,237,302,222,314,366,292,285,225,270,141,0
2,1773254541136,1373,4,13811,2394591,120951,-309097,0,0,0,535,587,266,538,549,581,426,205,438,278,180,613,0
1,1773254541152,5675,-33237,15099,1221730,2234545,784350,0,0,0,256,299,211,299,205,296,408,366,273,277,352,120,0
2,1773254541152,2148,23,15027,2985909,46425,-430049,0,0,0,534,578,238,536,558,583,381,193,428,274,175,615,0
1,1773254541168,-4087,-7796,17047,2641381,2761110,919963,0,0,0,256,268,178,292,176,270,457,437,255,316,403,92,0
2,1773254541168,2574,143,16501,3739716,-122173,-625526,0,0,0,538,575,239,537,561,587,345,186,426,267,172,612,0
1,1773254541184,-8064,13271,13275,3608991,3341432,659734,0,0,0,268,270,158,293,167,255,471,471,256,346,418,80,0
2,1773254541184,3110,492,18434,4603480,-272445,-831998,0,0,0,550,575,246,521,550,572,323,170,424,260,169,599,0
1,1773254541200,-3665,7623,11634,4979773,3133738,-26878,0,0,0,271,275,164,301,169,274,493,493,272,390,434,78,0
2,1773254541200,4603,885,21253,5668829,-437379,-1109331,0,0,0,537,551,244,513,527,566,309,151,416,244,156,563,0
1,1773254541216,1670,-2297,18760,5925392,1863138,-243124,0,0,0,267,284,205,313,183,305,521,522,292,417,456,94,0
2,1773254541216,5848,1258,24977,6842912,-555887,-1481959,0,0,0,478,532,228,510,524,551,302,152,414,231,141,475,0
1,1773254541232,1564,-3924,24603,5120272,684169,235793,0,0,0,291,293,246,343,198,348,547,545,325,429,475,143,0
2,1773254541232,6776,1794,29212,7981565,-335975,-1836260,0,0,0,409,510,190,479,478,512,316,168,376,201,127,397,0
1,1773254541248,-3029,-1832,18439,2637716,419053,265115,0,0,0,307,302,319,354,211,384,550,550,344,449,491,223,0
2,1773254541248,6872,2847,32419,8790350,361632,-2161241,0,0,0,355,485,189,421,438,456,338,218,316,167,115,344,0
1,1773254541264,-3297,-1143,12309,873537,266337,-117286,0,0,0,310,310,318,374,215,397,564,564,349,462,504,262,0
2,1773254541264,5805,4154,32983,9165422,996932,-2591290,0,0,0,298,455,217,375,398,415,351,278,291,118,101,240,0
1,1773254541280,-1914,-268,9920,344527,61086,-213802,0,0,0,320,324,320,371,223,407,581,563,350,469,520,294,0
2,1773254541280,7456,7365,25963,9087231,1093448,-3025004,0,0,0,289,448,227,366,386,409,364,310,291,108,101,205,0
1,1773254541296,-1794,320,9696,294437,-37873,-116064,0,0,0,330,335,321,375,229,412,593,559,358,485,518,317,0
2,1773254541296,8734,12754,15003,7997447,410501,-3601661,0,0,0,295,451,225,370,389,410,367,319,290,116,108,209,0
1,1773254541312,-2517,397,10107,316428,13439,-4886,0,0,0,337,340,319,384,236,415,601,559,359,480,508,339,0
2,1773254541312,6259,18640,9930,5243667,-624304,-3639535,0,0,0,301,451,225,371,390,406,365,318,282,118,109,207,0
1,1773254541328,-2459,449,10050,245567,112399,26878,0,0,0,341,343,317,384,237,414,603,547,361,478,497,367,0
2,1773254541328,2909,21655,9566,-433714,-1613905,-1904677,0,0,0,304,452,225,375,390,404,366,315,276,116,105,203,0
1,1773254541344,-2053,579,10040,241902,89186,39095,0,0,0,345,351,318,383,245,414,598,517,362,479,480,382,0
2,1773254541344,3531,16118,8499,-4828278,-2017077,178372,0,0,0,301,455,227,379,394,408,369,318,277,115,104,203,0
1,1773254541360,-2014,674,10212,310319,-12217,51312,0,0,0,350,360,322,387,258,422,591,491,362,469,461,384,0
2,1773254541360,6786,6776,5163,-5844758,-1661553,1039692,0,0,0,297,456,232,377,397,410,370,321,279,119,108,205,0
1,1773254541376,-2139,698,10720,348193,-40317,62308,0,0,0,352,365,323,396,259,432,585,484,370,451,445,393,0
2,1773254541376,7733,3531,2976,-4969999,-651182,514348,0,0,0,292,456,232,369,399,406,372,322,281,125,108,202,0
1,1773254541392,-2134,617,10796,368962,-29321,69638,0,0,0,353,372,317,408,257,431,579,462,374,428,406,397,0
2,1773254541392,6494,3866,3469,-4575380,205250,6108,0,0,0,287,458,231,352,421,397,377,324,281,122,109,205,0
1,1773254541408,-2062,469,9987,409279,-72082,65973,0,0,0,349,373,325,389,257,432,578,428,379,391,379,405,0
2,1773254541408,4326,5302,5857,-4882034,593761,-106290,0,0,0,293,458,235,375,389,404,380,322,280,123,108,204,0
1,1773254541424,-2110,358,9456,409279,-98960,62308,0,0,0,343,378,341,384,263,440,568,419,380,364,375,411,0
2,1773254541424,3905,5321,7762,-5429370,612086,263893,0,0,0,297,460,240,375,389,407,381,331,279,123,105,203,0
1,1773254541440,-2191,268,9408,365297,-73303,62308,0,0,0,347,374,320,398,273,443,563,403,387,368,360,411,0
2,1773254541440,4603,4761,8834,-5772676,863763,671951,0,0,0,295,460,237,380,390,410,381,334,276,119,105,199,0
1,1773254541456,-2196,167,9447,299323,-20769,68416,0,0,0,350,374,289,402,275,434,565,385,381,363,348,416,0
2,1773254541456,4814,4302,10193,-5999918,1393994,1049466,0,0,0,294,463,237,378,395,411,380,330,276,116,103,195,0
1,1773254541472,-2144,138,9466,239459,17104,74525,0,0,0,350,377,286,409,276,436,565,379,387,365,336,422,0
2,1773254541472,4321,3948,12103,-6202725,1820378,1407433,0,0,0,292,460,235,379,394,411,378,325,273,114,104,194,0
1,1773254541488,-2091,162,9523,200363,40317,75747,0,0,0,352,381,294,412,277,445,562,380,385,363,343,427,0
2,1773254541488,3895,3579,14443,-6409198,1964542,1720196,0,0,0,292,461,234,380,396,411,378,325,273,114,105,193,0
1,1773254541504,-2005,196,9624,175929,58643,75747,0,0,0,355,386,301,416,282,452,560,375,383,359,338,429,0
2,1773254541504,3953,3259,16817,-6626666,2040289,1888795,0,0,0,293,463,237,382,399,415,379,325,273,116,106,196,0
1,1773254541520,-1928,205,9743,182037,46425,70860,0,0,0,362,389,296,416,286,453,562,358,381,355,325,441,0
2,1773254541520,4173,2799,19880,-6866125,2197893,1887573,0,0,0,291,464,236,384,399,415,380,323,273,116,108,195,0
1,1773254541536,-1943,167,9834,216246,10995,73303,0,0,0,367,390,295,413,288,457,561,344,378,346,317,451,0
2,1773254541536,4154,1981,23905,-7032280,2349387,1806939,0,0,0,291,464,235,382,399,413,381,322,274,115,106,193,0
1,1773254541552,-2043,100,9863,263893,-24434,89186,0,0,0,369,391,302,413,300,469,555,333,386,336,305,458,0
2,1773254541552,3977,808,28159,-7116580,2361605,1859473,0,0,0,289,462,235,382,398,413,383,320,276,116,103,192,0
1,1773254541568,-2196,62,9830,310319,-39095,123394,0,0,0,376,398,325,424,323,474,555,313,398,332,286,471,0
2,1773254541568,3546,-1593,32031,-7148345,2240653,2289522,0,0,0,288,464,235,386,399,414,388,314,279,117,101,193,0
1,1773254541584,-2368,57,9815,367740,-34208,182037,0,0,0,386,410,339,442,339,469,557,289,404,326,266,485,0
2,1773254541584,3713,-8044,34783,-7097032,2349387,3050661,0,0,0,292,468,232,387,401,411,396,311,287,121,100,193,0
1,1773254541600,-2464,23,9887,431270,-23212,256563,0,0,0,397,423,307,456,343,484,542,270,416,313,242,498,0
2,1773254541600,3651,-19416,35831,-6791599,2519208,3521027,0,0,0,298,460,230,392,399,414,399,312,292,121,101,191,0
1,1773254541616,-2445,-33,10078,527787,-10995,342084,0,0,0,407,446,332,472,371,505,535,252,414,303,224,518,0
2,1773254541616,3211,-35989,28623,-5524665,1846034,2889392,0,0,0,298,460,231,393,399,417,398,312,296,123,104,195,0
1,1773254541632,-2378,-100,10485,665843,-2443,398284,0,0,0,411,452,330,474,362,511,532,246,425,286,210,548,0
2,1773254541632,1588,-47355,18918,-3639535,1507615,1372003,0,0,0,297,459,230,393,400,417,397,318,297,122,106,195,0
1,1773254541648,-2316,-114,11170,867428,-14660,437379,0,0,0,424,468,278,509,391,533,510,232,428,277,197,552,0
2,1773254541648,-5355,-51236,13797,-1354899,1653001,-933402,0,0,0,296,458,229,393,399,413,394,314,288,127,106,195,0
1,1773254541664,-1928,-148,11945,1127657,-52534,453262,0,0,0,432,473,267,519,399,536,485,218,428,280,195,565,0
2,1773254541664,-11677,-44656,16343,421497,532674,-2344500,0,0,0,280,455,229,380,400,408,409,413,285,127,152,179,0
1,1773254541680,-1368,-244,12648,1459967,-97738,405614,0,0,0,428,461,272,508,419,545,451,206,446,275,175,571,0
2,1773254541680,-8647,-26848,20808,2007303,-1481959,-2519208,0,0,0,263,407,184,363,377,386,455,464,270,147,201,174,0
1,1773254541696,-1780,-363,13280,1936442,-172263,328645,0,0,0,436,472,254,499,427,547,415,193,451,262,174,578,0
2,1773254541696,3665,5714,19727,3429397,-3959628,-1579697,0,0,0,264,379,183,352,360,391,484,486,288,168,243,177,0
1,1773254541712,-2703,-368,14003,2500882,-268780,370184,0,0,0,439,480,223,510,441,554,378,178,441,244,153,583,0
2,1773254541712,8714,12955,11600,4269948,-4945564,-202807,0,0,0,275,384,183,359,356,400,499,500,299,187,278,173,0
1,1773254541728,-3421,-234,14859,3088534,-315206,533896,0,0,0,440,477,212,509,454,546,331,169,457,234,144,575,0
2,1773254541728,2589,1560,11385,5142263,-3685960,1078788,0,0,0,279,401,187,375,359,412,523,523,304,300,340,174,0
1,1773254541744,-4642,-86,16386,3942524,-230907,861319,0,0,0,435,484,216,487,447,537,285,165,461,213,129,557,0
2,1773254541744,-6130,-2718,19928,4994434,-1325577,1031140,0,0,0,281,420,212,388,367,427,554,554,306,380,426,187,0
1,1773254541760,-6082,-14,18650,4835609,-113620,1268156,0,0,0,431,490,223,462,421,523,271,156,447,186,107,530,0
2,1773254541760,-6159,-344,23369,4094018,-120951,39095,0,0,0,298,451,259,410,385,443,578,577,307,399,473,207,0
1,1773254541776,-7915,-196,21938,5808106,-63529,1738522,0,0,0,420,474,228,442,394,497,279,149,441,173,103,479,0
2,1773254541776,990,928,19329,2570520,-102625,-576656,0,0,0,329,483,299,428,402,461,590,589,316,411,478,243,0
1,1773254541792,-9667,-378,24776,6596122,-63529,2180788,0,0,0,380,442,220,413,368,467,259,161,417,163,108,401,0
2,1773254541792,2445,-583,13093,1023810,-163711,-56199,0,0,0,355,496,312,432,411,476,599,598,330,428,487,283,0
1,1773254541808,-9935,425,26910,7270518,147829,2692693,0,0,0,338,397,211,370,313,412,254,183,345,160,126,314,0
2,1773254541808,746,-488,9978,324980,-113620,196698,0,0,0,375,502,323,437,419,481,610,607,341,434,491,299,0
1,1773254541824,-9160,1761,28073,7725001,526565,3109304,0,0,0,282,343,217,317,252,359,300,228,310,171,181,216,0
2,1773254541824,315,416,9834,216246,-155159,83077,0,0,0,394,508,332,439,420,476,620,609,344,440,491,312,0
1,1773254541840,-9825,3560,25733,7954687,937067,3334102,0,0,0,290,280,230,278,173,287,353,252,283,184,223,132,0
2,1773254541840,574,890,10246,157603,-239459,-13439,0,0,0,407,513,339,444,424,481,618,608,335,443,490,329,0
1,1773254541856,-11514,7829,17367,7638258,1428202,3480710,0,0,0,298,289,234,295,181,299,350,255,290,190,241,137,0
2,1773254541856,655,985,10480,98960,-213802,-13439,0,0,0,413,513,335,447,429,484,613,606,339,443,486,337,0
1,1773254541872,-13156,13204,9236,5977927,1599245,3551570,0,0,0,292,301,231,295,193,304,344,255,282,191,241,138,0
2,1773254541872,612,1072,10404,123394,-122173,-2443,0,0,0,420,513,341,453,428,484,612,605,333,438,473,339,0
1,1773254541888,-9825,16922,9557,2322509,1073901,2868623,0,0,0,289,300,231,296,195,305,353,261,283,194,233,139,0
2,1773254541888,593,1129,10289,195476,-92851,-8552,0,0,0,430,521,339,465,435,492,611,604,337,332,352,366,0
1,1773254541904,-5240,16391,9758,-1430646,1126435,1367116,0,0,0,299,297,229,303,194,305,358,260,281,197,233,137,0
2,1773254541904,526,1201,10294,262672,-97738,-21991,0,0,0,439,529,344,473,442,495,606,592,340,296,307,381,0
1,1773254541920,-5001,11385,6599,-3306002,1716531,-4886,0,0,0,295,302,232,300,195,306,352,259,281,191,236,137,0
2,1773254541920,440,1239,10342,322536,-43982,-23212,0,0,0,442,530,340,462,443,492,600,580,352,263,266,391,0
1,1773254541936,-7968,6944,3015,-3462384,1269377,-290771,0,0,0,290,305,235,298,196,308,349,259,281,185,234,137,0
2,1773254541936,425,1158,10246,366519,26878,-19547,0,0,0,446,537,352,457,446,488,598,571,355,255,246,399,0
1,1773254541952,-7791,5541,2718,-3506366,79412,-112399,0,0,0,290,305,235,298,194,308,352,259,282,186,232,136,0
2,1773254541952,459,1005,10059,386066,91629,-19547,0,0,0,446,538,343,459,451,490,591,557,356,247,222,406,0
1,1773254541968,-5704,5637,4321,-3755599,-711047,-107512,0,0,0,291,306,236,300,195,309,356,261,284,191,235,138,0
2,1773254541968,545,909,9940,389732,125838,-21991,0,0,0,446,539,330,459,450,492,587,537,357,239,204,414,0
1,1773254541984,-4613,5738,6082,-4214970,-829554,-518013,0,0,0,291,306,236,301,197,309,357,263,285,193,237,140,0
2,1773254541984,698,837,9882,390953,118507,-26878,0,0,0,451,543,330,461,448,496,586,516,363,236,194,421,0
1,1773254542000,-4972,5226,7504,-4750088,-1126435,-1051909,0,0,0,295,308,237,300,193,308,358,262,283,195,238,140,0
2,1773254542000,789,746,9858,382401,73303,-34208,0,0,0,457,546,342,465,453,502,584,497,370,235,184,425,0
1,1773254542016,-4632,4484,9078,-5215567,-1594358,-1481959,0,0,0,300,308,238,302,193,310,360,260,282,203,237,139,0
2,1773254542016,837,679,9844,364075,25656,-46425,0,0,0,463,548,354,469,461,506,584,480,374,236,179,431,0
1,1773254542032,-3790,3799,10681,-5516113,-1897347,-1793500,0,0,0,292,307,237,304,194,311,359,262,284,202,237,137,0
2,1773254542032,861,665,9863,344527,-8552,-62308,0,0,0,469,551,358,473,469,508,585,458,377,240,176,442,0
1,1773254542048,-3484,3306,12409,-5737246,-2021963,-1974316,0,0,0,292,310,240,303,199,312,359,263,287,199,244,143,0
2,1773254542048,823,631,9925,348193,-28099,-79412,0,0,0,477,554,358,480,479,516,579,431,372,235,168,454,0
1,1773254542064,-3670,2857,14462,-5977927,-2147802,-1973094,0,0,0,289,308,237,303,200,311,362,265,287,203,238,141,0
2,1773254542064,713,579,9997,368962,-34208,-91629,0,0,0,488,556,370,479,483,517,578,412,374,235,163,466,0
1,1773254542080,-3790,2316,16850,-6249151,-2258979,-1758070,0,0,0,286,310,238,300,197,311,361,263,287,200,239,141,0
2,1773254542080,703,521,10088,394618,-9773,-97738,0,0,0,488,558,344,486,483,526,578,393,379,244,165,482,0
1,1773254542096,-3632,1512,19813,-6560692,-2283414,-1463633,0,0,0,286,311,239,302,199,315,360,263,285,196,232,138,0
2,1773254542096,794,469,10179,416610,26878,-113620,0,0,0,513,571,393,497,483,535,569,369,386,245,163,500,0
1,1773254542112,-3560,617,22301,-6723182,-2161241,-1331686,0,0,0,279,312,240,299,200,316,357,263,285,193,228,140,0
2,1773254542112,909,430,10246,460592,61086,-142942,0,0,0,513,568,345,501,490,537,565,339,387,252,158,518,0
1,1773254542128,-3694,-492,25048,-6646213,-2063502,-1599245,0,0,0,276,312,241,299,201,315,358,262,285,193,226,143,0
2,1773254542128,947,387,10313,537561,65973,-177150,0,0,0,519,576,343,510,498,549,559,322,397,248,154,532,0
1,1773254542144,-3866,-2086,28241,-6381098,-2112371,-2315179,0,0,0,274,310,239,301,200,316,362,262,286,195,223,141,0
2,1773254542144,914,325,10390,630412,48869,-204028,0,0,0,526,586,364,517,504,555,550,296,403,250,153,541,0
1,1773254542160,-4556,-5800,31844,-6063448,-2349387,-3271794,0,0,0,274,313,239,302,203,317,364,261,287,196,218,139,0
2,1773254542160,813,253,10543,746477,42760,-218689,0,0,0,530,588,367,518,505,557,533,265,408,260,164,565,0
1,1773254542176,-6168,-13132,33811,-5896071,-2398256,-3927863,0,0,0,273,319,241,303,210,317,361,260,287,195,213,141,0
2,1773254542176,1005,224,10949,885754,57421,-224798,0,0,0,530,592,360,527,512,564,515,245,407,262,166,578,0
1,1773254542192,-9284,-26331,29097,-5870414,-2009746,-3296228,0,0,0,270,325,240,302,215,319,354,260,287,195,216,144,0
2,1773254542192,1215,191,11509,1065348,50090,-250454,0,0,0,534,596,340,532,532,570,490,232,407,266,167,593,0
1,1773254542208,-7336,-39616,21517,-5302310,-2211332,-1541823,0,0,0,270,330,236,301,216,320,351,261,286,198,222,145,0
2,1773254542208,1024,143,12275,1365894,28099,-279776,0,0,0,537,598,315,531,545,572,464,221,410,270,172,602,0
1,1773254542224,8901,-48312,15022,-3258355,-2776993,983493,0,0,0,273,332,239,304,219,320,359,265,286,197,221,144,0
2,1773254542224,775,95,12787,1744631,-1221,-271224,0,0,0,540,603,294,531,552,574,432,210,415,273,177,606,0
1,1773254542240,19856,-46077,14946,-772133,-982271,1314581,0,0,0,272,328,238,305,220,319,367,273,285,205,235,142,0
2,1773254542240,1014,-23,13280,2210110,-40317,-244346,0,0,0,551,606,274,527,557,574,389,204,417,276,180,613,0
1,1773254542256,14362,-39784,15558,1158200,1286482,773355,0,0,0,264,314,235,303,214,310,399,332,277,231,346,125,0
2,1773254542256,1727,-100,14209,2719572,-101403,-276111,0,0,0,558,607,260,515,561,571,349,201,415,274,180,611,0
1,1773254542272,-478,-16702,17889,2689028,2408030,455705,0,0,0,252,278,185,296,182,276,454,436,259,295,405,93,0
2,1773254542272,2569,-114,15544,3371976,-229685,-422718,0,0,0,563,605,254,510,565,569,313,191,412,264,169,606,0
1,1773254542288,-8590,13524,15429,3641978,2929709,348193,0,0,0,268,279,170,291,173,268,465,464,259,325,415,85,0
2,1773254542288,3120,100,17300,4219857,-419053,-660956,0,0,0,562,588,252,506,554,566,297,176,419,263,174,600,0
1,1773254542304,-5120,17214,10217,4378682,3166725,162490,0,0,0,278,274,200,293,158,291,488,489,290,366,428,90,0
2,1773254542304,4350,335,19339,5119050,-619417,-929736,0,0,0,555,573,244,509,539,558,289,156,410,262,169,584,0
1,1773254542320,1416,1708,15831,5632177,1992642,145385,0,0,0,275,280,206,315,166,311,505,505,300,401,444,92,0
2,1773254542320,6101,201,22502,6202725,-862541,-1348790,0,0,0,526,564,250,493,526,550,286,153,405,224,141,501,0
1,1773254542336,2029,-5312,23756,5446474,455705,441044,0,0,0,286,296,230,340,205,345,527,527,324,422,460,129,0
2,1773254542336,7087,-57,26508,7191105,-917519,-1762957,0,0,0,450,546,218,480,507,520,301,161,369,208,135,429,0
1,1773254542352,-3881,-2866,23125,3363424,-147829,582765,0,0,0,304,315,258,358,232,387,542,542,336,433,477,201,0
2,1773254542352,7800,583,30097,8095186,-531452,-2135584,0,0,0,382,512,197,439,465,468,315,190,330,193,129,381,0
1,1773254542368,-4474,-918,15194,1492954,309097,21991,0,0,0,324,330,293,372,246,415,555,555,346,448,495,275,0
2,1773254542368,7968,3105,31251,8801346,218689,-2535090,0,0,0,311,459,195,388,413,419,345,268,294,145,112,281,0
1,1773254542384,-1976,-210,10117,463035,304210,-252898,0,0,0,337,342,308,384,259,423,559,555,364,465,502,318,0
2,1773254542384,7547,6255,28949,8962614,748920,-3057991,0,0,0,291,448,220,366,389,404,363,304,288,121,105,223,0
1,1773254542400,-1646,277,9648,312763,-54977,-106290,0,0,0,339,352,292,391,264,434,558,549,371,474,496,345,0
2,1773254542400,8576,10098,18827,8354193,263893,-3612657,0,0,0,294,449,230,365,387,405,365,315,287,121,110,217,0
1,1773254542416,-2670,598,10016,334754,-124616,12217,0,0,0,339,357,303,396,267,455,578,573,368,476,497,375,0
2,1773254542416,8695,15300,11131,6012135,-664621,-3689626,0,0,0,297,449,229,367,388,403,364,313,280,130,122,215,0
1,1773254542432,-2794,689,9940,315206,50090,20769,0,0,0,342,362,315,399,278,449,578,561,364,488,498,387,0
2,1773254542432,5728,20823,9322,1737300,-1021366,-2629163,0,0,0,296,450,227,371,390,403,367,314,275,128,116,210,0
1,1773254542448,-2412,655,9853,296880,131946,20769,0,0,0,350,378,291,413,281,434,582,548,360,478,471,395,0
2,1773254542448,2876,18320,10442,-3025004,-1541823,-244346,0,0,0,287,450,225,373,393,404,370,315,275,136,128,210,0
1,1773254542464,-2234,622,9825,274889,120951,41538,0,0,0,362,379,307,418,277,446,579,511,364,463,432,417,0
2,1773254542464,4871,10193,7848,-5176472,-2164906,1444085,0,0,0,279,451,224,370,392,404,369,315,274,151,154,209,0
1,1773254542480,-2201,708,10212,272445,90408,73303,0,0,0,343,379,288,417,283,466,584,475,368,443,410,426,0
2,1773254542480,9236,3900,2938,-4720766,-1661553,1433089,0,0,0,276,454,228,369,391,403,367,315,274,152,160,206,0
1,1773254542496,-2124,756,10318,361632,-29321,78190,0,0,0,354,385,285,429,281,468,585,453,360,417,379,431,0
2,1773254542496,8490,3977,2790,-4255287,-105068,652404,0,0,0,275,457,231,370,392,405,366,313,274,159,170,204,0
1,1773254542512,-2172,636,10035,438601,-160046,69638,0,0,0,364,386,286,436,285,459,579,449,374,394,360,439,0
2,1773254542512,5317,5532,5431,-4466646,812450,255341,0,0,0,274,457,227,371,392,404,369,316,273,165,178,206,0
1,1773254542528,-2292,473,9724,443488,-200363,70860,0,0,0,362,386,276,442,285,451,574,444,374,381,347,438,0
2,1773254542528,3570,6101,7997,-5116607,742812,437379,0,0,0,275,457,229,373,393,406,368,316,274,164,179,201,0
1,1773254542544,-2345,378,9581,414166,-183259,81855,0,0,0,358,391,280,444,288,453,566,402,371,365,330,438,0
2,1773254542544,4737,4977,8762,-5590638,818559,744033,0,0,0,274,460,232,374,393,408,367,318,275,175,195,205,0
1,1773254542560,-2383,349,9576,404392,-172263,94073,0,0,0,357,390,272,443,291,456,558,377,372,353,321,443,0
2,1773254542560,5221,3962,9724,-5845980,1361007,948062,0,0,0,275,460,231,374,394,407,367,314,273,173,192,200,0
1,1773254542576,-2455,330,9538,400727,-142942,105068,0,0,0,358,388,266,444,298,460,556,368,378,350,313,449,0
2,1773254542576,4292,3637,11462,-5964488,1892460,1127657,0,0,0,273,460,230,372,392,406,369,317,273,173,190,200,0
1,1773254542592,-2455,268,9418,372627,-86742,117286,0,0,0,355,391,271,443,311,474,555,358,390,346,306,460,0
2,1773254542592,3508,3637,13816,-6170960,2048842,1393994,0,0,0,272,456,230,372,394,408,372,319,277,172,190,199,0
1,1773254542608,-2340,177,9365,313984,-35430,123394,0,0,0,351,392,274,440,317,491,548,349,401,334,304,469,0
2,1773254542608,3665,3426,16099,-6477614,2108706,1585806,0,0,0,271,457,229,373,395,409,372,318,276,170,191,198,0
1,1773254542624,-2234,129,9490,265115,-15882,123394,0,0,0,355,387,278,438,305,491,542,342,407,331,299,470,0
2,1773254542624,3900,2804,18674,-6756169,2273640,1585806,0,0,0,274,458,232,369,393,405,372,321,277,159,171,200,0
1,1773254542640,-2234,119,9681,263893,-35430,124616,0,0,0,362,394,285,424,307,494,531,341,414,327,290,487,0
2,1773254542640,3838,2086,21560,-6890559,2426356,1499063,0,0,0,277,456,234,370,392,405,376,326,280,142,144,202,0
1,1773254542656,-2311,81,9801,285884,-72082,140499,0,0,0,362,413,291,430,342,500,540,314,413,322,282,490,0
2,1773254542656,3847,1435,25221,-6893003,2478891,1412320,0,0,0,278,455,234,376,396,410,380,328,281,126,120,202,0
1,1773254542672,-2464,47,9791,324980,-112399,178372,0,0,0,371,403,283,439,324,515,538,290,413,316,266,514,0
2,1773254542672,3723,387,29404,-6868568,2483778,1574810,0,0,0,278,454,233,380,399,413,382,325,282,118,108,203,0
1,1773254542688,-2560,19,9806,373849,-145385,233350,0,0,0,371,436,287,434,349,531,528,271,429,308,267,521,0
2,1773254542688,2751,-2948,33649,-6868568,2614503,2052507,0,0,0,282,456,232,379,396,409,386,318,285,118,106,200,0
1,1773254542704,-2550,-19,9882,437379,-158824,290771,0,0,0,371,431,287,445,376,534,532,280,443,300,256,533,0
2,1773254542704,1115,-11088,36199,-6737843,2730567,2614503,0,0,0,287,457,229,386,398,408,391,310,287,120,105,196,0
1,1773254542720,-2493,-76,10035,515570,-131946,324980,0,0,0,387,436,278,482,409,550,521,279,467,294,245,547,0
2,1773254542720,1129,-22818,34529,-6268699,2150245,2752558,0,0,0,291,458,229,386,398,411,388,312,284,121,105,196,0
1,1773254542736,-2459,-148,10294,609643,-103847,343306,0,0,0,390,444,267,503,399,551,508,269,462,287,234,554,0
2,1773254542736,4546,-37903,24914,-5050633,989601,1857030,0,0,0,292,460,231,386,400,411,391,317,288,122,108,198,0
1,1773254542752,-2574,-167,10768,752585,-113620,356745,0,0,0,393,472,262,492,425,549,494,249,476,288,216,569,0
2,1773254542752,2196,-47030,14242,-2984687,1519832,-542448,0,0,0,292,459,231,388,398,412,396,320,288,122,108,200,0
1,1773254542768,-2646,-129,11442,1010371,-141720,388510,0,0,0,406,483,262,482,460,563,469,229,474,276,206,568,0
2,1773254542768,-9212,-46556,13342,-1087340,2190562,-2433687,0,0,0,295,462,233,388,398,410,395,320,286,121,106,197,0
1,1773254542784,-2388,-282,11897,1319468,-120951,406836,0,0,0,408,485,253,488,463,584,441,210,472,265,198,571,0
2,1773254542784,-15975,-38377,18066,744033,342084,-2482556,0,0,0,280,452,231,388,403,410,411,382,292,184,165,193,0
1,1773254542800,-2081,-516,12218,1620014,-83077,362853,0,0,0,397,497,233,502,478,598,415,197,475,259,187,582,0
2,1773254542800,-8322,-24771,20244,2250427,-1977981,-1628566,0,0,0,258,437,187,377,394,390,447,461,270,154,203,179,0
1,1773254542816,-2512,-559,12936,2041511,-112399,323758,0,0,0,395,502,214,516,492,605,385,188,467,252,172,590,0
2,1773254542816,4111,4355,19990,3378084,-3596774,-532674,0,0,0,256,398,176,357,367,386,480,485,280,163,250,170,0
1,1773254542832,-3536,-502,13706,2565634,-217468,459370,0,0,0,404,485,203,527,457,598,355,171,459,257,157,590,0
2,1773254542832,7389,17961,12476,3867998,-4195422,814894,0,0,0,264,395,176,365,362,401,499,499,291,263,304,165,0
1,1773254542848,-4034,-469,14615,3180164,-270002,691499,0,0,0,405,470,200,528,423,576,323,156,473,269,145,584,0
2,1773254542848,-14,5805,9930,4807509,-3391523,1687209,0,0,0,272,402,183,380,358,414,522,523,302,239,317,172,0
1,1773254542864,-4699,-392,15979,3864333,-309097,957836,0,0,0,421,442,201,515,395,567,275,148,475,218,119,583,0
2,1773254542864,-8327,-5431,19210,5390274,-1783726,1189965,0,0,0,281,421,212,392,365,429,543,544,314,211,319,200,0
1,1773254542880,-6216,-229,18568,4798957,-390953,1347568,0,0,0,436,416,216,467,368,550,275,139,473,187,93,549,0
2,1773254542880,-4206,-2234,24656,4175874,-1055575,-7330,0,0,0,295,449,256,402,378,444,559,559,325,245,336,234,0
1,1773254542896,-7887,-76,22148,5801998,-432492,1778839,0,0,0,401,415,217,454,358,532,270,140,457,155,84,498,0
2,1773254542896,2091,531,20464,2207666,-742812,-238237,0,0,0,319,472,290,416,392,460,575,574,338,269,338,274,0
1,1773254542912,-9384,33,25455,6687752,-377514,2193006,0,0,0,364,394,201,422,329,508,241,152,411,139,85,398,0
2,1773254542912,1842,478,12845,924849,-442266,227241,0,0,0,347,481,309,432,406,475,587,587,346,292,346,311,0
1,1773254542928,-9839,579,28111,7469660,-79412,2653598,0,0,0,317,365,215,360,292,419,237,153,344,133,100,302,0
2,1773254542928,421,157,9332,454483,-207694,331088,0,0,0,372,486,325,439,412,483,598,597,346,329,376,330,0
1,1773254542944,-9026,1325,29485,7918035,483805,3018896,0,0,0,292,323,219,316,240,346,293,213,300,144,166,167,0
2,1773254542944,464,296,9691,337197,-200363,111177,0,0,0,391,494,337,444,417,489,599,600,358,275,307,365,0
1,1773254542960,-10839,3981,27149,8115955,1252273,3196046,0,0,0,294,296,222,309,197,308,339,240,286,172,204,128,0
2,1773254542960,1000,799,10370,153938,-324980,18325,0,0,0,399,502,343,447,421,492,603,603,365,262,290,379,0
1,1773254542976,-14008,9681,18956,7908261,1522276,3362202,0,0,0,297,288,225,311,185,301,355,249,285,186,221,131,0
2,1773254542976,914,1139,10399,52534,-300545,17104,0,0,0,404,506,336,447,428,491,604,604,372,264,292,384,0
1,1773254542992,-13988,15252,11246,6327342,956614,3711617,0,0,0,294,292,229,308,189,305,353,258,285,186,227,135,0
2,1773254542992,823,1229,10270,96516,-188146,19547,0,0,0,413,510,343,454,425,494,603,603,365,266,285,390,0
1,1773254543008,-8681,19277,9767,2735454,496022,3353650,0,0,0,289,298,253,301,189,315,348,261,288,186,226,141,0
2,1773254543008,804,1229,10294,172263,-149051,2443,0,0,0,419,511,343,455,428,494,599,599,361,262,274,394,0
1,1773254543024,-3225,18769,10485,-1754404,1110553,1529606,0,0,0,291,304,267,299,187,321,348,258,293,188,224,146,0
2,1773254543024,670,1316,10399,246789,-98960,-14660,0,0,0,425,516,344,466,436,500,600,596,367,256,257,403,0
1,1773254543040,-4508,12782,7619,-4058588,1946216,-252898,0,0,0,296,311,238,302,190,309,354,262,286,188,225,138,0
2,1773254543040,622,1392,10346,343306,25656,-20769,0,0,0,428,517,345,464,433,501,596,578,366,253,242,412,0
1,1773254543056,-7657,7336,4536,-4693888,1767844,-946841,0,0,0,295,308,234,304,190,307,354,258,281,189,227,136,0
2,1773254543056,693,1306,10174,426383,123394,-19547,0,0,0,432,519,344,465,435,502,593,559,365,250,226,416,0
1,1773254543072,-8269,5398,4063,-4588819,526565,-679282,0,0,0,291,306,235,308,192,311,355,263,283,188,223,132,0
2,1773254543072,813,1057,9935,471587,179594,-18325,0,0,0,433,522,347,465,435,505,594,545,366,247,213,425,0
1,1773254543088,-6738,5187,5226,-4732983,-306654,-547335,0,0,0,295,308,235,306,191,313,357,264,286,190,230,138,0
2,1773254543088,938,947,9830,453262,169820,-19547,0,0,0,434,527,346,469,441,510,593,534,370,244,200,431,0
1,1773254543104,-5436,5163,6877,-5117828,-511905,-777020,0,0,0,291,310,236,305,194,312,358,271,286,190,230,132,0
2,1773254543104,1100,899,9806,430049,120951,-25656,0,0,0,434,528,339,471,445,511,592,523,372,253,194,439,0
1,1773254543120,-5618,4503,8379,-5534439,-646295,-1205847,0,0,0,291,313,239,304,195,313,362,273,288,185,224,129,0
2,1773254543120,1172,823,9806,404392,45204,-39095,0,0,0,438,527,337,470,444,510,590,507,374,253,188,443,0
1,1773254543136,-5738,3704,10107,-5903401,-1017701,-1620014,0,0,0,291,313,241,304,195,313,361,271,288,186,228,131,0
2,1773254543136,1162,741,9810,371406,-31764,-56199,0,0,0,448,531,340,475,447,513,587,490,379,241,176,443,0
1,1773254543152,-5527,3292,11998,-6240599,-1321912,-1931555,0,0,0,290,312,241,305,194,312,339,252,287,190,229,132,0
2,1773254543152,1062,722,9849,343306,-91629,-69638,0,0,0,457,535,340,483,453,521,585,473,383,245,171,453,0
1,1773254543168,-5781,2761,13965,-6592457,-1506393,-2145358,0,0,0,287,311,239,308,196,315,346,255,285,191,230,134,0
2,1773254543168,985,722,9920,337197,-107512,-73303,0,0,0,459,543,341,489,461,530,581,457,386,255,176,472,0
1,1773254543184,-6192,1919,15979,-6845355,-1705535,-2161241,0,0,0,287,312,250,306,195,321,361,266,288,189,229,136,0
2,1773254543184,957,665,9959,348193,-102625,-76969,0,0,0,468,550,347,487,468,530,586,445,384,245,167,484,0
1,1773254543200,-6216,933,18693,-6945537,-1955990,-2004859,0,0,0,282,312,251,305,196,320,362,267,288,187,225,134,0
2,1773254543200,990,569,9983,372627,-79412,-92851,0,0,0,476,549,342,502,474,541,581,418,391,249,160,504,0
1,1773254543216,-6125,-43,21914,-6967528,-2107485,-1828930,0,0,0,276,313,241,307,201,314,365,268,284,187,226,132,0
2,1773254543216,1072,516,10011,400727,-59864,-116064,0,0,0,487,552,342,517,490,548,581,387,408,258,165,516,0
1,1773254543232,-6389,-1292,25561,-6899112,-2069611,-1844813,0,0,0,278,316,245,304,199,312,364,265,285,188,227,134,0
2,1773254543232,1134,507,10064,434936,-48869,-146607,0,0,0,501,567,358,505,493,544,578,361,396,252,155,533,0
1,1773254543248,-6992,-3082,28705,-6695083,-2073276,-2162462,0,0,0,276,315,245,303,199,315,362,262,285,197,216,139,0
2,1773254543248,1091,459,10165,483805,-50090,-172263,0,0,0,510,565,355,506,497,557,580,337,408,257,158,549,0
1,1773254543264,-7547,-6456,31572,-6343224,-2367713,-2739119,0,0,0,277,318,245,307,199,318,365,260,286,220,209,146,0
2,1773254543264,1105,406,10366,566882,-47647,-194255,0,0,0,514,572,348,518,508,561,574,307,410,258,159,551,0
1,1773254543280,-7863,-13400,33156,-6051231,-2737898,-3203377,0,0,0,276,315,247,306,193,323,367,258,290,189,209,138,0
2,1773254543280,1244,392,10696,719599,-23212,-221133,0,0,0,525,578,347,522,515,557,558,273,413,269,166,570,0
1,1773254543296,-8303,-23795,30318,-5859419,-2670702,-3044552,0,0,0,271,314,246,310,200,322,368,259,288,192,211,138,0
2,1773254543296,1387,344,11270,928515,-13439,-270002,0,0,0,534,580,344,539,533,568,532,256,423,277,171,591,0
1,1773254543312,-5374,-35874,21919,-5187467,-2835636,-1532050,0,0,0,273,326,237,310,217,318,366,261,288,197,219,138,0
2,1773254543312,1383,272,11873,1165530,-15882,-323758,0,0,0,539,584,330,545,548,578,503,237,428,265,166,603,0
1,1773254543328,4814,-44187,16429,-3813020,-3244916,289550,0,0,0,275,327,243,311,212,323,369,261,289,201,213,135,0
2,1773254543328,990,229,12543,1549154,-37873,-345749,0,0,0,541,592,305,543,552,581,472,220,430,260,165,607,0
1,1773254543344,18119,-46752,15271,-1767844,-2182010,1441641,0,0,0,278,329,241,310,213,318,369,263,286,199,220,136,0
2,1773254543344,794,201,13189,1964542,-56199,-324980,0,0,0,545,593,278,545,561,584,433,211,430,262,167,611,0
1,1773254543360,15209,-41727,15663,304210,864985,1285260,0,0,0,272,328,237,304,209,317,367,272,284,204,246,133,0
2,1773254543360,1306,143,13988,2426356,-83077,-311541,0,0,0,552,587,255,545,572,585,392,201,429,261,169,617,0
1,1773254543376,2986,-31141,16113,2138028,2963918,1197295,0,0,0,264,305,220,306,198,305,414,347,274,255,335,114,0
2,1773254543376,2306,23,14931,3046995,-189368,-412944,0,0,0,557,590,244,534,563,581,356,191,435,271,181,620,0
1,1773254543392,-5565,-8609,18492,3363424,3354871,1328021,0,0,0,267,275,184,299,179,274,453,430,260,302,397,88,0
2,1773254543392,2770,62,15826,3703065,-304210,-599869,0,0,0,563,587,252,524,554,582,325,180,433,264,177,617,0
1,1773254543408,-7791,20760,14218,3855781,3619987,878424,0,0,0,270,264,161,298,169,263,475,475,263,344,419,75,0
2,1773254543408,2962,244,17176,4471533,-393397,-824668,0,0,0,561,572,245,525,547,587,307,161,423,259,167,601,0
1,1773254543424,-3206,14510,10480,4510628,3500257,284663,0,0,0,269,266,171,315,169,279,500,500,279,386,439,79,0
2,1773254543424,4063,315,19597,5393940,-456927,-1071457,0,0,0,540,558,242,517,539,573,306,153,419,246,159,569,0
1,1773254543440,1206,-2522,19956,5436700,2068389,246789,0,0,0,273,276,202,332,181,304,527,526,291,424,465,95,0
2,1773254543440,5360,387,23541,6498384,-478918,-1408655,0,0,0,513,541,235,503,518,561,306,157,413,216,135,489,0
1,1773254543456,-23,-6403,26254,4387234,792903,409279,0,0,0,286,301,242,345,209,339,542,542,305,453,483,134,0
2,1773254543456,6006,708,27925,7456221,-221133,-1710422,0,0,0,419,517,199,483,489,522,314,164,382,206,130,409,0
1,1773254543472,-2995,-1608,19401,2017077,318871,124616,0,0,0,296,329,277,369,235,380,550,550,339,467,491,196,0
2,1773254543472,5695,2263,30394,8190481,190589,-1959655,0,0,0,372,497,182,439,468,462,330,205,335,186,124,362,0
1,1773254543488,-2809,1244,11194,641408,95294,-204028,0,0,0,310,340,284,383,245,391,564,561,340,469,501,237,0
2,1773254543488,5561,3005,30394,8862432,790459,-2213775,0,0,0,300,454,199,393,414,419,352,275,296,129,104,251,0
1,1773254543504,-1622,851,8207,486248,-76969,-229685,0,0,0,327,333,280,378,238,400,592,564,337,474,507,278,0
2,1773254543504,7489,3809,25939,9033475,1569923,-2642603,0,0,0,281,450,218,372,396,404,359,306,291,120,105,239,0
1,1773254543520,-2215,215,9672,496022,-86742,-83077,0,0,0,341,345,289,400,253,416,589,569,349,474,503,312,0
2,1773254543520,7475,9155,18123,8267450,1398881,-3303559,0,0,0,278,452,224,370,399,409,365,319,296,120,109,224,0
1,1773254543536,-2723,555,11198,329867,81855,1221,0,0,0,338,352,284,414,273,449,602,552,354,474,494,353,0
2,1773254543536,4828,16534,12208,5247332,-535117,-3495370,0,0,0,279,451,224,372,399,407,364,319,289,119,111,210,0
1,1773254543552,-2392,1100,12012,194255,244346,36651,0,0,0,348,358,293,422,272,447,604,526,344,483,477,373,0
2,1773254543552,3981,20387,9968,603534,-1987755,-2604729,0,0,0,283,452,224,372,398,402,363,317,279,120,111,208,0
1,1773254543568,-1990,1024,10696,317649,108734,34208,0,0,0,352,366,299,427,284,454,600,507,348,471,461,388,0
2,1773254543568,5015,16080,9332,-4284608,-2129476,-948062,0,0,0,284,454,224,372,399,400,368,320,278,120,112,208,0
1,1773254543584,-2072,823,9834,419053,-39095,36651,0,0,0,357,363,305,424,282,447,605,481,353,444,433,402,0
2,1773254543584,5786,7418,6690,-5374392,-1677435,-191811,0,0,0,282,455,226,374,401,403,371,324,280,119,112,208,0
1,1773254543600,-2196,813,9959,428827,-92851,56199,0,0,0,359,359,320,425,281,452,598,455,358,425,406,418,0
2,1773254543600,6542,3383,3948,-4822170,-1314581,-152716,0,0,0,279,456,227,377,403,408,372,326,280,120,113,208,0
1,1773254543616,-2120,861,10160,419053,-122173,73303,0,0,0,358,359,310,419,308,448,583,435,373,401,382,428,0
2,1773254543616,6953,3709,3488,-4388455,-634078,-256563,0,0,0,279,456,229,377,399,406,373,327,278,119,112,206,0
1,1773254543632,-2129,746,9920,428827,-169820,81855,0,0,0,356,360,289,422,311,448,576,411,389,375,357,434,0
2,1773254543632,6465,4737,4891,-4613254,45204,-109955,0,0,0,281,457,229,375,405,407,371,325,278,119,111,206,0
1,1773254543648,-2230,598,9595,430049,-195476,91629,0,0,0,354,359,287,438,279,460,574,380,390,359,332,440,0
2,1773254543648,5723,4852,6800,-5117828,549778,345749,0,0,0,281,457,230,349,432,395,372,329,279,119,111,206,0
1,1773254543664,-2325,521,9475,419053,-174707,107512,0,0,0,355,360,282,437,279,453,570,360,385,349,312,444,0
2,1773254543664,5695,3881,7853,-5362175,948062,919963,0,0,0,285,460,234,374,399,404,368,326,278,121,111,198,0
1,1773254543680,-2359,502,9523,415388,-127059,120951,0,0,0,357,363,265,439,282,449,568,348,380,345,301,449,0
2,1773254543680,5632,3182,8925,-5463578,1397659,1441641,0,0,0,283,458,233,376,401,405,373,329,279,118,110,203,0
1,1773254543696,-2345,464,9533,403171,-67195,131946,0,0,0,357,368,268,433,286,454,569,337,381,337,300,457,0
2,1773254543696,5283,3053,10318,-5564982,1726305,1836260,0,0,0,283,459,234,377,400,406,375,330,285,115,109,201,0
1,1773254543712,-2254,382,9475,361632,-13439,134390,0,0,0,358,368,276,422,285,455,566,325,382,330,293,460,0
2,1773254543712,5039,3053,12122,-5786115,1868025,2102598,0,0,0,283,459,233,377,401,407,377,333,285,115,108,201,0
1,1773254543728,-2144,306,9461,311541,13439,131946,0,0,0,361,381,278,428,308,453,562,330,385,330,293,467,0
2,1773254543728,4996,2895,14180,-6067113,1966986,2216219,0,0,0,284,460,235,379,402,409,377,332,284,117,108,201,0
1,1773254543744,-2029,277,9581,271224,6108,125838,0,0,0,362,386,276,434,314,464,561,311,384,323,281,474,0
2,1773254543744,4953,2445,16630,-6372546,2078163,2111150,0,0,0,285,459,237,378,400,410,377,331,285,118,109,201,0
1,1773254543760,-2000,248,9753,263893,-34208,114842,0,0,0,360,386,270,433,326,471,561,311,389,318,267,479,0
2,1773254543760,4934,1890,19200,-6590014,2178345,1901012,0,0,0,285,459,237,378,400,410,378,330,284,116,109,199,0
1,1773254543776,-2124,220,9868,287106,-86742,117286,0,0,0,372,387,268,457,334,478,561,302,403,317,248,490,0
2,1773254543776,4982,1378,22402,-6693861,2241875,1653001,0,0,0,284,459,236,378,399,409,379,330,283,112,106,195,0
1,1773254543792,-2325,205,9920,339641,-120951,150272,0,0,0,378,396,260,477,343,489,558,285,407,310,234,501,0
2,1773254543792,5101,684,26934,-6736621,2195449,1556484,0,0,0,285,459,236,377,397,407,381,327,285,112,103,193,0
1,1773254543808,-2440,172,9935,408057,-125838,195476,0,0,0,387,411,262,489,352,491,556,263,408,309,224,518,0
2,1773254543808,4871,-1694,31198,-6808703,2172236,1809382,0,0,0,287,460,235,379,398,407,382,319,285,121,105,192,0
1,1773254543824,-2483,90,9992,488692,-112399,243124,0,0,0,395,422,264,504,363,497,552,248,417,308,214,533,0
2,1773254543824,4283,-8772,33763,-6792821,2505769,2280970,0,0,0,289,460,233,384,402,409,386,315,288,130,107,192,0
1,1773254543840,-2479,33,10241,594982,-116064,298102,0,0,0,397,424,259,509,371,513,540,242,435,297,202,541,0
2,1773254543840,4015,-19191,34189,-6478836,2553416,2393370,0,0,0,290,458,228,385,403,409,387,318,291,117,104,194,0
1,1773254543856,-2325,0,10662,736703,-163711,339641,0,0,0,396,419,254,504,368,526,520,227,446,277,187,552,0
2,1773254543856,4838,-32821,28628,-5473352,1861917,1681101,0,0,0,291,458,229,390,406,416,395,316,295,122,107,199,0
1,1773254543872,-2167,-52,11213,948062,-227241,345749,0,0,0,397,417,249,515,378,530,501,208,425,264,172,564,0
2,1773254543872,2828,-42789,18578,-3637091,1766622,-183259,0,0,0,292,459,229,390,406,416,392,314,294,124,107,200,0
1,1773254543888,-2220,-67,11753,1194852,-256563,326202,0,0,0,409,429,240,519,370,532,484,194,428,262,160,588,0
2,1773254543888,-5881,-46546,13974,-1705535,2232101,-2138028,0,0,0,293,459,231,393,406,416,392,316,294,123,107,200,0
1,1773254543904,-2287,-143,12122,1505171,-339641,320093,0,0,0,427,431,231,530,386,562,459,191,486,249,143,575,0
2,1773254543904,-15395,-43972,16362,-79412,1552819,-2902831,0,0,0,277,454,224,384,405,407,415,413,287,130,155,184,0
1,1773254543920,-2005,-325,12404,1876578,-530231,321315,0,0,0,414,422,229,553,402,570,425,174,477,248,139,590,0
2,1773254543920,-13984,-27020,22373,1806939,-1391551,-1921782,0,0,0,261,416,184,367,383,387,461,467,269,154,217,178,0
1,1773254543936,-2215,-478,12830,2289522,-660956,318871,0,0,0,419,429,206,530,415,580,393,156,499,232,128,591,0
2,1773254543936,-1813,3685,20516,3589444,-4893030,-107512,0,0,0,264,403,178,363,375,391,486,487,281,171,258,170,0
1,1773254543952,-2981,-569,13400,2775771,-717155,375071,0,0,0,408,453,192,521,431,578,380,170,513,223,139,593,0
2,1773254543952,4876,12739,11825,4559498,-5382944,1354899,0,0,0,274,410,185,372,371,406,504,504,295,185,288,174,0
1,1773254543968,-4063,-521,14453,3444058,-711047,575435,0,0,0,414,426,192,526,405,568,345,147,502,218,121,590,0
2,1773254543968,-1330,3306,12754,5301088,-3346319,1819156,0,0,0,280,417,196,379,368,416,534,536,307,199,309,181,0
1,1773254543984,-5226,-483,15821,4109901,-728151,860098,0,0,0,417,424,196,508,380,572,350,130,501,204,106,574,0
2,1773254543984,-10035,-4699,23244,5081177,-1047023,849102,0,0,0,286,428,227,388,371,430,554,555,322,215,317,204,0
1,1773254544000,-6475,-392,18774,4984660,-842994,1276708,0,0,0,416,432,194,484,378,571,353,139,511,184,99,536,0
2,1773254544000,-4441,-1273,23498,3499036,-590095,-414166,0,0,0,299,451,267,405,382,447,561,561,334,223,311,240,0
1,1773254544016,-7973,-148,22608,5867971,-883311,1653001,0,0,0,398,424,185,457,375,539,313,160,478,159,97,473,0
2,1773254544016,2206,1153,17061,1954768,-280998,-510683,0,0,0,320,473,296,420,395,463,572,571,340,225,301,278,0
1,1773254544032,-10184,-421,26427,6809925,-582765,2122145,0,0,0,354,398,182,413,345,478,263,166,407,143,100,392,0
2,1773254544032,3024,713,10815,994488,-7330,112399,0,0,0,343,482,316,429,405,478,582,582,349,233,295,318,0
1,1773254544048,-10538,-660,28509,7390247,-125838,2547308,0,0,0,304,365,198,360,297,412,244,166,349,138,112,302,0
2,1773254544048,1416,-181,9279,530231,-68416,322536,0,0,0,366,488,325,436,409,482,594,594,353,241,291,342,0
1,1773254544064,-9935,842,29485,7744549,465479,2938261,0,0,0,274,348,220,310,243,358,279,199,310,142,151,205,0
2,1773254544064,536,110,10500,211359,-331088,107512,0,0,0,381,495,332,438,413,484,597,597,344,247,290,357,0
1,1773254544080,-11433,5250,25718,7969347,1038470,3141069,0,0,0,280,301,228,287,175,294,332,224,288,170,226,130,0
2,1773254544080,942,1105,10447,41538,-388510,-9773,0,0,0,390,500,335,440,415,484,598,598,346,251,285,369,0
1,1773254544096,-13074,10667,17429,7837401,1231504,3337767,0,0,0,284,297,233,295,185,308,344,258,305,171,237,133,0
2,1773254544096,1014,1497,10126,12217,-310319,-1221,0,0,0,398,505,336,443,417,484,601,601,344,252,284,371,0
1,1773254544112,-12179,14577,10978,6236934,960280,3695734,0,0,0,282,311,231,297,197,314,340,257,303,173,236,136,0
2,1773254544112,957,1411,10184,91629,-224798,20769,0,0,0,406,511,343,440,418,484,602,603,349,248,278,376,0
1,1773254544128,-7753,17798,9777,2571742,667064,3296228,0,0,0,282,316,228,298,200,310,346,258,294,175,230,134,0
2,1773254544128,842,1316,10342,178372,-200363,1221,0,0,0,406,511,340,441,420,485,604,604,352,246,270,384,0
1,1773254544144,-3297,16506,10002,-1997529,1262047,1485624,0,0,0,285,317,227,302,197,309,351,259,287,179,233,133,0
2,1773254544144,689,1354,10294,228463,-136833,-17104,0,0,0,416,516,343,447,424,490,598,598,348,249,261,389,0
1,1773254544160,-3038,11572,8183,-4436103,2150245,-28099,0,0,0,287,318,227,299,197,308,349,258,284,216,223,144,0
2,1773254544160,698,1450,10145,287106,-10995,-19547,0,0,0,423,521,344,448,425,489,573,568,368,247,247,397,0
1,1773254544176,-6125,6422,5072,-4775744,2398256,-555887,0,0,0,283,328,228,296,216,307,346,267,286,199,236,141,0
2,1773254544176,804,1402,10031,346971,67195,-13439,0,0,0,426,524,345,450,425,488,582,569,363,246,235,402,0
1,1773254544192,-7901,4742,3852,-4489859,1323134,-254119,0,0,0,282,328,231,298,215,309,344,273,286,180,244,138,0
2,1773254544192,904,1191,9944,383623,90408,-7330,0,0,0,429,528,344,453,436,494,588,568,355,242,229,405,0
1,1773254544208,-6944,4623,4546,-4494746,262672,-72082,0,0,0,280,326,232,299,207,310,345,275,286,179,245,139,0
2,1773254544208,990,1057,9858,370184,63529,-3665,0,0,0,429,528,343,455,446,501,585,553,356,239,223,409,0
1,1773254544224,-5206,4766,6073,-4754975,-180816,-278554,0,0,0,273,328,233,297,209,312,345,277,287,178,246,137,0
2,1773254544224,1086,1005,9796,346971,13439,-6108,0,0,0,428,527,342,460,451,503,583,539,358,240,214,417,0
1,1773254544240,-5130,4532,7666,-5198463,-287106,-879645,0,0,0,268,330,235,296,212,316,346,279,289,174,245,136,0
2,1773254544240,1081,985,9796,328645,-43982,-23212,0,0,0,430,531,344,464,456,503,582,527,357,244,206,426,0
1,1773254544256,-5671,4144,9136,-5650503,-591317,-1428202,0,0,0,269,332,236,297,212,316,348,282,290,172,246,135,0
2,1773254544256,1009,981,9858,323758,-76969,-40317,0,0,0,436,536,344,469,460,507,581,515,361,242,198,429,0
1,1773254544272,-5714,3464,10835,-6111095,-956614,-1865582,0,0,0,269,331,237,296,215,317,347,281,288,175,248,133,0
2,1773254544272,933,995,9944,335975,-79412,-54977,0,0,0,443,538,344,472,465,512,579,502,368,237,186,434,0
1,1773254544288,-5824,2450,12443,-6462954,-1183856,-2119702,0,0,0,270,330,243,295,216,323,349,280,291,179,248,138,0
2,1773254544288,942,933,9959,360410,-67195,-57421,0,0,0,453,538,348,470,459,514,572,478,367,237,176,444,0
1,1773254544304,-6154,1311,14084,-6619335,-1367116,-2085493,0,0,0,270,330,242,299,211,322,349,280,289,177,248,135,0
2,1773254544304,957,842,9935,379958,-64751,-54977,0,0,0,460,540,349,486,464,525,588,478,374,245,172,460,0
1,1773254544320,-6173,660,16477,-6663318,-1617571,-1838704,0,0,0,270,333,260,294,207,326,350,283,295,176,249,137,0
2,1773254544320,947,756,9997,400727,-62308,-56199,0,0,0,467,543,354,489,463,529,588,451,382,243,169,479,0
1,1773254544336,-6092,306,19401,-6715852,-1799608,-1616349,0,0,0,272,333,250,297,211,325,347,279,287,173,242,135,0
2,1773254544336,981,708,10122,441044,-39095,-69638,0,0,0,474,547,360,492,463,533,589,424,391,242,166,498,0
1,1773254544352,-6077,-296,22459,-6702413,-1905899,-1577254,0,0,0,275,333,243,291,204,311,344,274,282,181,244,130,0
2,1773254544352,1028,674,10165,499687,-21991,-90408,0,0,0,490,560,358,502,475,537,589,399,396,250,161,515,0
1,1773254544368,-5900,-1526,25618,-6536258,-2043955,-1791056,0,0,0,269,319,229,300,201,312,363,268,282,204,240,128,0
2,1773254544368,1067,598,10145,570548,-13439,-111177,0,0,0,510,574,365,508,486,544,581,363,400,259,167,537,0
1,1773254544384,-5384,-4029,29049,-6228381,-2205223,-2313957,0,0,0,272,316,239,298,200,314,363,263,289,190,215,134,0
2,1773254544384,1177,497,10208,630412,0,-134390,0,0,0,524,582,383,514,494,547,577,330,407,261,166,557,0
1,1773254544400,-4589,-10303,31591,-5773898,-1986533,-2945592,0,0,0,274,320,242,303,205,318,363,264,293,184,208,135,0
2,1773254544400,1344,402,10442,706160,18325,-174707,0,0,0,527,583,384,518,509,558,563,296,417,271,177,576,0
1,1773254544416,-7882,-17367,30303,-5654168,-1699427,-3023782,0,0,0,279,321,253,314,203,337,385,254,300,200,207,141,0
2,1773254544416,1450,368,10830,842994,-7330,-237015,0,0,0,526,590,374,521,529,565,543,268,423,274,179,591,0
1,1773254544432,-10227,-26561,25340,-5836206,-2316400,-1775174,0,0,0,282,325,252,322,207,339,393,255,302,208,210,138,0
2,1773254544432,1435,335,11275,1037249,-58643,-294437,0,0,0,529,592,353,526,537,571,520,243,431,274,177,607,0
1,1773254544448,-2368,-37238,19138,-5170363,-3227811,255341,0,0,0,279,330,241,318,223,328,381,270,301,198,215,130,0
2,1773254544448,1277,272,11921,1341460,-41538,-338419,0,0,0,534,588,330,530,534,575,484,223,432,272,176,615,0
1,1773254544464,13199,-43900,15841,-3237585,-2814867,1634675,0,0,0,268,323,235,306,220,323,382,286,298,206,249,127,0
2,1773254544464,947,201,12677,1722639,36651,-361632,0,0,0,540,592,309,533,541,578,443,210,427,269,174,618,0
1,1773254544480,17951,-44886,16018,-842994,-200363,1607797,0,0,0,255,301,215,300,195,306,403,337,282,245,331,115,0
2,1773254544480,880,157,13543,2193006,61086,-344527,0,0,0,549,600,279,540,557,582,402,203,427,273,178,630,0
1,1773254544496,9739,-36195,18200,1699427,2794097,1342681,0,0,0,267,280,200,295,179,285,454,424,269,281,385,102,0
2,1773254544496,1363,224,14510,2740341,-70860,-324980,0,0,0,549,592,253,541,566,577,358,203,424,277,182,629,0
1,1773254544512,-3024,-9279,15936,4256508,5029864,1325577,0,0,0,263,262,164,293,171,263,468,468,269,321,414,85,0
2,1773254544512,2120,220,15376,3334102,-205250,-376292,0,0,0,559,591,254,532,568,579,324,190,427,262,170,614,0
1,1773254544528,-6006,8389,14836,5722585,4549724,878424,0,0,0,268,264,180,303,157,279,496,495,285,379,431,82,0
2,1773254544528,3019,148,16530,4043927,-339641,-535117,0,0,0,562,585,244,530,555,578,306,179,417,247,165,605,0
1,1773254544544,-818,3699,20430,6045122,2430021,278554,0,0,0,266,280,204,313,178,298,516,516,298,405,447,96,0
2,1773254544544,3838,244,18841,4885700,-475253,-801455,0,0,0,560,582,248,510,555,565,297,164,422,248,165,584,0
1,1773254544560,1488,-3651,26154,4461759,701273,277332,0,0,0,288,301,231,329,195,318,520,520,313,417,444,106,0
2,1773254544560,4268,248,22622,5903401,-630412,-1088561,0,0,0,532,563,253,510,537,561,295,155,405,231,145,508,0
1,1773254544576,-1804,-2981,20727,1955990,95294,310319,0,0,0,298,311,256,341,200,335,528,527,318,422,454,130,0
2,1773254544576,5829,-86,27193,7022506,-616973,-1330464,0,0,0,461,539,218,498,516,540,302,157,384,213,133,433,0
1,1773254544592,-3015,1172,10882,893084,7330,-18325,0,0,0,303,317,275,347,203,356,543,543,328,431,468,174,0
2,1773254544592,7298,760,29676,7869166,-191811,-1613905,0,0,0,397,512,190,467,481,494,319,173,352,198,127,385,0
1,1773254544608,-2526,1641,6824,643851,-23212,-194255,0,0,0,317,327,295,348,246,369,546,546,340,448,477,204,0
2,1773254544608,7264,2790,30265,8465370,476474,-2014633,0,0,0,338,480,191,415,431,440,339,229,309,158,113,311,0
1,1773254544624,-2254,0,8959,386066,135612,-160046,0,0,0,322,330,300,352,241,373,555,553,345,467,488,213,0
2,1773254544624,6891,3493,28585,8842885,1136209,-2499660,0,0,0,302,457,215,377,397,409,352,282,292,126,105,239,0
1,1773254544640,-2230,-57,10600,39095,268780,-106290,0,0,0,319,340,309,354,232,379,568,561,345,471,498,226,0
2,1773254544640,7776,6815,21129,8713381,1389107,-3067765,0,0,0,289,453,229,370,392,409,358,310,293,115,105,214,0
1,1773254544656,-2057,1110,10504,-142942,262672,-73303,0,0,0,325,351,326,353,238,383,576,563,349,464,502,243,0
2,1773254544656,6341,12739,12916,7104362,581543,-3522248,0,0,0,284,455,226,375,399,414,362,319,291,112,105,211,0
1,1773254544672,-1933,1545,10078,10995,114842,-39095,0,0,0,334,352,329,362,235,385,582,558,354,467,496,261,0
2,1773254544672,2421,18846,9404,3425732,-745255,-2979800,0,0,0,283,453,224,374,401,409,364,319,286,113,105,207,0
1,1773254544688,-1957,1430,10126,210137,-2443,8552,0,0,0,336,349,321,375,243,393,584,542,354,478,481,277,0
2,1773254544688,1340,19679,9767,-1908343,-1916895,-1026253,0,0,0,287,455,226,373,400,405,367,320,284,117,107,209,0
1,1773254544704,-1943,1162,10251,317649,-95294,43982,0,0,0,338,352,325,376,244,396,585,534,356,472,474,285,0
2,1773254544704,5025,12045,8226,-4708549,-1925447,400727,0,0,0,285,456,228,373,399,404,367,322,281,117,106,209,0
1,1773254544720,-1971,1076,10107,355523,-180816,62308,0,0,0,342,350,319,382,247,398,584,521,364,454,464,295,0
2,1773254544720,7365,5331,5015,-5029864,-1156978,504574,0,0,0,284,458,231,374,400,408,360,320,280,118,109,211,0
1,1773254544736,-2053,1119,9815,340862,-215024,65973,0,0,0,334,356,326,380,250,409,580,511,361,435,452,308,0
2,1773254544736,6283,3752,3704,-4397007,-230907,-180816,0,0,0,283,458,229,378,403,409,367,324,280,117,108,206,0
1,1773254544752,-2167,1167,9361,216246,-111177,64751,0,0,0,336,373,323,374,253,410,572,503,364,416,427,318,0
2,1773254544752,4580,4168,4455,-4316373,274889,-583987,0,0,0,283,458,229,376,403,409,367,328,280,117,108,206,0
1,1773254544768,-2201,1067,9279,210137,-72082,59864,0,0,0,334,366,320,373,253,405,567,477,360,406,415,313,0
2,1773254544768,3412,4910,6130,-4697553,411723,-553443,0,0,0,283,458,229,374,401,407,370,330,281,117,109,206,0
1,1773254544784,-2153,928,9514,282219,-102625,61086,0,0,0,336,361,326,377,252,409,571,470,368,399,414,322,0
2,1773254544784,3488,4838,7035,-5015203,586430,-200363,0,0,0,283,458,231,377,404,410,366,331,282,118,109,206,0
1,1773254544800,-2129,871,9600,284663,-96516,69638,0,0,0,332,360,320,381,252,414,564,460,365,393,400,333,0
2,1773254544800,3814,4599,7767,-5229006,992045,217468,0,0,0,282,458,231,377,402,410,370,331,282,116,109,204,0
1,1773254544816,-2120,885,9533,233350,-47647,78190,0,0,0,335,363,323,375,285,413,552,445,376,391,392,331,0
2,1773254544816,3632,4335,9203,-5446474,1601688,723264,0,0,0,283,458,231,375,399,409,366,329,280,117,109,203,0
1,1773254544832,-2081,918,9523,206472,-8552,83077,0,0,0,336,365,332,379,274,420,554,439,385,387,383,335,0
2,1773254544832,2723,4106,11160,-5641951,1892460,1180191,0,0,0,285,459,232,376,399,410,370,333,282,116,108,200,0
1,1773254544848,-2005,947,9624,226020,1221,80634,0,0,0,333,359,325,381,257,420,564,431,389,384,374,344,0
2,1773254544848,2191,3938,12931,-5828876,1932777,1565036,0,0,0,287,459,233,375,399,409,374,334,284,114,107,200,0
1,1773254544864,-1962,923,9719,260228,-6108,70860,0,0,0,332,356,316,384,259,423,565,418,384,380,364,361,0
2,1773254544864,2507,3728,14855,-6086661,1904677,1814269,0,0,0,289,460,235,375,398,408,375,332,283,115,108,201,0
1,1773254544880,-1966,847,9758,288328,-17104,65973,0,0,0,333,359,318,390,263,440,563,402,377,377,350,381,0
2,1773254544880,2976,3364,17118,-6361550,1964542,1891238,0,0,0,289,461,236,376,398,410,375,332,283,116,109,202,0
1,1773254544896,-1995,756,9763,315206,-31764,73303,0,0,0,334,359,321,396,265,459,568,382,380,378,335,396,0
2,1773254544896,3206,2756,20119,-6625444,2057394,1850921,0,0,0,287,461,236,378,400,412,375,332,283,156,128,200,0
1,1773254544912,-2053,693,9782,357967,-48869,96516,0,0,0,343,366,322,417,281,474,574,374,392,370,325,413,0
2,1773254544912,3536,1957,23842,-6784269,2019520,1859473,0,0,0,289,462,238,379,400,413,375,328,282,194,145,197,0
1,1773254544928,-2124,655,9801,410501,-59864,124616,0,0,0,353,375,318,426,297,492,569,375,409,349,312,433,0
2,1773254544928,4010,789,27470,-6851464,1904677,2052507,0,0,0,288,461,237,378,398,410,378,323,284,114,101,198,0
1,1773254544944,-2220,665,9901,487470,-46425,160046,0,0,0,355,388,313,427,313,470,570,328,408,342,291,454,0
2,1773254544944,4575,-2225,30433,-6863681,1864360,2558303,0,0,0,288,460,237,382,399,410,379,318,283,114,100,197,0
1,1773254544960,-2278,636,10093,583987,-34208,199142,0,0,0,375,416,307,475,331,500,580,294,416,345,272,478,0
2,1773254544960,4843,-10078,32653,-6693861,2289522,3120299,0,0,0,295,460,236,388,400,414,387,314,289,115,100,196,0
1,1773254544976,-2388,521,10289,713490,-48869,259006,0,0,0,374,408,339,443,349,507,570,300,431,329,254,517,0
2,1773254544976,3943,-21665,32620,-6185621,2386039,3182607,0,0,0,295,460,230,395,404,419,394,317,297,120,105,200,0
1,1773254544992,-2536,339,10413,842994,-92851,345749,0,0,0,389,418,324,476,354,523,547,246,463,313,232,536,0
2,1773254544992,3498,-36094,24953,-4836830,1543045,2252871,0,0,0,296,460,230,396,405,420,393,317,296,120,102,200,0
1,1773254545008,-2440,244,10715,983493,-105068,417831,0,0,0,383,455,298,483,377,523,523,235,471,302,215,554,0
2,1773254545008,1617,-45699,16410,-3057991,1319468,557109,0,0,0,300,460,233,395,405,419,394,322,297,121,105,200,0
1,1773254545024,-2134,167,11198,1180191,-87964,439822,0,0,0,409,468,276,499,445,508,513,225,475,298,200,559,0
2,1773254545024,-5977,-48269,13457,-1148426,1580919,-1551597,0,0,0,282,453,214,393,405,408,409,415,278,135,159,184,0
1,1773254545040,-1684,62,11916,1453859,-91629,397062,0,0,0,410,484,248,525,458,535,485,217,471,285,193,564,0
2,1773254545040,-12778,-39980,20086,899193,140499,-2254092,0,0,0,266,436,184,377,387,390,445,471,267,163,229,176,0
1,1773254545056,-1598,-47,12701,1776396,-136833,328645,0,0,0,411,483,234,531,430,559,451,199,479,277,169,574,0
2,1773254545056,-6039,-14194,20904,3532022,-2416582,-1659109,0,0,0,265,411,181,366,372,395,482,490,278,177,268,176,0
1,1773254545072,-2345,-9,13472,2246762,-206472,318871,0,0,0,406,476,220,528,420,560,413,179,488,274,159,577,0
2,1773254545072,4982,6403,14682,5203350,-3325550,-616973,0,0,0,274,411,187,370,369,408,504,504,289,192,310,176,0
1,1773254545088,-3484,43,14218,2802649,-246789,449596,0,0,0,404,467,207,526,428,549,369,168,479,265,157,578,0
2,1773254545088,5245,5953,14850,5929058,-2265088,90408,0,0,0,279,432,199,379,374,419,517,517,295,203,328,195,0
1,1773254545104,-4589,129,15228,3507588,-127059,772133,0,0,0,421,453,208,509,420,543,311,161,469,238,138,578,0
2,1773254545104,-1708,-2349,22541,5569869,-265115,172263,0,0,0,283,450,226,390,380,439,536,536,315,214,321,236,0
1,1773254545120,-5336,253,16731,4156327,48869,1097113,0,0,0,429,446,212,473,396,550,255,149,471,203,121,564,0
2,1773254545120,-512,-1775,23431,3885102,179594,-304210,0,0,0,302,464,262,402,385,463,560,560,337,240,330,299,0
1,1773254545136,-6551,339,19550,5007873,265115,1483180,0,0,0,409,437,225,465,374,535,260,142,440,192,110,531,0
2,1773254545136,3450,373,16941,2238210,-185703,-207694,0,0,0,337,482,293,413,392,478,576,577,343,269,348,362,0
1,1773254545152,-8949,406,23187,5942497,475253,1938886,0,0,0,389,422,222,431,361,484,245,151,397,159,94,434,0
2,1773254545152,3254,674,10093,1102000,-427605,218689,0,0,0,374,496,317,428,404,494,584,584,353,272,335,384,0
1,1773254545168,-10533,536,25977,6740287,658512,2452013,0,0,0,338,406,212,389,328,445,241,173,365,152,100,336,0
2,1773254545168,1588,-215,9806,502131,-296880,172263,0,0,0,392,502,329,435,406,496,594,594,354,275,332,398,0
1,1773254545184,-9456,1368,27508,7327939,824668,2890614,0,0,0,298,375,218,349,276,398,259,194,342,149,133,267,0
2,1773254545184,1483,153,10729,152716,-263893,26878,0,0,0,405,505,337,440,408,503,587,587,354,297,367,405,0
1,1773254545200,-8351,3393,28695,7797083,1318247,3120299,0,0,0,267,317,220,295,222,314,322,259,288,178,203,151,0
2,1773254545200,1761,1067,10500,24434,-276111,-3665,0,0,0,411,510,341,439,409,507,596,596,359,291,350,414,0
1,1773254545216,-10361,6149,24694,8019438,2103819,3154508,0,0,0,286,294,226,301,193,300,354,248,283,207,212,128,0
2,1773254545216,1722,1368,10122,9773,-216246,24434,0,0,0,417,516,340,446,412,507,599,600,358,294,348,422,0
1,1773254545232,-14108,11270,14429,7440338,2256536,3269350,0,0,0,296,296,233,303,185,304,354,247,285,213,214,129,0
2,1773254545232,1670,1320,10198,54977,-127059,20769,0,0,0,425,515,343,446,403,501,600,603,353,288,335,426,0
1,1773254545248,-13898,17071,9260,5078733,1125213,3149621,0,0,0,301,306,238,307,187,304,357,253,281,216,219,131,0
2,1773254545248,1622,1277,10227,127059,-65973,-12217,0,0,0,432,516,343,453,406,507,596,597,354,285,327,421,0
1,1773254545264,-6738,19617,10782,660956,322536,1491732,0,0,0,301,308,238,312,188,304,362,252,276,221,221,135,0
2,1773254545264,1608,1311,10112,183259,-20769,-30543,0,0,0,435,517,341,450,408,509,593,594,355,279,334,415,0
1,1773254545280,-3598,16405,9925,-2700024,879645,-637743,0,0,0,301,309,237,314,188,305,362,253,276,221,219,132,0
2,1773254545280,1651,1373,10031,249233,15882,-36651,0,0,0,433,518,338,451,409,511,596,598,359,263,286,422,0
1,1773254545296,-7489,9609,5575,-3676187,1071457,-1681101,0,0,0,301,311,241,314,188,308,362,255,280,218,217,129,0
2,1773254545296,1641,1306,9897,333532,50090,-42760,0,0,0,430,518,335,451,412,508,592,585,360,254,253,437,0
1,1773254545312,-9552,5455,2957,-3558900,-189368,-1329242,0,0,0,299,313,243,310,188,308,362,256,282,215,219,131,0
2,1773254545312,1622,1201,9777,357967,61086,-43982,0,0,0,430,519,333,451,415,512,590,572,367,250,239,440,0
1,1773254545328,-5948,5465,4469,-3611435,-1319468,-643851,0,0,0,303,315,241,308,188,304,363,258,281,212,220,128,0
2,1773254545328,1679,1110,9772,324980,41538,-40317,0,0,0,434,524,335,452,415,511,588,559,371,251,225,451,0
1,1773254545344,-2708,6058,6882,-4191757,-1131322,-602313,0,0,0,307,313,246,308,188,309,363,260,282,213,219,132,0
2,1773254545344,1785,1115,9815,321315,15882,-40317,0,0,0,440,530,341,457,417,514,583,541,371,250,213,459,0
1,1773254545360,-3627,5374,8260,-4913799,-692721,-954171,0,0,0,297,312,245,310,196,311,364,264,286,220,228,138,0
2,1773254545360,1928,1206,9892,355523,-30543,-46425,0,0,0,445,532,345,467,426,528,579,523,377,247,209,448,0
1,1773254545376,-4685,4297,9337,-5351179,-983493,-1132544,0,0,0,294,310,237,314,196,311,363,268,283,214,227,128,0
2,1773254545376,1909,1105,9858,384845,-83077,-54977,0,0,0,450,532,339,473,431,534,576,504,382,248,200,455,0
1,1773254545392,-3943,3804,10854,-5591860,-1451415,-1194852,0,0,0,297,312,240,304,232,300,363,268,280,217,227,126,0
2,1773254545392,1765,938,9729,395840,-122173,-61086,0,0,0,459,534,346,478,447,544,575,486,376,254,192,468,0
1,1773254545408,-3441,3460,12663,-5903401,-1677435,-1302364,0,0,0,298,313,241,314,199,309,364,272,282,217,232,127,0
2,1773254545408,1660,890,9743,400727,-135612,-58643,0,0,0,464,542,345,488,496,521,576,477,385,253,186,483,0
1,1773254545424,-3857,2842,14280,-6189286,-1783726,-1328021,0,0,0,298,313,242,315,194,311,364,274,282,218,231,128,0
2,1773254545424,1636,823,9863,406836,-125838,-53756,0,0,0,473,550,343,484,447,548,576,461,409,277,213,494,0
1,1773254545440,-4312,1761,16324,-6389650,-1979203,-1183856,0,0,0,296,313,242,314,197,311,365,276,284,218,230,129,0
2,1773254545440,1646,708,9920,415388,-98960,-57421,0,0,0,483,551,358,487,447,555,573,443,395,254,179,517,0
1,1773254545456,-4383,655,18468,-6460510,-2142915,-998153,0,0,0,297,314,247,314,196,315,350,264,286,214,226,130,0
2,1773254545456,1679,660,9935,427605,-67195,-69638,0,0,0,489,561,365,490,455,564,568,415,402,283,204,522,0
1,1773254545472,-4201,-349,20942,-6399424,-2202780,-972497,0,0,0,296,314,248,315,195,316,357,269,286,212,224,129,0
2,1773254545472,1761,650,9992,447153,-53756,-81855,0,0,0,497,565,356,501,464,568,562,392,404,271,186,541,0
1,1773254545488,-4402,-1115,23263,-6225938,-2200336,-1280373,0,0,0,298,313,245,318,194,312,369,274,283,218,224,128,0
2,1773254545488,1828,583,10050,476474,-54977,-101403,0,0,0,508,571,369,505,469,566,556,364,420,273,180,550,0
1,1773254545504,-4895,-2225,25618,-5933944,-2328618,-1931555,0,0,0,298,313,247,322,193,309,370,270,281,219,218,128,0
2,1773254545504,1914,497,10122,515570,-43982,-131946,0,0,0,518,576,383,509,478,560,548,330,422,269,167,562,0
1,1773254545520,-5020,-4924,28714,-5583308,-2657263,-2822197,0,0,0,295,314,249,323,193,310,374,270,283,216,208,127,0
2,1773254545520,2053,440,10337,582765,-24434,-186924,0,0,0,519,578,365,518,489,563,535,295,432,269,161,578,0
1,1773254545536,-4809,-10078,30930,-5428148,-2797762,-3400075,0,0,0,295,316,248,324,192,312,382,271,287,216,203,127,0
2,1773254545536,2139,421,10744,723264,-43982,-262672,0,0,0,521,580,343,526,501,576,519,267,438,273,166,591,0
1,1773254545552,-6245,-19262,28911,-5470909,-2301740,-3143512,0,0,0,291,315,248,318,195,311,376,265,285,215,205,131,0
2,1773254545552,2053,421,11222,917519,-102625,-315206,0,0,0,530,585,336,528,510,582,501,248,441,275,169,601,0
1,1773254545568,-6920,-29767,23369,-5238780,-2155132,-2023185,0,0,0,285,319,249,318,209,316,377,271,290,223,215,135,0
2,1773254545568,2062,354,11715,1192408,-190589,-340862,0,0,0,544,592,329,528,520,577,475,233,462,278,172,607,0
1,1773254545584,-536,-39387,17276,-4230852,-2742784,-141720,0,0,0,285,319,249,323,208,321,382,272,293,224,217,135,0
2,1773254545584,1938,282,12333,1530828,-271224,-362853,0,0,0,556,603,312,535,535,583,439,219,468,275,175,613,0
1,1773254545600,13505,-43632,15343,-2309070,-2250427,1123992,0,0,0,285,320,251,321,208,322,381,272,292,224,217,136,0
2,1773254545600,1483,258,13156,1931555,-298102,-353080,0,0,0,558,614,299,532,539,592,403,214,457,275,181,619,0
1,1773254545616,16003,-41890,15415,-160046,124616,1192408,0,0,0,267,308,237,306,203,319,369,315,290,222,292,137,0
2,1773254545616,1617,143,13821,2408030,-317649,-316428,0,0,0,555,611,271,539,545,598,369,213,441,281,185,628,0
1,1773254545632,7341,-29576,17123,1810604,2441017,951728,0,0,0,259,277,196,278,210,274,428,391,271,263,379,115,0
2,1773254545632,2579,71,14395,2990796,-389732,-370184,0,0,0,545,596,247,547,559,595,323,200,450,297,217,638,0
1,1773254545648,-4953,-593,16716,3535688,4309043,596204,0,0,0,259,267,167,283,185,260,459,447,264,299,409,94,0
2,1773254545648,3216,33,15132,3594331,-469144,-524122,0,0,0,568,595,250,528,543,586,296,187,442,293,221,633,0
1,1773254545664,-6049,11543,12237,4554611,4879591,-17104,0,0,0,266,274,161,291,170,269,473,474,271,333,420,89,0
2,1773254545664,3603,9,16286,4282165,-559552,-726929,0,0,0,570,585,249,521,558,578,290,171,437,274,192,618,0
1,1773254545680,-363,5159,13606,5511226,3826459,-491135,0,0,0,270,272,161,300,165,285,490,491,287,379,435,90,0
2,1773254545680,4211,0,18200,5089729,-687834,-972497,0,0,0,563,580,265,507,558,564,283,150,442,259,173,573,0
1,1773254545696,5752,-4158,22268,5726250,1415985,-316428,0,0,0,274,275,173,319,170,303,507,507,296,409,448,92,0
2,1773254545696,4737,90,21813,6021909,-797790,-1241278,0,0,0,531,565,257,497,537,553,282,145,418,239,156,512,0
1,1773254545712,1742,-2100,23785,4249178,340862,533896,0,0,0,284,295,202,338,194,324,522,522,298,409,459,112,0
2,1773254545712,5360,86,25891,6891781,-806342,-1440420,0,0,0,462,544,226,485,513,533,296,155,389,221,141,443,0
1,1773254545728,-3407,-349,18626,2559525,91629,634078,0,0,0,291,311,234,356,215,359,537,537,317,413,469,162,0
2,1773254545728,6685,454,28882,7717671,-565661,-1616349,0,0,0,392,514,193,453,478,483,311,187,347,200,131,385,0
1,1773254545744,-3632,-320,12084,1255938,91629,34208,0,0,0,303,329,261,365,229,387,546,546,333,432,480,211,0
2,1773254545744,6972,2948,29887,8451931,74525,-1957212,0,0,0,327,473,189,404,432,429,331,241,305,157,115,303,0
1,1773254545760,-1962,-559,9327,521678,64751,-234572,0,0,0,325,343,282,376,232,398,552,552,340,456,493,241,0
2,1773254545760,6829,4919,28312,8897863,723264,-2332283,0,0,0,292,449,214,376,399,407,352,287,291,121,103,229,0
1,1773254545776,-1545,-134,9868,166155,85521,-94073,0,0,0,325,346,276,385,233,398,559,560,337,476,508,263,0
2,1773254545776,8360,7566,20540,8852659,1110553,-2841745,0,0,0,294,455,229,374,391,408,357,303,293,139,141,214,0
1,1773254545792,-2110,521,10270,29321,144164,-4886,0,0,0,332,348,271,385,241,406,566,567,343,466,508,279,0
2,1773254545792,7465,12170,13711,7357260,555887,-3439171,0,0,0,280,464,224,370,395,411,350,296,284,186,225,206,0
1,1773254545808,-2182,861,10117,8552,153938,-12217,0,0,0,340,354,303,381,234,413,569,569,347,463,512,296,0
2,1773254545808,3441,18411,11055,3805690,-570548,-3115412,0,0,0,273,463,222,369,394,405,349,295,278,186,226,203,0
1,1773254545824,-1976,875,10040,85521,98960,-10995,0,0,0,345,355,284,390,244,409,573,570,347,483,513,305,0
2,1773254545824,1689,19291,10710,-2357939,-1993864,-1005484,0,0,0,279,468,225,369,391,404,348,293,272,190,230,207,0
1,1773254545840,-1880,861,10165,169820,40317,15882,0,0,0,351,356,282,395,246,412,567,559,348,469,494,316,0
2,1773254545840,4489,12366,8963,-5478239,-2416582,477696,0,0,0,280,466,223,370,391,405,351,293,276,190,229,209,0
1,1773254545856,-1852,861,10299,249233,-37873,43982,0,0,0,356,356,295,401,247,413,565,544,345,463,468,324,0
2,1773254545856,7288,5608,5680,-5726250,-1830152,636521,0,0,0,275,466,225,367,389,402,351,294,274,190,227,204,0
1,1773254545872,-1861,918,10179,327423,-139277,56199,0,0,0,354,362,288,399,251,420,560,530,353,448,457,338,0
2,1773254545872,7020,4000,4010,-5029864,-686612,1221,0,0,0,273,466,225,371,391,404,354,300,278,190,226,204,0
1,1773254545888,-1923,871,9691,355523,-194255,59864,0,0,0,349,363,277,399,249,422,558,518,356,430,438,355,0
2,1773254545888,5628,4584,4943,-4982216,15882,-356745,0,0,0,277,465,229,372,392,405,357,304,280,193,223,203,0
1,1773254545904,-1986,684,9485,294437,-156381,58643,0,0,0,347,363,275,401,261,424,537,474,364,417,417,368,0
2,1773254545904,4536,4991,6920,-5442809,248011,-340862,0,0,0,276,466,227,376,397,409,359,306,280,193,221,200,0
1,1773254545920,-2010,559,9552,294437,-146607,53756,0,0,0,348,366,276,400,268,424,530,442,372,409,404,371,0
2,1773254545920,4383,4240,8255,-5860641,398284,-36651,0,0,0,278,467,230,374,395,408,359,309,280,190,219,201,0
1,1773254545936,-2043,502,9557,307876,-138055,53756,0,0,0,347,366,277,395,272,416,555,458,369,401,392,373,0
2,1773254545936,4594,3421,8930,-5982814,780685,331088,0,0,0,277,467,230,374,395,407,355,312,277,188,222,201,0
1,1773254545952,-2062,478,9495,280998,-100181,59864,0,0,0,344,366,271,390,306,415,549,448,375,396,391,386,0
2,1773254545952,4383,3134,10007,-5958379,1334129,707381,0,0,0,275,465,228,374,396,409,357,312,277,189,225,201,0
1,1773254545968,-2024,502,9523,251676,-61086,69638,0,0,0,343,368,271,410,265,427,556,435,369,395,378,394,0
2,1773254545968,3847,3129,11720,-6002361,1739744,1055575,0,0,0,275,465,229,374,397,409,360,310,278,190,225,201,0
1,1773254545984,-1962,531,9657,259006,-58643,76969,0,0,0,343,361,272,429,268,443,560,419,378,390,358,403,0
2,1773254545984,3393,3158,14036,-6181956,1924225,1365894,0,0,0,278,468,230,375,397,408,360,308,277,191,223,199,0
1,1773254546000,-1928,516,9758,277332,-74525,75747,0,0,0,343,365,279,416,268,444,556,410,374,384,350,414,0
2,1773254546000,3642,2660,16348,-6428745,1964542,1507615,0,0,0,280,469,230,376,395,408,363,311,277,190,219,198,0
1,1773254546016,-1938,454,9772,288328,-92851,69638,0,0,0,350,370,280,426,276,456,557,395,385,363,340,432,0
2,1773254546016,4039,1780,18798,-6587570,2048842,1481959,0,0,0,282,470,233,377,395,411,366,313,281,190,218,198,0
1,1773254546032,-1947,373,9796,295658,-105068,68416,0,0,0,355,372,275,432,288,456,563,388,385,365,329,443,0
2,1773254546032,4111,1100,21895,-6571688,2151467,1359786,0,0,0,282,470,235,377,397,410,365,310,279,188,214,195,0
1,1773254546048,-2000,320,9844,320093,-127059,76969,0,0,0,357,372,281,433,294,468,571,360,394,359,308,452,0
2,1773254546048,4178,818,25336,-6503271,2218662,1373225,0,0,0,281,466,234,377,396,410,367,308,279,188,213,192,0
1,1773254546064,-2129,315,9863,362853,-146607,98960,0,0,0,367,374,286,445,305,481,571,336,401,346,287,481,0
2,1773254546064,4455,28,30040,-6465397,2266310,1689653,0,0,0,279,466,230,377,395,410,368,305,280,189,212,192,0
1,1773254546080,-2239,277,9906,439822,-158824,146607,0,0,0,372,386,281,438,338,485,571,310,410,330,265,506,0
2,1773254546080,4886,-4240,32567,-6531371,2414139,2335948,0,0,0,284,466,229,379,395,410,370,302,282,193,209,192,0
1,1773254546096,-2249,253,10069,522900,-178372,191811,0,0,0,377,405,282,437,342,509,564,284,418,311,244,522,0
2,1773254546096,5029,-12921,33151,-6416528,2759889,2796541,0,0,0,290,466,228,381,395,410,373,300,284,197,207,193,0
1,1773254546112,-2402,191,10279,621860,-223576,238237,0,0,0,382,424,284,462,347,528,547,261,430,294,224,539,0
2,1773254546112,4570,-25297,30318,-5761680,2623055,2555860,0,0,0,291,468,228,388,399,416,375,301,287,198,207,194,0
1,1773254546128,-2627,86,10495,719599,-277332,294437,0,0,0,393,430,274,485,383,540,526,245,443,276,211,554,0
2,1773254546128,3067,-38276,21555,-4266282,2032959,1252273,0,0,0,294,469,229,390,400,417,377,302,289,199,209,197,0
1,1773254546144,-2708,9,11083,884532,-304210,375071,0,0,0,412,435,259,492,405,568,506,235,454,258,203,564,0
2,1773254546144,-2158,-45627,14759,-2542421,2006081,-476474,0,0,0,291,470,227,386,399,415,379,304,289,198,209,193,0
1,1773254546160,-2388,14,11950,1155757,-262672,433714,0,0,0,416,454,249,502,396,574,486,216,476,252,181,580,0
2,1773254546160,-10370,-44800,14721,-745255,1434311,-1931555,0,0,0,280,463,219,380,396,411,379,321,290,195,220,192,0
1,1773254546176,-1785,-47,12562,1533271,-249233,433714,0,0,0,422,466,235,503,401,576,451,194,486,240,161,586,0
2,1773254546176,-11811,-37343,17209,998153,-348193,-2412917,0,0,0,272,450,201,379,396,403,413,417,280,169,214,187,0
1,1773254546192,-1804,-248,12830,1995085,-345749,364075,0,0,0,420,444,219,495,415,577,409,186,486,229,142,593,0
2,1773254546192,-4857,-13787,20880,2516764,-2502104,-1710422,0,0,0,263,413,183,365,382,394,458,476,278,162,241,179,0
1,1773254546208,-2828,-349,13285,2443460,-481361,387288,0,0,0,410,474,218,500,426,589,370,178,480,228,143,593,0
2,1773254546208,3125,11399,17951,3475823,-4445877,-416610,0,0,0,262,389,178,356,368,396,489,489,287,173,280,174,0
1,1773254546224,-3981,-373,14099,3022561,-527787,605978,0,0,0,411,490,188,503,430,555,338,163,496,231,138,592,0
2,1773254546224,4666,13807,10595,4145331,-4889365,888198,0,0,0,273,396,185,368,362,410,515,516,299,193,309,179,0
1,1773254546240,-4685,-177,15376,3694512,-405614,897971,0,0,0,417,461,209,484,412,558,288,141,496,201,127,580,0
2,1773254546240,-2723,861,15271,4959004,-2933374,1065348,0,0,0,281,411,207,387,363,424,540,541,311,227,341,200,0
1,1773254546256,-5920,0,17420,4491081,-173485,1235169,0,0,0,427,443,218,481,380,560,279,141,476,178,89,555,0
2,1773254546256,-6077,-3139,24316,4703662,-1164309,411723,0,0,0,294,441,248,400,380,438,553,553,320,240,346,227,0
1,1773254546272,-7690,86,20368,5347514,-37873,1629788,0,0,0,427,423,224,477,361,557,281,136,462,169,84,519,0
2,1773254546272,-1210,-253,24417,2902831,-565661,-238237,0,0,0,323,475,289,423,406,458,572,572,331,267,358,263,0
1,1773254546288,-9284,258,24106,6272364,-28099,2114815,0,0,0,383,416,206,437,348,511,256,136,412,168,98,446,0
2,1773254546288,1622,799,15171,1229060,-387288,26878,0,0,0,353,489,306,437,416,473,593,593,329,384,471,297,0
1,1773254546304,-9600,966,27140,7105584,47647,2575407,0,0,0,328,396,210,384,319,450,245,156,371,151,106,357,0
2,1773254546304,971,559,9255,411723,-107512,232128,0,0,0,377,503,320,446,429,480,601,601,332,390,471,306,0
1,1773254546320,-9016,2636,29246,7837401,318871,2998126,0,0,0,284,362,213,338,277,384,271,197,331,144,140,253,0
2,1773254546320,660,588,9418,221133,0,116064,0,0,0,395,513,332,453,429,483,604,604,329,421,499,321,0
1,1773254546336,-8758,3910,29356,8299215,808785,3263242,0,0,0,276,319,213,306,221,322,318,235,294,159,196,160,0
2,1773254546336,1028,1129,10375,100181,-97738,14660,0,0,0,397,513,343,455,436,492,614,613,343,467,538,324,0
1,1773254546352,-11902,6427,21832,8593652,1253495,3400075,0,0,0,290,288,227,294,181,297,343,250,288,172,225,125,0
2,1773254546352,1048,1703,10480,59864,-162490,1221,0,0,0,418,521,345,464,441,493,615,615,341,474,538,338,0
1,1773254546368,-14003,11619,12696,7971791,868650,3618765,0,0,0,286,294,227,297,187,307,343,260,291,176,229,131,0
2,1773254546368,995,1713,10179,163711,-96516,9773,0,0,0,436,527,343,463,443,491,612,606,339,465,525,350,0
1,1773254546384,-9451,18229,10385,4624249,260228,3092199,0,0,0,281,308,227,297,194,307,343,266,287,178,230,132,0
2,1773254546384,985,1555,10107,260228,-89186,2443,0,0,0,440,530,339,463,448,490,603,600,350,327,355,389,0
1,1773254546400,-3680,20985,11127,-100181,646295,1264491,0,0,0,281,314,226,298,199,306,349,263,282,178,226,132,0
2,1773254546400,866,1555,10241,306654,-100181,-10995,0,0,0,444,534,338,471,455,495,597,594,351,263,270,408,0
1,1773254546416,-2512,15850,10418,-4035375,1968207,-1088561,0,0,0,288,315,225,303,209,307,360,268,284,180,227,128,0
2,1773254546416,751,1665,10308,359188,-23212,-19547,0,0,0,449,537,339,473,453,499,594,582,351,254,252,413,0
1,1773254546432,-7169,7709,5958,-4627915,2254092,-1726305,0,0,0,285,311,241,302,197,313,350,268,284,176,226,129,0
2,1773254546432,784,1627,10184,426383,78190,-23212,0,0,0,452,538,338,474,452,503,592,568,357,249,238,420,0
1,1773254546448,-9322,4316,3364,-4156327,1218065,-1166752,0,0,0,282,315,238,302,205,317,347,268,289,175,231,130,0
2,1773254546448,990,1411,9916,461814,127059,-24434,0,0,0,453,540,336,476,453,507,586,551,360,247,223,427,0
1,1773254546464,-6944,4857,4402,-4076914,124616,-546113,0,0,0,285,317,254,297,202,327,353,273,301,177,228,139,0
2,1773254546464,1129,1263,9786,456927,119729,-25656,0,0,0,453,542,335,475,452,507,585,536,363,244,210,432,0
1,1773254546480,-4479,5781,6542,-4601036,-86742,-483805,0,0,0,290,318,240,300,201,317,357,268,291,188,232,137,0
2,1773254546480,1182,1186,9844,426383,67195,-31764,0,0,0,456,544,334,478,456,512,589,525,372,242,199,439,0
1,1773254546496,-4690,5628,8150,-5360953,177150,-840550,0,0,0,286,320,237,299,202,313,352,267,284,183,232,137,0
2,1773254546496,1249,1124,9853,393397,-12217,-45204,0,0,0,464,551,332,481,461,518,588,507,372,246,194,447,0
1,1773254546512,-6049,4431,9380,-5907066,-171042,-1130100,0,0,0,277,322,236,296,204,316,351,270,284,177,232,137,0
2,1773254546512,1249,1105,9834,375071,-97738,-61086,0,0,0,474,549,333,486,467,520,586,487,371,249,187,458,0
1,1773254546528,-5996,3393,11117,-6255260,-874759,-1287703,0,0,0,277,323,238,295,203,315,353,271,286,182,231,137,0
2,1773254546528,1119,1115,9873,377514,-162490,-70860,0,0,0,477,551,333,486,468,525,586,474,379,244,179,475,0
1,1773254546544,-5192,2742,13046,-6539923,-1257160,-1359786,0,0,0,278,324,239,294,201,314,352,270,287,184,231,138,0
2,1773254546544,985,1076,9949,388510,-168598,-64751,0,0,0,489,552,332,496,477,526,577,448,379,244,172,475,0
1,1773254546560,-4819,1694,15123,-6817256,-1479515,-1326799,0,0,0,276,325,238,293,202,314,349,270,286,177,233,137,0
2,1773254546560,928,981,10016,404392,-141720,-59864,0,0,0,495,557,331,499,478,531,574,427,380,249,170,489,0
1,1773254546576,-4742,464,16922,-6868568,-1639562,-1103222,0,0,0,279,328,240,295,206,315,348,272,286,177,233,136,0
2,1773254546576,1024,885,10098,436157,-94073,-72082,0,0,0,504,568,334,509,491,533,572,399,386,262,170,511,0
1,1773254546592,-4158,-449,18961,-6692639,-1815491,-764803,0,0,0,279,330,240,296,208,314,350,274,286,181,235,135,0
2,1773254546592,1215,818,10165,478918,-59864,-107512,0,0,0,507,574,331,518,498,539,564,368,389,263,168,524,0
1,1773254546608,-3450,-871,21119,-6475171,-1855808,-590095,0,0,0,276,327,243,297,210,318,347,273,286,185,238,137,0
2,1773254546608,1421,756,10184,525344,-54977,-174707,0,0,0,511,576,325,521,503,545,555,337,394,262,168,532,0
1,1773254546624,-3646,-1258,23483,-6189286,-1843591,-895528,0,0,0,274,329,243,296,207,315,346,272,284,174,230,134,0
2,1773254546624,1421,703,10251,580321,-83077,-249233,0,0,0,517,579,328,531,510,556,543,310,399,259,163,545,0
1,1773254546640,-4058,-2330,25939,-5865528,-2028072,-1518610,0,0,0,274,329,243,296,212,316,349,271,284,181,228,138,0
2,1773254546640,1191,670,10428,670730,-139277,-296880,0,0,0,529,584,331,534,520,563,530,278,421,259,162,563,0
1,1773254546656,-3646,-5675,29279,-5568647,-2348165,-2493551,0,0,0,275,332,245,297,207,317,348,271,285,177,222,134,0
2,1773254546656,1110,588,10681,828333,-162490,-313984,0,0,0,539,590,328,529,537,565,514,255,438,257,161,576,0
1,1773254546672,-3541,-12514,31528,-5588195,-2312735,-3279124,0,0,0,273,333,245,300,207,320,351,271,289,184,222,136,0
2,1773254546672,1134,464,11088,999375,-146607,-331088,0,0,0,546,600,322,530,548,566,492,246,433,254,159,583,0
1,1773254546688,-5833,-23464,29016,-5898514,-1803274,-3061656,0,0,0,268,342,246,295,231,317,348,277,291,178,224,133,0
2,1773254546688,1048,421,11825,1226617,-112399,-349414,0,0,0,554,612,313,537,544,572,463,234,434,265,173,600,0
1,1773254546704,-4565,-35266,22115,-5409822,-1924225,-1568701,0,0,0,265,341,262,293,232,327,349,276,299,180,228,140,0
2,1773254546704,717,473,12581,1595580,-36651,-350636,0,0,0,548,614,287,541,558,585,433,228,419,272,183,617,0
1,1773254546720,3618,-42062,17066,-3999945,-2144136,-116064,0,0,0,268,338,254,296,223,324,351,273,295,186,229,140,0
2,1773254546720,258,526,13108,2008524,67195,-310319,0,0,0,551,614,260,541,569,591,400,222,425,269,184,617,0
1,1773254546736,14295,-44211,14204,-1621236,-1302364,836885,0,0,0,262,336,238,296,220,315,353,286,287,201,256,131,0
2,1773254546736,344,430,13606,2445904,112399,-208915,0,0,0,557,609,244,535,568,587,359,220,418,277,187,625,0
1,1773254546752,12912,-41081,14223,164933,261450,796568,0,0,0,254,321,220,297,209,305,387,341,281,241,329,118,0
2,1773254546752,1186,244,14189,2912605,58643,-144164,0,0,0,554,611,236,541,567,586,324,219,424,291,191,626,0
1,1773254546768,4469,-26714,16716,1918116,1767844,708603,0,0,0,255,290,189,297,186,285,441,421,275,290,399,101,0
2,1773254546768,2455,76,15032,3479488,-98960,-204028,0,0,0,562,603,247,528,567,577,297,206,419,275,188,622,0
1,1773254546784,-4058,143,14773,3545461,3027448,722042,0,0,0,265,267,167,298,168,270,473,474,273,338,417,87,0
2,1773254546784,3316,28,16329,4180761,-299323,-425162,0,0,0,566,597,251,520,567,578,288,185,413,253,170,605,0
1,1773254546800,-5518,12088,12806,5137376,3479488,598647,0,0,0,273,269,176,308,171,283,495,495,279,395,435,87,0
2,1773254546800,4254,-43,17903,4966334,-492357,-725707,0,0,0,569,590,259,518,570,578,291,165,409,240,154,583,0
1,1773254546816,598,832,20397,5907066,1661553,405614,0,0,0,275,285,197,311,203,294,511,511,286,425,450,92,0
2,1773254546816,4972,-272,20401,5764124,-635299,-1056796,0,0,0,543,568,254,513,547,566,296,156,398,225,138,518,0
1,1773254546832,875,-4915,26183,4741535,215024,507018,0,0,0,281,305,229,332,208,316,520,520,298,415,457,103,0
2,1773254546832,6020,-478,24843,6704856,-577878,-1406211,0,0,0,483,551,228,494,521,541,297,158,379,215,138,450,0
1,1773254546848,-3378,-2459,21493,2287079,-47647,421497,0,0,0,297,321,257,350,215,348,524,524,323,429,461,138,0
2,1773254546848,6996,349,28164,7484320,-323758,-1703092,0,0,0,410,523,194,467,491,499,307,177,352,204,136,396,0
1,1773254546864,-3436,1048,11816,998153,40317,-30543,0,0,0,303,336,282,352,223,367,540,525,332,438,479,187,0
2,1773254546864,5857,2201,30236,8150164,-139277,-2032959,0,0,0,347,483,188,422,446,451,327,223,316,168,119,324,0
1,1773254546880,-2321,1311,7561,597426,3665,-216246,0,0,0,316,341,307,356,224,369,563,525,333,442,503,210,0
2,1773254546880,5211,3474,29892,8644964,-111177,-2296853,0,0,0,305,455,213,376,403,414,347,278,292,125,104,248,0
1,1773254546896,-1971,119,8834,368962,50090,-147829,0,0,0,323,348,320,362,227,395,564,534,349,454,500,222,0
2,1773254546896,8523,6149,23235,8770803,61086,-2599842,0,0,0,289,451,232,361,390,405,357,307,292,114,104,215,0
1,1773254546912,-2268,464,10619,81855,139277,-54977,0,0,0,339,351,316,372,229,404,565,541,356,465,502,253,0
2,1773254546912,9973,11797,14161,7530746,237015,-3251024,0,0,0,289,453,231,369,394,409,358,317,290,118,107,214,0
1,1773254546928,-2364,1263,10480,6108,140499,-21991,0,0,0,343,353,338,381,232,410,573,539,359,470,504,273,0
2,1773254546928,5120,18056,11088,4195422,-233350,-3185051,0,0,0,287,453,225,371,397,403,357,317,282,118,107,209,0
1,1773254546944,-2177,1464,9920,122173,76969,-4886,0,0,0,339,357,353,378,235,418,578,530,357,466,498,277,0
2,1773254546944,1000,19535,11921,-1233947,-1610240,-1364672,0,0,0,291,453,226,372,398,405,360,320,279,118,110,209,0
1,1773254546960,-2081,1316,10050,230907,2443,18325,0,0,0,340,362,349,377,241,422,576,516,357,452,488,286,0
2,1773254546960,2909,13720,10658,-4978551,-2736676,546113,0,0,0,290,453,226,373,397,405,364,320,280,122,109,210,0
1,1773254546976,-2120,1268,10289,307876,-73303,50090,0,0,0,342,368,346,385,246,422,570,503,366,434,472,305,0
2,1773254546976,8135,5757,5848,-5440365,-2411695,1111774,0,0,0,288,456,231,374,400,406,365,323,280,120,107,208,0
1,1773254546992,-2091,1306,10179,383623,-150272,73303,0,0,0,339,374,324,384,247,422,568,490,371,419,445,320,0
2,1773254546992,8470,3809,3412,-4603480,-834441,441044,0,0,0,281,456,230,375,401,407,369,325,280,122,112,210,0
1,1773254547008,-2057,1253,9853,434936,-219911,76969,0,0,0,345,374,303,386,249,420,566,470,374,409,425,338,0
2,1773254547008,5876,4651,4517,-4465424,219911,-3665,0,0,0,284,455,230,376,401,408,369,325,280,119,113,205,0
1,1773254547024,-2182,1048,9930,399505,-234572,69638,0,0,0,350,378,309,387,250,427,565,461,373,409,408,333,0
2,1773254547024,4465,5355,6700,-5049412,226020,155159,0,0,0,281,455,232,376,402,408,369,327,281,117,109,204,0
1,1773254547040,-2311,894,10811,270002,-168598,74525,0,0,0,347,380,292,394,263,424,561,450,369,397,394,333,0
2,1773254547040,5068,4781,7796,-5569869,270002,464257,0,0,0,281,457,234,375,402,406,369,329,281,119,111,205,0
1,1773254547056,-2364,875,10662,201585,-101403,78190,0,0,0,345,378,297,393,249,425,567,429,369,390,384,341,0
2,1773254547056,5819,3795,8408,-5795889,789237,701273,0,0,0,282,458,236,375,403,407,370,331,282,120,113,204,0
1,1773254547072,-2325,918,9456,262672,-75747,75747,0,0,0,344,377,309,393,255,434,530,391,383,380,373,358,0
2,1773254547072,5120,3378,9676,-5903401,1431868,905302,0,0,0,280,458,235,376,405,409,372,331,282,120,113,204,0
1,1773254547088,-2263,933,9155,280998,-39095,78190,0,0,0,339,373,314,398,257,442,556,414,380,377,373,376,0
2,1773254547088,4034,3225,11557,-6067113,1751961,1188743,0,0,0,281,458,234,376,405,408,373,332,282,119,113,203,0
1,1773254547104,-2201,942,9495,254119,0,80634,0,0,0,339,376,316,394,254,446,560,418,388,371,367,385,0
2,1773254547104,3685,3077,13505,-6279694,1901012,1419650,0,0,0,284,458,236,375,404,407,372,332,283,118,113,202,0
1,1773254547120,-2124,904,9700,239459,10995,75747,0,0,0,335,377,308,399,264,437,565,397,386,366,363,395,0
2,1773254547120,3503,2837,15764,-6538701,2065946,1475850,0,0,0,285,457,237,378,406,409,372,330,283,118,112,204,0
1,1773254547136,-2053,837,9686,245567,-6108,68416,0,0,0,333,379,309,397,276,445,567,386,383,357,353,400,0
2,1773254547136,3096,2282,18300,-6751282,2191784,1407433,0,0,0,287,459,240,380,405,412,376,334,285,117,111,204,0
1,1773254547152,-2072,770,9696,265115,-52534,68416,0,0,0,338,386,314,403,281,450,567,382,385,353,337,411,0
2,1773254547152,2881,1627,20890,-6790377,2184454,1248608,0,0,0,286,461,240,379,403,411,375,333,285,117,111,203,0
1,1773254547168,-2191,760,9777,300545,-84299,84299,0,0,0,347,393,319,412,301,458,567,371,391,351,318,431,0
2,1773254547168,2904,1220,23962,-6739065,2163684,1137431,0,0,0,284,459,238,378,403,411,375,331,285,116,109,202,0
