sole_id,timestamp,accel_x,accel_y,accel_z,gyro_x,gyro_y,gyro_z,magn_x,magn_y,magn_z,pressure_01,pressure_02,pressure_03,pressure_04,pressure_05,pressure_06,pressure_07,pressure_08,pressure_09,pressure_10,pressure_11,pressure_12,corrupt,transition,grass
1,1777929075952,-2234,-2412,9901,-590095,-9773,-119729,0,0,0,346,354,223,395,282,464,330,210,336,237,200,461,0,,
2,1777929075952,1249,-1593,9964,-643851,-76969,86742,0,0,0,454,458,253,433,390,475,406,268,361,231,152,444,0,,
1,1777929075968,-2211,-2345,9772,-535117,-12217,-107512,0,0,0,347,349,225,397,284,461,348,196,317,244,197,445,0,,
2,1777929075968,1258,-1445,10031,-624304,-90408,75747,0,0,0,445,449,257,426,376,466,414,267,359,227,148,443,0,,
1,1777929075984,-2163,-2297,9332,-515570,-13439,-102625,0,0,0,348,342,231,400,261,463,366,195,320,254,201,459,0,,
2,1777929075984,1263,-1354,9940,-604756,-105068,64751,0,0,0,440,450,257,418,370,460,418,264,350,224,148,439,0,,
1,1777929076000,-2187,-2282,9073,-538783,-15882,-97738,0,0,0,351,346,232,393,264,453,356,193,337,308,207,460,0,,
2,1777929076000,1215,-1316,9696,-610865,-118507,48869,0,0,0,448,458,266,418,371,460,412,263,342,228,150,440,0,,
1,1777929076016,-2148,-2239,9198,-583987,-30543,-91629,0,0,0,357,344,237,387,264,456,357,200,335,282,205,464,0,,
2,1777929076016,1167,-1220,9672,-636521,-134390,37873,0,0,0,450,455,280,416,373,459,401,264,344,224,146,437,0,,
1,1777929076032,-2038,-2091,9514,-603534,-59864,-95294,0,0,0,353,347,229,395,262,439,363,201,345,264,204,447,0,,
2,1777929076032,1143,-1067,9911,-647517,-149051,34208,0,0,0,448,456,281,419,370,454,384,264,342,219,144,433,0,,
1,1777929076048,-2072,-1919,9734,-593761,-90408,-109955,0,0,0,345,343,230,395,265,430,358,194,359,269,204,440,0,,
2,1777929076048,1143,-947,10064,-638965,-160046,31764,0,0,0,450,461,293,415,370,457,404,260,341,220,147,429,0,,
1,1777929076064,-2249,-1837,9643,-568104,-90408,-109955,0,0,0,346,332,238,382,263,445,350,190,352,268,204,452,0,,
2,1777929076064,1148,-866,10083,-618195,-156381,20769,0,0,0,449,460,279,422,375,453,411,261,353,228,154,440,0,,
1,1777929076080,-2306,-1780,9557,-553443,-85521,-95294,0,0,0,349,332,239,374,254,451,358,191,341,272,206,449,0,,
2,1777929076080,1028,-737,10093,-591317,-142942,13439,0,0,0,449,457,290,408,371,451,417,264,351,215,142,422,0,,
1,1777929076096,-2191,-1718,9495,-551000,-90408,-81855,0,0,0,347,337,262,377,253,451,376,195,343,270,206,441,0,,
2,1777929076096,832,-622,10069,-563217,-123394,26878,0,0,0,453,458,291,415,372,451,418,262,375,212,144,413,0,,
1,1777929076112,-2043,-1641,9408,-568104,-116064,-90408,0,0,0,347,354,238,377,270,428,364,193,330,267,220,421,0,x,
2,1777929076112,760,-574,9954,-548556,-87964,58643,0,0,0,444,454,281,416,377,446,414,266,365,222,149,414,0,x,
1,1777929076128,-2029,-1555,9361,-599869,-149051,-111177,0,0,0,346,345,247,373,256,430,371,197,348,275,221,408,0,,
2,1777929076128,971,-545,9849,-559552,-48869,78190,0,0,0,441,451,287,420,374,456,429,269,362,226,155,416,0,,
1,1777929076144,-2177,-1469,9423,-631634,-166155,-129503,0,0,0,339,325,260,358,265,414,368,197,360,268,220,410,0,,
2,1777929076144,1210,-464,9959,-577878,-31764,70860,0,0,0,441,451,285,419,374,452,430,272,364,227,160,410,0,,
1,1777929076160,-2340,-1344,9547,-657290,-164933,-131946,0,0,0,339,319,241,389,231,424,383,193,339,295,222,390,0,,
2,1777929076160,1191,-277,10189,-563217,-50090,50090,0,0,0,440,450,283,415,381,445,426,274,362,224,153,409,0,,
1,1777929076176,-2340,-1206,9672,-667064,-162490,-125838,0,0,0,340,315,242,377,227,428,389,184,329,307,212,419,0,,
2,1777929076176,1028,-153,10212,-530231,-64751,42760,0,0,0,441,452,294,417,379,455,426,278,364,225,161,408,0,,
1,1777929076192,-2239,-1067,9696,-657290,-168598,-127059,0,0,0,348,313,251,368,231,436,383,194,341,288,219,407,0,,
2,1777929076192,894,-143,10007,-507018,-50090,50090,0,0,0,438,451,296,418,375,461,433,282,365,231,170,403,0,,
1,1777929076208,-2249,-985,9600,-658512,-174707,-139277,0,0,0,352,310,278,358,221,423,373,193,340,314,217,379,0,,
2,1777929076208,971,-110,9964,-513126,-10995,63529,0,0,0,431,449,288,411,370,448,442,282,385,235,170,393,0,,
1,1777929076224,-2301,-938,9437,-695164,-177150,-149051,0,0,0,351,304,283,361,214,414,394,199,330,312,225,369,0,,
2,1777929076224,1105,-4,10107,-511905,4886,65973,0,0,0,430,452,287,409,366,437,440,281,398,235,166,387,0,,
1,1777929076240,-2349,-871,9380,-752585,-178372,-157603,0,0,0,348,299,292,365,200,411,410,203,332,307,240,361,0,,
2,1777929076240,1115,81,10179,-487470,0,58643,0,0,0,432,454,297,420,369,438,438,283,367,233,159,392,0,,
1,1777929076256,-2450,-727,9533,-812450,-171042,-161268,0,0,0,352,293,293,365,195,401,408,211,332,315,252,343,0,,
2,1777929076256,1028,129,10074,-458148,8552,56199,0,0,0,433,456,305,426,367,441,442,285,376,225,149,386,0,,
1,1777929076272,-2593,-507,9825,-842994,-147829,-152716,0,0,0,356,285,268,362,201,387,408,224,331,308,258,329,0,,
2,1777929076272,1019,186,10031,-445931,29321,61086,0,0,0,437,460,303,420,367,441,449,301,358,225,155,385,0,,
1,1777929076288,-2684,-263,10107,-829554,-107512,-128281,0,0,0,350,283,260,362,191,378,420,215,335,316,256,323,0,,
2,1777929076288,1119,277,10107,-434936,35430,65973,0,0,0,428,460,302,417,368,445,447,311,352,227,165,387,0,,
1,1777929076304,-2584,-57,10241,-753807,-74525,-101403,0,0,0,359,289,270,378,190,383,446,215,324,338,272,315,0,,
2,1777929076304,1210,358,10150,-414166,25656,63529,0,0,0,427,467,301,416,360,433,454,313,341,226,162,374,0,,
1,1777929076320,-2464,95,10256,-640186,-61086,-84299,0,0,0,361,293,275,395,185,376,438,226,341,342,282,298,0,,
2,1777929076320,1239,440,10179,-379958,7330,53756,0,0,0,426,462,302,413,356,434,452,311,344,263,194,360,0,,
1,1777929076336,-2416,148,10064,-521678,-69638,-81855,0,0,0,355,285,279,368,180,393,441,239,322,343,298,298,0,,
2,1777929076336,1244,507,10189,-340862,-6108,41538,0,0,0,420,456,301,410,356,432,456,320,343,233,171,359,0,,
1,1777929076352,-2450,114,9719,-459370,-73303,-81855,0,0,0,343,280,277,347,180,398,440,271,337,333,318,302,0,,
2,1777929076352,1225,550,10117,-301767,-20769,31764,0,0,0,412,452,297,403,352,427,447,316,327,261,206,349,0,,
1,1777929076368,-2479,105,9499,-452040,-63529,-83077,0,0,0,341,272,337,357,169,409,443,273,341,349,322,289,0,,
2,1777929076368,1206,583,10031,-282219,-35430,25656,0,0,0,412,453,297,395,350,424,444,321,321,253,202,342,0,,
1,1777929076384,-2493,143,9471,-481361,-41538,-83077,0,0,0,357,274,293,366,173,385,450,277,324,365,333,270,0,,
2,1777929076384,1220,665,9987,-260228,-53756,19547,0,0,0,411,453,298,394,349,419,452,334,321,235,183,338,0,,
1,1777929076400,-2464,263,9576,-505796,-17104,-78190,0,0,0,352,278,299,364,175,372,459,294,322,385,329,260,0,,
2,1777929076400,1225,703,10007,-230907,-73303,13439,0,0,0,403,445,290,394,357,414,458,341,318,219,168,328,0,,
1,1777929076416,-2450,392,9758,-493579,-15882,-73303,0,0,0,353,284,280,362,181,370,463,291,312,385,335,246,0,,
2,1777929076416,1177,698,10069,-199142,-80634,2443,0,0,0,392,439,289,389,351,413,457,342,317,209,163,319,0,,
1,1777929076432,-2469,545,9853,-422718,-37873,-65973,0,0,0,362,292,263,368,183,372,465,294,303,386,346,244,0,,
2,1777929076432,1143,760,10150,-163711,-68416,-1221,0,0,0,390,440,290,389,357,402,457,343,316,209,167,315,0,,
1,1777929076448,-2522,746,9806,-317649,-64751,-51312,0,0,0,361,301,270,370,188,374,463,326,307,387,353,255,0,,
2,1777929076448,1186,866,10208,-94073,-47647,-6108,0,0,0,395,444,287,393,369,391,457,345,309,210,170,311,0,,
1,1777929076464,-2569,804,9734,-188146,-78190,-26878,0,0,0,353,314,281,369,196,384,463,339,314,378,356,260,0,,
2,1777929076464,1220,871,10150,-13439,-37873,-14660,0,0,0,390,444,288,386,340,402,454,345,302,207,170,305,0,,
1,1777929076480,-2574,775,9743,-76969,-81855,-3665,0,0,0,348,327,287,369,201,394,470,324,318,372,353,263,0,,
2,1777929076480,1196,794,10021,42760,-36651,-25656,0,0,0,386,441,283,385,340,399,447,347,304,202,168,296,0,,
1,1777929076496,-2498,607,9739,13439,-96516,13439,0,0,0,345,321,289,358,202,387,477,339,323,378,348,278,0,,
2,1777929076496,1182,765,9930,63529,-36651,-32986,0,0,0,385,441,283,384,343,397,436,340,301,204,170,289,0,,
1,1777929076512,-2383,459,9523,13439,-134390,9773,0,0,0,347,308,299,358,188,384,484,332,331,388,347,289,0,,
2,1777929076512,1220,780,9940,78190,-50090,-36651,0,0,0,381,437,282,380,337,399,425,334,293,199,169,282,0,,
1,1777929076528,-2388,449,9404,-26878,-178372,-4886,0,0,0,356,311,314,378,193,392,482,349,338,396,357,293,0,,
2,1777929076528,1287,818,10064,112399,-76969,-47647,0,0,0,381,435,281,369,327,392,412,310,298,263,233,274,0,,
1,1777929076544,-2522,483,9499,-65973,-204028,-17104,0,0,0,357,298,309,386,192,387,487,351,329,405,365,287,0,,
2,1777929076544,1363,880,10303,205250,-108734,-72082,0,0,0,378,434,278,369,333,394,374,300,306,235,204,276,0,,
1,1777929076560,-2660,497,9672,-86742,-216246,-23212,0,0,0,359,302,325,386,192,397,488,344,336,415,374,292,0,,
2,1777929076560,1507,914,10614,340862,-156381,-105068,0,0,0,373,434,273,369,334,391,384,297,294,224,193,275,0,,
1,1777929076576,-2747,574,9729,-80634,-215024,-17104,0,0,0,353,299,337,380,193,414,488,359,343,422,390,300,0,,
2,1777929076576,1651,861,10930,524122,-262672,-144164,0,0,0,364,430,275,359,329,383,365,281,288,232,209,265,0,,
1,1777929076592,-2742,708,9638,-34208,-207694,-1221,0,0,0,362,301,324,387,190,404,489,355,347,411,396,308,0,,
2,1777929076592,1579,737,11021,712268,-408057,-175929,0,0,0,358,430,266,360,335,383,362,289,290,198,177,258,0,,
1,1777929076608,-2723,741,9576,21991,-206472,12217,0,0,0,366,311,299,377,197,396,494,354,340,404,395,317,0,,
2,1777929076608,1392,603,11031,877202,-502131,-205250,0,0,0,351,427,255,355,337,379,356,296,287,181,166,247,0,,
1,1777929076624,-2718,588,9557,48869,-207694,14660,0,0,0,362,312,292,368,195,397,497,353,336,405,393,321,0,,
2,1777929076624,1244,421,11074,1004262,-494800,-230907,0,0,0,340,420,249,346,335,374,347,297,282,168,163,235,0,,
1,1777929076640,-2718,488,9528,39095,-218689,9773,0,0,0,356,309,293,369,195,399,499,357,335,401,393,330,0,,
2,1777929076640,1330,119,11040,1077566,-460592,-255341,0,0,0,322,414,245,337,333,374,345,302,283,150,155,226,0,,
1,1777929076656,-2804,512,9547,13439,-227241,1221,0,0,0,352,305,301,368,220,397,496,362,343,399,392,343,0,,
2,1777929076656,1919,-449,10844,1109331,-423940,-345749,0,0,0,303,409,242,330,330,371,342,306,282,150,166,219,0,,
1,1777929076672,-2904,588,9585,4886,-212581,0,0,0,0,349,303,309,364,226,400,494,361,351,402,390,349,0,,
2,1777929076672,2526,-914,10777,1106887,-419053,-516791,0,0,0,287,405,238,327,329,367,335,307,276,156,180,209,0,,
1,1777929076688,-2971,684,9571,25656,-172263,7330,0,0,0,349,304,302,366,196,405,504,359,343,403,390,345,0,,
2,1777929076688,2660,-1057,11117,1060462,-535117,-713490,0,0,0,267,406,234,323,330,364,333,310,274,148,174,197,0,,
1,1777929076704,-2962,670,9552,67195,-124616,19547,0,0,0,351,305,288,371,202,401,513,366,336,404,394,333,0,,
2,1777929076704,2124,-976,11691,915076,-916297,-775798,0,0,0,261,403,230,324,329,358,334,306,269,155,185,182,0,,
1,1777929076720,-2928,588,9504,91629,-87964,29321,0,0,0,349,306,298,370,212,408,504,376,338,404,396,337,0,,
2,1777929076720,1852,-856,11988,714712,-1385442,-701273,0,0,0,261,395,229,324,326,355,335,299,267,166,200,175,0,,
1,1777929076736,-2890,512,9413,78190,-58643,30543,0,0,0,348,309,306,369,204,412,505,366,343,407,396,339,0,,
2,1777929076736,2555,-564,11715,489913,-1712866,-527787,0,0,0,261,399,228,324,332,353,337,309,264,156,188,175,0,,
1,1777929076752,-2861,473,9370,43982,-39095,24434,0,0,0,340,302,299,366,206,418,510,368,353,421,400,348,0,,
2,1777929076752,4111,248,10921,331088,-1470963,-305432,0,0,0,256,395,224,320,330,352,332,307,259,159,199,178,0,,
1,1777929076768,-2857,459,9432,4886,-31764,17104,0,0,0,346,305,292,371,210,411,509,382,353,406,391,348,0,,
2,1777929076768,4986,1397,10279,277332,-1016479,23212,0,0,0,257,395,225,318,331,355,332,308,262,162,201,180,0,,
1,1777929076784,-2861,488,9552,-17104,-41538,13439,0,0,0,346,304,299,372,206,410,510,376,351,406,385,349,0,,
2,1777929076784,5393,2699,9595,338419,-660956,516791,0,0,0,258,398,223,320,334,354,332,312,260,160,199,177,0,,
1,1777929076800,-2866,569,9590,-7330,-61086,13439,0,0,0,344,299,305,372,204,411,515,366,355,411,388,349,0,,
2,1777929076800,5876,3756,8781,343306,-349414,897971,0,0,0,254,397,223,319,334,354,332,313,261,159,203,176,0,,
1,1777929076816,-2861,612,9576,14660,-80634,18325,0,0,0,346,298,314,373,204,423,516,364,356,407,388,354,0,,
2,1777929076816,5929,4589,8011,222354,43982,1059240,0,0,0,249,401,221,315,341,353,330,316,262,158,208,177,0,,
1,1777929076832,-2866,598,9523,37873,-94073,23212,0,0,0,348,296,314,375,200,430,516,365,359,401,389,350,0,,
2,1777929076832,5628,5154,7504,85521,360410,1037249,0,0,0,246,401,221,314,339,355,329,315,262,155,206,177,0,,
1,1777929076848,-2909,564,9475,50090,-97738,25656,0,0,0,349,289,310,373,193,433,514,364,363,401,391,357,0,,
2,1777929076848,5178,5685,7331,-54977,610865,867428,0,0,0,246,399,223,313,332,354,330,315,263,153,203,176,0,,
1,1777929076864,-2952,521,9437,48869,-81855,26878,0,0,0,349,285,314,372,191,437,510,362,365,404,391,365,0,,
2,1777929076864,4556,6456,7571,-302989,846659,646295,0,0,0,247,401,223,313,331,352,330,316,263,152,204,176,0,,
1,1777929076880,-2933,497,9442,40317,-64751,26878,0,0,0,353,285,323,375,193,440,508,359,365,408,389,363,0,,
2,1777929076880,3819,7092,7839,-629191,1026253,488692,0,0,0,248,402,223,314,334,354,329,315,262,153,201,177,0,,
1,1777929076896,-2895,497,9490,34208,-62308,24434,0,0,0,362,283,327,376,188,437,509,357,365,412,385,361,0,,
2,1777929076896,3283,7260,7930,-917519,1120326,412944,0,0,0,251,404,226,316,338,356,332,318,263,150,194,177,0,,
1,1777929076912,-2895,526,9495,34208,-75747,24434,0,0,0,367,281,321,376,187,432,509,357,362,419,379,357,0,,
2,1777929076912,2952,7097,8107,-1138652,1199739,338419,0,0,0,251,403,226,315,336,356,333,320,263,145,190,175,0,,
1,1777929076928,-2919,536,9475,40317,-85521,24434,0,0,0,363,282,314,379,194,433,508,355,361,416,375,356,0,,
2,1777929076928,2589,6819,8552,-1356120,1270599,240680,0,0,0,247,403,223,315,338,357,333,322,264,141,185,175,0,,
1,1777929076944,-2938,516,9466,46425,-85521,24434,0,0,0,352,288,304,375,195,419,513,345,365,408,371,362,0,,
2,1777929076944,2287,6360,9160,-1569923,1286482,134390,0,0,0,246,402,224,317,339,356,332,323,264,135,177,176,0,,
1,1777929076960,-2938,516,9490,53756,-85521,25656,0,0,0,354,291,301,376,198,406,515,344,362,410,374,354,0,,
2,1777929076960,2124,5838,9753,-1749518,1284038,36651,0,0,0,246,402,224,317,339,358,334,321,266,142,190,176,0,,
1,1777929076976,-2943,545,9523,68416,-89186,28099,0,0,0,355,285,299,379,190,414,514,349,358,407,373,346,0,,
2,1777929076976,2057,5436,10356,-1880243,1304808,-25656,0,0,0,248,401,226,315,334,355,333,319,263,145,192,177,0,,
1,1777929076992,-2952,555,9514,94073,-95294,29321,0,0,0,349,302,295,385,220,419,517,350,360,403,374,351,0,,
2,1777929076992,1976,5211,11136,-2079385,1370781,-35430,0,0,0,247,399,224,313,332,353,330,315,263,149,198,176,0,,
1,1777929077008,-2957,521,9495,114842,-103847,31764,0,0,0,345,301,309,384,224,433,514,343,366,405,371,384,0,,
2,1777929077008,1789,4766,11787,-2328618,1413542,9773,0,0,0,247,399,223,316,335,356,331,317,266,150,200,177,0,,
1,1777929077024,-2952,464,9490,131946,-123394,34208,0,0,0,354,303,315,387,228,430,521,341,365,413,374,385,0,,
2,1777929077024,1598,3795,12108,-2515543,1384220,109955,0,0,0,248,400,225,317,337,357,334,319,267,150,199,178,0,,
1,1777929077040,-2971,425,9480,140499,-141720,35430,0,0,0,354,311,309,392,243,430,521,337,362,417,376,378,0,,
2,1777929077040,1608,2699,12189,-2506990,1329242,228463,0,0,0,250,402,226,317,336,356,334,321,268,148,191,178,0,,
1,1777929077056,-3019,416,9466,138055,-141720,34208,0,0,0,353,311,310,399,245,429,522,336,357,417,375,380,0,,
2,1777929077056,1560,1962,12318,-2409252,1297477,346971,0,0,0,251,404,226,318,338,357,335,324,269,143,182,178,0,,
1,1777929077072,-3058,402,9442,130725,-124616,34208,0,0,0,361,299,314,409,218,423,530,332,367,415,364,377,0,,
2,1777929077072,1459,1483,12423,-2315179,1248608,469144,0,0,0,250,403,225,319,340,358,336,324,268,140,177,178,0,,
1,1777929077088,-3091,397,9447,136833,-107512,39095,0,0,0,367,288,316,415,191,426,535,327,384,408,347,367,0,,
2,1777929077088,1507,775,12404,-2221106,1161865,577878,0,0,0,251,402,225,319,339,359,337,323,269,136,171,178,0,,
1,1777929077104,-3077,397,9485,157603,-97738,45204,0,0,0,363,291,324,410,195,440,532,333,375,402,333,370,0,,
2,1777929077104,1703,-47,12155,-2094046,1072679,608421,0,0,0,252,403,227,312,345,354,339,325,271,133,165,178,0,,
1,1777929077120,-3048,382,9528,183259,-96516,48869,0,0,0,357,297,333,400,197,436,538,326,376,401,318,376,0,,
2,1777929077120,1785,-713,11820,-1955990,1015258,593761,0,0,0,250,402,226,301,356,348,340,325,271,133,165,179,0,,
1,1777929077136,-3048,344,9562,206472,-105068,50090,0,0,0,352,289,320,405,195,448,537,314,377,392,308,405,0,,
2,1777929077136,1651,-1363,11462,-1825265,961501,559552,0,0,0,250,402,223,321,340,360,339,325,272,134,165,179,0,,
1,1777929077152,-3077,306,9566,229685,-114842,51312,0,0,0,354,292,317,400,205,441,537,313,387,408,303,405,0,,
2,1777929077152,1402,-2268,11021,-1671327,882089,526565,0,0,0,251,403,228,320,339,360,339,325,271,134,164,180,0,,
1,1777929077168,-3134,296,9542,252898,-118507,56199,0,0,0,350,304,315,400,234,444,528,285,382,389,299,407,0,,
2,1777929077168,1086,-3417,10413,-1384220,779464,461814,0,0,0,254,403,229,320,339,360,340,325,271,132,162,178,0,,
1,1777929077184,-3177,258,9518,274889,-102625,65973,0,0,0,348,313,322,385,244,447,531,284,377,373,291,428,0,,
2,1777929077184,670,-4139,9940,-1043357,687834,376292,0,0,0,251,403,229,318,337,359,340,324,274,133,165,180,0,,
1,1777929077200,-3172,191,9495,291993,-74525,73303,0,0,0,343,310,317,392,255,463,532,275,406,366,284,429,0,,
2,1777929077200,186,-4374,9643,-691499,569326,296880,0,0,0,251,403,228,322,339,360,339,324,271,133,163,180,0,,
1,1777929077216,-3120,119,9495,298102,-57421,80634,0,0,0,351,313,343,401,253,473,520,271,413,355,273,447,0,,
2,1777929077216,-81,-4484,9384,-372627,430049,246789,0,0,0,251,403,226,321,339,359,339,325,273,133,164,179,0,,
1,1777929077232,-3091,86,9528,310319,-63529,85521,0,0,0,360,310,347,406,255,471,516,262,411,356,264,484,0,,
2,1777929077232,-67,-4589,9160,-63529,294437,221133,0,0,0,252,402,226,323,341,361,340,326,274,134,165,179,0,,
1,1777929077248,-3096,62,9581,339641,-75747,92851,0,0,0,352,313,350,410,264,484,517,245,404,338,255,491,0,,
2,1777929077248,-38,-4556,9073,267558,199142,207694,0,0,0,253,403,228,324,342,362,340,325,272,133,164,179,0,,
1,1777929077264,-3101,38,9633,384845,-87964,98960,0,0,0,348,314,351,413,252,485,518,229,412,335,255,489,0,,
2,1777929077264,-86,-4393,9083,577878,113620,227241,0,0,0,253,404,230,324,343,362,343,327,275,135,164,178,0,,
1,1777929077280,-3105,0,9748,455705,-112399,108734,0,0,0,346,310,339,418,231,478,515,218,414,376,247,485,0,,
2,1777929077280,-196,-4173,9198,869872,23212,300545,0,0,0,248,402,226,324,342,360,343,334,274,142,178,176,0,,
1,1777929077296,-3120,-71,9887,555887,-158824,120951,0,0,0,336,307,316,420,228,480,502,209,408,377,226,479,0,,
2,1777929077296,-665,-3670,9796,1123992,-95294,439822,0,0,0,241,395,216,321,338,353,353,355,270,145,191,168,0,,
1,1777929077312,-3168,-172,9997,669508,-222354,138055,0,0,0,332,312,292,419,238,486,486,201,423,289,215,488,0,,
2,1777929077312,-1024,-38,11184,1457524,-477696,696386,0,0,0,235,378,202,316,330,341,379,391,266,147,198,155,0,,
1,1777929077328,-3283,-282,10088,791681,-285884,164933,0,0,0,338,332,288,431,267,502,483,202,415,284,209,502,0,,
2,1777929077328,1407,10346,10859,1764178,-1461189,996932,0,0,0,234,355,194,311,318,332,398,419,258,172,235,146,0,,
1,1777929077344,-3426,-387,10303,923628,-305432,200363,0,0,0,333,336,292,434,282,517,462,203,439,264,193,510,0,,
2,1777929077344,2230,12562,9475,2053728,-2359161,906524,0,0,0,237,344,195,308,309,329,397,429,252,204,290,144,0,,
1,1777929077360,-3675,-430,10753,1119105,-288328,250454,0,0,0,330,349,248,437,298,503,408,198,432,255,204,517,0,,
2,1777929077360,-186,4795,11050,2735454,-2510656,382401,0,0,0,244,351,199,311,313,331,418,448,259,174,255,147,0,,
1,1777929077376,-4044,-406,11227,1375668,-179594,317649,0,0,0,336,362,237,428,338,505,386,193,435,232,193,525,0,,
2,1777929077376,-1139,875,13247,3204599,-2002416,4886,0,0,0,240,354,201,309,317,331,417,451,263,195,278,145,0,,
1,1777929077392,-4206,-488,11634,1723861,36651,423940,0,0,0,346,357,225,443,327,498,361,181,465,252,182,534,0,,
2,1777929077392,67,1368,13491,3356093,-1049466,-162490,0,0,0,240,354,207,314,318,337,434,453,266,168,260,145,0,,
1,1777929077408,-4249,-670,12256,2095267,193033,541226,0,0,0,346,356,216,445,319,505,347,162,471,241,160,520,0,,
2,1777929077408,1579,2182,11959,3279124,-531452,-120951,0,0,0,250,371,236,320,319,346,446,461,267,176,262,164,0,,
1,1777929077424,-4546,-655,13285,2513099,201585,685390,0,0,0,342,346,218,423,294,506,321,164,452,213,143,522,0,,
2,1777929077424,2770,1593,11878,3034778,-568104,-29321,0,0,0,265,388,254,340,324,367,463,472,277,187,272,195,0,,
1,1777929077440,-5082,-497,14347,3025004,190589,888198,0,0,0,347,330,232,396,275,500,263,156,437,186,124,507,0,,
2,1777929077440,3129,-138,12849,2267531,-946841,158824,0,0,0,290,399,263,354,329,383,475,481,293,219,309,214,0,,
1,1777929077456,-5661,-483,15716,3651752,270002,1160643,0,0,0,352,331,243,388,278,503,227,149,430,170,113,470,0,,x
2,1777929077456,1268,-947,12419,1016479,-1027475,267558,0,0,0,306,411,276,358,335,385,478,483,295,235,332,230,0,,x
1,1777929077472,-6135,-603,17386,4338364,375071,1425759,0,0,0,341,330,225,386,270,486,234,142,413,163,109,411,0,,
2,1777929077472,105,-129,11232,205250,-747699,168598,0,0,0,313,418,279,363,342,392,487,491,295,240,336,243,0,,
1,1777929077488,-6652,-1048,19243,5145928,476474,1705535,0,0,0,321,317,206,366,252,448,232,136,385,156,110,334,0,,
2,1777929077488,670,765,10624,-18325,-436157,32986,0,0,0,322,422,281,371,346,400,497,500,295,247,335,250,0,,
1,1777929077504,-7279,-2120,20799,5716476,384845,1932777,0,0,0,301,307,218,334,241,420,208,146,354,143,118,270,0,,
2,1777929077504,1115,942,10538,-50090,-288328,-10995,0,0,0,330,425,286,374,348,402,501,505,296,256,344,253,0,,
1,1777929077520,-6829,-2928,22450,6158743,28099,2146580,0,0,0,279,289,224,312,213,380,217,157,314,140,138,229,0,,
2,1777929077520,1033,923,10528,-73303,-194255,-9773,0,0,0,331,425,287,374,348,402,504,511,299,257,358,256,0,,
1,1777929077536,-5637,-732,22191,6363994,51312,2206445,0,0,0,245,273,219,285,206,333,249,186,271,142,177,167,0,,
2,1777929077536,981,1081,10327,-63529,-81855,-24434,0,0,0,329,423,287,375,345,403,507,520,301,257,366,257,0,,
1,1777929077552,-5417,2287,19301,6396980,579100,2168571,0,0,0,233,249,212,255,166,285,271,210,251,145,198,134,0,,
2,1777929077552,1086,1153,10112,-25656,1221,-37873,0,0,0,329,423,282,375,347,403,507,520,302,260,371,255,0,,
1,1777929077568,-5982,5374,13342,6230825,1363451,2065946,0,0,0,245,245,225,264,162,303,280,201,258,149,205,136,0,,
2,1777929077568,1215,1129,10011,8552,18325,-40317,0,0,0,335,426,285,374,344,402,508,523,303,261,379,254,0,,
1,1777929077584,-6867,8121,9480,5616295,1830152,1865582,0,0,0,245,247,237,253,159,294,276,201,258,147,205,138,0,,
2,1777929077584,1253,1129,9978,21991,8552,-37873,0,0,0,335,426,285,374,343,402,509,519,303,265,384,262,0,,
1,1777929077600,-7178,12045,9384,3612657,1696983,1237612,0,0,0,239,251,227,257,164,301,278,199,261,152,203,142,0,,
2,1777929077600,1273,1177,9959,41538,-7330,-36651,0,0,0,336,427,289,374,342,402,508,519,300,264,378,264,0,,
1,1777929077616,-5618,13285,9289,381179,1425759,106290,0,0,0,240,254,222,261,168,296,286,203,257,156,205,139,0,,
2,1777929077616,1296,1210,9987,83077,-32986,-37873,0,0,0,343,428,297,374,342,403,509,510,300,267,378,265,0,,
1,1777929077632,-4426,10241,7681,-2081828,1513724,-784350,0,0,0,238,253,224,256,169,297,283,206,259,156,206,142,0,,
2,1777929077632,1301,1177,10011,124616,-62308,-42760,0,0,0,348,431,298,375,342,402,509,510,301,258,362,265,0,,
1,1777929077648,-4986,5738,5355,-2847853,1710422,-915076,0,0,0,233,252,231,251,168,303,281,208,267,152,210,147,0,,
2,1777929077648,1268,1091,9949,141720,-90408,-43982,0,0,0,347,429,295,374,342,402,509,511,299,254,354,265,0,,
1,1777929077664,-5967,3780,4316,-2830749,1425759,-498466,0,0,0,232,253,241,248,166,301,277,207,266,152,213,149,0,,
2,1777929077664,1225,1038,9868,135612,-114842,-40317,0,0,0,347,427,295,371,338,402,511,508,299,254,349,263,0,,
1,1777929077680,-5671,3862,4804,-3032335,1031140,-244346,0,0,0,229,255,248,249,169,305,277,209,267,151,214,150,0,,
2,1777929077680,1191,1033,9820,118507,-123394,-34208,0,0,0,352,427,297,374,337,403,511,503,299,257,344,264,0,,
1,1777929077696,-4824,4489,6164,-3687182,1050688,-522900,0,0,0,229,253,248,253,169,311,283,212,271,152,213,151,0,,
2,1777929077696,1167,1052,9820,108734,-118507,-31764,0,0,0,355,428,297,378,339,405,509,500,300,255,337,266,0,,
1,1777929077712,-5307,4637,7365,-4448320,1271821,-1056796,0,0,0,239,253,243,256,167,301,287,210,266,158,213,150,0,,
2,1777929077712,1143,1057,9834,111177,-108734,-30543,0,0,0,356,426,297,378,340,404,508,497,299,254,335,269,0,,
1,1777929077728,-6992,4326,8365,-5196019,1127657,-1543045,0,0,0,238,258,239,261,183,301,282,208,262,158,216,149,0,,
2,1777929077728,1139,1033,9849,119729,-95294,-30543,0,0,0,356,425,295,379,341,404,508,494,300,259,334,271,0,,
1,1777929077744,-7963,3508,9341,-5838649,670730,-1819156,0,0,0,236,257,239,262,179,303,283,209,266,158,216,149,0,,
2,1777929077744,1143,995,9853,130725,-81855,-32986,0,0,0,358,427,297,381,339,405,511,491,304,258,325,275,0,,
1,1777929077760,-8011,1832,10327,-6236934,139277,-1847256,0,0,0,242,254,240,263,170,302,288,208,266,164,217,151,0,,
2,1777929077760,1143,985,9849,135612,-74525,-36651,0,0,0,365,430,299,378,336,404,513,486,305,247,310,284,0,,
1,1777929077776,-7781,-105,11371,-6276029,-263893,-1656666,0,0,0,276,247,233,279,170,300,293,208,262,171,216,145,0,,
2,1777929077776,1162,1009,9858,145385,-74525,-40317,0,0,0,366,431,290,382,347,407,511,479,304,240,297,291,0,,
1,1777929077792,-7441,-1162,12835,-5996253,-599869,-1296256,0,0,0,246,252,237,265,168,304,286,206,263,164,212,147,0,,
2,1777929077792,1196,1019,9887,173485,-86742,-40317,0,0,0,370,435,294,390,359,415,510,474,307,248,302,301,0,,
1,1777929077808,-7264,-1320,14625,-5720142,-884532,-951728,0,0,0,243,254,239,264,165,304,287,208,264,161,212,148,0,,
2,1777929077808,1191,985,9892,204028,-103847,-40317,0,0,0,375,446,296,387,337,424,507,464,302,243,299,299,0,,
1,1777929077824,-7178,-1421,16204,-5628512,-1077566,-750142,0,0,0,245,254,236,267,166,303,286,207,260,162,214,144,0,,
2,1777929077824,1167,923,9887,228463,-116064,-41538,0,0,0,375,449,288,390,343,428,510,457,309,233,258,310,0,,
1,1777929077840,-7083,-1938,17559,-5522221,-1209513,-681725,0,0,0,243,257,240,262,171,303,284,207,260,160,211,143,0,,
2,1777929077840,1153,875,9901,240680,-123394,-42760,0,0,0,380,446,295,394,349,433,513,454,316,233,253,326,0,,
1,1777929077856,-7355,-2569,18626,-5287649,-1302364,-828333,0,0,0,243,256,240,259,169,303,283,209,262,158,210,145,0,,
2,1777929077856,1134,842,9930,249233,-123394,-43982,0,0,0,385,450,292,399,353,438,513,443,317,237,249,342,0,,
1,1777929077872,-8250,-3067,19798,-4913799,-1522276,-1219287,0,0,0,244,256,237,261,170,302,283,210,263,157,214,147,0,,
2,1777929077872,1110,827,9944,272445,-116064,-48869,0,0,0,393,451,295,405,361,447,512,437,336,239,241,362,0,,
1,1777929077888,-8820,-3742,20985,-4604702,-1848478,-1645670,0,0,0,242,258,238,262,174,302,281,212,262,158,219,147,0,,
2,1777929077888,1115,866,9954,333532,-107512,-56199,0,0,0,398,456,299,404,365,454,508,426,342,236,229,383,0,,
1,1777929077904,-8336,-5795,22282,-4339586,-2252871,-2042733,0,0,0,240,258,239,258,175,303,281,213,262,159,222,146,0,,
2,1777929077904,1095,842,10016,417831,-92851,-61086,0,0,0,406,462,302,407,371,454,505,411,339,238,220,396,0,,
1,1777929077920,-7336,-9456,22890,-4109901,-2521651,-2180788,0,0,0,237,263,237,259,183,306,283,221,266,155,222,146,0,,
2,1777929077920,1076,760,10107,494800,-63529,-68416,0,0,0,416,467,307,417,378,457,506,397,352,236,213,403,0,,
1,1777929077936,-6173,-14099,22000,-3899763,-2574186,-1916895,0,0,0,239,263,241,263,184,313,279,220,269,158,223,149,0,,
2,1777929077936,1076,665,10222,557109,-13439,-78190,0,0,0,421,470,307,423,383,459,500,371,364,245,211,417,0,,
1,1777929077952,-2928,-18655,19090,-3595552,-2493551,-1293812,0,0,0,240,269,241,264,188,315,278,220,267,156,223,148,0,,
2,1777929077952,1182,607,10370,629191,45204,-92851,0,0,0,424,472,306,430,390,464,491,335,356,252,200,437,0,,
1,1777929077968,1675,-22612,15395,-3110525,-2222327,-637743,0,0,0,237,269,239,264,186,315,285,223,271,157,223,149,0,,
2,1777929077968,1368,540,10519,722042,87964,-111177,0,0,0,427,475,309,441,401,474,485,306,353,238,175,455,0,,
1,1777929077984,5245,-27154,12084,-2260201,-1626123,283441,0,0,0,236,269,240,258,190,313,280,222,271,158,225,153,0,,
2,1777929077984,1555,425,10744,838107,84299,-140499,0,0,0,431,481,306,448,413,477,471,281,364,238,170,473,0,,
1,1777929078000,7705,-29748,10686,-1255938,-904080,1385442,0,0,0,240,270,253,258,181,321,275,217,273,159,227,159,0,,
2,1777929078000,1722,335,11112,990823,51312,-188146,0,0,0,437,487,303,453,416,472,453,266,366,248,173,488,0,,
1,1777929078016,7250,-26594,10969,-83077,202807,2095267,0,0,0,241,267,243,262,179,315,279,220,268,159,224,153,0,,
2,1777929078016,1938,282,11753,1277930,15882,-282219,0,0,0,443,491,282,442,427,474,434,259,372,241,162,505,0,,
1,1777929078032,4053,-20890,11744,1036027,1227839,2284635,0,0,0,231,263,242,261,184,320,281,237,275,173,255,155,0,,
2,1777929078032,1943,215,12371,1668883,54977,-403171,0,0,0,456,493,289,442,426,482,403,243,378,241,159,507,0,,
1,1777929078048,732,-13012,13701,1966986,1924225,1987755,0,0,0,229,268,220,265,202,306,310,293,262,220,322,136,0,,
2,1777929078048,1823,47,12787,2073276,97738,-504574,0,0,0,458,504,281,444,443,491,383,239,382,236,163,518,0,,
1,1777929078064,-2622,5953,16353,2315179,2409252,1156978,0,0,0,232,255,212,272,186,280,360,352,243,273,382,118,0,,
2,1777929078064,1545,-114,13146,2504547,83077,-566882,0,0,0,457,494,262,448,454,500,341,224,379,236,157,533,0,,
1,1777929078080,-6494,24484,13816,2169793,2857627,188146,0,0,0,232,236,214,272,161,270,402,393,238,312,411,113,0,,
2,1777929078080,1517,-162,13783,2965139,-7330,-560774,0,0,0,453,498,244,442,459,491,318,216,400,242,165,536,0,,
1,1777929078096,-3613,13328,10514,2823419,2720793,12217,0,0,0,230,229,216,274,158,282,429,415,245,351,422,113,0,,
2,1777929078096,2215,-263,14778,3546683,-92851,-594982,0,0,0,456,502,241,438,459,498,291,211,387,236,162,539,0,,
1,1777929078112,512,-2206,14663,4136779,1784948,204028,0,0,0,240,231,232,291,161,297,453,426,247,399,431,117,0,,
2,1777929078112,2948,-157,16664,4258952,-92851,-757472,0,0,0,455,485,233,428,458,495,267,199,367,222,155,517,0,,
1,1777929078128,272,-4446,20449,3849672,807563,417831,0,0,0,259,248,244,306,178,303,463,456,252,428,441,123,0,,
2,1777929078128,3584,-19,19430,5079955,-70860,-963945,0,0,0,443,472,230,421,450,483,262,185,364,218,151,457,0,,
1,1777929078144,-2847,-588,17764,2067167,339641,335975,0,0,0,256,266,270,309,206,322,467,465,280,431,445,143,0,,
2,1777929078144,4340,38,22842,6045122,-58643,-1197295,0,0,0,407,460,222,412,435,462,261,184,354,210,149,390,0,,
1,1777929078160,-4072,1507,11940,753807,59864,-3665,0,0,0,272,271,264,328,200,336,470,470,285,423,445,159,0,,
2,1777929078160,4613,636,25479,6878342,-43982,-1381777,0,0,0,355,442,209,393,415,435,266,199,328,185,138,329,0,,
1,1777929078176,-3072,1024,9217,570548,17104,-188146,0,0,0,270,271,277,323,216,351,482,482,290,421,449,188,0,,
2,1777929078176,4580,942,26494,7534411,101403,-1514945,0,0,0,310,424,206,365,387,409,281,225,303,156,123,274,0,,
1,1777929078192,-2613,339,9212,410501,107512,-194255,0,0,0,294,275,290,326,198,344,496,484,276,443,464,177,0,,
2,1777929078192,6106,100,24814,8034099,869872,-1725083,0,0,0,268,399,210,325,350,371,285,255,277,128,118,219,0,,
1,1777929078208,-2632,531,10107,125838,210137,-129503,0,0,0,299,272,288,327,192,347,504,481,290,435,478,197,0,,
2,1777929078208,7150,473,21450,8036543,1760513,-2085493,0,0,0,241,381,218,298,321,343,292,275,259,101,111,155,0,,
1,1777929078224,-2632,1244,10102,-21991,202807,-85521,0,0,0,300,272,274,339,195,350,506,486,279,455,485,210,0,,
2,1777929078224,5149,4388,16511,7307169,1529606,-2546086,0,0,0,248,391,228,305,327,355,297,284,274,103,115,169,0,,
1,1777929078240,-2512,1550,9906,9773,145385,-43982,0,0,0,303,275,280,345,200,367,509,493,293,458,488,231,0,,
2,1777929078240,2230,10366,13409,5352401,-836885,-2381152,0,0,0,251,393,230,303,323,353,291,282,269,96,108,167,0,,
1,1777929078256,-2392,1392,9930,87964,72082,-8552,0,0,0,306,282,288,342,213,368,511,496,300,450,497,235,0,,
2,1777929078256,4115,14802,10696,2123367,-2582738,-1455080,0,0,0,263,393,225,302,324,359,295,284,272,116,116,172,0,,
1,1777929078272,-2364,1363,10031,133168,-10995,18325,0,0,0,305,286,298,344,215,371,509,488,306,447,497,236,0,,
2,1777929078272,8317,13582,8073,-1738522,-2160019,-250454,0,0,0,263,393,225,301,324,356,297,286,270,105,117,174,0,,
1,1777929078288,-2469,1430,9959,184481,-105068,42760,0,0,0,302,285,307,345,207,378,506,482,318,452,491,244,0,,
2,1777929078288,6613,7944,6647,-3501479,-744033,196698,0,0,0,253,391,219,303,325,351,302,291,265,107,117,169,0,,
1,1777929078304,-2579,1378,9748,228463,-147829,59864,0,0,0,302,287,304,342,207,374,505,485,319,452,488,245,0,,
2,1777929078304,3125,4264,5642,-3849672,-510683,279776,0,0,0,247,389,214,306,327,347,304,293,260,110,119,163,0,,
1,1777929078320,-2689,1215,9495,235793,-125838,64751,0,0,0,307,289,308,346,202,377,504,488,325,433,470,245,0,,
2,1777929078320,2565,3991,5015,-3821572,-1208291,299323,0,0,0,246,389,215,307,329,350,305,293,262,111,120,165,0,,
1,1777929078336,-2699,1162,9418,195476,-58643,62308,0,0,0,305,289,315,342,207,393,504,485,337,424,469,256,0,,
2,1777929078336,3838,4608,4828,-4205196,-1477072,320093,0,0,0,245,390,218,306,330,355,303,294,269,108,119,168,0,,
1,1777929078352,-2646,1196,9451,166155,-4886,62308,0,0,0,305,287,312,343,208,379,506,470,329,430,475,254,0,,
2,1777929078352,4934,5029,5211,-4869817,-1007927,254119,0,0,0,247,393,221,307,331,354,303,295,265,107,120,164,0,,
1,1777929078368,-2560,1225,9518,162490,18325,63529,0,0,0,304,293,311,349,209,382,503,461,328,415,475,260,0,,
2,1777929078368,4345,4718,6097,-5319414,-337197,158824,0,0,0,246,394,219,308,331,350,303,297,259,109,122,159,0,,
1,1777929078384,-2488,1210,9533,163711,17104,62308,0,0,0,306,292,315,352,205,378,501,457,320,416,473,253,0,,
2,1777929078384,3469,4259,7260,-5622403,109955,166155,0,0,0,246,393,217,306,329,348,303,298,258,108,122,157,0,,
1,1777929078400,-2450,1172,9490,158824,6108,61086,0,0,0,304,294,316,343,210,376,505,437,310,421,468,253,0,,
2,1777929078400,3283,3718,8399,-5854532,360410,294437,0,0,0,247,396,220,303,328,346,302,300,257,105,121,157,0,,
1,1777929078416,-2445,1139,9466,146607,-6108,59864,0,0,0,301,295,316,337,206,374,505,436,307,399,461,251,0,,
2,1777929078416,3335,3024,9428,-5990144,656069,420275,0,0,0,240,396,219,304,331,347,304,300,258,107,123,159,0,,
1,1777929078432,-2464,1119,9456,135612,-17104,57421,0,0,0,304,290,318,343,205,374,497,435,308,399,462,259,0,,
2,1777929078432,3082,2464,10524,-5932723,956614,493579,0,0,0,240,396,219,307,334,350,304,300,260,107,121,157,0,,
1,1777929078448,-2493,1105,9451,123394,-17104,53756,0,0,0,303,285,314,345,205,375,490,427,307,399,456,265,0,,
2,1777929078448,2560,2531,12232,-5836206,1112996,513126,0,0,0,242,396,218,311,335,351,308,300,261,108,122,158,0,,
1,1777929078464,-2493,1091,9456,112399,-9773,51312,0,0,0,302,303,311,348,215,377,493,426,307,394,452,267,0,,
2,1777929078464,2450,2852,14161,-5916840,1144761,459370,0,0,0,241,394,217,311,336,351,308,300,261,107,122,158,0,,
1,1777929078480,-2469,1086,9499,107512,-6108,52534,0,0,0,310,318,306,350,221,382,493,421,317,387,447,274,0,,
2,1777929078480,2885,2943,16109,-6184399,1191187,290771,0,0,0,236,394,217,310,336,352,308,303,263,104,122,159,0,,
1,1777929078496,-2479,1086,9552,119729,-10995,58643,0,0,0,316,311,298,352,218,390,490,413,324,381,437,293,0,,
2,1777929078496,3153,2751,18463,-6376211,1392772,123394,0,0,0,236,394,218,310,334,352,310,303,263,98,118,155,0,,
1,1777929078512,-2488,1086,9581,144164,-15882,68416,0,0,0,315,320,296,368,225,399,499,416,321,382,434,309,0,,
2,1777929078512,3153,2627,21708,-6443406,1598023,146607,0,0,0,238,393,219,313,335,354,311,305,263,98,116,155,0,,
1,1777929078528,-2488,1067,9576,177150,-19547,85521,0,0,0,327,339,304,377,236,404,506,408,331,382,433,307,0,,
2,1777929078528,3598,1622,25541,-6400645,1670105,614530,0,0,0,229,393,212,309,333,348,320,313,264,111,131,158,0,,
1,1777929078544,-2498,1048,9581,215024,-18325,105068,0,0,0,327,338,310,373,246,410,500,399,331,386,423,317,0,,
2,1777929078544,4221,-2866,28920,-6219829,1795943,1332907,0,0,0,232,393,217,309,331,350,319,312,264,109,128,159,0,,
1,1777929078560,-2541,1043,9614,268780,-12217,129503,0,0,0,343,344,316,384,233,436,513,371,334,398,396,367,0,,
2,1777929078560,2718,-13481,30648,-5516113,2009746,2114815,0,0,0,236,393,220,311,331,355,319,309,269,108,124,163,0,,
1,1777929078576,-2531,1024,9662,360410,-4886,161268,0,0,0,362,350,359,383,213,446,488,337,328,365,370,377,0,,
2,1777929078576,804,-20617,27709,-4798957,2172236,2211332,0,0,0,239,394,221,313,331,356,320,311,272,109,125,166,0,,
1,1777929078592,-2522,961,9724,472809,-3665,195476,0,0,0,352,349,336,401,227,454,488,325,355,355,338,380,0,,
2,1777929078592,-1124,-25527,23799,-4334699,2173458,1849699,0,0,0,240,395,222,313,331,357,318,311,271,110,126,165,0,,
1,1777929078608,-2512,875,9873,582765,-23212,217468,0,0,0,355,363,329,395,233,442,497,310,354,327,311,392,0,,
2,1777929078608,-2861,-31543,18190,-2950479,1507615,1029918,0,0,0,231,392,215,313,334,357,320,317,270,114,135,164,0,,
1,1777929078624,-2498,832,10179,714712,-91629,222354,0,0,0,366,378,331,401,262,444,473,268,361,314,278,413,0,,
2,1777929078624,-4517,-36214,14697,-1180191,783129,-151494,0,0,0,222,387,209,310,336,353,330,348,270,123,163,163,0,,
1,1777929078640,-2474,770,10495,842994,-186924,222354,0,0,0,387,370,352,418,268,467,451,219,372,293,239,455,0,,
2,1777929078640,-9949,-37822,17563,634078,-252898,-1097113,0,0,0,223,377,210,307,333,348,350,398,263,135,200,151,0,,
1,1777929078656,-2593,631,10844,1010371,-294437,222354,0,0,0,388,380,353,436,286,476,436,199,382,270,213,471,0,,
2,1777929078656,-7934,-19803,18674,2932153,-2499660,-689055,0,0,0,218,355,196,306,323,340,385,440,254,163,240,142,0,,
1,1777929078672,-2948,440,11490,1252273,-339641,239459,0,0,0,379,399,342,447,308,494,418,194,392,256,203,490,0,,
2,1777929078672,1584,7944,15462,3975510,-3422067,-43982,0,0,0,222,342,188,305,313,334,408,447,252,205,293,140,0,,
1,1777929078688,-3350,344,12476,1627344,-306654,310319,0,0,0,379,412,326,455,308,517,395,182,406,248,190,517,0,,
2,1777929078688,5293,15683,11892,3979176,-2625498,398284,0,0,0,231,344,184,308,316,333,420,451,252,186,297,143,0,,
1,1777929078704,-3555,392,13524,2223549,-196698,445931,0,0,0,392,425,292,450,311,515,361,175,414,239,183,530,0,,
2,1777929078704,-804,3239,14156,4571715,-1050688,535117,0,0,0,236,348,191,309,316,339,416,454,255,226,313,146,0,,
1,1777929078720,-3914,464,14180,2857627,-50090,603534,0,0,0,412,431,253,428,337,509,300,183,414,223,189,540,0,,
2,1777929078720,-5288,-3350,18176,4785518,1221,191811,0,0,0,241,353,205,293,331,337,437,459,267,202,300,148,0,,
1,1777929078736,-4249,411,14783,3486818,89186,812450,0,0,0,425,414,237,413,329,521,240,189,422,198,170,529,0,,
2,1777929078736,-1899,-234,17276,3902207,68416,-642630,0,0,0,235,359,214,317,321,358,451,460,276,196,299,156,0,,
1,1777929078752,-4694,258,15730,4062253,193033,1014036,0,0,0,405,419,225,416,327,502,214,174,401,196,147,497,0,,
2,1777929078752,3125,2301,13773,2941926,-106290,-827111,0,0,0,245,375,232,336,323,374,465,472,288,190,296,191,0,,
1,1777929078768,-6044,157,17616,4720766,257785,1291369,0,0,0,408,419,231,416,322,487,199,168,412,178,144,459,0,,
2,1777929078768,4388,1536,11418,2163684,-285884,-249233,0,0,0,275,394,247,353,327,387,478,484,295,203,293,219,0,,
1,1777929078784,-8025,-38,19865,5392718,339641,1670105,0,0,0,383,379,241,392,284,458,196,150,400,164,124,389,0,,
2,1777929078784,1847,-311,11261,1372003,-464257,243124,0,0,0,302,412,260,366,340,397,487,490,295,213,297,245,0,,
1,1777929078800,-10002,-665,21397,5973040,420275,2153910,0,0,0,345,334,230,376,281,432,189,143,350,151,121,310,0,,
2,1777929078800,406,-598,11318,696386,-576656,270002,0,0,0,315,420,268,372,347,401,496,499,297,222,308,259,0,,
1,1777929078816,-9935,-349,22249,6487388,510683,2740341,0,0,0,308,319,236,334,241,397,204,158,318,149,135,258,0,,
2,1777929078816,488,196,10930,215024,-604756,107512,0,0,0,325,426,275,376,350,404,503,507,302,228,311,266,0,,
1,1777929078832,-8379,961,23225,6895446,791681,3147177,0,0,0,257,292,231,286,206,346,232,181,280,145,170,196,0,,
2,1777929078832,531,588,10538,34208,-532674,63529,0,0,0,330,429,280,375,350,405,498,510,300,282,369,259,0,,
1,1777929078848,-7882,2928,23594,7178888,1152091,3303559,0,0,0,233,257,225,255,171,298,265,202,253,145,200,150,0,,
2,1777929078848,363,784,10533,-62308,-350636,59864,0,0,0,330,431,280,373,346,405,494,510,297,329,420,254,0,,
1,1777929078864,-9193,5924,19009,7153231,1562593,3337767,0,0,0,236,238,229,249,155,284,281,213,246,150,215,136,0,,
2,1777929078864,478,981,10581,-35430,-184481,39095,0,0,0,341,447,285,380,352,411,506,514,304,233,315,278,0,,
1,1777929078880,-10868,8289,12567,6696304,1666440,3354871,0,0,0,246,238,238,256,160,295,277,214,249,153,217,140,0,,
2,1777929078880,536,1110,10356,15882,-105068,10995,0,0,0,345,451,289,381,353,408,507,517,303,234,315,276,0,,
1,1777929078896,-10710,13285,10332,4438546,774577,2869844,0,0,0,248,240,245,260,161,302,276,211,251,154,214,143,0,,
2,1777929078896,516,1148,10112,75747,-39095,-9773,0,0,0,347,450,288,386,355,409,507,516,299,234,313,272,0,,
1,1777929078912,-6484,17295,11016,592539,150272,1345125,0,0,0,243,248,246,260,173,301,278,214,249,156,216,146,0,,
2,1777929078912,512,1115,10112,123394,35430,-17104,0,0,0,347,447,281,385,355,408,506,516,302,235,307,278,0,,
1,1777929078928,-4599,13433,9059,-2261423,880867,-560774,0,0,0,242,260,242,257,193,295,278,221,245,154,221,143,0,,
2,1777929078928,564,1086,10141,158824,96516,-20769,0,0,0,349,448,283,382,350,410,504,514,302,238,310,286,0,,
1,1777929078944,-6719,7824,5120,-3134960,1188743,-1425759,0,0,0,244,247,237,262,167,295,284,217,247,154,215,142,0,,
2,1777929078944,689,1062,10074,189368,128281,-23212,0,0,0,351,450,284,385,354,413,504,514,304,233,301,285,0,,
1,1777929078960,-7901,4929,2699,-2846632,135612,-1015258,0,0,0,247,251,241,259,167,295,285,220,251,156,218,142,0,,
2,1777929078960,808,1024,9968,212581,117286,-25656,0,0,0,351,450,284,386,353,412,503,510,302,231,292,281,0,,
1,1777929078976,-5699,5001,3421,-2913827,-737925,-568104,0,0,0,247,251,244,257,165,297,282,218,250,156,220,143,0,,
2,1777929078976,861,971,9887,218689,69638,-29321,0,0,0,350,449,281,386,353,411,508,507,306,228,283,282,0,,
1,1777929078992,-3201,5738,5551,-3530801,-704938,-607200,0,0,0,243,252,245,256,166,297,282,219,250,158,221,144,0,,
2,1777929078992,832,947,9863,202807,12217,-36651,0,0,0,348,449,282,382,351,408,503,502,308,229,281,285,0,,
1,1777929079008,-3890,5451,6628,-4136779,-492357,-930958,0,0,0,242,253,247,250,170,296,280,232,249,154,227,143,0,,
2,1777929079008,827,952,9858,195476,-19547,-45204,0,0,0,349,448,284,385,352,410,500,494,306,228,271,291,0,,
1,1777929079024,-4742,4876,7772,-4730540,-687834,-1229060,0,0,0,240,253,249,254,174,302,281,243,251,158,234,146,0,,
2,1777929079024,818,947,9820,195476,-43982,-52534,0,0,0,347,444,282,388,356,413,502,492,304,226,257,296,0,,
1,1777929079040,-4072,4331,9413,-5241223,-1149648,-1497841,0,0,0,239,256,249,258,182,303,282,252,253,156,236,144,0,,
2,1777929079040,770,914,9801,191811,-69638,-56199,0,0,0,348,443,283,383,352,412,503,494,306,227,251,303,0,,
1,1777929079056,-3211,3704,11055,-5649281,-1343903,-1775174,0,0,0,240,262,249,258,190,300,279,252,249,156,238,141,0,,
2,1777929079056,722,880,9820,178372,-78190,-56199,0,0,0,355,450,290,382,344,412,505,487,311,233,252,316,0,,
1,1777929079072,-2943,2718,12873,-5993809,-1341460,-2013411,0,0,0,241,261,249,263,187,299,280,251,248,157,239,142,0,,
2,1777929079072,756,866,9844,172263,-85521,-50090,0,0,0,362,452,289,388,350,417,502,475,313,235,253,326,0,,
1,1777929079088,-3196,1765,14773,-6147747,-1365894,-1949881,0,0,0,244,258,252,269,180,302,286,253,252,159,238,145,0,,
2,1777929079088,808,842,9873,182037,-105068,-45204,0,0,0,368,458,288,396,355,429,505,479,321,233,246,335,0,,
1,1777929079104,-3407,981,16802,-6208834,-1446528,-1690874,0,0,0,244,259,254,264,182,302,287,254,253,176,235,148,0,,
2,1777929079104,780,794,9916,195476,-127059,-48869,0,0,0,377,463,296,394,355,442,499,465,331,231,238,345,0,,
1,1777929079120,-3378,177,19061,-6228381,-1555262,-1350012,0,0,0,239,262,251,254,187,301,285,258,251,195,230,152,0,,
2,1777929079120,732,756,9968,207694,-130725,-54977,0,0,0,385,468,302,398,360,439,502,473,327,243,242,351,0,,
1,1777929079136,-3072,-751,21483,-6194173,-1518610,-1265712,0,0,0,242,264,253,258,192,303,280,257,253,152,238,143,0,,
2,1777929079136,737,760,10026,237015,-129503,-61086,0,0,0,383,463,297,397,361,433,508,450,335,234,229,363,0,,
1,1777929079152,-3694,-1847,23823,-6046344,-1293812,-1687209,0,0,0,242,264,257,257,188,301,272,239,257,160,232,141,0,,
2,1777929079152,765,760,10064,293215,-131946,-69638,0,0,0,387,458,297,403,367,436,509,434,336,236,219,387,0,,
1,1777929079168,-6020,-3335,25919,-5811771,-1266934,-2450791,0,0,0,240,260,252,263,184,302,283,251,253,160,237,140,0,,
2,1777929079168,780,722,10107,362853,-140499,-83077,0,0,0,404,463,300,409,373,448,504,418,341,238,209,397,0,,
1,1777929079184,-8714,-6609,28145,-5597969,-1529606,-3101973,0,0,0,240,252,234,274,174,299,298,236,251,170,226,139,0,,
2,1777929079184,808,689,10203,448375,-147829,-102625,0,0,0,413,478,318,417,384,467,504,409,345,238,200,415,0,,
1,1777929079200,-10275,-14323,29121,-5397605,-1853365,-3193603,0,0,0,239,250,237,290,180,307,298,229,250,170,227,138,0,,
2,1777929079200,851,717,10385,571769,-153938,-125838,0,0,0,423,490,309,425,399,474,495,373,349,239,193,431,0,,
1,1777929079216,-8088,-24723,24776,-4838052,-1952325,-2321287,0,0,0,233,255,242,272,183,309,289,227,258,167,230,143,0,,
2,1777929079216,866,713,10591,711047,-144164,-147829,0,0,0,427,494,300,437,411,479,488,337,354,240,185,449,0,,
1,1777929079232,-1880,-31639,18851,-3918089,-2437352,-1106887,0,0,0,232,254,250,271,177,314,291,227,264,168,227,145,0,,
2,1777929079232,904,588,10849,882089,-108734,-169820,0,0,0,433,500,300,441,422,483,474,305,360,241,177,471,0,,
1,1777929079248,7427,-34285,15089,-2689028,-2354274,-244346,0,0,0,225,256,226,264,181,308,287,242,249,178,279,140,0,,
2,1777929079248,1043,425,11194,1070235,-90408,-197920,0,0,0,439,502,298,439,427,484,452,276,364,241,168,496,0,,
1,1777929079264,12672,-37994,13821,-1353677,-1001818,452040,0,0,0,204,251,224,245,178,301,306,278,248,202,325,134,0,,
2,1777929079264,1325,253,11706,1306029,-135612,-254119,0,0,0,443,503,292,445,431,489,427,254,366,240,161,513,0,,
1,1777929079280,12653,-41411,14386,839328,1558928,1382998,0,0,0,201,247,214,237,179,282,333,351,236,231,371,124,0,,
2,1777929079280,1809,71,12701,1650557,-169820,-379958,0,0,0,446,508,283,456,443,494,393,239,368,239,161,518,0,,
1,1777929079296,4321,-21808,14702,3600439,3309667,1852143,0,0,0,209,241,187,244,180,268,366,408,222,270,403,113,0,,
2,1777929079296,1794,71,13945,2139250,-142942,-552222,0,0,0,444,505,272,453,447,493,353,229,367,238,164,522,0,,
1,1777929079312,-5206,6345,15769,4864930,3241250,1604132,0,0,0,216,237,169,261,178,269,404,428,225,309,412,107,0,,
2,1777929079312,1119,167,14529,2770884,-237015,-648738,0,0,0,453,509,258,444,453,495,327,231,369,239,166,530,0,,
1,1777929079328,-5436,8317,16099,4698775,2004859,994488,0,0,0,226,246,174,283,184,277,434,445,234,334,419,109,0,,
2,1777929079328,861,129,14783,3360980,-359188,-664621,0,0,0,470,511,258,436,457,495,295,223,379,236,168,529,0,,
1,1777929079344,-2038,-909,19047,4426329,1109331,544891,0,0,0,233,249,198,293,180,295,455,443,251,350,427,124,0,,
2,1777929079344,1076,71,15707,4013384,-387288,-687834,0,0,0,457,510,252,437,472,514,273,222,361,222,156,523,0,,
1,1777929079360,-2153,-3948,20512,2891836,1188743,432492,0,0,0,254,250,243,307,179,318,463,455,263,364,432,138,0,,
2,1777929079360,2096,148,18152,4812396,-329867,-783129,0,0,0,452,495,249,423,458,494,255,206,365,217,153,474,0,,
1,1777929079376,-3067,-1435,16472,1141096,1003040,131946,0,0,0,262,259,289,315,202,353,455,441,290,369,434,172,0,,
2,1777929079376,4015,100,21402,5742133,-370184,-978606,0,0,0,438,484,244,440,448,480,260,193,351,213,147,410,0,,
1,1777929079392,-2120,2244,9839,394618,437379,-201585,0,0,0,271,260,296,315,182,366,473,469,295,378,442,196,0,,
2,1777929079392,5723,-287,24479,6620557,-560774,-1291369,0,0,0,393,468,225,418,438,463,257,197,334,189,134,352,0,,
1,1777929079408,-1622,1531,8193,406836,157603,-206472,0,0,0,265,259,316,310,173,392,477,466,297,431,475,210,0,,
2,1777929079408,6470,-325,26475,7338934,-540004,-1682322,0,0,0,338,442,209,386,407,428,267,217,308,171,134,300,0,,
1,1777929079424,-1899,67,9217,205250,146607,-149051,0,0,0,281,279,298,313,176,376,488,491,314,446,492,215,0,,
2,1777929079424,6503,258,26723,7814188,-43982,-2046398,0,0,0,287,409,209,348,366,392,284,251,281,143,126,241,0,,
1,1777929079440,-2148,-71,10787,-147829,240680,-103847,0,0,0,280,275,313,323,172,381,494,491,326,471,502,226,0,,
2,1777929079440,6714,1780,25168,7975456,742812,-2454456,0,0,0,259,389,217,312,333,362,294,282,270,112,116,184,0,,
1,1777929079456,-1828,1014,10648,-239459,168598,-94073,0,0,0,284,274,318,335,172,381,500,484,317,494,509,230,0,,
2,1777929079456,6465,4824,19684,7512420,846659,-2812423,0,0,0,251,389,220,299,325,352,299,296,273,103,117,164,0,,
1,1777929079472,-1761,1478,10193,-134390,30543,-75747,0,0,0,284,274,315,328,171,381,501,489,312,499,524,232,0,,
2,1777929079472,5077,10495,12160,5787337,-171042,-2923601,0,0,0,249,393,221,304,330,357,303,297,275,107,120,170,0,,
1,1777929079488,-1971,1344,10145,10995,-53756,-37873,0,0,0,284,274,315,323,173,380,505,493,311,496,528,233,0,,
2,1777929079488,4268,16386,11088,2020742,-1347568,-1880243,0,0,0,249,394,223,307,330,360,303,295,274,104,118,167,0,,
1,1777929079504,-2019,1249,10246,92851,-89186,-2443,0,0,0,285,277,315,323,176,377,512,488,315,490,523,235,0,,
2,1777929079504,5321,16008,10811,-1748296,-1819156,-254119,0,0,0,243,394,220,300,339,356,304,297,274,103,117,165,0,,
1,1777929079520,-1976,1311,10150,142942,-127059,21991,0,0,0,281,279,322,312,175,383,513,487,332,470,520,243,0,,
2,1777929079520,7073,8987,6843,-3165503,-1368338,670730,0,0,0,235,394,220,286,354,346,303,300,271,102,118,167,0,,
1,1777929079536,-2005,1311,9892,190589,-149051,47647,0,0,0,283,282,334,311,178,391,517,485,340,448,508,248,0,,
2,1777929079536,7011,4790,3675,-3307224,-636521,646295,0,0,0,229,394,219,307,336,359,302,303,269,102,119,163,0,,
1,1777929079552,-2048,1215,9782,219911,-147829,62308,0,0,0,289,286,311,315,186,381,520,473,331,435,503,237,0,,
2,1777929079552,5216,4460,3608,-3489262,-12217,278554,0,0,0,230,397,221,304,334,358,301,304,269,101,118,163,0,,
1,1777929079568,-2077,1115,9729,219911,-129503,67195,0,0,0,289,289,306,315,203,382,517,463,331,412,489,237,0,,
2,1777929079568,3933,5187,5302,-4078136,65973,254119,0,0,0,231,397,225,304,333,357,304,306,269,96,116,159,0,,
1,1777929079584,-2081,1105,9667,204028,-103847,69638,0,0,0,288,292,295,314,198,377,502,448,333,389,489,236,0,,
2,1777929079584,4082,5092,6231,-4553389,75747,427605,0,0,0,229,397,222,304,335,357,305,309,269,104,124,164,0,,
1,1777929079600,-2072,1139,9614,191811,-76969,72082,0,0,0,307,288,285,338,192,384,506,439,317,394,483,236,0,,
2,1777929079600,4905,4642,6508,-4830722,390953,634078,0,0,0,229,400,221,302,335,353,305,310,263,103,124,160,0,,
1,1777929079616,-2038,1134,9571,189368,-56199,75747,0,0,0,299,293,289,337,193,382,508,432,320,396,475,238,0,,
2,1777929079616,4594,4407,7499,-5087285,1033583,847880,0,0,0,225,395,218,304,337,353,305,310,261,105,126,159,0,,
1,1777929079632,-1986,1115,9552,183259,-52534,81855,0,0,0,292,299,302,328,190,383,509,427,323,406,482,244,0,,
2,1777929079632,3378,4072,9064,-5349957,1547932,1158200,0,0,0,224,394,218,305,336,354,307,309,262,107,123,160,0,,
1,1777929079648,-1966,1105,9557,166155,-63529,81855,0,0,0,298,295,309,329,182,387,510,419,324,405,478,252,0,,
2,1777929079648,2507,3508,10390,-5501452,1645670,1494176,0,0,0,227,394,220,306,333,354,309,307,262,108,122,159,0,,
1,1777929079664,-2019,1091,9552,151494,-65973,75747,0,0,0,301,296,310,340,195,389,510,422,323,399,466,260,0,,
2,1777929079664,2163,3091,11610,-5596747,1662775,1739744,0,0,0,228,396,222,308,335,356,311,308,263,107,121,159,0,,
1,1777929079680,-2057,1057,9528,139277,-50090,69638,0,0,0,298,301,311,344,211,391,508,430,326,413,454,272,0,,
2,1777929079680,1986,2919,13189,-5679824,1690874,1857030,0,0,0,228,397,223,308,337,358,310,310,264,107,123,159,0,,
1,1777929079696,-2005,1019,9547,122173,-34208,62308,0,0,0,297,300,316,340,206,396,506,432,333,415,451,285,0,,
2,1777929079696,1660,2761,15142,-5780006,1705535,1784948,0,0,0,229,397,223,307,336,356,310,310,264,107,125,160,0,,
1,1777929079712,-1957,995,9614,109955,-37873,62308,0,0,0,297,296,322,339,194,401,509,429,333,384,460,295,0,,
2,1777929079712,1488,2632,17205,-5902179,1674992,1612684,0,0,0,230,396,222,309,336,355,313,309,265,108,123,160,0,,
1,1777929079728,-1986,990,9676,116064,-57421,68416,0,0,0,300,295,324,345,191,403,514,426,329,383,454,308,0,,
2,1777929079728,1584,2952,19985,-6117204,1646892,1404990,0,0,0,233,397,223,311,337,357,314,307,264,109,122,159,0,,
1,1777929079744,-2029,966,9686,138055,-69638,89186,0,0,0,309,295,307,361,188,403,518,430,323,375,437,314,0,,
2,1777929079744,1694,3149,23330,-6407976,1642005,1339016,0,0,0,232,396,223,311,336,355,318,308,267,106,121,158,0,,
1,1777929079760,-2048,952,9676,168598,-74525,114842,0,0,0,307,298,314,369,183,411,517,425,333,384,413,327,0,,
2,1777929079760,1804,1780,26738,-6633996,1615127,1507615,0,0,0,230,396,223,311,335,357,318,309,266,106,119,161,0,,
1,1777929079776,-2081,952,9700,223576,-74525,149051,0,0,0,315,305,281,365,199,403,518,397,348,390,407,341,0,,
2,1777929079776,2043,-3330,29873,-6531371,1579697,1815491,0,0,0,232,396,223,313,332,354,322,305,264,109,119,157,0,,
1,1777929079792,-2100,933,9791,309097,-75747,186924,0,0,0,316,320,340,360,207,419,516,377,356,366,397,366,0,,
2,1777929079792,2244,-11246,31232,-6113539,1514945,1893682,0,0,0,240,396,224,321,334,359,333,303,270,115,123,162,0,,
1,1777929079808,-2124,861,9877,398284,-91629,219911,0,0,0,319,324,311,368,224,416,514,340,335,344,375,356,0,,
2,1777929079808,3096,-21986,28724,-5453804,1252273,1448972,0,0,0,240,399,224,322,336,359,328,305,270,114,124,163,0,,
1,1777929079824,-2211,794,9954,507018,-111177,246789,0,0,0,338,326,296,384,233,419,511,318,353,328,333,370,0,,
2,1777929079824,2684,-34505,20631,-4114788,1154535,39095,0,0,0,239,401,223,318,337,360,327,310,270,113,125,162,0,,
1,1777929079840,-2325,856,10117,627969,-118507,261450,0,0,0,347,331,306,386,231,438,515,286,370,311,296,411,0,,
2,1777929079840,-4101,-40229,15017,-2372600,1395216,-1489289,0,0,0,240,401,223,319,337,361,330,306,272,115,126,164,0,,
1,1777929079856,-2402,904,10490,789237,-138055,265115,0,0,0,363,340,321,388,238,447,506,240,379,302,249,451,0,,
2,1777929079856,-13443,-39569,14721,-676838,927293,-2255314,0,0,0,228,398,219,317,339,361,325,318,269,114,139,163,0,,
1,1777929079872,-2512,799,10945,938289,-235793,288328,0,0,0,371,350,344,405,254,457,484,211,399,295,208,475,0,,
2,1777929079872,-12194,-35319,16400,695164,-654847,-1870469,0,0,0,226,392,211,319,340,355,343,374,261,148,194,153,0,,
1,1777929079888,-2775,574,11773,1127657,-423940,368962,0,0,0,370,359,364,433,259,481,446,197,418,280,190,493,0,,
2,1777929079888,-4527,-20038,19148,2079385,-1966986,-1363451,0,0,0,222,370,197,313,329,341,379,426,254,160,237,142,0,,
1,1777929079904,-3034,411,12739,1513724,-493579,478918,0,0,0,375,377,343,439,281,501,401,189,420,260,183,516,0,,
2,1777929079904,5494,11433,15960,3082425,-2896722,-882089,0,0,0,221,350,186,310,317,332,408,448,253,170,273,137,0,,
1,1777929079920,-3172,306,13428,2080607,-350636,582765,0,0,0,368,402,298,431,326,507,385,193,422,248,187,528,0,,
2,1777929079920,7427,18123,9729,4007275,-3067765,-309097,0,0,0,228,349,188,315,314,338,427,457,258,192,321,140,0,,
1,1777929079936,-3426,373,14084,2737898,-136833,695164,0,0,0,372,421,266,454,305,510,349,179,428,245,178,527,0,,
2,1777929079936,248,488,14328,5496565,-1737300,208915,0,0,0,233,357,206,315,314,352,450,471,270,194,349,150,0,,
1,1777929079952,-3919,526,14706,3364645,43982,841772,0,0,0,358,405,220,464,317,513,290,171,422,233,167,525,0,,
2,1777929079952,-3455,-5240,21612,5714033,-590095,140499,0,0,0,242,373,232,328,316,369,476,488,288,206,354,171,0,,
1,1777929079968,-4565,564,16085,4090353,150272,1089783,0,0,0,371,404,224,414,317,504,224,164,408,209,154,518,0,,
2,1777929079968,-536,-1186,22837,4153883,-346971,-406836,0,0,0,267,391,255,351,323,390,481,490,292,225,356,208,0,,
1,1777929079984,-6030,674,18535,4980995,294437,1431868,0,0,0,367,393,221,417,329,470,240,159,414,177,138,465,0,,
2,1777929079984,2938,258,16515,2001194,-401949,-251676,0,0,0,303,398,259,370,331,402,489,500,294,228,356,232,0,,
1,1777929080000,-8040,880,21330,5865528,576656,1868025,0,0,0,354,388,230,393,301,453,208,148,409,171,137,401,0,,
2,1777929080000,2502,478,10571,735481,-274889,168598,0,0,0,313,420,279,370,342,400,494,508,295,234,352,247,0,,
1,1777929080016,-9030,540,24053,6590014,770911,2298075,0,0,0,345,364,223,371,268,407,211,158,349,160,144,316,0,,
2,1777929080016,1100,425,8667,477696,-199142,274889,0,0,0,321,426,286,375,350,407,502,516,302,247,364,260,0,,
1,1777929080032,-8518,603,25819,7152010,745255,2686585,0,0,0,287,324,243,322,243,363,219,171,291,144,161,251,0,,
2,1777929080032,1215,330,9930,282219,-320093,118507,0,0,0,331,429,286,380,356,409,504,519,302,249,362,262,0,,
1,1777929080048,-7351,2105,25814,7632150,631634,2921157,0,0,0,238,282,235,271,198,329,254,184,266,143,190,189,0,,
2,1777929080048,1445,693,10571,21991,-395840,37873,0,0,0,334,432,289,382,355,411,510,524,304,250,364,264,0,,
1,1777929080064,-7236,3508,23857,7959574,1023810,3026226,0,0,0,225,247,241,243,163,307,281,210,262,144,215,152,0,,
2,1777929080064,1253,1124,10370,-127059,-332310,35430,0,0,0,337,438,290,380,353,410,508,527,302,251,369,268,0,,
1,1777929080080,-8657,5288,17482,7696902,2078163,3007900,0,0,0,234,239,253,243,155,297,281,223,259,147,227,143,0,,
2,1777929080080,1201,1335,10212,-100181,-190589,30543,0,0,0,340,445,291,379,351,407,509,531,301,249,369,265,0,,
1,1777929080096,-10906,8805,12457,6682865,2544864,2919935,0,0,0,241,246,246,251,159,294,277,220,253,154,229,143,0,,
2,1777929080096,1263,1450,10217,-9773,-119729,6108,0,0,0,343,449,293,379,349,405,511,531,301,250,373,264,0,,
1,1777929080112,-11036,15410,10557,3604104,1475850,2289522,0,0,0,240,247,236,258,163,293,279,219,251,160,227,147,0,,
2,1777929080112,1225,1483,10174,86742,-68416,-18325,0,0,0,344,450,294,380,350,407,510,528,299,248,371,266,0,,
1,1777929080128,-6058,16266,10040,-518013,647517,698829,0,0,0,244,247,237,260,161,293,281,216,250,162,225,147,0,,
2,1777929080128,1153,1454,10050,166155,6108,-31764,0,0,0,345,451,295,383,353,410,511,527,301,240,340,270,0,,
1,1777929080144,-4024,11189,7470,-3120299,992045,-786794,0,0,0,260,253,260,255,155,287,274,209,242,161,223,137,0,,
2,1777929080144,1215,1373,9949,218689,73303,-34208,0,0,0,347,450,293,387,352,411,515,524,304,236,304,276,0,,
1,1777929080160,-6566,5441,3795,-3371976,1051909,-1130100,0,0,0,259,253,252,259,160,286,275,207,239,168,224,136,0,,
2,1777929080160,1325,1268,9868,246789,102625,-35430,0,0,0,351,450,290,390,349,410,514,519,300,239,295,281,0,,
1,1777929080176,-7403,3479,2254,-3100751,334754,-807563,0,0,0,253,249,266,257,159,296,279,212,248,171,229,142,0,,
2,1777929080176,1440,1196,9810,239459,85521,-36651,0,0,0,346,450,292,383,348,408,511,518,300,235,285,283,0,,
1,1777929080192,-5704,4015,2952,-3039665,-304210,-442266,0,0,0,249,249,262,261,163,296,281,214,244,171,229,138,0,,
2,1777929080192,1507,1177,9763,216246,25656,-40317,0,0,0,353,450,293,389,352,412,514,514,301,241,288,287,0,,
1,1777929080208,-4647,4804,4479,-3450166,-186924,-591317,0,0,0,249,249,250,261,163,288,286,216,239,171,226,134,0,,
2,1777929080208,1507,1186,9729,202807,-30543,-48869,0,0,0,353,450,294,389,352,415,511,505,301,236,277,292,0,,
1,1777929080224,-5116,5116,5824,-4043927,-101403,-978606,0,0,0,251,252,258,263,170,295,288,217,246,176,229,137,0,,
2,1777929080224,1454,1182,9739,199142,-78190,-61086,0,0,0,354,449,292,392,350,416,516,503,307,230,269,288,0,,
1,1777929080240,-6173,4871,7183,-4753753,-362853,-1469741,0,0,0,249,251,268,262,165,308,289,215,255,172,227,142,0,,
2,1777929080240,1392,1167,9767,199142,-100181,-67195,0,0,0,362,448,297,390,343,409,510,489,301,235,262,298,0,,
1,1777929080256,-6197,3871,8671,-5351179,-861319,-1899790,0,0,0,247,248,273,259,160,316,288,216,262,171,226,147,0,,
2,1777929080256,1335,1148,9786,204028,-100181,-68416,0,0,0,368,452,302,388,344,409,510,490,307,231,259,309,0,,
1,1777929080272,-5891,2775,9959,-5673716,-1134987,-2167349,0,0,0,249,248,270,259,160,309,289,215,257,173,226,144,0,,
2,1777929080272,1320,1124,9796,216246,-86742,-64751,0,0,0,374,457,307,391,350,413,507,481,313,231,260,315,0,,
1,1777929080288,-6001,1675,11624,-5914397,-1265712,-2288301,0,0,0,251,248,266,261,164,304,290,215,252,175,225,141,0,,
2,1777929080288,1340,1081,9782,229685,-79412,-61086,0,0,0,382,457,308,393,348,417,508,473,316,239,255,320,0,,
1,1777929080304,-6288,636,13601,-6107430,-1392772,-2261423,0,0,0,252,248,267,261,163,303,291,216,253,173,223,138,0,,
2,1777929080304,1373,1019,9767,235793,-87964,-61086,0,0,0,384,466,312,395,352,423,506,464,320,244,252,329,0,,
1,1777929080320,-6637,-339,15644,-6173404,-1579697,-2050063,0,0,0,253,248,265,259,158,297,294,216,249,171,222,133,0,,
2,1777929080320,1368,976,9786,237015,-105068,-63529,0,0,0,386,469,316,397,355,429,505,456,324,246,246,340,0,,
1,1777929080336,-6432,-1440,17956,-6097656,-1795943,-1706757,0,0,0,251,249,265,259,162,298,291,216,248,170,227,135,0,,
2,1777929080336,1363,971,9853,254119,-114842,-65973,0,0,0,393,470,313,403,358,434,508,446,328,248,235,352,0,,
1,1777929080352,-6044,-2479,20416,-5930279,-1819156,-1533271,0,0,0,245,252,266,257,169,304,281,222,246,160,234,133,0,,
2,1777929080352,1368,985,9959,293215,-118507,-74525,0,0,0,400,473,307,411,369,441,508,433,334,248,227,366,0,,
1,1777929080368,-6834,-3316,22775,-5657833,-1646892,-1915673,0,0,0,238,258,268,248,180,304,277,251,254,162,260,134,0,,
2,1777929080368,1373,961,10035,360410,-109955,-89186,0,0,0,403,468,305,419,381,453,505,421,342,243,219,382,0,,
1,1777929080384,-8217,-4383,25015,-5387831,-1651779,-2554638,0,0,0,244,259,266,256,180,307,283,248,256,170,244,136,0,,
2,1777929080384,1430,938,10141,449596,-98960,-111177,0,0,0,415,471,311,422,385,462,506,397,348,239,204,395,0,,
1,1777929080400,-9308,-7173,27073,-5167919,-1944994,-3165503,0,0,0,248,257,266,259,178,302,200,207,227,171,234,132,0,,
2,1777929080400,1483,909,10256,552222,-84299,-136833,0,0,0,423,479,307,427,395,468,495,365,347,243,193,409,0,,
1,1777929080416,-9825,-12328,27805,-5037194,-2265088,-3346319,0,0,0,248,260,259,261,185,305,277,242,243,178,238,132,0,,
2,1777929080416,1531,851,10385,669508,-62308,-169820,0,0,0,426,486,309,433,401,475,491,334,347,237,182,425,0,,
1,1777929080432,-9289,-19626,25565,-4971221,-2415361,-2795319,0,0,0,246,261,264,255,179,315,285,249,257,171,238,138,0,,
2,1777929080432,1684,780,10619,799011,-35430,-211359,0,0,0,442,487,332,426,412,470,478,307,360,238,173,448,0,,
1,1777929080448,-4201,-27748,20325,-4604702,-2714685,-1481959,0,0,0,244,262,265,256,177,319,286,248,260,164,237,141,0,,
2,1777929080448,1818,670,11012,959058,-29321,-261450,0,0,0,435,485,318,442,419,487,463,277,360,238,170,464,0,,
1,1777929080464,5096,-33696,15726,-3689626,-2728124,-92851,0,0,0,245,263,266,255,172,320,288,240,263,163,233,143,0,,
2,1777929080464,1842,526,11404,1180191,-70860,-320093,0,0,0,450,495,313,464,427,496,436,255,364,265,177,482,0,,
1,1777929080480,11548,-37568,13242,-2415361,-1725083,919963,0,0,0,244,262,268,254,173,322,290,235,266,163,234,145,0,,
2,1777929080480,1866,373,11864,1452637,-113620,-379958,0,0,0,442,494,286,473,451,494,419,244,373,245,159,501,0,,
1,1777929080496,11476,-38439,12400,-788016,-57421,1734857,0,0,0,236,261,263,254,174,313,292,237,259,169,251,138,0,,
2,1777929080496,2019,234,12940,1882686,-91629,-454483,0,0,0,451,498,278,454,446,500,393,237,376,237,157,513,0,,
1,1777929080512,7896,-32371,13467,978606,1409876,2059837,0,0,0,214,256,254,246,171,302,307,278,255,196,308,132,0,,
2,1777929080512,2330,186,13874,2382374,-102625,-549778,0,0,0,456,505,279,445,447,500,360,228,385,236,156,520,0,,
1,1777929080528,1325,-11045,18119,2718350,2609616,1492954,0,0,0,199,243,229,243,168,293,362,371,251,256,391,125,0,,
2,1777929080528,2488,229,14491,2988352,-199142,-695164,0,0,0,461,502,258,445,453,496,329,222,397,243,163,528,0,,
1,1777929080544,-5068,16305,17870,3358537,3216816,788016,0,0,0,230,236,191,270,156,262,444,430,222,333,418,97,0,,
2,1777929080544,2507,244,15300,3589444,-287106,-827111,0,0,0,469,495,242,443,452,494,301,217,385,243,166,531,0,,
1,1777929080560,-4848,17396,15730,3513696,3431840,378736,0,0,0,238,238,238,283,152,279,470,458,245,397,435,102,0,,
2,1777929080560,3129,378,17152,4397007,-349414,-970053,0,0,0,466,490,245,433,446,495,275,203,364,232,159,517,0,,
1,1777929080576,-808,2187,19617,3966958,2930931,339641,0,0,0,247,256,255,279,176,316,479,477,243,432,448,117,0,,
2,1777929080576,4546,904,20033,5362175,-442266,-1169196,0,0,0,450,483,245,424,439,491,260,183,362,218,150,471,0,,
1,1777929080592,1057,-6982,23905,3325550,1255938,351858,0,0,0,264,256,255,296,160,293,488,477,243,432,450,124,0,,
2,1777929080592,6427,1282,23819,6483723,-559552,-1496619,0,0,0,423,467,241,421,428,481,257,178,357,198,137,395,0,,
1,1777929080608,-1608,-808,16506,1696983,-15882,167377,0,0,0,269,257,262,289,154,302,496,471,255,413,456,126,0,,
2,1777929080608,7748,780,27604,7610159,-538783,-1948660,0,0,0,360,446,227,398,410,452,263,197,328,173,125,326,0,,
1,1777929080624,-3216,3833,8332,994488,-326202,-26878,0,0,0,270,276,302,295,183,317,504,485,264,433,464,131,0,,
2,1777929080624,7820,1263,30050,8443379,-233350,-2425134,0,0,0,301,424,204,363,389,403,281,229,297,150,124,265,0,,
1,1777929080640,-3211,1966,6901,1012814,-21991,-113620,0,0,0,281,274,320,304,192,324,514,477,263,446,478,145,0,,
2,1777929080640,6661,3129,27997,8813563,346971,-2789210,0,0,0,251,391,212,323,341,371,290,265,268,123,120,205,0,,
1,1777929080656,-2933,-732,9839,592539,219911,-134390,0,0,0,287,264,331,308,173,335,524,474,272,474,493,155,0,,
2,1777929080656,7638,4733,21402,8823337,1139874,-3029891,0,0,0,244,377,221,295,316,341,292,273,262,117,158,162,0,,
1,1777929080672,-2608,272,10782,141720,263893,-119729,0,0,0,290,260,343,313,155,344,529,469,282,496,503,162,0,,
2,1777929080672,7221,7413,14936,8125729,1354899,-3468492,0,0,0,240,380,216,302,324,352,303,294,268,111,147,164,0,,
1,1777929080688,-2330,1646,10251,173485,191811,-48869,0,0,0,293,261,360,318,148,347,535,459,292,495,509,166,0,,
2,1777929080688,3474,14233,12739,5358509,-47647,-3433062,0,0,0,245,386,218,304,323,349,304,290,265,115,148,162,0,,
1,1777929080704,-2182,1636,9968,334754,86742,18325,0,0,0,302,269,368,333,150,348,538,453,298,496,510,173,0,,
2,1777929080704,2067,19846,11921,508239,-1649336,-2193006,0,0,0,249,389,216,306,326,348,301,287,259,119,151,163,0,,
1,1777929080720,-2301,1148,10064,362853,-9773,40317,0,0,0,321,280,365,358,158,351,531,448,296,505,511,188,0,,
2,1777929080720,4580,15888,10461,-4147774,-2273640,-238237,0,0,0,245,393,218,306,326,348,301,289,260,115,150,159,0,,
1,1777929080736,-2421,1186,10179,334754,-83077,58643,0,0,0,331,270,370,363,157,353,524,445,300,496,502,198,0,,
2,1777929080736,6379,6767,6436,-4978551,-1634675,466701,0,0,0,239,396,220,304,327,349,298,291,261,110,151,158,0,,
1,1777929080752,-2354,1387,10083,365297,-145385,80634,0,0,0,326,275,382,370,163,371,522,450,333,469,486,219,0,,
2,1777929080752,5719,2273,3675,-4418999,-966388,357967,0,0,0,235,398,221,303,328,350,296,293,259,113,158,161,0,,
1,1777929080768,-2388,1277,9777,431270,-211359,91629,0,0,0,321,276,372,376,164,374,512,441,350,460,476,237,0,,
2,1777929080768,4379,3211,3871,-4199087,-735481,158824,0,0,0,233,397,221,302,329,350,296,295,258,115,162,162,0,,
1,1777929080784,-2560,1057,9490,449596,-226020,94073,0,0,0,327,284,361,375,185,381,509,417,349,452,471,242,0,,
2,1777929080784,4249,5168,5417,-4918686,-638965,372627,0,0,0,230,396,221,302,330,349,296,296,257,113,161,161,0,,
1,1777929080800,-2670,899,9317,404392,-175929,102625,0,0,0,318,297,354,369,207,370,518,411,349,433,452,236,0,,
2,1777929080800,4924,5116,6384,-5572312,-312763,766025,0,0,0,229,396,221,302,332,349,297,297,258,113,159,159,0,,
1,1777929080816,-2603,894,9322,331088,-106290,120951,0,0,0,316,300,353,365,210,371,512,402,355,429,443,241,0,,
2,1777929080816,5254,3565,7020,-5709146,301767,1144761,0,0,0,229,399,221,295,338,346,299,301,259,116,159,157,0,,
1,1777929080832,-2522,942,9418,287106,-64751,135612,0,0,0,323,288,376,372,184,376,504,381,356,429,428,241,0,,
2,1777929080832,5010,2359,7973,-5629734,813672,1425759,0,0,0,229,399,223,283,349,341,298,301,258,119,165,159,0,,
1,1777929080848,-2483,942,9451,272445,-45204,141720,0,0,0,328,276,385,373,164,379,505,369,359,425,412,241,0,,
2,1777929080848,4489,1852,9356,-5572312,1111774,1651779,0,0,0,229,399,223,302,332,351,297,302,258,114,165,160,0,,
1,1777929080864,-2435,899,9447,261450,-31764,144164,0,0,0,321,275,374,374,162,385,505,363,367,411,403,247,0,,
2,1777929080864,4058,1675,10830,-5629734,1263269,1825265,0,0,0,230,399,223,302,332,351,296,301,260,113,165,161,0,,
1,1777929080880,-2383,847,9442,244346,-26878,135612,0,0,0,315,280,369,376,166,391,502,363,371,413,387,266,0,,
2,1777929080880,3967,1588,12280,-5765346,1310916,1902234,0,0,0,230,399,224,303,335,354,296,301,260,113,165,160,0,,
1,1777929080896,-2364,818,9480,202807,-10995,127059,0,0,0,319,285,373,379,169,395,498,362,369,412,374,278,0,,
2,1777929080896,4465,1416,13764,-5899736,1395216,1803274,0,0,0,230,400,224,304,333,352,300,303,262,110,162,158,0,,
1,1777929080912,-2368,818,9538,164933,8552,118507,0,0,0,324,288,370,385,172,395,499,353,370,384,379,273,0,,
2,1777929080912,4728,1450,15477,-6024352,1563815,1544267,0,0,0,235,402,227,302,329,350,301,301,261,112,164,159,0,,
1,1777929080928,-2306,799,9542,196698,-21991,109955,0,0,0,325,284,369,387,170,398,504,345,379,382,367,289,0,,
2,1777929080928,4455,1842,17736,-6185621,1717753,1252273,0,0,0,233,398,225,305,331,351,307,302,264,114,162,158,0,,
1,1777929080944,-2287,775,9609,239459,-73303,114842,0,0,0,314,287,385,368,188,416,503,348,393,375,361,306,0,,
2,1777929080944,4335,2220,21004,-6400645,1803274,1072679,0,0,0,232,398,225,305,332,352,307,303,267,110,160,157,0,,
1,1777929080960,-2426,751,9681,280998,-112399,141720,0,0,0,308,289,383,352,194,424,505,334,369,367,361,318,0,,
2,1777929080960,4795,1919,24551,-6548475,1891238,1051909,0,0,0,230,397,224,304,332,352,306,302,266,111,160,159,0,,
1,1777929080976,-2593,698,9672,332310,-112399,190589,0,0,0,328,288,385,370,183,416,518,323,370,362,342,318,0,,
2,1777929080976,5221,-641,28083,-6557027,2065946,1214400,0,0,0,231,397,223,306,331,352,311,300,267,116,160,161,0,,
1,1777929080992,-2622,655,9672,399505,-108734,252898,0,0,0,325,295,344,373,193,415,519,295,365,349,332,361,0,,
2,1777929080992,4254,-6417,30567,-6359107,2370157,1424537,0,0,0,235,398,224,311,331,355,317,299,271,120,160,162,0,,
1,1777929081008,-2593,646,9791,488692,-120951,306654,0,0,0,321,290,335,363,189,440,524,282,360,332,312,362,0,,
2,1777929081008,1713,-14970,31103,-5909510,2477669,1458746,0,0,0,235,400,225,315,332,360,319,299,275,120,159,164,0,,
1,1777929081024,-2636,603,9959,620639,-140499,356745,0,0,0,336,312,345,367,189,468,521,263,383,323,295,388,0,,
2,1777929081024,-808,-27106,27039,-4888143,1979203,1025031,0,0,0,235,399,227,313,331,360,319,300,276,118,160,163,0,,
1,1777929081040,-2713,598,10217,791681,-150272,383623,0,0,0,342,319,364,387,197,460,515,230,380,314,269,420,0,,
2,1777929081040,-3163,-38487,19631,-3202155,1379333,-48869,0,0,0,235,398,226,315,333,363,318,301,276,119,163,165,0,,
1,1777929081056,-2775,598,10681,1036027,-157603,403171,0,0,0,344,331,365,402,213,463,511,206,373,308,237,451,0,,
2,1777929081056,-8284,-42397,15635,-1295034,987158,-1434311,0,0,0,235,397,223,317,337,364,317,311,272,120,167,162,0,,
1,1777929081072,-2617,440,11280,1353677,-191811,409279,0,0,0,352,352,341,417,233,489,499,200,384,291,208,486,0,,
2,1777929081072,-11983,-40583,16434,210137,222354,-2063502,0,0,0,225,394,218,312,339,352,335,370,268,128,187,150,0,,
1,1777929081088,-2488,157,11844,1698205,-305432,395840,0,0,0,361,362,311,430,252,511,476,198,410,265,189,514,0,,
2,1777929081088,-10361,-27097,21167,1861917,-1247386,-1747074,0,0,0,215,370,198,311,334,341,372,438,256,164,236,144,0,,
1,1777929081104,-2885,-67,12423,2080607,-426383,408057,0,0,0,361,371,291,434,276,519,431,186,429,250,181,525,0,,
2,1777929081104,899,6891,18774,3216816,-3246137,-813672,0,0,0,220,327,176,300,305,323,409,456,246,212,293,134,0,,
1,1777929081120,-3498,-239,13079,2543642,-461814,504574,0,0,0,361,394,256,450,310,515,369,175,428,239,171,535,0,,
2,1777929081120,7571,20617,11983,3940080,-4438546,-70860,0,0,0,228,332,181,305,305,335,445,462,262,185,311,142,0,,
1,1777929081136,-4091,-368,14032,3116634,-421497,670730,0,0,0,373,401,220,463,333,515,335,171,458,242,161,525,0,,
2,1777929081136,2579,6255,12830,4895474,-3649308,447153,0,0,0,233,337,188,310,308,345,458,465,267,194,334,144,0,,
1,1777929081152,-5130,-301,15343,3847229,-294437,934623,0,0,0,359,421,222,456,330,515,296,163,461,211,146,506,0,,
2,1777929081152,-4647,-5216,19540,5131268,-1836260,679282,0,0,0,236,344,197,319,310,352,468,469,269,196,342,142,0,,
1,1777929081168,-6523,287,17640,4707327,-144164,1359786,0,0,0,365,398,238,424,320,499,211,152,457,163,127,479,0,,
2,1777929081168,-5393,-1952,21086,4210083,-632856,233350,0,0,0,245,359,222,329,314,361,479,480,276,205,344,151,0,,
1,1777929081184,-8159,899,20622,5627290,76969,1848478,0,0,0,361,373,225,390,296,478,202,140,430,154,108,421,0,,
2,1777929081184,-569,2201,15903,3082425,-139277,-288328,0,0,0,258,382,250,343,323,376,491,492,285,214,344,179,0,,
1,1777929081200,-9887,330,23756,6511823,227241,2373822,0,0,0,347,344,210,370,263,442,213,138,381,144,111,317,0,,
2,1777929081200,2402,1325,12285,2136806,120951,-244346,0,0,0,282,404,266,359,337,387,503,508,289,219,336,210,0,,
1,1777929081216,-10346,-483,26149,7187440,207694,2828306,0,0,0,302,326,217,329,245,402,204,148,345,136,116,265,0,,
2,1777929081216,2249,-818,11160,1260825,46425,25656,0,0,0,310,418,274,373,347,394,511,517,292,224,330,233,0,,
1,1777929081232,-8729,244,27470,7621154,248011,3156951,0,0,0,259,304,215,289,212,344,231,173,287,138,143,193,0,,
2,1777929081232,1139,-751,11217,560774,-229685,81855,0,0,0,330,429,283,380,353,402,515,515,299,228,333,251,0,,
1,1777929081248,-8092,2139,26901,7834957,692721,3286454,0,0,0,229,255,224,255,171,301,265,190,261,148,179,154,0,,
2,1777929081248,765,229,10878,182037,-357967,30543,0,0,0,341,434,291,381,356,408,518,518,301,234,334,263,0,,
1,1777929081264,-9973,4556,22033,7819075,1499063,3279124,0,0,0,232,231,230,249,154,292,281,197,258,155,201,142,0,,
2,1777929081264,799,880,10370,52534,-298102,-4886,0,0,0,348,435,295,385,351,397,522,522,300,238,334,256,0,,
1,1777929081280,-12553,8384,13677,7299839,1793500,3463605,0,0,0,243,235,233,254,152,294,284,204,253,157,207,138,0,,
2,1777929081280,885,1033,10279,13439,-188146,-4886,0,0,0,355,436,294,386,353,396,524,526,298,241,332,256,0,,
1,1777929081296,-11844,13247,10471,5429370,1225395,3499036,0,0,0,248,239,234,254,154,288,283,208,246,157,205,141,0,,
2,1777929081296,880,1134,10318,30543,-136833,-8552,0,0,0,356,441,289,382,354,394,523,527,302,238,331,258,0,,
1,1777929081312,-6537,17937,10902,1200961,664621,2401922,0,0,0,257,245,234,256,156,283,280,207,242,155,204,141,0,,
2,1777929081312,756,1244,10265,111177,-85521,-28099,0,0,0,361,441,289,387,356,398,529,532,303,245,329,262,0,,
1,1777929081328,-3464,14223,9868,-2988352,1423316,161268,0,0,0,254,247,253,250,152,282,274,204,242,155,205,143,0,,
2,1777929081328,713,1268,10193,207694,0,-48869,0,0,0,361,442,292,385,354,396,518,532,295,238,322,266,0,,
1,1777929081344,-5355,7796,6523,-4448320,1987755,-1112996,0,0,0,252,246,264,253,152,288,276,205,241,159,210,142,0,,
2,1777929081344,780,1177,10112,279776,74525,-56199,0,0,0,364,441,287,398,354,400,519,523,295,244,314,265,0,,
1,1777929081360,-8178,3943,3220,-4019493,1233947,-1070235,0,0,0,251,248,264,256,158,291,272,214,239,152,220,140,0,,
2,1777929081360,856,1091,10007,326202,112399,-58643,0,0,0,363,441,289,393,352,402,517,521,297,240,300,268,0,,
1,1777929081376,-7465,3977,2976,-3718947,251676,-719599,0,0,0,254,250,258,253,154,281,284,215,235,154,208,138,0,,
2,1777929081376,938,1033,9920,351858,116064,-59864,0,0,0,364,443,290,393,358,403,514,518,297,238,291,271,0,,
1,1777929081392,-5235,5144,4493,-3997502,-91629,-708603,0,0,0,246,242,263,254,153,290,281,212,239,150,207,139,0,,
2,1777929081392,1033,957,9873,365297,92851,-63529,0,0,0,368,445,295,390,356,407,510,510,304,232,280,273,0,,
1,1777929081408,-4938,5446,6054,-4720766,87964,-1150870,0,0,0,247,243,259,258,153,288,285,213,239,150,204,135,0,,
2,1777929081408,1067,880,9834,351858,46425,-73303,0,0,0,374,444,298,389,352,407,510,496,308,233,271,280,0,,
1,1777929081424,-5867,4833,7039,-5312084,-39095,-1540602,0,0,0,250,243,262,256,150,288,284,213,238,151,204,136,0,,
2,1777929081424,1062,861,9815,334754,3665,-85521,0,0,0,377,444,296,393,352,406,512,479,306,236,265,292,0,,
1,1777929081440,-6283,3833,7906,-5676159,-499687,-1777617,0,0,0,247,242,262,257,152,290,287,214,239,152,207,137,0,,
2,1777929081440,1062,856,9830,329867,-26878,-97738,0,0,0,379,444,294,397,353,409,507,467,305,235,257,304,0,,
1,1777929081456,-5786,2833,9126,-5836206,-919963,-1946216,0,0,0,245,242,263,258,152,292,286,213,238,152,206,138,0,,
2,1777929081456,1052,823,9834,335975,-57421,-106290,0,0,0,385,444,297,398,357,410,502,459,306,235,245,316,0,,
1,1777929081472,-5479,2053,10772,-5925392,-1105666,-2074498,0,0,0,243,242,264,258,151,294,284,212,239,152,206,138,0,,
2,1777929081472,995,737,9839,339641,-73303,-102625,0,0,0,392,450,305,400,358,414,503,451,310,235,240,324,0,,
1,1777929081488,-5867,1521,12859,-6053674,-1224173,-2105041,0,0,0,239,240,263,259,153,297,285,214,242,152,208,138,0,,
2,1777929081488,957,650,9853,338419,-80634,-96516,0,0,0,393,470,302,401,365,421,502,439,318,250,237,340,0,,
1,1777929081504,-6719,1134,15041,-6221051,-1441641,-1946216,0,0,0,238,239,264,261,156,299,285,214,242,153,210,138,0,,
2,1777929081504,961,617,9906,339641,-78190,-95294,0,0,0,403,475,305,413,373,439,498,427,324,234,218,355,0,,
1,1777929081520,-6853,277,17616,-6342002,-1721418,-1634675,0,0,0,241,238,263,262,154,298,284,212,242,154,212,141,0,,
2,1777929081520,966,636,10035,366519,-70860,-102625,0,0,0,417,474,301,418,373,439,508,415,331,237,211,370,0,,
1,1777929081536,-6657,-722,20181,-6357885,-1842369,-1436755,0,0,0,242,238,265,264,154,299,284,212,241,152,209,138,0,,
2,1777929081536,971,607,10102,433714,-53756,-117286,0,0,0,421,486,302,424,400,456,502,400,339,240,208,387,0,,
1,1777929081552,-7063,-1502,22943,-6190508,-1826487,-1585806,0,0,0,241,242,264,263,155,299,284,214,240,150,206,138,0,,
2,1777929081552,976,540,10122,518013,-21991,-131946,0,0,0,434,491,310,430,394,457,506,372,339,248,198,404,0,,
1,1777929081568,-7954,-2569,26168,-5943718,-1836260,-1980425,0,0,0,240,243,270,260,163,302,283,217,243,150,206,136,0,,
2,1777929081568,1019,464,10227,601091,34208,-145385,0,0,0,435,493,306,435,399,466,493,343,341,250,197,428,0,,
1,1777929081584,-8705,-5331,29155,-5690820,-2008524,-2471560,0,0,0,239,244,264,260,159,298,282,216,246,148,204,136,0,,
2,1777929081584,1186,421,10428,684169,103847,-164933,0,0,0,441,498,309,444,408,471,483,315,346,254,194,448,0,,
1,1777929081600,-8298,-12457,30777,-5462356,-2387261,-2615724,0,0,0,240,248,264,263,162,300,281,212,251,153,209,139,0,,
2,1777929081600,1445,315,10648,795346,172263,-204028,0,0,0,451,503,307,440,419,474,469,289,352,252,185,471,0,,
1,1777929081616,-7269,-22282,29121,-5371948,-2472782,-2073276,0,0,0,243,255,270,268,174,307,278,211,251,163,220,143,0,,
2,1777929081616,1641,205,10997,948062,248011,-261450,0,0,0,461,511,307,435,436,482,450,272,360,243,175,495,0,,
1,1777929081632,-3910,-32481,23560,-5174028,-2474004,-855211,0,0,0,244,257,278,269,176,314,277,211,255,163,219,143,0,,
2,1777929081632,1660,129,11619,1182635,331088,-332310,0,0,0,468,518,307,441,445,489,432,259,370,242,169,510,0,,
1,1777929081648,6322,-40464,17516,-3946189,-2460565,546113,0,0,0,244,252,280,268,173,315,276,206,255,163,222,144,0,,
2,1777929081648,1478,19,12318,1545489,372627,-370184,0,0,0,469,519,295,449,441,489,412,242,373,249,167,522,0,,
1,1777929081664,16123,-45881,14237,-1865582,-1362229,1486845,0,0,0,241,249,268,266,167,308,278,205,250,182,244,145,0,,
2,1777929081664,1402,-71,12993,1993864,353080,-373849,0,0,0,469,516,282,448,445,492,373,226,366,253,168,536,0,,
1,1777929081680,14568,-43909,14912,97738,533896,1628566,0,0,0,229,249,245,264,173,299,306,251,247,209,295,138,0,,
2,1777929081680,1641,-57,13821,2499660,206472,-360410,0,0,0,468,513,256,442,453,492,330,230,365,248,173,545,0,,
1,1777929081696,6657,-27518,17932,1965764,2461786,1474628,0,0,0,215,243,208,259,181,280,366,347,237,239,365,120,0,,
2,1777929081696,2345,-134,14725,3169168,-40317,-419053,0,0,0,468,511,241,444,460,495,291,221,361,254,179,556,0,,
1,1777929081712,-5762,7834,18482,3165503,4212526,806342,0,0,0,214,228,159,250,159,242,425,419,218,294,409,94,0,,
2,1777929081712,2885,-282,15534,3848451,-173485,-559552,0,0,0,472,500,250,437,456,503,275,213,369,238,166,548,0,,
1,1777929081728,-9126,20564,12816,3497814,4505742,-321315,0,0,0,222,232,157,255,157,249,447,457,234,340,422,98,0,,
2,1777929081728,3809,-263,17027,4714657,-180816,-811229,0,0,0,476,503,245,423,454,497,252,203,367,232,164,515,0,,
1,1777929081744,-952,4800,12414,4547280,2962696,-1051909,0,0,0,238,223,161,271,142,281,464,459,245,388,436,113,0,,
2,1777929081744,4986,-148,19473,5549099,-182037,-1117883,0,0,0,472,496,272,422,436,488,236,171,374,206,137,446,0,,
1,1777929081760,6278,-4029,20224,4985882,766025,-637743,0,0,0,256,221,182,297,147,286,475,474,239,419,447,95,0,,
2,1777929081760,6101,-440,23833,6508158,-200363,-1480737,0,0,0,434,469,258,416,416,470,233,160,362,189,124,385,0,,
1,1777929081776,3843,-2278,22617,3802025,-289550,381179,0,0,0,270,241,269,303,157,318,495,484,277,436,463,133,0,,
2,1777929081776,6853,-268,28068,7384139,-113620,-1811826,0,0,0,362,444,229,399,404,450,254,182,327,177,124,330,0,,
1,1777929081792,-3340,-43,16994,1986533,-259006,544891,0,0,0,274,257,261,318,191,340,495,493,293,453,471,167,0,,
2,1777929081792,6920,1048,30155,8046316,-25656,-2081828,0,0,0,299,415,204,360,385,408,274,224,297,150,123,273,0,,
1,1777929081808,-5049,-33,11524,808785,-97738,41538,0,0,0,284,258,275,326,165,373,504,490,308,484,487,205,0,,
2,1777929081808,8044,2364,30188,8533787,417831,-2425134,0,0,0,252,384,206,310,340,355,290,266,268,112,113,183,0,,
1,1777929081824,-2388,-62,9442,398284,-15882,-301767,0,0,0,298,259,294,340,166,367,514,486,305,480,503,223,0,,
2,1777929081824,8470,5307,27164,8517904,996932,-2899166,0,0,0,241,378,213,294,321,341,299,289,263,95,111,152,0,,
1,1777929081840,-1856,636,9954,290771,-8552,-150272,0,0,0,298,266,292,336,170,358,515,488,298,478,521,225,0,,
2,1777929081840,7197,10557,18655,7442782,471587,-3390302,0,0,0,246,384,217,300,323,348,301,293,267,96,115,161,0,,
1,1777929081856,-2431,1072,10174,222354,42760,-13439,0,0,0,304,273,293,335,184,360,519,487,300,474,521,238,0,,
2,1777929081856,6446,16453,12878,4184426,-1012814,-3382971,0,0,0,247,387,217,304,324,351,300,290,262,102,117,165,0,,
1,1777929081872,-2426,1110,9987,207694,87964,4886,0,0,0,306,278,295,336,188,366,522,479,304,462,515,257,0,,
2,1777929081872,5149,19808,11825,-717155,-1705535,-2610838,0,0,0,245,387,215,305,326,351,302,290,258,106,119,167,0,,
1,1777929081888,-2105,1110,9987,235793,54977,2443,0,0,0,304,284,302,335,183,376,517,480,310,450,509,273,0,,
2,1777929081888,3752,14453,10753,-4103792,-1920560,-1385442,0,0,0,244,389,217,305,326,350,301,292,257,106,121,164,0,,
1,1777929081904,-2038,1158,10155,293215,-25656,21991,0,0,0,308,292,312,337,184,383,512,480,320,439,496,280,0,,
2,1777929081904,4580,7441,6700,-5011538,-2101376,-568104,0,0,0,239,390,218,305,329,349,293,290,256,105,120,160,0,,
1,1777929081920,-2144,1177,10169,364075,-83077,58643,0,0,0,311,299,312,339,188,386,513,467,329,421,484,281,0,,
2,1777929081920,6882,4254,2967,-4432438,-1674992,-388510,0,0,0,233,392,218,303,330,348,302,300,258,98,123,160,0,,
1,1777929081936,-2163,1105,9987,422718,-125838,76969,0,0,0,311,299,317,342,190,397,512,467,333,406,471,289,0,,
2,1777929081936,7035,5345,3359,-4387234,-492357,-326202,0,0,0,230,396,220,300,330,348,303,301,259,100,123,159,0,,
1,1777929081952,-2249,957,9667,437379,-145385,81855,0,0,0,311,297,309,343,188,393,513,441,332,396,442,289,0,,
2,1777929081952,5742,6417,5479,-4885700,298102,-8552,0,0,0,232,397,223,301,330,349,304,300,259,96,118,157,0,,
1,1777929081968,-2316,856,9423,409279,-123394,90408,0,0,0,326,301,320,344,190,393,514,425,332,391,419,309,0,,
2,1777929081968,5312,5833,7126,-5464800,583987,522900,0,0,0,232,397,221,302,330,350,304,302,258,100,122,158,0,,
1,1777929081984,-2292,842,9006,344527,-62308,108734,0,0,0,306,304,314,339,195,401,504,409,352,376,412,335,0,,
2,1777929081984,6039,4374,7580,-5644394,929736,873537,0,0,0,231,397,221,303,332,351,303,303,258,94,120,156,0,,
1,1777929082000,-2239,842,8992,326202,-39095,114842,0,0,0,306,295,306,339,196,396,498,378,322,382,392,319,0,,
2,1777929082000,5680,3584,8628,-5678603,1417207,1062905,0,0,0,229,397,222,300,331,351,302,303,257,97,121,156,0,,
1,1777929082016,-2215,804,9428,360410,-56199,113620,0,0,0,297,293,286,350,197,393,498,362,323,361,381,323,0,,
2,1777929082016,4627,3608,10308,-5755572,1688431,1211956,0,0,0,230,396,219,296,342,349,306,307,260,106,126,158,0,,
1,1777929082032,-2196,732,9619,368962,-64751,107512,0,0,0,295,301,273,354,225,397,498,350,326,366,376,331,0,,
2,1777929082032,4479,3799,12146,-6025574,1742187,1417207,0,0,0,229,397,219,298,339,349,307,308,261,105,130,160,0,,
1,1777929082048,-2163,655,9590,345749,-59864,98960,0,0,0,299,311,276,352,241,400,500,351,325,364,371,335,0,,
2,1777929082048,4848,3833,13917,-6328563,1890017,1549154,0,0,0,231,398,221,300,335,350,305,305,260,101,128,159,0,,
1,1777929082064,-2120,564,9547,318871,-68416,97738,0,0,0,299,310,279,361,237,402,498,338,326,356,357,343,0,,
2,1777929082064,4709,3598,16573,-6615670,2160019,1594358,0,0,0,232,397,223,301,334,351,306,304,261,101,129,158,0,,
1,1777929082080,-2115,507,9571,318871,-111177,111177,0,0,0,304,306,268,367,233,401,500,330,329,356,349,354,0,,
2,1777929082080,4254,3187,19880,-6833138,2305405,1623679,0,0,0,231,397,225,299,331,349,309,306,264,103,131,157,0,,
1,1777929082096,-2167,478,9581,329867,-158824,138055,0,0,0,313,304,252,368,230,406,502,325,340,357,343,375,0,,
2,1777929082096,4422,2876,24230,-6996850,2258979,1742187,0,0,0,231,397,223,300,330,348,311,306,264,102,127,157,0,,
1,1777929082112,-2254,464,9609,350636,-184481,167377,0,0,0,320,308,243,374,233,419,505,312,360,353,330,396,0,,
2,1777929082112,5077,2134,29169,-7159340,2204001,2059837,0,0,0,232,396,222,304,332,351,314,304,264,100,123,155,0,,
1,1777929082128,-2345,464,9681,386066,-186924,191811,0,0,0,327,321,246,378,246,434,509,295,381,344,317,403,0,,
2,1777929082128,5623,-1502,33261,-7242418,2375044,2664594,0,0,0,232,397,224,305,331,351,317,302,266,103,124,155,0,,
1,1777929082144,-2397,425,9844,452040,-182037,213802,0,0,0,330,325,260,374,227,455,497,264,399,329,289,426,0,,
2,1777929082144,4704,-11835,36644,-6949202,2809980,3116634,0,0,0,232,390,219,311,331,357,320,294,268,109,132,160,0,,
1,1777929082160,-2450,349,10088,563217,-207694,239459,0,0,0,335,329,268,397,233,474,500,235,410,325,252,449,0,,
2,1777929082160,4694,-25331,36525,-6318790,2379930,2867401,0,0,0,241,395,225,313,330,358,322,298,272,112,131,164,0,,
1,1777929082176,-2565,272,10380,704938,-262672,271224,0,0,0,331,346,292,406,259,482,485,228,422,297,236,484,0,,
2,1777929082176,7078,-39995,28265,-5101946,1372003,1557706,0,0,0,238,394,222,313,332,360,319,299,271,107,128,164,0,,
1,1777929082192,-2756,268,10796,869872,-331088,304210,0,0,0,333,358,248,427,275,509,469,213,418,280,217,507,0,,
2,1777929082192,2115,-47523,17568,-2971248,1705535,-739146,0,0,0,239,395,224,313,332,360,319,299,270,104,122,163,0,,
1,1777929082208,-2914,229,11438,1134987,-401949,349414,0,0,0,333,376,277,409,280,513,442,204,438,258,192,543,0,,
2,1777929082208,-10232,-47283,14797,-844215,1941329,-2268753,0,0,0,239,394,225,313,332,360,321,299,272,105,122,163,0,,
1,1777929082224,-2651,28,11998,1447750,-483805,394618,0,0,0,341,406,261,427,299,510,410,197,452,262,193,548,0,,
2,1777929082224,-16276,-42598,17372,702495,569326,-2046398,0,0,0,232,391,221,311,336,353,324,336,261,109,148,146,0,,
1,1777929082240,-2416,-162,12648,1816713,-569326,400727,0,0,0,350,412,237,446,320,515,372,185,454,258,183,555,0,,
2,1777929082240,-8427,-29619,19851,2268753,-1301142,-911410,0,0,0,218,373,201,311,332,342,363,399,256,147,215,141,0,,
1,1777929082256,-3182,-239,13242,2331061,-552222,431270,0,0,0,354,425,207,456,333,526,351,172,472,245,173,560,0,,
2,1777929082256,1794,6159,21933,3424510,-2795319,262672,0,0,0,222,346,184,306,312,330,405,438,253,193,273,139,0,,
1,1777929082272,-4216,-277,13620,2906496,-381179,607200,0,0,0,360,433,196,468,343,536,317,165,476,239,160,552,0,,
2,1777929082272,6709,28748,13720,3199712,-3728721,1362229,0,0,0,233,332,182,306,298,333,436,456,258,204,308,139,0,,
1,1777929082288,-4718,-373,14520,3588222,-229685,882089,0,0,0,373,429,202,453,348,535,254,159,468,217,140,541,0,,
2,1777929082288,928,14572,7561,4018271,-3426953,1893682,0,0,0,239,340,200,316,300,347,459,467,273,217,328,144,0,,
1,1777929082304,-5369,-392,15931,4272391,-189368,1160643,0,0,0,388,415,215,435,329,537,216,144,462,191,119,518,0,,
2,1777929082304,-8097,-3488,17066,5199684,-1621236,1112996,0,0,0,249,361,231,334,310,363,479,479,286,244,337,155,0,,
1,1777929082320,-7772,-291,18894,5131268,-189368,1598023,0,0,0,391,392,230,433,296,535,211,129,445,177,105,466,0,,
2,1777929082320,-7475,-5891,25173,4541172,-353080,-206472,0,0,0,263,388,256,355,326,382,497,497,289,215,335,176,0,,
1,1777929082336,-10236,-215,22483,5920505,-119729,2140471,0,0,0,364,359,230,405,289,498,190,131,412,151,100,394,0,,
2,1777929082336,1646,674,21737,2239431,-112399,-784350,0,0,0,276,403,271,365,332,392,504,505,294,221,332,205,0,,
1,1777929082352,-11007,-244,25537,6686530,168598,2755002,0,0,0,327,311,218,372,276,453,194,136,382,146,101,310,0,,
2,1777929082352,3158,2196,12428,880867,-53756,-58643,0,0,0,303,415,285,374,336,394,510,511,300,232,339,221,0,,
1,1777929082368,-10524,-406,28169,7440338,475253,3292563,0,0,0,268,294,199,307,240,373,199,156,316,125,122,231,0,,
2,1777929082368,827,1273,8308,576656,83077,306654,0,0,0,322,423,287,395,342,399,515,516,305,246,355,227,0,,
1,1777929082384,-9892,880,29174,7993782,472809,3567452,0,0,0,224,269,207,272,196,327,242,173,258,127,148,154,0,,
2,1777929082384,411,555,9442,482583,73303,167377,0,0,0,321,424,290,381,345,401,518,518,304,242,354,232,0,,
1,1777929082400,-10801,5900,25541,8130616,290771,3764151,0,0,0,236,230,237,254,154,301,284,191,255,157,160,146,0,,
2,1777929082400,1306,1158,10461,180816,-150272,43982,0,0,0,327,427,293,383,349,406,518,519,304,245,369,239,0,,
1,1777929082416,-11514,10787,16731,7828848,586430,4002389,0,0,0,237,233,230,258,158,301,282,197,255,148,185,140,0,,
2,1777929082416,1268,1785,10385,-15882,-288328,26878,0,0,0,330,428,304,384,348,407,521,522,304,248,371,233,0,,
1,1777929082432,-11485,11758,11763,6765943,905302,4109901,0,0,0,235,235,221,260,163,302,274,192,249,152,221,144,0,,
2,1777929082432,890,2038,10088,-1221,-249233,30543,0,0,0,336,430,301,386,351,406,522,523,302,250,366,235,0,,
1,1777929082448,-8743,15419,10016,3933972,559552,3254689,0,0,0,231,237,217,257,164,296,272,189,243,157,226,145,0,,
2,1777929082448,799,2043,10083,125838,-188146,0,0,0,0,340,433,297,389,354,404,520,521,299,251,355,237,0,,
1,1777929082464,-3996,18157,9509,-926071,387288,861319,0,0,0,236,239,217,256,178,287,283,185,239,164,228,148,0,,
2,1777929082464,684,2124,10189,246789,-123394,-28099,0,0,0,343,436,298,393,355,405,519,519,296,254,342,241,0,,
1,1777929082480,-3914,12778,8475,-4261395,1166752,-1343903,0,0,0,237,242,214,257,172,292,279,185,251,160,228,151,0,,
2,1777929082480,626,2115,10160,360410,7330,-40317,0,0,0,346,441,299,395,358,407,517,515,300,249,330,245,0,,
1,1777929082496,-7025,5833,6384,-5373170,1450194,-2105041,0,0,0,235,242,216,258,162,301,273,188,261,159,228,153,0,,
2,1777929082496,708,1962,10002,445931,128281,-41538,0,0,0,344,440,295,396,359,408,514,508,312,242,313,246,0,,
1,1777929082512,-7853,3642,4948,-4965112,627969,-1459967,0,0,0,232,240,224,257,160,304,275,190,262,163,230,155,0,,
2,1777929082512,923,1761,9810,465479,167377,-34208,0,0,0,342,433,293,395,354,407,512,497,321,242,292,250,0,,
1,1777929082528,-6374,3139,4761,-4695110,-234572,-748920,0,0,0,231,241,225,257,159,302,274,187,262,162,231,155,0,,
2,1777929082528,1119,1646,9710,437379,116064,-29321,0,0,0,344,432,296,393,353,406,510,479,323,237,279,261,0,,
1,1777929082544,-4350,3728,6087,-4888143,-354301,-559552,0,0,0,235,244,220,261,161,301,273,189,260,161,228,154,0,,
2,1777929082544,1182,1593,9700,398284,28099,-34208,0,0,0,347,431,293,401,352,407,517,468,333,230,265,261,0,,
1,1777929082560,-4249,4192,7604,-5370727,-197920,-770911,0,0,0,235,246,225,265,169,301,284,207,261,160,209,152,0,,
2,1777929082560,1172,1531,9696,360410,-52534,-46425,0,0,0,356,431,296,392,348,413,511,461,322,229,258,274,0,,
1,1777929082576,-5082,4225,8887,-5877745,-367740,-1072679,0,0,0,231,253,233,258,178,305,285,212,262,157,209,156,0,,
2,1777929082576,1105,1512,9715,334754,-109955,-61086,0,0,0,359,440,305,392,347,420,502,440,313,230,259,281,0,,
1,1777929082592,-5465,3603,10016,-6250373,-844215,-1347568,0,0,0,232,247,232,258,167,304,288,219,260,153,210,150,0,,
2,1777929082592,1005,1521,9763,328645,-129503,-68416,0,0,0,360,440,302,400,350,419,499,432,312,230,253,293,0,,
1,1777929082608,-4895,2349,11648,-6455623,-1291369,-1561371,0,0,0,229,244,240,263,169,312,283,212,262,156,210,158,0,,
2,1777929082608,899,1488,9801,340862,-118507,-68416,0,0,0,365,439,300,411,362,430,510,431,319,236,246,306,0,,
1,1777929082624,-4675,1273,13610,-6497162,-1513724,-1635897,0,0,0,231,247,239,261,168,309,283,214,263,155,211,154,0,,
2,1777929082624,890,1430,9806,361632,-94073,-63529,0,0,0,368,445,303,413,368,435,512,425,329,296,255,312,0,,
1,1777929082640,-5082,603,15788,-6480058,-1753183,-1528384,0,0,0,232,249,236,260,170,306,284,215,258,192,201,160,0,,
2,1777929082640,942,1402,9830,393397,-76969,-59864,0,0,0,373,449,307,416,368,440,509,404,332,263,243,331,0,,
1,1777929082656,-5111,38,18401,-6481280,-2032959,-1287703,0,0,0,232,252,229,259,170,301,273,201,263,171,206,154,0,,
2,1777929082656,1009,1363,9911,443488,-70860,-63529,0,0,0,380,454,322,422,372,454,509,390,343,254,237,350,0,,
1,1777929082672,-4867,-545,20780,-6483723,-2070833,-1220508,0,0,0,235,251,230,259,169,298,280,211,259,154,212,146,0,,
2,1777929082672,1033,1273,10007,503352,-64751,-76969,0,0,0,392,463,326,431,376,457,507,375,346,247,224,365,0,,
1,1777929082688,-6068,-1378,23704,-6396980,-1970651,-1524719,0,0,0,231,246,236,258,166,302,291,220,259,152,209,145,0,,
2,1777929082688,1014,1177,10069,559552,-46425,-95294,0,0,0,403,470,322,434,381,459,506,352,346,305,216,370,0,,
1,1777929082704,-7901,-3034,27035,-6285803,-2112371,-2156354,0,0,0,229,246,241,257,164,306,290,219,264,151,205,147,0,,
2,1777929082704,1072,1119,10217,638965,-15882,-123394,0,0,0,414,477,324,440,390,472,503,323,350,329,205,382,0,,
1,1777929082720,-8844,-6590,30007,-6201503,-2515543,-2839301,0,0,0,230,247,243,255,164,308,289,219,268,151,207,150,0,,
2,1777929082720,1330,1067,10519,758694,8552,-172263,0,0,0,426,483,326,451,399,481,496,294,355,246,179,413,0,,
1,1777929082736,-8518,-14276,31409,-6062226,-2916270,-3246137,0,0,0,228,246,239,257,164,312,293,220,271,155,215,152,0,,
2,1777929082736,1612,990,10897,929736,23212,-255341,0,0,0,431,482,327,449,406,480,490,274,372,249,177,439,0,,
1,1777929082752,-7566,-25675,27949,-5591860,-2742784,-2671924,0,0,0,230,250,233,263,166,319,286,213,273,160,221,153,0,,
2,1777929082752,1569,957,11399,1143539,21991,-344527,0,0,0,437,492,316,455,417,493,470,257,380,250,181,461,0,,
1,1777929082768,-3972,-36070,21507,-4612032,-2636494,-1286482,0,0,0,231,254,235,266,169,319,287,214,272,163,226,154,0,,
2,1777929082768,1139,933,12103,1496619,39095,-387288,0,0,0,444,498,319,471,426,504,448,248,375,236,156,484,0,,
1,1777929082784,6513,-41727,16305,-2948035,-2568077,453262,0,0,0,233,248,245,264,168,333,284,211,281,159,227,163,0,,
2,1777929082784,760,799,12577,1890017,119729,-373849,0,0,0,444,499,291,468,435,518,424,239,378,240,156,515,0,,
1,1777929082800,15486,-44618,14845,-1332907,-1524719,1490511,0,0,0,231,252,247,266,174,335,284,214,277,159,235,159,0,,
2,1777929082800,847,588,13050,2315179,232128,-333532,0,0,0,452,504,291,472,444,521,390,223,373,244,159,515,0,,
1,1777929082816,15496,-43172,15529,323758,621860,1842369,0,0,0,222,252,231,262,180,303,308,261,269,174,286,136,0,,
2,1777929082816,1679,464,13960,2842966,213802,-340862,0,0,0,468,497,258,457,474,514,343,217,372,245,164,526,0,,
1,1777929082832,5384,-22488,18870,2244318,2712241,1775174,0,0,0,218,231,175,267,172,274,367,330,234,243,359,110,0,,
2,1777929082832,2498,406,14845,3470936,68416,-439822,0,0,0,466,498,237,458,471,519,324,214,390,249,165,538,0,,
1,1777929082848,-5843,14668,18583,3431840,4227187,1117883,0,0,0,213,220,173,258,163,266,399,400,225,282,402,102,0,,
2,1777929082848,2790,335,15568,4163657,-50090,-626747,0,0,0,469,493,235,452,476,518,285,200,386,237,166,542,0,,
1,1777929082864,-7020,20971,11744,3762929,4053701,34208,0,0,0,216,251,152,266,181,253,438,446,218,328,419,93,0,,
2,1777929082864,3120,411,17023,5046968,1221,-890641,0,0,0,469,483,250,440,457,518,264,179,372,229,159,516,0,,
1,1777929082880,-349,2450,11596,5002986,2629163,-621860,0,0,0,227,249,148,292,171,262,462,465,232,379,430,95,0,,
2,1777929082880,3919,784,19597,5996253,95294,-1183856,0,0,0,453,461,250,431,425,508,277,164,371,216,138,459,0,,
1,1777929082896,4642,-7714,21148,5563760,1191187,-351858,0,0,0,241,241,185,296,159,293,475,475,261,401,439,111,0,,
2,1777929082896,4484,842,23819,6938207,144164,-1424537,0,0,0,417,438,233,426,408,485,275,157,371,198,124,385,0,,
1,1777929082912,416,-3038,23206,3712838,708603,263893,0,0,0,258,241,246,300,164,319,485,480,293,410,448,130,0,,
2,1777929082912,4900,-119,28513,7929030,478918,-1604132,0,0,0,364,421,215,408,397,455,266,168,351,176,119,324,0,,
1,1777929082928,-3732,148,17932,1786169,420275,201585,0,0,0,277,254,268,313,175,330,495,486,304,428,462,147,0,,
2,1777929082928,4943,291,31332,8653516,1253495,-1745852,0,0,0,302,400,207,365,370,416,281,209,312,145,112,268,0,,
1,1777929082944,-3531,464,11261,649960,129503,-221133,0,0,0,288,268,244,314,177,329,502,493,294,445,481,170,0,,
2,1777929082944,5077,2694,32165,9224065,2050063,-2001194,0,0,0,257,380,211,321,339,369,295,257,278,114,110,197,0,,
1,1777929082960,-2191,181,9155,382401,95294,-240680,0,0,0,288,268,246,308,173,323,511,500,294,452,498,185,0,,
2,1777929082960,5541,6408,28154,9120218,2014633,-2315179,0,0,0,251,376,217,302,322,347,307,282,266,101,114,156,0,,
1,1777929082976,-2206,220,9475,204028,256563,-118507,0,0,0,300,276,282,310,171,327,515,501,294,469,505,165,0,,
2,1777929082976,5020,12830,16889,7401243,215024,-2593733,0,0,0,252,378,215,311,324,353,314,285,271,107,116,162,0,,
1,1777929082992,-2388,612,10050,-13439,390953,-41538,0,0,0,293,284,293,315,176,350,515,494,309,479,501,198,0,,
2,1777929082992,5613,17520,10772,4076914,-1874134,-2296853,0,0,0,248,384,214,310,328,355,306,283,263,109,117,163,0,,
1,1777929083008,-2158,1115,10131,-90408,349414,-19547,0,0,0,310,287,252,321,181,339,518,496,300,495,517,180,0,,
2,1777929083008,7054,18468,10557,-447153,-2572964,-1358564,0,0,0,249,382,214,310,328,355,308,289,266,107,116,161,0,,
1,1777929083024,-1976,1292,10112,37873,201585,0,0,0,0,326,275,293,323,176,344,517,509,324,486,516,199,0,,
2,1777929083024,6039,12624,9916,-3396410,-2172236,-565661,0,0,0,254,386,220,309,326,354,301,286,267,98,108,158,0,,
1,1777929083040,-1943,1249,10189,202807,45204,28099,0,0,0,318,283,265,324,187,336,521,488,313,489,511,196,0,,
2,1777929083040,5015,6470,6585,-4260174,-2175901,-343306,0,0,0,250,386,218,310,326,354,308,290,265,105,115,159,0,,
1,1777929083056,-2029,1172,10217,295658,-63529,48869,0,0,0,302,309,252,322,226,339,515,476,309,477,502,206,0,,
2,1777929083056,5575,4197,3756,-4162435,-2317622,-532674,0,0,0,243,388,218,305,327,351,305,292,262,105,117,160,0,,
1,1777929083072,-2086,1124,10035,361632,-147829,68416,0,0,0,292,317,262,327,244,352,509,455,312,453,490,211,0,,
2,1777929083072,6140,5149,3948,-4631580,-1901012,-704938,0,0,0,236,389,220,302,328,351,306,294,264,106,118,159,0,,
1,1777929083088,-2153,1009,9772,401949,-196698,81855,0,0,0,295,310,273,325,218,359,505,444,322,434,481,219,0,,
2,1777929083088,5704,5838,5240,-5312084,-1307251,-674395,0,0,0,234,390,221,302,328,350,306,294,264,106,121,159,0,,
1,1777929083104,-2249,904,9557,390953,-193033,85521,0,0,0,305,303,277,321,192,359,501,439,325,420,474,226,0,,
2,1777929083104,5398,5340,6082,-5668829,-799011,-397062,0,0,0,235,390,222,302,328,349,304,295,263,104,122,159,0,,
1,1777929083120,-2297,851,8107,306654,-103847,91629,0,0,0,307,315,268,326,197,360,496,426,325,408,460,231,0,,
2,1777929083120,5489,4517,7006,-5874080,-70860,58643,0,0,0,235,390,221,303,329,350,304,296,262,102,121,158,0,,
1,1777929083136,-2244,847,7087,228463,-7330,100181,0,0,0,304,333,258,334,210,364,494,409,328,401,442,240,0,,
2,1777929083136,4996,4144,8528,-6041457,601091,497244,0,0,0,234,390,221,303,329,352,307,296,263,102,120,159,0,,
1,1777929083152,-2172,866,8624,262672,-6108,102625,0,0,0,307,339,260,338,210,367,499,391,327,401,428,246,0,,
2,1777929083152,4034,3646,10662,-6277251,1134987,1025031,0,0,0,235,392,222,302,328,350,309,297,263,103,120,159,0,,
1,1777929083168,-2129,842,9959,304210,-24434,103847,0,0,0,311,352,265,340,215,361,503,383,330,402,407,251,0,,
2,1777929083168,3737,3000,12213,-6389650,1229060,1368338,0,0,0,233,393,222,302,328,349,310,298,264,105,120,160,0,,
1,1777929083184,-2110,818,9882,299323,-24434,106290,0,0,0,307,354,265,338,244,362,497,368,334,400,400,256,0,,
2,1777929083184,4130,2445,13998,-6415306,1291369,1501506,0,0,0,235,393,222,305,328,351,311,298,263,106,122,160,0,,
1,1777929083200,-2096,799,9538,291993,-20769,106290,0,0,0,305,338,274,334,216,373,495,352,340,380,391,274,0,,
2,1777929083200,4316,2148,16056,-6483723,1426981,1378111,0,0,0,235,393,223,305,331,352,311,298,263,105,123,160,0,,
1,1777929083216,-2091,765,9562,313984,-24434,103847,0,0,0,308,334,292,342,216,397,495,344,349,369,377,298,0,,
2,1777929083216,4254,1775,18425,-6601009,1518610,1110553,0,0,0,230,390,220,305,331,352,315,299,266,105,123,160,0,,
1,1777929083232,-2053,689,9748,365297,-43982,111177,0,0,0,333,320,286,351,213,381,484,330,337,359,347,327,0,,
2,1777929083232,4460,1469,21210,-6658431,1604132,910189,0,0,0,230,390,221,306,330,352,311,295,261,105,123,159,0,,
1,1777929083248,-2067,617,9815,431270,-84299,134390,0,0,0,336,355,288,340,216,389,481,327,358,344,343,337,0,,
2,1777929083248,4560,1263,24996,-6619335,1709200,992045,0,0,0,230,394,221,302,330,350,313,297,263,103,121,160,0,,
1,1777929083264,-2206,569,9772,510683,-128281,173485,0,0,0,329,368,273,348,227,398,480,285,364,331,309,359,0,,
2,1777929083264,4422,-569,29150,-6550918,1726305,1668883,0,0,0,231,392,221,305,332,352,313,298,264,104,121,161,0,,
1,1777929083280,-2368,483,9801,597426,-133168,226020,0,0,0,332,380,280,373,236,417,482,250,363,320,280,379,0,,
2,1777929083280,4450,-6896,31600,-6422637,1963320,2630385,0,0,0,232,391,221,309,331,355,316,293,265,102,118,160,0,,
1,1777929083296,-2526,349,10002,679282,-129503,284663,0,0,0,343,391,293,376,239,428,471,231,370,307,258,413,0,,
2,1777929083296,4173,-18329,31672,-6028018,2307848,3280346,0,0,0,235,392,223,311,329,356,319,291,268,102,117,160,0,,
1,1777929083312,-2699,215,10270,777020,-158824,357967,0,0,0,356,411,294,394,253,447,461,216,389,299,233,448,0,,
2,1777929083312,5608,-31265,27087,-5154480,1772730,2921157,0,0,0,236,391,221,313,329,358,323,292,271,105,117,161,0,,
1,1777929083328,-2914,124,10619,913854,-202807,448375,0,0,0,356,428,300,416,277,482,456,204,407,288,212,476,0,,
2,1777929083328,5594,-39703,19191,-3826459,1490511,1584584,0,0,0,232,389,214,314,329,356,326,299,270,112,127,161,0,,
1,1777929083344,-2914,119,11261,1119105,-228463,542448,0,0,0,350,434,312,416,297,503,438,205,415,260,206,499,0,,
2,1777929083344,-2268,-42541,16458,-2062281,1728748,29321,0,0,0,224,382,206,307,326,348,326,333,262,139,195,156,0,,
1,1777929083360,-2249,52,11969,1426981,-248011,603534,0,0,0,364,458,299,438,319,506,407,215,423,237,210,510,0,,
2,1777929083360,-12189,-45915,19411,316428,652404,-747699,0,0,0,218,368,201,302,322,341,342,393,255,166,267,144,0,,
1,1777929083376,-1512,-86,12371,1773952,-272445,554665,0,0,0,379,489,289,449,339,521,376,198,437,248,198,520,0,,
2,1777929083376,-10825,-37932,20765,2933374,-1654223,-193033,0,0,0,222,352,193,306,317,336,385,442,254,160,259,132,0,,
1,1777929083392,-2038,-263,12979,2189341,-291993,458148,0,0,0,389,502,271,436,376,525,336,187,431,237,192,525,0,,
2,1777929083392,354,-1397,16951,4621806,-2796541,394618,0,0,0,230,336,180,303,306,328,419,451,252,173,282,134,0,,
1,1777929083408,-3158,-344,13845,2711019,-239459,465479,0,0,0,357,471,249,425,340,503,285,174,431,222,179,547,0,,
2,1777929083408,3742,15089,14189,4726875,-2357939,620639,0,0,0,234,336,183,308,305,339,440,459,264,179,304,137,0,,
1,1777929083424,-4206,-220,14874,3375641,-37873,634078,0,0,0,376,466,251,406,364,526,232,180,427,185,164,523,0,,
2,1777929083424,-1933,4312,17650,4976108,-1339016,498466,0,0,0,240,348,199,320,308,350,471,474,270,210,328,137,0,,
1,1777929083440,-5364,-248,16080,4090353,155159,906524,0,0,0,399,465,276,407,330,533,199,156,431,172,135,496,0,,
2,1777929083440,-5240,-3642,22373,4719544,-524122,-28099,0,0,0,247,371,241,321,312,361,497,498,278,219,345,153,0,,
1,1777929083456,-6891,-770,18291,4911356,232128,1345125,0,0,0,401,444,267,382,310,508,194,151,418,154,119,443,0,,
2,1777929083456,-1990,-1847,20947,3490483,12217,-571769,0,0,0,258,398,265,345,334,387,489,490,292,215,333,190,0,,
1,1777929083472,-9566,-2129,22340,5801998,223576,1903456,0,0,0,378,408,237,369,294,469,191,152,394,155,120,368,0,,
2,1777929083472,1536,976,14094,2129476,359188,-427605,0,0,0,302,417,276,363,333,393,503,504,293,235,334,229,0,,
1,1777929083488,-13055,-2986,26250,6682865,235793,2612059,0,0,0,335,365,231,332,267,423,185,162,352,141,126,307,0,,
2,1777929083488,1631,344,10638,1286482,398284,-161268,0,0,0,335,430,286,373,337,397,509,511,291,258,347,260,0,,
1,1777929083504,-13582,-1091,28293,7297396,305432,3381749,0,0,0,285,325,235,291,226,385,199,176,312,128,148,255,0,,
2,1777929083504,1206,-1043,11122,643851,224798,-68416,0,0,0,357,439,293,381,341,402,514,516,298,272,365,277,0,,
1,1777929083520,-12323,2206,28815,7866722,423940,4050036,0,0,0,242,280,227,262,184,336,240,193,277,140,180,193,0,,
2,1777929083520,1139,-81,11332,229685,48869,-46425,0,0,0,371,446,297,382,344,405,517,523,302,271,358,293,0,,
1,1777929083536,-11275,6015,26618,8210028,828333,4461759,0,0,0,228,239,217,245,159,280,280,212,249,156,209,142,0,,
2,1777929083536,947,1139,10557,87964,4886,-17104,0,0,0,378,449,299,380,343,408,511,532,298,323,403,299,0,,
1,1777929083552,-12988,8820,18205,7718893,1492954,4667010,0,0,0,245,233,214,255,153,260,291,215,244,165,232,129,0,,
2,1777929083552,985,1340,10251,158824,15882,-10995,0,0,0,383,449,302,380,342,409,509,534,297,331,406,304,0,,
1,1777929083568,-14142,10083,11395,6524040,1276708,4762305,0,0,0,250,237,218,258,157,272,292,218,247,172,234,135,0,,
2,1777929083568,1014,1234,10284,265115,-37873,-23212,0,0,0,390,449,302,383,347,410,513,524,298,269,327,323,0,,
1,1777929083584,-10404,16295,9920,3010343,-202807,3635869,0,0,0,254,247,226,257,161,287,283,225,249,163,241,137,0,,
2,1777929083584,842,1158,10299,343306,-94073,-35430,0,0,0,396,451,302,390,353,416,509,518,296,259,304,337,0,,
1,1777929083600,-4541,19171,10289,-1297477,-663399,1048244,0,0,0,253,248,231,256,165,292,284,225,250,165,244,143,0,,
2,1777929083600,693,1196,10284,412944,-50090,-42760,0,0,0,399,453,304,391,353,417,509,515,302,252,282,341,0,,
1,1777929083616,-4163,13031,8049,-4272391,313984,-1865582,0,0,0,255,247,228,257,167,288,284,225,246,165,246,140,0,,
2,1777929083616,670,1182,10251,482583,21991,-50090,0,0,0,400,454,303,385,349,414,509,494,306,247,267,346,0,,
1,1777929083632,-9140,5695,3665,-4139222,-4886,-2356718,0,0,0,255,247,224,257,162,286,285,224,251,168,243,140,0,,
2,1777929083632,693,1048,10102,524122,81855,-58643,0,0,0,399,454,299,389,355,419,500,475,312,279,290,349,0,,
1,1777929083648,-8638,3460,2287,-3446501,-1502728,-1613905,0,0,0,256,252,221,260,163,286,286,229,250,167,249,134,0,,
2,1777929083648,775,904,9949,524122,112399,-62308,0,0,0,413,454,305,395,359,424,503,453,316,239,229,363,0,,
1,1777929083664,-3005,5278,4647,-3448945,-1977981,-1156978,0,0,0,258,253,221,261,164,286,287,229,249,165,250,134,0,,
2,1777929083664,880,813,9873,498466,108734,-69638,0,0,0,418,466,309,397,359,424,491,438,315,232,216,365,0,,
1,1777929083680,-502,6532,6834,-3949854,-1549154,-1363451,0,0,0,262,252,223,267,165,287,289,228,250,171,253,135,0,,
2,1777929083680,952,775,9897,488692,89186,-83077,0,0,0,419,471,306,397,358,431,487,424,319,239,216,376,0,,
1,1777929083696,-1507,6336,8145,-4619362,-1264491,-1821600,0,0,0,261,250,224,264,164,287,288,229,251,172,257,139,0,,
2,1777929083696,1024,713,9901,487470,61086,-100181,0,0,0,418,478,316,392,359,441,484,415,326,231,209,401,0,,
1,1777929083712,-1675,5312,9365,-5068959,-1685988,-2008524,0,0,0,253,252,229,259,165,291,287,231,254,171,258,142,0,,
2,1777929083712,1005,603,9810,467922,19547,-112399,0,0,0,420,474,314,400,366,451,491,397,331,229,199,415,0,,
1,1777929083728,-703,4575,10954,-5407379,-1971872,-2073276,0,0,0,260,253,232,263,167,294,288,234,258,170,259,143,0,,
2,1777929083728,914,483,9739,425162,-18325,-113620,0,0,0,429,479,312,406,373,454,486,380,332,231,196,415,0,,
1,1777929083744,-9,4134,12816,-5793445,-1879021,-2037846,0,0,0,271,253,229,267,167,293,290,236,258,167,261,140,0,,
2,1777929083744,880,440,9815,387288,-35430,-106290,0,0,0,435,484,314,407,376,455,475,363,331,237,205,420,0,,
1,1777929083760,-57,3488,14510,-6155078,-1683544,-1837482,0,0,0,259,260,233,259,165,294,293,236,259,166,256,139,0,,
2,1777929083760,918,416,9949,379958,-28099,-107512,0,0,0,442,486,319,409,378,457,466,342,332,275,238,426,0,,
1,1777929083776,-928,2306,16161,-6445850,-1569923,-1307251,0,0,0,268,263,233,259,165,291,293,239,259,166,254,139,0,,
2,1777929083776,1005,382,10040,394618,-19547,-119729,0,0,0,448,487,317,414,383,459,458,323,336,325,273,426,0,,
1,1777929083792,-1024,1076,18047,-6566801,-1612684,-476474,0,0,0,261,261,239,259,164,296,291,239,263,166,260,142,0,,
2,1777929083792,1105,344,10093,428827,-25656,-141720,0,0,0,445,492,309,418,392,458,460,316,342,313,251,440,0,,
1,1777929083808,-717,311,20181,-6630331,-1561371,199142,0,0,0,254,267,248,255,168,302,289,239,264,165,261,145,0,,
2,1777929083808,1153,301,10136,476474,-47647,-167377,0,0,0,449,504,307,412,398,455,461,316,351,254,197,463,0,,
1,1777929083824,-1359,-28,22249,-6601009,-1552819,279776,0,0,0,253,275,243,259,184,303,289,245,266,164,263,145,0,,
2,1777929083824,1110,205,10189,536339,-53756,-200363,0,0,0,451,505,301,423,409,466,457,303,348,246,187,475,0,,
1,1777929083840,-2292,-416,25173,-6465397,-1846034,-139277,0,0,0,253,264,255,257,165,308,287,236,269,165,257,147,0,,
2,1777929083840,995,81,10323,624304,-6108,-237015,0,0,0,459,509,301,425,417,471,453,286,360,252,184,486,0,,
1,1777929083856,-2268,-2536,29265,-6304129,-2318844,-985936,0,0,0,256,264,258,255,162,304,286,232,268,167,259,147,0,,
2,1777929083856,1009,33,10576,737925,67195,-261450,0,0,0,457,524,305,440,424,478,431,259,384,239,165,494,0,,
1,1777929083872,-1832,-7681,32811,-6166073,-2542421,-1663996,0,0,0,250,265,255,258,164,309,281,233,267,166,262,147,0,,
2,1777929083872,1186,76,11036,923628,141720,-288328,0,0,0,464,528,293,456,447,487,408,259,358,254,178,526,0,,
1,1777929083888,-2067,-17176,32883,-6073222,-2258979,-1555262,0,0,0,249,258,251,263,166,310,289,231,268,173,258,147,0,,
2,1777929083888,1258,62,11643,1202182,195476,-320093,0,0,0,470,529,294,449,446,485,400,247,367,275,194,540,0,,
1,1777929083904,-2187,-30997,28030,-5794667,-1881464,-558330,0,0,0,248,258,245,273,175,313,303,228,267,188,258,148,0,,
2,1777929083904,1177,-38,12294,1565036,261450,-343306,0,0,0,472,538,287,458,466,491,351,235,363,259,178,553,0,,
1,1777929083920,5010,-43684,19526,-4410447,-2037846,753807,0,0,0,236,264,234,277,185,312,313,224,265,196,251,144,0,,
2,1777929083920,1019,-191,12854,1977981,328645,-345749,0,0,0,473,530,267,461,455,500,303,224,383,250,168,562,0,,
1,1777929083936,16171,-48317,14912,-2086715,-1699427,1259604,0,0,0,216,262,226,263,184,303,324,250,264,202,277,137,0,,
2,1777929083936,942,-282,13558,2563190,331088,-312763,0,0,0,473,525,250,464,454,512,275,223,404,249,172,565,0,,
1,1777929083952,20047,-43617,18635,663399,634078,878424,0,0,0,204,246,209,249,172,285,357,331,253,234,354,122,0,,
2,1777929083952,1459,-291,14505,3166725,217468,-283441,0,0,0,476,529,248,460,461,512,261,220,380,243,168,565,0,,
1,1777929083968,8360,-20287,19932,2548529,3561344,731816,0,0,0,214,229,168,260,156,263,417,419,230,296,410,97,0,,
2,1777929083968,2435,-229,15874,3751934,30543,-331088,0,0,0,482,522,249,450,461,510,250,209,363,233,160,544,0,,
1,1777929083984,-7140,13165,14113,3444058,5233893,744033,0,0,0,245,226,147,276,150,254,460,462,232,357,426,93,0,,
2,1777929083984,3847,-277,17712,4544837,-120951,-552222,0,0,0,485,508,256,439,454,501,240,192,371,227,153,508,0,,
1,1777929084000,-7212,12696,11921,4317595,4293160,300545,0,0,0,258,225,149,289,143,285,475,475,271,417,441,96,0,,
2,1777929084000,5173,-598,20727,5477017,-217468,-906524,0,0,0,475,494,276,431,443,486,236,177,372,222,144,460,0,,
1,1777929084016,1588,-1196,18741,5365840,1879021,-280998,0,0,0,259,220,154,297,143,285,485,485,263,447,452,93,0,,
2,1777929084016,5441,-1019,25479,6376211,-268780,-1227839,0,0,0,441,471,281,419,424,474,241,175,351,202,128,391,0,,
1,1777929084032,3857,-3814,23354,4531398,145385,95294,0,0,0,290,234,208,325,164,315,497,498,290,463,465,106,0,,
2,1777929084032,6082,-1186,29695,7337713,-370184,-1510058,0,0,0,374,452,232,392,405,440,248,194,315,172,124,331,0,,
1,1777929084048,-2105,-1560,19870,2566855,-304210,498466,0,0,0,267,270,253,317,185,358,499,499,303,453,467,155,0,,
2,1777929084048,7327,536,30801,8030434,-436157,-1778839,0,0,0,303,425,203,351,380,393,262,240,288,148,124,274,0,,
1,1777929084064,-5297,-95,12256,1005484,-24434,65973,0,0,0,279,267,264,320,181,350,508,508,304,463,475,165,0,,
2,1777929084064,7355,3441,31327,8624195,-304210,-2134363,0,0,0,243,381,208,310,333,359,290,272,265,106,112,173,0,,
1,1777929084080,-3560,177,8475,390953,150272,-282219,0,0,0,282,266,268,321,181,359,518,517,304,476,492,192,0,,
2,1777929084080,6508,6494,28059,8630304,-654847,-2367713,0,0,0,245,381,220,300,323,347,305,293,267,106,121,164,0,,
1,1777929084096,-2593,191,9451,252898,195476,-162490,0,0,0,295,272,286,321,179,365,522,518,302,490,502,203,0,,
2,1777929084096,8523,9815,18157,7246083,-2200336,-2344500,0,0,0,246,381,214,300,328,352,300,296,268,105,121,164,0,,
1,1777929084112,-2617,603,10246,69638,256563,-21991,0,0,0,296,272,288,319,176,356,520,517,296,493,513,206,0,,
2,1777929084112,11275,14290,11682,4101349,-2869844,-2186897,0,0,0,250,385,213,301,329,348,299,293,261,105,121,163,0,,
1,1777929084128,-2780,1110,10126,-10995,248011,13439,0,0,0,286,273,277,322,177,357,518,517,295,496,517,214,0,,
2,1777929084128,9222,17444,11533,-408057,-1999972,-1764178,0,0,0,254,391,218,302,327,345,299,290,255,105,123,163,0,,
1,1777929084144,-2584,1191,9968,74525,138055,8552,0,0,0,285,278,275,325,181,371,520,510,304,499,512,231,0,,
2,1777929084144,4513,13318,11174,-3547905,-1893682,-999375,0,0,0,255,390,217,303,326,343,304,290,252,106,121,159,0,,
1,1777929084160,-2426,1143,9983,200363,0,25656,0,0,0,285,279,278,324,182,376,520,492,315,486,509,251,0,,
2,1777929084160,3986,7016,7164,-4535063,-2714685,-309097,0,0,0,254,393,219,304,328,343,305,292,253,105,121,157,0,,
1,1777929084176,-2479,1115,10050,288328,-102625,52534,0,0,0,285,276,281,329,184,384,506,465,324,459,501,250,0,,
2,1777929084176,7374,4761,3531,-4302934,-2685363,-50090,0,0,0,251,396,221,303,330,344,304,295,253,104,124,157,0,,
1,1777929084192,-2613,1067,9853,362853,-182037,70860,0,0,0,289,281,284,332,187,389,456,417,349,439,491,248,0,,
2,1777929084192,9107,4843,2885,-4499633,-1723861,108734,0,0,0,249,397,221,303,332,344,304,299,253,106,127,158,0,,
1,1777929084208,-2718,928,9533,388510,-207694,76969,0,0,0,292,283,286,330,195,381,507,462,325,419,480,261,0,,
2,1777929084208,8418,5302,4498,-4988325,-729373,387288,0,0,0,253,395,219,307,330,345,310,298,253,110,125,156,0,,
1,1777929084224,-2833,794,8959,337197,-158824,81855,0,0,0,291,283,281,326,195,381,502,432,332,412,487,264,0,,
2,1777929084224,7800,4637,5991,-5371948,-307876,927293,0,0,0,257,393,217,315,329,345,319,292,251,113,120,154,0,,
1,1777929084240,-2914,737,8413,255341,-65973,90408,0,0,0,287,286,288,328,197,384,509,442,333,412,474,266,0,,
2,1777929084240,8035,3598,7078,-5667607,19547,1497841,0,0,0,257,394,218,316,328,345,323,294,253,112,118,154,0,,
1,1777929084256,-2895,794,8810,218689,12217,96516,0,0,0,282,283,285,325,200,381,506,441,334,393,466,263,0,,
2,1777929084256,8241,2703,8245,-5949827,474031,1937664,0,0,0,257,394,219,315,328,344,321,294,251,116,122,157,0,,
1,1777929084272,-2761,823,9394,235793,43982,95294,0,0,0,283,283,292,329,202,394,504,428,341,387,461,276,0,,
2,1777929084272,8030,2005,9595,-6179512,860098,2217440,0,0,0,257,397,223,314,328,344,322,295,253,116,123,157,0,,
1,1777929084288,-2608,804,9566,246789,52534,89186,0,0,0,289,284,295,330,192,397,507,420,345,384,443,297,0,,
2,1777929084288,7815,1411,11040,-6304129,1060462,2329840,0,0,0,257,397,223,314,328,345,322,295,254,117,123,157,0,,
1,1777929084304,-2569,760,9518,240680,36651,81855,0,0,0,292,286,295,331,188,399,504,410,343,390,426,310,0,,
2,1777929084304,7944,760,12706,-6359107,1159422,2251649,0,0,0,254,395,222,315,328,346,323,296,255,118,121,157,0,,
1,1777929084320,-2569,703,9547,244346,9773,75747,0,0,0,293,286,293,333,196,400,503,396,345,383,413,318,0,,
2,1777929084320,8193,282,14524,-6409198,1296256,2006081,0,0,0,251,396,222,312,328,346,326,299,259,113,119,156,0,,
1,1777929084336,-2589,674,9585,274889,-19547,83077,0,0,0,301,289,280,332,202,398,503,388,352,372,397,327,0,,
2,1777929084336,8159,349,16664,-6494719,1494176,1670105,0,0,0,247,396,223,312,329,346,325,300,257,117,123,156,0,,
1,1777929084352,-2589,655,9595,320093,-56199,100181,0,0,0,307,296,258,337,209,399,499,384,354,370,382,338,0,,
2,1777929084352,7867,894,19899,-6651100,1704314,1415985,0,0,0,245,396,224,312,330,347,323,301,257,116,125,156,0,,
1,1777929084368,-2598,631,9614,389732,-111177,133168,0,0,0,303,303,253,357,221,414,496,368,352,353,371,357,0,,
2,1777929084368,7820,1105,23814,-6823364,1877799,1384220,0,0,0,243,399,222,314,333,348,324,300,257,113,123,156,0,,
1,1777929084384,-2641,593,9648,459370,-157603,156381,0,0,0,307,308,271,369,225,452,490,328,377,353,340,386,0,,
2,1777929084384,8681,-737,27824,-6878342,2053728,1683544,0,0,0,243,398,222,317,333,351,327,298,259,114,122,154,0,,
1,1777929084400,-2689,526,9758,535117,-202807,174707,0,0,0,311,313,267,365,236,448,491,314,380,358,325,407,0,,
2,1777929084400,9533,-5647,30485,-6739065,2454456,1987755,0,0,0,243,396,222,317,332,352,329,297,261,116,122,155,0,,
1,1777929084416,-2833,435,9968,621860,-238237,196698,0,0,0,318,312,266,396,244,462,504,252,411,342,282,414,0,,
2,1777929084416,7303,-14276,32175,-6379876,3065321,1870469,0,0,0,241,396,223,313,333,352,325,299,264,113,124,159,0,,
1,1777929084432,-3058,306,10126,731816,-268780,238237,0,0,0,328,329,271,403,236,468,485,232,411,327,268,446,0,,
