sole_id,timestamp,accel_x,accel_y,accel_z,gyro_x,gyro_y,gyro_z,magn_x,magn_y,magn_z,pressure_01,pressure_02,pressure_03,pressure_04,pressure_05,pressure_06,pressure_07,pressure_08,pressure_09,pressure_10,pressure_11,pressure_12,corrupt,transition,grass
1,1775670460128,-4345,5116,7762,-422718,-8552,2405587,0,0,0,234,329,223,272,221,298,333,279,269,231,289,139,0,,
2,1775670460128,923,1019,10040,201585,-1221,-26878,0,0,0,488,508,372,462,421,493,548,421,355,262,184,484,0,,
1,1775670460144,-3330,5642,7552,-1208291,-296880,2098932,0,0,0,231,326,235,268,220,307,331,279,275,226,285,145,0,,
2,1775670460144,923,1000,10083,224798,8552,-34208,0,0,0,487,510,370,463,428,500,550,420,360,260,182,487,0,,
1,1775670460160,-2297,4680,7389,-1635897,-408057,1711644,0,0,0,222,331,242,263,223,313,328,281,282,224,282,150,0,,
2,1775670460160,890,971,10074,254119,29321,-39095,0,0,0,499,510,370,463,430,503,544,407,359,269,186,500,0,,
1,1775670460176,-1938,3929,7384,-1710422,-486248,1340238,0,0,0,216,332,238,261,224,312,328,281,280,222,280,146,0,,
2,1775670460176,885,914,9997,267558,46425,-37873,0,0,0,501,511,385,458,424,497,550,407,366,263,180,499,0,,
1,1775670460192,-1966,4268,7642,-1657888,-686612,1073901,0,0,0,216,329,244,261,224,318,331,281,278,219,278,146,0,,
2,1775670460192,942,808,9897,251676,51312,-32986,0,0,0,497,515,373,461,428,502,549,405,367,262,176,499,0,,
1,1775670460208,-1909,4771,8092,-1631010,-989601,807563,0,0,0,218,327,237,263,225,313,333,280,278,221,281,148,0,,
2,1775670460208,1000,727,9844,217468,36651,-31764,0,0,0,500,512,372,460,428,501,547,405,368,262,178,502,0,,
1,1775670460224,-1670,4857,8619,-1657888,-1219287,619417,0,0,0,218,327,236,263,223,306,326,279,272,225,293,142,0,,
2,1775670460224,990,708,9815,168598,9773,-26878,0,0,0,505,514,373,463,434,505,547,403,369,263,179,505,0,,
1,1775670460240,-1162,4737,9361,-1754404,-1359786,474031,0,0,0,218,326,236,265,224,309,326,279,274,230,292,143,0,,
2,1775670460240,995,708,9810,117286,-13439,-20769,0,0,0,505,514,374,463,434,504,547,404,370,266,181,510,0,,
1,1775670460256,-564,4580,10088,-1880243,-1428202,377514,0,0,0,218,327,241,265,227,309,326,281,273,226,297,145,0,,
2,1775670460256,1019,698,9825,68416,-41538,-17104,0,0,0,505,515,378,464,435,505,548,406,371,269,184,513,0,,
1,1775670460272,430,4345,10815,-1969429,-1467298,299323,0,0,0,218,329,241,265,226,309,327,283,276,225,293,145,0,,
2,1775670460272,1028,689,9830,24434,-67195,-17104,0,0,0,505,515,382,465,438,509,546,406,370,266,182,509,0,,
1,1775670460288,1292,4101,11462,-1998751,-1451415,197920,0,0,0,216,326,241,266,226,311,326,280,276,226,293,142,0,x,
2,1775670460288,1024,698,9858,-13439,-95294,-17104,0,0,0,502,517,385,465,439,510,544,405,369,260,180,505,0,x,
1,1775670460304,1335,3819,11887,-2010968,-1369559,97738,0,0,0,217,328,244,263,222,312,324,279,278,220,296,145,0,,
2,1775670460304,1028,737,9935,-32986,-112399,-20769,0,0,0,502,522,389,464,438,507,543,405,365,262,182,508,0,,
1,1775670460320,1048,3546,12146,-2040289,-1301142,45204,0,0,0,216,329,246,266,225,316,321,279,279,219,299,150,0,,
2,1775670460320,1005,775,10007,-45204,-127059,-25656,0,0,0,504,525,391,463,437,503,544,408,362,267,186,510,0,,
1,1775670460336,751,3244,12376,-2091602,-1251052,32986,0,0,0,214,328,243,265,228,312,319,280,277,220,300,147,0,,
2,1775670460336,942,794,10002,-50090,-130725,-26878,0,0,0,504,527,388,469,444,509,547,411,368,265,186,508,0,,
1,1775670460352,847,3015,12605,-2135584,-1192408,37873,0,0,0,215,329,241,265,231,311,319,282,277,221,299,143,0,,
2,1775670460352,899,780,9949,-61086,-125838,-18325,0,0,0,498,523,379,467,442,508,551,413,373,267,185,509,0,,
1,1775670460368,961,2718,12825,-2179567,-1073901,52534,0,0,0,215,332,242,267,234,314,319,282,279,220,299,143,0,,
2,1775670460368,933,789,9964,-68416,-125838,-12217,0,0,0,494,522,377,465,439,506,551,411,374,264,183,507,0,,
1,1775670460384,856,2321,12892,-2213775,-924849,101403,0,0,0,215,333,242,267,234,317,319,281,280,221,297,145,0,,
2,1775670460384,971,851,10035,-58643,-130725,-14660,0,0,0,492,523,375,470,446,513,554,413,375,262,183,507,0,,
1,1775670460400,497,1722,12782,-2235766,-781907,202807,0,0,0,214,331,239,268,234,317,320,282,280,229,295,145,0,,
2,1775670460400,923,909,10083,-23212,-131946,-17104,0,0,0,496,526,380,472,446,510,547,411,369,262,182,507,0,,
1,1775670460416,62,1038,12581,-2229658,-684169,291993,0,0,0,213,332,238,269,235,317,322,284,282,231,294,145,0,,
2,1775670460416,866,923,10107,17104,-120951,-18325,0,0,0,495,526,381,472,446,512,556,417,376,261,179,505,0,,
1,1775670460432,-296,244,12323,-2157576,-638965,322536,0,0,0,213,331,238,272,233,319,322,286,284,224,293,144,0,,
2,1775670460432,866,899,10107,58643,-98960,-17104,0,0,0,495,527,390,470,445,513,554,412,375,264,183,507,0,,
1,1775670460448,-425,-526,12031,-2023185,-608421,326202,0,0,0,215,334,237,272,234,317,321,287,280,223,292,144,0,,
2,1775670460448,890,880,10107,100181,-78190,-18325,0,0,0,497,529,386,472,448,511,557,411,376,342,215,500,0,,
1,1775670460464,-344,-1110,11701,-1847256,-568104,333532,0,0,0,216,335,236,272,236,317,323,288,280,221,291,140,0,,
2,1775670460464,918,856,10107,144164,-63529,-23212,0,0,0,498,530,385,472,446,507,559,403,375,308,198,507,0,,
1,1775670460480,-335,-1646,11284,-1653001,-514348,356745,0,0,0,214,331,239,272,233,321,319,282,279,222,294,143,0,,
2,1775670460480,928,827,10117,188146,-56199,-32986,0,0,0,496,531,387,473,447,505,556,391,373,268,181,516,0,,
1,1775670460496,-406,-2115,10830,-1472185,-466701,384845,0,0,0,219,330,241,273,228,321,321,281,281,220,293,142,0,,
2,1775670460496,914,804,10117,234572,-50090,-42760,0,0,0,496,534,390,476,446,505,549,375,369,328,234,519,0,,
1,1775670460512,-425,-2579,10337,-1231504,-436157,398284,0,0,0,220,330,242,273,230,321,322,281,282,216,292,140,0,,
2,1775670460512,885,756,10102,278554,-40317,-47647,0,0,0,501,537,389,482,448,506,550,367,368,328,232,520,0,,
1,1775670460528,-402,-3019,9916,-930958,-401949,383623,0,0,0,216,331,245,273,232,329,322,279,285,216,292,145,0,,
2,1775670460528,856,713,10122,327423,-29321,-47647,0,0,0,504,539,385,486,454,510,547,360,368,287,191,523,0,,
1,1775670460544,-488,-3412,9581,-640186,-362853,332310,0,0,0,215,329,240,277,242,329,320,279,282,217,294,143,0,,
2,1775670460544,875,689,10169,367740,-19547,-45204,0,0,0,502,538,385,485,455,516,528,348,368,301,202,531,0,,
1,1775670460560,-574,-3718,9279,-375071,-326202,271224,0,0,0,216,326,237,280,243,326,320,279,279,235,279,150,0,,
2,1775670460560,923,646,10232,430049,-8552,-46425,0,0,0,502,539,390,483,458,519,521,347,376,313,194,532,0,,
1,1775670460576,-693,-3914,9011,-90408,-270002,197920,0,0,0,217,326,238,278,238,323,322,282,281,229,280,147,0,,
2,1775670460576,942,598,10308,500909,0,-52534,0,0,0,506,540,395,483,455,520,522,341,383,413,231,525,0,,
1,1775670460592,-871,-3953,8896,153938,-223576,144164,0,0,0,218,328,237,277,238,321,321,284,281,213,292,137,0,,
2,1775670460592,961,526,10390,583987,0,-62308,0,0,0,507,539,386,486,461,524,505,327,373,270,166,553,0,,
1,1775670460608,-866,-3938,8935,392175,-177150,90408,0,0,0,216,327,234,280,241,321,323,288,280,216,290,136,0,,
2,1775670460608,995,425,10442,671951,-4886,-72082,0,0,0,514,548,383,478,461,526,493,311,376,270,171,562,0,,
1,1775670460624,-469,-4000,9121,563217,-84299,30543,0,0,0,217,324,231,279,235,314,337,304,279,226,295,137,0,,
2,1775670460624,1033,296,10457,757472,-23212,-85521,0,0,0,520,544,364,482,466,533,483,301,365,270,175,566,0,,
1,1775670460640,588,-3388,10074,838107,305432,-89186,0,0,0,227,322,226,275,221,299,358,327,276,242,319,132,0,,
2,1775670460640,1014,177,10509,829554,-53756,-92851,0,0,0,519,546,355,491,478,529,477,296,378,418,235,550,0,,
1,1775670460656,4,708,10591,1287703,907745,-298102,0,0,0,228,321,215,267,217,286,373,359,269,262,339,121,0,,
2,1775670460656,1019,90,10696,907745,-79412,-98960,0,0,0,526,549,343,488,475,522,456,285,380,320,191,573,0,,
1,1775670460672,-1641,6111,10021,1632231,896750,-414166,0,0,0,233,331,219,267,216,286,389,379,267,279,359,116,0,,
2,1775670460672,1110,33,10997,1025031,-117286,-107512,0,0,0,524,550,332,486,472,529,434,274,380,291,189,581,0,,
1,1775670460688,-1234,5824,10136,1822821,422718,-305432,0,0,0,238,331,218,279,216,288,412,376,262,313,366,117,0,,
2,1775670460688,1220,-38,11241,1185078,-190589,-124616,0,0,0,517,552,325,482,475,530,404,264,369,301,207,579,0,,
1,1775670460704,0,2359,11548,1953547,35430,90408,0,0,0,240,332,227,280,215,299,421,383,268,322,381,125,0,,
2,1775670460704,1249,-196,11457,1380555,-262672,-157603,0,0,0,522,554,322,478,480,532,365,257,364,308,222,573,0,,
1,1775670460720,-339,775,12591,1879021,-41538,535117,0,0,0,237,332,235,282,220,295,428,400,267,319,397,120,0,,
2,1775670460720,1206,-330,11739,1590693,-304210,-193033,0,0,0,528,551,306,469,482,527,330,252,369,310,229,572,0,,
1,1775670460736,-2440,961,12567,1593136,-64751,805120,0,0,0,238,338,233,286,228,298,438,407,262,322,405,116,0,,
2,1775670460736,1220,-402,12146,1861917,-379958,-226020,0,0,0,530,555,289,463,485,518,307,250,367,297,217,571,0,,
1,1775670460752,-4259,1249,11677,1302364,-138055,582765,0,0,0,248,342,231,297,229,301,444,408,260,333,413,114,0,,
2,1775670460752,1316,-531,12557,2140471,-497244,-248011,0,0,0,533,560,282,464,490,514,294,250,355,277,194,563,0,,
1,1775670460768,-4058,1091,10624,1081231,-62308,217468,0,0,0,250,341,232,304,232,304,450,420,257,339,416,116,0,,
2,1775670460768,1454,-760,13117,2488664,-653625,-287106,0,0,0,531,549,270,457,491,504,286,248,352,263,178,552,0,,
1,1775670460784,-2708,1024,9801,918741,86742,47647,0,0,0,252,336,238,305,232,314,455,436,264,340,418,124,0,,
2,1775670460784,1689,-1000,13821,2851518,-817337,-353080,0,0,0,529,545,273,453,497,509,272,230,357,247,162,520,0,,
1,1775670460800,-2306,880,9504,737925,147829,21991,0,0,0,274,329,246,314,225,323,462,436,274,360,421,137,0,,
2,1775670460800,2091,-1249,14749,3197268,-979827,-450818,0,0,0,517,543,272,448,491,504,269,219,359,241,163,492,0,,
1,1775670460816,-2636,516,9528,459370,167377,-9773,0,0,0,301,327,251,333,219,325,472,433,277,391,427,154,0,,
2,1775670460816,2622,-1435,15893,3577226,-1160643,-581543,0,0,0,505,545,265,440,492,495,269,203,352,241,165,470,0,,
1,1775670460832,-2636,478,9384,136833,235793,-78190,0,0,0,309,331,255,341,221,330,483,452,280,395,439,169,0,,
2,1775670460832,3110,-1426,17013,4021936,-1367116,-761138,0,0,0,485,522,266,428,478,485,253,185,339,216,146,420,0,,
1,1775670460848,-2479,550,9585,-39095,285884,-109955,0,0,0,315,330,258,351,221,340,491,461,280,401,445,185,0,,
2,1775670460848,3330,-1474,17879,4447098,-1530828,-948062,0,0,0,446,514,250,414,466,466,259,185,327,203,140,372,0,,
1,1775670460864,-2258,703,10236,-114842,256563,-105068,0,0,0,323,334,281,360,223,360,496,471,282,394,457,197,0,,
2,1775670460864,2943,-1670,18568,4808731,-1606575,-1117883,0,0,0,398,496,235,402,448,442,272,204,307,188,134,329,0,,
1,1775670460880,-2158,1005,10490,-113620,160046,-80634,0,0,0,334,337,273,363,225,357,507,466,297,431,454,205,0,,
2,1775670460880,2536,-1363,18583,5081177,-1609019,-1219287,0,0,0,355,469,237,378,420,419,296,243,285,165,123,293,0,,
1,1775670460896,-2196,1239,10308,-24434,29321,-51312,0,0,0,324,362,272,363,287,364,511,464,295,423,466,213,0,,
2,1775670460896,3034,-952,16558,5224119,-1433089,-1271821,0,0,0,298,441,231,348,392,382,315,285,265,136,130,215,0,,
1,1775670460912,-2287,1110,10083,86742,-72082,-24434,0,0,0,330,354,280,370,258,366,520,472,301,431,465,231,0,,
2,1775670460912,3192,-559,13898,5192354,-1336573,-1330464,0,0,0,271,436,231,330,374,362,325,298,261,128,133,189,0,,
1,1775670460928,-2412,942,9911,158824,-135612,-2443,0,0,0,335,346,285,374,239,375,526,467,311,427,465,248,0,,
2,1775670460928,1799,3618,11524,4229630,-2177123,-926071,0,0,0,268,437,232,333,374,365,326,298,262,129,131,190,0,,
1,1775670460944,-2502,890,9782,182037,-144164,9773,0,0,0,334,351,287,374,240,403,528,462,323,427,466,286,0,,
2,1775670460944,3728,9035,9270,2023185,-3401297,345749,0,0,0,269,438,233,339,378,371,326,300,265,133,133,192,0,,
1,1775670460960,-2546,904,9724,193033,-119729,20769,0,0,0,337,349,304,380,247,402,529,462,320,431,467,291,0,,
2,1775670460960,8628,9231,7829,-829554,-3016452,1842369,0,0,0,267,439,234,339,379,373,325,302,264,133,135,192,0,,
1,1775670460976,-2569,904,9763,205250,-89186,32986,0,0,0,337,355,309,388,258,403,527,463,319,440,463,291,0,,
2,1775670460976,9739,5876,7403,-2582738,-1799608,2477669,0,0,0,261,440,233,340,381,376,324,303,260,130,134,188,0,,
1,1775670460992,-2550,856,9815,210137,-53756,42760,0,0,0,345,372,310,398,262,405,528,463,321,458,458,301,0,,
2,1775670460992,6432,2459,7336,-2885727,-907745,2162462,0,0,0,256,440,231,338,379,378,325,307,258,130,136,184,0,,
1,1775670461008,-2493,808,9825,206472,-28099,48869,0,0,0,352,380,317,399,256,409,525,456,329,459,453,311,0,,
2,1775670461008,5527,3393,6680,-2880840,-1111774,1820378,0,0,0,259,444,238,336,377,375,323,307,257,133,141,187,0,,
1,1775670461024,-2435,789,9767,200363,-32986,54977,0,0,0,348,376,313,395,257,413,524,447,334,439,447,313,0,,
2,1775670461024,6097,4623,5977,-3274237,-1077566,1533271,0,0,0,259,442,236,338,381,375,325,310,262,136,142,189,0,,
1,1775670461040,-2383,756,9681,191811,-59864,62308,0,0,0,341,375,299,394,262,408,529,443,326,423,444,313,0,,
2,1775670461040,6365,4670,6097,-3721391,-609643,1309695,0,0,0,255,442,235,337,380,376,318,308,257,136,148,187,0,,
1,1775670461056,-2383,717,9614,179594,-92851,69638,0,0,0,338,378,293,395,266,410,531,438,330,400,439,323,0,,
2,1775670461056,5522,4345,7001,-3949854,-190589,1138652,0,0,0,261,446,242,339,382,377,330,318,263,137,150,187,0,,
1,1775670461072,-2431,689,9600,171042,-108734,72082,0,0,0,343,381,285,402,273,403,541,426,326,400,427,325,0,,
2,1775670461072,5049,4197,7920,-4162435,34208,1108109,0,0,0,256,444,240,337,381,375,329,319,262,135,146,186,0,,
1,1775670461088,-2483,684,9619,169820,-106290,73303,0,0,0,339,387,286,393,302,419,529,420,339,399,421,337,0,,
2,1775670461088,5336,3890,8595,-4367686,223576,1209513,0,0,0,252,441,240,331,376,370,325,315,258,149,167,186,0,,
1,1775670461104,-2502,679,9609,175929,-87964,74525,0,0,0,346,379,288,397,281,416,535,414,336,401,417,341,0,,
2,1775670461104,5565,3508,9480,-4502076,546113,1351233,0,0,0,250,441,239,331,377,370,326,317,258,148,168,184,0,,
1,1775670461120,-2517,665,9600,180816,-64751,75747,0,0,0,343,372,288,409,274,424,525,401,329,396,417,337,0,,
2,1775670461120,5460,3431,10705,-4630358,836885,1516167,0,0,0,253,442,241,329,375,368,334,318,260,148,164,183,0,,
1,1775670461136,-2512,636,9600,182037,-37873,75747,0,0,0,346,375,284,412,288,432,523,397,332,385,411,343,0,,
2,1775670461136,5671,3421,12045,-4839274,1047023,1678657,0,0,0,254,443,240,332,374,369,336,319,263,149,163,185,0,,
1,1775670461152,-2464,598,9619,182037,-23212,76969,0,0,0,352,377,287,410,283,438,520,395,341,380,407,363,0,,
2,1775670461152,5948,3038,13400,-5064072,1288925,1758070,0,0,0,252,441,238,335,376,372,338,323,265,150,164,187,0,,
1,1775670461168,-2459,574,9657,180816,-21991,74525,0,0,0,355,378,295,411,278,440,523,393,355,383,400,367,0,,
2,1775670461168,5723,2129,15065,-5229006,1565036,1717753,0,0,0,253,440,239,337,378,374,339,324,266,153,167,188,0,,
1,1775670461184,-2469,545,9643,180816,-20769,74525,0,0,0,364,377,305,423,277,443,519,385,359,383,395,366,0,,
2,1775670461184,4881,1612,16692,-5204571,1688431,1613905,0,0,0,254,441,241,337,376,373,335,318,264,157,170,189,0,,
1,1775670461200,-2464,512,9629,178372,-15882,75747,0,0,0,368,377,310,422,280,443,515,379,360,378,392,381,0,,
2,1775670461200,3412,2033,18540,-5156924,1770287,1600466,0,0,0,252,440,240,337,376,373,331,314,262,157,169,190,0,,
1,1775670461216,-2416,478,9633,173485,-17104,80634,0,0,0,359,378,306,408,285,442,514,379,364,374,387,398,0,,
2,1775670461216,1780,2627,20196,-5187467,1755626,1888795,0,0,0,252,440,239,341,379,376,334,317,265,155,168,187,0,,
1,1775670461232,-2407,435,9662,166155,-34208,80634,0,0,0,354,381,295,411,287,446,502,370,360,378,378,399,0,,
2,1775670461232,1177,2134,21435,-5240002,1640784,2367713,0,0,0,253,442,239,342,381,377,337,317,265,160,173,188,0,,
1,1775670461248,-2493,430,9710,177150,-45204,85521,0,0,0,360,396,279,410,292,438,506,350,354,389,364,401,0,,
2,1775670461248,2282,-440,21914,-5219232,1514945,2844188,0,0,0,252,441,239,340,382,375,340,319,266,159,172,188,0,,
1,1775670461264,-2560,435,9748,205250,-43982,101403,0,0,0,368,401,285,422,298,444,520,333,362,371,343,410,0,,
2,1775670461264,3412,-4455,22258,-5084842,1462411,3057991,0,0,0,254,444,244,329,399,375,340,319,269,157,169,190,0,,
1,1775670461280,-2550,406,9758,244346,-40317,124616,0,0,0,372,409,301,427,300,465,506,331,380,369,334,419,0,,
2,1775670461280,4139,-10969,22383,-4706105,1395216,2908940,0,0,0,251,443,242,340,380,376,341,320,271,157,168,190,0,,
1,1775670461296,-2507,344,9748,280998,-43982,147829,0,0,0,372,413,303,413,315,465,497,319,370,359,317,424,0,,
2,1775670461296,3512,-17707,21177,-3987728,1321912,2340835,0,0,0,253,444,243,346,384,380,342,321,272,157,165,191,0,,
1,1775670461312,-2507,320,9815,326202,-56199,164933,0,0,0,372,419,292,413,331,480,493,310,399,356,314,455,0,,
2,1775670461312,555,-23685,19052,-2919935,1309695,1618792,0,0,0,257,449,246,347,385,380,343,322,273,157,166,195,0,,
1,1775670461328,-2531,306,9954,398284,-85521,184481,0,0,0,389,406,296,425,341,481,484,285,402,341,278,462,0,,
2,1775670461328,-3551,-27456,16951,-1685988,1095892,1044579,0,0,0,256,451,247,345,384,380,343,322,273,153,166,194,0,,
1,1775670461344,-2584,248,10150,503352,-131946,207694,0,0,0,392,428,302,430,362,484,483,269,398,335,262,476,0,,
2,1775670461344,-4938,-29418,15190,-531452,524122,660956,0,0,0,249,445,233,340,383,373,342,352,264,185,222,188,0,,
1,1775670461360,-2732,196,10303,608421,-167377,240680,0,0,0,396,431,297,430,357,489,479,253,397,312,236,489,0,,
2,1775670461360,-3474,-29322,15649,852767,-34208,229685,0,0,0,254,443,234,346,384,373,369,396,257,197,245,178,0,,
1,1775670461376,-2943,138,10500,763581,-197920,307876,0,0,0,403,435,278,457,367,512,467,241,404,303,221,507,0,,
2,1775670461376,-1421,-20047,15855,2585181,-245567,-166155,0,0,0,249,437,229,347,384,372,400,439,253,241,266,171,0,,
1,1775670461392,-3015,62,10930,968832,-188146,381179,0,0,0,417,434,265,465,372,513,446,234,406,295,210,525,0,,
2,1775670461392,1383,3766,13883,3243694,-368962,-438601,0,0,0,245,430,223,343,381,368,414,459,253,220,259,174,0,,
1,1775670461408,-3120,-38,11797,1307251,-111177,458148,0,0,0,429,438,246,474,381,518,419,227,403,288,198,535,0,,
2,1775670461408,3268,14974,10653,3073873,-932180,-638965,0,0,0,250,428,225,344,379,370,419,464,256,192,264,179,0,,
1,1775670461424,-3292,-76,12586,1712866,-18325,526565,0,0,0,430,439,231,488,386,526,387,219,411,283,192,534,0,,
2,1775670461424,2866,5920,11232,3560122,-1152091,-581543,0,0,0,253,428,226,349,379,374,426,471,258,224,302,178,0,,
1,1775670461440,-3479,-110,13050,2158797,0,638965,0,0,0,431,431,222,484,390,521,352,212,418,271,191,532,0,,
2,1775670461440,1675,-784,14395,3948632,-634078,-274889,0,0,0,255,428,226,351,378,377,436,480,259,240,322,175,0,,
1,1775670461456,-3302,-162,13390,2610838,1221,770911,0,0,0,439,426,206,474,400,513,324,208,411,254,184,535,0,,
2,1775670461456,38,181,15506,3572339,67195,-56199,0,0,0,258,431,235,354,377,383,452,487,265,245,331,177,0,,
1,1775670461472,-3484,-277,14175,3101973,86742,851546,0,0,0,434,419,210,469,379,509,298,204,411,243,163,528,0,,
2,1775670461472,-445,2273,13529,3025004,260228,-244346,0,0,0,262,433,255,358,374,389,469,498,267,253,328,180,0,,
1,1775670461488,-4441,-454,15348,3694512,155159,985936,0,0,0,434,407,206,443,357,513,240,189,417,211,145,503,0,,
2,1775670461488,1067,2134,12419,2547308,129503,-421497,0,0,0,280,446,291,375,380,406,496,505,281,242,325,207,0,,
1,1775670461504,-5455,-784,16960,4311486,83077,1252273,0,0,0,425,390,226,422,329,496,225,170,419,192,119,460,0,,
2,1775670461504,2282,693,12653,1821600,-146607,-213802,0,0,0,295,452,301,377,378,414,502,527,280,338,411,224,0,,
1,1775670461520,-6714,-1239,18975,4966334,-52534,1588249,0,0,0,429,368,219,409,319,484,208,142,416,173,101,400,0,,
2,1775670461520,1895,28,12232,908967,-373849,58643,0,0,0,322,459,332,385,385,433,517,536,304,304,373,254,0,,
1,1775670461536,-8341,-1445,20421,5571090,-191811,1964542,0,0,0,382,347,205,398,314,448,206,160,375,164,98,321,0,,
2,1775670461536,349,521,11184,300545,-337197,120951,0,0,0,339,463,329,390,386,435,498,518,316,314,378,262,0,,
1,1775670461552,-8906,-1670,21617,6106208,-211359,2414139,0,0,0,344,344,204,369,293,418,206,168,349,147,110,262,0,,
2,1775670461552,253,1005,10619,112399,-79412,10995,0,0,0,346,463,319,395,384,437,514,522,308,376,447,265,0,,
1,1775670461568,-8049,-626,22555,6524040,-45204,2816088,0,0,0,294,341,205,332,279,366,224,201,313,146,152,221,0,,
2,1775670461568,765,1287,10394,43982,94073,-36651,0,0,0,359,469,323,399,390,438,527,534,307,322,391,284,0,,
1,1775670461584,-7331,1277,22249,6779382,153938,3046995,0,0,0,249,311,200,286,232,312,261,229,280,149,192,159,0,,
2,1775670461584,1110,1397,10217,20769,141720,-25656,0,0,0,369,475,326,399,390,438,532,542,313,289,365,291,0,,
1,1775670461600,-7863,2727,18602,6902777,217468,3182607,0,0,0,241,292,208,265,195,289,291,245,270,155,213,127,0,,
2,1775670461600,1100,1421,10098,6108,105068,-12217,0,0,0,370,474,334,399,389,441,537,547,317,307,380,293,0,,
1,1775670461616,-8030,5384,11505,6464175,18325,3224146,0,0,0,245,292,220,261,188,289,300,253,274,161,224,129,0,,
2,1775670461616,1091,1478,10074,6108,52534,-14660,0,0,0,373,474,332,401,389,443,538,550,317,320,388,297,0,,
1,1775670461632,-7020,10241,8107,4813618,-29321,2767219,0,0,0,232,295,220,255,194,289,300,258,273,161,228,131,0,,
2,1775670461632,1067,1536,10069,35430,18325,-19547,0,0,0,381,477,324,406,393,445,536,550,315,310,378,300,0,,
1,1775670461648,-5709,15845,9035,1255938,266337,1232726,0,0,0,227,296,218,252,196,284,307,264,270,161,225,127,0,,
2,1775670461648,1057,1560,10074,75747,4886,-21991,0,0,0,385,478,329,407,395,448,533,545,314,324,391,298,0,,
1,1775670461664,-6259,13960,8815,-2138028,585208,-376292,0,0,0,224,298,217,252,197,284,308,263,270,161,223,127,0,,
2,1775670461664,1067,1545,10102,117286,2443,-25656,0,0,0,388,479,335,404,392,448,528,541,314,353,424,296,0,,
1,1775670461680,-7370,8820,6594,-3712838,398284,-847880,0,0,0,218,297,219,254,198,288,305,260,270,164,223,130,0,,
2,1775670461680,1062,1493,10069,139277,-2443,-31764,0,0,0,394,481,335,405,393,448,530,543,314,343,416,299,0,,
1,1775670461696,-6719,5675,4886,-3776368,-334754,-256563,0,0,0,218,297,230,255,199,298,310,260,273,164,227,135,0,,
2,1775670461696,1057,1440,9997,153938,-12217,-36651,0,0,0,397,481,328,410,396,448,529,540,313,333,397,303,0,,
1,1775670461712,-3330,5723,5714,-3954741,-891863,294437,0,0,0,218,300,234,253,196,299,310,261,277,169,226,136,0,,
2,1775670461712,1057,1407,9935,161268,-21991,-41538,0,0,0,397,481,333,413,395,452,535,538,317,329,374,304,0,,
1,1775670461728,-574,5943,7456,-4482529,-799011,288328,0,0,0,219,300,234,255,196,299,312,264,281,169,226,133,0,,x
2,1775670461728,1028,1416,9920,177150,-21991,-46425,0,0,0,410,483,326,413,393,451,529,528,314,362,407,307,0,,x
1,1775670461744,-224,5407,8844,-4983438,-530231,-36651,0,0,0,220,301,223,257,204,294,305,256,272,175,240,133,0,,
2,1775670461744,1024,1440,9901,210137,-13439,-57421,0,0,0,415,484,340,415,393,455,524,510,326,428,469,308,0,,
1,1775670461760,-215,4967,9777,-5305975,-591317,-298102,0,0,0,221,303,223,258,203,293,304,258,273,171,233,134,0,,
2,1775670461760,1062,1416,9863,250454,-15882,-69638,0,0,0,426,491,341,415,394,463,521,506,325,425,459,322,0,,
1,1775670461776,71,4714,10562,-5517334,-839328,-525344,0,0,0,219,303,222,258,202,294,306,263,278,172,232,132,0,,
2,1775670461776,1110,1354,9863,287106,-41538,-79412,0,0,0,428,493,328,420,399,462,525,503,334,411,438,338,0,,
1,1775670461792,186,4206,11648,-5648059,-994488,-713490,0,0,0,220,305,224,259,200,295,308,263,279,174,232,131,0,,
2,1775670461792,1119,1273,9877,295658,-73303,-79412,0,0,0,432,499,326,422,402,465,528,502,335,338,353,349,0,,
1,1775670461808,148,3575,12964,-5699372,-1123992,-783129,0,0,0,221,306,226,260,202,297,308,265,279,172,231,131,0,,
2,1775670461808,1124,1220,9868,289550,-103847,-75747,0,0,0,437,505,342,429,425,465,529,499,333,303,308,360,0,,
1,1775670461824,248,3196,14534,-5703037,-1248608,-686612,0,0,0,220,304,228,259,203,301,307,267,280,169,232,130,0,,
2,1775670461824,1100,1182,9868,278554,-139277,-70860,0,0,0,441,508,345,432,424,474,530,494,336,270,274,377,0,,
1,1775670461840,382,2914,16324,-5751907,-1323134,-542448,0,0,0,220,304,230,257,200,300,305,266,279,171,235,131,0,,
2,1775670461840,1052,1172,9930,283441,-160046,-69638,0,0,0,445,510,356,436,417,491,529,481,341,254,258,390,0,,
1,1775670461856,382,2388,18262,-5863084,-1314581,-453262,0,0,0,218,306,227,257,201,296,303,267,279,175,240,133,0,,
2,1775670461856,1000,1134,10007,301767,-161268,-69638,0,0,0,453,514,363,446,419,501,529,467,347,260,242,404,0,,
1,1775670461872,-105,1517,19693,-5915618,-1268156,-623082,0,0,0,216,308,232,254,207,301,297,270,282,169,240,134,0,,
2,1775670461872,961,1072,10050,326202,-140499,-74525,0,0,0,461,516,348,452,420,501,531,457,350,257,216,419,0,,
1,1775670461888,-641,449,21253,-5822767,-1274264,-1039692,0,0,0,216,310,232,253,206,301,300,271,284,169,244,130,0,,
2,1775670461888,985,1024,10074,356745,-118507,-80634,0,0,0,467,522,348,450,425,503,530,441,350,255,213,433,0,,
1,1775670461904,-1182,-985,23081,-5588195,-1288925,-1689653,0,0,0,217,308,230,255,204,303,306,267,284,174,238,132,0,,
2,1775670461904,1067,995,10098,399505,-118507,-91629,0,0,0,478,531,348,453,431,508,527,424,354,255,192,457,0,,
1,1775670461920,-2684,-4048,25163,-5370727,-1314581,-2343279,0,0,0,222,299,210,255,201,287,322,303,268,211,291,119,0,,
2,1775670461920,1134,952,10136,455705,-139277,-111177,0,0,0,486,538,346,457,447,509,521,406,353,254,187,470,0,,
1,1775670461936,-5829,-15199,27920,-4933347,-1370781,-2714685,0,0,0,237,292,215,274,195,289,337,277,273,235,259,115,0,,
2,1775670461936,1139,918,10260,520457,-147829,-134390,0,0,0,493,541,357,466,449,525,505,379,353,244,175,483,0,,
1,1775670461952,-7307,-28178,21947,-3359758,-1259604,-2167349,0,0,0,229,301,222,272,204,306,320,275,277,211,262,121,0,,
2,1775670461952,1234,928,10457,620639,-136833,-163711,0,0,0,499,543,361,474,450,517,492,357,364,256,171,504,0,,
1,1775670461968,-5283,-27073,16314,-2868623,-1582140,-1211956,0,0,0,229,304,212,273,208,298,324,288,271,221,277,125,0,,
2,1775670461968,1215,851,10715,755029,-94073,-202807,0,0,0,511,550,361,465,450,529,467,325,364,251,168,525,0,,
1,1775670461984,4905,-25991,16214,-3334102,-1772730,-574213,0,0,0,226,299,203,264,200,283,329,324,262,228,309,118,0,,
2,1775670461984,1167,713,11194,957836,-25656,-241902,0,0,0,516,555,346,483,469,539,440,301,364,256,165,546,0,,
1,1775670462000,11753,-35003,13811,-1621236,-432492,-243124,0,0,0,225,298,201,264,193,277,359,370,266,256,351,113,0,,
2,1775670462000,1402,550,11797,1208291,-43982,-263893,0,0,0,515,563,318,483,477,552,418,293,380,262,178,554,0,,
1,1775670462016,8432,-43579,11543,2041511,962723,190589,0,0,0,229,295,199,272,192,276,400,413,268,289,391,107,0,,
2,1775670462016,1631,330,12495,1558928,-186924,-312763,0,0,0,518,568,306,479,486,551,376,292,371,262,183,565,0,,
1,1775670462032,3082,-25891,16032,4741535,819781,476474,0,0,0,239,289,204,281,189,276,438,447,271,317,414,107,0,,
2,1775670462032,1225,368,13610,2041511,-329867,-361632,0,0,0,524,568,291,475,492,556,338,284,369,279,210,573,0,,
1,1775670462048,-1225,1698,20574,5023755,561996,642630,0,0,0,248,288,217,290,184,281,461,457,273,341,419,110,0,,
2,1775670462048,1076,698,14759,2596177,-406836,-338419,0,0,0,525,562,276,472,494,548,315,271,364,280,212,575,0,,
1,1775670462064,-3479,6834,21885,3926641,687834,938289,0,0,0,250,293,229,295,192,293,466,447,260,352,424,109,0,,
2,1775670462064,1780,904,15965,3169168,-456927,-353080,0,0,0,527,557,273,471,500,542,290,261,357,259,189,572,0,,
1,1775670462080,-4465,-1737,19918,2411695,510683,696386,0,0,0,258,304,248,293,201,307,460,443,265,345,421,123,0,,
2,1775670462080,2723,894,17717,3824016,-555887,-482583,0,0,0,528,551,278,472,500,535,268,243,360,246,172,550,0,,
1,1775670462096,-3661,-3900,13926,973719,138055,92851,0,0,0,275,311,244,317,212,318,464,452,268,346,421,119,0,,
2,1775670462096,3962,890,20014,4726875,-718377,-740368,0,0,0,520,539,274,467,496,518,257,213,361,240,159,502,0,,
1,1775670462112,-1861,1861,7585,543670,18325,-98960,0,0,0,301,309,259,336,218,335,474,445,263,368,428,137,0,,
2,1775670462112,5192,674,22574,5812993,-860098,-1103222,0,0,0,495,527,258,451,493,503,251,184,350,226,144,442,0,,
1,1775670462128,-1397,3005,6561,525344,54977,-39095,0,0,0,314,320,256,358,226,316,480,464,252,370,442,147,0,,
2,1775670462128,6149,507,24685,6831916,-862541,-1501506,0,0,0,448,511,248,427,468,479,255,174,329,205,134,387,0,,
1,1775670462144,-2368,253,9265,116064,145385,-59864,0,0,0,322,319,260,362,238,326,496,467,265,393,457,163,0,,
2,1775670462144,6905,875,25771,7599163,-564439,-1891238,0,0,0,374,490,226,401,440,443,274,198,309,181,132,332,0,,
1,1775670462160,-2861,258,10174,-376292,285884,-158824,0,0,0,327,315,261,366,233,334,505,468,269,388,474,158,0,,
2,1775670462160,6594,2048,26173,8096407,108734,-2305405,0,0,0,319,453,221,365,403,405,290,249,272,154,119,283,0,,
1,1775670462176,-2292,1732,10179,-329867,328645,-149051,0,0,0,330,332,281,369,244,364,513,476,272,410,479,176,0,,
2,1775670462176,6398,4091,24393,8409170,605978,-2740341,0,0,0,262,432,225,334,375,367,307,289,256,125,118,188,0,,
1,1775670462192,-1823,2182,10471,-70860,184481,-76969,0,0,0,333,342,289,375,267,371,517,483,275,424,481,191,0,,
2,1775670462192,7724,7001,17942,8109846,393397,-3112969,0,0,0,265,431,235,329,372,373,317,314,268,120,123,195,0,,
1,1775670462208,-2014,1703,10624,171042,-69638,-4886,0,0,0,338,344,306,379,267,379,521,481,286,424,485,205,0,,
2,1775670462208,6111,10509,12419,6697526,-851546,-3159395,0,0,0,269,435,236,334,375,378,312,309,267,121,124,197,0,,
1,1775670462224,-2349,1478,10284,238237,-180816,32986,0,0,0,340,350,322,382,260,390,523,478,300,421,485,214,0,,
2,1775670462224,4833,15089,10179,3141069,-2390926,-1742187,0,0,0,264,434,232,335,376,380,315,309,266,119,122,199,0,,
1,1775670462240,-2455,1378,9782,252898,-201585,69638,0,0,0,339,356,319,391,268,382,519,478,305,419,479,211,0,,
2,1775670462240,7063,15745,9107,-1312138,-2492330,287106,0,0,0,262,434,229,337,377,378,317,309,262,122,125,195,0,,
1,1775670462256,-2373,1349,9571,224798,-172263,91629,0,0,0,344,362,318,396,273,377,521,470,304,417,480,216,0,,
2,1775670462256,8365,9906,7973,-3726277,-1252273,1279151,0,0,0,255,434,229,335,378,377,318,312,262,120,125,194,0,,
1,1775670462272,-2421,1359,9652,199142,-142942,97738,0,0,0,344,370,316,391,286,371,523,467,311,416,480,223,0,,
2,1775670462272,7188,5173,6111,-4142888,-285884,1211956,0,0,0,249,434,228,336,384,380,320,314,264,121,125,194,0,,
1,1775670462288,-2517,1354,9700,185703,-89186,102625,0,0,0,347,380,287,402,307,373,519,464,315,412,472,222,0,,
2,1775670462288,4321,4178,4900,-3764151,243124,602313,0,0,0,246,435,233,338,388,386,321,313,265,130,139,199,0,,
1,1775670462304,-2402,1325,9686,174707,-36651,108734,0,0,0,347,374,286,401,290,383,519,442,315,403,462,227,0,,
2,1775670462304,2278,5738,5963,-4186870,403171,428827,0,0,0,245,436,236,336,384,386,321,313,266,140,158,200,0,,
1,1775670462320,-2278,1383,9719,186924,-28099,114842,0,0,0,340,380,283,396,293,377,516,431,315,385,451,232,0,,
2,1775670462320,1253,6446,7154,-4830722,476474,527787,0,0,0,247,436,232,337,381,381,322,314,266,142,163,194,0,,
1,1775670462336,-2306,1469,9734,246789,-57421,122173,0,0,0,340,395,283,393,295,393,512,431,334,432,419,251,0,,
2,1775670462336,1306,6044,7743,-5236336,598647,698829,0,0,0,247,437,232,339,383,381,320,313,264,142,162,194,0,,
1,1775670462352,-2359,1421,9672,310319,-65973,129503,0,0,0,341,392,288,400,298,408,511,416,340,386,415,264,0,,
2,1775670462352,1378,5585,8537,-5397605,940732,790459,0,0,0,245,437,232,339,383,383,319,315,262,142,160,194,0,,
1,1775670462368,-2349,1273,9619,331088,-45204,131946,0,0,0,345,399,293,399,312,417,507,414,348,388,412,283,0,,
2,1775670462368,827,5561,9920,-5579643,1227839,866206,0,0,0,246,437,232,339,383,382,323,317,265,138,154,192,0,,
1,1775670462384,-2330,1215,10442,263893,13439,125838,0,0,0,360,392,291,413,300,418,509,402,346,373,402,292,0,,
2,1775670462384,277,5436,11366,-5839871,1284038,971275,0,0,0,246,436,232,339,381,381,328,320,267,136,152,194,0,,
1,1775670462400,-2297,1210,10653,232128,40317,111177,0,0,0,362,396,288,420,294,410,506,379,338,364,384,306,0,,
2,1775670462400,86,5077,12620,-6070778,1304808,1047023,0,0,0,249,441,238,339,381,383,329,322,267,135,147,194,0,,
1,1775670462416,-2230,1162,9897,284663,8552,95294,0,0,0,357,409,282,417,313,407,504,357,347,366,362,321,0,,
2,1775670462416,81,4651,14041,-6262590,1350012,1062905,0,0,0,243,436,234,341,382,385,330,322,268,134,144,195,0,,
1,1775670462432,-2201,1091,9490,329867,-20769,91629,0,0,0,357,410,285,419,329,411,505,342,353,367,340,334,0,,
2,1775670462432,191,4182,15750,-6376211,1381777,1010371,0,0,0,247,439,237,342,382,385,332,322,269,130,144,194,0,,
1,1775670462448,-2244,1062,9657,351858,-31764,106290,0,0,0,356,404,296,419,326,425,502,328,350,362,319,343,0,,
2,1775670462448,483,3924,17755,-6467841,1397659,945619,0,0,0,248,440,239,344,385,388,333,322,269,130,139,191,0,,
1,1775670462464,-2340,1048,9815,395840,-31764,135612,0,0,0,353,412,294,411,323,439,496,308,352,353,304,340,0,,
2,1775670462464,918,4130,20287,-6626666,1430646,923628,0,0,0,246,440,239,343,382,386,329,315,267,147,163,194,0,,
1,1775670462480,-2402,981,9839,458148,-28099,174707,0,0,0,367,433,280,435,336,436,501,292,348,352,288,333,0,,
2,1775670462480,1229,3843,23139,-6834360,1485624,1043357,0,0,0,248,441,241,323,395,375,333,316,269,150,165,196,0,,
1,1775670462496,-2421,880,9825,527787,-23212,223576,0,0,0,384,446,283,449,337,420,505,278,367,348,277,358,0,,
2,1775670462496,1497,1679,26053,-6912551,1557706,1444085,0,0,0,251,441,242,329,389,374,334,313,269,154,167,196,0,,
1,1775670462512,-2483,842,9949,601091,-23212,272445,0,0,0,384,434,309,450,350,454,494,267,394,342,265,402,0,,
2,1775670462512,2153,-4388,28762,-6625444,1640784,1920560,0,0,0,249,439,240,344,379,381,332,307,268,161,175,195,0,,
1,1775670462528,-2598,851,10184,713490,-17104,339641,0,0,0,393,473,309,457,407,464,489,255,415,358,257,432,0,,
2,1775670462528,3584,-15415,30997,-6053674,1569923,2058615,0,0,0,248,438,238,348,381,385,332,304,269,165,181,194,0,,
1,1775670462544,-2636,722,10394,861319,-7330,419053,0,0,0,407,462,333,471,385,489,480,238,394,314,232,445,0,,
2,1775670462544,5250,-29121,28064,-5012760,1248608,1253495,0,0,0,249,439,240,348,379,385,333,304,273,168,185,195,0,,
1,1775670462560,-2555,536,10720,998153,-29321,481361,0,0,0,434,456,303,487,387,487,465,229,394,302,212,456,0,,
2,1775670462560,2220,-38755,22167,-3346319,1298699,-23212,0,0,0,252,440,242,347,377,383,337,306,276,165,180,193,0,,
1,1775670462576,-2321,363,11328,1200961,-100181,516791,0,0,0,429,474,265,505,408,491,439,223,411,309,230,496,0,,
2,1775670462576,-6590,-41220,18190,-1328021,1285260,-1054353,0,0,0,252,442,240,350,379,386,339,308,273,164,180,194,0,,
1,1775670462592,-2086,311,12036,1500285,-179594,496022,0,0,0,440,494,242,515,456,490,407,225,415,304,227,513,0,,
2,1775670462592,-9341,-39985,17319,194255,216246,-1167974,0,0,0,250,441,237,350,383,386,352,328,269,170,203,192,0,,
1,1775670462608,-2033,311,12639,1875356,-219911,449596,0,0,0,441,506,233,510,460,504,381,221,408,292,210,529,0,,
2,1775670462608,-5704,-33759,17784,1626123,-844215,-1134987,0,0,0,248,435,241,350,385,384,385,432,263,169,218,181,0,,
1,1775670462624,-2531,210,12916,2243097,-190589,445931,0,0,0,443,497,221,524,454,510,352,215,415,294,203,543,0,,
2,1775670462624,-148,-3752,19090,2901609,-1919338,-868650,0,0,0,238,409,194,351,376,359,435,466,253,170,234,170,0,,
1,1775670462640,-3235,23,13476,2739119,-155159,537561,0,0,0,462,479,219,530,474,514,319,209,426,295,203,544,0,,
2,1775670462640,6173,25053,11993,3404962,-2981022,-125838,0,0,0,251,398,200,351,364,370,466,479,255,210,287,172,0,,
1,1775670462656,-3723,57,14687,3321885,-125838,700051,0,0,0,462,468,226,509,496,520,281,204,417,272,199,541,0,,
2,1775670462656,5881,18693,6427,4158770,-2767219,840550,0,0,0,252,398,200,359,364,385,488,495,268,229,326,170,0,,
1,1775670462672,-5001,196,16061,4010941,-10995,923628,0,0,0,422,456,214,490,484,498,234,199,398,233,186,525,0,,
2,1775670462672,-2407,-622,16554,5230228,-1246165,1084896,0,0,0,254,406,217,361,361,390,503,505,281,219,326,176,0,,
1,1775670462688,-6752,368,17769,4737870,186924,1275486,0,0,0,417,433,224,437,436,488,212,181,387,193,153,470,0,,
2,1775670462688,-7178,-6207,24398,4872261,-335975,357967,0,0,0,263,417,242,372,363,404,513,520,289,245,346,193,0,,
1,1775670462704,-8580,339,20933,5594303,415388,1781283,0,0,0,416,401,238,409,373,468,181,153,363,160,113,383,0,,
2,1775670462704,-2301,105,20162,3329215,-268780,-485026,0,0,0,276,437,269,385,381,419,525,531,300,248,341,224,0,,
1,1775670462720,-10327,272,24268,6466619,679282,2321287,0,0,0,402,367,190,400,342,441,181,156,347,164,120,316,0,,
2,1775670462720,2818,2407,14668,1852143,-108734,-511905,0,0,0,295,455,283,394,397,434,537,539,317,244,326,261,0,,
1,1775670462736,-11021,134,26259,7192327,907745,2819753,0,0,0,324,356,215,350,303,394,197,171,328,147,122,262,0,,
2,1775670462736,3110,641,11548,839328,30543,34208,0,0,0,318,468,286,402,400,442,542,549,320,276,348,284,0,,
1,1775670462752,-8557,1115,28241,7731110,1067792,3208264,0,0,0,252,327,209,291,255,336,229,210,300,139,167,191,0,,
2,1775670462752,971,583,10466,355523,14660,191811,0,0,0,336,475,290,408,398,444,538,557,311,330,400,295,0,,
1,1775670462768,-8164,2847,27973,8087855,1461189,3265685,0,0,0,243,291,217,257,199,291,276,240,277,151,202,144,0,,
2,1775670462768,488,1387,10256,188146,-35430,98960,0,0,0,348,476,296,413,400,447,539,561,312,362,429,302,0,,
1,1775670462784,-11002,6771,19401,8051203,1663996,3237585,0,0,0,232,292,225,247,199,288,288,259,271,153,230,130,0,,
2,1775670462784,1067,2024,10294,138055,-75747,-6108,0,0,0,362,480,303,418,399,449,543,560,316,360,419,308,0,,
1,1775670462800,-11782,10485,10959,7131240,1342681,3005456,0,0,0,225,297,226,248,202,294,287,261,274,154,232,131,0,,
2,1775670462800,1148,1947,10189,146607,-68416,4886,0,0,0,365,481,303,419,399,449,542,557,315,349,403,316,0,,
1,1775670462816,-8265,14989,9724,4014606,623082,1336573,0,0,0,226,297,224,253,200,294,289,257,274,158,226,130,0,,
2,1775670462816,995,1866,10098,183259,-84299,3665,0,0,0,374,485,308,426,404,455,548,551,323,309,355,325,0,,
1,1775670462832,-4546,17090,9648,-196698,472809,-1207069,0,0,0,228,297,221,257,201,292,292,256,270,161,224,128,0,,
2,1775670462832,780,1923,10131,228463,-72082,-19547,0,0,0,379,489,309,423,399,460,545,541,326,374,420,338,0,,
1,1775670462848,-4958,13041,7949,-3068986,984714,-2959031,0,0,0,226,296,221,257,198,290,297,257,270,162,224,128,0,,
2,1775670462848,689,1981,10150,278554,-1221,-42760,0,0,0,386,490,312,429,399,460,545,531,317,314,343,345,0,,
1,1775670462864,-7954,7322,4781,-3660304,827111,-2704911,0,0,0,221,301,223,254,201,290,303,261,274,160,226,128,0,,
2,1775670462864,770,1933,10050,338419,100181,-56199,0,0,0,390,490,305,430,400,463,543,523,325,274,287,356,0,,
1,1775670462880,-7901,4469,3297,-3582113,-109955,-1529606,0,0,0,216,301,223,253,202,292,308,266,275,157,226,128,0,,
2,1775670462880,942,1799,9873,384845,131946,-65973,0,0,0,401,490,308,434,415,464,543,517,332,256,253,370,0,,
1,1775670462896,-4422,5005,4757,-3758042,-544891,-675616,0,0,0,216,302,223,251,200,289,308,268,274,158,228,128,0,,
2,1775670462896,1076,1708,9796,409279,105068,-76969,0,0,0,411,493,307,433,408,466,540,502,333,248,237,380,0,,
1,1775670462912,-1880,5709,6762,-4349360,-333532,-266337,0,0,0,217,303,230,251,200,290,309,269,278,158,228,129,0,,
2,1775670462912,1172,1651,9815,412944,25656,-87964,0,0,0,417,497,310,431,403,469,539,492,338,256,240,390,0,,
1,1775670462928,-1962,5541,8078,-5059185,-47647,-285884,0,0,0,217,301,228,251,198,290,311,270,282,161,230,131,0,,
2,1775670462928,1253,1608,9825,419053,-59864,-91629,0,0,0,424,503,309,437,410,476,537,481,346,250,225,402,0,,
1,1775670462944,-2392,4718,9150,-5626068,-357967,-365297,0,0,0,213,296,237,250,197,299,304,263,283,163,228,134,0,,
2,1775670462944,1220,1526,9825,428827,-153938,-95294,0,0,0,431,509,310,441,412,479,539,469,345,247,209,415,0,,
1,1775670462960,-1703,4216,10375,-5968153,-773355,-469144,0,0,0,216,300,240,248,197,297,305,266,284,159,231,132,0,,
2,1775670462960,1048,1440,9863,422718,-196698,-97738,0,0,0,436,512,313,442,410,480,539,459,341,252,204,429,0,,
1,1775670462976,-760,3761,11739,-6200282,-974940,-652404,0,0,0,217,299,243,248,197,300,306,265,284,162,232,135,0,,
2,1775670462976,885,1392,9901,406836,-194255,-94073,0,0,0,440,513,314,447,416,487,534,453,344,250,196,442,0,,
1,1775670462992,-1005,2924,13108,-6331007,-1017701,-811229,0,0,0,220,297,243,250,197,301,311,267,285,160,230,135,0,,
2,1775670462992,880,1354,9916,397062,-158824,-84299,0,0,0,447,516,315,451,423,491,533,445,355,249,189,453,0,,
1,1775670463008,-1775,2167,14826,-6389650,-1193630,-808785,0,0,0,218,298,245,251,197,303,314,272,288,160,229,135,0,,
2,1775670463008,938,1258,9925,401949,-139277,-81855,0,0,0,453,517,312,455,426,488,536,428,371,254,187,466,0,,
1,1775670463024,-1976,1847,16989,-6455623,-1433089,-618195,0,0,0,216,300,242,253,200,303,314,274,287,161,228,134,0,,
2,1775670463024,995,1143,10002,416610,-136833,-95294,0,0,0,467,524,321,462,435,494,526,419,357,260,186,480,0,,
1,1775670463040,-1770,1306,19559,-6597344,-1582140,-433714,0,0,0,216,302,240,255,204,301,313,275,284,161,228,132,0,,
2,1775670463040,1033,1105,10141,448375,-147829,-123394,0,0,0,472,526,322,469,446,500,513,396,361,264,182,492,0,,
1,1775670463056,-1765,291,21741,-6675535,-1519832,-571769,0,0,0,213,303,246,252,204,305,308,273,285,161,230,133,0,,
2,1775670463056,1110,1091,10260,497244,-166155,-161268,0,0,0,482,534,322,478,458,503,513,388,368,275,189,515,0,,
1,1775670463072,-2718,-1206,24402,-6558249,-1423316,-1169196,0,0,0,211,303,249,250,204,311,305,269,284,163,231,136,0,,
2,1775670463072,1158,1057,10346,566882,-196698,-206472,0,0,0,488,539,333,477,455,508,503,358,368,307,224,513,0,,
1,1775670463088,-4493,-3330,27317,-6240599,-1525941,-2118480,0,0,0,212,303,249,250,203,310,305,270,288,162,232,138,0,,
2,1775670463088,1072,942,10418,641408,-206472,-243124,0,0,0,502,549,329,479,458,509,502,335,375,279,184,532,0,,
1,1775670463104,-6154,-9222,30246,-5915618,-1797165,-3029891,0,0,0,212,304,249,251,199,308,304,264,287,162,231,134,0,,
2,1775670463104,1105,775,10509,717155,-183259,-273667,0,0,0,499,546,326,484,466,522,475,311,382,262,169,545,0,,
1,1775670463120,-7470,-19315,30519,-5674938,-1813048,-3275459,0,0,0,210,304,240,252,208,308,296,264,288,168,237,135,0,,
2,1775670463120,1512,612,10758,836885,-123394,-337197,0,0,0,496,545,318,483,473,523,449,288,384,266,173,565,0,,
1,1775670463136,-6025,-30954,25441,-5120272,-1727526,-2289522,0,0,0,210,304,244,257,208,314,300,263,288,167,235,134,0,,
2,1775670463136,1962,502,11237,1011592,-20769,-458148,0,0,0,507,550,317,495,482,533,425,268,384,269,176,575,0,,
1,1775670463152,1378,-38750,19133,-3841120,-1875356,-857654,0,0,0,213,307,244,259,209,315,303,261,286,167,232,129,0,,
2,1775670463152,1880,469,11993,1281595,136833,-624304,0,0,0,520,556,316,497,496,541,400,263,386,269,178,579,0,,
1,1775670463168,11203,-41392,14802,-1919338,-1507615,386066,0,0,0,214,308,244,259,205,312,307,259,279,175,241,130,0,,
2,1775670463168,540,636,13046,1703092,146607,-654847,0,0,0,531,562,320,495,511,552,368,264,385,262,175,588,0,,
1,1775670463184,12792,-41756,14199,-217468,-92851,1128878,0,0,0,219,297,233,259,202,298,327,302,279,203,295,123,0,,
2,1775670463184,43,746,13816,2217440,8552,-531452,0,0,0,536,561,303,496,518,557,338,261,382,260,176,592,0,,
1,1775670463200,9145,-35706,16252,1304808,1505171,1479515,0,0,0,229,278,197,266,192,269,384,367,262,256,359,104,0,,
2,1775670463200,914,698,14414,2740341,-101403,-431270,0,0,0,533,555,267,490,512,543,315,257,378,267,181,591,0,,
1,1775670463216,-1536,-7269,16214,3071430,3101973,1255938,0,0,0,234,270,157,267,198,240,435,426,238,289,396,86,0,,
2,1775670463216,1742,641,15357,3279124,-189368,-465479,0,0,0,528,560,262,483,505,536,288,248,373,264,176,587,0,,
1,1775670463232,-9246,17798,13505,3847229,3632204,585208,0,0,0,238,265,141,269,194,229,456,459,231,304,410,78,0,,
2,1775670463232,2584,607,16735,4008497,-370184,-571769,0,0,0,521,563,265,470,506,532,262,224,377,255,174,570,0,,
1,1775670463248,-5628,10217,12926,4388455,2910161,-227241,0,0,0,244,257,144,284,168,244,469,469,245,335,419,81,0,,
2,1775670463248,4249,373,18573,4823391,-585208,-799011,0,0,0,523,550,269,469,501,522,251,188,376,253,165,543,0,,
1,1775670463264,847,-1191,16630,4890587,1706757,-730594,0,0,0,245,261,149,299,174,274,484,484,259,379,433,88,0,,
2,1775670463264,6154,-205,21502,5828876,-790459,-1197295,0,0,0,516,531,276,472,491,529,255,172,373,227,146,481,0,,
1,1775670463280,4642,-3828,20267,4122118,637743,-482583,0,0,0,245,259,164,314,186,297,503,503,268,388,447,95,0,,
2,1775670463280,8092,-1617,25532,6908885,-778242,-1723861,0,0,0,487,513,259,456,483,502,245,160,345,212,134,406,0,,
1,1775670463296,650,-306,17348,2302961,514348,133168,0,0,0,249,269,201,330,198,304,514,514,284,380,457,113,0,,
2,1775670463296,9437,-2254,28016,7779979,-260228,-2300518,0,0,0,416,490,231,424,462,471,256,170,318,190,126,367,0,,
1,1775670463312,-2550,890,13323,1148426,460592,155159,0,0,0,242,279,225,338,202,359,519,519,315,414,463,139,0,,
2,1775670463312,9471,-899,29624,8569217,471587,-2970026,0,0,0,360,459,220,380,423,434,270,206,286,166,124,319,0,,
1,1775670463328,-2167,339,10811,728151,338419,-171042,0,0,0,252,280,218,354,208,344,536,536,308,425,479,163,0,,
2,1775670463328,7891,2536,30485,9022479,1180191,-3618765,0,0,0,289,432,227,343,383,384,295,248,264,128,107,227,0,,
1,1775670463344,-727,71,11050,505796,168598,-212581,0,0,0,275,282,225,364,209,356,545,549,311,432,496,181,0,,
2,1775670463344,6666,6815,25139,8610756,752585,-3971845,0,0,0,271,427,237,326,365,369,307,280,262,115,107,196,0,,
1,1775670463360,-737,622,11131,333532,42760,-127059,0,0,0,290,291,229,371,211,353,561,551,323,429,493,206,0,,
2,1775670463360,6465,9959,17147,7852061,-768468,-4103792,0,0,0,273,429,240,324,365,372,308,301,263,113,113,192,0,,
1,1775670463376,-1253,1067,10591,291993,0,-52534,0,0,0,300,296,234,373,211,369,571,542,330,437,487,224,0,,
2,1775670463376,6034,14472,11246,6070778,-2619390,-3353650,0,0,0,272,429,235,328,368,372,308,301,259,113,113,191,0,,
1,1775670463392,-1359,1057,10179,311541,8552,-18325,0,0,0,311,313,240,390,229,376,570,527,338,444,492,245,0,,
2,1775670463392,6508,20775,6709,1857030,-2932153,-1276708,0,0,0,274,431,231,331,367,368,312,300,258,134,124,192,0,,
1,1775670463408,-1148,985,10208,337197,6108,2443,0,0,0,320,328,244,393,237,379,567,512,345,448,479,263,0,,
2,1775670463408,7044,17707,7303,-3547905,-1718974,1280373,0,0,0,273,433,231,331,366,367,314,300,258,145,144,195,0,,
1,1775670463424,-1033,1038,10342,370184,-34208,29321,0,0,0,325,341,242,386,246,381,565,492,345,438,460,278,0,,
2,1775670463424,7083,9428,8107,-5971818,-981049,2381152,0,0,0,270,433,232,330,366,367,312,299,257,139,159,197,0,,
1,1775670463440,-1067,1062,10327,423940,-96516,52534,0,0,0,325,349,240,386,262,383,565,471,346,416,448,299,0,,
2,1775670463440,6886,3340,6178,-5511226,-821002,1915673,0,0,0,266,433,232,332,369,372,313,303,258,144,170,195,0,,
1,1775670463456,-1129,933,10131,460592,-149051,64751,0,0,0,327,342,238,387,257,392,566,450,350,401,429,321,0,,
2,1775670463456,6269,3177,4441,-4741535,-514348,982271,0,0,0,255,434,230,333,372,375,313,306,258,148,177,196,0,,
1,1775670463472,-1172,799,9954,461814,-182037,70860,0,0,0,341,328,226,393,249,400,567,423,349,389,412,326,0,,
2,1775670463472,4991,4335,5034,-4747644,-2443,342084,0,0,0,257,438,236,330,371,373,311,309,258,143,173,193,0,,
1,1775670463488,-1201,674,9844,428827,-205250,76969,0,0,0,346,332,232,408,249,414,553,421,354,387,409,345,0,,
2,1775670463488,3512,5149,7135,-5282762,412944,145385,0,0,0,252,435,235,332,373,376,315,310,259,142,166,193,0,,
1,1775670463504,-1273,612,9782,390953,-215024,85521,0,0,0,338,332,225,423,258,407,552,405,347,366,414,330,0,,
2,1775670463504,2895,5116,8748,-5716476,670730,274889,0,0,0,252,437,235,332,373,375,315,310,258,142,166,193,0,,
1,1775670463520,-1354,598,9767,357967,-206472,95294,0,0,0,337,338,227,416,260,411,550,403,357,361,374,342,0,,
2,1775670463520,2986,4790,9667,-5922949,960280,544891,0,0,0,250,438,234,330,371,375,311,307,254,148,180,193,0,,
1,1775670463536,-1421,603,9791,339641,-175929,107512,0,0,0,335,336,232,414,266,422,550,380,361,351,365,359,0,,
2,1775670463536,2995,4283,10772,-6036570,1352455,935845,0,0,0,250,435,232,328,367,371,307,303,253,156,195,191,0,,
1,1775670463552,-1435,588,9801,334754,-135612,114842,0,0,0,326,356,223,409,295,415,551,374,358,343,344,363,0,,
2,1775670463552,2641,3900,12548,-6156299,1612684,1363451,0,0,0,249,435,233,327,367,371,310,300,253,163,203,191,0,,
1,1775670463568,-1411,550,9810,335975,-96516,113620,0,0,0,323,375,227,401,304,413,548,361,359,332,333,371,0,,
2,1775670463568,2732,3723,14405,-6327342,1726305,1721418,0,0,0,251,435,236,328,369,376,313,302,259,163,205,192,0,,
1,1775670463584,-1335,488,9863,339641,-80634,105068,0,0,0,345,352,230,416,278,421,554,348,363,327,305,377,0,,
2,1775670463584,3517,3306,16688,-6597344,1822821,1903456,0,0,0,251,433,235,328,368,376,313,302,258,165,207,193,0,,
1,1775670463600,-1273,382,9940,350636,-96516,100181,0,0,0,358,336,225,421,271,428,557,325,368,323,283,383,0,,
2,1775670463600,4125,2670,19033,-6827029,1933999,1852143,0,0,0,251,433,235,328,367,374,314,302,257,165,205,192,0,,
1,1775670463616,-1296,296,9978,377514,-145385,118507,0,0,0,359,340,225,425,277,430,554,312,374,319,277,397,0,,
2,1775670463616,4312,2258,22091,-7002959,2012190,1653001,0,0,0,251,435,238,329,367,374,316,303,257,163,196,192,0,,
1,1775670463632,-1368,239,9983,417831,-194255,151494,0,0,0,361,344,228,428,281,431,557,305,383,315,270,418,0,,
2,1775670463632,4489,2086,25613,-7127575,2026850,1530828,0,0,0,252,436,238,330,367,375,319,304,258,158,185,191,0,,
1,1775670463648,-1579,229,9949,459370,-216246,193033,0,0,0,366,346,227,429,286,439,565,289,395,310,250,438,0,,
2,1775670463648,4958,966,29528,-7221648,2028072,1598023,0,0,0,251,435,237,331,367,375,323,306,262,149,173,190,0,,
1,1775670463664,-1952,258,9992,507018,-221133,255341,0,0,0,369,357,230,443,296,451,564,277,405,304,226,457,0,,
2,1775670463664,4570,-4216,32175,-7147123,2279749,1874134,0,0,0,251,437,237,336,369,378,330,308,266,143,158,190,0,,
1,1775670463680,-2273,244,10260,576656,-241902,360410,0,0,0,372,370,236,454,313,456,568,256,406,291,206,472,0,,
2,1775670463680,3278,-14304,33792,-6747617,2553416,2061059,0,0,0,256,437,238,343,373,383,336,310,271,143,152,192,0,,
1,1775670463696,-2392,100,10820,715934,-360410,514348,0,0,0,369,387,234,448,335,474,571,235,401,276,186,489,0,,
2,1775670463696,2727,-29078,31337,-5806884,2243097,1704314,0,0,0,258,440,238,345,374,389,337,309,274,144,151,193,0,,
1,1775670463712,-2268,-28,11366,906524,-515570,657290,0,0,0,397,393,224,464,363,486,564,224,412,276,186,507,0,,
2,1775670463712,224,-40703,23081,-4092797,1837482,329867,0,0,0,256,439,234,347,375,390,337,306,275,147,158,195,0,,
1,1775670463728,-1742,-86,11844,1133765,-604756,726929,0,0,0,412,402,231,476,370,505,523,227,439,266,180,530,0,,
2,1775670463728,-7475,-45962,17492,-2091602,1577254,-1243721,0,0,0,257,439,238,347,375,388,341,310,279,147,159,193,0,,
1,1775670463744,-746,-81,12347,1524719,-508239,634078,0,0,0,432,400,230,474,370,522,498,227,429,267,167,539,0,,
2,1775670463744,-14414,-46039,17080,-421497,704938,-2004859,0,0,0,257,436,238,341,369,381,340,319,271,163,188,191,0,,
1,1775670463760,-588,-172,12730,1942551,-414166,474031,0,0,0,434,411,218,473,362,549,443,209,443,263,164,546,0,,
2,1775670463760,-11854,-39435,19119,1248608,-722042,-1717753,0,0,0,255,425,235,345,369,377,391,423,265,181,240,168,0,,
1,1775670463776,-1636,-349,13352,2427578,-453262,398284,0,0,0,443,417,198,480,383,549,397,203,452,250,161,557,0,,
2,1775670463776,-3603,-11457,22636,2970026,-2204001,-1077566,0,0,0,245,396,199,346,358,361,443,465,257,178,248,168,0,,
1,1775670463792,-2794,-507,14228,2983465,-485026,486248,0,0,0,440,419,202,494,390,560,352,206,461,242,149,549,0,,
2,1775670463792,5872,23096,14730,3442836,-3459940,-238237,0,0,0,253,372,184,343,337,362,475,480,263,196,285,165,0,,
1,1775670463808,-3067,-507,15549,3626096,-458148,680503,0,0,0,465,406,193,501,376,556,313,184,465,241,128,541,0,,
2,1775670463808,6867,20770,7016,4243069,-3629761,502131,0,0,0,257,370,192,349,335,377,491,490,275,200,301,168,0,,
1,1775670463824,-3814,-220,17693,4470311,-505796,894306,0,0,0,459,382,197,468,367,549,243,162,442,203,106,510,0,,
2,1775670463824,-1622,-2957,13764,5848423,-1974316,922406,0,0,0,261,384,201,364,344,388,507,507,287,211,324,179,0,,
1,1775670463840,-6259,-358,20684,5475796,-753807,1240056,0,0,0,425,365,203,424,360,530,194,142,418,158,89,451,0,,
2,1775670463840,-5642,-5656,24225,5172806,-537561,377514,0,0,0,274,407,238,375,354,400,525,527,295,247,359,193,0,,
1,1775670463856,-9222,-1076,24039,6448293,-1076344,1731192,0,0,0,379,353,187,393,343,478,187,131,385,142,87,377,0,,
2,1775670463856,-1268,-38,23551,3004235,-237015,-332310,0,0,0,289,429,278,385,368,417,535,546,302,324,407,217,0,,
1,1775670463872,-10098,-1191,28667,7423234,-1103222,2436130,0,0,0,311,340,178,353,315,416,189,155,333,135,102,300,0,,
2,1775670463872,3508,2383,15281,1236391,-339641,-233350,0,0,0,308,442,292,399,380,433,538,560,308,376,443,247,0,,
1,1775670463888,-9303,287,31246,7927809,-555887,2849075,0,0,0,267,323,187,308,272,359,220,197,300,131,142,222,0,,
2,1775670463888,2144,851,10557,730594,-229685,168598,0,0,0,333,453,304,409,384,442,544,564,310,379,454,263,0,,
1,1775670463904,-9614,3374,31418,8276002,-116064,3188716,0,0,0,239,278,190,274,209,299,265,247,257,132,218,126,0,,
2,1775670463904,536,157,10126,481361,-106290,207694,0,0,0,350,458,313,414,386,445,549,564,314,420,475,270,0,,
1,1775670463920,-10370,8600,24953,8383514,502131,3435506,0,0,0,255,272,215,256,174,278,303,250,272,152,211,126,0,,
2,1775670463920,1000,1091,10801,230907,-112399,34208,0,0,0,363,466,324,413,391,443,554,568,319,413,463,279,0,,
1,1775670463936,-10629,12610,14347,7853283,1657888,3496592,0,0,0,250,272,211,266,179,283,304,248,275,159,211,126,0,,
2,1775670463936,1349,1641,10524,90408,-118507,-18325,0,0,0,367,475,328,407,406,440,554,567,313,405,463,279,0,,
1,1775670463952,-10586,13682,9767,5387831,2105041,2873510,0,0,0,238,275,220,262,182,293,301,248,277,156,210,132,0,,
2,1775670463952,1340,1718,10088,57421,-80634,-12217,0,0,0,369,468,328,412,384,448,557,569,325,397,463,280,0,,
1,1775670463968,-7504,16166,9777,1109331,1488067,1251052,0,0,0,241,282,217,262,183,289,299,248,271,156,207,128,0,,
2,1775670463968,1210,1713,10059,94073,-59864,-18325,0,0,0,369,470,321,412,387,448,557,563,325,397,458,285,0,,
1,1775670463984,-4221,14199,9418,-2626720,1683544,-702495,0,0,0,230,284,212,262,193,288,301,249,267,156,212,128,0,,
2,1775670463984,1095,1876,10107,175929,-39095,-42760,0,0,0,374,469,318,418,387,451,552,540,323,444,494,300,0,,
1,1775670464000,-5235,8734,6398,-4354247,2432465,-1695761,0,0,0,223,285,208,261,197,285,304,250,264,158,215,127,0,,
2,1775670464000,1052,1981,10112,307876,18325,-65973,0,0,0,388,473,318,424,391,455,554,534,327,368,401,316,0,,
1,1775670464016,-8408,5226,3713,-4288273,1975538,-1125213,0,0,0,222,289,210,258,193,284,305,252,264,162,219,129,0,,
2,1775670464016,1134,1794,10011,428827,89186,-75747,0,0,0,394,476,322,423,395,457,552,529,332,265,281,342,0,,
1,1775670464032,-8432,4211,3493,-4354247,807563,-312763,0,0,0,222,293,215,257,190,286,305,254,267,166,223,133,0,,
2,1775670464032,1249,1588,9901,469144,116064,-79412,0,0,0,397,476,316,424,393,460,547,516,332,235,240,351,0,,
1,1775670464048,-5833,4527,5163,-4746422,270002,26878,0,0,0,223,294,216,259,194,288,305,255,267,167,225,131,0,,
2,1775670464048,1344,1464,9801,452040,94073,-79412,0,0,0,406,480,317,425,392,465,543,502,333,239,232,363,0,,
1,1775670464064,-4350,4546,6939,-5302310,316428,-73303,0,0,0,223,294,216,260,195,286,305,257,265,165,225,128,0,,
2,1775670464064,1450,1430,9748,433714,47647,-78190,0,0,0,417,485,319,431,396,470,540,491,336,244,226,375,0,,
1,1775670464080,-5398,4039,7973,-5765346,313984,-463035,0,0,0,222,292,216,259,192,286,305,257,265,165,225,128,0,,
2,1775670464080,1531,1397,9767,423940,-35430,-81855,0,0,0,427,490,319,434,399,471,540,480,339,244,218,384,0,,
1,1775670464096,-6140,3369,9155,-6168517,-268780,-846659,0,0,0,222,291,217,260,192,288,306,257,267,166,226,130,0,,
2,1775670464096,1454,1320,9806,409279,-114842,-94073,0,0,0,434,495,321,432,397,472,537,467,342,240,208,394,0,,
1,1775670464112,-5786,2574,10629,-6487388,-853989,-1188743,0,0,0,220,290,216,261,196,288,311,261,267,164,224,128,0,,
2,1775670464112,1273,1244,9853,386066,-145385,-102625,0,0,0,436,497,322,435,399,478,532,454,347,236,197,405,0,,
1,1775670464128,-5393,1526,12294,-6599788,-1196074,-1422094,0,0,0,220,291,216,259,194,289,309,260,268,166,228,129,0,,
2,1775670464128,1249,1239,9877,375071,-128281,-95294,0,0,0,440,498,326,445,406,486,536,445,355,238,187,414,0,,
1,1775670464144,-5474,885,14065,-6586349,-1480737,-1452637,0,0,0,224,293,221,259,191,288,304,256,268,164,227,124,0,,
2,1775670464144,1273,1206,9877,376292,-117286,-85521,0,0,0,449,505,327,450,412,489,526,430,360,238,180,426,0,,
1,1775670464160,-5489,665,16549,-6591235,-1799608,-1262047,0,0,0,223,291,216,259,191,287,307,256,269,167,227,124,0,,
2,1775670464160,1258,1119,9882,381179,-111177,-76969,0,0,0,451,511,327,451,412,489,530,425,359,246,180,439,0,,
1,1775670464176,-5106,339,19459,-6698748,-1987755,-1014036,0,0,0,224,292,219,259,191,287,298,253,272,165,228,124,0,,
2,1775670464176,1296,1043,9959,398284,-96516,-76969,0,0,0,461,512,329,457,421,494,530,413,367,253,183,456,0,,
1,1775670464192,-5130,-205,22306,-6772052,-2054950,-934623,0,0,0,225,293,221,261,192,286,305,256,269,165,226,120,0,,
2,1775670464192,1368,995,10045,427605,-83077,-91629,0,0,0,474,517,337,458,424,500,527,393,373,245,169,476,0,,
1,1775670464208,-5891,-1229,25455,-6677978,-2120924,-1241278,0,0,0,226,295,223,263,191,284,310,256,269,162,218,118,0,,
2,1775670464208,1464,933,10088,470366,-68416,-123394,0,0,0,480,522,338,462,431,509,517,364,374,256,165,487,0,,
1,1775670464224,-6733,-3235,28805,-6500827,-2313957,-1860695,0,0,0,227,295,226,265,190,286,312,256,270,163,216,121,0,,
2,1775670464224,1622,851,10131,515570,-42760,-173485,0,0,0,489,529,340,466,443,511,507,332,370,263,175,507,0,,
1,1775670464240,-7398,-8116,31916,-6306572,-2755002,-2724458,0,0,0,226,295,224,267,192,288,310,255,270,165,217,122,0,,
2,1775670464240,1813,751,10260,571769,-4886,-254119,0,0,0,493,533,335,474,452,518,507,311,372,265,171,524,0,,
1,1775670464256,-7240,-18210,31887,-6086661,-3059213,-3070208,0,0,0,221,297,219,267,196,291,309,255,273,167,218,120,0,,
2,1775670464256,1880,717,10614,670730,10995,-346971,0,0,0,496,536,349,482,457,522,491,287,375,265,167,537,0,,
1,1775670464272,-5695,-29748,27484,-5583308,-2932153,-2509434,0,0,0,217,303,217,264,202,295,312,257,279,172,221,123,0,,
2,1775670464272,1789,780,11270,868650,-24434,-421497,0,0,0,501,538,341,487,464,520,469,265,378,280,178,556,0,,
1,1775670464288,626,-40875,20023,-4338364,-2702467,-977384,0,0,0,218,315,215,265,208,293,312,258,277,171,225,122,0,,
2,1775670464288,1665,760,11883,1204626,-83077,-453262,0,0,0,508,544,328,489,474,525,441,247,382,295,189,568,0,,
1,1775670464304,12433,-46561,15204,-2245540,-1682322,839328,0,0,0,220,316,213,267,211,290,312,259,277,171,226,120,0,,
2,1775670464304,1316,660,12323,1578475,-83077,-466701,0,0,0,513,549,319,493,484,533,410,236,386,285,184,576,0,,
1,1775670464320,15372,-46341,14591,-307876,270002,1865582,0,0,0,222,315,212,271,212,289,319,266,269,172,229,117,0,,
2,1775670464320,1038,521,12897,2001194,-58643,-433714,0,0,0,510,548,290,500,498,539,389,240,387,263,172,596,0,,
1,1775670464336,10193,-40655,15769,1241278,1743409,2183232,0,0,0,220,303,210,270,202,286,329,293,268,196,274,111,0,,
2,1775670464336,1579,445,13945,2515543,-86742,-408057,0,0,0,513,548,279,498,505,546,362,240,393,268,178,600,0,,
1,1775670464352,1627,-24757,19186,2731789,2394591,1907121,0,0,0,228,296,210,276,199,273,393,373,255,256,355,88,0,,
2,1775670464352,2330,392,14950,3116634,-134390,-471587,0,0,0,518,545,258,496,497,536,322,229,397,275,182,596,0,,
1,1775670464368,-6389,13127,21028,3665191,2594955,1053131,0,0,0,240,268,161,282,184,243,444,444,232,313,399,83,0,,
2,1775670464368,2579,339,15826,3800803,-133168,-641408,0,0,0,518,547,251,484,502,534,283,208,390,268,177,602,0,,
1,1775670464384,-9748,35831,12251,3127630,2736676,-279776,0,0,0,247,262,167,284,168,245,459,460,238,355,418,83,0,,
2,1775670464384,3134,330,17554,4652349,-72082,-829554,0,0,0,517,538,248,483,509,544,263,186,401,253,165,574,0,,
1,1775670464400,-4474,14989,9667,3954741,2280970,-972497,0,0,0,255,262,178,295,170,256,474,473,247,395,429,85,0,,
2,1775670464400,4891,425,20483,5634620,-64751,-1094670,0,0,0,513,523,251,466,476,528,261,160,391,254,157,535,0,,
1,1775670464416,3560,-6121,20114,5020090,839328,-739146,0,0,0,253,269,194,303,183,277,484,483,257,400,438,92,0,,
2,1775670464416,6618,402,24637,6659652,-142942,-1462411,0,0,0,471,499,244,459,466,519,250,152,375,217,140,436,0,,
1,1775670464432,3881,-6068,23192,3767816,-90408,146607,0,0,0,252,282,218,312,197,302,493,493,272,408,446,109,0,,
2,1775670464432,8054,713,28978,7670023,-21991,-1866804,0,0,0,404,473,224,436,451,486,268,158,352,200,134,374,0,,
1,1775670464448,-1914,1105,16544,2046398,-272445,654847,0,0,0,272,294,235,336,206,327,507,505,285,412,457,141,0,,
2,1775670464448,7465,3287,31653,8461705,204028,-2276083,0,0,0,345,449,211,395,419,440,276,188,312,172,124,326,0,,
1,1775670464464,-4690,2000,10643,1270599,-284663,235793,0,0,0,302,303,248,356,210,339,521,507,298,406,472,172,0,,
2,1775670464464,7465,5149,30782,8917410,438601,-2646268,0,0,0,283,423,215,351,382,389,294,240,274,129,107,228,0,,
1,1775670464480,-3402,0,9772,1017701,-239459,-146607,0,0,0,317,315,262,360,217,340,528,496,318,403,485,199,0,,
2,1775670464480,8796,6039,26786,9017592,967610,-3073873,0,0,0,264,423,229,330,363,374,307,277,268,113,111,193,0,,
1,1775670464496,-2699,-306,10279,729373,-52534,-90408,0,0,0,325,327,267,371,235,353,525,486,333,405,484,246,0,,
2,1775670464496,9509,9298,17860,8406727,897971,-3678630,0,0,0,266,424,236,327,363,376,311,289,268,114,117,194,0,,
1,1775670464512,-2900,325,10093,515570,147829,13439,0,0,0,332,342,278,372,265,373,528,475,348,416,472,285,0,,
2,1775670464512,7331,14510,11619,6454402,-145385,-4034154,0,0,0,264,422,233,328,365,376,310,289,261,115,116,194,0,,
1,1775670464528,-2742,760,9954,449596,271224,45204,0,0,0,340,344,292,379,253,388,532,458,345,412,460,300,0,,
2,1775670464528,3570,20741,9121,1758070,-1492954,-2985909,0,0,0,263,422,232,329,365,373,312,288,259,114,114,192,0,,
1,1775670464544,-2340,784,10088,460592,261450,47647,0,0,0,357,366,284,385,259,380,532,440,349,418,444,331,0,,
2,1775670464544,3436,17252,9169,-3545461,-2065946,-886976,0,0,0,266,426,235,330,365,372,317,290,261,117,115,194,0,,
1,1775670464560,-2220,737,10236,491135,169820,59864,0,0,0,351,364,294,385,258,409,532,404,350,407,399,349,0,,
2,1775670464560,5025,8734,8360,-6117204,-2161241,392175,0,0,0,275,430,236,332,366,371,316,295,260,118,117,194,0,,
1,1775670464576,-2297,760,10275,531452,78190,91629,0,0,0,355,385,291,390,266,398,527,393,351,395,376,355,0,,
2,1775670464576,6724,3239,5556,-5688377,-1751961,392175,0,0,0,290,428,234,343,368,376,318,295,260,123,116,196,0,,
1,1775670464592,-2297,689,10074,571769,-2443,125838,0,0,0,367,385,287,391,261,389,521,376,345,390,356,372,0,,
2,1775670464592,6815,3771,3924,-4880813,-759916,-10995,0,0,0,257,432,238,328,367,372,318,296,260,118,117,194,0,,
1,1775670464608,-2263,469,9753,509461,-10995,151494,0,0,0,365,384,279,394,273,405,518,361,349,392,347,387,0,,
2,1775670464608,5111,5987,5226,-5001764,215024,-107512,0,0,0,253,433,237,333,374,374,319,301,260,118,121,195,0,,
1,1775670464624,-2273,335,9715,481361,-29321,166155,0,0,0,364,391,280,399,289,414,508,344,352,383,336,396,0,,
2,1775670464624,3766,6379,7480,-5759237,471587,261450,0,0,0,253,436,237,333,373,374,322,302,261,119,121,194,0,,
1,1775670464640,-2330,306,9696,542448,-86742,167377,0,0,0,366,395,278,402,294,415,499,329,351,364,315,404,0,,
2,1775670464640,3929,5245,8399,-6147747,657290,642630,0,0,0,251,435,238,332,372,375,319,303,260,119,121,196,0,,
1,1775670464656,-2364,263,9624,563217,-101403,167377,0,0,0,366,398,276,404,301,416,491,317,353,350,298,408,0,,
2,1775670464656,4383,3862,8892,-6086661,1102000,904080,0,0,0,251,435,239,332,372,374,320,304,263,125,135,192,0,,
1,1775670464672,-2383,224,9662,543670,-76969,173485,0,0,0,367,401,276,404,314,423,486,306,356,342,291,410,0,,
2,1775670464672,3680,3833,10241,-5969375,1494176,1040914,0,0,0,250,436,239,333,373,377,318,306,265,131,144,194,0,,
1,1775670464688,-2383,196,9739,529009,-40317,184481,0,0,0,367,407,268,404,325,436,485,292,353,326,281,416,0,,
2,1775670464688,3220,4134,11883,-6061004,1616349,1180191,0,0,0,249,436,239,335,375,378,321,307,266,129,143,192,0,,
1,1775670464704,-2297,105,9763,540004,-25656,191811,0,0,0,366,412,262,404,338,444,478,278,353,322,270,419,0,,
2,1775670464704,3613,4087,13610,-6299242,1684766,1248608,0,0,0,249,437,239,331,374,374,323,307,267,127,139,192,0,,
1,1775670464720,-2182,4,9739,548556,-41538,194255,0,0,0,366,416,249,415,332,442,478,266,352,331,255,430,0,,
2,1775670464720,3900,3914,15702,-6536258,1860695,1215621,0,0,0,249,439,240,332,376,376,324,308,267,127,135,193,0,,
1,1775670464736,-2062,-100,9786,554665,-80634,188146,0,0,0,380,422,252,434,328,435,486,255,358,392,244,426,0,,
2,1775670464736,3785,3799,18755,-6827029,2067167,1104444,0,0,0,250,440,240,335,379,379,327,309,267,125,133,193,0,,
1,1775670464752,-2115,-191,9868,570548,-130725,186924,0,0,0,370,406,280,430,335,446,475,254,369,308,234,454,0,,
2,1775670464752,3747,3847,22402,-7099475,2139250,1110553,0,0,0,251,440,240,336,379,378,329,309,268,121,128,191,0,,
1,1775670464768,-2330,-268,9901,603534,-153938,211359,0,0,0,392,416,258,434,343,450,472,243,379,308,229,471,0,,
2,1775670464768,3967,3790,26948,-7302283,2193006,1315803,0,0,0,250,439,242,337,378,379,329,306,268,118,122,190,0,,
1,1775670464784,-2512,-349,9911,646295,-152716,256563,0,0,0,406,424,251,437,338,448,459,230,381,304,220,503,0,,
2,1775670464784,4503,1943,32117,-7442782,2239431,1866804,0,0,0,248,439,241,335,377,378,331,303,271,123,123,195,0,,
1,1775670464800,-2790,-411,10007,712268,-135612,326202,0,0,0,401,443,259,446,359,469,444,230,388,284,217,514,0,,
2,1775670464800,5388,-6384,35151,-7338934,2505769,2603507,0,0,0,251,439,239,338,381,382,334,300,274,132,136,194,0,,
1,1775670464816,-3139,-497,10299,830776,-118507,441044,0,0,0,402,454,260,468,377,485,435,219,398,281,205,519,0,,
2,1775670464816,5953,-20713,36281,-6752504,2708576,2910161,0,0,0,254,434,240,349,374,390,340,298,280,141,142,197,0,,
1,1775670464832,-3239,-703,10562,990823,-122173,590095,0,0,0,405,455,256,461,374,491,425,216,400,273,196,527,0,,
2,1775670464832,4938,-38181,30045,-5193576,2317622,2035402,0,0,0,255,435,242,347,373,391,337,293,282,156,168,196,0,,
1,1775670464848,-2751,-880,10983,1186300,-153938,707381,0,0,0,410,462,261,456,380,492,407,212,403,273,195,542,0,,
2,1775670464848,-1765,-48643,21617,-3149621,2247984,626747,0,0,0,258,435,243,349,374,391,337,291,278,158,170,195,0,,
1,1775670464864,-2211,-880,11533,1413542,-162490,729373,0,0,0,416,473,258,469,404,497,382,203,409,276,193,558,0,,
2,1775670464864,-12969,-51595,17635,-932180,1804495,-557109,0,0,0,250,431,235,344,374,391,334,303,279,181,211,196,0,,
1,1775670464880,-1694,-856,12017,1715309,-129503,657290,0,0,0,430,490,242,488,437,511,359,194,416,276,189,558,0,,
2,1775670464880,-13247,-48130,19291,829554,36651,-751364,0,0,0,247,418,231,346,371,380,381,401,272,205,278,173,0,,
1,1775670464896,-1588,-976,12648,2090380,-105068,535117,0,0,0,451,506,236,503,466,524,342,186,423,276,181,549,0,,
2,1775670464896,-7351,-29648,23886,2693915,-1850921,-579100,0,0,0,243,377,189,347,352,360,448,463,260,182,261,163,0,,
1,1775670464912,-2598,-1076,13759,2591290,-112399,477696,0,0,0,462,482,223,501,473,525,312,179,425,262,163,550,0,,
2,1775670464912,3613,12462,19798,3926641,-4301713,256563,0,0,0,254,354,173,345,328,357,491,494,261,249,333,156,0,,
1,1775670464928,-4072,-1043,15395,3313333,-135612,645073,0,0,0,487,455,223,486,469,517,245,172,436,250,145,551,0,,
2,1775670464928,7427,26355,12519,4276056,-5412266,1145983,0,0,0,261,360,170,350,326,364,510,517,263,268,362,154,0,,
1,1775670464944,-5594,-971,17745,4240626,-158824,974940,0,0,0,453,459,240,476,445,494,207,168,444,208,116,527,0,,
2,1775670464944,-2426,5178,15013,4971221,-3848451,1671327,0,0,0,264,372,179,359,336,374,522,531,267,289,379,157,0,,
1,1775670464960,-8365,-1273,20976,5224119,-180816,1446528,0,0,0,432,450,252,452,396,520,206,135,419,163,98,463,0,,
2,1775670464960,-10088,-4565,21751,4731762,-1320690,1073901,0,0,0,269,385,203,368,344,385,530,535,280,320,397,166,0,,
1,1775670464976,-11639,-1603,24556,6194173,-109955,2074498,0,0,0,426,379,220,430,338,474,206,135,384,176,93,398,0,,
2,1775670464976,-8217,-1751,20224,3722612,160046,101403,0,0,0,277,402,237,376,352,402,535,546,294,374,439,184,0,,
1,1775670464992,-13137,-842,27819,7000515,172263,2805093,0,0,0,362,353,192,398,320,420,200,152,337,153,101,281,0,,
2,1775670464992,-86,2368,13835,2458121,411723,-331088,0,0,0,289,420,269,382,363,416,536,564,297,432,493,206,0,,
1,1775670465008,-11978,693,30169,7563733,748920,3434284,0,0,0,284,329,188,321,279,359,208,187,292,136,132,220,0,,
2,1775670465008,2857,693,11375,1478293,175929,-19547,0,0,0,307,434,286,393,376,425,527,556,311,435,495,223,0,,
1,1775670465024,-11040,3144,29719,8053647,1131322,3832568,0,0,0,243,283,194,274,221,308,253,227,272,137,172,143,0,,
2,1775670465024,760,-875,11629,735481,-76969,282219,0,0,0,320,443,295,405,384,439,508,534,346,441,496,239,0,,
1,1775670465040,-11859,6891,24843,8334645,1062905,4051258,0,0,0,246,284,208,263,202,287,282,256,265,146,214,122,0,,
2,1775670465040,-162,603,10993,375071,-161268,149051,0,0,0,330,451,300,410,387,440,564,575,313,454,502,259,0,,
1,1775670465056,-11485,10385,14510,7812966,915076,4173431,0,0,0,254,287,214,268,198,284,294,261,264,158,226,125,0,,
2,1775670465056,-47,1598,10327,219911,-178372,15882,0,0,0,346,463,306,406,384,437,563,575,311,451,504,262,0,,
1,1775670465072,-9188,12845,8949,5907066,780685,3679852,0,0,0,253,285,213,271,195,284,298,256,265,162,219,125,0,,
2,1775670465072,263,1675,10165,169820,-141720,-14660,0,0,0,349,471,299,409,392,439,562,571,304,456,497,264,0,,
1,1775670465088,-5436,17066,9169,1108109,486248,1258382,0,0,0,251,292,208,273,207,285,298,258,261,159,219,122,0,,
2,1775670465088,272,1555,10318,168598,-138055,2443,0,0,0,364,472,310,417,396,444,560,561,308,453,491,273,0,,
1,1775670465104,-3627,15783,9581,-3477044,818559,-1546710,0,0,0,248,296,206,277,216,285,304,263,256,162,223,118,0,,
2,1775670465104,114,1636,10370,208915,-151494,-4886,0,0,0,367,471,310,414,392,445,555,550,315,447,483,281,0,,
1,1775670465120,-6245,9093,7642,-5345070,1434311,-2789210,0,0,0,241,295,208,277,205,287,310,263,259,163,221,120,0,,
2,1775670465120,-47,1718,10275,299323,-102625,-26878,0,0,0,377,475,322,414,391,445,551,531,313,445,475,286,0,,
1,1775670465136,-9035,4551,4752,-5032307,803898,-2046398,0,0,0,235,295,209,272,201,286,312,265,263,159,221,119,0,,
2,1775670465136,-81,1636,10165,375071,-17104,-35430,0,0,0,380,481,318,415,394,449,549,521,318,443,464,295,0,,
1,1775670465152,-7944,3737,4024,-4657236,-361632,-952949,0,0,0,229,294,207,268,197,282,313,265,261,158,221,114,0,,
2,1775670465152,-19,1478,10064,410501,62308,-35430,0,0,0,380,485,309,419,405,454,550,521,327,334,343,322,0,,
1,1775670465168,-4493,5053,5977,-5010316,-786794,-433714,0,0,0,227,292,202,270,204,282,315,266,263,158,223,117,0,,
2,1775670465168,47,1363,9992,415388,108734,-37873,0,0,0,386,489,310,423,412,459,551,516,331,242,243,348,0,,
1,1775670465184,-2421,5675,8341,-5762902,-656069,-425162,0,0,0,232,298,207,272,200,282,315,265,261,159,223,115,0,,
2,1775670465184,124,1316,9949,421497,123394,-45204,0,0,0,394,491,314,425,407,463,549,502,332,278,270,358,0,,
1,1775670465200,-2632,4474,9834,-6307794,-654847,-713490,0,0,0,231,296,208,271,201,283,316,264,262,164,224,115,0,,
2,1775670465200,258,1277,9916,436157,105068,-57421,0,0,0,399,490,313,424,401,462,544,484,335,336,317,360,0,,
1,1775670465216,-2723,3172,10859,-6438519,-988379,-913854,0,0,0,232,302,209,275,206,285,319,268,260,163,225,116,0,,
2,1775670465216,344,1196,9873,441044,61086,-67195,0,0,0,401,489,310,422,401,465,536,467,334,355,332,363,0,,
1,1775670465232,-2144,2565,12074,-6373767,-1389107,-1049466,0,0,0,232,305,210,276,209,287,317,270,262,168,228,117,0,,
2,1775670465232,349,1081,9844,422718,6108,-75747,0,0,0,413,489,308,426,408,470,529,458,336,340,304,377,0,,
1,1775670465248,-1876,2574,14046,-6460510,-1572367,-1172861,0,0,0,232,308,212,277,212,288,315,269,258,170,232,118,0,,
2,1775670465248,339,1062,9892,403171,-32986,-83077,0,0,0,421,497,316,429,405,476,530,445,343,406,366,379,0,,
1,1775670465264,-2426,2330,16070,-6692639,-1660331,-1186300,0,0,0,231,310,210,277,213,288,315,270,257,170,234,115,0,,
2,1775670465264,344,1067,9978,412944,-67195,-86742,0,0,0,434,507,325,435,412,481,522,437,344,315,263,407,0,,
1,1775670465280,-3000,1292,18128,-6886894,-1803274,-981049,0,0,0,231,311,209,276,212,287,317,271,261,172,234,116,0,,
2,1775670465280,301,1019,10050,445931,-91629,-87964,0,0,0,438,508,316,442,417,481,531,430,350,312,256,428,0,,
1,1775670465296,-3187,129,20138,-6906442,-1913229,-723264,0,0,0,233,310,212,275,211,286,316,271,264,172,233,118,0,,
2,1775670465296,205,914,10102,467922,-80634,-89186,0,0,0,449,513,323,458,464,469,531,413,362,331,265,449,0,,
1,1775670465312,-3498,-679,22335,-6731734,-1949881,-675616,0,0,0,238,309,213,275,212,286,315,271,263,169,232,116,0,,
2,1775670465312,215,861,10179,496022,-54977,-91629,0,0,0,455,515,322,453,441,484,521,384,357,330,257,466,0,,
1,1775670465328,-4637,-1761,25565,-6410419,-2061059,-1211956,0,0,0,241,308,210,275,210,284,315,271,262,168,230,114,0,,
2,1775670465328,373,804,10313,568104,-34208,-107512,0,0,0,467,519,322,455,439,491,508,353,361,370,279,480,0,,
1,1775670465344,-5752,-4197,28796,-6079330,-2357939,-2041511,0,0,0,237,312,211,276,213,286,313,268,262,169,229,113,0,,
2,1775670465344,497,693,10409,654847,-28099,-141720,0,0,0,475,522,318,463,452,500,505,336,370,309,217,496,0,,
1,1775670465360,-6341,-10547,31146,-5827654,-2729345,-2841745,0,0,0,230,322,211,273,219,286,314,270,266,167,226,115,0,,
2,1775670465360,526,559,10490,740368,0,-193033,0,0,0,479,532,315,472,459,505,499,311,378,286,189,517,0,,
1,1775670465376,-6374,-20784,30413,-5630955,-2779436,-3059213,0,0,0,221,312,211,277,223,298,307,265,270,168,224,115,0,,
2,1775670465376,674,502,10739,845437,62308,-250454,0,0,0,483,540,312,476,465,512,477,275,385,327,222,534,0,,
1,1775670465392,-3493,-32950,25096,-5056742,-2610838,-2360383,0,0,0,222,315,211,277,221,297,310,270,273,172,228,119,0,,
2,1775670465392,957,430,11189,1023810,106290,-320093,0,0,0,491,541,309,480,477,525,451,251,387,316,215,552,0,,
1,1775670465408,6202,-42378,18123,-3349984,-2306627,-1003040,0,0,0,222,316,210,276,218,292,318,272,274,173,241,118,0,,
2,1775670465408,1052,320,11964,1335351,73303,-405614,0,0,0,501,547,302,486,492,531,426,244,387,272,178,572,0,,
1,1775670465424,14300,-46790,14859,-1400103,-1279151,136833,0,0,0,223,300,191,272,210,277,347,325,260,210,306,107,0,,
2,1775670465424,823,167,12897,1772730,-76969,-441044,0,0,0,505,553,287,489,502,534,393,240,390,269,176,582,0,,
1,1775670465440,16745,-46939,17511,742812,856433,952949,0,0,0,237,274,168,279,188,251,404,392,248,257,367,91,0,,
2,1775670465440,545,239,14132,2317622,-186924,-460592,0,0,0,515,554,277,492,501,543,352,226,389,271,179,594,0,,
1,1775670465456,6250,-21430,17961,3550348,3679852,1254717,0,0,0,247,254,146,285,170,233,448,444,237,302,402,75,0,,
2,1775670465456,784,469,15405,2927266,-179594,-499687,0,0,0,518,547,266,488,502,537,315,216,377,269,178,593,0,,
1,1775670465472,-5269,9830,16434,5158146,4552167,1155757,0,0,0,253,256,137,294,167,234,466,466,237,347,419,70,0,,
2,1775670465472,1296,583,16960,3662747,-194255,-587652,0,0,0,518,544,255,482,510,538,283,203,375,303,201,564,0,,
1,1775670465488,-5374,10375,17855,5679824,2919935,565661,0,0,0,255,265,146,305,173,256,475,475,248,379,429,78,0,,
2,1775670465488,2096,708,19191,4519181,-280998,-712268,0,0,0,511,544,245,473,505,526,267,175,392,255,168,555,0,,
1,1775670465504,459,-1229,22349,5530773,691499,-26878,0,0,0,249,273,166,313,188,295,483,482,262,383,435,98,0,,
2,1775670465504,3484,880,22617,5626068,-465479,-923628,0,0,0,506,531,259,473,499,537,261,166,385,231,148,493,0,,
1,1775670465520,3038,-5513,23321,4113566,-554665,6108,0,0,0,249,283,193,326,212,344,488,488,286,379,442,147,0,,
2,1775670465520,5202,703,26700,6860016,-553443,-1220508,0,0,0,469,513,250,451,482,515,248,155,361,218,146,429,0,,
1,1775670465536,-1990,-1354,16472,2091602,-411723,356745,0,0,0,270,288,221,348,225,377,500,503,302,384,453,231,0,,
2,1775670465536,6130,1014,30303,7987673,-141720,-1611462,0,0,0,412,484,227,431,456,478,266,165,340,199,134,369,0,,
1,1775670465552,-5317,938,9562,845437,-86742,102625,0,0,0,291,297,219,368,232,372,512,519,284,397,462,280,0,,
2,1775670465552,5886,2306,32002,8938180,455705,-2002416,0,0,0,348,451,218,388,417,432,281,203,302,168,123,315,0,,
1,1775670465568,-3359,76,8743,503352,97738,-201585,0,0,0,305,299,226,365,236,387,515,517,291,406,465,290,0,,
2,1775670465568,5972,4527,31653,9517280,1114218,-2373822,0,0,0,283,425,224,345,378,386,300,256,270,129,116,227,0,,
1,1775670465584,-2077,-153,10069,230907,224798,-196698,0,0,0,306,313,234,355,236,391,518,524,306,398,475,316,0,,
2,1775670465584,7016,8341,24953,9219178,1251052,-2800206,0,0,0,266,419,232,331,365,373,310,286,266,115,116,192,0,,
1,1775670465600,-2110,641,10897,46425,276111,-64751,0,0,0,308,331,235,354,252,391,509,523,342,414,473,344,0,,
2,1775670465600,6781,12203,14520,8257676,388510,-3178942,0,0,0,272,421,234,332,366,377,312,296,270,116,116,195,0,,
1,1775670465616,-2335,1249,10308,80634,227241,-12217,0,0,0,316,325,250,369,258,394,524,519,346,432,477,364,0,,
2,1775670465616,3886,15960,9126,6012135,-1286482,-2693915,0,0,0,270,423,233,334,369,376,312,298,266,117,116,194,0,,
1,1775670465632,-2206,1225,10035,184481,153938,8552,0,0,0,328,347,246,378,279,399,535,512,347,442,476,372,0,,
2,1775670465632,3579,19444,8423,788016,-2452013,-397062,0,0,0,269,425,231,336,370,375,310,300,262,119,120,196,0,,
1,1775670465648,-2010,1014,10217,265115,52534,39095,0,0,0,325,350,243,380,271,404,525,499,348,428,464,383,0,,
2,1775670465648,6121,15797,8638,-3610213,-2411695,1540602,0,0,0,264,426,230,335,371,374,312,304,262,118,121,195,0,,
1,1775670465664,-2005,981,10260,302989,-52534,70860,0,0,0,325,368,244,384,273,404,521,482,346,413,449,390,0,,
2,1775670465664,7619,7872,6915,-5065294,-1797165,1830152,0,0,0,254,426,232,331,367,373,316,301,263,119,119,195,0,,
1,1775670465680,-2105,1014,10083,333532,-144164,97738,0,0,0,326,372,243,385,285,401,519,463,337,402,447,395,0,,
2,1775670465680,7365,3814,4747,-4901582,-1351233,1174082,0,0,0,248,428,232,334,373,374,323,306,265,119,121,197,0,,
1,1775670465696,-2177,966,10351,338419,-163711,105068,0,0,0,325,370,241,383,289,400,518,444,338,394,438,408,0,,
2,1775670465696,6590,3737,4288,-4801400,-861319,344527,0,0,0,246,431,232,326,382,373,318,307,262,119,123,197,0,,
1,1775670465712,-2244,914,10973,296880,-112399,108734,0,0,0,328,364,241,389,280,400,514,425,343,398,416,412,0,,
2,1775670465712,5876,4436,5455,-5207015,-329867,-53756,0,0,0,249,433,233,334,375,376,314,307,261,121,123,196,0,,
1,1775670465728,-2287,842,10270,285884,-81855,111177,0,0,0,331,351,242,401,272,405,509,414,342,403,400,402,0,,
2,1775670465728,4843,4718,7217,-5738468,182037,-124616,0,0,0,250,435,236,335,375,377,315,309,261,117,124,194,0,,
1,1775670465744,-2306,765,9514,287106,-59864,114842,0,0,0,326,358,242,404,280,413,508,412,349,387,384,407,0,,
2,1775670465744,4024,4407,8466,-6041457,544891,122173,0,0,0,250,436,237,335,375,376,316,310,261,118,125,194,0,,
1,1775670465760,-2297,722,9475,273667,-28099,116064,0,0,0,327,362,234,405,284,419,511,394,354,387,369,415,0,,
2,1775670465760,3843,3814,9413,-6202725,912632,500909,0,0,0,250,437,241,333,374,376,320,310,263,118,124,194,0,,
1,1775670465776,-2220,698,9676,245567,7330,113620,0,0,0,336,370,244,409,274,442,510,381,357,387,356,425,0,,
2,1775670465776,3723,3077,10643,-6255260,1408655,924849,0,0,0,248,436,238,334,374,377,321,312,264,119,123,195,0,,
1,1775670465792,-2158,679,9691,234572,14660,107512,0,0,0,336,369,239,414,285,426,521,378,359,393,355,421,0,,
2,1775670465792,3115,2699,12280,-6266255,1776396,1244943,0,0,0,248,436,238,336,376,378,322,311,265,120,123,194,0,,
1,1775670465808,-2115,646,9619,234572,0,97738,0,0,0,339,396,244,430,312,416,520,373,353,393,352,425,0,,
2,1775670465808,2579,2608,14170,-6291911,1881464,1455080,0,0,0,247,435,237,336,375,377,321,310,263,119,124,194,0,,
1,1775670465824,-2110,631,9619,244346,-12217,89186,0,0,0,338,403,241,432,303,406,520,364,353,391,337,436,0,,
2,1775670465824,2852,2402,16156,-6370102,1847256,1513724,0,0,0,247,435,236,334,374,376,321,310,263,120,125,193,0,,
1,1775670465840,-2105,622,9705,270002,-31764,85521,0,0,0,334,395,230,433,304,415,516,356,343,382,329,432,0,,
2,1775670465840,3460,2187,18482,-6469062,1891238,1328021,0,0,0,248,435,236,332,372,375,322,311,265,119,123,191,0,,
1,1775670465856,-2086,559,9806,306654,-74525,87964,0,0,0,336,406,230,416,340,413,515,344,345,381,314,459,0,,
2,1775670465856,3799,2359,21440,-6599788,1986533,1097113,0,0,0,248,434,237,333,372,377,326,312,269,116,122,193,0,,
1,1775670465872,-2158,507,9873,344527,-119729,103847,0,0,0,340,392,247,423,325,432,505,327,355,374,300,468,0,,
2,1775670465872,3986,2412,25680,-6844134,2092824,999375,0,0,0,245,432,235,336,374,380,329,313,272,117,121,195,0,,
1,1775670465888,-2301,469,9844,378736,-119729,131946,0,0,0,356,387,253,435,308,452,500,312,369,361,292,475,0,,
2,1775670465888,3857,555,29719,-7057936,2207666,1148426,0,0,0,243,431,232,336,371,378,332,311,272,117,119,194,0,,
1,1775670465904,-2416,440,9825,425162,-101403,172263,0,0,0,367,402,244,430,325,457,497,299,381,345,281,492,0,,
2,1775670465904,3158,-5436,32648,-6985854,2421469,1502728,0,0,0,247,432,235,338,371,380,334,304,273,124,119,198,0,,
1,1775670465920,-2488,387,9877,493579,-87964,229685,0,0,0,374,405,245,428,334,463,489,283,393,330,265,506,0,,
2,1775670465920,2134,-16893,33256,-6385985,2431243,1662775,0,0,0,248,432,235,345,377,387,340,302,278,124,118,200,0,,
1,1775670465936,-2565,272,10021,565661,-100181,295658,0,0,0,398,397,258,450,325,485,483,268,412,323,248,529,0,,
2,1775670465936,1962,-30107,29040,-5354844,1843591,1317025,0,0,0,256,435,239,344,379,385,342,306,283,126,120,202,0,,
1,1775670465952,-2670,124,10303,652404,-136833,365297,0,0,0,398,397,265,472,330,505,464,247,418,307,230,548,0,,
2,1775670465952,-258,-39181,20411,-3667634,1541823,222354,0,0,0,255,435,238,345,375,386,342,305,282,122,117,198,0,,
1,1775670465968,-2775,81,10691,797790,-178372,430049,0,0,0,393,411,265,503,348,517,448,236,417,300,219,558,0,,
2,1775670465968,-6556,-43306,15319,-1831373,1557706,-949284,0,0,0,255,435,240,345,375,391,343,307,286,121,117,198,0,,
1,1775670465984,-2756,43,11127,1015258,-201585,503352,0,0,0,401,428,273,544,398,532,436,234,436,293,215,562,0,,
2,1775670465984,-13074,-43019,15640,-249233,983493,-1549154,0,0,0,250,431,237,342,374,387,340,308,282,122,120,199,0,,
1,1775670466000,-2526,-71,11653,1266934,-136833,542448,0,0,0,429,442,258,537,370,535,407,226,436,293,203,564,0,,
2,1775670466000,-10911,-37645,17439,1290147,-463035,-1315803,0,0,0,247,423,237,344,375,386,373,394,275,161,209,186,0,,
1,1775670466016,-2435,-201,12534,1598023,-36651,546113,0,0,0,437,448,232,542,418,559,386,225,452,292,224,579,0,,
2,1775670466016,-2402,-16381,21067,2949257,-1792278,-784350,0,0,0,243,389,213,343,358,373,427,452,269,170,238,177,0,,
1,1775670466032,-2900,-354,13524,2096489,31764,569326,0,0,0,445,443,221,552,435,561,352,213,455,285,208,583,0,,
2,1775670466032,6786,23627,19913,3635869,-3251024,74525,0,0,0,250,366,191,340,338,366,464,471,265,178,255,176,0,,
1,1775670466048,-3211,-272,14505,2718350,-32986,708603,0,0,0,449,449,208,543,423,555,327,199,446,277,187,585,0,,
2,1775670466048,6470,26211,10433,3571118,-4283387,993266,0,0,0,256,364,196,344,328,375,488,495,268,244,338,169,0,,
1,1775670466064,-3646,-71,15778,3369532,-95294,862541,0,0,0,437,447,203,530,423,566,285,186,429,264,172,578,0,,
2,1775670466064,-1919,3163,11428,4577824,-3492927,1306029,0,0,0,258,373,217,356,332,388,513,530,276,333,430,161,0,,
1,1775670466080,-5786,0,17788,4277278,-51312,1147204,0,0,0,433,424,205,490,395,546,228,174,411,233,151,564,0,,
2,1775670466080,-6748,-5853,22244,4516737,-1672549,635299,0,0,0,271,398,244,370,347,396,527,548,277,355,438,171,0,,
1,1775670466096,-8317,19,20631,5215567,7330,1596801,0,0,0,423,398,210,457,366,511,199,162,407,200,129,513,0,,
2,1775670466096,-3493,-1292,23498,2905275,-698829,-67195,0,0,0,290,423,282,379,361,403,529,549,270,345,422,182,0,,
1,1775670466112,-10567,263,24632,6214942,45204,2225992,0,0,0,379,384,200,443,355,474,199,159,387,172,118,410,0,,
2,1775670466112,1005,3187,15908,1095892,-175929,-164933,0,0,0,300,440,301,390,372,403,535,550,269,391,464,185,0,,
1,1775670466128,-10696,1158,27834,7048163,123394,2857627,0,0,0,323,364,180,399,319,410,205,172,334,148,120,296,0,,
2,1775670466128,1124,2215,10136,665843,136833,81855,0,0,0,304,443,312,401,382,421,547,556,280,403,469,204,0,,
1,1775670466144,-9432,2900,29423,7703010,417831,3295007,0,0,0,288,321,187,334,273,350,228,192,302,144,142,208,0,,
2,1775670466144,746,894,9093,605978,199142,133168,0,0,0,321,445,309,403,378,416,560,556,281,417,474,211,0,,
1,1775670466160,-9466,5312,28518,8258898,680503,3532022,0,0,0,233,284,207,275,222,305,262,228,276,138,189,131,0,,
2,1775670466160,995,1076,10308,400727,42760,67195,0,0,0,330,446,312,404,383,418,555,558,282,414,474,214,0,,
1,1775670466176,-10423,8092,21952,8324871,722042,3624874,0,0,0,242,283,229,263,192,294,299,250,272,150,209,126,0,,
2,1775670466176,1148,1727,10428,202807,-98960,40317,0,0,0,336,449,312,411,379,426,558,561,287,416,473,222,0,,
1,1775670466192,-10026,11060,11691,7588167,880867,3516140,0,0,0,226,285,231,259,197,294,293,269,272,150,241,133,0,,
2,1775670466192,914,2053,10088,151494,-153938,29321,0,0,0,344,454,322,413,383,428,560,557,294,425,469,227,0,,
1,1775670466208,-7815,13993,9116,5242445,1202182,2499660,0,0,0,230,286,232,260,197,295,296,264,270,157,228,137,0,,
2,1775670466208,760,2019,10088,218689,-142942,3665,0,0,0,349,455,336,414,382,433,564,551,300,425,476,234,0,,
1,1775670466224,-5762,17439,9140,1215621,1306029,507018,0,0,0,231,290,227,259,196,289,277,243,270,156,223,133,0,,
2,1775670466224,646,2000,10222,280998,-118507,-21991,0,0,0,354,458,335,415,383,437,564,540,300,422,468,239,0,,
1,1775670466240,-5541,14711,8102,-2455678,1290147,-1348790,0,0,0,228,293,227,252,196,289,293,255,267,157,226,136,0,,
2,1775670466240,550,2110,10251,339641,-34208,-45204,0,0,0,357,460,334,415,385,446,560,527,304,414,451,249,0,,
1,1775670466256,-6518,8815,5518,-4152661,1194852,-2002416,0,0,0,226,293,228,252,198,291,300,266,268,158,229,138,0,,
2,1775670466256,550,2115,10141,416610,67195,-65973,0,0,0,359,460,329,417,385,454,552,516,314,310,336,265,0,,
1,1775670466272,-7169,4469,3168,-4063475,764803,-1403768,0,0,0,225,294,227,251,200,290,299,268,268,159,235,137,0,,
2,1775670466272,684,1899,9954,493579,162490,-78190,0,0,0,361,463,323,423,389,460,550,517,322,222,242,282,0,,
1,1775670466288,-5752,4216,3555,-3963293,249233,-734260,0,0,0,224,294,229,250,197,291,302,269,270,159,234,136,0,,
2,1775670466288,871,1718,9863,508239,173485,-78190,0,0,0,365,466,323,428,391,464,557,516,324,233,237,291,0,,
1,1775670466304,-3843,4819,5288,-4373795,73303,-433714,0,0,0,223,294,229,253,197,293,307,271,273,159,231,135,0,,
2,1775670466304,1062,1675,9820,503352,131946,-78190,0,0,0,372,468,330,428,389,461,562,501,325,240,221,302,0,,
1,1775670466320,-3685,4867,7083,-5155702,300545,-635299,0,0,0,224,295,228,255,199,291,307,271,271,159,232,133,0,,
2,1775670466320,1201,1631,9825,489913,40317,-85521,0,0,0,381,470,338,428,389,458,562,489,328,220,205,320,0,,
1,1775670466336,-4761,4077,8207,-5734802,259006,-895528,0,0,0,227,298,230,252,198,289,306,271,271,159,231,133,0,,
2,1775670466336,1124,1502,9825,461814,-53756,-97738,0,0,0,385,473,340,432,392,465,555,477,333,223,200,329,0,,
1,1775670466352,-5398,3024,9088,-5975483,-186924,-1117883,0,0,0,224,297,231,253,200,291,304,269,271,162,234,135,0,,
2,1775670466352,942,1416,9839,427605,-108734,-105068,0,0,0,384,473,325,432,391,470,555,470,341,227,205,334,0,,
1,1775670466368,-5015,2287,10547,-6087882,-696386,-1448972,0,0,0,222,295,235,253,197,295,309,272,274,163,235,137,0,,
2,1775670466368,818,1378,9853,404392,-106290,-101403,0,0,0,390,476,330,438,399,478,559,463,357,288,262,348,0,,
1,1775670466384,-5053,1751,12285,-6250373,-995710,-1805717,0,0,0,223,294,232,254,197,291,306,272,271,166,241,135,0,,
2,1775670466384,813,1335,9863,395840,-89186,-90408,0,0,0,405,480,336,440,396,482,563,452,358,231,194,374,0,,
1,1775670466400,-5752,1043,14027,-6417750,-1221730,-1952325,0,0,0,219,294,228,257,200,291,306,273,272,165,243,136,0,,
2,1775670466400,880,1282,9906,400727,-84299,-78190,0,0,0,415,491,344,446,399,487,562,436,358,232,186,381,0,,
1,1775670466416,-6269,191,16099,-6504493,-1501506,-1887573,0,0,0,225,295,232,258,200,291,303,269,269,160,236,130,0,,
2,1775670466416,928,1191,9954,411723,-96516,-75747,0,0,0,421,486,341,451,424,484,552,423,357,227,177,383,0,,
1,1775670466432,-6259,-521,18454,-6460510,-1721418,-1665218,0,0,0,226,296,231,257,200,292,306,273,271,164,240,132,0,,
2,1775670466432,961,1115,10011,421497,-114842,-84299,0,0,0,426,490,341,455,416,495,555,409,360,226,166,394,0,,
1,1775670466448,-6456,-1057,21349,-6344446,-1797165,-1511280,0,0,0,221,295,230,257,199,290,307,272,270,164,238,129,0,,
2,1775670466448,990,1091,10074,443488,-131946,-100181,0,0,0,436,498,353,454,415,498,552,390,362,226,158,414,0,,
1,1775670466464,-7298,-1785,24637,-6213721,-1850921,-1549154,0,0,0,222,297,233,260,200,292,307,272,270,164,237,128,0,,
2,1775670466464,1057,1076,10141,486248,-144164,-124616,0,0,0,446,507,363,456,419,502,551,366,363,233,158,438,0,,
1,1775670466480,-8068,-3780,27542,-6135530,-2119702,-1809382,0,0,0,222,298,233,259,201,294,309,272,272,165,235,128,0,,
2,1775670466480,1167,1019,10212,555887,-144164,-164933,0,0,0,452,512,360,461,426,512,546,336,360,268,181,453,0,,
1,1775670466496,-7891,-8647,30069,-6061004,-2646268,-2120924,0,0,0,219,299,231,258,202,294,313,274,276,165,233,129,0,,
2,1775670466496,1273,918,10337,651182,-106290,-226020,0,0,0,462,522,359,466,443,516,537,307,360,300,202,472,0,,
1,1775670466512,-6590,-16735,30011,-5880188,-2960252,-2147802,0,0,0,219,300,231,261,203,296,314,272,280,167,231,130,0,,
2,1775670466512,1296,904,10662,789237,-46425,-298102,0,0,0,477,534,358,477,457,521,530,285,366,285,188,500,0,,
1,1775670466528,-3981,-27456,25125,-5215567,-2827084,-1530828,0,0,0,219,299,236,265,204,307,309,266,292,168,230,135,0,,
2,1775670466528,1162,966,11270,998153,7330,-345749,0,0,0,485,531,353,490,458,533,522,260,377,252,157,524,0,,
1,1775670466544,1474,-36917,18645,-3999945,-2701246,-463035,0,0,0,218,299,244,265,204,320,305,263,307,167,234,144,0,,
2,1775670466544,780,904,11945,1341460,101403,-359188,0,0,0,491,527,364,494,469,536,497,238,393,263,160,543,0,,
1,1775670466560,9356,-42268,14429,-2379930,-2240653,646295,0,0,0,219,300,243,266,203,317,305,265,308,167,236,143,0,,
2,1775670466560,454,689,12433,1750739,237015,-334754,0,0,0,488,531,348,512,493,542,465,227,393,272,170,559,0,,
1,1775670466576,13376,-42794,14070,-580321,-778242,1266934,0,0,0,223,298,242,266,201,314,313,274,303,174,250,137,0,,
2,1775670466576,904,488,13108,2210110,343306,-301767,0,0,0,485,531,302,517,523,521,426,215,403,276,183,565,0,,
1,1775670466592,9863,-38042,15094,1156978,893084,1470963,0,0,0,223,285,238,269,194,314,331,312,295,199,313,122,0,,
2,1775670466592,1876,402,14209,2748893,337197,-340862,0,0,0,493,533,283,499,503,551,383,210,410,252,163,573,0,,
1,1775670466608,1483,-19009,19014,2816088,2018298,1227839,0,0,0,230,280,198,282,191,274,401,402,248,276,361,90,0,,
2,1775670466608,2732,445,15678,3477044,172263,-500909,0,0,0,496,534,252,496,518,560,336,199,406,262,187,589,0,,
1,1775670466624,-6020,15563,19238,3825238,2791654,373849,0,0,0,242,265,170,285,175,249,449,450,233,308,406,88,0,,
2,1775670466624,3110,617,17401,4365242,-51312,-731816,0,0,0,498,528,248,494,513,562,290,173,390,254,163,580,0,,
1,1775670466640,-6982,29451,13122,3946189,2758667,-613308,0,0,0,249,264,170,293,174,265,469,465,238,368,424,88,0,,
2,1775670466640,4436,966,19885,5423261,-178372,-1020144,0,0,0,499,518,242,476,493,544,264,155,387,241,148,540,0,,
1,1775670466656,540,6604,15606,5032307,1341460,-560774,0,0,0,245,283,213,308,200,300,483,483,260,412,436,102,0,,
2,1775670466656,7068,1545,24244,6768386,-184481,-1506393,0,0,0,484,497,245,477,473,529,263,151,385,222,136,464,0,,
1,1775670466672,3407,-7355,23771,4772079,63529,147829,0,0,0,263,295,249,322,208,335,495,494,272,424,451,131,0,,
2,1775670466672,8485,2153,29825,8054869,-84299,-2026850,0,0,0,424,469,220,456,456,503,264,154,365,206,131,383,0,,
1,1775670466688,-2182,-4259,20976,2139250,-311541,535117,0,0,0,297,307,265,338,213,343,509,509,271,418,464,157,0,,
2,1775670466688,7824,2928,35309,9164200,270002,-2466673,0,0,0,358,448,206,410,426,454,277,172,327,177,122,323,0,,
1,1775670466704,-5786,1646,12285,477696,-318871,162490,0,0,0,312,314,276,346,218,345,519,521,270,414,479,176,0,,
2,1775670466704,6432,3761,35328,9693209,799011,-2733011,0,0,0,296,426,218,358,384,398,296,217,286,136,107,243,0,,
1,1775670466720,-4273,1995,8360,497244,-183259,-177150,0,0,0,316,320,281,349,227,346,527,521,274,419,494,181,0,,
2,1775670466720,7140,6862,30471,9705426,1442863,-3028669,0,0,0,267,415,231,335,361,374,307,252,270,114,102,196,0,,
1,1775670466736,-3177,315,8882,505796,12217,-184481,0,0,0,321,328,285,362,234,348,540,514,276,423,502,181,0,,
2,1775670466736,9021,12644,17501,9139765,1799608,-3584557,0,0,0,273,419,238,334,361,380,311,272,275,114,109,197,0,,
1,1775670466752,-3493,373,10160,217468,233350,-39095,0,0,0,324,334,300,374,239,372,546,510,288,429,501,202,0,,
2,1775670466752,6250,13529,11682,8142833,480140,-3969402,0,0,0,274,421,239,329,360,378,309,288,272,113,115,195,0,,
1,1775670466768,-3508,1383,10045,131946,356745,29321,0,0,0,338,345,320,375,254,397,538,508,310,440,495,234,0,,
2,1775670466768,660,18181,10284,5282762,-1688431,-2828306,0,0,0,269,420,234,328,358,375,308,285,263,116,115,195,0,,
1,1775670466784,-2981,1770,9786,274889,350636,64751,0,0,0,348,374,323,380,272,381,537,497,304,423,478,231,0,,
2,1775670466784,2435,21335,7202,-1094670,-3065321,313984,0,0,0,271,420,233,333,363,378,308,283,259,115,114,193,0,,
1,1775670466800,-2636,1430,9987,411723,196698,90408,0,0,0,348,373,323,388,261,392,544,472,315,407,450,240,0,,
2,1775670466800,7288,15017,6824,-5995031,-2858849,2257757,0,0,0,270,421,233,333,363,378,310,286,262,118,114,193,0,,
1,1775670466816,-2737,1273,10169,456927,30543,112399,0,0,0,345,389,323,389,286,393,536,463,316,395,444,248,0,,
2,1775670466816,9121,5159,7619,-7558846,-1890017,2116037,0,0,0,266,422,238,332,363,378,311,288,263,114,113,193,0,,
1,1775670466832,-2871,1301,10040,481361,-73303,134390,0,0,0,337,390,314,405,287,412,540,440,338,387,398,264,0,,
2,1775670466832,7159,2258,6034,-6663318,-1328021,897971,0,0,0,259,425,239,332,364,378,320,296,269,115,116,193,0,,
1,1775670466848,-2890,1210,9662,513126,-125838,149051,0,0,0,337,408,315,394,295,439,524,405,355,365,383,283,0,,
2,1775670466848,5824,2450,4905,-6125756,-906524,37873,0,0,0,252,424,237,331,364,379,318,299,265,113,116,193,0,,
1,1775670466864,-2986,1057,9375,518013,-128281,161268,0,0,0,341,408,316,383,310,435,520,392,368,357,371,295,0,,
2,1775670466864,4962,3369,5977,-6334672,-403171,-283441,0,0,0,252,428,240,330,367,380,316,300,263,113,114,191,0,,
1,1775670466880,-3115,914,9255,483805,-65973,174707,0,0,0,343,409,310,394,324,419,516,382,362,356,356,295,0,,
2,1775670466880,3450,3905,8485,-6726848,136833,-206472,0,0,0,252,427,239,330,365,381,313,299,263,113,114,191,0,,
1,1775670466896,-3034,861,9815,403171,42760,183259,0,0,0,348,419,298,404,338,410,513,369,355,357,345,301,0,,
2,1775670466896,2569,4235,10174,-6906442,425162,134390,0,0,0,254,429,239,331,365,380,315,300,264,114,118,193,0,,
1,1775670466912,-2861,832,9997,348193,97738,177150,0,0,0,353,418,295,399,328,418,507,346,356,354,342,316,0,,
2,1775670466912,3354,3900,11194,-7004180,689055,676838,0,0,0,256,431,242,334,366,382,317,302,264,118,122,194,0,,
1,1775670466928,-2799,804,9629,345749,89186,166155,0,0,0,357,414,302,401,317,430,500,327,367,352,332,328,0,,
2,1775670466928,4412,3096,12304,-7038389,1120326,1067792,0,0,0,256,433,243,335,365,382,317,303,266,126,135,194,0,,
1,1775670466944,-2790,789,9389,359188,69638,158824,0,0,0,360,419,301,412,323,431,494,322,371,347,312,334,0,,
2,1775670466944,4608,2321,13969,-6969972,1589471,1248608,0,0,0,255,433,242,334,365,382,319,302,268,133,148,194,0,,
1,1775670466960,-2694,775,9566,376292,63529,155159,0,0,0,373,419,281,415,326,426,490,317,356,334,302,340,0,,
2,1775670466960,4067,1966,16262,-6836803,1821600,1248608,0,0,0,254,432,241,336,366,383,320,302,269,137,149,193,0,,
1,1775670466976,-2651,713,9681,398284,39095,155159,0,0,0,388,431,274,431,348,421,495,311,349,332,304,340,0,,
2,1775670466976,3871,2033,18808,-6780604,1868025,1132544,0,0,0,254,431,241,335,365,382,322,304,271,140,150,193,0,,
1,1775670466992,-2747,622,9672,430049,2443,166155,0,0,0,379,459,284,415,394,433,484,290,357,324,284,353,0,,
2,1775670466992,4273,2450,22134,-6871012,1932777,972497,0,0,0,256,430,243,337,366,384,324,305,273,126,137,192,0,,
1,1775670467008,-2890,564,9662,469144,-26878,206472,0,0,0,378,463,287,408,397,444,479,290,365,313,281,370,0,,
2,1775670467008,4785,2364,26140,-6985854,2072054,930958,0,0,0,257,430,243,338,365,385,325,302,273,113,117,192,0,,
1,1775670467024,-2976,516,9729,518013,-46425,266337,0,0,0,390,458,298,400,413,452,471,279,383,318,273,386,0,,
2,1775670467024,5111,33,30667,-7033502,2302961,1148426,0,0,0,258,432,246,339,363,386,329,300,275,118,119,192,0,,
1,1775670467040,-3034,440,9911,587652,-43982,333532,0,0,0,419,472,319,435,401,471,486,267,386,318,256,404,0,,
2,1775670467040,4015,-7432,33309,-6825808,2671924,1556484,0,0,0,255,430,243,340,363,388,334,300,281,120,119,198,0,,
1,1775670467056,-3058,330,10088,680503,-34208,394618,0,0,0,409,463,318,461,408,486,467,246,379,313,237,421,0,,
2,1775670467056,1909,-18353,34089,-6320011,2780658,1808161,0,0,0,260,432,246,344,365,395,333,294,284,120,116,199,0,,
1,1775670467072,-3005,186,10212,799011,-23212,449596,0,0,0,394,464,330,454,415,513,444,235,396,296,230,450,0,,
2,1775670467072,234,-31715,29940,-5177693,2162462,1631010,0,0,0,263,434,244,344,365,392,339,296,286,120,116,198,0,,
1,1775670467088,-2981,43,10514,951728,-28099,489913,0,0,0,405,477,314,468,429,509,445,235,409,294,227,472,0,,
2,1775670467088,-1856,-40751,20698,-3172834,1569923,555887,0,0,0,261,430,243,345,366,394,326,295,287,118,115,196,0,,
1,1775670467104,-2991,-19,10978,1134987,-47647,518013,0,0,0,430,481,285,496,439,512,438,233,407,301,224,500,0,,
2,1775670467104,-6724,-43838,15850,-1354899,1302364,-709825,0,0,0,261,431,246,346,366,398,337,299,289,120,116,200,0,,
1,1775670467120,-2617,-67,11552,1437976,-107512,527787,0,0,0,442,479,262,518,445,528,410,224,403,303,215,533,0,,
2,1775670467120,-10868,-41684,16252,273667,425162,-1441641,0,0,0,256,428,241,347,368,394,343,317,284,123,128,194,0,,
1,1775670467136,-2230,-100,12160,1767844,-174707,487470,0,0,0,438,479,250,532,459,531,385,224,404,294,201,554,0,,
2,1775670467136,-9136,-34276,17994,1733635,-658512,-1420872,0,0,0,248,417,231,344,365,388,379,395,276,158,204,184,0,,
1,1775670467152,-2895,-220,12921,2214997,-156381,437379,0,0,0,442,474,241,541,483,529,360,230,403,277,196,561,0,,
2,1775670467152,-402,-10045,21933,3076317,-1916895,-861319,0,0,0,242,374,208,336,346,374,434,452,270,173,244,177,0,,
1,1775670467168,-3948,-402,13553,2712241,-79412,510683,0,0,0,436,470,217,533,501,544,292,211,413,262,191,562,0,,
2,1775670467168,8384,25872,16793,3075095,-3788586,206472,0,0,0,248,339,192,333,326,365,470,471,268,178,256,176,0,,
1,1775670467184,-4522,-440,14529,3352428,-12217,724486,0,0,0,427,465,208,529,484,546,245,208,426,245,182,559,0,,
2,1775670467184,6714,24924,7446,3033556,-5094616,1093448,0,0,0,258,339,202,341,320,374,486,486,284,192,288,180,0,,
1,1775670467200,-5384,-138,16396,4141666,4886,1000597,0,0,0,451,448,203,500,480,519,242,177,408,228,137,531,0,,
2,1775670467200,-3661,483,11351,4404338,-4014606,1128878,0,0,0,258,346,212,350,317,390,505,514,300,252,357,181,0,,
1,1775670467216,-7585,19,18722,4989547,29321,1375668,0,0,0,458,421,233,493,444,503,209,163,395,203,135,493,0,,
2,1775670467216,-7781,-5671,19148,4836830,-2062281,670730,0,0,0,258,357,207,353,316,396,524,551,287,368,460,169,0,,
1,1775670467232,-10528,-110,21971,5916840,73303,1970651,0,0,0,442,426,234,471,385,477,198,143,369,187,109,414,0,,
2,1775670467232,-4455,1119,21383,3975510,-452040,-28099,0,0,0,261,367,207,363,324,395,533,566,279,398,485,167,0,,
1,1775670467248,-11572,-296,25618,6814812,156381,2664594,0,0,0,396,389,215,441,324,422,208,137,332,179,108,314,0,,
2,1775670467248,-62,2948,16597,2872288,-310319,-86742,0,0,0,276,395,236,378,340,407,548,568,292,405,484,191,0,,
1,1775670467264,-11045,62,28288,7564955,184481,3197268,0,0,0,322,353,209,346,289,374,195,172,306,150,129,253,0,,
2,1775670467264,1215,1081,12644,1908343,-318871,184481,0,0,0,289,411,254,389,360,418,558,571,298,404,480,215,0,,
1,1775670467280,-9140,1938,29585,8166046,226020,3550348,0,0,0,249,313,199,283,244,328,225,222,282,136,180,168,0,,
2,1775670467280,-205,-512,11170,1172861,-237015,357967,0,0,0,301,430,263,397,380,429,566,570,303,424,491,234,0,,
1,1775670467296,-8298,6341,26446,8449487,821002,3682295,0,0,0,235,288,210,268,204,301,272,246,276,143,211,126,0,,
2,1775670467296,-545,320,11160,682947,-102625,185703,0,0,0,330,439,292,398,375,427,574,569,314,426,494,244,0,,
1,1775670467312,-10241,9629,16807,7927809,1365894,3532022,0,0,0,237,286,222,271,195,297,294,258,280,149,225,123,0,,
2,1775670467312,-90,1033,10815,434936,-64751,46425,0,0,0,337,448,286,408,384,436,577,570,319,432,497,261,0,,
1,1775670467328,-10993,12007,9605,6206390,1108109,3020117,0,0,0,229,294,220,271,203,299,294,268,280,147,235,125,0,,
2,1775670467328,253,1139,10437,346971,-57421,14660,0,0,0,345,451,282,417,390,441,578,566,320,425,481,268,0,,
1,1775670467344,-7193,16199,9155,2627942,444709,1514945,0,0,0,229,299,219,267,203,294,296,267,273,149,235,125,0,,
2,1775670467344,339,1143,10313,311541,-72082,10995,0,0,0,355,453,303,420,393,449,577,557,325,426,473,279,0,,
1,1775670467360,-3857,16123,9332,-1555262,860098,-928515,0,0,0,230,304,215,268,203,289,296,265,264,154,234,121,0,,
2,1775670467360,201,1282,10323,311541,-102625,-1221,0,0,0,361,458,300,421,395,448,575,545,326,421,458,290,0,,
1,1775670467376,-5494,10882,6613,-3794694,1494176,-2470339,0,0,0,229,306,211,270,205,288,299,269,262,153,236,120,0,,
2,1775670467376,0,1426,10303,370184,-54977,-23212,0,0,0,367,461,289,428,402,453,577,542,334,320,341,319,0,,
1,1775670467392,-8332,5742,3129,-3913202,1244943,-2326174,0,0,0,226,299,212,267,208,288,295,269,264,159,239,123,0,,
2,1775670467392,-43,1368,10241,452040,48869,-41538,0,0,0,370,462,285,435,409,460,576,536,341,243,249,344,0,,
1,1775670467408,-6829,4556,2694,-3715282,364075,-1337794,0,0,0,223,303,211,265,210,287,303,275,267,155,241,123,0,,
2,1775670467408,67,1162,10107,498466,142942,-48869,0,0,0,372,466,281,438,411,462,572,524,339,241,237,351,0,,
1,1775670467424,-3905,5187,4407,-4048814,147829,-741590,0,0,0,223,300,212,264,208,289,295,271,263,156,239,120,0,,
2,1775670467424,224,1000,9992,504574,186924,-58643,0,0,0,377,470,276,440,411,462,575,514,337,240,224,358,0,,
1,1775670467440,-3445,5384,6216,-4757418,613308,-719599,0,0,0,221,298,216,266,204,288,306,277,267,154,241,117,0,,
2,1775670467440,330,918,9925,481361,174707,-74525,0,0,0,375,466,276,441,410,463,574,499,338,244,219,366,0,,
1,1775670467456,-4814,4848,7441,-5417152,831998,-768468,0,0,0,225,300,216,269,205,285,303,274,264,158,243,116,0,,
2,1775670467456,406,851,9901,443488,131946,-85521,0,0,0,379,464,287,443,407,468,571,491,344,242,217,372,0,,
1,1775670467472,-6092,4120,8494,-5903401,497244,-741590,0,0,0,225,301,215,270,205,289,299,270,262,160,242,117,0,,
2,1775670467472,473,804,9892,401949,75747,-90408,0,0,0,390,474,280,443,407,465,568,480,343,274,244,373,0,,
1,1775670467488,-5709,3498,10217,-6359107,-141720,-756251,0,0,0,225,302,215,270,205,292,301,272,262,158,239,116,0,,
2,1775670467488,516,780,9925,360410,3665,-97738,0,0,0,399,468,278,449,409,473,568,477,348,246,204,386,0,,
1,1775670467504,-5111,2598,12242,-6754947,-577878,-946841,0,0,0,226,301,217,272,206,294,307,274,263,158,238,116,0,,
2,1775670467504,464,751,9964,331088,-56199,-103847,0,0,0,410,467,276,464,421,478,569,462,343,246,201,400,0,,
1,1775670467520,-5197,1560,14036,-6971194,-874759,-1126435,0,0,0,225,301,219,274,207,296,306,271,262,163,241,119,0,,
2,1775670467520,368,698,9978,305432,-101403,-105068,0,0,0,417,469,277,457,425,478,569,454,349,240,191,410,0,,
1,1775670467536,-5652,473,16132,-6994406,-1240056,-1172861,0,0,0,226,302,222,274,207,299,305,270,263,166,243,122,0,,
2,1775670467536,282,646,9978,289550,-107512,-92851,0,0,0,423,474,283,456,422,479,567,441,350,246,194,426,0,,
1,1775670467552,-5642,-167,18372,-6873455,-1600466,-1020144,0,0,0,225,301,220,271,204,298,309,278,267,161,242,120,0,,
2,1775670467552,277,607,10021,287106,-101403,-81855,0,0,0,434,478,283,456,418,480,566,434,353,250,186,440,0,,
1,1775670467568,-5206,-775,21186,-6726848,-1820378,-824668,0,0,0,223,304,217,273,209,297,308,288,263,157,242,115,0,,
2,1775670467568,335,579,10098,301767,-89186,-79412,0,0,0,434,492,283,456,422,484,566,425,358,260,181,454,0,,
1,1775670467584,-5116,-1521,24091,-6570466,-1804495,-835663,0,0,0,219,303,225,268,207,305,310,290,267,152,240,119,0,,
2,1775670467584,387,550,10122,340862,-79412,-90408,0,0,0,442,494,285,457,427,483,564,407,356,279,203,470,0,,
1,1775670467600,-6178,-2790,26862,-6373767,-1780061,-1153313,0,0,0,218,301,217,268,204,295,308,273,260,154,232,116,0,,
2,1775670467600,421,502,10098,384845,-68416,-107512,0,0,0,454,501,294,459,435,485,559,386,363,302,226,484,0,,
1,1775670467616,-7499,-5771,29585,-6200282,-2105041,-1576032,0,0,0,221,305,215,269,208,297,308,273,266,153,231,114,0,,
2,1775670467616,507,459,10155,447153,-37873,-139277,0,0,0,464,511,303,467,444,490,554,359,369,302,215,500,0,,
1,1775670467632,-7561,-12873,30710,-6065891,-2625498,-1844813,0,0,0,213,305,214,271,209,300,307,272,265,157,231,113,0,,
2,1775670467632,646,449,10366,537561,2443,-180816,0,0,0,475,522,305,478,454,500,545,328,374,296,199,519,0,,
1,1775670467648,-5350,-23613,28475,-5693264,-2893057,-1758070,0,0,0,224,307,215,285,206,299,334,269,266,170,229,113,0,,
2,1775670467648,832,430,10772,671951,64751,-237015,0,0,0,482,535,301,483,464,513,528,295,390,305,207,536,0,,
1,1775670467664,1340,-34969,22569,-4630358,-2805093,-1237612,0,0,0,218,308,216,274,211,300,318,270,269,167,233,114,0,,
2,1775670467664,851,287,11194,858876,141720,-296880,0,0,0,485,542,292,480,473,519,505,263,403,304,206,548,0,,
1,1775670467680,9480,-41650,17094,-2822197,-1985312,-564439,0,0,0,217,311,217,272,214,301,297,260,269,164,232,118,0,,
2,1775670467680,875,119,11610,1112996,206472,-355523,0,0,0,497,550,287,480,491,523,475,255,399,295,206,566,0,,
1,1775670467696,13921,-44555,13926,-868650,-667064,232128,0,0,0,218,310,211,271,216,292,313,310,263,195,279,116,0,,
2,1775670467696,985,71,12328,1492954,194255,-405614,0,0,0,499,546,267,494,501,536,431,234,391,264,176,568,0,,
1,1775670467712,13156,-40502,15577,830776,780685,966388,0,0,0,220,296,198,272,206,276,367,373,253,245,344,97,0,,
2,1775670467712,961,210,13802,2021963,114842,-456927,0,0,0,501,547,265,504,509,541,387,227,397,266,180,599,0,,
1,1775670467728,6499,-17884,18947,2621833,2484999,1065348,0,0,0,227,273,171,273,185,254,422,421,243,288,391,83,0,,
2,1775670467728,971,320,15252,2673146,31764,-513126,0,0,0,505,536,234,495,529,530,339,216,392,261,184,598,0,,
1,1775670467744,-3943,14577,16367,4028045,3778812,846659,0,0,0,238,259,148,276,170,240,453,452,237,325,414,79,0,,
2,1775670467744,1335,287,16472,3490483,7330,-608421,0,0,0,506,538,261,484,503,550,299,185,400,252,170,590,0,,
1,1775670467760,-5096,13811,14118,4741535,3147177,615752,0,0,0,247,262,154,286,169,254,463,463,245,357,423,80,0,,
2,1775670467760,2072,406,18339,4346917,25656,-739146,0,0,0,507,530,251,484,498,549,272,156,388,250,161,562,0,,
1,1775670467776,-1182,780,17956,5385387,1596801,346971,0,0,0,246,267,163,292,169,275,466,467,262,377,428,90,0,,
2,1775670467776,3345,765,21430,5343849,23212,-939510,0,0,0,505,513,257,474,491,540,274,153,398,239,150,506,0,,
1,1775670467792,1756,-6044,22340,4686558,277332,300545,0,0,0,247,275,168,304,182,275,477,476,264,398,433,87,0,,
2,1775670467792,4570,631,26106,6641326,9773,-1240056,0,0,0,477,492,235,468,478,511,281,155,382,225,145,447,0,,
1,1775670467808,-1957,-1296,18281,2900388,277332,476474,0,0,0,247,285,205,317,205,310,490,491,279,394,435,101,0,,
2,1775670467808,5680,425,30222,7833735,289550,-1532050,0,0,0,420,471,213,446,454,482,277,161,358,203,134,382,0,,
1,1775670467824,-5187,1282,12289,1525941,543670,163711,0,0,0,252,297,235,326,223,352,501,502,311,422,449,151,0,,
2,1775670467824,6384,2282,32395,8902749,1117883,-1919338,0,0,0,357,447,206,402,420,446,283,186,322,175,121,323,0,,
1,1775670467840,-3364,-138,10150,985936,544891,-246789,0,0,0,281,303,241,338,213,356,519,504,313,430,476,190,0,,
2,1775670467840,5369,5522,32916,9534384,1855808,-2392148,0,0,0,298,425,213,356,384,400,299,229,280,140,111,253,0,,
1,1775670467856,-1564,-722,10447,475253,420275,-262672,0,0,0,295,310,267,345,219,362,526,524,321,429,487,213,0,,
2,1775670467856,4647,7614,28815,9547823,1712866,-2764776,0,0,0,262,414,229,331,363,374,307,271,266,111,106,188,0,,
1,1775670467872,-1713,330,10935,157603,290771,-70860,0,0,0,321,312,272,356,218,361,532,532,341,425,489,231,0,,
2,1775670467872,7633,9313,15568,9005375,762359,-3145955,0,0,0,272,415,236,328,363,380,310,291,271,111,112,193,0,,
1,1775670467888,-2153,1028,10648,128281,211359,7330,0,0,0,326,322,281,359,223,372,535,525,349,425,484,259,0,,
2,1775670467888,6374,12380,9049,7518529,-404392,-3337767,0,0,0,274,418,244,327,363,378,307,293,265,113,114,194,0,,
1,1775670467904,-2191,995,10169,250454,147829,19547,0,0,0,322,336,291,360,230,387,532,513,350,427,478,283,0,,
2,1775670467904,2837,19411,8183,2825862,-1734857,-1870469,0,0,0,270,417,230,328,363,373,308,291,259,111,112,191,0,,
1,1775670467920,-1962,713,10169,302989,75747,35430,0,0,0,322,339,306,360,233,398,528,505,346,425,476,294,0,,
2,1775670467920,3536,19617,8949,-2884505,-2596177,404392,0,0,0,276,423,236,329,363,372,313,296,260,115,112,193,0,,
1,1775670467936,-1938,693,10232,313984,-7330,59864,0,0,0,328,348,306,364,242,400,526,491,342,425,469,297,0,,
2,1775670467936,6862,11107,8695,-6001140,-2647489,1649336,0,0,0,269,421,233,328,363,373,312,297,261,112,113,193,0,,
1,1775670467952,-2048,784,10141,339641,-69638,85521,0,0,0,332,365,291,374,257,397,524,471,342,421,452,304,0,,
2,1775670467952,8078,4398,5829,-5864306,-2084272,1112996,0,0,0,259,422,234,327,364,374,314,299,262,115,117,196,0,,
1,1775670467968,-2129,727,9916,361632,-96516,103847,0,0,0,328,376,286,379,267,399,521,459,347,411,440,312,0,,
2,1775670467968,7619,2675,3723,-5326744,-1229060,130725,0,0,0,258,427,240,327,365,375,312,299,259,115,117,195,0,,
1,1775670467984,-2172,559,9700,334754,-76969,108734,0,0,0,324,386,277,371,274,397,522,450,349,412,437,308,0,,
2,1775670467984,6034,3962,4891,-5589416,-472809,-393397,0,0,0,254,426,239,331,370,378,314,303,260,114,117,192,0,,
1,1775670468000,-2134,430,9619,255341,-39095,111177,0,0,0,316,389,262,365,264,396,527,445,357,402,427,300,0,,
2,1775670468000,4422,4460,6709,-5965709,-2443,-508239,0,0,0,253,428,239,332,370,378,313,305,260,115,118,191,0,,
1,1775670468016,-2048,421,9614,167377,-13439,111177,0,0,0,316,379,257,364,262,401,521,434,353,405,430,300,0,,
2,1775670468016,3283,4245,8078,-6130643,270002,-257785,0,0,0,254,428,238,330,368,376,314,306,260,113,117,189,0,,
1,1775670468032,-2029,545,9614,118507,-3665,108734,0,0,0,316,378,249,367,259,397,525,429,353,409,410,306,0,,
2,1775670468032,3220,4096,8872,-6167295,629191,213802,0,0,0,252,428,237,329,368,375,316,308,263,112,117,189,0,,
1,1775670468048,-2100,693,9652,151494,15882,108734,0,0,0,331,383,247,391,267,397,520,410,356,392,407,324,0,,
2,1775670468048,3268,4020,10064,-6300464,1153313,713490,0,0,0,251,430,238,330,371,377,313,309,265,112,119,190,0,,
1,1775670468064,-2091,689,9729,216246,35430,111177,0,0,0,320,394,249,377,292,406,520,406,352,371,398,325,0,,
2,1775670468064,2632,3933,11974,-6509379,1650557,1147204,0,0,0,251,431,239,329,371,376,312,309,266,114,122,191,0,,
1,1775670468080,-1971,569,9734,265115,39095,113620,0,0,0,312,393,259,368,290,411,508,390,352,365,394,360,0,,
2,1775670468080,1909,3699,14036,-6677978,1728748,1426981,0,0,0,250,428,238,327,368,374,320,309,265,118,123,193,0,,
1,1775670468096,-1885,469,9686,282219,24434,107512,0,0,0,313,392,263,369,293,426,506,392,360,364,386,357,0,,
2,1775670468096,2110,3091,15884,-6765943,1655444,1506393,0,0,0,251,428,239,331,370,378,322,312,267,117,122,193,0,,
1,1775670468112,-1895,397,9662,282219,4886,97738,0,0,0,316,391,267,384,302,430,508,382,370,360,373,350,0,,
2,1775670468112,2756,2416,18200,-6756169,1698205,1238834,0,0,0,255,430,242,332,371,379,324,315,269,117,122,192,0,,
1,1775670468128,-1952,354,9734,290771,-1221,98960,0,0,0,323,401,275,387,321,441,507,368,370,355,363,363,0,,
2,1775670468128,2924,2383,21229,-6789156,1778839,906524,0,0,0,253,430,241,336,372,380,324,313,267,119,120,191,0,,
1,1775670468144,-2014,335,9815,317649,0,116064,0,0,0,341,410,292,392,327,450,506,357,372,351,346,381,0,,
2,1775670468144,2986,2670,25360,-6961420,1788613,740368,0,0,0,255,430,241,337,372,380,330,312,269,119,122,194,0,,
1,1775670468160,-2100,320,9834,371406,10995,145385,0,0,0,356,416,291,400,322,441,506,351,378,347,325,391,0,,
2,1775670468160,3244,1115,29442,-7166670,1805717,1078788,0,0,0,251,426,239,335,368,380,328,302,269,145,163,194,0,,
1,1775670468176,-2148,315,9916,447153,29321,180816,0,0,0,355,425,270,404,330,437,504,339,379,343,311,404,0,,
2,1775670468176,3709,-3742,32141,-7153231,2006081,1688431,0,0,0,249,426,239,335,366,384,327,294,269,153,167,194,0,,
1,1775670468192,-2187,291,10141,565661,43982,227241,0,0,0,364,431,290,420,341,456,509,299,385,344,294,428,0,,
2,1775670468192,3771,-13137,33357,-6743952,2389704,2202780,0,0,0,252,426,235,342,369,385,331,293,271,153,164,189,0,,
1,1775670468208,-2254,215,10361,726929,59864,285884,0,0,0,385,447,293,429,349,459,500,275,396,334,267,450,0,,
2,1775670468208,3187,-27327,30662,-5662720,2206445,2036624,0,0,0,253,428,238,343,370,386,333,295,274,152,164,190,0,,
1,1775670468224,-2325,90,10514,878424,72082,340862,0,0,0,391,452,294,457,366,482,495,252,419,324,242,483,0,,
2,1775670468224,1253,-38511,23656,-4076914,1810604,1154535,0,0,0,253,427,236,343,371,387,336,297,277,153,167,192,0,,
1,1775670468240,-2440,4,10811,1031140,57421,403171,0,0,0,395,463,270,457,365,496,463,237,419,291,224,508,0,,
2,1775670468240,-5623,-43196,17597,-1971872,1524719,-280998,0,0,0,253,426,236,342,369,387,336,297,276,155,168,193,0,,
1,1775670468256,-2498,-105,11390,1230282,3665,485026,0,0,0,408,486,264,462,376,530,407,226,422,298,212,524,0,,
2,1775670468256,-11452,-43302,15898,-186924,679282,-1210734,0,0,0,251,426,235,344,371,386,341,321,273,146,163,191,0,,
1,1775670468272,-2167,-287,12581,1563815,-113620,568104,0,0,0,433,497,262,465,407,529,412,218,411,276,197,558,0,,
2,1775670468272,-10098,-38353,16783,1304808,-601091,-1276708,0,0,0,249,419,228,347,372,383,372,392,268,143,175,184,0,,
1,1775670468288,-1943,-416,13797,2034181,-160046,603534,0,0,0,435,478,220,489,460,545,366,209,415,264,187,563,0,,
2,1775670468288,-3230,-14534,20847,2752558,-1513724,-836885,0,0,0,246,392,211,343,356,374,420,462,261,160,220,179,0,,
1,1775670468304,-2407,-459,14654,2647489,-72082,629191,0,0,0,440,463,205,465,449,519,322,205,417,263,183,571,0,,
2,1775670468304,4809,22574,17831,3340211,-2503325,-227241,0,0,0,244,358,187,334,333,364,453,470,256,179,268,177,0,,
1,1775670468320,-3067,-229,15788,3371976,6108,763581,0,0,0,455,459,200,459,444,513,261,203,413,241,177,551,0,,
2,1775670468320,5522,21651,8394,3660304,-3130073,224798,0,0,0,253,361,177,337,331,369,475,481,258,209,318,171,0,,
1,1775670468336,-4316,67,17688,4223522,75747,981049,0,0,0,466,452,206,441,448,504,216,195,412,219,166,533,0,,
2,1775670468336,90,1660,10949,4987103,-2355496,397062,0,0,0,257,366,183,343,329,376,491,499,266,290,403,166,0,,
1,1775670468352,-7245,392,20047,5164254,230907,1385442,0,0,0,457,427,224,418,424,496,191,170,403,192,141,486,0,,
2,1775670468352,-4833,-7686,21823,5544212,-676838,211359,0,0,0,263,382,205,361,337,385,512,539,270,368,469,168,0,,
1,1775670468368,-10543,86,23383,6285803,456927,2085493,0,0,0,416,399,229,397,377,475,178,160,380,163,121,406,0,,
2,1775670468368,-2177,-512,23048,4103792,81855,-351858,0,0,0,287,429,252,380,362,406,517,556,277,404,499,206,0,,
1,1775670468384,-11667,-497,26939,7246083,533896,2802649,0,0,0,360,383,213,370,344,430,180,177,345,148,126,328,0,,
2,1775670468384,1852,2196,18434,2307848,270002,-481361,0,0,0,325,467,260,391,387,420,519,564,286,411,510,240,0,,
1,1775670468400,-10327,808,30083,8130616,496022,3413514,0,0,0,310,363,205,336,320,385,197,191,306,140,152,254,0,,
2,1775670468400,3105,162,12524,807563,145385,-94073,0,0,0,355,471,277,402,392,436,501,548,323,415,511,258,0,,
1,1775670468416,-7351,2885,31624,8621751,910189,3671300,0,0,0,238,319,193,275,251,322,236,232,271,138,193,175,0,,
2,1775670468416,1517,23,10294,331088,35430,108734,0,0,0,370,473,291,409,393,440,526,568,307,431,517,266,0,,
1,1775670468432,-8384,5116,26704,8685281,1584584,3528357,0,0,0,251,275,214,258,178,273,293,258,259,150,207,115,0,,
2,1775670468432,1019,1057,10093,205250,-7330,75747,0,0,0,380,478,302,412,390,442,541,579,299,430,513,273,0,,
1,1775670468448,-10686,8691,16606,8210028,1749518,3341432,0,0,0,256,295,222,263,189,281,297,268,260,151,233,122,0,,
2,1775670468448,1335,1536,10332,133168,-46425,0,0,0,0,390,480,309,415,390,444,545,581,303,427,510,279,0,,
1,1775670468464,-9954,12026,10002,6414085,1362229,2717128,0,0,0,242,295,221,262,189,281,294,276,257,150,230,121,0,,
2,1775670468464,1450,1593,10256,51312,-75747,-20769,0,0,0,395,479,308,415,391,445,545,581,300,428,512,280,0,,
1,1775670468480,-6178,16467,9758,2051285,1160643,327423,0,0,0,241,298,214,269,196,286,303,276,260,159,230,122,0,,
2,1775670468480,1378,1627,10136,29321,-97738,-20769,0,0,0,397,478,302,414,390,441,543,579,295,430,511,278,0,,
1,1775670468496,-5154,15951,9227,-2149023,1481959,-2417804,0,0,0,237,299,212,263,195,287,302,276,257,154,227,121,0,,
2,1775670468496,1268,1794,10174,86742,-119729,-40317,0,0,0,400,479,296,412,388,435,541,571,297,436,504,277,0,,
1,1775670468512,-7997,9954,5489,-3682295,1468520,-3280346,0,0,0,230,299,212,261,196,288,306,280,261,153,228,120,0,,
2,1775670468512,1153,1866,10189,166155,-102625,-63529,0,0,0,400,480,292,410,387,431,535,559,299,447,495,274,0,,
1,1775670468528,-9121,5599,2464,-3896098,774577,-2701246,0,0,0,229,300,212,262,197,289,308,282,260,155,231,121,0,,
2,1775670468528,1086,1789,10035,246789,-40317,-84299,0,0,0,405,485,287,410,390,432,535,551,309,441,479,276,0,,
1,1775670468544,-6905,4398,2191,-3876550,-51312,-1507615,0,0,0,232,302,213,262,198,290,307,282,259,158,234,122,0,,
2,1775670468544,1072,1703,9844,296880,15882,-94073,0,0,0,407,488,287,413,392,438,531,541,313,391,434,298,0,,
1,1775670468560,-4393,5010,4139,-4409225,-10995,-913854,0,0,0,232,303,213,264,199,291,305,281,259,159,238,122,0,,
2,1775670468560,1139,1655,9724,318871,52534,-98960,0,0,0,417,494,288,416,394,438,535,541,316,256,281,327,0,,
1,1775670468576,-3972,5317,6207,-5203350,320093,-718377,0,0,0,230,302,211,263,199,289,304,279,257,159,242,120,0,,
2,1775670468576,1263,1588,9705,320093,36651,-97738,0,0,0,422,499,297,416,398,440,533,533,318,241,258,336,0,,
1,1775670468592,-4958,4800,7470,-5797111,124616,-734260,0,0,0,228,303,211,263,198,290,304,280,258,155,241,119,0,,
2,1775670468592,1363,1493,9700,312763,-4886,-92851,0,0,0,422,499,297,417,399,443,536,527,324,241,253,339,0,,
