sole_id,timestamp,accel_x,accel_y,accel_z,gyro_x,gyro_y,gyro_z,magn_x,magn_y,magn_z,pressure_01,pressure_02,pressure_03,pressure_04,pressure_05,pressure_06,pressure_07,pressure_08,pressure_09,pressure_10,pressure_11,pressure_12,corrupt,concrete,transition,brick,grass,asphalt
1,1775672156032,-4532,12955,7901,-2204001,846659,-631634,0,0,0,240,307,230,249,207,297,306,291,272,147,251,123,0,,,,,
1,1775672156048,-6015,7384,5551,-3326772,1145983,-1269377,0,0,0,240,307,226,253,207,295,313,292,271,151,252,123,0,,,,,
1,1775672156064,-7451,4426,3890,-3230255,427605,-713490,0,0,0,239,306,235,257,205,300,315,290,273,155,253,126,0,,,,,
1,1775672156080,-6250,3986,4321,-3288898,-345749,-151494,0,0,0,231,306,255,250,202,313,310,288,282,153,253,136,0,,,,,
1,1775672156096,-4149,4144,5881,-3649308,-531452,28099,0,0,0,227,308,260,245,202,313,313,289,284,153,252,134,0,,,,,
2,1775672156096,0,0,0,0,0,0,0,0,0,421,498,361,441,407,480,577,520,351,241,226,375,0,,,,,
1,1775672156112,-4029,4091,7126,-4086688,-296880,-202807,0,0,0,227,308,259,250,205,317,312,284,284,157,253,134,0,,,,,
2,1775672156112,-1354,-1354,1588,-2443,-28099,0,0,0,0,421,502,348,449,414,489,578,518,360,242,220,382,0,,,,,
1,1775672156128,-4800,4106,8178,-4535063,-361632,-548556,0,0,0,227,308,263,248,203,317,312,285,285,155,253,133,0,,,,,
2,1775672156128,-5766,-5786,8963,32986,-461814,94073,0,0,0,428,504,351,453,417,492,575,507,361,241,208,387,0,,,,,
1,1775672156144,-5192,4034,9562,-5060407,-790459,-972497,0,0,0,221,307,263,245,204,317,312,287,287,154,252,131,0,,,,,
2,1775672156144,-3551,-3551,12562,324980,-1288925,267558,0,0,0,433,505,352,454,419,494,577,499,361,242,203,399,0,,,,,
1,1775672156160,-5211,3383,11045,-5506339,-1166752,-1342681,0,0,0,223,309,263,245,202,316,311,286,286,154,254,134,0,,,,,
2,1775672156160,914,1000,11079,472809,-1049466,172263,0,0,0,439,508,360,459,426,500,581,487,366,242,198,410,0,,,,,
1,1775672156176,-5216,2244,12476,-5749463,-1459967,-1576032,0,0,0,220,308,263,245,205,317,315,289,289,155,255,134,0,,,,,
2,1775672156176,2407,2526,9045,349414,-75747,-63529,0,0,0,449,514,366,460,430,503,577,471,366,239,191,418,0,,,,,
1,1775672156192,-5149,1072,14314,-5776341,-1770287,-1632231,0,0,0,223,308,263,248,205,318,317,289,288,154,252,132,0,,,,,
2,1775672156192,1201,1239,9614,289550,108734,-90408,0,0,0,458,523,365,460,431,504,573,459,367,241,185,432,0,,,,,
1,1775672156208,-4900,320,16482,-5720142,-2028072,-1552819,0,0,0,226,309,265,252,204,319,315,287,287,157,253,132,0,,,,,
2,1775672156208,708,679,10193,331088,-53756,-48869,0,0,0,466,529,366,467,436,511,577,448,372,244,180,446,0,,,,,
1,1775672156224,-4522,-210,18741,-5726250,-2105041,-1440420,0,0,0,224,309,265,250,204,319,314,287,288,156,253,132,0,,,,,
2,1775672156224,1028,918,10136,382401,-108734,-40317,0,0,0,473,532,363,474,445,517,576,432,372,247,177,458,0,,,,,
1,1775672156240,-4369,-765,20598,-5721363,-2040289,-1462411,0,0,0,223,309,265,247,204,319,314,286,288,154,251,133,0,,,,,
2,1775672156240,1244,1019,10021,412944,-56199,-61086,0,0,0,477,535,358,476,450,520,568,411,376,253,178,472,0,,,,,
1,1775672156256,-4670,-1359,22215,-5600412,-1941329,-1683544,0,0,0,228,308,263,258,203,318,316,285,288,158,249,132,0,x,,,,
2,1775672156256,1225,909,10069,444709,-20769,-85521,0,0,0,487,539,354,476,453,521,566,392,384,254,174,488,0,x,,,,
1,1775672156272,-5001,-2392,23929,-5352401,-1969429,-2075720,0,0,0,230,308,262,266,204,317,319,287,290,159,248,129,0,,,,,
2,1775672156272,1201,832,10169,503352,-42760,-101403,0,0,0,498,545,353,488,470,532,562,361,394,259,174,507,0,,,,,
1,1775672156288,-5154,-4670,25919,-5109276,-2041511,-2569299,0,0,0,227,310,265,258,207,318,317,285,291,157,247,129,0,,,,,
2,1775672156288,1282,765,10227,575435,-54977,-123394,0,0,0,499,547,352,493,477,541,555,337,387,263,170,523,0,,,,,
1,1775672156304,-5829,-9361,26881,-4977329,-2034181,-2932153,0,0,0,238,309,262,277,203,317,326,282,291,162,244,128,0,,,,,
2,1775672156304,1421,660,10380,643851,-26878,-167377,0,0,0,506,553,361,496,481,543,542,309,389,266,170,537,0,,,,,
1,1775672156320,-6968,-16611,25111,-4908913,-1966986,-2794097,0,0,0,224,312,265,256,209,327,323,287,296,152,242,129,0,,,,,
2,1775672156320,1411,583,10672,737925,-12217,-217468,0,0,0,510,557,356,506,490,543,531,286,399,306,197,552,0,,,,,
1,1775672156336,-5987,-25068,20200,-4679227,-2180788,-1874134,0,0,0,225,317,265,254,210,327,320,283,296,155,244,130,0,,,,,
2,1775672156336,1225,555,10988,916297,-25656,-252898,0,0,0,515,560,342,497,491,535,503,261,400,289,188,577,0,,,,,
1,1775672156352,1162,-32926,15338,-3828903,-2610838,-383623,0,0,0,225,318,268,251,208,327,326,288,301,157,245,134,0,,,,,
2,1775672156352,1043,492,11342,1160643,7330,-252898,0,0,0,524,561,325,504,503,545,472,243,402,293,188,581,0,,,,,
1,1775672156368,9911,-37946,12749,-2463008,-2225992,902858,0,0,0,225,318,262,249,210,323,323,286,296,158,249,134,0,,,,,
2,1775672156368,899,445,11873,1425759,89186,-234572,0,0,0,526,563,313,517,519,559,442,239,405,289,187,590,0,,,,,
1,1775672156384,12261,-37597,12998,-713490,-471587,1499063,0,0,0,225,300,224,254,203,295,353,334,283,185,305,111,0,,,,,
2,1775672156384,1124,339,12648,1805717,183259,-213802,0,0,0,527,568,288,516,522,560,408,233,405,282,184,604,0,,,,,
1,1775672156400,9791,-29471,16118,1354899,2045176,1530828,0,0,0,231,286,193,257,197,264,396,394,257,233,360,99,0,,,,,
2,1775672156400,1564,282,13414,2251649,163711,-241902,0,0,0,529,572,267,509,526,558,370,228,405,274,182,611,0,,,,,
1,1775672156416,1890,-9059,16123,3362202,4477642,885754,0,0,0,236,271,176,259,185,251,432,433,249,273,393,95,0,,,,,
2,1775672156416,1962,296,14127,2798984,69638,-307876,0,0,0,534,573,257,504,533,561,331,223,404,266,180,610,0,,,,,
1,1775672156432,-3991,6915,13505,4623028,4527733,-129503,0,0,0,242,263,167,270,175,252,453,454,252,304,409,88,0,,,,,
2,1775672156432,2412,143,14735,3354871,-75747,-411723,0,0,0,540,569,254,498,535,561,298,209,401,260,179,606,0,,,,,
1,1775672156448,-737,4790,14347,5148372,2310292,-739146,0,0,0,247,263,169,279,172,261,463,464,263,333,415,83,0,,,,,
2,1775672156448,3015,62,15616,3958406,-229685,-565661,0,0,0,539,557,249,491,530,551,274,188,397,255,171,596,0,,,,,
1,1775672156464,3986,-1665,19511,4662123,447153,-74525,0,0,0,249,270,184,286,179,280,474,475,280,361,421,92,0,,,,,
2,1775672156464,3551,253,17425,4663345,-382401,-779464,0,0,0,526,545,245,498,530,535,266,168,394,249,161,563,0,,,,,
1,1775672156480,593,-2053,20928,3485597,133168,768468,0,0,0,253,287,216,298,194,313,488,488,300,385,430,120,0,,,,,
2,1775672156480,3972,229,20669,5535660,-570548,-994488,0,0,0,511,537,248,517,536,511,269,171,394,235,153,497,0,,,,,
1,1775672156496,-4924,-861,17018,2014633,290771,681725,0,0,0,267,303,251,315,203,349,499,499,321,398,441,169,0,,,,,
2,1775672156496,4771,258,24469,6465397,-730594,-1182635,0,0,0,465,520,236,470,501,517,270,166,380,218,143,436,0,,,,,
1,1775672156512,-4067,-181,11615,888198,127059,-39095,0,0,0,302,306,252,349,215,358,511,510,327,405,455,209,0,,,,,
2,1775672156512,5556,765,27039,7206988,-671951,-1358564,0,0,0,398,495,209,442,468,480,288,176,356,199,134,368,0,,,,,
1,1775672156528,-2072,191,9236,359188,-9773,-261450,0,0,0,317,314,260,370,211,366,520,515,331,417,466,231,0,,,,,
2,1775672156528,5379,1608,27877,7817853,-463035,-1566258,0,0,0,336,470,214,392,428,444,297,210,321,170,126,334,0,,,,,
1,1775672156544,-1785,287,9533,119729,52534,-106290,0,0,0,321,332,263,359,215,366,530,508,337,424,473,233,0,,,,,
2,1775672156544,6197,2407,27389,8339532,-120951,-1802052,0,0,0,261,430,224,339,380,395,316,288,295,109,111,210,0,,,,,
1,1775672156560,-2459,488,10112,-46425,184481,-15882,0,0,0,331,321,261,370,215,366,538,513,326,432,486,236,0,,,,,
2,1775672156560,8131,4235,23474,8555778,331088,-2141693,0,0,0,258,435,240,335,375,397,325,308,295,106,112,200,0,,,,,
1,1775672156576,-2464,813,10031,-118507,210137,-30543,0,0,0,334,324,275,369,213,372,543,517,330,431,490,251,0,,,,,
2,1775672156576,8092,9667,12835,7370699,53756,-2714685,0,0,0,255,441,243,339,380,404,323,306,294,111,116,206,0,,,,,
1,1775672156592,-2206,1005,9978,-50090,135612,-26878,0,0,0,339,334,276,375,219,382,547,523,336,437,491,263,0,,,,,
2,1775672156592,6738,16056,9107,3544240,-722042,-2959031,0,0,0,253,443,243,339,381,400,323,307,288,110,116,205,0,,,,,
1,1775672156608,-2129,1052,10054,57421,67195,4886,0,0,0,340,339,275,382,227,391,548,522,345,436,482,276,0,,,,,
2,1775672156608,4680,18114,10811,-957836,-1148426,-2608394,0,0,0,253,441,241,341,383,400,325,310,283,108,113,202,0,,,,,
1,1775672156624,-2139,1028,10107,150272,4886,26878,0,0,0,342,340,274,387,231,395,544,514,346,443,474,283,0,,,,,
2,1775672156624,3493,13160,10710,-3902207,-1455080,-1833817,0,0,0,252,441,240,343,385,401,326,311,283,109,114,203,0,,,,,
1,1775672156640,-2167,1014,10093,246789,-78190,36651,0,0,0,342,338,276,384,229,407,541,500,358,443,451,296,0,,,,,
2,1775672156640,5077,7446,6116,-4116009,-1288925,-1341460,0,0,0,251,442,242,342,385,400,327,311,284,111,116,204,0,,,,,
1,1775672156656,-2211,971,9964,331088,-146607,47647,0,0,0,342,339,281,381,228,418,541,482,371,437,435,310,0,,,,,
2,1775672156656,5805,5312,3761,-4023158,-425162,-1070235,0,0,0,250,443,243,344,386,402,329,314,285,111,117,203,0,,,,,
1,1775672156672,-2282,842,9734,365297,-156381,52534,0,0,0,342,345,282,378,234,419,542,468,374,433,430,320,0,,,,,
2,1775672156672,4024,6034,5431,-4376238,494800,-697608,0,0,0,250,444,243,344,387,401,332,318,286,113,118,204,0,,,,,
1,1775672156688,-2335,722,9629,346971,-127059,52534,0,0,0,343,354,281,376,251,418,537,460,373,431,428,329,0,,,,,
2,1775672156688,2991,6010,7264,-4896695,563217,-31764,0,0,0,251,445,243,343,386,400,328,317,282,114,119,203,0,,,,,
1,1775672156704,-2364,674,10629,244346,-47647,56199,0,0,0,346,362,290,378,272,424,531,452,376,430,423,336,0,,,,,
2,1775672156704,3771,5216,7748,-5199684,623082,561996,0,0,0,253,444,245,343,386,400,324,317,282,114,117,202,0,,,,,
1,1775672156720,-2316,693,11313,138055,34208,61086,0,0,0,343,361,301,381,270,433,529,446,385,424,410,340,0,,,,,
2,1775672156720,4216,4709,8317,-5302310,1110553,871093,0,0,0,251,444,243,343,386,400,330,321,284,114,122,201,0,,,,,
1,1775672156736,-2225,698,10069,177150,10995,62308,0,0,0,342,359,295,380,262,434,531,437,388,414,399,345,0,,,,,
2,1775672156736,3584,4723,9667,-5423261,1598023,1084896,0,0,0,251,445,245,345,388,401,330,321,283,113,122,201,0,,,,,
1,1775672156752,-2167,693,9332,211359,-13439,62308,0,0,0,340,359,271,383,286,415,542,429,374,394,393,333,0,,,,,
2,1775672156752,2785,4986,11509,-5656612,1832595,1279151,0,0,0,252,446,245,346,389,402,331,322,285,115,121,201,0,,,,,
1,1775672156768,-2144,674,9504,202807,-14660,62308,0,0,0,340,359,267,394,282,411,541,414,373,396,394,338,0,,,,,
2,1775672156768,2627,5111,13539,-6042678,1903456,1440420,0,0,0,250,447,244,346,389,402,332,322,284,115,121,201,0,,,,,
1,1775672156784,-2120,641,9686,185703,-9773,57421,0,0,0,341,358,270,392,280,417,542,409,374,391,380,344,0,,,,,
2,1775672156784,2684,4977,15692,-6466619,1971872,1541823,0,0,0,249,444,244,348,395,406,337,324,287,115,123,201,0,,,,,
1,1775672156800,-2105,603,9667,177150,-13439,50090,0,0,0,344,364,271,391,276,422,539,410,378,396,377,352,0,,,,,
2,1775672156800,2938,4259,18152,-6838025,2069611,1549154,0,0,0,252,447,246,346,391,403,337,322,287,114,122,200,0,,,,,
1,1775672156816,-2105,564,9638,177150,-24434,42760,0,0,0,346,364,269,392,277,421,540,394,369,388,366,359,0,,,,,
2,1775672156816,3196,3259,20928,-7081149,2185675,1497841,0,0,0,255,448,247,344,386,400,337,321,285,111,119,198,0,,,,,
1,1775672156832,-2105,545,9739,193033,-47647,45204,0,0,0,350,364,271,400,280,419,543,381,368,383,356,371,0,,,,,
2,1775672156832,3417,2474,24350,-7180110,2265088,1489289,0,0,0,254,448,247,344,384,400,338,320,287,112,117,198,0,,,,,
1,1775672156848,-2172,545,9806,233350,-79412,62308,0,0,0,357,368,275,418,284,420,543,371,373,375,347,383,0,,,,,
2,1775672156848,3608,1847,28662,-7236309,2251649,1797165,0,0,0,252,447,249,345,384,403,343,318,291,114,115,200,0,,,,,
1,1775672156864,-2263,521,9763,306654,-100181,98960,0,0,0,363,376,274,442,291,443,541,360,387,363,340,407,0,,,,,
2,1775672156864,3871,-1210,32620,-7233866,2329840,2516764,0,0,0,254,446,249,348,385,407,348,315,295,113,113,201,0,,,,,
1,1775672156880,-2278,478,9786,386066,-118507,140499,0,0,0,367,385,276,457,298,470,540,336,402,357,324,436,0,,,,,
2,1775672156880,3584,-10318,34979,-6861238,2751337,3189938,0,0,0,257,447,244,353,384,408,351,309,297,113,112,200,0,,,,,
1,1775672156896,-2268,445,9925,471587,-149051,180816,0,0,0,371,389,284,459,304,472,538,301,406,352,289,459,0,,,,,
2,1775672156896,3196,-23565,34343,-6076887,2608394,3213151,0,0,0,259,445,242,361,386,414,356,309,300,117,112,201,0,,,,,
1,1775672156912,-2301,373,10088,576656,-206472,213802,0,0,0,375,396,282,466,326,477,535,281,414,338,260,491,0,,,,,
2,1775672156912,4690,-41248,25819,-4499633,1565036,1892460,0,0,0,260,446,244,361,385,414,364,316,303,124,116,205,0,,,,,
1,1775672156928,-2412,301,10337,685390,-272445,237015,0,0,0,383,416,275,467,356,482,528,264,421,317,241,512,0,,,,,
2,1775672156928,1306,-49021,17085,-2558303,1528384,-642630,0,0,0,260,446,242,362,387,414,359,312,300,122,115,203,0,,,,,
1,1775672156944,-2636,306,10820,816115,-332310,257785,0,0,0,394,396,256,474,322,491,504,244,416,301,205,531,0,,,,,
2,1775672156944,-8073,-48657,14620,-709825,1424537,-2758667,0,0,0,259,446,243,356,384,408,359,315,300,115,114,198,0,,,,,
1,1775672156960,-2670,291,11495,1012814,-361632,293215,0,0,0,404,408,253,484,344,519,486,231,421,285,189,555,0,,,,,
2,1775672156960,-12940,-41579,17080,829554,-14660,-3114190,0,0,0,247,442,247,347,385,404,368,389,292,117,153,181,0,,,,,
1,1775672156976,-2345,181,12337,1353677,-364075,324980,0,0,0,409,416,244,486,376,528,448,215,434,281,183,564,0,,,,,
2,1775672156976,-4551,-17942,20866,2481334,-2228436,-1940107,0,0,0,239,409,209,356,375,389,422,459,274,147,201,180,0,,,,,
1,1775672156992,-2560,47,12940,1776396,-400727,340862,0,0,0,401,422,218,496,388,522,407,213,450,276,180,569,0,,,,,
2,1775672156992,5872,15056,19396,3186273,-3747047,-250454,0,0,0,252,381,209,345,349,388,461,480,283,162,236,178,0,,,,,
1,1775672157008,-3268,19,13500,2315179,-406836,420275,0,0,0,408,430,209,476,390,521,357,205,461,263,176,570,0,,,,,
2,1775672157008,9686,25594,8633,3290120,-4087910,1727526,0,0,0,260,382,195,345,343,388,485,489,288,175,263,180,0,,,,,
1,1775672157024,-4082,23,14041,2893057,-294437,607200,0,0,0,413,429,207,470,388,519,302,189,451,251,165,564,0,,,,,
2,1775672157024,-1545,2962,8786,4612032,-2280970,2276083,0,0,0,262,385,201,355,344,398,497,498,294,218,311,184,0,,,,,
1,1775672157040,-4871,14,14606,3469714,-86742,851546,0,0,0,423,425,217,446,383,513,247,179,443,229,149,556,0,,,,,
2,1775672157040,-11734,-7130,19205,5305975,-337197,1293812,0,0,0,264,392,223,367,351,411,512,512,308,220,316,193,0,,,,,
1,1775672157056,-5565,81,15620,4111123,183259,1166752,0,0,0,421,418,224,440,380,495,221,166,444,210,135,537,0,,,,,
2,1775672157056,-6101,-722,22254,4377460,-94073,-454483,0,0,0,273,412,257,377,359,422,527,527,316,211,302,211,0,,,,,
1,1775672157072,-6446,81,18286,4820948,361632,1502728,0,0,0,411,405,226,445,361,479,216,145,428,193,116,483,0,,,,,
2,1775672157072,2828,2254,19363,3037221,-145385,-1000597,0,0,0,289,439,292,392,373,436,540,540,325,218,297,243,0,,,,,
1,1775672157088,-8135,-282,21631,5549099,510683,1836260,0,0,0,405,386,217,427,331,459,214,141,398,181,104,407,0,,,,,
2,1775672157088,4958,320,13816,1555262,-145385,-131946,0,0,0,312,460,310,411,390,450,549,549,332,233,311,277,0,,,,,
1,1775672157104,-9949,-215,24015,6251594,685390,2261423,0,0,0,377,362,199,404,308,420,223,156,368,174,106,333,0,,,,,
2,1775672157104,1043,-358,10677,590095,-96516,327423,0,0,0,341,472,320,423,401,456,561,558,325,295,378,289,0,,,,,
1,1775672157120,-10007,555,25905,6963863,911410,2764776,0,0,0,316,342,198,358,277,379,234,185,323,153,121,261,0,,,,,
2,1775672157120,-23,492,9949,232128,-122173,184481,0,0,0,358,479,326,424,403,459,574,563,321,361,419,290,0,,,,,
1,1775672157136,-9073,2354,27015,7464773,1170417,3084869,0,0,0,247,314,201,293,241,332,249,230,289,140,176,192,0,,,,,
2,1775672157136,842,1167,10165,139277,-204028,-12217,0,0,0,368,484,331,429,407,464,573,569,326,269,314,316,0,,,,,
1,1775672157152,-10595,4422,23876,7874052,1745852,3277902,0,0,0,221,294,216,235,194,278,293,263,270,143,212,121,0,,,,,
2,1775672157152,1115,1244,10270,61086,-218689,-6108,0,0,0,373,486,333,432,409,467,583,569,326,364,410,298,0,,,,,
1,1775672157168,-13003,7776,15496,7844731,2216219,3503923,0,0,0,231,291,234,244,191,298,303,266,285,148,223,133,0,,,,,
2,1775672157168,938,1296,10236,31764,-172263,25656,0,0,0,380,489,334,432,412,465,583,569,322,339,385,305,0,,,,,
1,1775672157184,-13697,12404,10256,6417750,1621236,3602883,0,0,0,231,302,234,244,199,301,294,277,283,148,227,127,0,,,,,
2,1775672157184,832,1421,10198,78190,-155159,6108,0,0,0,385,489,334,434,415,467,584,570,326,338,381,312,0,,,,,
1,1775672157200,-10485,17568,9461,3181386,411723,2787988,0,0,0,235,306,235,249,204,302,299,281,276,153,230,131,0,,,,,
2,1775672157200,732,1512,10222,147829,-123394,-18325,0,0,0,389,491,335,441,421,473,575,570,333,257,288,332,0,,,,,
1,1775672157216,-4886,18659,10045,-1004262,40317,753807,0,0,0,234,306,236,254,204,301,307,281,273,158,229,128,0,,,,,
2,1775672157216,631,1536,10241,234572,-18325,-32986,0,0,0,393,495,337,437,417,471,575,565,337,240,271,335,0,,,,,
1,1775672157232,-4642,12672,7867,-3562566,1028697,-1247386,0,0,0,234,306,240,252,201,309,311,278,278,159,225,134,0,,,,,
2,1775672157232,679,1474,10141,311541,108734,-30543,0,0,0,394,495,336,439,415,471,575,559,343,242,262,343,0,,,,,
1,1775672157248,-8284,6590,4776,-4262617,1154535,-1799608,0,0,0,230,305,248,249,201,314,308,279,283,159,227,137,0,,,,,
2,1775672157248,818,1368,9983,357967,175929,-25656,0,0,0,395,494,333,439,415,473,572,548,342,241,249,354,0,,,,,
1,1775672157264,-8427,4747,4297,-4202752,-102625,-1102000,0,0,0,228,305,254,249,200,317,309,281,288,161,229,139,0,,,,,
2,1775672157264,966,1225,9834,361632,174707,-23212,0,0,0,400,495,338,440,416,474,552,522,345,237,235,362,0,,,,,
1,1775672157280,-6135,4091,5273,-4261395,-852767,-598647,0,0,0,226,305,259,248,200,319,310,282,290,161,230,140,0,,,,,
2,1775672157280,1057,1162,9786,333532,127059,-28099,0,0,0,403,496,340,442,417,474,559,518,348,237,229,368,0,,,,,
1,1775672157296,-4240,3809,6757,-4454429,-750142,-483805,0,0,0,224,306,263,246,200,319,308,284,289,158,232,138,0,,,,,
2,1775672157296,1110,1139,9791,305432,69638,-37873,0,0,0,407,496,340,445,417,478,574,522,348,239,225,375,0,,,,,
1,1775672157312,-4943,3680,7944,-4829500,-525344,-660956,0,0,0,223,307,263,246,201,318,310,284,288,156,234,135,0,,,,,
2,1775672157312,1119,1115,9810,280998,6108,-48869,0,0,0,412,496,340,449,417,482,573,512,349,241,217,382,0,,,,,
1,1775672157328,-5661,3575,9006,-5194797,-770911,-868650,0,0,0,222,309,257,248,204,317,310,288,287,155,235,132,0,,,,,
2,1775672157328,1100,1086,9858,262672,-57421,-57421,0,0,0,417,498,339,451,417,486,574,502,351,243,211,390,0,,,,,
1,1775672157344,-5494,3306,10452,-5558873,-1225395,-1199739,0,0,0,222,313,247,246,205,311,313,294,285,155,235,130,0,,,,,
2,1775672157344,1052,1076,9906,262672,-90408,-62308,0,0,0,427,503,341,457,423,492,577,493,356,248,206,400,0,,,,,
1,1775672157360,-5240,2703,12347,-5913175,-1562593,-1661553,0,0,0,223,318,242,245,210,306,311,294,282,155,237,129,0,,,,,
2,1775672157360,957,1043,9940,278554,-94073,-62308,0,0,0,435,505,341,461,428,496,577,487,358,261,207,414,0,,,,,
1,1775672157376,-5699,1866,14209,-6117204,-1722639,-2010968,0,0,0,221,326,238,246,224,305,311,295,280,154,238,125,0,,,,,
2,1775672157376,904,1005,9959,298102,-73303,-59864,0,0,0,444,510,347,464,433,504,577,470,365,240,192,419,0,,,,,
1,1775672157392,-6403,928,16549,-6217386,-1996307,-2182010,0,0,0,224,324,239,249,219,304,315,297,282,152,237,122,0,,,,,
2,1775672157392,923,947,9997,324980,-40317,-53756,0,0,0,448,513,347,469,441,510,577,457,364,245,192,443,0,,,,,
1,1775672157408,-6666,210,19167,-6285803,-2238210,-2228436,0,0,0,224,321,242,248,213,307,315,295,282,154,237,125,0,,,,,
2,1775672157408,995,890,10040,360410,-18325,-53756,0,0,0,456,521,356,468,438,511,575,449,364,251,194,457,0,,,,,
1,1775672157424,-6838,-526,22311,-6360328,-2288301,-2306627,0,0,0,225,324,241,249,216,307,314,299,280,154,242,124,0,,,,,
2,1775672157424,1100,827,10054,400727,-18325,-67195,0,0,0,465,532,354,477,451,519,573,424,374,252,179,472,0,,,,,
1,1775672157440,-7470,-1679,25470,-6385985,-2223549,-2513099,0,0,0,224,319,241,250,212,307,318,296,283,153,235,123,0,,,,,
2,1775672157440,1158,794,10074,449596,-18325,-94073,0,0,0,473,536,352,486,467,527,569,399,387,265,181,493,0,,,,,
1,1775672157456,-8427,-3881,28241,-6296798,-2266310,-2861292,0,0,0,225,316,241,252,208,308,317,284,283,156,226,122,0,,,,,
2,1775672157456,1177,808,10227,529009,-2443,-131946,0,0,0,483,542,355,490,473,530,561,364,392,267,177,512,0,,,,,
1,1775672157472,-8643,-8935,31203,-6119647,-2747671,-3218038,0,0,0,228,317,238,255,207,307,319,276,283,160,221,120,0,,,,,
2,1775672157472,1325,784,10461,638965,26878,-175929,0,0,0,484,546,351,492,479,533,551,326,394,263,172,529,0,,,,,
1,1775672157488,-7264,-16630,32213,-6008470,-3086091,-3270572,0,0,0,227,318,235,257,209,307,323,276,285,163,223,120,0,,,,,
2,1775672157488,1588,698,10825,767246,76969,-240680,0,0,0,489,552,350,505,488,546,534,286,399,265,173,545,0,,,,,
1,1775672157504,-5273,-27240,27111,-5717698,-2834414,-2625498,0,0,0,224,319,235,258,213,312,324,277,288,165,226,120,0,,,,,
2,1775672157504,1713,650,11462,951728,107512,-321315,0,0,0,495,554,348,513,496,553,512,252,409,270,176,562,0,,,,,
1,1775672157520,-1454,-40129,18559,-4707327,-2643824,-928515,0,0,0,224,321,235,259,217,314,326,280,289,165,226,121,0,,,,,
2,1775672157520,1349,650,12050,1290147,96516,-373849,0,0,0,498,555,330,514,505,556,488,234,417,269,174,577,0,,,,,
1,1775672157536,8116,-45828,14788,-2965139,-2323731,1084896,0,0,0,223,320,235,257,219,312,326,285,288,165,229,124,0,,,,,
2,1775672157536,837,579,12601,1704314,166155,-376292,0,0,0,505,562,301,522,517,567,458,226,414,263,168,588,0,,,,,
1,1775672157552,17272,-45316,14821,-722042,-687834,2309070,0,0,0,229,316,237,263,215,310,328,285,286,169,232,117,0,,,,,
2,1775672157552,1206,387,13424,2152689,299323,-350636,0,0,0,509,564,271,532,528,569,422,221,418,263,169,603,0,,,,,
1,1775672157568,12768,-38233,16171,1198517,1638340,1929112,0,0,0,253,293,234,311,195,309,345,292,281,198,266,115,0,,,,,
2,1775672157568,2163,224,14568,2709798,320093,-400727,0,0,0,511,565,254,527,538,576,387,216,420,263,179,609,0,,,,,
1,1775672157584,641,-18042,18152,2751337,2863736,1229060,0,0,0,229,284,180,272,191,265,426,382,253,263,355,86,0,,,,,
2,1775672157584,2775,253,15348,3330437,136833,-543670,0,0,0,511,554,249,510,531,574,347,196,411,264,181,613,0,,,,,
1,1775672157600,-7910,16927,18037,3414736,3814242,54977,0,0,0,240,263,163,265,181,249,450,437,254,289,397,85,0,,,,,
2,1775672157600,2991,387,16128,4046371,-50090,-724486,0,0,0,515,552,239,504,525,567,316,171,409,258,173,612,0,,,,,
1,1775672157616,-6365,26144,11083,3494149,4289495,-1249830,0,0,0,244,257,149,277,169,249,425,425,270,335,413,80,0,,,,,
2,1775672157616,3565,775,17764,4923573,-149051,-952949,0,0,0,513,542,241,496,513,550,296,171,409,263,170,593,0,,,,,
1,1775672157632,3838,4651,12538,4864930,3038443,-1141096,0,0,0,245,259,159,283,169,266,472,473,283,373,427,90,0,,,,,
2,1775672157632,4651,1134,20904,5947383,-211359,-1243721,0,0,0,497,523,248,491,497,545,286,163,405,244,154,543,0,,,,,
1,1775672157648,7370,-6245,21938,5390274,1120326,86742,0,0,0,253,270,190,296,177,290,491,492,297,400,433,99,0,,,,,
2,1775672157648,5106,1325,25422,7100697,-271224,-1530828,0,0,0,452,489,229,482,478,530,291,166,396,221,139,449,0,,,,,
1,1775672157664,-1162,-2804,23407,3525914,201585,888198,0,0,0,263,283,229,317,189,327,504,504,335,411,437,127,0,,,,,
2,1775672157664,4450,1167,30255,8195368,-140499,-1673770,0,0,0,396,474,217,451,446,495,292,166,368,197,125,391,0,,,,,
1,1775672157680,-5896,28,16587,1473406,53756,345749,0,0,0,285,298,252,347,206,357,515,513,349,417,446,169,0,,,,,
2,1775672157680,6858,134,31878,8976053,833220,-1701870,0,0,0,333,449,219,397,414,446,301,202,325,159,112,317,0,,,,,
1,1775672157696,-3216,315,10600,647517,25656,-223576,0,0,0,312,308,257,376,213,365,523,517,335,425,461,206,0,,,,,
2,1775672157696,9155,2115,32691,9386555,2626720,-2157576,0,0,0,285,430,231,352,382,407,311,249,296,120,102,236,0,,,,,
1,1775672157712,-1497,172,9035,401949,-59864,-238237,0,0,0,327,313,261,393,210,368,533,517,337,430,470,232,0,,,,,
2,1775672157712,7049,9107,28126,9117774,3335324,-3092199,0,0,0,269,426,238,340,374,398,322,289,293,108,109,201,0,,,,,
1,1775672157728,-2134,397,9978,323758,-56199,-37873,0,0,0,333,323,267,398,217,378,542,513,347,433,466,257,0,,,,,
2,1775672157728,5187,13625,17463,8157494,1164309,-3770260,0,0,0,272,433,241,346,379,404,327,305,294,112,117,202,0,,,,,
1,1775672157744,-2780,799,10203,245567,61086,9773,0,0,0,335,329,273,380,221,391,549,509,360,440,467,286,0,,,,,
2,1775672157744,4498,16793,10571,5808106,-1317025,-3710395,0,0,0,272,439,243,349,380,403,326,306,288,112,115,203,0,,,,,
1,1775672157760,-2541,918,9992,252898,133168,8552,0,0,0,339,328,276,394,227,398,549,496,365,430,466,301,0,,,,,
2,1775672157760,4737,19545,8619,801455,-2020742,-2167349,0,0,0,270,438,240,347,379,397,328,305,281,114,115,202,0,,,,,
1,1775672157776,-2153,818,9930,300545,102625,17104,0,0,0,342,336,275,407,230,399,555,477,368,430,443,315,0,,,,,
2,1775672157776,4838,16587,8930,-4168544,-1849699,-270002,0,0,0,270,437,239,346,377,397,330,305,276,114,114,201,0,,,,,
1,1775672157792,-2215,847,10136,331088,24434,36651,0,0,0,343,341,269,409,256,407,557,461,366,427,425,334,0,,,,,
2,1775672157792,5393,8475,8150,-5979148,-1898569,564439,0,0,0,271,438,239,350,379,400,331,307,277,143,126,199,0,,,,,
1,1775672157808,-2278,952,10275,389732,-41538,59864,0,0,0,341,340,261,401,258,403,558,429,369,427,394,338,0,,,,,
2,1775672157808,7154,4312,5173,-5533217,-1976759,92851,0,0,0,266,440,239,351,381,398,334,312,278,189,152,197,0,,,,,
1,1775672157824,-2249,880,10796,404392,-68416,74525,0,0,0,338,344,255,401,259,406,551,412,366,416,376,344,0,,,,,
2,1775672157824,8365,3488,3675,-5349957,-1396437,-582765,0,0,0,266,442,241,350,381,397,333,311,280,118,114,200,0,,,,,
1,1775672157840,-2249,737,11299,372627,-68416,84299,0,0,0,339,355,258,405,272,411,547,400,374,400,364,351,0,,,,,
2,1775672157840,7331,3972,5087,-5701816,-399505,-998153,0,0,0,267,445,246,349,381,396,331,309,274,115,114,196,0,,,,,
1,1775672157856,-2306,588,10260,397062,-94073,79412,0,0,0,341,362,263,408,283,415,544,390,379,395,353,363,0,,,,,
2,1775672157856,5431,4178,7102,-6012135,252898,-1055575,0,0,0,267,448,244,349,381,397,333,312,278,115,115,198,0,,,,,
1,1775672157872,-2340,473,9260,405614,-95294,75747,0,0,0,342,361,263,410,286,414,541,382,379,395,348,370,0,,,,,
2,1775672157872,4178,4182,8614,-6161186,492357,-708603,0,0,0,267,447,244,353,386,401,332,313,274,117,117,197,0,,,,,
1,1775672157888,-2321,421,9193,351858,-47647,81855,0,0,0,341,359,262,408,281,412,540,373,378,393,341,377,0,,,,,
2,1775672157888,4843,4158,9490,-6294355,885754,-43982,0,0,0,267,447,243,354,387,402,333,314,275,115,116,196,0,,,,,
1,1775672157904,-2268,430,9523,302989,-13439,91629,0,0,0,340,366,266,408,282,418,538,359,381,386,329,389,0,,,,,
2,1775672157904,5331,4245,10863,-6477614,1577254,544891,0,0,0,264,444,242,353,385,401,334,315,276,115,117,196,0,,,,,
1,1775672157920,-2201,454,9700,284663,0,97738,0,0,0,341,381,266,412,293,426,537,346,381,374,318,400,0,,,,,
2,1775672157920,4680,4283,13338,-6697526,2219884,1126435,0,0,0,263,445,244,353,386,402,338,315,278,112,117,194,0,,,,,
1,1775672157936,-2153,464,9729,293215,-1221,94073,0,0,0,344,391,262,416,296,428,535,338,381,365,308,410,0,,,,,
2,1775672157936,4355,3823,16042,-6830695,2338392,1639562,0,0,0,261,445,244,353,386,403,338,317,280,112,117,195,0,,,,,
1,1775672157952,-2167,416,9801,321315,-19547,90408,0,0,0,348,382,261,421,310,439,529,335,385,350,306,414,0,,,,,
2,1775672157952,4737,3402,18655,-6880786,2372600,1886351,0,0,0,262,447,245,353,385,404,337,317,282,114,116,195,0,,,,,
1,1775672157968,-2220,335,9882,370184,-57421,103847,0,0,0,351,390,255,428,327,443,524,325,391,343,289,421,0,,,,,
2,1775672157968,4982,3522,22651,-7022506,2480112,1912008,0,0,0,263,448,247,353,383,404,337,314,284,114,115,196,0,,,,,
1,1775672157984,-2292,239,9839,412944,-98960,135612,0,0,0,364,388,264,439,325,458,525,286,394,334,264,441,0,,,,,
2,1775672157984,5240,3656,27360,-7282735,2524095,1963320,0,0,0,265,448,249,352,382,405,341,313,288,114,114,198,0,,,,,
1,1775672158000,-2388,186,9767,454483,-131946,175929,0,0,0,362,386,288,445,300,458,519,271,399,327,248,457,0,,,,,
2,1775672158000,6001,2148,33275,-7645589,2509434,2273640,0,0,0,265,447,248,354,383,407,344,310,292,115,113,199,0,,,,,
1,1775672158016,-2541,157,9849,516791,-155159,235793,0,0,0,368,400,274,443,312,465,504,249,400,314,230,489,0,,,,,
2,1775672158016,6015,-5288,36056,-7639480,2930931,2868623,0,0,0,262,446,245,357,383,409,347,306,294,119,115,201,0,,,,,
1,1775672158032,-2656,100,10136,612086,-175929,304210,0,0,0,379,410,274,441,334,478,503,241,412,304,208,511,0,,,,,
2,1775672158032,3914,-17841,38186,-7101919,3467271,3401297,0,0,0,264,446,242,360,383,408,355,305,297,123,115,202,0,,,,,
1,1775672158048,-2665,0,10595,778242,-211359,388510,0,0,0,394,408,267,457,325,494,498,229,417,287,186,533,0,,,,,
2,1775672158048,3125,-34295,34232,-5759237,2465452,3348763,0,0,0,266,446,242,364,386,412,358,307,301,121,113,201,0,,,,,
1,1775672158064,-2364,-86,11103,981049,-266337,434936,0,0,0,406,409,249,482,328,491,502,214,430,286,176,546,0,,,,,
2,1775672158064,5159,-48336,23287,-3922976,1296256,2202780,0,0,0,269,448,245,363,387,413,358,309,302,124,115,203,0,,,,,
1,1775672158080,-2120,-110,11663,1213178,-343306,434936,0,0,0,407,416,242,484,339,498,476,204,447,279,169,555,0,,,,,
2,1775672158080,1450,-55017,13754,-1703092,1616349,-375071,0,0,0,264,445,241,362,388,414,354,315,302,121,115,203,0,,,,,
1,1775672158096,-1966,-134,12242,1514945,-456927,394618,0,0,0,408,420,233,478,352,516,428,198,452,272,163,569,0,,,,,
2,1775672158096,-11438,-49571,17520,179594,1451415,-2210110,0,0,0,254,434,236,359,385,406,387,425,289,133,172,187,0,,,,,
1,1775672158112,-1876,-220,12691,1902234,-579100,320093,0,0,0,418,417,220,481,364,531,382,190,452,269,154,580,0,,,,,
2,1775672158112,-15592,-27422,25340,2075720,-1194852,-2036624,0,0,0,248,388,208,346,359,385,443,467,283,158,222,180,0,,,,,
1,1775672158128,-2536,-282,13189,2305405,-646295,280998,0,0,0,426,413,213,488,366,536,340,178,457,258,144,578,0,,,,,
2,1775672158128,-1536,10189,20961,3660304,-4900360,-92851,0,0,0,257,374,189,347,347,384,474,481,285,176,263,179,0,,,,,
1,1775672158144,-3881,-358,13850,2867401,-594982,409279,0,0,0,418,415,206,483,362,532,282,167,456,240,138,579,0,,,,,
2,1775672158144,5537,13778,9322,4774522,-4724431,1343903,0,0,0,265,377,189,353,345,392,494,495,296,186,288,185,0,,,,,
1,1775672158160,-4977,-435,14587,3561344,-419053,685390,0,0,0,417,409,207,454,364,531,211,158,439,212,130,577,0,,,,,
2,1775672158160,-2435,90,12955,5699372,-2127032,1496619,0,0,0,266,385,209,361,346,407,506,505,314,200,310,198,0,,,,,
1,1775672158176,-5680,-320,15654,4266282,-206472,1054353,0,0,0,441,397,221,457,365,520,211,138,440,205,110,544,0,,,,,
2,1775672158176,-8600,-3732,23407,5210680,-162490,174707,0,0,0,268,394,233,374,355,420,517,516,317,211,316,213,0,,,,,
1,1775672158192,-6451,-459,17961,4934569,-118507,1403768,0,0,0,425,380,215,437,359,506,228,131,424,190,103,499,0,,,,,
2,1775672158192,-2818,-43,23771,3910759,150272,-906524,0,0,0,279,416,264,385,368,429,532,532,321,215,310,232,0,,,,,
1,1775672158208,-8293,-737,21895,5736024,-85521,1771509,0,0,0,414,382,206,421,351,482,193,130,418,157,92,422,0,,,,,
2,1775672158208,4948,1943,16223,2278527,-65973,-632856,0,0,0,299,446,292,399,382,442,545,546,332,222,302,262,0,,,,,
1,1775672158224,-11050,-636,25412,6571688,127059,2258979,0,0,0,357,358,196,379,318,434,196,130,396,151,97,352,0,,,,,
2,1775672158224,3220,555,10811,1142317,-112399,156381,0,0,0,322,461,306,416,395,454,556,556,334,261,327,289,0,,,,,
1,1775672158240,-11648,-382,28241,7249748,471587,2786767,0,0,0,309,339,197,356,279,393,216,161,339,136,98,273,0,,,,,
2,1775672158240,737,-234,9719,471587,-173485,321315,0,0,0,348,467,324,425,403,461,569,569,332,337,398,297,0,,,,,
1,1775672158256,-10753,1890,29078,7771427,869872,3204599,0,0,0,256,306,192,316,243,330,265,217,289,140,150,161,0,,,,,
2,1775672158256,531,406,10538,164933,-293215,86742,0,0,0,369,483,327,430,407,463,575,576,328,340,394,303,0,,,,,
1,1775672158272,-11600,5159,26963,8265006,987158,3468492,0,0,0,256,290,210,269,200,291,294,247,280,145,187,125,0,,,,,
2,1775672158272,928,1172,10624,34208,-337197,-24434,0,0,0,376,485,330,433,409,465,577,576,329,272,321,316,0,,,,,
1,1775672158288,-13931,10504,18645,8448266,692721,3819129,0,0,0,243,293,222,249,193,288,298,260,285,147,209,123,0,,,,,
2,1775672158288,985,1483,10279,1221,-245567,2443,0,0,0,382,484,335,430,406,465,583,580,320,371,419,303,0,,,,,
1,1775672158304,-12601,13921,12155,7024950,167377,4114788,0,0,0,227,302,225,245,201,294,293,265,283,149,221,126,0,,,,,
2,1775672158304,894,1488,10256,40317,-160046,17104,0,0,0,388,484,335,430,411,466,588,580,326,380,421,303,0,,,,,
1,1775672158320,-7547,18195,10289,3360980,-102625,3241250,0,0,0,224,307,226,244,203,295,292,268,278,147,223,127,0,,,,,
2,1775672158320,804,1531,10327,120951,-117286,-3665,0,0,0,392,488,339,431,416,465,582,576,328,315,351,319,0,,,,,
1,1775672158336,-3646,18454,10705,-1464854,657290,691499,0,0,0,225,310,227,246,205,296,295,272,277,144,222,126,0,,,,,
2,1775672158336,693,1584,10299,222354,-46425,-32986,0,0,0,394,489,335,434,421,468,573,569,331,251,281,333,0,,,,,
1,1775672158352,-4627,13572,9188,-4480085,1613905,-1384220,0,0,0,224,310,227,246,210,298,300,277,278,146,222,129,0,,,,,
2,1775672158352,708,1574,10150,313984,69638,-34208,0,0,0,399,492,336,438,420,471,572,561,336,248,265,339,0,,,,,
1,1775672158368,-8298,7619,6149,-4895474,1324355,-1529606,0,0,0,222,312,229,248,215,300,307,279,278,149,226,128,0,,,,,
2,1775672158368,813,1502,10026,383623,135612,-24434,0,0,0,407,492,336,439,421,472,575,551,340,247,248,348,0,,,,,
1,1775672158384,-8834,4972,4824,-4786740,212581,-840550,0,0,0,220,313,228,249,209,300,304,278,280,151,228,127,0,,,,,
2,1775672158384,942,1340,9925,416610,133168,-13439,0,0,0,411,492,335,441,427,472,566,534,338,244,231,358,0,,,,,
1,1775672158400,-6235,4618,5714,-4864930,-757472,-167377,0,0,0,220,312,228,249,206,301,308,277,281,153,227,127,0,,,,,
2,1775672158400,1048,1215,9868,412944,100181,-13439,0,0,0,414,494,333,442,426,474,564,518,340,243,220,368,0,,,,,
1,1775672158416,-4465,4508,7461,-5241223,-767246,-73303,0,0,0,221,310,228,250,204,303,307,275,281,156,227,128,0,,,,,
2,1775672158416,1110,1162,9834,389732,50090,-23212,0,0,0,419,495,334,444,423,477,568,505,345,241,210,376,0,,,,,
1,1775672158432,-4335,4235,9069,-5700594,-668286,-227241,0,0,0,225,315,231,251,207,303,304,274,279,160,232,130,0,,,,,
2,1775672158432,1119,1148,9839,373849,-2443,-37873,0,0,0,427,499,335,449,423,479,566,494,350,253,207,385,0,,,,,
1,1775672158448,-4848,3843,10595,-6152634,-912632,-511905,0,0,0,223,315,234,250,204,301,306,274,279,156,230,130,0,,,,,
2,1775672158448,1100,1119,9873,370184,-50090,-52534,0,0,0,433,506,336,452,428,483,563,483,356,258,205,396,0,,,,,
1,1775672158464,-4642,3278,12208,-6455623,-1387885,-844215,0,0,0,223,315,233,250,205,303,307,274,282,158,232,133,0,,,,,
2,1775672158464,1043,1052,9901,377514,-79412,-61086,0,0,0,440,515,338,455,441,489,564,465,357,242,193,411,0,,,,,
1,1775672158480,-4350,2632,13941,-6636439,-1745852,-1177748,0,0,0,224,316,232,252,206,306,309,274,280,158,232,129,0,,,,,
2,1775672158480,942,990,9916,387288,-91629,-64751,0,0,0,450,521,342,462,446,497,562,447,356,241,184,426,0,,,,,
1,1775672158496,-4350,2081,16238,-6742730,-1964542,-1523497,0,0,0,224,316,233,253,207,305,313,276,281,154,228,126,0,,,,,
2,1775672158496,899,961,9978,404392,-79412,-62308,0,0,0,456,523,348,465,441,503,559,426,366,239,174,445,0,,,,,
1,1775672158512,-4843,1636,18937,-6857573,-2098932,-1814269,0,0,0,225,317,234,254,208,302,312,276,280,153,226,121,0,,,,,
2,1775672158512,995,928,10088,445931,-59864,-62308,0,0,0,470,528,348,476,452,514,558,403,366,249,173,467,0,,,,,
1,1775672158528,-5738,899,22100,-6994406,-2201558,-2017077,0,0,0,225,317,235,255,208,302,310,276,279,156,229,121,0,,,,,
2,1775672158528,1129,856,10155,502131,-45204,-78190,0,0,0,481,535,349,484,465,522,552,379,373,252,169,490,0,,,,,
1,1775672158544,-6657,-454,25532,-7026171,-2252871,-2183232,0,0,0,224,317,238,255,207,304,314,274,281,157,230,123,0,,,,,
2,1775672158544,1201,722,10145,566882,-31764,-116064,0,0,0,493,536,349,482,481,527,547,353,380,260,169,508,0,,,,,
1,1775672158560,-7552,-2603,29016,-6916216,-2241875,-2483778,0,0,0,224,316,242,257,205,307,317,269,285,155,221,122,0,,,,,
2,1775672158560,1167,631,10169,612086,1221,-156381,0,0,0,495,543,355,502,490,537,538,323,384,260,167,520,0,,,,,
1,1775672158576,-8212,-6542,31811,-6691417,-2439795,-2983465,0,0,0,226,316,243,257,205,308,317,261,285,154,215,121,0,,,,,
2,1775672158576,1253,559,10375,674395,40317,-199142,0,0,0,505,549,352,497,490,539,523,287,382,260,166,540,0,,,,,
1,1775672158592,-7413,-14764,33658,-6410419,-3072652,-3430619,0,0,0,227,316,234,258,204,303,321,261,284,158,213,119,0,,,,,
2,1775672158592,1335,507,10801,808785,45204,-250454,0,0,0,507,551,343,506,495,546,503,254,393,296,187,555,0,,,,,
1,1775672158608,-5178,-25986,31414,-6045122,-3202155,-3369532,0,0,0,228,316,233,265,209,310,326,262,290,163,217,121,0,,,,,
2,1775672158608,1359,478,11275,995710,37873,-287106,0,0,0,512,558,333,512,504,551,484,242,399,335,191,568,0,,,,,
1,1775672158624,-2541,-40310,22502,-5067738,-2842966,-2168571,0,0,0,227,316,233,263,206,309,324,263,286,163,219,121,0,,,,,
2,1775672158624,1206,512,12045,1296256,70860,-310319,0,0,0,514,560,314,520,514,557,457,235,400,304,177,584,0,,,,,
1,1775672158640,3732,-49987,15596,-3512475,-2739119,-141720,0,0,0,229,315,235,264,208,311,330,269,289,236,215,150,0,,,,,
2,1775672158640,890,502,12825,1701870,149051,-298102,0,0,0,517,562,292,525,521,560,418,227,403,270,173,598,0,,,,,
1,1775672158656,13553,-50787,14486,-1450194,-1600466,1670105,0,0,0,221,302,218,258,209,295,334,305,281,187,291,113,0,,,,,
2,1775672158656,856,387,13620,2224771,216246,-261450,0,0,0,527,567,275,519,526,560,376,221,405,270,178,607,0,,,,,
1,1775672158672,15261,-42756,18138,748920,990823,2206445,0,0,0,224,280,184,262,191,264,400,375,257,240,343,90,0,,,,,
2,1775672158672,1694,363,14515,2795319,164933,-270002,0,0,0,533,566,260,509,529,560,336,213,405,270,180,613,0,,,,,
1,1775672158688,3776,-14912,20918,3253468,4596150,1329242,0,0,0,236,273,162,261,181,248,447,435,253,286,392,87,0,,,,,
2,1775672158688,2761,344,15544,3434284,6108,-375071,0,0,0,528,562,248,503,532,560,302,202,407,275,185,619,0,,,,,
1,1775672158704,-5503,9155,14821,4966334,5944940,139277,0,0,0,239,255,145,273,169,246,472,471,264,328,416,78,0,,,,,
2,1775672158704,3709,335,16630,4134335,-210137,-586430,0,0,0,530,557,248,508,539,559,274,186,393,261,174,605,0,,,,,
1,1775672158720,-1957,7571,14343,6134308,4229630,-540004,0,0,0,240,251,157,285,166,263,484,484,280,366,425,84,0,,,,,
2,1775672158720,4441,564,18339,4971221,-423940,-905302,0,0,0,532,549,254,502,523,551,264,158,391,252,158,574,0,,,,,
1,1775672158736,4560,-1794,22794,5968153,1368338,-98960,0,0,0,253,265,183,307,174,287,496,496,294,402,434,92,0,,,,,
2,1775672158736,4656,722,21627,5936388,-591317,-1240056,0,0,0,517,537,269,493,502,543,269,158,397,236,149,510,0,,,,,
1,1775672158752,2316,-4211,26250,4315152,-166155,709825,0,0,0,264,280,218,320,185,317,504,504,310,415,439,111,0,,,,,
2,1775672158752,4848,770,26929,7005402,-642630,-1469741,0,0,0,447,507,239,466,477,511,276,163,375,217,141,441,0,,,,,
1,1775672158768,-4938,-1531,18554,1965764,-97738,580321,0,0,0,272,297,255,329,194,342,509,509,328,408,444,152,0,,,,,
2,1775672158768,5896,1789,30605,7908261,-408057,-1612684,0,0,0,378,478,209,440,453,479,284,169,354,199,133,372,0,,,,,
1,1775672158784,-4221,177,10433,908967,20769,-119729,0,0,0,301,314,271,364,200,344,526,525,343,418,457,190,0,,,,,
2,1775672158784,6661,3110,32246,8695055,-51312,-1848478,0,0,0,311,451,221,381,414,436,300,218,311,149,114,308,0,,,,,
1,1775672158800,-2072,263,7920,560774,7330,-287106,0,0,0,323,311,273,372,203,356,536,534,356,426,457,208,0,,,,,
2,1775672158800,8241,4000,31538,9277821,516791,-2214997,0,0,0,271,432,232,343,375,398,314,273,292,113,103,216,0,,,,,
1,1775672158816,-2096,-143,9691,379958,72082,-95294,0,0,0,316,311,305,366,207,374,544,532,356,424,452,225,0,,,,,
2,1775672158816,10346,7997,24311,9315694,1110553,-2879618,0,0,0,262,433,237,339,373,399,320,294,293,109,112,205,0,,,,,
1,1775672158832,-2675,52,10591,188146,193033,-6108,0,0,0,328,315,325,385,204,377,554,518,356,442,453,246,0,,,,,
2,1775672158832,9437,13074,15008,8100073,769690,-3696956,0,0,0,256,438,238,338,376,398,322,301,289,110,113,205,0,,,,,
1,1775672158848,-2512,655,10208,161268,241902,-15882,0,0,0,332,316,338,381,201,384,554,517,372,441,445,276,0,,,,,
2,1775672158848,4934,18210,11127,4130670,-620639,-3534466,0,0,0,258,442,239,339,386,395,322,305,281,112,111,205,0,,,,,
1,1775672158864,-2124,818,10045,254119,185703,-3665,0,0,0,339,322,337,381,209,385,558,499,373,444,433,297,0,,,,,
2,1775672158864,2469,19865,10385,-1114218,-1819156,-2140471,0,0,0,261,445,239,342,387,393,325,308,275,115,113,204,0,,,,,
1,1775672158880,-1952,703,10217,348193,62308,25656,0,0,0,346,336,338,393,210,393,551,483,375,431,420,306,0,,,,,
2,1775672158880,4216,14012,8863,-4399451,-2087937,-585208,0,0,0,261,445,238,345,383,393,326,307,273,116,114,203,0,,,,,
1,1775672158896,-2077,665,10380,399505,-76969,51312,0,0,0,346,330,332,388,206,396,558,463,381,416,403,319,0,,,,,
2,1775672158896,6680,7351,5479,-5352401,-1623679,13439,0,0,0,259,444,239,347,382,395,325,306,273,116,115,204,0,,,,,
1,1775672158912,-2172,698,10088,455705,-182037,65973,0,0,0,344,331,326,389,201,398,556,433,379,422,380,338,0,,,,,
2,1775672158912,7403,3953,2737,-4841717,-529009,-393397,0,0,0,260,446,241,346,383,395,327,308,273,117,117,205,0,,,,,
1,1775672158928,-2196,540,8198,453262,-171042,73303,0,0,0,346,328,307,391,206,396,556,412,378,417,361,347,0,,,,,
2,1775672158928,5742,4283,3790,-4740314,200363,-725707,0,0,0,261,447,243,346,383,395,329,311,276,116,117,204,0,,,,,
1,1775672158944,-2244,373,7480,430049,-127059,75747,0,0,0,345,324,288,396,217,397,557,399,373,402,349,353,0,,,,,
2,1775672158944,4565,4833,5484,-4980995,504574,-693942,0,0,0,258,445,241,349,386,397,328,310,275,115,117,203,0,,,,,
1,1775672158960,-2345,268,8863,444709,-116064,75747,0,0,0,345,334,287,398,241,405,554,387,377,393,339,367,0,,,,,
2,1775672158960,4666,4934,6891,-5362175,735481,-357967,0,0,0,260,446,243,349,385,396,328,310,275,117,118,203,0,,,,,
1,1775672158976,-2402,244,9853,453262,-98960,90408,0,0,0,348,343,295,395,255,413,546,372,390,385,329,383,0,,,,,
2,1775672158976,4982,4627,8040,-5599190,1306029,76969,0,0,0,255,443,239,350,387,399,329,312,277,119,121,204,0,,,,,
1,1775672158992,-2383,210,9739,426383,-48869,106290,0,0,0,348,336,292,398,241,417,544,352,392,378,317,394,0,,,,,
2,1775672158992,4422,4560,9729,-5798332,1875356,555887,0,0,0,258,447,241,347,384,397,329,313,277,116,117,202,0,,,,,
1,1775672159008,-2292,153,9408,384845,1221,120951,0,0,0,353,341,287,406,246,422,544,345,398,380,310,403,0,,,,,
2,1775672159008,3709,4584,11672,-6036570,2139250,1042136,0,0,0,258,448,243,349,385,399,329,313,277,116,119,202,0,,,,,
1,1775672159024,-2163,95,9514,351858,12217,123394,0,0,0,360,353,291,412,253,431,543,332,404,377,310,417,0,,,,,
2,1775672159024,3924,4245,13792,-6333450,2234545,1491732,0,0,0,258,448,244,348,386,399,333,314,283,117,121,205,0,,,,,
1,1775672159040,-2072,62,9691,335975,0,118507,0,0,0,376,345,275,412,265,425,545,326,387,359,302,418,0,,,,,
2,1775672159040,4407,3890,16233,-6577796,2387261,1751961,0,0,0,259,448,245,351,388,401,334,314,285,116,117,203,0,,,,,
1,1775672159056,-2053,43,9810,344527,-41538,109955,0,0,0,367,357,281,422,272,428,547,315,393,349,288,430,0,,,,,
2,1775672159056,4517,3742,19382,-6827029,2543642,1809382,0,0,0,260,447,244,354,390,404,335,314,285,116,117,203,0,,,,,
1,1775672159072,-2124,4,9892,378736,-98960,113620,0,0,0,362,362,278,423,288,427,541,303,395,343,277,436,0,,,,,
2,1775672159072,4508,3460,23053,-7114136,2630385,1836260,0,0,0,258,447,245,351,387,402,337,311,284,117,117,203,0,,,,,
1,1775672159088,-2297,-47,9906,430049,-150272,139277,0,0,0,372,371,278,416,289,430,546,279,395,335,255,458,0,,,,,
2,1775672159088,4800,2708,28102,-7358482,2608394,1952325,0,0,0,259,447,246,350,385,401,338,309,286,117,115,202,0,,,,,
1,1775672159104,-2435,-119,9830,492357,-179594,190589,0,0,0,370,375,281,419,289,445,537,273,402,323,237,486,0,,,,,
2,1775672159104,5321,861,32792,-7473325,2568077,2251649,0,0,0,259,448,246,354,387,404,342,309,290,115,113,203,0,,,,,
1,1775672159120,-2435,-186,9810,565661,-188146,254119,0,0,0,375,373,274,431,284,455,533,260,402,320,224,506,0,,,,,
2,1775672159120,5005,-5527,35888,-7422012,2961474,2868623,0,0,0,257,448,245,356,386,408,340,307,297,115,110,203,0,,,,,
1,1775672159136,-2349,-229,10031,651182,-201585,291993,0,0,0,383,384,276,452,295,474,541,245,414,317,221,520,0,,,,,
2,1775672159136,1866,-17626,37592,-6918659,3446501,3285233,0,0,0,260,448,246,359,386,413,334,301,306,116,108,203,0,,,,,
1,1775672159152,-2426,-320,10361,774577,-245567,321315,0,0,0,394,389,276,469,299,487,535,230,436,319,206,530,0,,,,,
2,1775672159152,1100,-32763,34333,-5921727,2522873,3067765,0,0,0,264,448,245,364,390,415,355,305,304,123,111,206,0,,,,,
1,1775672159168,-2450,-435,10806,937067,-298102,349414,0,0,0,409,393,271,487,309,499,508,219,442,308,186,545,0,,,,,
2,1775672159168,4541,-49317,22230,-4141666,1066570,1296256,0,0,0,266,449,247,363,390,415,355,307,305,124,115,209,0,,,,,
1,1775672159184,-2445,-430,11485,1164309,-312763,359188,0,0,0,417,401,267,487,333,511,479,211,445,320,180,551,0,,,,,
2,1775672159184,-2383,-54405,14874,-1968207,1473406,-1728748,0,0,0,266,449,247,365,390,414,356,310,302,125,114,208,0,,,,,
1,1775672159200,-2335,-445,12122,1461189,-294437,357967,0,0,0,420,407,264,477,354,518,449,201,457,325,178,553,0,,,,,
2,1775672159200,-14539,-49671,16305,29321,1117883,-3365867,0,0,0,242,441,238,356,392,410,363,370,298,122,145,198,0,,,,,
1,1775672159216,-2067,-655,12505,1847256,-304210,324980,0,0,0,427,415,250,487,367,525,410,190,465,275,166,566,0,,,,,
2,1775672159216,-15434,-34946,21430,1766622,-949284,-2681698,0,0,0,241,406,209,359,374,392,420,458,278,148,201,187,0,,,,,
1,1775672159232,-2359,-804,13022,2267531,-344527,299323,0,0,0,434,430,226,496,372,537,370,184,469,267,158,572,0,,,,,
2,1775672159232,-990,5498,22388,3145955,-3802025,-414166,0,0,0,249,379,187,350,354,383,468,481,278,167,249,182,0,,,,,
1,1775672159248,-3512,-751,13677,2829527,-372627,389732,0,0,0,426,438,224,506,385,536,323,169,479,262,153,564,0,,,,,
2,1775672159248,5943,18918,11954,3726277,-4786740,1488067,0,0,0,261,373,187,354,343,390,493,494,288,189,285,184,0,,,,,
1,1775672159264,-4278,-693,14505,3486818,-339641,656069,0,0,0,446,426,212,497,409,532,235,157,477,261,138,564,0,,,,,
2,1775672159264,-861,5991,9863,4811174,-3500257,2089159,0,0,0,268,382,204,364,343,400,508,508,302,202,303,194,0,,,,,
1,1775672159280,-4714,-684,15836,4194200,-280998,955393,0,0,0,458,394,222,465,404,528,205,138,459,212,125,556,0,,,,,
2,1775672159280,-10949,-5728,20784,5599190,-1142317,1076344,0,0,0,272,395,232,375,353,412,526,526,316,211,311,204,0,,,,,
1,1775672159296,-5795,-914,18717,4961447,-326202,1241278,0,0,0,421,388,221,452,368,520,202,125,453,186,106,487,0,,,,,
2,1775672159296,-5120,-1708,25029,4500855,-321315,-384845,0,0,0,283,417,266,387,367,424,538,538,324,218,309,221,0,,,,,
1,1775672159312,-8600,-1249,22656,5822767,-450818,1596801,0,0,0,410,383,214,437,355,500,209,119,420,170,89,418,0,,,,,
2,1775672159312,2756,1368,20105,2751337,-217468,-576656,0,0,0,297,444,296,403,383,437,548,547,329,223,300,249,0,,,,,
1,1775672159328,-11036,-880,26690,6712187,-265115,2133141,0,0,0,358,354,197,398,325,454,186,122,373,155,91,346,0,,,,,
2,1775672159328,3804,1110,12323,1279151,-232128,106290,0,0,0,311,463,313,417,398,451,559,559,332,231,295,280,0,,,,,
1,1775672159344,-10949,-670,29652,7501425,344527,2696359,0,0,0,298,332,196,345,291,401,203,158,334,132,106,270,0,,,,,
2,1775672159344,1000,19,9743,603534,-156381,310319,0,0,0,337,472,323,421,405,456,565,565,330,239,292,302,0,,,,,
1,1775672159360,-10437,847,30399,8045095,728151,3051882,0,0,0,248,303,210,285,238,333,251,212,299,128,150,178,0,,,,,
2,1775672159360,335,181,10232,298102,-190589,119729,0,0,0,357,481,332,422,404,455,572,572,329,240,290,312,0,,,,,
1,1775672159376,-11883,5020,27202,8447044,783129,3325550,0,0,0,240,293,220,253,201,293,287,245,282,142,196,127,0,,,,,
2,1775672159376,1033,1158,10686,119729,-291993,-40317,0,0,0,367,482,335,428,409,461,577,577,332,243,290,316,0,,,,,
1,1775672159392,-13424,11165,18449,8326093,741590,3654195,0,0,0,255,305,224,253,200,295,296,252,284,159,216,129,0,,,,,
2,1775672159392,1048,1502,10289,36651,-245567,-6108,0,0,0,381,489,344,426,408,456,579,578,331,249,290,321,0,,,,,
1,1775672159408,-12553,14544,11021,6824586,598647,3920533,0,0,0,249,309,229,255,207,303,295,257,285,164,220,131,0,,,,,
2,1775672159408,928,1507,10117,37873,-178372,20769,0,0,0,383,491,344,433,413,462,568,568,338,263,298,323,0,,,,,
1,1775672159424,-7848,17559,10059,2602285,443488,2906496,0,0,0,243,309,232,254,209,307,295,262,283,157,218,129,0,,,,,
2,1775672159424,808,1560,10270,117286,-156381,0,0,0,0,387,490,344,431,412,462,580,579,332,248,283,327,0,,,,,
1,1775672159440,-3622,17516,10763,-2412917,971275,665843,0,0,0,242,309,234,254,206,307,296,259,280,163,218,134,0,,,,,
2,1775672159440,679,1651,10346,226020,-86742,-26878,0,0,0,392,492,345,437,415,468,578,573,331,246,273,333,0,,,,,
1,1775672159456,-4938,12428,8825,-4305378,1748296,-686612,0,0,0,233,314,241,249,206,308,304,264,283,163,222,136,0,,,,,
2,1775672159456,665,1665,10232,333532,25656,-30543,0,0,0,397,494,340,439,417,472,577,563,342,244,262,338,0,,,,,
1,1775672159472,-7963,7178,5738,-4911356,1731192,-1040914,0,0,0,227,314,242,253,209,310,309,264,284,165,222,138,0,,,,,
2,1775672159472,789,1541,10054,411723,103847,-18325,0,0,0,398,495,337,437,416,472,565,540,347,237,244,343,0,,,,,
1,1775672159488,-9069,4790,4221,-4741535,503352,-408057,0,0,0,225,315,242,253,208,309,308,264,282,167,225,138,0,,,,,
2,1775672159488,933,1363,9920,453262,123394,-8552,0,0,0,401,493,334,440,419,473,568,532,347,239,235,357,0,,,,,
1,1775672159504,-6575,4565,5441,-4871039,-458148,28099,0,0,0,222,316,247,246,207,309,306,268,284,164,225,139,0,,,,,
2,1775672159504,1009,1220,9844,443488,92851,-12217,0,0,0,408,496,337,446,422,476,570,522,346,243,227,369,0,,,,,
1,1775672159520,-4560,4484,7121,-5197241,-616973,51312,0,0,0,221,317,248,249,211,312,305,267,285,164,224,139,0,,,,,
2,1775672159520,1043,1148,9806,414166,63529,-21991,0,0,0,414,499,340,446,419,475,565,507,348,247,219,377,0,,,,,
1,1775672159536,-5020,4149,8580,-5673716,-514348,-274889,0,0,0,218,317,251,248,209,313,307,270,288,163,227,139,0,,,,,
2,1775672159536,1091,1115,9810,371406,18325,-35430,0,0,0,418,500,339,448,422,479,564,495,348,247,211,386,0,,,,,
1,1775672159552,-5814,3536,9930,-6076887,-863763,-630412,0,0,0,219,316,253,247,206,315,309,271,290,161,225,138,0,,,,,
2,1775672159552,1110,1086,9858,348193,-31764,-47647,0,0,0,426,505,339,456,431,490,566,482,349,244,200,396,0,,,,,
1,1775672159568,-5460,2785,11485,-6288246,-1417207,-984714,0,0,0,220,318,254,248,207,316,310,271,290,164,226,138,0,,,,,
2,1775672159568,1086,1067,9901,344527,-76969,-58643,0,0,0,434,510,339,455,432,491,566,468,355,251,195,406,0,,,,,
1,1775672159584,-5044,2120,13213,-6385985,-1756848,-1342681,0,0,0,220,320,255,249,210,316,310,271,290,164,228,139,0,,,,,
2,1775672159584,1019,1043,9940,362853,-106290,-62308,0,0,0,440,515,341,458,432,494,566,455,363,241,186,424,0,,,,,
1,1775672159600,-5216,1675,15343,-6444628,-1923003,-1699427,0,0,0,219,320,254,249,211,317,309,272,292,162,228,140,0,,,,,
2,1775672159600,928,981,9968,394618,-98960,-62308,0,0,0,450,521,346,464,444,503,561,437,367,239,182,438,0,,,,,
1,1775672159616,-5967,1512,18315,-6636439,-2081828,-1986533,0,0,0,218,322,254,251,211,316,313,272,292,164,228,141,0,,,,,
2,1775672159616,894,914,10050,433714,-69638,-64751,0,0,0,458,528,346,474,456,516,557,409,365,244,178,460,0,,,,,
1,1775672159632,-6700,1129,21684,-6932098,-2206445,-2199114,0,0,0,221,319,257,250,208,314,318,270,292,165,225,143,0,,,,,
2,1775672159632,1024,842,10136,492357,-26878,-80634,0,0,0,470,532,344,479,466,519,554,384,374,255,176,479,0,,,,,
1,1775672159648,-7642,-110,25963,-7208209,-2258979,-2415361,0,0,0,220,316,262,246,206,320,317,263,291,165,220,137,0,,,,,
2,1775672159648,1158,799,10174,557109,-2443,-108734,0,0,0,477,534,342,485,471,524,549,358,384,256,170,493,0,,,,,
1,1775672159664,-8667,-2325,29978,-7274183,-2254092,-2700024,0,0,0,218,316,258,249,210,314,319,263,289,161,216,132,0,,,,,
2,1775672159664,1234,746,10251,647517,13439,-152716,0,0,0,484,538,342,494,482,536,537,323,381,260,170,516,0,,,,,
1,1775672159680,-9341,-6877,33261,-7117801,-2478891,-3154508,0,0,0,219,317,257,250,210,315,324,268,294,161,215,131,0,,,,,
2,1775672159680,1306,617,10504,745255,36651,-197920,0,0,0,495,548,346,497,486,539,526,290,386,265,170,542,0,,,,,
1,1775672159696,-7719,-15764,35209,-6839247,-3175277,-3536909,0,0,0,221,321,252,255,214,315,325,265,293,164,215,129,0,,,,,
2,1775672159696,1330,526,10945,890641,37873,-246789,0,0,0,504,550,342,505,495,543,507,263,390,271,173,562,0,,,,,
1,1775672159712,-5053,-27633,32825,-6465397,-3204599,-3434284,0,0,0,220,323,252,258,220,322,321,264,299,165,220,132,0,,,,,
2,1775672159712,1359,483,11600,1134987,6108,-277332,0,0,0,510,556,334,517,507,548,481,242,395,268,172,574,0,,,,,
1,1775672159728,-3723,-41292,24359,-5651725,-2582738,-2337170,0,0,0,220,325,250,259,230,324,316,263,299,170,223,130,0,,,,,
2,1775672159728,1282,507,12467,1456302,0,-296880,0,0,0,516,565,322,521,517,553,447,230,400,271,175,587,0,,,,,
1,1775672159744,3216,-51763,16008,-3837455,-2388483,298102,0,0,0,220,323,248,256,222,329,316,265,307,170,224,132,0,,,,,
2,1775672159744,1028,516,13314,1891238,29321,-301767,0,0,0,518,567,295,520,527,556,409,224,402,275,182,601,0,,,,,
1,1775672159760,14749,-54017,13596,-1742187,-1516167,2470339,0,0,0,221,316,246,259,213,327,321,277,301,173,243,123,0,,,,,
2,1775672159760,990,459,14012,2423913,46425,-283441,0,0,0,518,565,267,517,536,554,368,225,404,281,194,611,0,,,,,
1,1775672159776,15759,-45259,16367,497244,1022588,2684141,0,0,0,224,298,223,263,196,299,375,336,280,216,308,105,0,,,,,
2,1775672159776,1708,478,14912,3007900,-17104,-285884,0,0,0,524,567,255,510,542,553,321,222,398,293,214,615,0,,,,,
1,1775672159792,5326,-20124,20516,2382374,3404962,1610240,0,0,0,232,271,181,263,179,261,429,411,258,274,379,88,0,,,,,
2,1775672159792,2890,445,16018,3683517,-207694,-403171,0,0,0,526,567,248,499,537,553,277,196,383,287,215,608,0,,,,,
1,1775672159808,-6058,12605,16554,3612657,4758640,-271224,0,0,0,241,254,155,268,172,247,451,451,251,317,411,82,0,,,,,
2,1775672159808,3474,526,17214,4464203,-448375,-634078,0,0,0,522,556,235,498,534,546,266,183,388,274,200,592,0,,,,,
1,1775672159824,-4331,15142,11141,4928460,4073249,-1606575,0,0,0,243,253,161,278,168,267,467,467,271,353,421,89,0,,,,,
2,1775672159824,4326,684,18956,5338962,-662177,-916297,0,0,0,531,554,252,501,536,551,264,163,392,262,175,558,0,,,,,
1,1775672159840,7485,-3139,17903,6188064,1323134,-1309695,0,0,0,244,257,178,285,165,296,479,479,301,384,429,100,0,,,,,
2,1775672159840,5125,579,22694,6356663,-807563,-1264491,0,0,0,518,537,264,486,509,534,262,158,387,235,159,488,0,,,,,
1,1775672159856,6231,-4781,25135,5109276,-207694,344527,0,0,0,256,275,200,302,181,301,493,493,292,415,437,108,0,,,,,
2,1775672159856,5781,756,27695,7414682,-801455,-1573588,0,0,0,448,511,229,473,492,511,269,161,370,225,153,424,0,,,,,
1,1775672159872,-3579,-1296,21765,2965139,-276111,1053131,0,0,0,257,295,250,317,203,352,509,508,319,423,447,137,0,,,,,
2,1775672159872,6389,1804,31385,8326093,-436157,-1803274,0,0,0,374,478,210,438,453,475,285,175,346,160,130,362,0,,,,,
1,1775672159888,-7298,277,13108,1302364,127059,208915,0,0,0,293,299,276,371,210,368,521,520,339,443,464,200,0,,,,,
2,1775672159888,6657,3790,32945,9148317,261450,-2094046,0,0,0,309,450,220,378,406,428,297,223,307,150,130,287,0,,,,,
1,1775672159904,-2871,-291,9131,592539,180816,-375071,0,0,0,315,316,258,365,212,366,533,515,325,468,473,243,0,,,,,
2,1775672159904,7776,5417,31189,9718865,1099557,-2511877,0,0,0,276,434,233,341,371,396,305,256,287,169,196,228,0,,,,,
1,1775672159920,-1167,-253,9629,259006,124616,-232128,0,0,0,333,322,270,376,213,368,547,519,324,479,479,243,0,,,,,
2,1775672159920,8973,9705,22689,9458637,1400103,-3227811,0,0,0,263,432,239,334,366,393,310,279,287,182,243,210,0,,,,,
1,1775672159936,-2167,555,10509,106290,149051,0,0,0,0,331,327,276,369,221,378,553,513,329,486,482,266,0,,,,,
2,1775672159936,6661,13969,15644,7854505,464257,-3886324,0,0,0,261,436,239,334,371,394,307,284,281,182,248,208,0,,,,,
1,1775672159952,-2665,1019,10366,95294,162490,32986,0,0,0,333,328,276,372,226,388,556,508,341,483,479,287,0,,,,,
2,1775672159952,2445,19483,11481,3643200,-1587027,-3475823,0,0,0,261,438,238,334,371,390,305,282,270,187,250,208,0,,,,,
1,1775672159968,-2340,1043,9992,189368,118507,3665,0,0,0,336,330,277,373,235,396,556,494,359,470,462,301,0,,,,,
2,1775672159968,3551,19731,9605,-1948660,-2454456,-1441641,0,0,0,259,437,235,336,371,390,307,282,267,196,260,210,0,,,,,
1,1775672159984,-2033,904,10098,277332,17104,24434,0,0,0,335,331,280,373,242,400,553,475,370,445,442,313,0,,,,,
2,1775672159984,6264,13687,8016,-5557651,-1937664,361632,0,0,0,254,437,233,339,373,392,310,283,267,199,267,210,0,,,,,
1,1775672160000,-2062,947,10279,333532,-84299,56199,0,0,0,334,330,280,377,248,402,549,456,368,422,423,326,0,,,,,
2,1775672160000,7403,6302,6034,-6093991,-846659,886976,0,0,0,252,440,233,340,375,394,310,284,268,201,271,209,0,,,,,
1,1775672160016,-2144,1024,10366,394618,-186924,73303,0,0,0,338,331,274,382,248,404,546,436,359,417,401,335,0,,,,,
2,1775672160016,6604,3967,4886,-5441587,-344527,430049,0,0,0,252,443,236,339,376,394,308,284,266,203,273,208,0,,,,,
1,1775672160032,-2167,1038,10571,381179,-193033,78190,0,0,0,341,331,267,383,245,402,549,422,358,416,379,339,0,,,,,
2,1775672160032,5977,3665,5092,-5213123,-117286,25656,0,0,0,252,441,236,339,374,395,309,287,269,204,272,208,0,,,,,
1,1775672160048,-2225,861,10035,368962,-177150,74525,0,0,0,337,337,259,383,252,396,548,415,368,397,367,342,0,,,,,
2,1775672160048,5666,4048,6417,-5495343,149051,-129503,0,0,0,249,441,234,343,379,398,302,293,276,206,277,208,0,,,,,
1,1775672160064,-2301,650,9428,389732,-189368,69638,0,0,0,334,341,266,383,251,403,545,400,373,388,353,355,0,,,,,
2,1775672160064,5374,4374,8092,-5952270,621860,-48869,0,0,0,250,441,234,343,379,398,313,291,267,204,277,204,0,,,,,
1,1775672160080,-2354,531,9270,375071,-164933,72082,0,0,0,334,347,259,386,281,401,542,387,373,390,349,348,0,,,,,
2,1775672160080,5125,4369,9571,-6287025,1110553,255341,0,0,0,250,441,236,343,380,398,314,292,270,204,278,203,0,,,,,
1,1775672160096,-2368,531,9408,322536,-95294,79412,0,0,0,328,348,255,382,282,400,540,377,379,386,340,362,0,,,,,
2,1775672160096,4800,4044,11375,-6546031,1574810,735481,0,0,0,249,441,237,340,377,396,311,291,266,207,279,202,0,,,,,
1,1775672160112,-2345,550,9528,287106,-24434,86742,0,0,0,344,338,255,393,272,404,540,358,377,393,327,356,0,,,,,
2,1775672160112,4465,3747,13170,-6747617,1872912,1174082,0,0,0,247,440,235,343,378,398,315,293,268,213,279,203,0,,,,,
1,1775672160128,-2254,550,9605,287106,12217,92851,0,0,0,336,353,262,390,282,420,540,353,378,393,319,377,0,,,,,
2,1775672160128,4364,3517,15415,-6980967,2069611,1610240,0,0,0,247,441,234,343,379,399,315,293,270,211,280,204,0,,,,,
1,1775672160144,-2105,512,9691,299323,6108,89186,0,0,0,334,353,260,391,305,413,539,340,374,383,310,383,0,,,,,
2,1775672160144,4666,3158,18143,-7228979,2196671,1844813,0,0,0,245,442,236,342,381,399,315,293,271,209,280,203,0,,,,,
1,1775672160160,-2043,449,9772,313984,-29321,81855,0,0,0,341,371,263,393,332,416,534,342,382,370,307,395,0,,,,,
2,1775672160160,4943,2541,21244,-7412238,2322509,1918116,0,0,0,243,440,236,342,380,399,317,294,272,212,281,204,0,,,,,
1,1775672160176,-2148,378,9810,344527,-85521,83077,0,0,0,345,380,265,401,336,426,539,330,395,360,298,411,0,,,,,
2,1775672160176,5336,1813,25254,-7502646,2444682,1904677,0,0,0,244,440,237,341,376,396,317,291,272,215,279,205,0,,,,,
1,1775672160192,-2278,330,9815,388510,-124616,102625,0,0,0,346,380,266,409,335,438,534,306,397,348,289,430,0,,,,,
2,1775672160192,6097,966,30763,-7583281,2563190,2002416,0,0,0,247,440,238,341,376,395,318,289,274,216,275,205,0,,,,,
1,1775672160208,-2388,277,9777,443488,-151494,142942,0,0,0,349,381,262,418,339,451,524,286,401,330,274,450,0,,,,,
2,1775672160208,5824,-2924,34572,-7750658,2901609,2384817,0,0,0,247,440,236,347,379,400,327,288,279,221,271,205,0,,,,,
1,1775672160224,-2512,239,9877,518013,-189368,202807,0,0,0,354,383,254,425,340,455,522,267,409,318,250,477,0,,,,,
2,1775672160224,3268,-10969,36855,-7626041,3463605,2831971,0,0,0,246,441,236,351,379,404,331,283,283,227,267,207,0,,,,,
1,1775672160240,-2761,234,10136,609643,-241902,280998,0,0,0,365,389,252,429,350,456,518,248,416,310,231,508,0,,,,,
2,1775672160240,-234,-24613,36826,-6742730,3265685,3033556,0,0,0,251,441,236,354,380,407,337,283,290,232,265,208,0,,,,,
1,1775672160256,-2751,138,10557,759916,-293215,379958,0,0,0,380,410,257,444,377,469,505,244,429,291,222,529,0,,,,,
2,1775672160256,1569,-40875,27819,-4904026,1733635,2028072,0,0,0,252,443,237,352,380,408,337,283,291,233,269,207,0,,,,,
1,1775672160272,-2569,38,11155,959058,-331088,431270,0,0,0,393,421,251,452,394,488,489,228,434,279,211,544,0,,,,,
2,1775672160272,1296,-51543,17712,-2838079,1166752,-123394,0,0,0,253,442,237,358,385,411,338,285,291,232,266,207,0,,,,,
1,1775672160288,-2364,23,11964,1253495,-375071,433714,0,0,0,415,435,240,470,411,501,473,216,442,269,197,562,0,,,,,
2,1775672160288,-8289,-52323,14716,-862541,1396437,-2502104,0,0,0,251,441,236,356,385,409,347,317,289,168,202,202,0,,,,,
1,1775672160304,-2053,-38,12423,1628566,-439822,397062,0,0,0,402,439,219,474,430,517,431,216,442,261,201,565,0,,,,,
2,1775672160304,-14654,-41928,19794,904080,-89186,-2679254,0,0,0,245,433,228,357,385,399,400,447,284,141,193,187,0,,,,,
1,1775672160320,-2053,-205,12735,2007303,-529009,339641,0,0,0,410,440,208,474,442,517,386,213,470,271,201,567,0,,,,,
2,1775672160320,-7102,-14367,24096,2575407,-2480112,-1412320,0,0,0,245,379,188,345,359,380,453,477,276,161,240,182,0,,,,,
1,1775672160336,-3235,-229,13357,2458121,-559552,371406,0,0,0,417,448,196,471,439,514,341,191,472,259,186,572,0,,,,,
2,1775672160336,7221,19363,17272,3685960,-4648684,386066,0,0,0,254,369,184,348,346,385,486,490,283,180,278,184,0,,,,,
1,1775672160352,-4412,-215,14280,3056769,-494800,561996,0,0,0,424,419,196,475,397,528,268,165,470,245,162,582,0,,,,,
2,1775672160352,5106,11911,10447,4631580,-4224743,1357342,0,0,0,261,373,188,357,344,395,502,502,292,205,316,188,0,,,,,
1,1775672160368,-5206,-129,15343,3759264,-323758,856433,0,0,0,424,398,211,461,373,524,215,146,459,222,126,566,0,,,,,
2,1775672160368,-5503,-3067,17334,5518556,-2107485,1411098,0,0,0,265,383,207,364,348,404,511,511,307,224,328,191,0,,,,,
1,1775672160384,-6216,119,17157,4559498,-112399,1240056,0,0,0,416,396,214,448,364,512,210,138,445,207,117,538,0,,,,,
2,1775672160384,-9652,-4465,25972,5158146,-406836,299323,0,0,0,268,397,232,374,357,415,523,522,314,231,327,196,0,,,,,
1,1775672160400,-7662,181,20808,5491678,8552,1696983,0,0,0,412,400,236,423,349,491,202,136,430,180,110,479,0,,,,,
2,1775672160400,-1124,1134,21607,3745825,-128281,-588874,0,0,0,280,418,266,384,367,425,537,536,318,231,322,216,0,,,,,
1,1775672160416,-10241,33,24709,6460510,92851,2179567,0,0,0,388,383,224,392,330,456,185,135,396,155,103,392,0,,,,,
2,1775672160416,3292,1890,14146,2334726,-194255,-268780,0,0,0,298,447,302,398,382,439,549,548,325,245,322,244,0,,,,,
1,1775672160432,-11902,90,28284,7358482,266337,2741563,0,0,0,334,354,196,360,299,413,198,148,355,141,103,307,0,,,,,
2,1775672160432,2115,148,10174,1183856,-295658,259006,0,0,0,319,468,321,417,399,451,557,556,325,259,322,270,0,,,,,
1,1775672160448,-11562,1229,30332,7977900,513126,3215594,0,0,0,280,329,197,320,254,361,241,189,318,132,127,225,0,,,,,
2,1775672160448,382,-478,10744,564439,-348193,257785,0,0,0,346,478,328,427,406,459,565,565,323,246,301,294,0,,,,,
1,1775672160464,-11911,3948,29159,8438492,605978,3599217,0,0,0,252,298,192,282,222,303,275,239,279,140,185,135,0,,,,,
2,1775672160464,492,536,10940,211359,-382401,43982,0,0,0,361,484,333,430,409,466,575,574,327,245,297,307,0,,,,,
1,1775672160480,-13519,8772,22861,8742703,290771,3997502,0,0,0,259,283,229,259,188,295,300,252,283,148,202,128,0,,,,,
2,1775672160480,756,1282,10433,97738,-309097,-26878,0,0,0,373,488,337,430,411,463,577,577,336,248,297,315,0,,,,,
1,1775672160496,-12663,12304,14290,8092742,-139277,4492302,0,0,0,245,289,239,255,194,304,292,253,287,153,218,136,0,,,,,
2,1775672160496,885,1454,10093,75747,-173485,1221,0,0,0,383,492,341,428,409,460,576,576,332,256,300,317,0,,,,,
1,1775672160512,-8341,14869,10236,5710368,-147829,4304156,0,0,0,232,301,242,246,198,307,290,264,289,147,218,135,0,,,,,
2,1775672160512,827,1426,10284,96516,-140499,7330,0,0,0,384,488,337,435,419,466,568,568,328,256,300,321,0,,,,,
1,1775672160528,-3627,17367,10126,1070235,667064,2111150,0,0,0,232,301,243,245,198,304,289,262,283,147,221,135,0,,,,,
2,1775672160528,670,1517,10356,163711,-105068,-12217,0,0,0,389,491,341,430,412,467,575,574,336,250,281,329,0,,,,,
1,1775672160544,-2995,15869,9605,-2767219,1668883,-403171,0,0,0,231,303,242,248,203,306,296,268,282,148,223,136,0,,,,,
2,1775672160544,603,1598,10265,279776,-7330,-28099,0,0,0,394,493,342,434,413,468,572,567,332,247,270,339,0,,,,,
1,1775672160560,-6365,10528,7217,-4590041,2138028,-1896125,0,0,0,231,306,242,248,207,307,302,270,283,148,224,136,0,,,,,
2,1775672160560,646,1560,10165,387288,83077,-28099,0,0,0,400,497,342,432,413,467,571,554,337,243,254,344,0,,,,,
1,1775672160576,-8825,6307,4848,-4808731,1323134,-1555262,0,0,0,231,308,243,248,204,307,304,268,283,152,225,136,0,,,,,
2,1775672160576,775,1416,10054,455705,131946,-19547,0,0,0,406,499,341,437,417,472,569,539,340,251,244,352,0,,,,,
1,1775672160592,-8193,4379,4321,-4861265,169820,-737925,0,0,0,233,308,244,252,202,308,307,263,281,163,226,136,0,,,,,
2,1775672160592,880,1263,9959,470366,124616,-18325,0,0,0,411,501,341,441,420,477,570,527,352,248,231,368,0,,,,,
1,1775672160608,-6164,3929,5503,-4907691,-265115,-307876,0,0,0,230,309,245,252,204,308,309,265,282,163,228,135,0,,,,,
2,1775672160608,947,1158,9882,463035,100181,-23212,0,0,0,416,504,339,445,421,479,568,511,351,243,218,382,0,,,,,
1,1775672160624,-4986,3819,6968,-5097059,-335975,-190589,0,0,0,226,312,245,249,207,308,307,270,284,156,230,134,0,,,,,
2,1775672160624,990,1086,9844,444709,67195,-32986,0,0,0,424,508,339,450,426,482,564,490,345,243,209,392,0,,,,,
1,1775672160640,-5245,3967,8552,-5600412,-354301,-408057,0,0,0,226,312,245,251,207,310,305,270,283,158,232,134,0,,,,,
2,1775672160640,1038,1033,9877,431270,18325,-45204,0,0,0,434,513,341,448,426,485,559,468,346,243,201,402,0,,,,,
1,1775672160656,-5891,3603,10208,-6188064,-718377,-768468,0,0,0,228,311,245,252,207,310,305,270,284,160,234,136,0,,,,,
2,1775672160656,1043,1000,9940,427605,-25656,-57421,0,0,0,442,520,343,449,428,489,556,453,348,240,190,412,0,,,,,
1,1775672160672,-6063,2766,11878,-6546031,-1205847,-1142317,0,0,0,226,311,247,251,205,311,309,272,285,156,231,133,0,,,,,
2,1775672160672,981,947,9964,434936,-61086,-65973,0,0,0,446,524,344,459,441,502,557,440,353,236,181,423,0,,,,,
1,1775672160688,-5915,1823,13711,-6627887,-1615127,-1512502,0,0,0,227,312,245,252,207,312,308,272,284,160,232,131,0,,,,,
2,1775672160688,928,880,9973,453262,-76969,-70860,0,0,0,453,528,344,464,448,510,553,420,359,235,172,438,0,,,,,
1,1775672160704,-6073,1220,15745,-6686530,-1859473,-1808161,0,0,0,223,313,245,252,210,311,307,273,284,156,231,131,0,,,,,
2,1775672160704,909,784,10021,481361,-69638,-78190,0,0,0,468,535,348,468,456,509,554,400,370,240,172,458,0,,,,,
1,1775672160720,-6585,871,18516,-6828251,-2052507,-2023185,0,0,0,223,314,248,252,207,311,307,269,284,159,234,131,0,,,,,
2,1775672160720,961,689,10093,503352,-34208,-97738,0,0,0,470,535,341,476,465,511,554,379,373,248,173,475,0,,,,,
1,1775672160736,-6996,402,22100,-7060380,-2202780,-2160019,0,0,0,222,311,246,252,206,309,310,270,284,159,232,130,0,,,,,
2,1775672160736,1057,631,10155,529009,2443,-124616,0,0,0,486,543,344,485,471,519,551,364,375,261,176,494,0,,,,,
1,1775672160752,-7528,-526,26068,-7258300,-2249205,-2349387,0,0,0,223,313,249,255,206,310,313,269,286,162,229,132,0,,,,,
2,1775672160752,1172,579,10232,576656,26878,-160046,0,0,0,489,543,345,490,482,521,540,322,383,272,173,516,0,,,,,
1,1775672160768,-8480,-2890,29695,-7242418,-2289522,-2687807,0,0,0,222,314,249,255,207,311,311,266,286,158,224,130,0,,,,,
2,1775672160768,1172,536,10399,667064,10995,-200363,0,0,0,492,548,338,495,489,530,532,295,384,269,173,533,0,,,,,
1,1775672160784,-8705,-7628,32935,-7062823,-2718350,-3079982,0,0,0,220,310,245,255,211,311,311,264,287,158,222,129,0,,,,,
2,1775672160784,1129,478,10610,789237,-6108,-230907,0,0,0,503,553,341,501,493,534,518,264,390,274,173,552,0,,,,,
1,1775672160800,-6824,-16190,35333,-6813590,-3358537,-3284011,0,0,0,219,311,248,257,209,321,315,261,298,160,220,129,0,,,,,
2,1775672160800,1201,354,10983,967610,2443,-256563,0,0,0,509,557,337,510,503,547,498,241,391,280,178,571,0,,,,,
1,1775672160816,-4225,-29126,31926,-6406754,-3027448,-2860071,0,0,0,220,313,248,258,206,322,315,259,302,162,220,128,0,,,,,
2,1775672160816,1229,291,11619,1181413,29321,-278554,0,0,0,511,563,324,509,511,549,470,235,401,281,184,584,0,,,,,
1,1775672160832,-1531,-43622,23326,-5286427,-2398256,-1480737,0,0,0,221,313,246,258,206,318,314,259,299,164,222,128,0,,,,,
2,1775672160832,1210,306,12457,1497841,63529,-300545,0,0,0,513,571,303,516,523,552,437,230,405,279,184,591,0,,,,,
1,1775672160848,7791,-51615,16424,-3121521,-1925447,902858,0,0,0,222,314,248,260,207,317,315,260,295,166,224,127,0,,,,,
2,1775672160848,1086,244,13103,1957212,75747,-318871,0,0,0,519,573,280,515,531,552,397,229,402,278,183,599,0,,,,,
1,1775672160864,18133,-51394,15161,-857654,-667064,2441017,0,0,0,224,305,246,261,206,312,331,287,291,183,256,121,0,,,,,
2,1775672160864,1028,177,13735,2459343,62308,-315206,0,0,0,524,569,263,511,537,555,358,226,401,277,184,607,0,,,,,
1,1775672160880,16707,-41277,18406,1066570,1644449,2125811,0,0,0,227,278,219,262,194,288,384,363,281,238,337,106,0,,,,,
2,1775672160880,1761,167,14649,2974913,-9773,-338419,0,0,0,523,567,246,517,549,559,319,207,396,289,201,611,0,,,,,
1,1775672160896,2349,-8825,20617,2579073,3693291,825889,0,0,0,234,253,175,267,173,256,454,436,264,298,397,92,0,,,,,
2,1775672160896,2589,134,15845,3657861,-135612,-455705,0,0,0,524,566,240,506,550,552,284,188,390,299,219,610,0,,,,,
1,1775672160912,-9432,22000,13807,3770260,4957782,-665843,0,0,0,241,253,177,274,169,264,468,469,278,318,416,90,0,,,,,
2,1775672160912,3015,287,17118,4459316,-277332,-653625,0,0,0,531,566,255,491,535,553,267,170,393,281,199,594,0,,,,,
1,1775672160928,-1780,8887,12036,5174028,3291341,-1224173,0,0,0,242,255,164,285,169,272,478,479,283,363,427,91,0,,,,,
2,1775672160928,3905,430,19234,5356066,-384845,-904080,0,0,0,526,552,257,488,528,545,259,154,401,272,191,557,0,,,,,
1,1775672160944,7331,-3828,19889,6001140,851546,-785572,0,0,0,250,262,171,287,171,281,487,488,289,386,433,94,0,,,,,
2,1775672160944,4776,296,23292,6394537,-465479,-1207069,0,0,0,501,527,248,490,507,536,263,154,392,256,175,488,0,,,,,
1,1775672160960,5987,-4230,25508,5131268,-463035,605978,0,0,0,254,266,195,298,174,297,502,502,311,401,440,100,0,,,,,
2,1775672160960,5776,464,28174,7400021,-351858,-1467298,0,0,0,427,495,223,473,476,511,273,157,374,232,160,414,0,,,,,
1,1775672160976,-4355,-703,19798,3116634,-229685,955393,0,0,0,263,283,230,316,194,335,507,508,319,413,445,124,0,,,,,
2,1775672160976,6432,1651,31098,8267450,97738,-1736079,0,0,0,363,469,214,438,440,470,289,168,344,204,143,362,0,,,,,
1,1775672160992,-6690,-153,12845,1617571,111177,162490,0,0,0,273,296,255,329,206,362,513,514,333,419,456,179,0,,,,,
2,1775672160992,6934,2957,32605,9004153,667064,-2068389,0,0,0,293,438,226,371,396,421,301,229,302,162,146,271,0,,,,,
1,1775672161008,-2747,-650,9428,758694,199142,-444709,0,0,0,298,308,271,349,214,372,519,510,349,428,472,215,0,,,,,
2,1775672161008,8681,4867,30021,9475741,1568701,-2608394,0,0,0,272,433,239,344,373,394,319,267,291,128,123,213,0,,,,,
1,1775672161024,-1397,-162,10102,399505,138055,-205250,0,0,0,315,315,277,359,217,377,536,518,343,445,481,238,0,,,,,
2,1775672161024,10212,8844,22148,9363342,2035402,-3403741,0,0,0,269,439,243,343,376,401,324,294,296,115,118,206,0,,,,,
1,1775672161040,-2268,559,10514,229685,146607,21991,0,0,0,324,317,278,365,219,380,552,525,338,448,478,259,0,,,,,
2,1775672161040,7681,12098,15601,8130616,1214400,-4367686,0,0,0,266,443,243,343,380,401,323,307,290,111,114,205,0,,,,,
1,1775672161056,-2574,808,10208,210137,173485,26878,0,0,0,329,321,286,368,220,387,551,511,347,435,471,284,0,,,,,
2,1775672161056,1172,18315,12409,4123340,-917519,-3688404,0,0,0,264,444,240,335,377,389,306,303,274,111,112,200,0,,,,,
1,1775672161072,-2196,789,10016,257785,138055,8552,0,0,0,331,332,296,365,221,395,546,492,356,431,462,307,0,,,,,
2,1775672161072,454,21105,9600,-1573588,-2670702,-1393994,0,0,0,266,443,238,342,380,389,313,303,268,115,114,199,0,,,,,
1,1775672161088,-2000,756,10169,315206,20769,24434,0,0,0,338,340,294,367,229,397,552,480,357,428,445,317,0,,,,,
2,1775672161088,5489,13854,8284,-5527108,-2591290,624304,0,0,0,269,444,240,348,382,392,326,308,270,117,114,200,0,,,,,
1,1775672161104,-2120,760,10854,337197,-64751,54977,0,0,0,333,339,290,375,237,400,548,460,365,415,431,329,0,,,,,
2,1775672161104,8078,6647,6781,-6447071,-1589471,913854,0,0,0,267,446,242,348,385,392,328,312,272,117,115,199,0,,,,,
1,1775672161120,-2220,760,12017,322536,-85521,78190,0,0,0,331,339,298,375,239,406,543,435,366,423,412,339,0,,,,,
2,1775672161120,7183,3527,5254,-5861862,-518013,114842,0,0,0,263,445,240,348,387,394,327,309,271,132,144,200,0,,,,,
1,1775672161136,-2211,737,10878,405614,-146607,70860,0,0,0,334,344,293,378,244,412,537,424,370,410,395,351,0,,,,,
2,1775672161136,5551,3742,5293,-5616295,-141720,-475253,0,0,0,259,445,239,347,382,393,324,300,269,155,186,202,0,,,,,
1,1775672161152,-2254,612,9471,469144,-180816,64751,0,0,0,332,354,268,370,275,404,540,413,365,382,387,355,0,,,,,
2,1775672161152,4982,3819,6207,-5729915,50090,-676838,0,0,0,257,446,239,347,387,393,327,304,270,149,176,201,0,,,,,
1,1775672161168,-2316,454,9150,444709,-140499,68416,0,0,0,328,356,263,377,279,404,541,397,378,380,365,362,0,,,,,
2,1775672161168,4781,3771,7552,-5957157,386066,-563217,0,0,0,260,445,240,348,387,394,329,312,274,138,158,200,0,,,,,
1,1775672161184,-2330,382,9471,376292,-62308,78190,0,0,0,331,362,265,382,284,408,538,381,377,382,350,376,0,,,,,
2,1775672161184,4479,3876,8647,-6079330,878424,-155159,0,0,0,258,445,242,347,385,393,331,317,274,123,131,198,0,,,,,
1,1775672161200,-2301,387,9633,349414,-10995,90408,0,0,0,334,367,267,387,296,414,536,368,378,380,340,381,0,,,,,
2,1775672161200,4355,3929,9887,-6191730,1412320,434936,0,0,0,255,445,240,343,381,391,323,303,268,160,189,198,0,,,,,
1,1775672161216,-2215,387,9657,362853,2443,96516,0,0,0,338,374,276,390,292,421,532,356,383,366,324,393,0,,,,,
2,1775672161216,4216,3823,11710,-6371324,1835039,1028697,0,0,0,254,442,238,343,381,391,323,303,269,170,212,198,0,,,,,
1,1775672161232,-2129,354,9734,383623,-1221,100181,0,0,0,343,372,277,396,292,429,528,339,382,351,307,410,0,,,,,
2,1775672161232,4206,3642,13735,-6594901,2087937,1505171,0,0,0,254,444,241,346,383,395,324,304,273,164,201,199,0,,,,,
1,1775672161248,-2110,268,9815,410501,-31764,105068,0,0,0,349,372,272,406,304,433,525,320,383,345,296,421,0,,,,,
2,1775672161248,4551,3335,16257,-6862460,2241875,1861917,0,0,0,255,445,240,347,383,393,330,306,278,162,199,199,0,,,,,
1,1775672161264,-2144,162,9844,448375,-81855,119729,0,0,0,353,379,272,413,312,441,522,303,388,341,283,432,0,,,,,
2,1775672161264,4876,2986,19707,-7127575,2365270,2003637,0,0,0,254,444,241,347,383,395,332,305,278,169,206,201,0,,,,,
1,1775672161280,-2297,86,9834,488692,-141720,152716,0,0,0,355,382,274,418,313,459,516,286,389,327,260,453,0,,,,,
2,1775672161280,5187,2737,23517,-7359704,2420248,2067167,0,0,0,254,444,241,349,385,398,336,309,279,157,184,201,0,,,,,
1,1775672161296,-2512,62,9849,527787,-173485,210137,0,0,0,361,393,280,430,300,462,513,275,402,314,248,479,0,,,,,
2,1775672161296,6140,2096,29040,-7616267,2452013,2216219,0,0,0,257,445,242,352,387,400,341,312,282,139,152,201,0,,,,,
1,1775672161312,-2670,43,9959,590095,-179594,284663,0,0,0,361,397,269,416,312,459,497,252,399,300,223,495,0,,,,,
2,1775672161312,7580,-842,34419,-7861835,2604729,2546086,0,0,0,260,447,244,356,387,404,347,311,288,130,133,202,0,,,,,
1,1775672161328,-2569,-28,10189,687834,-161268,354301,0,0,0,377,403,269,432,341,467,493,249,419,296,213,518,0,,,,,
2,1775672161328,7159,-8920,36879,-7893600,3248581,2954144,0,0,0,261,446,242,362,388,410,354,310,297,126,122,202,0,,,,,
1,1775672161344,-2469,-172,10614,831998,-160046,398284,0,0,0,415,402,260,452,324,493,481,225,421,287,187,541,0,,,,,
2,1775672161344,2833,-23268,37989,-7132462,3554013,3076317,0,0,0,261,444,240,365,392,413,357,310,302,125,119,204,0,,,,,
1,1775672161360,-2469,-277,11122,1009149,-184481,434936,0,0,0,415,419,256,462,353,497,471,212,426,292,185,557,0,,,,,
2,1775672161360,780,-40234,32682,-5555208,2300518,2511877,0,0,0,263,443,240,364,392,413,362,313,306,125,117,207,0,,,,,
1,1775672161376,-2306,-306,11605,1240056,-217468,445931,0,0,0,408,417,241,474,349,504,450,210,430,275,176,564,0,,,,,
2,1775672161376,483,-52308,20870,-3290120,1274264,294437,0,0,0,264,446,241,367,393,415,364,321,303,127,124,207,0,,,,,
1,1775672161392,-2258,-354,12127,1521054,-244346,428827,0,0,0,417,414,241,476,354,524,410,198,431,265,163,574,0,,,,,
2,1775672161392,-7346,-55295,15386,-1059240,1205847,-2484999,0,0,0,244,435,230,363,393,413,377,370,298,128,147,201,0,,,,,
1,1775672161408,-2187,-464,12557,1872912,-261450,406836,0,0,0,422,426,229,467,373,534,367,193,432,262,164,573,0,,,,,
2,1775672161408,-16381,-45694,20794,564439,177150,-3378084,0,0,0,246,411,212,359,374,392,425,474,278,144,200,186,0,,,,,
1,1775672161424,-2177,-588,12950,2258979,-280998,386066,0,0,0,421,446,216,471,388,535,316,182,437,242,158,581,0,,,,,
2,1775672161424,-8801,-9681,23680,2588846,-3402519,-1659109,0,0,0,250,364,179,345,347,377,480,482,275,174,262,179,0,,,,,
1,1775672161440,-3015,-674,13634,2775771,-277332,410501,0,0,0,431,447,211,457,392,532,252,173,443,224,147,584,0,,,,,
2,1775672161440,5206,15424,14582,3929085,-5516113,497244,0,0,0,258,368,186,349,341,388,496,497,289,188,293,181,0,,,,,
1,1775672161456,-4431,-636,14663,3389080,-180816,603534,0,0,0,438,431,214,447,391,526,206,164,446,220,140,573,0,,,,,
2,1775672161456,5762,10026,9451,5120272,-4365242,1816713,0,0,0,267,376,189,364,343,401,513,513,299,201,318,191,0,,,,,
1,1775672161472,-5991,-483,16243,4203974,-25656,988379,0,0,0,442,412,221,448,379,520,195,146,439,206,126,552,0,,,,,
2,1775672161472,-8102,-3139,21067,5767789,-1247386,1280373,0,0,0,266,387,211,373,348,413,530,529,311,240,347,199,0,,,,,
1,1775672161488,-6805,-593,19305,5023755,39095,1442863,0,0,0,448,395,223,425,355,506,191,132,424,180,104,506,0,,,,,
2,1775672161488,-9045,-2617,26800,4934569,-23212,-257785,0,0,0,273,403,244,383,357,427,536,535,321,229,331,213,0,,,,,
1,1775672161504,-8322,-751,23742,5971818,90408,1869247,0,0,0,410,385,211,405,340,476,191,131,399,167,99,429,0,,,,,
2,1775672161504,1182,1009,19808,3040887,-24434,-695164,0,0,0,288,428,278,395,372,438,546,547,326,224,315,237,0,,,,,
1,1775672161520,-10337,-239,27628,6944316,301767,2335948,0,0,0,360,365,203,371,308,441,183,141,367,157,103,345,0,,,,,
2,1775672161520,4426,1282,12242,1577254,-63529,-101403,0,0,0,305,451,303,412,391,451,559,559,335,231,310,263,0,,,,,
1,1775672161536,-10705,626,30686,7776314,659734,2816088,0,0,0,309,348,205,369,265,387,229,172,335,152,113,278,0,,,,,
2,1775672161536,1871,110,9480,778242,-83077,338419,0,0,0,327,467,319,426,403,461,566,566,341,238,307,287,0,,,,,
1,1775672161552,-10265,2861,31332,8334645,1006705,3150842,0,0,0,240,302,205,292,234,316,266,236,275,131,174,142,0,,,,,
2,1775672161552,492,220,10361,409279,-199142,188146,0,0,0,350,476,328,432,406,464,571,571,339,244,303,305,0,,,,,
1,1775672161568,-12136,6762,26896,8761029,1137431,3385415,0,0,0,268,286,215,259,191,287,298,251,282,147,203,127,0,,,,,
2,1775672161568,760,1038,10677,211359,-329867,10995,0,0,0,367,484,334,433,407,466,574,574,334,248,303,314,0,,,,,
1,1775672161584,-14070,11361,17898,8583878,983493,3703065,0,0,0,266,291,221,258,190,290,304,259,283,155,218,130,0,,,,,
2,1775672161584,966,1464,10361,150272,-305432,0,0,0,0,378,491,339,433,410,466,574,574,333,252,303,321,0,,,,,
1,1775672161600,-11787,14788,11945,6365215,342084,3610213,0,0,0,255,297,224,258,199,296,306,264,283,155,219,130,0,,,,,
2,1775672161600,914,1521,10227,167377,-238237,13439,0,0,0,383,495,343,434,414,466,574,574,338,251,293,328,0,,,,,
1,1775672161616,-5733,18497,10390,1770287,-9773,2057394,0,0,0,249,302,226,258,205,300,306,264,280,156,220,130,0,,,,,
2,1775672161616,703,1483,10289,232128,-183259,3665,0,0,0,389,499,343,434,415,466,571,569,336,252,285,336,0,,,,,
1,1775672161632,-2096,17362,10839,-2714685,882089,-548556,0,0,0,244,305,228,257,205,300,309,267,279,156,221,129,0,,,,,
2,1775672161632,579,1603,10346,310319,-91629,-14660,0,0,0,396,498,344,443,415,473,575,566,337,248,271,344,0,,,,,
1,1775672161648,-5671,11031,8001,-4368908,1802052,-1942551,0,0,0,236,307,229,255,206,302,311,271,280,154,223,128,0,,,,,
2,1775672161648,641,1651,10284,403171,24434,-19547,0,0,0,400,499,340,442,415,473,575,555,345,254,256,368,0,,,,,
1,1775672161664,-9633,6063,4436,-4489859,1287703,-1765400,0,0,0,228,307,234,253,207,306,309,269,282,153,224,130,0,,,,,
2,1775672161664,823,1502,10107,487470,96516,-10995,0,0,0,412,505,354,442,416,479,568,532,345,248,239,378,0,,,,,
1,1775672161680,-9045,4642,3220,-4252843,-320093,-652404,0,0,0,226,309,242,251,207,309,308,268,285,154,225,131,0,,,,,
2,1775672161680,899,1263,9949,513126,79412,-4886,0,0,0,418,508,344,450,422,483,565,524,355,250,226,389,0,,,,,
1,1775672161696,-5317,5077,5058,-4558276,-970053,-21991,0,0,0,226,309,245,249,207,309,311,271,288,159,227,134,0,,,,,
2,1775672161696,918,1095,9858,498466,45204,-8552,0,0,0,425,512,342,451,423,485,568,504,353,243,207,394,0,,,,,
1,1775672161712,-3402,5288,7068,-5068959,-855211,90408,0,0,0,226,312,247,252,208,313,312,274,291,159,227,137,0,,,,,
2,1775672161712,957,1052,9882,466701,15882,-19547,0,0,0,429,515,342,455,428,490,568,489,356,244,203,401,0,,,,,
1,1775672161728,-3685,4905,8676,-5630955,-763581,-136833,0,0,0,224,312,248,251,205,314,305,268,290,160,227,138,0,,,,,
2,1775672161728,1052,1052,9940,447153,-31764,-39095,0,0,0,437,519,342,461,432,494,563,472,357,240,193,411,0,,,,,
1,1775672161744,-4020,4254,10256,-6102543,-1080009,-439822,0,0,0,223,312,248,251,207,312,308,272,290,160,225,135,0,,,,,
2,1775672161744,1024,995,9959,450818,-87964,-58643,0,0,0,445,525,342,466,440,501,555,449,356,236,181,422,0,,,,,
1,1775672161760,-3608,3651,11978,-6423858,-1538158,-761138,0,0,0,225,313,246,254,207,314,310,271,290,161,228,134,0,,,,,
2,1775672161760,918,909,9959,456927,-123394,-68416,0,0,0,454,531,344,469,445,507,552,432,360,236,174,435,0,,,,,
1,1775672161776,-3393,2991,13979,-6660874,-1770287,-1110553,0,0,0,230,316,246,253,208,309,319,275,289,158,226,127,0,,,,,
2,1775672161776,813,823,9973,466701,-117286,-72082,0,0,0,464,537,348,471,450,511,551,414,367,241,171,452,0,,,,,
1,1775672161792,-3704,2378,16042,-6802595,-1930334,-1373225,0,0,0,227,314,242,252,209,308,309,270,286,161,229,131,0,,,,,
2,1775672161792,842,732,10026,482583,-76969,-80634,0,0,0,471,539,348,475,459,512,550,391,376,250,173,470,0,,,,,
1,1775672161808,-4355,1880,18923,-6943094,-2106263,-1525941,0,0,0,225,315,242,250,208,306,311,272,286,163,230,130,0,,,,,
2,1775672161808,1014,655,10098,507018,-28099,-107512,0,0,0,479,540,342,477,464,512,549,366,384,256,171,484,0,,,,,
1,1775672161824,-5096,1095,22560,-7175223,-2241875,-1620014,0,0,0,225,316,244,251,209,307,315,276,289,163,228,128,0,,,,,
2,1775672161824,1206,631,10179,542448,-13439,-149051,0,0,0,490,544,343,485,473,518,530,330,384,260,171,504,0,,,,,
1,1775672161840,-5809,-378,26441,-7345043,-2254092,-1758070,0,0,0,224,317,244,251,209,306,314,273,288,163,225,127,0,,,,,
2,1775672161840,1201,593,10303,614530,-58643,-206472,0,0,0,495,549,343,490,483,525,521,300,388,265,172,524,0,,,,,
1,1775672161856,-6484,-2435,30117,-7272961,-2183232,-2109928,0,0,0,223,315,243,254,211,307,313,270,286,163,223,125,0,,,,,
2,1775672161856,995,536,10447,709825,-107512,-243124,0,0,0,505,554,344,495,489,529,511,274,383,271,177,545,0,,,,,
1,1775672161872,-7322,-6087,33266,-7009067,-2261423,-2819753,0,0,0,223,315,241,258,214,311,313,269,287,161,221,123,0,,,,,
2,1775672161872,866,425,10667,838107,-118507,-251676,0,0,0,510,560,342,500,501,539,494,255,388,278,180,568,0,,,,,
1,1775672161888,-7776,-13883,35060,-6743952,-2780658,-3582113,0,0,0,225,317,241,259,214,314,316,270,293,160,220,123,0,,,,,
2,1775672161888,1019,291,11036,993266,-84299,-257785,0,0,0,510,562,338,507,507,539,476,238,395,280,180,574,0,,,,,
1,1775672161904,-6590,-26642,32754,-6355441,-3040887,-3750712,0,0,0,226,317,242,262,214,317,320,270,301,165,220,124,0,,,,,
2,1775672161904,1100,248,11663,1204626,-53756,-278554,0,0,0,522,572,332,517,517,549,448,227,400,271,177,580,0,,,,,
1,1775672161920,-3086,-41976,24613,-5419596,-2748893,-2692693,0,0,0,226,319,242,263,215,321,321,271,304,169,224,123,0,,,,,
2,1775672161920,957,272,12409,1530828,-45204,-290771,0,0,0,520,572,305,524,529,554,418,225,400,274,179,591,0,,,,,
1,1775672161936,8097,-54266,16463,-3324328,-2357939,-164933,0,0,0,228,319,242,264,211,319,328,277,302,169,228,123,0,,,,,
2,1775672161936,703,224,13017,1940107,-41538,-280998,0,0,0,518,572,281,522,536,560,380,220,398,273,181,599,0,,,,,
1,1775672161952,19578,-55089,14462,-988379,-934623,1836260,0,0,0,226,315,237,262,213,311,323,276,292,174,237,125,0,,,,,
2,1775672161952,603,114,13601,2417804,-42760,-238237,0,0,0,521,575,262,519,543,560,336,217,396,270,187,606,0,,,,,
1,1775672161968,14448,-44752,16176,895528,1373225,1997529,0,0,0,226,290,237,263,205,309,339,325,295,203,299,114,0,,,,,
2,1775672161968,1742,62,14606,2962696,-105068,-252898,0,0,0,528,579,250,511,546,557,297,209,390,267,185,610,0,,,,,
1,1775672161984,952,-21947,19162,2519208,2961474,1534493,0,0,0,234,269,184,275,181,261,436,405,253,275,377,90,0,,,,,
2,1775672161984,3015,52,15898,3611435,-265115,-412944,0,0,0,531,577,246,503,546,554,275,201,386,269,186,608,0,,,,,
1,1775672162000,-10461,15046,16726,3406184,3754377,410501,0,0,0,240,266,158,276,176,255,463,457,261,312,409,89,0,,,,,
2,1775672162000,3354,224,17248,4343251,-485026,-659734,0,0,0,531,565,245,497,539,551,264,185,389,265,182,592,0,,,,,
1,1775672162016,-8504,20330,10361,4576602,3819129,-786794,0,0,0,237,259,140,286,176,260,470,470,270,361,426,88,0,,,,,
2,1775672162016,4048,339,19224,5293758,-678060,-954171,0,0,0,526,551,249,494,527,550,263,168,393,252,164,550,0,,,,,
1,1775672162032,3431,-794,15721,6287025,2130697,-1106887,0,0,0,237,258,171,293,172,280,488,488,284,400,437,86,0,,,,,
2,1775672162032,4915,57,22689,6260146,-812450,-1271821,0,0,0,505,537,251,487,514,537,267,165,387,236,149,489,0,,,,,
1,1775672162048,6235,-6671,27073,5616295,219911,72082,0,0,0,255,275,203,318,184,303,507,507,304,421,449,101,0,,,,,
2,1775672162048,5920,205,28121,7294952,-778242,-1572367,0,0,0,448,514,238,466,488,505,270,166,369,212,136,425,0,,,,,
1,1775672162064,-1545,-2670,24934,3248581,-140499,814894,0,0,0,268,288,231,344,203,338,519,520,320,438,465,154,0,,,,,
2,1775672162064,6700,1617,31739,8178263,-530231,-1830152,0,0,0,370,487,223,426,454,470,285,182,340,184,127,366,0,,,,,
1,1775672162080,-6034,349,14993,1192408,81855,295658,0,0,0,287,301,258,356,210,371,531,529,333,449,480,215,0,,,,,
2,1775672162080,7738,3732,33318,9033475,-94073,-2155132,0,0,0,312,452,222,370,406,424,302,239,300,144,111,292,0,,,,,
1,1775672162096,-3043,272,9451,608421,12217,-230907,0,0,0,318,315,266,366,213,384,544,530,345,451,482,256,0,,,,,
2,1775672162096,9638,5321,31241,9626014,662177,-2714685,0,0,0,278,427,240,337,364,389,325,286,285,106,98,192,0,,,,,
1,1775672162112,-1387,38,9155,496022,-127059,-210137,0,0,0,329,316,263,380,224,394,553,517,352,458,477,292,0,,,,,
2,1775672162112,10681,9724,23029,9453750,860098,-3485597,0,0,0,281,437,244,342,375,399,327,306,294,114,114,205,0,,,,,
1,1775672162128,-2359,488,10270,419053,-53756,1221,0,0,0,335,332,272,383,236,400,555,499,354,451,469,314,0,,,,,
2,1775672162128,8451,15017,14237,7506312,-37873,-4030488,0,0,0,269,441,239,343,381,397,324,309,284,111,112,203,0,,,,,
1,1775672162144,-2818,909,10198,339641,109955,61086,0,0,0,341,343,265,387,259,401,564,487,352,450,455,324,0,,,,,
2,1775672162144,3656,20870,10653,2157576,-1418429,-2744006,0,0,0,270,444,240,341,379,390,324,306,274,114,112,201,0,,,,,
1,1775672162160,-2325,799,9810,344527,114842,35430,0,0,0,341,347,275,390,274,409,565,471,369,453,450,350,0,,,,,
2,1775672162160,2421,19645,10772,-3026226,-2318844,-400727,0,0,0,269,443,237,344,380,390,327,306,269,116,112,201,0,,,,,
1,1775672162176,-2115,622,9308,316428,79412,39095,0,0,0,344,366,273,393,283,411,558,454,374,443,435,363,0,,,,,
2,1775672162176,6211,10748,8231,-5265658,-2477669,1183856,0,0,0,268,445,240,347,383,393,328,308,271,117,115,201,0,,,,,
1,1775672162192,-2177,722,9547,334754,7330,65973,0,0,0,336,372,266,393,299,417,548,433,374,424,424,370,0,,,,,
2,1775672162192,9499,4474,3991,-5100724,-1660331,1094670,0,0,0,263,444,240,347,385,394,327,309,270,117,117,201,0,,,,,
1,1775672162208,-2124,871,10136,454483,-108734,76969,0,0,0,336,370,261,397,288,414,547,422,374,400,407,375,0,,,,,
2,1775672162208,8580,3445,2675,-4423886,-199142,139277,0,0,0,261,444,242,347,385,395,328,312,271,117,118,202,0,,,,,
1,1775672162224,-2100,794,10131,530231,-201585,78190,0,0,0,337,374,261,393,289,420,543,401,384,379,365,388,0,,,,,
2,1775672162224,5886,4517,4359,-4449542,561996,-360410,0,0,0,262,447,245,349,388,396,330,315,273,115,119,200,0,,,,,
1,1775672162240,-2191,588,9729,520457,-221133,75747,0,0,0,334,374,270,394,289,431,538,381,387,374,334,401,0,,,,,
2,1775672162240,4474,5431,6661,-5056742,526565,-223576,0,0,0,262,449,246,350,389,397,330,315,273,114,118,199,0,,,,,
1,1775672162256,-2349,421,9466,481361,-169820,84299,0,0,0,338,376,259,407,289,427,530,357,385,372,318,406,0,,,,,
2,1775672162256,5728,4804,7566,-5582086,664621,173485,0,0,0,263,448,246,348,387,396,329,313,272,116,117,198,0,,,,,
1,1775672162272,-2402,354,9456,464257,-114842,100181,0,0,0,343,381,257,416,297,424,526,341,390,365,310,410,0,,,,,
2,1775672162272,6527,3929,8758,-5957157,1336573,593761,0,0,0,262,447,245,349,389,397,331,316,276,114,117,195,0,,,,,
1,1775672162288,-2325,296,9480,443488,-57421,112399,0,0,0,346,383,258,419,304,426,525,328,392,353,304,417,0,,,,,
2,1775672162288,5427,3809,10696,-6202725,1979203,955393,0,0,0,259,446,243,348,390,396,331,317,276,113,117,196,0,,,,,
1,1775672162304,-2230,272,9533,411723,-12217,116064,0,0,0,349,381,256,418,305,432,524,316,393,342,295,426,0,,,,,
2,1775672162304,4508,3833,12998,-6570466,2174680,1386664,0,0,0,263,447,244,351,391,396,333,320,276,115,116,198,0,,,,,
1,1775672162320,-2211,253,9676,392175,0,122173,0,0,0,352,382,258,416,316,443,521,303,401,337,283,438,0,,,,,
2,1775672162320,4666,3369,15166,-6907664,2294409,1720196,0,0,0,259,446,243,344,399,396,338,321,282,115,119,201,0,,,,,
1,1775672162336,-2268,177,9820,408057,-34208,145385,0,0,0,353,389,260,413,326,452,515,285,403,329,266,451,0,,,,,
2,1775672162336,4972,2747,17645,-7084815,2508212,1808161,0,0,0,258,445,243,352,390,400,338,318,282,118,119,201,0,,,,,
1,1775672162352,-2431,124,9873,447153,-89186,194255,0,0,0,363,376,268,422,289,456,513,268,404,323,243,464,0,,,,,
2,1775672162352,4522,2531,21421,-7241196,2706133,1725083,0,0,0,259,446,243,351,388,400,337,318,283,116,119,202,0,,,,,
1,1775672162368,-2507,95,9940,508239,-117286,261450,0,0,0,360,380,259,422,297,461,505,260,402,327,235,482,0,,,,,
2,1775672162368,4192,2479,25618,-7491651,2763554,1659109,0,0,0,257,446,244,343,401,397,340,319,283,117,119,204,0,,,,,
1,1775672162384,-2498,28,10054,598647,-111177,318871,0,0,0,363,391,259,425,310,470,494,256,408,307,212,504,0,,,,,
2,1775672162384,4402,1938,30969,-7766540,2747671,1744631,0,0,0,260,447,245,353,397,403,342,317,286,118,118,203,0,,,,,
1,1775672162400,-2464,-62,10193,702495,-119729,367740,0,0,0,371,395,260,431,319,495,491,229,417,293,192,518,0,,,,,
2,1775672162400,4096,-416,35281,-7896044,2853962,2078163,0,0,0,262,449,245,357,389,405,347,314,292,117,114,202,0,,,,,
1,1775672162416,-2311,-172,10504,818559,-160046,409279,0,0,0,391,403,266,445,312,498,477,219,425,297,189,549,0,,,,,
2,1775672162416,2230,-8753,38387,-7674910,3273015,2724458,0,0,0,265,448,245,359,387,408,353,308,297,120,114,202,0,,,,,
1,1775672162432,-2196,-282,10973,972497,-224798,426383,0,0,0,402,403,254,473,321,508,468,205,435,291,168,553,0,,,,,
2,1775672162432,995,-23804,39076,-6956533,2998126,3112969,0,0,0,268,447,244,365,389,412,358,307,302,125,118,202,0,,,,,
1,1775672162448,-2316,-368,11246,1163087,-266337,430049,0,0,0,398,412,236,471,333,512,440,199,444,281,169,561,0,,,,,
2,1775672162448,4053,-42952,30466,-5512447,1521054,2224771,0,0,0,268,447,243,367,392,413,361,310,306,127,120,204,0,,,,,
1,1775672162464,-2416,-449,11562,1390329,-274889,432492,0,0,0,407,422,231,478,349,517,415,193,445,273,166,571,0,,,,,
2,1775672162464,1038,-54998,18516,-3237585,1611462,-430049,0,0,0,269,448,244,364,391,412,362,316,306,126,121,206,0,,,,,
1,1775672162480,-2330,-516,12088,1699427,-250454,425162,0,0,0,420,439,218,479,382,518,381,194,457,272,179,570,0,,,,,
2,1775672162480,-11887,-56223,16176,-995710,1970651,-2486221,0,0,0,264,444,239,360,389,408,369,354,298,129,140,203,0,,,,,
1,1775672162496,-2081,-593,12543,2063502,-249233,404392,0,0,0,424,443,207,482,389,523,345,185,460,273,174,574,0,,,,,
2,1775672162496,-20698,-45403,21741,1080009,291993,-2539977,0,0,0,245,423,219,356,382,397,417,463,286,145,199,188,0,,,,,
1,1775672162512,-2096,-727,13036,2491108,-291993,367740,0,0,0,425,438,204,488,381,538,292,169,457,260,153,581,0,,,,,
2,1775672162512,-5905,-7279,23900,2840523,-3334102,-619417,0,0,0,245,374,175,349,354,379,475,480,273,168,251,180,0,,,,,
1,1775672162528,-3455,-799,13907,3054326,-304210,433714,0,0,0,429,447,204,485,395,548,223,161,461,235,147,575,0,,,,,
2,1775672162528,7465,19693,14591,3736051,-5376835,952949,0,0,0,259,369,186,345,341,387,492,492,288,187,297,179,0,,,,,
1,1775672162544,-4886,-770,15065,3732386,-232128,671951,0,0,0,436,446,218,493,386,541,204,149,444,229,130,566,0,,,,,
2,1775672162544,4546,12117,8298,4783074,-4806287,1604132,0,0,0,262,376,189,362,347,402,514,515,304,291,416,179,0,,,,,
1,1775672162560,-6010,-751,16932,4487416,-162490,1064127,0,0,0,456,418,228,478,381,525,208,139,445,216,121,536,0,,,,,
2,1775672162560,-8030,-3244,19095,5715255,-1904677,1017701,0,0,0,268,391,217,378,355,418,523,523,312,227,341,203,0,,,,,
1,1775672162576,-7193,-1005,20129,5329188,-177150,1507615,0,0,0,436,400,226,433,357,512,195,124,432,175,94,481,0,,,,,
2,1775672162576,-8341,-3249,27044,5109276,-84299,-327423,0,0,0,276,409,249,382,362,425,538,538,321,221,331,214,0,,,,,
1,1775672162592,-9160,-1043,24527,6312681,-136833,1973094,0,0,0,403,393,208,406,345,485,184,124,397,160,101,400,0,,,,,
2,1775672162592,1684,823,21330,3216816,1221,-647517,0,0,0,289,434,285,393,373,434,550,550,333,230,323,240,0,,,,,
1,1775672162608,-10638,-837,28973,7276626,139277,2492330,0,0,0,344,363,200,367,313,434,188,138,361,153,103,317,0,,,,,
2,1775672162608,4536,1335,13481,1628566,-160046,-85521,0,0,0,307,459,312,408,390,446,562,562,330,236,314,263,0,,,,,
1,1775672162624,-10385,86,32361,8013330,574213,2939483,0,0,0,271,339,208,313,273,386,204,175,327,122,112,249,0,,,,,
2,1775672162624,1627,335,10031,800233,-194255,278554,0,0,0,334,469,345,419,398,455,573,573,324,242,309,283,0,,,,,
1,1775672162640,-11189,3225,31686,8524013,800233,3213151,0,0,0,223,305,200,252,209,291,264,231,281,125,171,135,0,,,,,
2,1775672162640,478,215,10069,447153,-205250,204028,0,0,0,357,478,351,424,401,457,574,575,320,247,307,296,0,,,,,
1,1775672162656,-13227,8413,26087,8921075,520457,3521027,0,0,0,238,296,209,248,199,289,291,252,286,142,208,123,0,,,,,
2,1775672162656,1038,914,10629,249233,-302989,26878,0,0,0,370,486,346,428,405,457,575,576,321,251,309,304,0,,,,,
1,1775672162672,-13271,13184,16501,8398175,-2443,3954741,0,0,0,239,301,219,248,201,297,291,258,287,148,219,130,0,,,,,
2,1775672162672,1162,1383,10404,119729,-307876,9773,0,0,0,377,489,352,431,408,460,579,580,325,255,310,311,0,,,,,
1,1775672162688,-8638,16061,11418,5236336,-90408,3726277,0,0,0,230,306,223,246,204,299,291,265,284,147,221,131,0,,,,,
2,1775672162688,1033,1531,10222,90408,-234572,20769,0,0,0,382,493,359,432,410,462,582,581,329,253,303,315,0,,,,,
1,1775672162704,-3469,18181,11016,263893,499687,1897347,0,0,0,229,309,224,248,206,300,295,266,281,149,221,131,0,,,,,
2,1775672162704,904,1579,10294,163711,-160046,2443,0,0,0,388,498,361,430,410,461,568,571,341,244,289,319,0,,,,,
1,1775672162720,-3168,14520,10485,-3717725,1610240,-643851,0,0,0,232,311,226,252,206,302,303,266,281,153,220,133,0,,,,,
2,1775672162720,765,1655,10332,283441,-64751,-29321,0,0,0,394,498,357,432,410,463,520,529,357,238,270,322,0,,,,,
1,1775672162736,-6164,9102,7724,-5093394,2002416,-1736079,0,0,0,228,311,225,253,209,304,307,269,282,154,221,134,0,,,,,
2,1775672162736,760,1675,10208,386066,50090,-37873,0,0,0,394,498,354,437,412,467,578,564,337,241,263,334,0,,,,,
1,1775672162752,-8820,5226,4804,-5007873,1231504,-1413542,0,0,0,223,313,229,251,210,306,300,267,281,155,226,135,0,,,,,
2,1775672162752,942,1560,10011,472809,129503,-25656,0,0,0,403,503,355,442,418,473,572,550,334,240,249,341,0,,,,,
1,1775672162768,-7537,4441,4714,-4861265,79412,-654847,0,0,0,222,313,238,250,207,309,303,270,287,154,227,138,0,,,,,
2,1775672162768,1095,1368,9882,514348,129503,-17104,0,0,0,403,503,348,443,423,473,572,528,367,236,233,341,0,,,,,
1,1775672162784,-5441,4546,5977,-5027420,-320093,-328645,0,0,0,222,313,238,248,209,309,303,269,285,157,231,137,0,,,,,
2,1775672162784,1139,1172,9796,499687,84299,-23212,0,0,0,408,505,347,455,426,474,565,517,346,246,229,371,0,,,,,
1,1775672162800,-4551,4675,7542,-5459913,-239459,-393397,0,0,0,222,314,238,250,209,309,304,269,284,151,224,132,0,,,,,
2,1775672162800,1162,1105,9767,445931,40317,-32986,0,0,0,418,511,350,452,422,477,563,496,345,243,214,384,0,,,,,
1,1775672162816,-5092,4388,9112,-6052452,-405614,-647517,0,0,0,222,313,238,250,209,310,310,270,285,150,225,131,0,,,,,
2,1775672162816,1249,1119,9815,417831,0,-42760,0,0,0,430,518,354,459,433,487,560,481,346,240,202,393,0,,,,,
1,1775672162832,-5216,3814,10739,-6555805,-866206,-900415,0,0,0,216,313,240,246,211,311,318,276,291,147,226,133,0,,,,,
2,1775672162832,1306,1115,9916,425162,-65973,-57421,0,0,0,440,524,357,462,439,494,558,464,349,240,193,403,0,,,,,
1,1775672162848,-4757,2895,12457,-6873455,-1231504,-1163087,0,0,0,218,316,244,250,215,316,310,273,290,154,228,135,0,,,,,
2,1775672162848,1234,1052,9973,445931,-125838,-72082,0,0,0,446,528,357,466,441,498,554,445,354,235,182,415,0,,,,,
1,1775672162864,-4838,1856,14237,-7026171,-1451415,-1402546,0,0,0,219,318,246,250,214,318,306,272,289,155,230,132,0,,,,,
2,1775672162864,1038,928,9944,466701,-140499,-79412,0,0,0,458,534,361,470,445,501,551,424,360,238,174,435,0,,,,,
1,1775672162880,-5436,1134,16625,-7018841,-1698205,-1518610,0,0,0,221,320,249,249,213,316,306,273,289,153,230,129,0,,,,,
2,1775672162880,1000,827,9964,492357,-92851,-81855,0,0,0,470,540,366,473,454,507,548,400,367,242,169,455,0,,,,,
1,1775672162896,-5800,770,19908,-7061602,-1962099,-1549154,0,0,0,221,317,250,249,211,316,305,272,287,153,229,129,0,,,,,
2,1775672162896,1134,784,10088,532674,-40317,-95294,0,0,0,477,541,362,476,466,517,545,374,372,243,168,469,0,,,,,
1,1775672162912,-6039,296,23651,-7241196,-2089159,-1607797,0,0,0,221,317,245,250,211,313,306,272,286,154,228,127,0,,,,,
2,1775672162912,1320,751,10232,592539,-7330,-125838,0,0,0,489,543,360,479,471,519,537,344,378,254,169,491,0,,,,,
1,1775672162928,-7035,-1277,27575,-7436673,-2037846,-1854586,0,0,0,222,320,242,252,212,310,309,272,284,156,227,125,0,,,,,
2,1775672162928,1407,670,10346,684169,0,-175929,0,0,0,502,550,370,483,478,522,526,307,378,262,169,513,0,,,,,
1,1775672162944,-8595,-4024,30634,-7420790,-2018298,-2267531,0,0,0,223,320,242,254,214,312,309,271,283,158,225,126,0,,,,,
2,1775672162944,1363,579,10543,796568,0,-229685,0,0,0,500,552,362,493,484,531,517,280,387,272,173,543,0,,,,,
1,1775672162960,-9916,-10236,32945,-7081149,-2538755,-2911383,0,0,0,222,319,238,256,214,314,311,269,286,158,222,124,0,,,,,
2,1775672162960,1234,459,10792,946841,-10995,-261450,0,0,0,500,560,346,502,494,539,505,257,397,269,171,554,0,,,,,
1,1775672162976,-9212,-19416,33687,-6576575,-3309667,-3265685,0,0,0,225,318,237,257,212,315,317,266,291,158,222,121,0,,,,,
2,1775672162976,1239,325,11107,1110553,-12217,-268780,0,0,0,512,567,345,508,507,543,481,236,397,277,180,570,0,,,,,
1,1775672162992,-6341,-30868,30016,-5838649,-3448945,-2921157,0,0,0,225,317,240,260,212,320,320,265,298,162,226,127,0,,,,,
2,1775672162992,1363,239,11758,1329242,-10995,-273667,0,0,0,517,568,325,513,516,544,449,229,402,276,173,584,0,,,,,
1,1775672163008,-617,-41923,21244,-4416555,-3165503,-1607797,0,0,0,222,314,243,260,213,322,317,265,300,168,227,129,0,,,,,
2,1775672163008,1383,287,12601,1666440,-21991,-288328,0,0,0,517,568,305,520,524,553,423,226,405,281,180,596,0,,,,,
1,1775672163024,7805,-48532,15587,-2695137,-2717128,-72082,0,0,0,224,318,244,262,215,325,318,268,301,168,232,132,0,,,,,
2,1775672163024,1119,315,13232,2076941,-52534,-293215,0,0,0,525,571,278,518,539,557,386,225,413,278,183,604,0,,,,,
1,1775672163040,14874,-49461,15056,-689055,-930958,1044579,0,0,0,226,305,234,268,211,314,330,280,292,187,271,120,0,,,,,
2,1775672163040,1052,248,13768,2548529,-101403,-265115,0,0,0,527,577,265,517,542,560,341,218,407,272,181,612,0,,,,,
1,1775672163056,12888,-40741,17597,1199739,1275486,1276708,0,0,0,222,289,194,264,197,280,401,373,272,246,344,94,0,,,,,
2,1775672163056,2172,95,14615,3131295,-189368,-300545,0,0,0,525,577,254,503,540,555,297,212,394,274,185,615,0,,,,,
1,1775672163072,875,-8461,20382,3199712,3566231,748920,0,0,0,235,266,170,263,179,261,447,442,258,287,394,88,0,,,,,
2,1775672163072,3010,47,15659,3744603,-348193,-449596,0,0,0,526,568,243,495,541,550,273,198,391,269,183,610,0,,,,,
1,1775672163088,-6216,15788,13960,4375016,4675562,-19547,0,0,0,241,258,155,277,175,258,467,467,264,329,415,82,0,,,,,
2,1775672163088,3441,234,16908,4511850,-566882,-681725,0,0,0,536,564,248,491,541,544,265,179,393,260,176,594,0,,,,,
1,1775672163104,-1770,9332,12409,5645616,3793473,-370184,0,0,0,245,258,154,286,174,273,481,481,275,379,429,87,0,,,,,
2,1775672163104,4230,378,18880,5413487,-726929,-981049,0,0,0,534,551,256,489,530,538,264,165,394,249,164,552,0,,,,,
1,1775672163120,4259,-2435,21359,5985257,1397659,83077,0,0,0,249,262,170,295,173,290,491,491,286,408,438,96,0,,,,,
2,1775672163120,4446,205,23254,6415306,-755029,-1295034,0,0,0,500,526,246,487,509,531,267,163,387,232,149,482,0,,,,,
1,1775672163136,2057,-4034,26087,4784296,-162490,851546,0,0,0,259,277,203,308,182,314,498,498,299,414,444,111,0,,,,,
2,1775672163136,4910,296,28327,7439116,-616973,-1502728,0,0,0,434,505,229,463,482,505,275,169,367,210,137,413,0,,,,,
1,1775672163152,-5250,-358,19554,2576629,-145385,756251,0,0,0,270,294,240,324,200,349,508,508,320,426,454,152,0,,,,,
2,1775672163152,6298,928,31466,8306545,-166155,-1666440,0,0,0,358,476,216,425,444,467,291,188,337,180,122,350,0,,,,,
1,1775672163168,-4637,196,11643,1203404,117286,-64751,0,0,0,283,303,261,352,215,373,522,522,342,442,469,201,0,,,,,
2,1775672163168,7686,2536,32533,9001710,554665,-2010968,0,0,0,291,446,223,366,398,418,306,253,301,131,106,263,0,,,,,
1,1775672163184,-2091,-143,8758,541226,175929,-344527,0,0,0,315,314,260,381,213,377,539,538,334,461,483,223,0,,,,,
2,1775672163184,9384,4474,30131,9439089,1420872,-2580294,0,0,0,263,434,239,339,377,395,321,290,289,106,103,201,0,,,,,
1,1775672163200,-1722,95,9987,262672,172263,-128281,0,0,0,317,321,267,364,214,374,541,538,341,471,489,253,0,,,,,
2,1775672163200,9504,8781,21282,9034696,1600466,-3433062,0,0,0,269,445,246,343,385,406,321,306,303,117,117,210,0,,,,,
1,1775672163216,-2220,717,10614,64751,183259,12217,0,0,0,330,327,270,373,226,373,544,538,335,465,491,244,0,,,,,
2,1775672163216,5293,13323,14434,6311459,-164933,-3718947,0,0,0,265,446,240,348,389,404,320,307,281,111,113,201,0,,,,,
1,1775672163232,-2349,1143,10236,12217,140499,4886,0,0,0,331,327,270,373,222,377,550,538,339,463,491,259,0,,,,,
2,1775672163232,2928,17161,10973,1582140,-2075720,-2525316,0,0,0,263,443,235,348,394,399,324,308,274,111,110,200,0,,,,,
1,1775672163248,-2139,1191,10040,102625,42760,2443,0,0,0,331,329,275,377,226,382,548,518,340,463,480,264,0,,,,,
2,1775672163248,5202,15142,9188,-2801427,-2371378,-474031,0,0,0,264,444,235,348,389,399,326,309,277,112,112,200,0,,,,,
1,1775672163264,-2029,1177,10184,223576,-42760,36651,0,0,0,336,332,276,380,224,384,545,501,349,457,469,277,0,,,,,
2,1775672163264,6862,8877,6599,-4273613,-1189965,621860,0,0,0,262,445,236,351,388,399,325,309,275,112,112,200,0,,,,,
1,1775672163280,-1995,1177,10251,324980,-136833,64751,0,0,0,340,336,276,383,230,391,539,484,355,446,449,288,0,,,,,
2,1775672163280,5881,5183,4551,-4261395,-326202,747699,0,0,0,260,447,238,352,390,401,326,310,277,110,112,199,0,,,,,
1,1775672163296,-2024,1249,9763,368962,-201585,72082,0,0,0,339,339,276,380,230,398,528,463,362,437,436,305,0,,,,,
2,1775672163296,3799,4910,4245,-4159992,-201585,496022,0,0,0,259,448,240,350,390,403,327,316,279,114,116,202,0,,,,,
1,1775672163312,-2134,1258,8542,338419,-185703,64751,0,0,0,338,341,273,378,232,400,523,454,366,422,427,314,0,,,,,
2,1775672163312,3450,5374,4929,-4602258,-287106,426383,0,0,0,259,448,240,350,391,403,330,319,281,114,116,202,0,,,,,
1,1775672163328,-2211,961,8887,350636,-178372,54977,0,0,0,337,346,270,379,235,398,525,449,370,405,412,315,0,,,,,
2,1775672163328,4412,5216,5771,-5293758,57421,389732,0,0,0,258,447,239,352,392,404,331,318,281,111,114,199,0,,,,,
1,1775672163344,-2230,732,9514,342084,-166155,56199,0,0,0,337,346,268,379,233,399,528,440,374,399,396,318,0,,,,,
2,1775672163344,4603,4690,6877,-5804441,753807,293215,0,0,0,259,447,239,351,391,403,329,315,279,111,117,201,0,,,,,
1,1775672163360,-2230,698,9495,265115,-107512,61086,0,0,0,337,338,267,379,233,401,528,434,374,400,390,326,0,,,,,
2,1775672163360,3522,4273,8423,-6056117,1324355,260228,0,0,0,259,448,240,350,391,401,330,314,281,115,119,200,0,,,,,
1,1775672163376,-2230,732,9380,188146,-41538,63529,0,0,0,327,344,270,375,236,401,530,424,374,397,388,332,0,,,,,
2,1775672163376,2258,4192,10547,-6340781,1539380,410501,0,0,0,256,447,240,352,391,401,332,317,281,115,117,198,0,,,,,
1,1775672163392,-2215,818,9442,145385,12217,65973,0,0,0,327,344,270,381,236,404,534,420,373,406,387,337,0,,,,,
2,1775672163392,2187,4288,12208,-6696304,1571145,613308,0,0,0,259,449,243,353,392,404,335,319,282,115,117,199,0,,,,,
1,1775672163408,-2129,861,9657,164933,30543,67195,0,0,0,331,344,267,381,237,410,533,413,381,392,374,340,0,,,,,
2,1775672163408,2948,4091,14022,-7131240,1679879,831998,0,0,0,256,446,240,353,392,404,336,319,282,115,118,199,0,,,,,
1,1775672163424,-2014,818,9786,200363,15882,68416,0,0,0,328,357,266,387,259,413,527,407,385,394,367,357,0,,,,,
2,1775672163424,3517,3321,16099,-7302283,1892460,944397,0,0,0,256,444,240,354,392,404,337,319,283,115,118,199,0,,,,,
1,1775672163440,-1971,732,9806,235793,-40317,68416,0,0,0,333,352,268,395,250,414,535,386,386,390,350,365,0,,,,,
2,1775672163440,3795,2665,18588,-7312056,2085493,1004262,0,0,0,256,446,241,353,391,404,338,321,284,114,120,199,0,,,,,
1,1775672163456,-2081,684,9810,278554,-101403,79412,0,0,0,337,358,266,404,274,422,535,372,389,387,341,377,0,,,,,
2,1775672163456,3910,2536,21861,-7315722,2249205,1076344,0,0,0,257,447,240,354,392,406,338,317,284,113,118,196,0,,,,,
1,1775672163472,-2278,674,9815,338419,-123394,106290,0,0,0,339,362,262,422,284,426,533,351,380,371,322,388,0,,,,,
2,1775672163472,4168,2847,26963,-7500203,2365270,1329242,0,0,0,256,447,240,355,392,406,343,316,287,115,115,198,0,,,,,
1,1775672163488,-2330,655,9810,423940,-106290,149051,0,0,0,343,365,259,426,286,442,533,331,386,356,306,420,0,,,,,
2,1775672163488,4489,1708,31533,-7748214,2471560,1830152,0,0,0,258,447,241,359,393,406,347,312,289,116,114,200,0,,,,,
1,1775672163504,-2297,622,9911,521678,-103847,189368,0,0,0,350,374,267,430,293,461,529,303,399,339,283,454,0,,,,,
2,1775672163504,3579,-4752,34864,-7750658,2951700,2618168,0,0,0,261,448,243,362,394,409,351,310,293,119,114,202,0,,,,,
1,1775672163520,-2349,559,10198,638965,-171042,234572,0,0,0,357,386,270,436,302,471,524,274,405,322,252,479,0,,,,,
2,1775672163520,583,-15769,37382,-7202101,3277902,3209485,0,0,0,262,450,244,363,395,412,355,310,299,121,114,204,0,,,,,
1,1775672163536,-2517,449,10471,768468,-278554,293215,0,0,0,362,395,264,446,313,485,519,254,412,304,225,500,0,,,,,
2,1775672163536,-454,-31610,34969,-5911953,2205223,3136182,0,0,0,262,449,243,366,397,415,358,310,302,122,115,204,0,,,,,
1,1775672163552,-2770,330,10825,937067,-371406,368962,0,0,0,374,399,254,463,324,501,505,237,421,288,197,524,0,,,,,
2,1775672163552,3187,-46513,23364,-3831346,915076,1393994,0,0,0,254,444,235,365,398,413,364,329,299,124,125,204,0,,,,,
1,1775672163568,-2804,244,11423,1161865,-378736,431270,0,0,0,395,399,244,475,333,516,480,215,422,277,169,549,0,,,,,
2,1775672163568,-1718,-53108,15850,-1572367,1103222,-1257160,0,0,0,238,434,222,360,393,405,381,392,296,133,159,202,0,,,,,
1,1775672163584,-2278,167,12222,1463633,-366519,454483,0,0,0,401,408,236,484,350,541,452,201,431,264,163,564,0,,,,,
2,1775672163584,-15946,-47102,22498,706160,70860,-2470339,0,0,0,244,418,213,359,386,401,418,466,289,150,207,195,0,,,,,
1,1775672163600,-1765,67,13041,1876578,-453262,393397,0,0,0,404,414,217,486,374,553,407,202,450,251,165,576,0,,,,,
2,1775672163600,-12888,-22622,23766,3159395,-3284011,-1695761,0,0,0,248,386,178,353,365,380,464,480,271,169,248,180,0,,,,,
1,1775672163616,-2225,76,13754,2327396,-536339,334754,0,0,0,414,437,217,498,397,554,354,193,467,256,172,581,0,,,,,
2,1775672163616,4005,9404,15458,4864930,-5596747,-207694,0,0,0,259,386,187,352,357,395,488,488,287,210,306,181,0,,,,,
1,1775672163632,-3785,157,14438,2926044,-514348,409279,0,0,0,434,426,208,492,371,559,300,171,457,249,144,581,0,,,,,
2,1775672163632,4881,8131,13749,5382944,-3602883,652404,0,0,0,266,396,189,366,361,400,503,503,297,199,310,187,0,,,,,
1,1775672163648,-5154,162,15171,3706730,-288328,728151,0,0,0,423,420,207,471,378,544,217,159,471,224,135,573,0,,,,,
2,1775672163648,-3809,-1095,20780,5412266,-973719,728151,0,0,0,259,393,213,368,357,409,510,532,298,328,435,177,0,,,,,
1,1775672163664,-5824,287,16266,4438546,-21991,1091005,0,0,0,438,420,220,450,379,527,206,150,457,211,121,557,0,,,,,
2,1775672163664,-6690,-2761,25106,4455651,41538,-124616,0,0,0,267,411,240,379,369,422,519,522,312,231,333,195,0,,,,,
1,1775672163680,-6628,277,19253,5249775,141720,1496619,0,0,0,418,404,226,428,359,504,212,145,433,179,106,503,0,,,,,
2,1775672163680,502,1024,18291,2786767,-64751,-574213,0,0,0,280,431,272,389,373,433,527,527,325,212,300,223,0,,,,,
1,1775672163696,-8269,57,23201,6080552,213802,1872912,0,0,0,400,401,217,414,352,481,195,138,397,167,101,440,0,,,,,
2,1775672163696,3694,2225,10973,1638340,-85521,-205250,0,0,0,296,454,296,404,386,444,540,540,331,221,295,250,0,,,,,
1,1775672163712,-10571,224,26518,6974859,333532,2329840,0,0,0,355,387,217,378,319,434,184,138,364,148,102,352,0,,,,,
2,1775672163712,2234,722,9121,888198,-169820,177150,0,0,0,324,469,315,418,397,453,553,553,331,232,294,277,0,,,,,
1,1775672163728,-10404,737,28394,7698123,631634,2829527,0,0,0,292,356,213,328,282,383,200,170,330,133,123,272,0,,,,,
2,1775672163728,880,-110,10480,282219,-387288,190589,0,0,0,348,475,330,425,400,456,564,564,329,237,290,293,0,,,,,
1,1775672163744,-9298,2593,29021,8120842,910189,3123964,0,0,0,240,324,202,277,241,326,246,221,296,132,160,189,0,,,,,
2,1775672163744,684,813,10897,1221,-508239,52534,0,0,0,362,479,338,427,400,457,571,571,329,241,290,301,0,,,,,
1,1775672163760,-10863,6097,25302,8539896,1026253,3277902,0,0,0,226,307,209,248,207,287,290,257,284,140,201,123,0,,,,,
2,1775672163760,684,1536,10528,-67195,-453262,0,0,0,0,370,482,340,429,403,463,571,571,331,246,295,305,0,,,,,
1,1775672163776,-13017,10260,17587,8539896,766025,3525914,0,0,0,240,305,225,254,208,303,296,270,289,149,230,131,0,,,,,
2,1775672163776,756,1751,10232,-21991,-266337,10995,0,0,0,375,484,340,431,404,469,573,572,329,245,293,307,0,,,,,
1,1775672163792,-11686,13634,11371,7195992,206472,3643200,0,0,0,233,314,227,248,210,305,293,271,288,146,230,131,0,,,,,
2,1775672163792,760,1684,10303,32986,-141720,7330,0,0,0,378,486,340,431,404,467,571,571,327,245,291,311,0,,,,,
1,1775672163808,-5967,17755,10921,3020117,296880,2107485,0,0,0,227,319,225,244,215,301,294,277,284,146,230,130,0,,,,,
2,1775672163808,713,1713,10251,90408,-64751,-8552,0,0,0,383,488,345,433,407,467,568,567,330,248,289,314,0,,,,,
1,1775672163824,-2919,17922,11371,-1637118,1205847,-414166,0,0,0,229,323,225,250,217,300,302,278,281,152,233,130,0,,,,,
2,1775672163824,698,1828,10117,183259,10995,-26878,0,0,0,387,492,346,435,407,468,576,573,327,244,279,323,0,,,,,
1,1775672163840,-5924,11969,8949,-3859446,1936442,-1957212,0,0,0,228,322,225,253,221,307,305,278,281,151,234,130,0,,,,,
2,1775672163840,732,1794,10064,302989,87964,-26878,0,0,0,392,493,345,438,412,475,573,566,332,243,272,327,0,,,,,
1,1775672163856,-8920,7059,5690,-4260174,1488067,-1877799,0,0,0,214,322,222,244,216,299,308,276,281,144,232,122,0,,,,,
2,1775672163856,842,1641,10007,384845,140499,-23212,0,0,0,396,493,342,441,412,470,573,561,337,240,259,329,0,,,,,
1,1775672163872,-7824,5570,4948,-4331034,448375,-1031140,0,0,0,218,324,229,245,217,302,302,275,280,151,237,128,0,,,,,
2,1775672163872,981,1502,9944,398284,139277,-18325,0,0,0,403,497,343,442,412,471,572,546,341,251,253,334,0,,,,,
1,1775672163888,-5628,4996,5857,-4647462,-3665,-499687,0,0,0,220,325,228,250,222,304,304,278,282,179,238,138,0,,,,,
2,1775672163888,1052,1459,9892,379958,95294,-19547,0,0,0,404,494,339,442,413,475,567,537,343,242,242,346,0,,,,,
1,1775672163904,-4513,4527,7365,-5122715,160046,-368962,0,0,0,222,327,228,253,224,306,307,281,281,167,239,134,0,,,,,
2,1775672163904,1072,1430,9868,367740,46425,-26878,0,0,0,410,497,339,447,415,476,566,521,346,241,229,356,0,,,,,
1,1775672163920,-5288,3996,8528,-5616295,166155,-448375,0,0,0,222,328,229,251,221,306,308,281,280,154,240,131,0,,,,,
2,1775672163920,1067,1363,9853,359188,4886,-36651,0,0,0,416,497,341,447,416,478,567,507,350,241,217,367,0,,,,,
1,1775672163936,-5891,3354,9978,-6142860,-293215,-591317,0,0,0,222,328,229,251,220,305,308,282,280,155,241,131,0,,,,,
2,1775672163936,1067,1320,9858,353080,-31764,-45204,0,0,0,423,501,344,449,419,484,567,487,350,241,205,380,0,,,,,
1,1775672163952,-5240,2770,11538,-6472728,-766025,-845437,0,0,0,223,328,231,253,223,307,309,284,280,156,244,128,0,,,,,
2,1775672163952,1052,1316,9897,370184,-59864,-52534,0,0,0,432,506,344,459,427,494,569,470,353,240,195,395,0,,,,,
1,1775672163968,-4790,2129,13251,-6747617,-1029918,-1233947,0,0,0,222,329,233,253,223,308,309,283,280,156,243,126,0,,,,,
2,1775672163968,1009,1296,9949,408057,-76969,-58643,0,0,0,441,512,348,469,437,503,569,454,360,239,188,415,0,,,,,
1,1775672163984,-5417,1320,14974,-6917437,-1172861,-1662775,0,0,0,224,329,235,253,225,308,310,284,280,155,242,125,0,,,,,
2,1775672163984,961,1253,10026,466701,-76969,-62308,0,0,0,452,521,354,472,443,509,564,431,363,241,180,436,0,,,,,
1,1775672164000,-6427,449,16956,-6912551,-1505171,-1909564,0,0,0,223,328,235,253,226,307,313,287,283,154,241,123,0,,,,,
2,1775672164000,981,1172,10098,525344,-58643,-64751,0,0,0,463,529,355,472,447,510,559,405,366,244,172,455,0,,,,,
1,1775672164016,-6901,-210,19559,-6822142,-1852143,-2042733,0,0,0,220,327,235,247,238,303,313,283,282,156,241,126,0,,,,,
2,1775672164016,1076,1043,10136,590095,-28099,-74525,0,0,0,476,536,355,472,459,514,554,379,375,252,172,476,0,,,,,
1,1775672164032,-7307,-713,23062,-6714630,-2052507,-2157576,0,0,0,220,328,235,251,223,307,309,278,279,162,244,127,0,,,,,
2,1775672164032,1215,909,10169,654847,3665,-105068,0,0,0,490,543,355,484,471,522,545,346,382,268,173,495,0,,,,,
1,1775672164048,-8399,-1761,26901,-6681643,-2084272,-2300518,0,0,0,225,334,238,251,223,306,309,278,282,160,242,126,0,,,,,
2,1775672164048,1287,794,10308,720820,45204,-164933,0,0,0,493,546,353,491,485,530,537,313,390,256,164,512,0,,,,,
1,1775672164064,-9011,-4766,30748,-6670648,-2320066,-2455678,0,0,0,221,331,236,252,223,309,308,278,285,160,242,126,0,,,,,
2,1775672164064,1320,741,10524,797790,53756,-217468,0,0,0,504,556,363,489,485,523,523,281,405,269,174,543,0,,,,,
1,1775672164080,-7169,-10796,33165,-6607118,-2767219,-2495995,0,0,0,221,330,236,255,224,310,307,276,286,160,240,126,0,,,,,
2,1775672164080,1301,684,10753,922406,20769,-257785,0,0,0,504,552,340,502,503,536,511,263,405,273,177,558,0,,,,,
1,1775672164096,-3972,-20736,32806,-6357885,-2827084,-2301740,0,0,0,226,330,233,266,226,310,317,278,288,160,237,120,0,,,,,
2,1775672164096,1239,579,11222,1117883,2443,-271224,0,0,0,514,569,345,511,515,550,482,240,409,272,175,577,0,,,,,
1,1775672164112,-2474,-32021,26388,-5738468,-2260201,-1523497,0,0,0,225,332,231,264,227,311,318,280,290,162,235,121,0,,,,,
2,1775672164112,1292,507,12098,1414763,17104,-282219,0,0,0,513,571,321,512,518,549,452,229,401,281,179,589,0,,,,,
1,1775672164128,1110,-43804,17171,-4434881,-2063502,552222,0,0,0,224,333,234,260,224,314,315,281,293,165,236,123,0,,,,,
2,1775672164128,1263,507,12926,1820378,36651,-306654,0,0,0,519,571,295,521,533,555,419,224,401,273,175,596,0,,,,,
1,1775672164144,12170,-50184,13117,-2674368,-1875356,2629163,0,0,0,224,328,232,260,222,313,318,282,290,175,250,121,0,,,,,
2,1775672164144,1048,449,13419,2291966,31764,-316428,0,0,0,525,575,280,524,549,565,383,226,402,271,180,605,0,,,,,
1,1775672164160,18966,-47073,15233,-438601,-45204,2748893,0,0,0,221,311,221,262,215,303,346,321,283,205,297,113,0,,,,,
2,1775672164160,1220,411,13864,2761110,4886,-304210,0,0,0,523,577,258,521,554,565,346,226,403,273,185,611,0,,,,,
1,1775672164176,11605,-31136,19238,1831373,2428800,1695761,0,0,0,222,279,196,262,194,276,408,402,269,253,367,98,0,,,,,
2,1775672164176,2139,301,14826,3343876,-73303,-367740,0,0,0,529,574,253,512,547,560,309,212,395,273,184,613,0,,,,,
1,1775672164192,-4709,3149,18401,3897320,4652349,277332,0,0,0,240,257,161,265,171,248,454,444,254,299,403,88,0,,,,,
2,1775672164192,2675,277,15884,3973067,-186924,-507018,0,0,0,537,570,255,499,540,559,282,192,393,268,180,606,0,,,,,
1,1775672164208,-6862,13199,12562,5079955,4580267,-477696,0,0,0,249,265,154,281,172,255,467,467,268,331,416,84,0,,,,,
2,1775672164208,3115,411,16937,4682892,-294437,-695164,0,0,0,535,558,249,494,537,558,271,173,400,259,173,587,0,,,,,
1,1775672164224,837,1933,15132,6157521,2701246,-724486,0,0,0,252,261,158,296,171,280,486,485,275,368,426,82,0,,,,,
2,1775672164224,3752,397,19162,5577199,-349414,-971275,0,0,0,523,537,248,495,527,548,277,163,401,247,159,543,0,,,,,
1,1775672164240,5072,-4479,24005,5479461,643851,-50090,0,0,0,252,270,181,296,175,293,495,495,283,391,429,97,0,,,,,
2,1775672164240,4077,162,23440,6557027,-331088,-1226617,0,0,0,491,519,248,485,505,533,289,160,398,228,141,474,0,,,,,
1,1775672164256,-502,-1651,23302,3468492,-25656,747699,0,0,0,263,285,218,317,187,332,495,495,310,411,436,107,0,,,,,
2,1775672164256,4943,732,28006,7480655,-94073,-1382998,0,0,0,423,493,223,471,481,514,286,165,376,203,129,401,0,,,,,
1,1775672164272,-4675,-23,15223,2018298,130725,324980,0,0,0,260,300,248,332,218,363,509,509,321,413,449,180,0,,,,,
2,1775672164272,5896,1617,31260,8359079,251676,-1589471,0,0,0,359,464,213,425,437,471,290,179,338,176,118,345,0,,,,,
1,1775672164288,-4020,-507,9983,1050688,233350,-239459,0,0,0,294,316,261,353,223,376,520,514,327,430,467,226,0,,,,,
2,1775672164288,6757,2751,31907,8976053,691499,-1921782,0,0,0,298,444,225,368,398,417,310,236,303,131,103,262,0,,,,,
