sole_id,timestamp,accel_x,accel_y,accel_z,gyro_x,gyro_y,gyro_z,magn_x,magn_y,magn_z,pressure_01,pressure_02,pressure_03,pressure_04,pressure_05,pressure_06,pressure_07,pressure_08,pressure_09,pressure_10,pressure_11,pressure_12,corrupt
1,1773251286256,-2627,287,11462,1066570,243124,-58643,0,0,0,261,306,240,334,201,311,506,503,242,418,473,123,0
1,1773251286272,-1651,583,10366,466701,146607,-138055,0,0,0,286,308,248,352,204,315,518,516,243,437,489,140,0
1,1773251286288,-1785,1086,9672,141720,58643,-62308,0,0,0,302,309,273,349,207,320,530,517,239,478,519,149,0
1,1773251286304,-2110,1134,9758,4886,69638,-34208,0,0,0,306,314,285,345,208,327,543,531,241,521,537,163,0
1,1773251286320,-2067,1129,9992,-79412,129503,-50090,0,0,0,313,328,289,355,210,331,557,546,245,535,547,194,0
1,1773251286336,-1938,1277,10016,-127059,140499,-47647,0,0,0,326,336,314,359,212,340,563,550,248,537,556,222,0
1,1773251286352,-1904,1459,10011,-86742,91629,-21991,0,0,0,330,335,338,356,212,357,560,550,262,548,554,231,0
1,1773251286368,-1899,1497,10007,23212,12217,2443,0,0,0,320,338,323,363,216,364,560,544,275,549,559,238,0
1,1773251286384,-1899,1450,9887,112399,-56199,18325,0,0,0,323,345,324,367,224,369,571,554,264,547,559,245,0
1,1773251286400,-1952,1397,9786,155159,-90408,25656,0,0,0,347,348,326,379,222,373,577,553,278,549,566,262,0
1,1773251286416,-2014,1344,9739,182037,-102625,34208,0,0,0,343,365,331,380,246,374,569,543,276,546,564,267,0
1,1773251286432,-2043,1296,9724,186924,-91629,42760,0,0,0,332,366,328,380,242,372,569,534,287,537,564,279,0
1,1773251286448,-2010,1263,9691,168598,-74525,47647,0,0,0,335,378,342,370,266,369,569,522,284,532,564,271,0
1,1773251286464,-1971,1273,9657,151494,-72082,52534,0,0,0,331,381,337,367,280,371,570,532,285,537,564,277,0
1,1773251286480,-1952,1277,9633,149051,-81855,52534,0,0,0,329,379,323,367,277,379,564,521,292,537,563,279,0
1,1773251286496,-1957,1253,9600,141720,-91629,52534,0,0,0,331,377,312,374,272,381,566,513,292,530,560,279,0
1,1773251286512,-1966,1210,9566,120951,-92851,51312,0,0,0,332,379,309,375,271,380,569,516,289,523,558,280,0
1,1773251286528,-1957,1182,9585,91629,-98960,47647,0,0,0,330,378,303,371,259,380,565,513,282,517,556,279,0
2,1773251286528,-86,-86,95,0,0,0,0,0,0,249,440,193,363,399,372,361,329,260,133,140,182,0
1,1773251286544,-1986,1177,9600,70860,-108734,43982,0,0,0,327,374,292,374,247,377,564,504,284,510,556,283,0
2,1773251286544,-3962,-3938,6192,-163711,-163711,84299,0,0,0,252,441,193,361,394,370,365,329,264,133,142,185,0
1,1773251286560,-2029,1186,9585,56199,-102625,39095,0,0,0,323,375,288,378,254,375,571,505,297,510,561,291,0
2,1773251286560,-5340,-5273,15931,-1363451,-660956,645073,0,0,0,252,441,192,362,394,370,364,329,263,132,140,182,0
1,1773251286576,-2048,1210,9585,43982,-75747,32986,0,0,0,327,372,298,380,257,375,572,507,280,510,567,287,0
2,1773251286576,-9,14,17516,-3976732,40317,1218065,0,0,0,251,440,191,366,395,372,368,326,262,134,138,182,0
1,1773251286592,-2048,1215,9624,37873,-50090,30543,0,0,0,329,379,307,384,255,369,568,492,277,503,572,289,0
2,1773251286592,2560,2660,16970,-5652946,1286482,1221730,0,0,0,251,440,194,365,396,374,365,327,263,131,138,182,0
1,1773251286608,-2048,1201,9648,39095,-35430,29321,0,0,0,319,372,317,382,255,390,569,502,309,517,560,286,0
2,1773251286608,1541,2201,17841,-5845980,1944994,948062,0,0,0,251,441,194,367,397,375,363,326,262,133,139,184,0
1,1773251286624,-2019,1201,9648,50090,-26878,30543,0,0,0,315,367,337,377,249,397,574,484,301,500,560,284,0
2,1773251286624,-210,1363,20588,-5510004,1725083,1031140,0,0,0,252,441,193,367,395,374,366,327,264,137,142,186,0
1,1773251286640,-1981,1220,9643,81855,-32986,37873,0,0,0,319,367,338,378,266,390,570,481,304,494,539,320,0
2,1773251286640,-823,579,22536,-5491678,1490511,1385442,0,0,0,254,442,193,369,395,375,369,327,266,137,139,185,0
1,1773251286656,-2005,1249,9676,141720,-47647,47647,0,0,0,324,366,342,388,263,403,562,467,323,476,522,339,0
2,1773251286656,-205,-2230,23455,-5469687,1252273,1792278,0,0,0,256,442,195,372,394,375,369,326,264,136,134,182,0
1,1773251286672,-2086,1234,9729,223576,-52534,63529,0,0,0,333,377,347,400,265,424,562,441,333,480,506,338,0
2,1773251286672,1196,-7169,23866,-5204571,988379,1946216,0,0,0,260,442,196,375,392,374,375,326,263,136,132,180,0
1,1773251286688,-2153,1148,9715,285884,-18325,81855,0,0,0,343,386,359,400,268,437,568,434,333,469,488,361,0
2,1773251286688,2823,-13759,23115,-4709770,728151,1601688,0,0,0,261,444,195,376,392,376,381,326,263,137,132,181,0
2,1773251286704,3163,-19746,19990,-3965737,548556,751364,0,0,0,258,444,194,376,396,377,376,324,263,140,136,183,0
1,1773251286720,-2043,1115,9940,428827,-1221,111177,0,0,0,363,406,349,419,313,460,548,390,357,417,426,418,0
2,1773251286720,1229,-22392,16592,-2981022,591317,-29321,0,0,0,258,443,194,376,396,377,370,328,266,139,137,182,0
1,1773251286736,-2029,1124,10122,531452,-58643,123394,0,0,0,364,425,363,423,303,484,542,348,391,396,384,449,0
2,1773251286736,-2694,-21947,14539,-1718974,609643,-430049,0,0,0,258,443,194,376,397,377,352,327,269,137,133,181,0
1,1773251286752,-2139,1048,10189,627969,-120951,134390,0,0,0,373,441,369,434,322,489,538,300,409,374,335,482,0
2,1773251286752,-4982,-21091,13515,-642630,310319,-449596,0,0,0,258,444,196,377,398,380,372,326,264,137,138,183,0
1,1773251286768,-2258,866,10189,691499,-138055,151494,0,0,0,385,451,356,471,342,489,521,270,389,354,298,504,0
1,1773251286784,-2301,660,10294,773355,-163711,185703,0,0,0,396,459,337,488,360,516,518,238,415,328,247,526,0
2,1773251286784,-1253,-17989,11777,927293,-586430,-167377,0,0,0,257,443,192,371,394,377,376,330,270,160,144,181,0
1,1773251286800,-2522,603,10801,923628,-254119,240680,0,0,0,406,472,325,498,394,543,500,240,422,309,228,538,0
2,1773251286800,598,-14457,11342,1598023,-625526,-201585,0,0,0,259,443,193,328,432,359,379,334,271,142,141,182,0
1,1773251286816,-2689,670,11725,1160643,-328645,331088,0,0,0,409,483,258,539,407,535,467,233,454,307,215,529,0
2,1773251286816,928,-10299,11395,2043955,-514348,-168598,0,0,0,253,441,198,362,404,375,386,388,262,148,173,172,0
1,1773251286832,-2656,717,12443,1546710,-338419,441044,0,0,0,412,488,249,535,427,536,414,202,465,285,207,554,0
2,1773251286832,1770,1134,12524,2151467,-503352,57421,0,0,0,245,427,168,369,391,362,425,444,247,172,220,166,0
1,1773251286848,-2747,440,12572,1969429,-241902,531452,0,0,0,415,495,226,559,416,542,401,193,446,293,192,557,0
2,1773251286848,4278,20722,10849,1952325,-919963,329867,0,0,0,245,411,162,357,373,357,454,469,249,188,274,161,0
1,1773251286864,-2723,272,12916,2367713,-111177,599869,0,0,0,433,480,205,548,423,526,374,192,410,273,183,562,0
2,1773251286864,3015,14544,7039,2632829,-1631010,310319,0,0,0,251,404,163,359,362,367,474,485,253,234,348,154,0
1,1773251286880,-2986,311,13539,2794097,46425,654847,0,0,0,434,483,198,549,439,528,326,185,408,259,174,562,0
2,1773251286880,-134,1895,10299,4074471,-1549154,155159,0,0,0,252,405,181,367,362,381,495,500,265,253,392,155,0
1,1773251286896,-3646,110,14295,3269350,166155,778242,0,0,0,434,486,207,543,431,535,317,173,419,245,152,547,0
2,1773251286896,-2086,-3661,19114,4536285,-698829,-94073,0,0,0,262,414,216,375,364,396,516,516,280,251,395,169,0
1,1773251286912,-4627,-100,15874,3859446,179594,1001818,0,0,0,425,471,227,516,399,533,284,157,430,225,133,528,0
2,1773251286912,301,-215,20679,3197268,-349414,-312763,0,0,0,283,431,248,384,367,404,506,524,300,262,390,191,0
2,1773251286928,2057,1091,16817,1776396,-252898,-212581,0,0,0,301,449,269,391,370,409,499,528,312,271,391,213,0
1,1773251286944,-6676,363,20827,5188689,454483,1563815,0,0,0,404,414,209,460,331,474,253,151,385,184,109,415,0
2,1773251286944,1564,569,11916,827111,-73303,37873,0,0,0,314,461,283,396,377,418,544,543,303,296,412,233,0
1,1773251286960,-7729,689,21899,5819102,737925,1883908,0,0,0,329,389,192,398,298,429,226,153,329,173,121,331,0
2,1773251286960,1038,607,9585,421497,76969,124616,0,0,0,328,465,295,404,381,426,550,551,311,328,434,244,0
1,1773251286976,-7853,899,22861,6431189,851546,2238210,0,0,0,285,368,187,356,272,372,249,181,293,175,154,262,0
2,1773251286976,1296,928,9609,273667,18325,78190,0,0,0,341,472,304,412,390,436,559,560,311,294,394,259,0
1,1773251286992,-6743,1507,23345,6878342,852767,2504547,0,0,0,252,344,176,311,255,314,281,229,262,191,207,183,0
2,1773251286992,1407,1067,10040,102625,-156381,36651,0,0,0,347,474,318,406,387,436,573,574,313,299,395,273,0
1,1773251287008,-6618,2632,20114,7060380,926071,2590068,0,0,0,218,283,193,294,181,268,318,247,240,213,266,117,0
2,1773251287008,1182,1268,10131,24434,-207694,13439,0,0,0,362,486,311,410,390,437,575,575,319,297,387,287,0
1,1773251287024,-7877,4235,13720,6916216,944397,2670702,0,0,0,223,290,199,276,212,305,304,268,269,191,284,140,0
1,1773251287040,-8485,9169,9346,5804441,703716,2591290,0,0,0,235,301,208,297,199,306,324,272,266,206,281,147,0
2,1773251287040,1196,1426,10054,205250,-124616,-19547,0,0,0,372,488,319,412,388,445,587,581,324,298,369,309,0
1,1773251287056,-6226,15711,8959,3029891,477696,1598023,0,0,0,227,301,204,291,202,305,308,270,265,198,278,151,0
2,1773251287056,1095,1335,10074,244346,-101403,-31764,0,0,0,375,491,318,421,391,453,583,575,327,286,350,326,0
1,1773251287072,-3713,16893,8939,-575435,786794,-215024,0,0,0,229,306,206,290,207,304,309,271,256,198,278,145,0
2,1773251287072,1005,1335,10098,246789,-21991,-36651,0,0,0,388,494,324,430,396,457,588,561,322,365,405,322,0
1,1773251287088,-4934,10911,6250,-2561968,1170417,-1415985,0,0,0,241,309,207,304,206,300,314,270,252,202,278,142,0
2,1773251287088,1095,1349,10054,278554,78190,-34208,0,0,0,395,496,328,431,401,463,592,555,325,311,344,341,0
1,1773251287104,-6963,5350,3259,-2862514,803898,-1450194,0,0,0,244,308,207,295,223,295,317,270,253,205,279,145,0
2,1773251287104,1244,1320,9983,329867,109955,-34208,0,0,0,401,500,328,434,405,468,589,546,332,270,292,365,0
1,1773251287120,-5891,4508,3125,-2487443,-3665,-770911,0,0,0,242,305,208,301,217,301,325,274,256,207,280,145,0
2,1773251287120,1383,1273,9920,392175,62308,-43982,0,0,0,405,503,324,438,408,470,581,526,336,273,279,378,0
2,1773251287136,1402,1167,9901,436157,-19547,-59864,0,0,0,408,508,319,441,411,472,577,507,344,285,271,381,0
1,1773251287152,-2751,5752,6149,-3277902,56199,-564439,0,0,0,244,307,206,317,207,305,322,276,255,209,288,144,0
2,1773251287152,1301,1043,9863,416610,-61086,-69638,0,0,0,415,513,318,446,415,478,580,495,351,280,250,381,0
1,1773251287168,-3895,5446,7331,-4064697,144164,-872315,0,0,0,245,309,208,316,208,304,322,275,256,208,289,142,0
2,1773251287168,1234,966,9839,375071,-74525,-72082,0,0,0,423,513,323,454,416,489,580,481,348,242,216,391,0
1,1773251287184,-4383,4761,8394,-4613254,-205250,-1071457,0,0,0,240,309,207,310,209,305,322,275,257,206,287,141,0
2,1773251287184,1220,918,9844,333532,-72082,-69638,0,0,0,424,520,322,465,427,497,578,472,354,247,218,402,0
1,1773251287200,-3838,3881,9633,-4989547,-658512,-1210734,0,0,0,236,310,210,305,210,311,317,275,262,205,287,145,0
2,1773251287200,1234,861,9849,304210,-72082,-62308,0,0,0,431,531,328,462,432,498,570,452,360,255,213,408,0
1,1773251287216,-3177,2914,11012,-5287649,-971275,-1288925,0,0,0,225,309,214,291,211,316,312,279,270,203,291,150,0
2,1773251287216,1263,827,9868,285884,-84299,-56199,0,0,0,438,541,336,460,433,496,571,442,369,247,192,419,0
1,1773251287232,-2569,1957,12629,-5492900,-1111774,-1230282,0,0,0,231,316,213,297,214,317,311,279,269,210,298,151,0
2,1773251287232,1253,794,9877,274889,-100181,-53756,0,0,0,443,540,336,460,433,507,570,436,376,256,200,434,0
1,1773251287248,-2110,1311,14563,-5575977,-1111774,-983493,0,0,0,229,310,211,297,211,312,301,279,266,198,312,147,0
2,1773251287248,1225,770,9897,272445,-108734,-54977,0,0,0,448,539,343,463,436,503,565,433,379,252,194,441,0
1,1773251287264,-1751,1038,16544,-5597969,-1116661,-723264,0,0,0,229,318,213,295,218,314,306,288,267,204,316,144,0
2,1773251287264,1220,756,9949,278554,-109955,-57421,0,0,0,459,542,346,470,446,522,566,421,380,252,193,452,0
1,1773251287280,-1512,832,18865,-5616295,-1122770,-629191,0,0,0,230,318,211,297,218,314,311,297,268,202,299,143,0
1,1773251287296,-2081,617,20894,-5659055,-1154535,-823446,0,0,0,227,318,215,294,220,313,311,305,270,199,299,143,0
2,1773251287296,1344,684,10054,332310,-120951,-83077,0,0,0,479,550,348,485,461,533,562,382,384,250,172,481,0
1,1773251287312,-3340,215,23034,-5766567,-1323134,-1299921,0,0,0,224,319,217,288,221,316,311,311,275,196,301,144,0
2,1773251287312,1344,631,10074,362853,-122173,-107512,0,0,0,484,551,346,492,464,537,555,357,382,360,200,481,0
1,1773251287328,-4288,-1622,25714,-5960823,-1519832,-1995085,0,0,0,226,318,217,289,216,318,321,305,279,206,300,145,0
2,1773251287328,1306,579,10150,408057,-105068,-130725,0,0,0,485,555,346,492,463,535,547,332,383,335,191,494,0
1,1773251287344,-4714,-5843,27719,-6054896,-1488067,-2535090,0,0,0,234,314,233,303,210,325,332,288,286,211,295,149,0
2,1773251287344,1411,536,10270,469144,-76969,-160046,0,0,0,496,561,352,495,465,531,536,307,388,264,169,522,0
2,1773251287360,1526,526,10571,577878,-62308,-213802,0,0,0,511,567,349,505,480,538,518,280,393,278,175,548,0
1,1773251287376,-6446,-21560,23771,-5293758,-1276708,-1480737,0,0,0,239,335,215,300,236,313,309,288,273,200,298,138,0
2,1773251287376,1450,536,10921,747699,-83077,-259006,0,0,0,519,574,332,514,495,545,501,261,400,280,175,564,0
1,1773251287392,-196,-26795,18980,-4122118,-1633453,-158824,0,0,0,235,344,216,307,242,307,308,289,267,203,301,132,0
2,1773251287392,1263,469,11213,976162,-87964,-278554,0,0,0,523,581,318,518,502,544,483,245,407,261,163,575,0
1,1773251287408,7772,-29906,15032,-2690250,-1494176,674395,0,0,0,231,347,217,303,252,311,313,287,267,199,301,129,0
2,1773251287408,1043,344,11624,1236391,-32986,-260228,0,0,0,527,581,307,526,514,556,455,233,427,259,163,591,0
1,1773251287424,11892,-33041,12672,-1452637,-734260,1011592,0,0,0,229,351,214,298,252,309,312,285,260,208,300,133,0
2,1773251287424,1148,244,12146,1522276,3665,-230907,0,0,0,530,581,294,529,509,564,428,233,401,263,167,588,0
1,1773251287440,10705,-33074,11835,-260228,373849,1202182,0,0,0,228,351,218,297,253,312,305,277,266,243,269,152,0
2,1773251287440,1564,153,12754,1883908,-29321,-244346,0,0,0,538,582,269,520,517,563,398,233,409,271,180,592,0
1,1773251287456,5833,-28169,12127,1066570,1285260,1216843,0,0,0,229,347,221,295,248,316,312,282,272,205,285,138,0
2,1773251287456,1914,81,13366,2322509,-130725,-296880,0,0,0,539,580,260,537,529,562,361,226,404,255,170,592,0
1,1773251287472,387,-20708,13563,2120924,1536936,961501,0,0,0,257,334,252,322,235,297,335,311,258,230,332,118,0
2,1773251287472,2172,-28,13692,2734232,-250454,-375071,0,0,0,544,579,239,525,522,564,331,227,405,265,177,592,0
1,1773251287488,-3732,-4498,15783,2472782,1385442,403171,0,0,0,244,307,200,306,199,281,393,405,234,292,393,91,0
2,1773251287488,2450,-248,14012,3225368,-373849,-505796,0,0,0,545,574,228,514,530,561,293,218,400,257,176,594,0
1,1773251287504,-8466,24043,14017,2112371,1433089,-130725,0,0,0,240,277,177,288,175,268,446,452,230,335,419,96,0
2,1773251287504,2617,-296,14874,3759264,-469144,-657290,0,0,0,548,567,227,506,518,554,284,205,399,254,167,584,0
1,1773251287520,-5369,18951,6862,2599842,1830152,-100181,0,0,0,248,268,183,299,163,278,469,469,248,362,431,104,0
2,1773251287520,3239,-258,16525,4362799,-533896,-821002,0,0,0,542,553,231,496,506,545,273,180,400,244,153,553,0
1,1773251287536,397,1115,8935,4470311,1254717,46425,0,0,0,254,278,186,321,168,282,493,493,251,401,453,93,0
1,1773251287552,1756,-3962,18353,4862487,177150,403171,0,0,0,258,290,214,331,181,306,518,517,264,444,482,110,0
2,1773251287552,4977,-765,22139,5990144,-733038,-1392772,0,0,0,476,530,220,481,495,523,272,160,385,210,135,439,0
1,1773251287568,-1871,-1799,21607,3545461,-85521,719599,0,0,0,274,305,259,334,203,346,534,534,290,469,502,157,0
2,1773251287568,4857,4,24713,6707300,-604756,-1572367,0,0,0,401,512,184,455,470,482,278,177,353,192,128,379,0
2,1773251287584,4536,1296,26412,7425677,-299323,-1726305,0,0,0,340,480,165,412,437,434,297,227,309,173,128,334,0
1,1773251287600,-2770,-430,11954,527787,68416,-94073,0,0,0,306,311,280,364,205,361,560,557,285,500,532,219,0
2,1773251287600,5273,2177,26192,7892378,89186,-1915673,0,0,0,291,445,172,366,402,391,324,285,280,156,134,258,0
1,1773251287616,-1426,378,9361,223576,-84299,-177150,0,0,0,315,322,267,375,210,359,579,556,279,497,551,239,0
2,1773251287616,6326,2636,21689,7951021,471587,-2309070,0,0,0,247,428,183,338,378,363,342,315,276,143,137,175,0
1,1773251287632,-1986,770,9585,279776,-54977,-45204,0,0,0,314,332,285,388,228,384,597,552,291,514,567,265,0
2,1773251287632,6168,5049,14185,7228979,75747,-2698802,0,0,0,246,439,193,347,394,372,343,315,282,119,131,189,0
1,1773251287648,-2455,693,9901,240680,65973,12217,0,0,0,322,339,283,395,228,367,596,544,278,527,576,269,0
2,1773251287648,5675,12093,9418,4907691,-992045,-2830749,0,0,0,248,439,192,347,395,368,343,312,271,123,128,185,0
1,1773251287664,-2239,583,9949,158824,166155,13439,0,0,0,322,354,294,388,244,384,593,541,307,549,554,285,0
2,1773251287664,4656,18602,10514,48869,-1445307,-1999972,0,0,0,250,437,188,354,396,367,346,316,263,128,132,188,0
1,1773251287680,-1909,808,9978,172263,133168,21991,0,0,0,321,370,320,392,262,408,581,536,315,532,552,304,0
2,1773251287680,3728,15108,9949,-3524692,-1588249,-810007,0,0,0,252,437,191,354,394,367,349,318,264,128,132,188,0
1,1773251287696,-1876,1005,10169,272445,65973,40317,0,0,0,343,395,305,393,267,397,576,499,316,504,538,324,0
2,1773251287696,4943,6996,5738,-4307821,-1580919,144164,0,0,0,252,438,192,358,394,368,350,319,265,128,133,189,0
1,1773251287712,-1919,990,10294,410501,-9773,58643,0,0,0,340,392,288,408,279,393,568,482,314,475,512,335,0
2,1773251287712,6786,4005,3000,-4047593,-1010371,559552,0,0,0,251,439,192,359,398,368,355,324,265,130,134,186,0
1,1773251287728,-1880,775,10064,474031,-97738,61086,0,0,0,335,400,279,415,290,404,562,455,317,474,483,344,0
2,1773251287728,6968,5685,3790,-4235739,-120951,680503,0,0,0,254,442,195,361,396,369,356,322,264,135,148,186,0
1,1773251287744,-1899,559,9739,471587,-188146,62308,0,0,0,332,400,275,413,292,422,559,446,345,455,448,360,0
2,1773251287744,5776,6848,6097,-5120272,486248,896750,0,0,0,253,441,197,364,398,374,356,323,264,132,140,188,0
1,1773251287760,-1981,440,9562,412944,-223576,67195,0,0,0,330,393,276,413,289,429,553,432,368,431,424,376,0
2,1773251287760,5259,5771,7298,-5738468,693942,1080009,0,0,0,252,440,196,364,397,374,353,323,263,130,134,187,0
1,1773251287776,-2072,421,9724,340862,-202807,73303,0,0,0,329,395,275,418,287,432,546,404,371,439,409,383,0
2,1773251287776,5245,3665,7681,-5784893,938289,1049466,0,0,0,252,441,197,352,403,372,353,325,266,130,134,189,0
2,1773251287792,4651,2555,8451,-5578421,1291369,877202,0,0,0,253,442,198,353,406,374,354,326,268,131,135,189,0
1,1773251287808,-2144,459,10059,206472,-65973,81855,0,0,0,333,396,275,428,295,452,543,402,376,395,396,398,0
2,1773251287808,3460,2670,10050,-5436700,1571145,722042,0,0,0,254,441,197,366,400,377,356,326,267,133,137,187,0
1,1773251287824,-2072,397,9542,246789,-53756,81855,0,0,0,332,393,275,425,293,435,543,390,371,376,381,407,0
2,1773251287824,2646,3043,12136,-5540547,1670105,692721,0,0,0,254,441,198,366,399,377,359,327,269,133,136,187,0
1,1773251287840,-1990,382,9547,244346,-41538,80634,0,0,0,329,398,274,413,311,442,544,384,370,368,379,410,0
2,1773251287840,2541,3125,13974,-5699372,1751961,675616,0,0,0,255,443,200,365,398,378,358,326,269,132,136,188,0
1,1773251287856,-1943,392,9734,229685,-35430,78190,0,0,0,335,390,269,421,292,445,552,376,362,372,365,415,0
2,1773251287856,2727,3058,15707,-5860641,1918116,598647,0,0,0,255,443,198,362,397,375,360,330,271,132,136,191,0
1,1773251287872,-1938,368,9825,223576,-37873,68416,0,0,0,343,394,270,426,290,446,532,354,364,395,348,415,0
2,1773251287872,2268,3211,17879,-6006027,2152689,525344,0,0,0,254,442,196,368,401,380,362,331,270,141,140,193,0
1,1773251287888,-1957,301,9777,228463,-46425,59864,0,0,0,354,399,278,424,294,459,540,346,378,377,330,437,0
2,1773251287888,1416,3488,20579,-6125756,2306627,636521,0,0,0,254,442,199,369,401,382,364,329,270,135,140,195,0
1,1773251287904,-2000,268,9830,259006,-67195,65973,0,0,0,360,396,276,435,296,453,538,340,370,356,317,436,0
2,1773251287904,1110,3297,24201,-6205169,2277305,1104444,0,0,0,254,442,200,366,398,380,362,327,272,133,134,192,0
1,1773251287920,-2072,244,9887,310319,-95294,95294,0,0,0,370,402,278,446,290,460,532,326,382,339,300,442,0
1,1773251287936,-2172,215,9892,355523,-105068,131946,0,0,0,373,413,285,457,309,479,528,312,393,332,285,466,0
2,1773251287936,2818,-1856,29858,-6146526,1963320,2243097,0,0,0,254,445,199,367,398,381,365,329,275,133,132,192,0
1,1773251287952,-2306,157,9897,404392,-86742,173485,0,0,0,370,428,292,458,335,492,532,295,405,325,283,483,0
2,1773251287952,3713,-9303,30476,-5915618,1927890,2349387,0,0,0,256,444,197,370,400,382,369,328,277,136,133,190,0
1,1773251287968,-2445,95,9973,474031,-72082,229685,0,0,0,375,440,280,475,348,496,530,272,407,319,267,495,0
2,1773251287968,3603,-18501,28643,-5477017,1770287,1962099,0,0,0,257,443,196,374,403,386,371,328,282,137,133,192,0
1,1773251287984,-2522,71,10256,579100,-74525,307876,0,0,0,390,452,262,500,365,499,520,257,397,310,238,515,0
2,1773251287984,1756,-28456,23316,-4469090,1540602,1083674,0,0,0,262,445,199,376,402,390,372,330,286,139,133,194,0
1,1773251288000,-2431,67,10758,750142,-73303,378736,0,0,0,397,473,260,504,392,508,506,250,397,298,224,534,0
2,1773251288000,-3656,-34170,18109,-2779436,1447750,83077,0,0,0,262,444,197,377,401,390,376,328,288,139,132,193,0
2,1773251288016,-9064,-37070,15812,-1218065,988379,-619417,0,0,0,255,440,190,375,399,385,381,340,281,139,140,187,0
1,1773251288032,-1761,-114,11998,1308473,-204028,414166,0,0,0,415,498,247,523,418,523,468,211,432,367,201,530,0
2,1773251288032,-9758,-36032,15955,233350,-111177,-913854,0,0,0,247,434,177,370,401,376,394,393,267,176,191,179,0
1,1773251288048,-1818,-229,12510,1649336,-299323,375071,0,0,0,417,500,230,535,437,534,424,195,431,279,179,565,0
2,1773251288048,-5474,-23886,19018,1886351,-1462411,-928515,0,0,0,240,423,159,364,395,366,419,451,256,213,251,173,0
1,1773251288064,-2493,-335,13007,2057394,-346971,381179,0,0,0,412,507,198,520,431,566,389,189,442,273,179,575,0
2,1773251288064,2019,1531,16731,3281568,-2955366,-559552,0,0,0,238,408,147,346,378,353,452,467,257,193,273,165,0
1,1773251288080,-3153,-282,13778,2565634,-323758,503352,0,0,0,427,480,174,523,439,555,353,184,435,268,179,571,0
2,1773251288080,5484,11911,11720,4265061,-3649308,-15882,0,0,0,247,394,156,324,383,353,477,477,268,192,306,161,0
1,1773251288096,-3804,-268,14802,3165503,-216246,681725,0,0,0,446,500,184,503,439,550,320,160,442,236,147,571,0
2,1773251288096,2191,3776,12294,4934569,-2751337,514348,0,0,0,254,402,157,367,361,379,497,497,272,206,355,160,0
1,1773251288112,-4733,-215,16061,3827681,-39095,918741,0,0,0,435,489,199,495,445,545,278,161,450,230,138,553,0
2,1773251288112,-2794,-1631,18157,4715879,-1240056,503352,0,0,0,257,405,160,376,363,389,514,515,280,255,400,160,0
1,1773251288128,-5896,9,18344,4674340,158824,1279151,0,0,0,431,463,202,483,394,540,266,142,458,198,106,521,0
2,1773251288128,-2890,86,20057,3910759,-563217,-61086,0,0,0,263,418,192,382,363,400,538,536,288,306,439,175,0
1,1773251288144,-7312,-229,21196,5495343,309097,1635897,0,0,0,412,441,226,455,360,521,241,135,429,170,100,445,0
2,1773251288144,914,1770,17219,2912605,-476474,-397062,0,0,0,273,430,230,390,370,409,550,551,291,291,435,187,0
1,1773251288160,-8695,-220,23838,6302907,395840,2063502,0,0,0,365,412,208,411,328,469,238,143,362,154,109,355,0
2,1773251288160,2282,708,13137,1793500,-323758,-74525,0,0,0,289,452,264,390,369,406,564,564,297,305,437,204,0
1,1773251288176,-8657,358,25455,6934542,504574,2460565,0,0,0,320,384,188,373,288,408,246,169,306,157,138,289,0
1,1773251288192,-7489,1746,26283,7442782,769690,2745228,0,0,0,279,350,189,329,248,347,261,206,272,168,189,206,0
2,1773251288192,990,536,10480,536339,-294437,167377,0,0,0,316,463,299,397,375,414,573,573,304,326,450,239,0
1,1773251288208,-8413,3397,24876,7889935,1037249,2895501,0,0,0,252,311,187,290,209,295,297,233,254,175,230,131,0
2,1773251288208,942,813,10547,398284,-370184,100181,0,0,0,328,469,312,405,380,423,577,577,312,331,455,243,0
2,1773251288224,918,794,10547,276111,-342084,58643,0,0,0,334,471,333,405,383,431,585,584,319,332,459,244,0
1,1773251288240,-11198,12146,11356,6753726,659734,3240029,0,0,0,257,300,211,280,190,291,317,250,261,181,253,137,0
2,1773251288240,890,866,10452,158824,-241902,36651,0,0,0,337,474,336,399,382,427,595,595,327,332,462,243,0
1,1773251288256,-8011,18808,10117,3624874,389732,2537534,0,0,0,252,301,221,281,193,309,314,252,265,182,253,149,0
2,1773251288256,923,1076,10299,94073,-160046,8552,0,0,0,341,476,325,399,381,423,596,595,328,331,461,245,0
1,1773251288272,-4556,19449,10495,-828333,945619,427605,0,0,0,252,302,217,289,194,301,329,256,258,191,251,139,0
2,1773251288272,909,1239,10208,95294,-119729,-10995,0,0,0,343,482,326,402,387,428,587,587,321,333,456,256,0
1,1773251288288,-5460,13850,8494,-3725056,1629788,-1359786,0,0,0,246,302,239,281,192,330,324,255,274,186,251,164,0
2,1773251288288,856,1368,10165,167377,-67195,-23212,0,0,0,345,491,324,403,394,430,583,583,317,337,449,263,0
1,1773251288304,-8738,7178,5202,-4268726,1302364,-1690874,0,0,0,236,304,237,282,196,317,328,257,265,183,253,151,0
2,1773251288304,875,1344,10117,250454,-14660,-25656,0,0,0,350,488,327,406,386,428,584,584,312,329,428,262,0
1,1773251288320,-8011,5403,4589,-4123340,200363,-1077566,0,0,0,236,308,232,283,201,311,335,263,261,184,257,141,0
2,1773251288320,947,1196,10002,288328,4886,-17104,0,0,0,361,486,341,410,382,429,577,578,300,297,383,266,0
1,1773251288336,-5857,5269,5723,-4403116,-323758,-722042,0,0,0,237,308,213,287,203,301,335,264,254,186,262,131,0
2,1773251288336,1024,1139,9901,302989,0,-7330,0,0,0,361,484,333,409,384,436,577,577,323,279,361,280,0
1,1773251288352,-5034,5144,7403,-5049412,-255341,-802676,0,0,0,237,307,205,290,205,298,331,263,252,188,266,129,0
2,1773251288352,1067,1153,9868,327423,-35430,-2443,0,0,0,367,487,334,411,384,434,582,577,310,278,350,283,0
1,1773251288368,-4886,4556,8963,-5640729,-377514,-1016479,0,0,0,236,309,207,289,209,297,330,267,254,189,268,130,0
2,1773251288368,1000,1019,9873,346971,-68416,-7330,0,0,0,365,492,331,408,402,432,575,571,319,265,308,298,0
1,1773251288384,-4489,3780,10490,-6090326,-685390,-1293812,0,0,0,236,310,207,287,208,294,336,270,253,191,265,127,0
2,1773251288384,918,885,9873,329867,-70860,-20769,0,0,0,364,496,331,412,416,437,571,566,325,262,301,307,0
1,1773251288400,-4335,2603,11945,-6407976,-963945,-1550375,0,0,0,237,309,208,288,202,294,340,267,251,194,259,123,0
2,1773251288400,914,856,9868,289550,-46425,-35430,0,0,0,367,496,333,412,410,435,579,552,324,261,288,318,0
1,1773251288416,-4369,1225,13457,-6536258,-1249830,-1620014,0,0,0,240,310,210,291,204,296,340,266,252,198,259,124,0
2,1773251288416,1019,890,9853,265115,-42760,-45204,0,0,0,372,501,336,420,412,447,574,537,330,268,289,324,0
1,1773251288448,-3943,-191,17439,-6327342,-1721418,-1127657,0,0,0,234,312,210,290,204,297,342,267,253,193,257,122,0
2,1773251288448,1024,866,9873,317649,-138055,-48869,0,0,0,401,505,343,430,414,463,565,514,346,285,281,368,0
1,1773251288464,-3632,-574,19999,-6261368,-1842369,-912632,0,0,0,234,312,211,293,208,299,344,267,252,200,259,123,0
2,1773251288464,885,770,9944,359188,-160046,-47647,0,0,0,415,512,353,436,417,465,585,488,345,264,249,385,0
1,1773251288480,-4063,-1229,22206,-6227160,-1799608,-1132544,0,0,0,231,310,247,257,239,299,339,263,259,200,255,124,0
2,1773251288480,808,689,10035,383623,-122173,-47647,0,0,0,432,516,351,448,418,471,589,474,352,254,216,407,0
1,1773251288496,-5082,-2316,24335,-6130643,-1838704,-1666440,0,0,0,242,316,222,293,204,295,341,256,251,203,250,120,0
2,1773251288496,856,655,10083,411723,-70860,-52534,0,0,0,447,525,352,457,428,485,586,459,357,248,197,425,0
1,1773251288512,-5407,-4446,26647,-5981592,-2114815,-2333505,0,0,0,241,318,220,291,202,295,346,267,255,204,246,126,0
2,1773251288512,961,655,10098,465479,-45204,-64751,0,0,0,451,535,365,459,435,498,586,430,364,247,180,458,0
1,1773251288528,-5326,-8384,28552,-5833763,-2261423,-2787988,0,0,0,238,317,222,291,200,299,346,273,259,190,242,127,0
2,1773251288528,1038,603,10203,558330,-42760,-86742,0,0,0,464,538,359,469,442,500,593,396,377,303,195,476,0
1,1773251288544,-6671,-14591,27939,-5679824,-1992642,-2649933,0,0,0,228,312,247,291,197,313,355,276,269,194,241,131,0
2,1773251288544,1119,545,10404,658512,-34208,-114842,0,0,0,474,549,358,478,458,505,589,366,395,440,230,495,0
1,1773251288560,-7441,-22914,23340,-5231449,-1898569,-1532050,0,0,0,228,316,228,292,203,309,348,278,271,196,246,131,0
2,1773251288560,1239,483,10677,789237,-17104,-151494,0,0,0,495,554,367,485,468,513,569,319,396,259,162,537,0
1,1773251288576,-942,-30342,18147,-4249178,-2284635,-4886,0,0,0,232,319,210,294,207,304,345,280,264,191,246,128,0
2,1773251288576,1273,411,10969,973719,7330,-193033,0,0,0,510,569,372,502,477,529,541,288,400,262,170,560,0
1,1773251288592,9877,-35501,15668,-2785545,-1841147,790459,0,0,0,232,319,211,292,212,301,349,281,259,190,245,127,0
2,1773251288592,1258,354,11385,1229060,19547,-228463,0,0,0,521,571,371,521,502,545,519,249,392,274,174,593,0
1,1773251288608,14328,-39023,14280,-1235169,-514348,1018923,0,0,0,230,317,209,287,214,297,341,276,257,198,255,124,0
2,1773251288608,1277,282,12060,1546710,12217,-257785,0,0,0,529,567,334,530,511,551,480,239,415,265,166,599,0
1,1773251288624,10078,-36635,13663,248011,852767,1031140,0,0,0,232,309,198,295,201,297,354,298,253,225,306,115,0
2,1773251288624,1407,148,13194,2015855,-42760,-293215,0,0,0,524,575,291,542,511,555,435,222,408,264,168,612,0
1,1773251288640,2574,-22301,15960,1809382,1860695,926071,0,0,0,238,289,184,310,188,292,435,397,246,282,399,98,0
2,1773251288640,1545,-19,14170,2560747,-138055,-338419,0,0,0,529,578,253,528,521,563,395,226,403,262,176,607,0
1,1773251288656,-4379,2656,16458,3211929,3087312,294437,0,0,0,241,267,157,286,165,257,448,451,246,321,412,89,0
2,1773251288656,1469,28,15108,3270572,-212581,-420275,0,0,0,534,575,229,520,536,560,341,222,397,288,215,616,0
1,1773251288688,928,4446,14261,5049412,2552194,-810007,0,0,0,273,263,152,328,160,264,476,477,247,403,441,85,0
2,1773251288688,2364,210,17975,4699997,-254119,-603534,0,0,0,543,558,228,501,518,562,283,198,403,232,155,568,0
1,1773251288704,5264,-3211,21143,5088507,827111,-130725,0,0,0,259,272,190,310,166,273,513,512,234,434,477,92,0
2,1773251288704,3833,402,21373,5629734,-287106,-836885,0,0,0,520,543,231,493,505,554,287,184,394,220,143,507,0
1,1773251288720,277,-1526,21631,3610213,193033,665843,0,0,0,262,296,226,326,196,305,519,519,245,448,481,106,0
2,1773251288720,4991,516,25431,6535036,-456927,-1086118,0,0,0,466,530,215,485,494,524,292,187,381,208,134,431,0
1,1773251288736,-4412,153,16391,1984090,72082,527787,0,0,0,267,301,241,336,202,330,523,519,257,459,493,136,0
2,1773251288736,5747,1067,28202,7391469,-591317,-1321912,0,0,0,394,511,180,463,476,482,279,183,355,198,133,372,0
1,1773251288752,-3412,507,10547,972497,54977,-85521,0,0,0,288,318,264,347,212,329,537,524,267,478,511,160,0
2,1773251288752,5551,1990,29427,8167268,-425162,-1565036,0,0,0,343,476,167,418,434,434,295,236,302,178,131,318,0
1,1773251288768,-1962,301,8805,467922,81855,-234572,0,0,0,297,335,282,351,224,336,544,538,285,493,525,189,0
2,1773251288768,6188,2699,28087,8754920,190589,-1855808,0,0,0,292,443,176,366,395,386,322,278,274,142,125,246,0
1,1773251288784,-1780,229,9839,168598,194255,-97738,0,0,0,309,354,309,362,223,350,556,547,282,502,536,206,0
2,1773251288784,7743,4106,23115,8944288,808785,-2256536,0,0,0,264,431,192,350,380,372,344,305,276,122,118,194,0
1,1773251288800,-2139,780,10461,31764,256563,-19547,0,0,0,321,351,342,370,219,365,569,545,280,505,545,223,0
2,1773251288800,8403,9155,14591,7927809,697608,-2844188,0,0,0,258,436,204,352,388,390,344,316,283,119,124,210,0
1,1773251288816,-2124,1234,10299,67195,228463,-6108,0,0,0,324,335,364,372,221,378,575,545,287,510,550,244,0
2,1773251288816,5738,16022,11347,4599815,-235793,-2944370,0,0,0,260,435,190,359,392,375,350,316,271,123,123,191,0
1,1773251288832,-1890,1306,10150,205250,130725,6108,0,0,0,324,340,368,380,225,381,577,546,286,513,549,254,0
2,1773251288832,2756,19928,11179,-599869,-1159422,-1899790,0,0,0,264,439,192,359,392,374,351,318,266,125,127,189,0
1,1773251288848,-1823,1196,10294,307876,18325,31764,0,0,0,329,350,366,388,235,387,572,530,295,495,538,266,0
2,1773251288848,2675,14477,10423,-4262617,-1620014,-224798,0,0,0,259,437,191,358,392,373,352,322,268,126,129,189,0
1,1773251288864,-1866,1167,10327,370184,-98960,57421,0,0,0,336,359,375,401,239,402,571,515,296,476,532,282,0
2,1773251288864,5020,6613,6312,-4640132,-1495398,691499,0,0,0,256,440,195,356,392,373,353,322,267,126,130,189,0
2,1773251288880,6393,3833,3646,-4131892,-901637,827111,0,0,0,254,441,195,358,393,376,353,322,267,127,133,190,0
1,1773251288896,-1986,1028,9767,432492,-252898,68416,0,0,0,344,369,376,393,241,403,568,475,340,442,477,307,0
2,1773251288896,5570,5446,4020,-4061032,-140499,634078,0,0,0,252,441,195,358,394,376,353,323,266,132,148,190,0
1,1773251288912,-2110,880,9562,397062,-232128,72082,0,0,0,340,368,367,398,239,396,566,460,331,428,456,314,0
2,1773251288912,3819,7078,6159,-4910134,232128,604756,0,0,0,252,440,193,360,394,374,355,325,266,135,153,190,0
1,1773251288928,-2167,789,9183,318871,-152716,79412,0,0,0,342,372,364,423,241,386,559,441,309,427,440,308,0
2,1773251288928,3326,6623,7461,-5679824,357967,648738,0,0,0,253,440,193,362,395,374,359,327,266,133,142,189,0
1,1773251288944,-2105,794,8810,213802,-34208,86742,0,0,0,348,380,359,424,235,382,556,436,312,410,428,318,0
2,1773251288944,3479,4910,8188,-6024352,664621,592539,0,0,0,256,442,196,353,402,370,361,328,266,132,137,188,0
1,1773251288960,-2033,823,9174,200363,9773,90408,0,0,0,346,377,354,413,232,401,550,426,321,398,407,337,0
2,1773251288960,2957,3823,9116,-6040235,1054353,498466,0,0,0,257,443,197,346,405,366,361,328,265,134,141,190,0
1,1773251288976,-1971,837,9710,259006,-19547,87964,0,0,0,338,381,350,402,253,410,548,415,321,397,397,343,0
2,1773251288976,2139,3579,10433,-5984035,1282817,492357,0,0,0,255,441,197,361,393,376,362,327,268,131,141,190,0
1,1773251288992,-1928,804,9743,279776,-40317,85521,0,0,0,335,382,349,400,261,417,544,396,328,390,390,350,0
2,1773251288992,1890,3933,12251,-6087882,1348790,609643,0,0,0,256,442,199,365,396,381,358,325,272,129,135,192,0
1,1773251289008,-1904,741,9638,273667,-46425,83077,0,0,0,339,374,350,403,252,431,546,377,337,384,376,363,0
2,1773251289008,2230,4278,14347,-6362772,1424537,748920,0,0,0,257,442,197,365,396,377,350,325,266,129,134,186,0
1,1773251289024,-1909,708,9633,272445,-46425,76969,0,0,0,342,368,352,405,258,436,550,370,341,382,359,374,0
2,1773251289024,3038,3857,16764,-6687752,1594358,818559,0,0,0,257,442,202,364,394,381,362,328,280,131,136,191,0
1,1773251289040,-1957,713,9810,313984,-58643,74525,0,0,0,347,371,360,409,262,435,540,367,357,361,343,396,0
2,1773251289040,3790,3129,19325,-6860016,1809382,818559,0,0,0,259,442,202,362,389,378,366,328,278,131,137,190,0
1,1773251289056,-2033,679,9964,383623,-81855,90408,0,0,0,357,373,369,410,265,453,538,352,362,355,324,418,0
2,1773251289056,4292,2694,22799,-6941872,2029294,860098,0,0,0,257,442,200,365,393,380,369,330,273,126,133,184,0
1,1773251289072,-2134,569,9920,464257,-106290,134390,0,0,0,368,384,363,426,278,463,544,312,370,335,302,442,0
1,1773251289088,-2215,521,9901,533896,-124616,184481,0,0,0,375,400,359,438,292,469,526,276,373,312,269,462,0
2,1773251289088,5427,-1545,30710,-7128797,2302961,1914451,0,0,0,260,441,198,371,395,379,370,325,271,131,134,183,0
2,1773251289104,4910,-9485,32242,-6822142,2851518,2453234,0,0,0,264,439,194,384,393,381,378,325,275,135,131,182,0
1,1773251289120,-2359,435,10457,767246,-207694,315206,0,0,0,382,424,326,483,352,506,511,240,396,299,237,490,0
2,1773251289120,2100,-22459,32112,-5837428,2751337,2329840,0,0,0,269,439,192,391,391,382,383,323,278,141,130,182,0
1,1773251289136,-2435,272,10854,933402,-227241,373849,0,0,0,394,432,290,500,377,513,498,213,413,297,204,528,0
2,1773251289136,1201,-32701,27178,-4660901,1728748,1611462,0,0,0,272,441,194,391,391,381,385,322,279,143,129,183,0
1,1773251289152,-2546,205,11414,1137431,-218689,417831,0,0,0,387,449,267,520,389,542,483,204,447,282,189,547,0
2,1773251289152,-459,-39884,18913,-2818532,1037249,45204,0,0,0,261,434,181,380,389,374,392,365,274,147,155,180,0
1,1773251289168,-2316,134,12017,1451415,-215024,458148,0,0,0,405,475,264,521,399,551,451,204,457,272,187,554,0
2,1773251289168,-6968,-44570,17693,-976162,746477,-1297477,0,0,0,245,416,158,363,381,364,410,443,263,168,229,170,0
1,1773251289184,-1852,-9,12438,1787391,-227241,452040,0,0,0,412,491,246,527,410,552,409,193,459,265,176,561,0
2,1773251289184,-16085,-46819,23268,1466076,-1017701,-1342681,0,0,0,246,397,155,361,367,364,437,479,259,232,334,155,0
1,1773251289200,-2077,-95,13022,2185675,-239459,400727,0,0,0,420,501,213,529,431,548,367,179,452,257,160,566,0
2,1773251289200,-7958,-18568,20435,4415333,-3602883,-393397,0,0,0,246,379,154,351,350,363,460,493,253,319,428,146,0
1,1773251289216,-3187,9,13888,2733011,-186924,438601,0,0,0,444,502,189,531,438,550,338,183,429,249,156,569,0
2,1773251289216,2512,9447,16654,5334075,-3892433,246789,0,0,0,260,390,164,355,361,373,492,493,270,230,378,151,0
1,1773251289232,-4240,43,15046,3345098,0,643851,0,0,0,451,497,189,534,430,555,307,186,426,251,154,561,0
2,1773251289232,727,6824,17808,4982216,-1948660,228463,0,0,0,260,400,161,326,394,361,501,501,273,252,409,162,0
1,1773251289248,-5336,105,16769,4131892,239459,971275,0,0,0,439,506,206,525,434,547,282,170,453,253,136,539,0
2,1773251289248,-2689,-842,21263,4515515,-431270,-72082,0,0,0,264,416,193,370,365,397,515,514,280,267,417,172,0
1,1773251289264,-6369,239,19516,5009094,416610,1370781,0,0,0,442,499,213,528,414,543,298,170,446,227,112,507,0
2,1773251289264,-918,-1957,20502,3480710,20769,-328645,0,0,0,282,433,232,388,370,403,525,525,289,293,405,196,0
1,1773251289280,-7901,-23,22751,5867971,563217,1760513,0,0,0,413,470,219,476,390,509,225,148,433,180,105,434,0
2,1773251289280,2321,741,14046,2046398,-109955,-123394,0,0,0,312,460,273,397,380,422,538,538,300,292,406,236,0
1,1773251289296,-9700,47,25412,6671870,701273,2197893,0,0,0,349,437,216,379,334,461,218,158,370,144,111,364,0
2,1773251289296,2469,1253,9815,987158,-243124,119729,0,0,0,339,476,298,405,390,436,551,551,305,296,405,262,0
1,1773251289312,-9609,923,26838,7340156,864985,2676811,0,0,0,288,405,192,345,318,382,233,240,307,148,168,300,0
2,1773251289312,1258,406,9437,295658,-376292,161268,0,0,0,365,487,310,415,398,444,560,560,308,308,414,282,0
1,1773251289328,-8762,2780,28006,7872831,1058018,3021339,0,0,0,252,355,195,303,249,318,271,239,264,164,206,201,0
2,1773251289328,650,607,10629,-57421,-480140,46425,0,0,0,379,499,332,417,398,449,571,570,310,314,416,295,0
1,1773251289344,-10571,5288,25020,8252789,1434311,3216816,0,0,0,263,302,201,294,198,287,326,240,252,192,226,140,0
2,1773251289344,689,1316,10768,-117286,-400727,3665,0,0,0,383,506,342,419,399,451,580,579,312,316,415,300,0
1,1773251289360,-13467,8528,18009,8239350,1605353,3489262,0,0,0,263,299,198,298,196,288,338,265,253,189,245,127,0
2,1773251289360,918,1746,10433,-46425,-200363,10995,0,0,0,392,511,334,422,405,450,580,580,315,320,416,305,0
1,1773251289376,-13874,13558,12088,7040832,1010371,3648087,0,0,0,258,307,195,306,206,295,326,273,254,189,252,129,0
2,1773251289376,981,1780,10284,58643,-75747,7330,0,0,0,405,518,327,423,407,448,582,582,321,319,415,314,0
1,1773251289392,-8111,19880,11409,3015230,241902,2102598,0,0,0,254,312,195,303,211,296,322,275,252,190,252,130,0
2,1773251289392,938,1727,10232,168598,-30543,-14660,0,0,0,410,523,324,423,409,450,587,588,328,314,407,322,0
1,1773251289408,-3924,20392,11304,-1522276,521678,-535117,0,0,0,257,314,193,305,210,294,336,277,246,191,255,129,0
2,1773251289408,961,1689,10160,256563,-1221,-34208,0,0,0,410,522,323,428,417,455,578,579,316,316,395,334,0
1,1773251289424,-6192,12878,9026,-4520402,1328021,-2918714,0,0,0,256,314,194,306,209,293,347,279,243,193,259,128,0
2,1773251289424,1000,1622,10059,311541,18325,-41538,0,0,0,421,527,328,430,414,459,578,579,306,316,379,349,0
1,1773251289440,-8791,7365,6044,-4368908,493579,-2620611,0,0,0,248,316,204,299,209,296,341,282,249,191,261,129,0
2,1773251289440,1009,1545,9973,332310,19547,-42760,0,0,0,423,527,353,427,414,459,571,567,313,316,362,357,0
1,1773251289456,-6628,5412,5025,-4058588,-757472,-1584584,0,0,0,247,319,215,299,209,300,338,281,250,192,261,131,0
2,1773251289456,1014,1488,9920,339641,17104,-43982,0,0,0,420,530,313,435,422,458,572,555,310,301,329,372,0
1,1773251289472,-3460,6092,6671,-4547280,-689055,-1143539,0,0,0,251,322,206,309,206,294,361,279,242,204,260,128,0
2,1773251289472,1028,1450,9858,334754,14660,-48869,0,0,0,424,534,319,434,430,461,564,540,315,293,320,367,0
1,1773251289488,-2613,6101,8686,-5439144,-254119,-1006705,0,0,0,256,317,198,326,205,288,390,280,239,208,260,127,0
2,1773251289488,1076,1421,9806,324980,-2443,-51312,0,0,0,429,542,319,445,433,469,563,529,321,289,304,378,0
1,1773251289504,-3129,5072,9925,-6045122,-376292,-944397,0,0,0,254,322,205,311,222,296,348,288,249,189,267,130,0
2,1773251289504,1129,1402,9830,331088,-35430,-54977,0,0,0,434,539,317,449,434,473,555,500,325,282,283,400,0
1,1773251289520,-2665,3895,11284,-6407976,-709825,-856433,0,0,0,254,320,205,319,208,296,369,281,244,209,263,125,0
2,1773251289520,1129,1359,9882,356745,-70860,-62308,0,0,0,451,541,317,449,434,470,553,478,328,283,270,403,0
2,1773251289536,1043,1301,9911,387288,-85521,-67195,0,0,0,466,541,314,460,443,477,546,452,330,298,266,415,0
1,1773251289552,-1675,2526,14658,-6583905,-992045,-878424,0,0,0,254,320,207,318,208,298,342,288,258,199,264,130,0
2,1773251289552,976,1258,9949,415388,-76969,-67195,0,0,0,469,543,315,466,450,486,540,425,335,301,258,440,0
1,1773251289568,-1823,2134,16659,-6684087,-1198517,-835663,0,0,0,253,318,207,320,209,300,337,286,259,198,264,130,0
2,1773251289568,1009,1215,10007,443488,-64751,-61086,0,0,0,474,551,320,465,454,493,535,404,343,290,241,467,0
1,1773251289584,-1359,1469,19277,-6776938,-1451415,-759916,0,0,0,253,319,206,318,211,299,337,287,257,199,265,130,0
1,1773251289600,-1335,804,21636,-6803817,-1490511,-858876,0,0,0,254,320,217,312,205,301,329,286,267,196,265,134,0
2,1773251289600,1115,981,10088,514348,-51312,-74525,0,0,0,491,566,323,477,467,508,533,357,364,262,174,510,0
1,1773251289616,-2943,-167,24584,-6761056,-1397659,-1298699,0,0,0,254,320,222,315,200,306,333,287,276,198,262,137,0
2,1773251289616,1206,875,10169,553443,-39095,-98960,0,0,0,501,576,323,486,475,503,508,323,365,279,183,534,0
1,1773251289632,-5312,-2258,27657,-6714630,-1516167,-2012190,0,0,0,257,320,218,326,199,304,356,279,274,209,271,134,0
2,1773251289632,1421,813,10289,607200,-34208,-141720,0,0,0,514,577,331,491,482,504,490,296,378,307,197,565,0
1,1773251289648,-6925,-7288,30672,-6627887,-1770287,-2765997,0,0,0,251,323,217,323,199,303,365,268,269,212,278,130,0
2,1773251289648,1507,794,10514,712268,-72082,-213802,0,0,0,518,585,344,494,490,522,480,271,389,298,186,573,0
1,1773251289664,-7609,-17846,30562,-6020687,-1894903,-3139847,0,0,0,240,326,214,314,200,303,356,264,261,209,267,126,0
2,1773251289664,1440,746,10782,849102,-120951,-272445,0,0,0,521,594,342,514,521,537,464,254,394,278,183,584,0
1,1773251289680,-7585,-26862,26915,-5225341,-1907121,-2711019,0,0,0,257,324,205,338,198,298,369,255,253,223,272,122,0
2,1773251289680,1282,641,11265,1053131,-150272,-312763,0,0,0,533,602,330,521,507,549,448,243,399,262,167,604,0
1,1773251289696,-2541,-31849,21852,-4569271,-2155132,-1588249,0,0,0,263,331,207,340,201,298,372,263,258,222,262,123,0
2,1773251289696,1024,612,11964,1352455,-140499,-322536,0,0,0,539,596,300,521,534,561,416,236,415,260,172,604,0
1,1773251289712,6590,-36405,16712,-3277902,-1727526,-337197,0,0,0,254,332,201,336,208,298,363,265,258,219,265,121,0
2,1773251289712,741,660,12577,1727526,-116064,-301767,0,0,0,555,605,294,539,533,561,391,235,394,266,180,615,0
1,1773251289728,9830,-41469,13457,-1600466,-679282,753807,0,0,0,220,318,185,294,208,290,343,297,253,235,340,121,0
2,1773251289728,507,617,13065,2150245,-84299,-246789,0,0,0,572,608,290,536,533,567,357,234,400,251,164,611,0
1,1773251289744,10490,-42703,15740,416610,675616,1479515,0,0,0,252,295,187,302,190,272,420,428,232,285,398,98,0
2,1773251289744,617,497,13945,2693915,-48869,-158824,0,0,0,580,604,264,534,553,567,323,239,408,262,174,607,0
2,1773251289760,1421,397,14773,3281568,-56199,-127059,0,0,0,590,603,242,527,549,566,292,241,415,256,180,610,0
1,1773251289776,-4187,3498,16118,5411044,3222925,598647,0,0,0,255,271,152,320,171,253,467,467,232,373,429,95,0
2,1773251289776,2402,287,15750,3931528,-153938,-241902,0,0,0,594,599,240,516,541,564,276,233,411,245,180,610,0
1,1773251289792,-3804,7973,16946,5682268,1952325,-18325,0,0,0,256,280,156,324,174,266,482,482,239,395,452,93,0
2,1773251289792,3335,177,17209,4631580,-291993,-441044,0,0,0,583,590,246,509,537,558,299,252,409,233,167,583,0
1,1773251289808,1397,593,20468,5422039,417831,18325,0,0,0,251,288,184,325,184,309,498,498,268,422,466,112,0
2,1773251289808,4498,-425,20124,5474574,-436157,-758694,0,0,0,556,569,246,500,526,550,306,239,413,215,145,528,0
1,1773251289824,1746,-3263,22167,4362799,-134390,542448,0,0,0,256,295,229,336,194,324,511,511,278,443,476,127,0
2,1773251289824,4982,-387,25135,6327342,-516791,-1083674,0,0,0,505,545,233,483,508,531,263,167,395,205,134,459,0
1,1773251289840,-2794,-1660,17396,2454456,-36651,518013,0,0,0,262,298,248,349,207,330,542,542,268,452,498,146,0
1,1773251289856,-4178,325,11021,951728,26878,-17104,0,0,0,274,310,249,354,216,351,570,569,266,464,523,177,0
2,1773251289856,6996,2206,30255,7790975,-729373,-1574810,0,0,0,346,482,165,420,446,430,294,208,308,180,126,336,0
1,1773251289872,-2335,363,8987,397062,46425,-206472,0,0,0,298,332,266,360,213,354,565,569,269,490,538,193,0
2,1773251289872,8418,3819,30485,8467813,-593761,-1935221,0,0,0,286,440,181,368,400,382,318,263,265,139,117,255,0
1,1773251289888,-1770,248,9629,111177,144164,-116064,0,0,0,306,328,276,369,213,355,570,578,270,517,558,208,0
2,1773251289888,10093,5178,26948,8864876,37873,-2399478,0,0,0,256,435,198,344,384,362,333,298,265,125,131,195,0
1,1773251289904,-2043,727,10399,-48869,230907,-21991,0,0,0,313,328,276,373,214,367,576,576,275,530,558,235,0
2,1773251289904,10629,8260,17889,8352971,233350,-3174055,0,0,0,256,442,202,354,393,374,341,305,274,123,124,199,0
1,1773251289920,-2144,1196,10260,-34208,212581,-13439,0,0,0,321,344,300,375,218,376,584,587,277,527,563,250,0
2,1773251289920,7542,12194,13433,6332229,-673173,-3569896,0,0,0,249,437,200,358,395,375,334,306,262,127,129,193,0
1,1773251289936,-2005,1383,10021,108734,136833,-3665,0,0,0,324,358,281,411,266,367,577,577,278,530,561,266,0
2,1773251289936,3785,17654,10978,2050063,-1853365,-2750115,0,0,0,252,439,194,360,401,368,339,309,252,128,131,185,0
1,1773251289952,-1842,1273,10193,262672,41538,31764,0,0,0,324,351,293,398,239,378,577,545,287,527,563,281,0
2,1773251289952,4503,15946,8504,-2960252,-1920560,-825889,0,0,0,250,437,189,359,400,361,346,314,249,128,130,180,0
2,1773251289968,5934,9791,6030,-5028642,-1086118,295658,0,0,0,253,437,190,365,399,366,348,314,249,130,130,181,0
1,1773251289984,-1947,1110,10054,404392,-140499,57421,0,0,0,329,365,289,405,243,388,576,508,304,485,546,312,0
2,1773251289984,5460,5613,3838,-4731762,-211359,477696,0,0,0,255,439,193,369,400,370,349,314,250,133,131,182,0
1,1773251290000,-2038,1033,9758,414166,-163711,54977,0,0,0,337,367,296,410,247,392,563,484,310,449,516,321,0
2,1773251290000,4402,4556,2995,-4278500,250454,474031,0,0,0,256,441,194,368,400,369,349,317,252,134,132,182,0
1,1773251290016,-2091,885,9734,362853,-117286,62308,0,0,0,340,375,309,413,245,403,551,455,313,432,488,340,0
2,1773251290016,3732,5297,3737,-4239404,480140,503352,0,0,0,257,441,194,366,399,367,350,317,252,134,133,182,0
1,1773251290032,-2091,770,10208,238237,-19547,80634,0,0,0,339,381,304,418,245,407,547,435,317,429,464,357,0
2,1773251290032,3570,5728,5049,-4612032,777020,532674,0,0,0,257,440,199,367,397,369,354,316,254,134,132,183,0
1,1773251290048,-2000,794,10059,245567,-20769,86742,0,0,0,336,381,288,419,256,409,546,424,318,420,444,361,0
2,1773251290048,2991,5699,6518,-5046968,1171639,538783,0,0,0,258,441,203,368,396,373,354,315,256,133,131,182,0
1,1773251290064,-1938,842,9609,321315,-84299,85521,0,0,0,327,376,285,414,260,414,550,405,321,402,436,371,0
2,1773251290064,2187,5163,8016,-5336518,1444085,563217,0,0,0,262,446,199,364,395,368,346,314,251,128,131,181,0
1,1773251290080,-1966,804,9533,331088,-89186,85521,0,0,0,329,376,289,414,264,413,549,396,340,396,421,381,0
2,1773251290080,1842,4766,9442,-5503895,1582140,590095,0,0,0,261,447,199,365,392,367,347,315,252,130,128,179,0
1,1773251290096,-1971,765,9643,306654,-53756,85521,0,0,0,326,383,305,416,278,426,536,408,339,381,400,394,0
2,1773251290096,1746,4757,11026,-5674938,1688431,593761,0,0,0,258,447,200,365,395,371,351,317,257,132,131,183,0
1,1773251290112,-1923,737,9729,290771,-25656,85521,0,0,0,323,392,312,416,276,441,532,366,339,397,383,412,0
2,1773251290112,1445,5063,13247,-5975483,1773952,612086,0,0,0,265,449,206,366,395,372,357,319,258,133,133,183,0
1,1773251290128,-1899,713,9767,306654,-26878,80634,0,0,0,331,404,298,432,288,432,523,365,348,359,352,411,0
2,1773251290128,1474,5106,15506,-6311459,1803274,670730,0,0,0,263,447,201,366,396,374,359,322,260,160,141,179,0
1,1773251290144,-1962,665,9839,350636,-41538,89186,0,0,0,364,434,297,424,290,464,530,374,379,359,343,455,0
2,1773251290144,2316,4661,18176,-6660874,1902234,736703,0,0,0,262,446,196,371,395,375,363,319,261,139,133,181,0
1,1773251290160,-2100,588,9897,409279,-48869,120951,0,0,0,349,435,281,438,325,457,524,351,361,352,323,460,0
2,1773251290160,3254,4168,21402,-6971194,2138028,810007,0,0,0,263,446,205,368,391,372,361,321,262,131,130,179,0
1,1773251290176,-2225,516,9906,469144,-37873,169820,0,0,0,368,442,300,446,316,462,532,310,363,330,293,464,0
2,1773251290176,3565,3881,25656,-7214318,2383596,1021366,0,0,0,264,446,202,369,394,371,364,318,260,128,129,177,0
2,1773251290192,3565,2450,30279,-7380473,2436130,1729970,0,0,0,265,446,200,370,394,371,367,318,263,130,128,178,0
1,1773251290208,-2373,454,10098,643851,-17104,315206,0,0,0,400,448,292,471,341,486,514,276,376,312,252,495,0
2,1773251290208,3876,-2512,33706,-7378030,2630385,2755002,0,0,0,266,446,198,372,397,376,367,315,266,130,124,178,0
1,1773251290224,-2431,378,10361,739146,0,387288,0,0,0,425,475,286,489,380,500,497,264,390,307,240,511,0
1,1773251290240,-2464,234,10710,868650,15882,477696,0,0,0,441,498,284,497,408,528,488,254,404,300,231,538,0
2,1773251290240,1435,-28241,34424,-6015800,2305405,3428175,0,0,0,267,447,196,376,397,382,372,314,275,131,126,180,0
1,1773251290256,-2234,114,11232,1051909,18325,546113,0,0,0,448,516,270,506,415,544,465,257,421,288,216,557,0
2,1773251290256,2861,-41502,25613,-4436103,959058,2184454,0,0,0,261,442,183,361,411,372,377,329,271,137,136,182,0
1,1773251290272,-1852,52,11931,1346346,2443,552222,0,0,0,452,530,260,526,421,549,425,237,432,284,199,560,0
2,1773251290272,-842,-47164,17784,-2240653,1021366,-72082,0,0,0,251,433,165,343,420,357,386,375,262,147,168,178,0
1,1773251290288,-1363,-4,12548,1703092,-13439,504574,0,0,0,465,531,254,539,446,558,392,185,432,283,180,565,0
2,1773251290288,-10988,-49509,19650,-78190,802676,-1694540,0,0,0,243,426,164,364,388,367,410,443,254,164,222,162,0
1,1773251290304,-1311,-81,13180,2117258,-42760,397062,0,0,0,485,534,210,543,454,558,360,178,449,277,171,572,0
2,1773251290304,-14773,-39468,23747,2767219,-1739744,-1655444,0,0,0,238,407,148,356,369,356,447,468,252,208,291,156,0
1,1773251290320,-2014,-100,13926,2616946,-72082,337197,0,0,0,479,529,200,530,451,571,293,179,448,252,163,571,0
2,1773251290320,248,-2033,18664,5092172,-4056145,-792903,0,0,0,245,397,149,357,365,363,452,490,257,267,404,146,0
1,1773251290336,-3407,-124,14711,3192381,-28099,427605,0,0,0,486,534,207,535,485,555,237,175,440,238,148,569,0
2,1773251290336,7116,11902,15242,5461135,-3607770,-78190,0,0,0,250,408,153,363,365,371,479,504,259,280,410,145,0
1,1773251290352,-4608,-95,15960,3876550,134390,717155,0,0,0,470,544,207,516,475,550,247,159,461,230,149,552,0
2,1773251290352,1344,3163,17894,5164254,-1583362,377514,0,0,0,258,411,159,374,369,381,507,506,273,233,378,154,0
1,1773251290368,-5532,-33,17855,4586376,298102,1067792,0,0,0,478,521,236,539,451,529,265,145,429,216,121,521,0
2,1773251290368,-3551,-2196,20617,4408003,-261450,268780,0,0,0,258,428,202,377,374,397,517,517,289,250,388,172,0
1,1773251290384,-6728,-440,20957,5414709,410501,1486845,0,0,0,474,462,241,492,393,509,245,131,401,181,97,456,0
2,1773251290384,-1287,-244,18516,3133738,-95294,-223576,0,0,0,277,445,243,350,413,392,531,531,293,279,409,193,0
1,1773251290400,-8552,-473,23799,6257703,527787,1933999,0,0,0,413,432,224,450,352,479,219,140,374,168,97,393,0
2,1773251290400,2416,1325,13902,1943773,-191811,-239459,0,0,0,300,464,278,396,397,424,542,542,299,285,409,233,0
2,1773251290416,2431,492,10796,856433,-201585,74525,0,0,0,328,478,294,412,394,434,560,560,301,305,403,280,0
1,1773251290432,-9073,1373,27623,7564955,1010371,2831971,0,0,0,277,377,200,345,276,360,239,200,288,175,175,255,0
2,1773251290432,1186,-9,10356,240680,-266337,161268,0,0,0,336,485,300,422,399,443,571,571,301,309,413,295,0
1,1773251290448,-8533,4154,27461,8081747,1193630,3121521,0,0,0,256,324,202,297,219,298,285,244,254,179,226,165,0
2,1773251290448,708,703,10576,21991,-294437,54977,0,0,0,348,494,309,428,404,451,579,578,307,311,435,291,0
1,1773251290464,-10524,6633,21674,8283332,1138652,3312111,0,0,0,271,300,212,292,193,275,309,272,242,175,259,127,0
2,1773251290464,952,1397,10442,-21991,-221133,-4886,0,0,0,366,501,324,424,404,452,579,579,315,320,451,289,0
1,1773251290480,-11782,9466,14630,7704232,719599,3491705,0,0,0,278,315,223,298,204,284,301,278,247,179,276,127,0
1,1773251290496,-7757,14759,11873,4515515,156381,2533869,0,0,0,269,319,209,300,211,292,310,285,250,183,274,131,0
2,1773251290496,1110,1531,10193,34208,-40317,-2443,0,0,0,371,500,322,431,404,446,587,589,313,315,419,319,0
1,1773251290512,-3005,17544,11873,-122173,605978,155159,0,0,0,266,319,202,304,210,291,316,296,242,187,273,129,0
2,1773251290512,1091,1584,10145,96516,-25656,-25656,0,0,0,374,504,324,433,400,447,585,589,313,313,403,335,0
1,1773251290528,-4493,13405,10251,-3308446,1673770,-2083050,0,0,0,272,319,203,312,207,287,332,299,242,192,276,132,0
2,1773251290528,1052,1646,10098,180816,-17104,-40317,0,0,0,376,508,325,432,400,451,583,583,323,305,392,321,0
1,1773251290544,-8815,7614,6255,-3761708,1191187,-2247984,0,0,0,272,318,198,316,207,284,340,297,241,196,275,125,0
2,1773251290544,1048,1612,10031,261450,6108,-43982,0,0,0,388,509,323,432,400,455,582,581,319,285,359,327,0
1,1773251290560,-8513,5005,4058,-3533244,-125838,-1398881,0,0,0,268,320,207,308,212,289,319,298,241,188,280,130,0
2,1773251290560,1105,1521,9949,311541,18325,-39095,0,0,0,385,512,323,438,406,462,580,572,319,271,323,351,0
1,1773251290576,-4417,5489,4876,-3650530,-792903,-643851,0,0,0,265,321,210,304,211,290,321,303,249,186,281,128,0
2,1773251290576,1134,1454,9882,340862,9773,-34208,0,0,0,394,522,324,436,408,453,578,553,318,264,306,365,0
1,1773251290592,-3350,6116,6609,-4389677,-323758,-657290,0,0,0,255,327,225,293,210,290,311,303,257,181,284,133,0
2,1773251290592,1139,1407,9844,359188,-2443,-35430,0,0,0,394,524,325,442,412,465,567,542,327,282,300,356,0
1,1773251290608,-4465,5920,7968,-5192354,-164933,-785572,0,0,0,252,329,232,291,211,291,308,302,254,180,286,134,0
2,1773251290608,1162,1354,9844,371406,-9773,-40317,0,0,0,396,523,323,448,425,468,565,531,324,295,295,371,0
2,1773251290624,1201,1273,9849,376292,-25656,-46425,0,0,0,404,526,326,448,422,467,559,510,323,272,281,372,0
1,1773251290640,-3938,3852,10452,-6014579,-1158200,-910189,0,0,0,251,328,221,291,214,296,314,305,252,181,289,133,0
2,1773251290640,1210,1201,9844,372627,-48869,-51312,0,0,0,409,525,317,456,423,469,558,494,333,258,261,379,0
1,1773251290656,-3369,2986,12141,-6211277,-1370781,-1102000,0,0,0,255,328,220,293,214,294,316,304,251,181,289,128,0
2,1773251290656,1191,1191,9820,372627,-76969,-58643,0,0,0,413,525,310,468,431,481,557,478,338,254,240,390,0
1,1773251290672,-3608,2392,14027,-6404311,-1484402,-1246165,0,0,0,254,329,224,293,215,294,311,302,250,183,287,127,0
2,1773251290672,1143,1172,9839,386066,-86742,-63529,0,0,0,428,529,314,472,437,490,555,458,341,252,223,403,0
1,1773251290688,-4350,1832,16257,-6616892,-1646892,-1257160,0,0,0,254,327,224,295,218,293,312,302,250,188,286,129,0
2,1773251290688,1110,1100,9906,399505,-83077,-61086,0,0,0,443,535,319,470,437,490,554,439,350,255,213,421,0
1,1773251290704,-4919,760,18894,-6785491,-1920560,-1110553,0,0,0,250,324,218,297,226,298,317,304,254,181,288,129,0
2,1773251290704,1115,1024,10007,421497,-73303,-57421,0,0,0,455,543,324,474,443,494,549,417,358,265,210,440,0
1,1773251290720,-4929,-397,21402,-6844134,-2152689,-1012814,0,0,0,257,324,222,303,217,299,326,302,253,185,286,127,0
2,1773251290720,1167,995,10093,463035,-61086,-62308,0,0,0,473,547,331,488,455,506,546,392,362,270,204,462,0
1,1773251290736,-4938,-1531,24235,-6736621,-2240653,-1207069,0,0,0,257,327,224,301,213,299,324,302,262,190,287,131,0
1,1773251290752,-5364,-2986,26925,-6528927,-2305405,-1699427,0,0,0,262,329,234,300,212,304,322,297,262,192,284,131,0
2,1773251290752,1325,813,10203,580321,2443,-118507,0,0,0,484,560,343,505,478,527,537,334,384,273,179,498,0
1,1773251290768,-5580,-5819,29442,-6271142,-2579073,-2419026,0,0,0,254,325,234,299,210,301,324,283,274,187,271,133,0
2,1773251290768,1550,751,10375,667064,36651,-177150,0,0,0,516,570,346,500,472,527,521,302,389,266,166,512,0
1,1773251290784,-4967,-12323,31012,-6026796,-2857627,-3023782,0,0,0,261,326,221,310,210,289,336,280,269,190,270,122,0
2,1773251290784,1603,708,10772,816115,36651,-245567,0,0,0,505,571,337,503,481,537,516,279,391,277,172,540,0
1,1773251290800,-5317,-21540,29284,-5791002,-2572964,-2994461,0,0,0,250,330,216,304,209,288,339,280,266,186,266,114,0
2,1773251290800,1579,636,11174,1033583,-1221,-294437,0,0,0,508,575,327,519,505,556,488,249,395,265,176,561,0
1,1773251290816,-5479,-31993,23077,-5222897,-2153910,-1944994,0,0,0,257,334,219,312,210,286,353,277,257,197,271,113,0
2,1773251290816,1497,555,11696,1285260,-6108,-333532,0,0,0,522,579,302,527,512,573,465,239,403,263,167,579,0
1,1773251290832,2187,-38841,17281,-3819129,-2400700,-334754,0,0,0,268,341,220,323,212,283,375,277,253,205,271,112,0
2,1773251290832,1172,536,12557,1650557,58643,-346971,0,0,0,537,590,293,524,520,570,439,233,405,261,172,589,0
2,1773251290848,990,469,13194,2064724,98960,-326202,0,0,0,546,592,268,532,536,568,405,226,406,267,171,604,0
1,1773251290864,14558,-43101,15051,-138055,1221,912632,0,0,0,259,318,211,313,195,278,351,291,255,220,321,112,0
2,1773251290864,1325,406,13955,2591290,53756,-284663,0,0,0,549,585,241,535,545,572,361,223,407,288,181,608,0
1,1773251290880,7652,-32586,17008,1478293,1706757,890641,0,0,0,254,288,171,302,178,264,405,378,247,282,401,107,0
2,1773251290880,2373,339,14907,3169168,-79412,-311541,0,0,0,550,581,226,524,539,575,316,224,406,282,185,606,0
1,1773251290896,-3680,-1407,17903,2965139,3286454,656069,0,0,0,248,272,147,280,164,241,458,450,237,326,420,94,0
2,1773251290896,3110,339,15931,3803246,-284663,-475253,0,0,0,556,580,229,512,533,573,282,217,409,251,174,605,0
1,1773251290912,-6379,15281,12825,3835011,4225965,98960,0,0,0,250,274,146,282,164,238,487,488,231,370,453,88,0
2,1773251290912,3737,459,17166,4630358,-508239,-719599,0,0,0,558,571,248,509,534,570,265,192,420,244,166,591,0
1,1773251290928,-746,6532,13663,4836830,3646865,-162490,0,0,0,250,270,140,302,168,249,513,513,233,446,497,92,0
2,1773251290928,4632,402,18923,5456248,-607200,-1007927,0,0,0,537,559,247,510,523,560,266,163,419,235,155,556,0
1,1773251290944,3598,-2814,21804,5056742,1511280,188146,0,0,0,248,273,143,318,162,270,516,515,246,451,487,91,0
2,1773251290944,4962,196,22861,6422637,-643851,-1345125,0,0,0,505,541,239,505,516,547,277,151,395,219,135,470,0
1,1773251290960,363,-1966,23220,3898541,324980,620639,0,0,0,262,291,164,340,184,265,527,528,227,460,502,87,0
2,1773251290960,5441,421,27106,7334048,-574213,-1568701,0,0,0,434,517,206,477,491,516,272,158,371,203,133,407,0
1,1773251290976,-3809,483,17243,2295631,79412,465479,0,0,0,261,285,227,329,179,295,540,540,258,476,512,115,0
2,1773251290976,6092,1660,29059,8046316,-191811,-1745852,0,0,0,353,487,169,436,451,463,288,184,331,195,131,359,0
1,1773251290992,-3144,890,11055,1368338,79412,12217,0,0,0,278,289,240,374,193,330,556,556,282,481,520,156,0
1,1773251291008,-2115,191,9337,899193,52534,-145385,0,0,0,297,298,259,378,192,359,561,561,301,485,529,200,0
2,1773251291008,6877,4493,27695,9043248,1056796,-2450791,0,0,0,257,433,193,355,392,371,333,294,276,123,122,204,0
1,1773251291024,-2053,263,10394,559552,53756,-92851,0,0,0,303,309,279,390,201,382,573,556,321,498,542,221,0
2,1773251291024,8131,8222,19037,8583878,952949,-3000570,0,0,0,248,439,198,371,399,385,340,307,279,125,126,199,0
1,1773251291040,-2220,871,10547,346971,65973,-34208,0,0,0,306,311,294,399,210,398,584,544,325,516,558,250,0
2,1773251291040,6039,14252,12567,6484945,-41538,-3325550,0,0,0,247,439,191,372,400,379,340,309,269,130,127,200,0
1,1773251291056,-2187,1215,9992,317649,73303,6108,0,0,0,312,329,293,404,224,409,583,531,323,515,560,294,0
2,1773251291056,2608,20602,11213,1782504,-1379333,-2383596,0,0,0,251,442,196,367,400,373,340,309,261,123,122,188,0
2,1773251291072,3187,17525,11490,-3376863,-1953547,-324980,0,0,0,252,441,196,369,401,376,345,313,261,126,128,185,0
1,1773251291088,-2019,1038,10165,426383,-4886,23212,0,0,0,326,367,305,409,239,411,578,497,344,498,523,347,0
2,1773251291088,4982,9389,9317,-5656612,-1914451,1000597,0,0,0,251,440,195,371,400,377,348,317,261,127,131,185,0
1,1773251291104,-2067,1153,11734,406836,-23212,53756,0,0,0,325,369,303,402,240,414,580,471,336,470,487,361,0
2,1773251291104,5747,4804,5991,-5138598,-1687209,968832,0,0,0,249,439,193,370,400,377,350,320,262,127,131,184,0
1,1773251291120,-1995,1139,12883,356745,-50090,89186,0,0,0,322,373,293,398,253,418,573,453,345,448,455,380,0
2,1773251291120,6221,3828,4096,-4636467,-1391551,570548,0,0,0,250,439,192,369,400,377,350,323,264,128,132,186,0
1,1773251291136,-1966,894,10849,450818,-169820,90408,0,0,0,321,361,288,412,257,422,566,440,343,416,439,407,0
2,1773251291136,6537,4977,4761,-4919908,-877202,179594,0,0,0,253,442,195,368,399,377,349,324,265,128,134,188,0
1,1773251291152,-2048,674,9193,507018,-252898,84299,0,0,0,321,368,280,414,262,426,523,393,359,384,406,439,0
2,1773251291152,6001,5116,6580,-5535660,-239459,13439,0,0,0,252,443,195,368,400,382,351,326,267,126,135,186,0
1,1773251291168,-2177,574,9131,444709,-235793,86742,0,0,0,317,363,263,423,261,422,569,409,330,367,374,425,0
2,1773251291168,5240,4560,7963,-5899736,182037,68416,0,0,0,253,443,197,371,403,382,350,326,263,129,135,187,0
1,1773251291184,-2258,574,9533,362853,-160046,92851,0,0,0,323,376,265,412,266,428,557,419,343,372,361,423,0
2,1773251291184,5106,3522,8968,-6056117,564439,366519,0,0,0,253,442,195,370,399,378,350,328,261,130,136,187,0
1,1773251291200,-2287,593,9609,326202,-89186,97738,0,0,0,323,366,263,401,262,434,552,395,347,374,356,437,0
2,1773251291200,5273,2517,10054,-6125756,1017701,693942,0,0,0,255,443,194,370,399,376,352,328,263,137,140,188,0
1,1773251291216,-2211,588,9542,306654,-24434,105068,0,0,0,326,368,264,412,255,453,557,392,366,371,354,448,0
2,1773251291216,5125,1981,11481,-6151412,1396437,934623,0,0,0,251,443,193,371,399,376,356,327,264,133,137,189,0
1,1773251291232,-2067,555,9571,284663,10995,107512,0,0,0,318,366,261,421,268,455,560,375,372,388,353,445,0
2,1773251291232,4929,1780,13299,-6195395,1615127,1095892,0,0,0,258,446,196,372,400,377,360,325,268,130,130,187,0
1,1773251291248,-1962,507,9657,271224,1221,96516,0,0,0,314,359,259,425,274,453,563,352,374,374,328,442,0
1,1773251291264,-1947,473,9729,273667,-30543,86742,0,0,0,323,356,263,441,271,462,559,343,375,354,303,452,0
2,1773251291264,5020,1588,17602,-6334672,2035402,1081231,0,0,0,255,443,197,372,398,377,360,324,263,131,130,187,0
2,1773251291280,4886,1847,20914,-6376211,2262644,1033583,0,0,0,258,443,195,373,398,378,359,322,264,203,166,185,0
1,1773251291296,-2182,387,9786,351858,-117286,130725,0,0,0,336,360,280,437,265,505,561,319,396,336,283,485,0
2,1773251291296,5096,2067,25096,-6465397,2411695,1131322,0,0,0,261,444,195,377,398,381,365,322,268,180,152,184,0
1,1773251291312,-2254,339,9734,399505,-135612,173485,0,0,0,348,368,292,444,272,507,557,281,392,349,266,494,0
2,1773251291312,5929,1153,29662,-6692639,2437352,1426981,0,0,0,263,444,197,379,400,384,368,321,270,132,126,184,0
1,1773251291328,-2268,277,9739,441044,-141720,213802,0,0,0,364,378,283,445,283,517,561,263,400,382,254,495,0
2,1773251291328,6513,-4111,31624,-6907664,2664594,1780061,0,0,0,262,444,198,379,402,387,368,320,275,132,126,185,0
1,1773251291344,-2364,258,10011,504574,-151494,249233,0,0,0,380,384,300,459,300,520,575,242,405,314,234,528,0
2,1773251291344,4264,-13787,32232,-6644992,3194825,1853365,0,0,0,261,443,196,379,402,392,368,320,282,132,127,186,0
1,1773251291360,-2507,272,10399,630412,-146607,291993,0,0,0,385,408,270,468,374,524,552,229,416,303,214,542,0
2,1773251291360,-339,-24881,29954,-5542991,2849075,1456302,0,0,0,262,442,194,382,402,394,370,321,284,135,130,188,0
1,1773251291376,-2703,258,10902,852767,-108734,343306,0,0,0,383,425,259,509,383,558,552,217,434,293,197,558,0
2,1773251291376,-3819,-34515,24149,-3982841,1896125,735481,0,0,0,266,444,196,386,401,397,372,319,284,134,129,187,0
1,1773251291392,-2713,110,11538,1141096,-69638,404392,0,0,0,400,451,250,509,417,569,508,207,427,286,194,562,0
2,1773251291392,-5876,-40191,18138,-2372600,1102000,-467922,0,0,0,269,444,198,386,401,399,373,317,286,132,127,186,0
1,1773251291408,-2230,-71,12184,1450194,-89186,437379,0,0,0,359,422,273,522,449,584,447,212,429,266,182,571,0
2,1773251291408,-8762,-42876,15577,-959058,610865,-1666440,0,0,0,260,443,191,383,401,395,371,329,281,132,135,182,0
1,1773251291424,-1727,-47,12782,1766622,-233350,404392,0,0,0,406,484,212,535,478,585,413,196,464,285,186,577,0
2,1773251291424,-11356,-38889,17305,558330,-86742,-2175901,0,0,0,252,438,183,373,405,380,398,417,262,155,211,174,0
1,1773251291440,-2335,-162,13237,2141693,-389732,389732,0,0,0,445,494,185,528,493,584,379,186,479,260,169,575,0
2,1773251291440,-7470,-14055,21182,2398256,-2086715,-1310916,0,0,0,242,408,151,359,374,356,449,471,252,204,285,163,0
1,1773251291456,-3857,-387,13807,2652376,-464257,519235,0,0,0,448,496,188,547,474,581,329,172,476,239,151,584,0
2,1773251291456,2402,13448,16645,3661526,-4227187,125838,0,0,0,243,384,149,357,360,367,470,490,258,249,374,157,0
1,1773251291472,-4388,-153,14998,3308446,-283441,803898,0,0,0,449,492,197,568,451,562,278,163,477,226,135,578,0
2,1773251291472,5010,13826,10069,4444655,-4432438,1117883,0,0,0,248,391,152,366,361,379,497,501,275,220,361,156,0
1,1773251291488,-4929,162,16338,4056145,92851,1076344,0,0,0,460,488,206,536,441,557,256,160,481,210,122,557,0
2,1773251291488,-3048,287,15429,5071403,-2428800,973719,0,0,0,257,399,157,372,362,384,511,511,279,226,372,159,0
2,1773251291504,-6494,-3120,22641,4686558,-745255,90408,0,0,0,269,413,180,377,361,392,529,529,286,247,392,168,0
1,1773251291520,-6987,-81,21694,5836206,278554,1800830,0,0,0,440,439,203,465,380,512,252,142,441,162,88,457,0
2,1773251291520,-1019,760,22172,3539353,-235793,-588874,0,0,0,279,427,214,385,368,403,539,540,298,257,398,181,0
1,1773251291536,-7944,95,25532,6851464,133168,2201558,0,0,0,381,415,191,438,367,470,244,153,399,151,95,376,0
2,1773251291536,3254,1722,14989,2179567,-162490,-194255,0,0,0,290,444,251,397,378,414,548,548,305,269,404,209,0
1,1773251291552,-7820,612,27939,7613824,145385,2516764,0,0,0,319,392,194,369,316,428,203,155,358,143,114,318,0
2,1773251291552,2483,770,10054,1174082,-116064,246789,0,0,0,302,458,282,404,386,427,558,558,310,279,408,238,0
1,1773251291568,-6762,2005,29274,8166046,229685,2731789,0,0,0,272,359,210,334,260,362,238,195,307,141,159,242,0
2,1773251291568,1296,320,10002,630412,-217468,239459,0,0,0,315,471,304,411,394,436,562,562,317,291,402,253,0
1,1773251291584,-7403,4690,27599,8531343,204028,2820975,0,0,0,239,279,190,276,171,276,305,245,264,156,240,118,0
2,1773251291584,1148,607,10653,285884,-368962,123394,0,0,0,334,482,316,420,400,439,565,565,322,302,402,262,0
1,1773251291600,-9480,8619,21234,8596095,25656,2946813,0,0,0,260,304,194,288,211,293,305,257,278,175,269,136,0
2,1773251291600,1191,1091,10576,108734,-428827,47647,0,0,0,344,485,318,415,399,443,577,577,326,288,409,268,0
1,1773251291616,-9265,13519,13448,7629706,-256563,3147177,0,0,0,260,303,194,297,206,304,310,259,279,177,268,138,0
2,1773251291616,1028,1402,10232,25656,-311541,20769,0,0,0,355,487,327,409,398,450,588,588,335,292,408,277,0
1,1773251291632,-4637,19401,11734,3602883,339641,2167349,0,0,0,261,300,196,309,200,302,316,249,271,189,243,145,0
1,1773251291648,-2445,20224,12141,-1644449,1521054,73303,0,0,0,262,299,201,305,199,299,317,247,268,197,237,153,0
2,1773251291648,1057,1670,10256,150272,-118507,-18325,0,0,0,358,491,317,417,402,452,582,582,329,308,401,299,0
1,1773251291664,-5106,13079,10141,-4306599,2125811,-1343903,0,0,0,259,300,194,305,200,297,320,252,268,198,237,153,0
2,1773251291664,1009,1689,10212,285884,-36651,-39095,0,0,0,362,491,323,412,400,446,592,592,320,311,387,318,0
1,1773251291680,-7753,6226,6130,-4647462,1714087,-1393994,0,0,0,258,301,190,306,199,295,322,254,268,198,239,151,0
2,1773251291680,1014,1598,10083,365297,36651,-43982,0,0,0,366,495,319,422,404,452,591,589,328,288,340,321,0
1,1773251291696,-6470,5709,5187,-4416555,1006705,-729373,0,0,0,258,301,197,304,198,295,318,251,266,195,241,148,0
2,1773251291696,1124,1483,9930,400727,83077,-37873,0,0,0,373,502,325,418,405,458,593,580,330,275,321,338,0
2,1773251291712,1225,1387,9849,416610,85521,-35430,0,0,0,378,505,327,422,409,456,594,569,336,271,309,354,0
1,1773251291728,-4905,5690,7695,-5599190,1045801,-409279,0,0,0,243,306,200,302,205,304,325,258,270,185,244,134,0
2,1773251291728,1292,1320,9839,421497,61086,-42760,0,0,0,389,502,329,436,413,461,589,548,338,273,297,359,0
1,1773251291744,-6293,4455,8758,-6076887,745255,-416610,0,0,0,242,308,200,300,206,304,320,262,270,183,250,136,0
2,1773251291744,1354,1282,9849,422718,10995,-51312,0,0,0,392,503,326,446,416,465,585,530,341,275,283,367,0
1,1773251291760,-6441,3326,10016,-6376211,65973,-460592,0,0,0,245,313,202,300,211,304,314,267,269,186,260,135,0
2,1773251291760,1363,1225,9868,423940,-43982,-57421,0,0,0,395,507,323,443,430,468,582,511,343,267,269,379,0
1,1773251291776,-5833,2517,11643,-6597344,-386066,-701273,0,0,0,245,314,202,305,215,307,313,280,269,180,268,134,0
2,1773251291776,1273,1134,9877,426383,-90408,-65973,0,0,0,406,512,324,441,434,468,576,489,340,268,257,402,0
1,1773251291792,-6020,1579,13318,-6813590,-685390,-982271,0,0,0,253,314,204,314,211,304,323,266,266,187,265,130,0
2,1773251291792,1191,1076,9906,437379,-98960,-69638,0,0,0,419,519,326,447,429,474,570,469,343,270,245,415,0
1,1773251291808,-6704,483,15022,-6914994,-1036027,-1141096,0,0,0,250,314,212,309,211,313,321,266,270,187,264,133,0
2,1773251291808,1158,1028,9944,456927,-84299,-70860,0,0,0,429,530,325,453,435,487,569,451,357,260,231,415,0
1,1773251291824,-6934,-263,17205,-6795264,-1457524,-1126435,0,0,0,252,314,214,304,208,312,324,267,269,186,265,132,0
2,1773251291824,1143,942,9978,486248,-52534,-69638,0,0,0,441,543,326,457,444,494,567,431,368,253,210,439,0
1,1773251291840,-7150,-622,19952,-6629109,-1809382,-1110553,0,0,0,254,314,212,304,207,308,326,271,272,184,262,131,0
2,1773251291840,1191,866,10011,524122,-18325,-73303,0,0,0,453,550,335,465,453,505,564,410,373,238,178,451,0
1,1773251291856,-7901,-1019,22991,-6502049,-2070833,-1158200,0,0,0,258,314,219,302,203,306,322,266,268,184,260,129,0
2,1773251291856,1325,794,10088,569326,19547,-96516,0,0,0,460,555,332,475,474,517,554,378,380,248,177,474,0
1,1773251291872,-8987,-2412,26460,-6400645,-2360383,-1281595,0,0,0,263,312,223,303,200,307,319,259,267,183,258,128,0
2,1773251291872,1426,741,10179,619417,54977,-130725,0,0,0,484,553,338,482,482,527,483,361,399,259,169,496,0
1,1773251291888,-9140,-5154,29332,-6349333,-2674368,-1544267,0,0,0,266,309,223,310,195,307,332,248,266,190,244,125,0
1,1773251291904,-7049,-11538,30906,-6260146,-3084869,-1968207,0,0,0,264,311,222,311,193,307,336,242,268,193,235,123,0
2,1773251291904,1550,598,10768,869872,80634,-226020,0,0,0,512,564,319,506,497,544,521,262,401,255,159,549,0
1,1773251291920,-4685,-20071,30069,-5963266,-3158173,-2063502,0,0,0,258,313,234,306,195,318,328,246,281,191,236,130,0
2,1773251291920,1675,478,11122,1065348,39095,-257785,0,0,0,522,563,318,517,513,546,500,237,415,258,159,570,0
2,1773251291936,1675,445,11849,1345125,30543,-295658,0,0,0,519,566,313,531,523,561,472,229,413,261,158,585,0
1,1773251291952,4149,-38899,18650,-4006054,-2643824,-223576,0,0,0,258,319,221,310,204,321,333,250,283,199,238,134,0
2,1773251291952,1555,469,12672,1689653,58643,-327423,0,0,0,531,570,292,543,542,569,429,215,412,260,160,595,0
1,1773251291968,11500,-44402,14955,-2488664,-2024407,566882,0,0,0,253,315,219,309,202,322,334,254,282,205,251,135,0
2,1773251291968,1349,392,13338,2116037,85521,-346971,0,0,0,538,576,266,541,543,567,396,217,414,263,168,597,0
1,1773251291984,14730,-44814,14955,-401949,-392175,731816,0,0,0,238,296,203,313,197,329,349,294,288,239,346,132,0
2,1773251291984,1392,291,13931,2604729,81855,-342084,0,0,0,540,578,248,541,538,567,356,221,425,259,170,604,0
1,1773251292000,10528,-32390,18669,1892460,1705535,483805,0,0,0,240,269,162,297,178,260,424,426,251,281,399,91,0
2,1773251292000,2268,239,14965,3270572,7330,-387288,0,0,0,545,574,238,538,538,569,316,212,434,254,167,608,0
1,1773251292016,268,-3110,18439,3878994,3743382,-29321,0,0,0,244,259,137,290,162,244,469,470,245,323,429,85,0
2,1773251292016,3010,296,16338,3969402,-102625,-538783,0,0,0,550,569,226,527,533,573,284,193,440,250,161,606,0
1,1773251292032,-3254,11811,13945,4888143,3954741,-464257,0,0,0,258,268,137,299,161,247,484,485,245,390,451,85,0
2,1773251292032,3862,521,18090,4812396,-219911,-761138,0,0,0,545,560,225,515,518,570,268,165,444,242,152,585,0
1,1773251292048,2144,4024,16300,5539325,2282192,-346971,0,0,0,256,268,147,315,161,264,499,499,256,431,471,88,0
2,1773251292048,4972,674,20885,5827654,-304210,-1080009,0,0,0,520,542,235,507,508,554,271,145,433,228,140,523,0
1,1773251292064,3627,-2507,23048,5141041,503352,447153,0,0,0,267,276,169,334,173,281,513,513,262,446,484,97,0
2,1773251292064,5695,746,25814,6995628,-342084,-1433089,0,0,0,468,519,228,497,494,535,279,146,401,211,128,438,0
1,1773251292080,-1684,-2402,22699,3624874,-117286,855211,0,0,0,279,281,210,355,186,302,527,526,270,460,496,133,0
2,1773251292080,5943,1550,29566,7872831,-196698,-1637118,0,0,0,391,492,193,459,467,489,285,157,365,197,127,369,0
1,1773251292096,-4517,-545,15252,1879021,24434,241902,0,0,0,287,284,242,362,190,322,547,546,280,477,516,184,0
2,1773251292096,5829,2699,31476,8585100,196698,-1802052,0,0,0,335,465,162,414,433,424,318,212,311,169,123,318,0
1,1773251292112,-3397,167,10241,868650,116064,-212581,0,0,0,303,301,252,373,193,333,562,562,282,501,536,216,0
2,1773251292112,7025,3890,31390,9131213,833220,-2080607,0,0,0,255,425,174,361,386,379,330,276,274,128,121,204,0
1,1773251292128,-1430,157,9236,354301,123394,-224798,0,0,0,322,322,262,390,200,343,564,557,277,535,552,231,0
2,1773251292128,9375,6532,25819,9244834,1420872,-2570520,0,0,0,261,435,195,362,389,381,342,306,282,125,133,196,0
1,1773251292160,-2263,942,10308,46425,205250,2443,0,0,0,322,348,281,377,216,370,584,553,293,557,577,294,0
2,1773251292160,6556,18688,11270,4806287,164933,-3579670,0,0,0,254,437,191,358,397,373,348,319,270,128,136,190,0
1,1773251292176,-2086,1196,10050,85521,174707,-6108,0,0,0,328,355,317,373,217,384,583,547,304,541,577,303,0
2,1773251292176,1847,22603,11710,-1159422,-1153313,-2129476,0,0,0,256,436,187,361,394,371,348,319,263,128,136,188,0
1,1773251292192,-1923,1253,10107,204028,109955,14660,0,0,0,328,347,321,373,220,409,572,538,312,530,564,305,0
2,1773251292192,1976,16491,12160,-5282762,-2128254,-190589,0,0,0,255,437,188,364,392,371,349,319,262,129,138,188,0
1,1773251292208,-1861,1201,10342,338419,25656,53756,0,0,0,332,358,325,388,221,401,579,521,323,508,545,319,0
2,1773251292208,6030,6140,7217,-5981592,-2294409,676838,0,0,0,256,440,192,366,392,373,351,322,263,131,142,190,0
1,1773251292224,-1847,1148,10246,419053,-80634,65973,0,0,0,336,367,305,395,230,399,567,508,320,518,529,322,0
2,1773251292224,7341,3890,3852,-5191132,-1336573,239459,0,0,0,256,441,194,367,393,375,353,328,264,132,143,189,0
1,1773251292240,-1899,1028,10265,448375,-164933,67195,0,0,0,334,373,289,400,240,408,552,489,316,495,520,332,0
2,1773251292240,5719,5312,4101,-5013981,-201585,-224798,0,0,0,253,440,192,367,394,375,356,331,265,132,142,187,0
1,1773251292256,-1971,918,11457,350636,-138055,67195,0,0,0,331,379,288,397,243,412,547,475,320,478,503,339,0
2,1773251292256,3340,6613,6527,-5558873,267558,-222354,0,0,0,252,440,192,369,396,375,356,332,264,132,141,187,0
1,1773251292272,-2038,823,11079,284663,-105068,68416,0,0,0,331,383,288,395,246,410,548,457,324,467,484,342,0
2,1773251292272,3010,5771,7719,-5940053,410501,43982,0,0,0,255,441,194,370,395,375,355,333,263,133,141,185,0
1,1773251292288,-2100,780,9499,293215,-83077,69638,0,0,0,331,393,293,396,244,420,544,436,330,454,463,354,0
2,1773251292288,3397,4546,8332,-6009692,811229,270002,0,0,0,254,441,194,367,394,373,354,333,265,133,145,184,0
1,1773251292304,-2100,794,9236,305432,-30543,75747,0,0,0,331,405,301,403,246,431,538,417,344,438,440,378,0
2,1773251292304,3029,4015,9499,-5930279,1362229,432492,0,0,0,259,443,198,371,396,378,356,332,265,134,145,185,0
1,1773251292320,-2019,813,9585,309097,21991,89186,0,0,0,339,414,306,412,258,442,532,400,359,414,424,399,0
2,1773251292320,1880,4455,11663,-6020687,1677435,667064,0,0,0,256,442,196,370,393,375,356,331,264,134,143,184,0
1,1773251292336,-1871,794,9801,322536,32986,95294,0,0,0,350,411,308,416,256,460,518,378,363,389,404,403,0
2,1773251292336,1430,4943,13759,-6318790,1745852,921184,0,0,0,259,443,196,371,395,376,359,334,266,133,143,184,0
1,1773251292352,-1794,737,9806,346971,12217,87964,0,0,0,352,379,303,413,260,445,500,347,347,363,357,408,0
2,1773251292352,1794,4623,15692,-6648657,1803274,1038470,0,0,0,259,442,197,367,396,373,355,332,265,135,145,187,0
2,1773251292368,2239,3905,18233,-6875899,1931555,1026253,0,0,0,262,445,199,370,396,376,360,335,268,134,144,183,0
1,1773251292384,-1928,598,9906,443488,-51312,92851,0,0,0,364,396,292,422,287,461,521,338,356,362,310,451,0
2,1773251292384,2555,3474,21368,-6956533,2053728,951728,0,0,0,265,442,196,384,396,378,366,335,269,135,141,180,0
1,1773251292400,-2072,526,9911,504574,-65973,127059,0,0,0,381,410,286,430,301,460,510,314,349,343,298,467,0
1,1773251292416,-2234,469,9920,576656,-59864,189368,0,0,0,371,426,304,441,303,487,509,274,373,333,273,500,0
2,1773251292416,2249,1349,30356,-7250970,2223549,1772730,0,0,0,261,443,198,379,400,385,365,328,270,131,137,180,0
1,1773251292432,-2368,421,10069,665843,-50090,265115,0,0,0,380,452,318,462,321,490,516,246,386,331,246,519,0
2,1773251292432,2201,-4675,33553,-7214318,2411695,2680476,0,0,0,262,443,197,379,400,385,369,325,273,134,137,181,0
1,1773251292448,-2526,306,10337,789237,-40317,365297,0,0,0,409,478,320,468,388,497,509,230,393,317,235,524,0
2,1773251292448,2086,-17592,35065,-6655987,2437352,3155729,0,0,0,264,443,197,378,398,385,371,325,276,134,138,181,0
1,1773251292464,-2522,167,10691,926071,-24434,471587,0,0,0,427,498,291,485,430,504,483,231,410,300,215,537,0
2,1773251292464,3613,-31524,32084,-5656612,1480737,2764776,0,0,0,267,445,200,379,399,388,372,326,282,132,139,180,0
1,1773251292480,-2287,86,11280,1081231,-2443,536339,0,0,0,442,514,270,511,440,510,457,218,418,298,199,555,0
2,1773251292480,4455,-40952,23192,-3952298,824668,1244943,0,0,0,269,447,202,382,400,392,375,329,285,132,139,180,0
1,1773251292496,-1943,33,12002,1335351,4886,553443,0,0,0,451,531,259,523,444,518,437,208,433,299,197,566,0
2,1773251292496,-1880,-45130,16329,-1786169,1148426,-807563,0,0,0,265,445,196,370,406,385,375,338,279,136,146,178,0
1,1773251292512,-1483,-67,12462,1701870,-37873,515570,0,0,0,452,543,241,522,455,528,411,206,449,285,190,565,0
2,1773251292512,-11107,-44091,16889,-251676,934623,-1678657,0,0,0,255,439,183,346,420,369,388,383,273,145,175,171,0
1,1773251292528,-1320,-201,12825,2048842,-113620,443488,0,0,0,460,535,224,527,469,542,369,182,437,273,169,566,0
2,1773251292528,-9313,-33333,20574,1473406,-885754,-1183856,0,0,0,241,421,155,369,388,371,424,463,258,172,251,161,0
1,1773251292544,-2062,-205,13534,2528982,-205250,414166,0,0,0,451,514,208,520,464,551,331,178,456,268,167,566,0
2,1773251292544,1378,-2957,19128,3321885,-2740341,-493579,0,0,0,242,393,158,358,362,367,457,480,263,244,351,163,0
1,1773251292560,-2986,-177,14630,3121521,-255341,519235,0,0,0,446,525,193,529,473,544,317,172,456,260,164,570,0
2,1773251292560,6609,12720,12538,4410447,-3379306,30543,0,0,0,253,392,150,370,360,380,489,491,266,224,345,144,0
1,1773251292576,-4072,-67,16314,3888768,-151494,758694,0,0,0,460,513,206,496,445,559,265,158,451,245,141,543,0
2,1773251292576,2790,5795,13007,5431813,-2566855,551000,0,0,0,259,405,163,368,360,390,506,506,279,227,378,156,0
2,1773251292592,-4044,-3421,20411,5595525,-911410,670730,0,0,0,259,412,173,376,368,395,532,533,282,277,405,161,0
1,1773251292608,-7097,-239,20646,5521000,274889,1464854,0,0,0,451,450,267,455,373,498,237,132,423,181,92,463,0
2,1773251292608,-3383,-1268,22096,4427551,-194255,-2443,0,0,0,269,424,217,386,371,409,547,547,289,304,424,181,0
1,1773251292624,-9097,-583,23723,6370102,494800,1970651,0,0,0,407,412,216,429,347,462,217,138,390,168,95,403,0
2,1773251292624,1507,1646,17205,2849075,-156381,-409279,0,0,0,291,452,264,394,377,421,557,557,297,306,415,217,0
1,1773251292640,-10165,-320,26417,7099475,759916,2491108,0,0,0,338,395,193,380,312,429,205,158,342,158,114,367,0
2,1773251292640,2550,708,12730,1617571,-194255,-72082,0,0,0,313,471,290,410,387,437,564,564,307,307,418,253,0
1,1773251292656,-9648,1119,28394,7640702,1025031,2884505,0,0,0,266,371,181,337,274,361,232,198,294,160,166,275,0
2,1773251292656,1636,-282,10887,676838,-193033,172263,0,0,0,337,485,303,432,396,446,572,572,317,314,430,280,0
1,1773251292672,-9337,3646,27652,8153829,1202182,3169168,0,0,0,242,311,183,303,210,298,292,229,260,174,213,167,0
2,1773251292672,674,210,10725,238237,-232128,134390,0,0,0,356,494,310,441,399,444,582,582,316,319,432,311,0
1,1773251292688,-10973,6546,21832,8267450,1132544,3371976,0,0,0,248,291,189,295,182,282,334,239,254,185,234,125,0
2,1773251292688,847,1052,10457,140499,-241902,28099,0,0,0,364,498,316,432,400,445,589,589,313,318,431,328,0
1,1773251292704,-11591,10677,13869,7342600,739146,3510031,0,0,0,252,308,195,301,188,290,332,240,257,187,238,130,0
2,1773251292704,1067,1411,10251,79412,-204028,-4886,0,0,0,371,503,326,426,400,453,588,588,323,315,434,310,0
1,1773251292720,-8250,16420,10859,4225965,408057,2817310,0,0,0,254,313,203,300,187,293,324,240,251,184,235,131,0
2,1773251292720,1095,1430,10222,63529,-145385,2443,0,0,0,375,506,324,430,404,454,587,587,324,315,430,316,0
1,1773251292736,-4259,18363,11806,-783129,1138652,475253,0,0,0,259,318,200,308,194,293,356,241,244,192,235,129,0
2,1773251292736,1038,1541,10217,130725,-131946,-10995,0,0,0,384,511,323,434,407,454,584,585,323,317,417,326,0
1,1773251292752,-6135,13328,9571,-3792251,1992642,-1428202,0,0,0,251,321,194,318,202,294,369,244,242,203,241,128,0
2,1773251292752,971,1655,10203,240680,-138055,-32986,0,0,0,391,510,323,437,413,457,584,585,327,306,392,330,0
1,1773251292768,-9715,7480,5068,-3893655,1130100,-1302364,0,0,0,230,323,204,294,204,299,319,245,249,179,239,125,0
2,1773251292768,851,1641,10155,365297,-102625,-37873,0,0,0,398,509,321,433,410,457,581,579,323,298,354,351,0
1,1773251292784,-8490,5288,3321,-3649308,-322536,-483805,0,0,0,236,330,202,292,224,296,338,253,249,180,247,127,0
1,1773251292800,-4163,6054,4996,-3951076,-907745,-32986,0,0,0,247,322,202,316,199,296,347,243,245,196,249,127,0
2,1773251292800,890,1325,9959,459370,21991,-17104,0,0,0,405,515,326,439,418,463,572,543,323,276,291,367,0
2,1773251292816,990,1220,9892,447153,34208,-24434,0,0,0,410,520,326,449,426,467,566,527,331,272,268,376,0
1,1773251292832,-4761,5762,8116,-5397605,-520457,-761138,0,0,0,241,321,210,304,193,296,345,250,251,194,246,129,0
2,1773251292832,1038,1182,9863,436157,21991,-37873,0,0,0,416,522,324,445,424,469,567,501,341,305,286,380,0
1,1773251292848,-5221,4551,9073,-5706703,-1121548,-950506,0,0,0,240,319,210,308,195,297,352,250,251,200,246,129,0
2,1773251292848,1067,1148,9877,438601,-6108,-43982,0,0,0,425,528,324,449,426,469,563,479,342,278,249,392,0
1,1773251292864,-4063,3709,10543,-5803219,-1677435,-1084896,0,0,0,242,320,215,306,197,297,353,248,249,202,242,131,0
2,1773251292864,1105,1086,9916,444709,-42760,-47647,0,0,0,434,532,326,454,429,473,560,466,347,256,216,408,0
1,1773251292880,-3263,3436,12452,-5997474,-1963320,-1263269,0,0,0,242,320,218,301,199,298,349,247,248,194,238,125,0
2,1773251292880,1095,981,9925,445931,-80634,-58643,0,0,0,441,536,328,458,433,482,557,452,349,255,208,417,0
1,1773251292896,-3393,3273,14735,-6394537,-2058615,-1395216,0,0,0,237,321,217,292,200,298,342,248,249,185,237,122,0
2,1773251292896,1000,871,9853,427605,-94073,-68416,0,0,0,447,539,331,465,444,493,552,431,347,250,199,426,0
1,1773251292912,-3910,2483,17377,-6765943,-2162462,-1395216,0,0,0,233,322,214,287,199,298,336,250,252,184,239,122,0
2,1773251292912,914,799,9820,408057,-89186,-72082,0,0,0,454,539,334,469,452,504,551,415,354,249,193,440,0
1,1773251292928,-4192,1153,19980,-6871012,-2287079,-1236391,0,0,0,233,321,213,294,200,301,338,250,252,190,244,124,0
2,1773251292928,918,784,9911,400727,-68416,-69638,0,0,0,466,544,328,470,450,511,553,399,367,251,188,454,0
1,1773251292944,-4039,-105,22933,-6798930,-2346944,-1126435,0,0,0,237,323,217,299,199,301,345,251,252,191,241,124,0
2,1773251292944,1009,765,10088,420275,-35430,-74525,0,0,0,481,553,339,471,454,520,547,369,387,262,174,469,0
1,1773251292960,-4020,-1052,25781,-6697526,-2313957,-1306029,0,0,0,243,325,220,300,198,299,343,251,256,191,239,125,0
2,1773251292960,1119,708,10174,460592,-6108,-96516,0,0,0,481,558,344,476,463,528,549,348,387,309,182,494,0
1,1773251292976,-4364,-2641,29006,-6563136,-2311514,-1992642,0,0,0,236,324,218,301,200,303,339,253,262,190,238,131,0
2,1773251292976,1244,631,10193,515570,-3665,-131946,0,0,0,494,563,331,489,489,534,535,328,386,259,180,513,0
1,1773251292992,-4704,-5924,32026,-6411641,-2493551,-2874731,0,0,0,235,324,211,310,201,302,355,249,256,198,236,126,0
2,1773251292992,1282,598,10342,605978,-23212,-183259,0,0,0,501,577,371,496,485,537,517,296,402,262,176,543,0
1,1773251293008,-5173,-13783,33357,-6175847,-2684141,-3596774,0,0,0,242,330,223,307,201,318,357,247,279,201,236,135,0
2,1773251293008,1296,598,10677,733038,-50090,-228463,0,0,0,509,580,336,500,491,536,514,267,409,270,177,550,0
1,1773251293040,-2598,-39425,20502,-4624249,-2213775,-1128878,0,0,0,242,327,218,317,203,316,358,244,273,209,240,135,0
2,1773251293040,1363,454,11849,1187522,-51312,-309097,0,0,0,530,583,318,518,507,554,473,233,412,287,172,578,0
1,1773251293056,9557,-43627,15769,-2868623,-1955990,728151,0,0,0,248,327,221,323,198,313,374,241,268,222,244,135,0
2,1773251293056,1100,421,12677,1538158,-1221,-334754,0,0,0,534,589,292,526,521,563,434,222,407,275,174,590,0
1,1773251293072,18205,-43292,14596,-949284,-487470,1525941,0,0,0,236,323,211,316,203,316,359,254,278,219,262,130,0
2,1773251293072,1048,387,13486,2040289,18325,-333532,0,0,0,536,594,260,529,527,564,391,220,409,272,175,596,0
1,1773251293088,12653,-37358,16042,546113,1408655,1297477,0,0,0,228,307,184,319,201,299,376,331,266,244,341,112,0
2,1773251293088,1502,368,14448,2598620,-39095,-338419,0,0,0,540,588,239,523,534,554,350,223,419,272,176,602,0
1,1773251293104,3752,-19353,18272,2101376,3044552,1109331,0,0,0,233,298,157,305,181,261,425,425,244,292,411,98,0
2,1773251293104,2373,358,15467,3174055,-161268,-411723,0,0,0,547,587,234,518,539,554,309,217,417,271,180,602,0
1,1773251293120,-5068,8413,16917,3310889,4037819,790459,0,0,0,238,289,143,278,166,239,462,470,239,340,431,94,0
2,1773251293120,3024,483,16927,4036597,-366519,-619417,0,0,0,553,583,232,516,540,559,279,197,415,261,172,598,0
1,1773251293136,-4493,10882,13979,3999945,3418401,277332,0,0,0,242,268,144,290,164,247,486,486,241,392,458,88,0
2,1773251293136,3632,732,18492,4890587,-521678,-842994,0,0,0,551,567,232,511,539,552,265,174,423,246,160,579,0
1,1773251293152,52,2282,16338,4774522,2086715,6108,0,0,0,247,274,152,312,158,257,508,509,248,429,480,93,0
2,1773251293152,4814,837,21450,5974262,-618195,-1181413,0,0,0,531,551,239,504,522,538,263,152,423,234,153,522,0
1,1773251293168,1416,-1636,20588,4764748,795346,266337,0,0,0,249,275,160,328,171,272,519,520,250,460,491,93,0
2,1773251293168,5489,531,25517,6995628,-684169,-1494176,0,0,0,474,529,231,493,489,516,271,151,401,221,133,444,0
1,1773251293184,-1584,-478,19593,3745825,199142,463035,0,0,0,268,286,199,339,181,284,528,529,257,501,505,99,0
2,1773251293184,6144,1292,29159,7883826,-502131,-1723861,0,0,0,386,509,187,458,472,486,284,175,372,199,129,382,0
1,1773251293200,-3948,497,14189,2229658,163711,160046,0,0,0,272,293,229,342,178,310,547,546,268,503,522,145,0
2,1773251293200,6408,2981,30772,8626638,-94073,-1962099,0,0,0,333,468,169,402,424,431,312,271,319,177,129,335,0
1,1773251293216,-2593,-229,11131,1093448,194255,-139277,0,0,0,277,301,260,345,175,336,566,563,280,505,540,192,0
2,1773251293216,7126,4670,29628,9126326,543670,-2316400,0,0,0,253,429,182,365,392,384,333,277,279,131,111,223,0
1,1773251293232,-1665,-239,10571,482583,141720,-145385,0,0,0,297,305,262,361,191,337,578,568,276,523,557,206,0
2,1773251293232,8399,6427,22579,9078679,941954,-2867401,0,0,0,267,438,202,359,386,374,349,294,279,128,125,207,0
2,1773251293248,8265,10490,14113,8046316,414166,-3521027,0,0,0,254,434,206,360,391,395,341,301,281,126,126,215,0
1,1773251293264,-2191,1105,10222,294437,41538,6108,0,0,0,323,319,300,385,199,373,588,573,303,537,561,258,0
2,1773251293264,5422,16496,10528,5181358,-779464,-3562566,0,0,0,256,437,198,360,391,377,343,304,265,128,126,197,0
1,1773251293280,-2206,1091,9959,335975,53756,25656,0,0,0,326,323,302,382,213,374,592,559,301,535,566,282,0
2,1773251293280,3058,20334,10107,-489913,-1769065,-1925447,0,0,0,261,439,198,361,392,370,345,304,257,129,126,192,0
1,1773251293296,-2000,899,10054,359188,52534,45204,0,0,0,330,332,300,393,216,382,585,545,309,529,560,298,0
1,1773251293312,-1880,909,10232,372627,2443,67195,0,0,0,325,338,313,399,212,398,580,528,325,512,551,312,0
2,1773251293312,6642,5675,5594,-5387831,-1783726,1010371,0,0,0,258,439,196,361,389,370,346,308,260,130,129,193,0
1,1773251293328,-1852,1009,10174,419053,-103847,85521,0,0,0,321,343,322,401,217,409,575,492,334,491,529,327,0
2,1773251293328,8025,2230,2857,-4538728,-1045801,853989,0,0,0,257,439,198,363,391,373,348,312,261,130,130,193,0
1,1773251293344,-1895,966,9911,471587,-200363,87964,0,0,0,329,350,299,414,226,407,560,459,335,484,491,333,0
2,1773251293344,7341,2914,2924,-3977954,-195476,480140,0,0,0,256,440,198,363,391,372,351,315,260,131,132,192,0
1,1773251293360,-2029,789,9581,477696,-235793,80634,0,0,0,330,353,275,417,230,399,552,460,333,467,468,345,0
2,1773251293360,5494,4623,5216,-4320038,195476,460592,0,0,0,253,440,199,363,391,373,351,315,260,131,130,190,0
1,1773251293376,-2091,579,9480,362853,-160046,80634,0,0,0,329,353,284,420,220,391,553,446,316,438,438,368,0
2,1773251293376,4876,5331,7327,-5070181,271224,715934,0,0,0,254,440,199,366,393,378,353,316,262,133,128,190,0
1,1773251293392,-2072,507,9542,289550,-112399,81855,0,0,0,324,356,306,413,225,416,543,443,346,422,421,389,0
2,1773251293392,5833,4699,8269,-5683490,608421,974940,0,0,0,253,439,199,363,392,377,353,317,265,130,128,191,0
1,1773251293408,-2086,545,9552,276111,-103847,78190,0,0,0,321,371,279,410,232,408,543,438,350,414,428,383,0
2,1773251293408,6049,4000,9552,-6158743,1222952,1170417,0,0,0,256,440,202,364,395,377,353,321,267,130,128,191,0
1,1773251293424,-2124,550,9485,241902,-56199,75747,0,0,0,327,360,285,416,226,417,542,441,348,414,423,397,0
2,1773251293424,5072,3378,11462,-6465397,1716531,1348790,0,0,0,256,440,200,370,396,378,352,320,266,131,129,192,0
1,1773251293440,-2062,516,9480,190589,0,74525,0,0,0,323,359,272,421,230,405,542,432,335,414,416,383,0
2,1773251293440,4379,2766,13491,-6614448,1761735,1555262,0,0,0,257,441,201,370,396,378,352,319,266,128,125,189,0
2,1773251293456,4599,2340,15506,-6685309,1769065,1678657,0,0,0,257,442,203,370,396,381,357,320,270,130,128,190,0
1,1773251293472,-1847,526,9648,136833,2443,56199,0,0,0,327,368,273,440,258,412,549,426,330,402,398,392,0
2,1773251293472,5096,2033,18219,-6753726,1957212,1628566,0,0,0,256,443,204,366,391,376,358,319,269,130,126,191,0
1,1773251293488,-1895,526,9772,155159,-36651,54977,0,0,0,335,365,274,445,261,415,554,418,327,394,380,404,0
2,1773251293488,5321,1636,21502,-6830695,2160019,1523497,0,0,0,256,443,205,368,392,378,360,317,267,126,124,187,0
1,1773251293504,-1986,497,9820,201585,-67195,70860,0,0,0,339,371,289,441,258,424,560,401,343,388,363,430,0
2,1773251293504,5599,1076,25742,-6890559,2280970,1463633,0,0,0,260,444,206,371,391,378,366,314,265,127,123,186,0
1,1773251293520,-2048,488,9796,256563,-81855,94073,0,0,0,352,374,298,438,255,437,564,378,351,381,347,447,0
2,1773251293520,6231,4,30346,-6968750,2316400,1667662,0,0,0,261,443,205,372,390,377,372,312,268,131,122,187,0
1,1773251293536,-2067,459,9772,326202,-80634,124616,0,0,0,374,380,292,451,257,443,564,351,343,377,327,451,0
2,1773251293536,6838,-3426,33653,-7119023,2509434,2161241,0,0,0,259,443,203,372,391,381,370,308,276,131,120,188,0
1,1773251293552,-2105,459,9920,404392,-69638,149051,0,0,0,382,412,295,466,272,458,565,317,360,378,303,469,0
1,1773251293568,-2254,502,10184,514348,-42760,177150,0,0,0,387,426,288,466,315,477,564,283,383,351,274,497,0
2,1773251293568,1048,-22522,32404,-6115982,3078760,2547308,0,0,0,263,443,199,381,398,392,372,310,293,131,121,189,0
1,1773251293584,-2507,469,10514,659734,-24434,218689,0,0,0,387,445,280,482,345,480,561,237,397,354,246,520,0
2,1773251293584,-1536,-35056,24910,-4607145,1758070,1729970,0,0,0,262,443,201,381,399,395,374,310,295,133,122,189,0
1,1773251293600,-2842,335,10863,818559,-46425,291993,0,0,0,395,465,273,499,363,509,538,237,418,315,219,533,0
2,1773251293600,-3622,-42847,16678,-2940705,1069014,-78190,0,0,0,262,444,201,381,397,394,377,313,297,137,124,189,0
1,1773251293616,-2785,177,11375,1045801,-81855,411723,0,0,0,391,484,251,511,387,523,487,210,428,290,205,551,0
2,1773251293616,-9375,-45149,14075,-1251052,830776,-1931555,0,0,0,261,444,197,380,398,391,383,328,295,133,131,189,0
1,1773251293632,-2010,62,12117,1369559,-118507,485026,0,0,0,420,484,213,511,429,539,459,189,421,283,189,565,0
2,1773251293632,-13754,-39162,17315,387288,-153938,-2709798,0,0,0,250,437,178,371,396,375,405,409,284,146,188,177,0
1,1773251293648,-1588,-28,12845,1737300,-193033,453262,0,0,0,430,509,225,512,469,545,429,198,448,273,191,566,0
2,1773251293648,-7619,-17736,21732,2046398,-2502104,-1971872,0,0,0,243,410,150,364,378,359,436,457,257,171,251,167,0
1,1773251293664,-2340,-57,13787,2245540,-293215,453262,0,0,0,432,500,203,518,467,553,383,184,446,259,168,569,0
2,1773251293664,3508,8356,17860,3358537,-4649906,-786794,0,0,0,243,383,155,355,355,368,455,490,259,311,421,152,0
2,1773251293680,7212,12735,10988,4163657,-4698775,263893,0,0,0,249,388,157,364,362,380,487,493,277,225,378,160,0
1,1773251293696,-4130,234,16070,3621209,-185703,790459,0,0,0,439,504,185,526,438,538,289,166,443,235,147,554,0
2,1773251293696,-153,1603,14051,4784296,-2642603,731816,0,0,0,254,396,158,370,362,387,504,504,282,215,385,165,0
1,1773251293712,-5379,512,17726,4476420,14660,1114218,0,0,0,445,474,204,517,404,522,281,154,442,214,123,537,0
2,1773251293712,-5518,-2268,20215,4616919,-927293,373849,0,0,0,262,409,175,378,366,395,521,522,287,232,391,173,0
1,1773251293728,-6685,698,20143,5356066,183259,1500285,0,0,0,442,436,221,491,395,512,300,145,431,187,101,494,0
2,1773251293728,-1320,780,20296,3600439,-483805,-327423,0,0,0,275,425,211,384,373,404,535,535,298,248,388,185,0
1,1773251293744,-8198,220,23584,6317568,280998,1955990,0,0,0,401,435,208,452,376,494,290,147,392,161,91,424,0
2,1773251293744,3335,1608,15486,2316400,-372627,-248011,0,0,0,293,442,253,400,380,418,544,544,309,267,398,208,0
1,1773251293760,-8748,579,26125,7123910,337197,2378709,0,0,0,359,408,194,387,324,451,214,168,342,154,120,367,0
2,1773251293760,2258,650,11524,1325577,-288328,147829,0,0,0,308,464,285,408,389,431,559,558,314,280,405,237,0
1,1773251293776,-8059,1694,27398,7715227,432492,2695137,0,0,0,276,384,188,346,284,377,242,233,294,149,187,287,0
2,1773251293776,885,162,10208,582765,-267558,248011,0,0,0,326,480,305,403,394,436,578,577,314,289,400,261,0
1,1773251293792,-7800,3340,27709,8206363,536339,2935818,0,0,0,245,322,174,299,220,321,290,228,266,177,203,158,0
2,1773251293792,674,492,10677,201585,-322536,102625,0,0,0,348,481,316,405,395,437,588,589,315,297,400,280,0
1,1773251293808,-9916,5786,22900,8362745,627969,3111747,0,0,0,254,278,211,293,177,295,345,255,275,192,232,139,0
2,1773251293808,938,1105,10552,79412,-313984,15882,0,0,0,349,486,312,410,399,445,586,586,322,291,397,296,0
1,1773251293824,-11773,9839,14754,7784866,428827,3347541,0,0,0,246,298,206,287,197,300,313,274,269,184,255,138,0
2,1773251293824,976,1440,10270,35430,-221133,0,0,0,0,359,490,319,413,399,450,584,584,327,288,400,294,0
1,1773251293840,-9533,16223,10122,5326744,62308,3169168,0,0,0,249,301,205,292,200,304,320,281,266,201,252,137,0
2,1773251293840,1014,1502,10174,46425,-123394,0,0,0,0,360,488,323,418,401,455,590,590,337,292,401,304,0
1,1773251293856,-3957,20177,11313,510683,653625,1304808,0,0,0,253,305,200,296,210,298,316,270,266,202,252,135,0
2,1773251293856,1048,1555,10174,87964,-80634,-13439,0,0,0,366,490,318,419,401,451,597,597,338,288,389,327,0
1,1773251293872,-3110,16314,10342,-3243694,1816713,-916297,0,0,0,257,306,196,301,206,297,323,279,257,202,252,129,0
2,1773251293872,981,1646,10174,167377,-64751,-31764,0,0,0,370,493,315,423,406,451,593,593,335,335,382,316,0
1,1773251293888,-7312,9030,6068,-3911980,1777617,-1622458,0,0,0,246,309,197,295,205,296,328,284,255,197,254,127,0
2,1773251293888,904,1641,10098,268780,-4886,-37873,0,0,0,372,497,318,422,411,452,589,589,339,284,338,335,0
2,1773251293904,942,1541,9968,343306,58643,-32986,0,0,0,378,504,316,423,410,453,588,585,332,272,325,346,0
1,1773251293920,-5321,6073,4781,-3888768,-108734,-781907,0,0,0,248,312,200,304,211,301,347,288,255,209,260,126,0
2,1773251293920,1086,1402,9868,364075,76969,-25656,0,0,0,377,504,317,424,411,453,591,582,334,273,317,354,0
1,1773251293936,-3914,6613,6838,-4703662,273667,-946841,0,0,0,244,315,200,301,219,301,332,291,257,204,261,124,0
1,1773251293952,-5173,5872,8083,-5445252,445931,-1182635,0,0,0,250,321,200,311,229,297,339,293,252,208,264,123,0
2,1773251293952,1158,1268,9786,333532,7330,-37873,0,0,0,388,509,311,433,415,456,586,552,333,263,285,371,0
1,1773251293968,-5795,4551,9116,-5841093,-72082,-1225395,0,0,0,249,313,207,307,209,299,348,286,251,212,261,126,0
2,1773251293968,1158,1253,9786,317649,-19547,-42760,0,0,0,391,510,312,434,419,458,578,541,339,261,274,370,0
1,1773251293984,-5250,3522,10370,-6107430,-520457,-1253495,0,0,0,244,315,210,302,208,299,353,296,253,217,261,126,0
2,1773251293984,1167,1210,9844,301767,-57421,-45204,0,0,0,397,512,315,436,421,463,576,531,347,262,271,371,0
1,1773251294000,-4972,2531,11854,-6339559,-724486,-1324355,0,0,0,241,316,212,309,208,303,343,301,256,208,261,126,0
2,1773251294000,1162,1167,9892,290771,-90408,-48869,0,0,0,406,515,315,442,424,472,578,516,352,259,261,379,0
1,1773251294016,-5642,1555,13620,-6500827,-940732,-1319468,0,0,0,241,316,209,306,209,299,346,297,248,210,262,124,0
2,1773251294016,1129,1134,9897,289550,-107512,-53756,0,0,0,418,520,319,450,427,480,575,498,352,255,243,391,0
1,1773251294032,-6101,875,15898,-6574131,-1296256,-1215621,0,0,0,239,321,208,303,219,296,354,301,252,212,268,126,0
2,1773251294032,1057,1110,9901,298102,-111177,-59864,0,0,0,427,527,322,452,432,481,573,478,352,300,275,398,0
1,1773251294048,-5910,344,18367,-6557027,-1596801,-1094670,0,0,0,246,320,210,302,211,296,357,297,249,210,261,121,0
2,1773251294048,995,1095,9949,323758,-91629,-58643,0,0,0,436,534,325,455,440,486,572,455,358,390,355,390,0
1,1773251294064,-5776,-392,20803,-6492275,-1771509,-1027475,0,0,0,244,319,213,302,206,296,361,299,251,205,258,121,0
2,1773251294064,1072,1057,10059,370184,-69638,-51312,0,0,0,451,536,325,469,446,497,577,441,360,254,207,429,0
1,1773251294080,-6183,-1344,23488,-6316346,-1898569,-1080009,0,0,0,235,320,216,295,208,299,346,299,257,199,259,126,0
2,1773251294080,1162,1019,10131,434936,-65973,-56199,0,0,0,456,552,333,469,449,497,568,417,369,242,187,441,0
1,1773251294096,-6235,-2354,26542,-6111095,-2218662,-1418429,0,0,0,230,322,220,289,209,302,335,300,260,193,256,129,0
2,1773251294096,1177,942,10160,518013,-58643,-79412,0,0,0,475,564,340,483,459,511,564,393,382,243,172,474,0
2,1773251294112,1249,871,10236,603534,-29321,-111177,0,0,0,483,564,352,490,464,522,553,343,389,256,170,497,0
1,1773251294128,-5068,-11385,31088,-6093991,-2476447,-2769662,0,0,0,235,321,212,301,211,302,335,300,263,197,259,127,0
2,1773251294128,1454,799,10452,696386,17104,-161268,0,0,0,494,568,351,500,474,534,538,306,395,262,167,528,0
1,1773251294144,-6714,-20799,28824,-5898514,-2175901,-2671924,0,0,0,234,320,214,305,212,306,341,302,267,198,260,128,0
2,1773251294144,1608,741,10844,816115,31764,-223576,0,0,0,512,578,347,506,487,540,520,275,401,271,168,543,0
1,1773251294160,-5183,-31423,23115,-5100724,-2217440,-1467298,0,0,0,229,322,218,299,212,310,337,304,272,195,263,126,0
2,1773251294160,1584,684,11390,1022588,-10995,-288328,0,0,0,528,577,336,511,494,543,494,248,407,275,172,570,0
1,1773251294176,5451,-38004,17774,-3524692,-2223549,-59864,0,0,0,229,323,216,299,213,312,342,301,269,196,262,126,0
2,1773251294176,1383,607,12103,1352455,-29321,-320093,0,0,0,536,580,329,519,507,554,461,233,410,271,175,584,0
1,1773251294192,13500,-41646,14376,-1813048,-1266934,680503,0,0,0,231,321,215,302,208,307,358,298,264,199,266,122,0
1,1773251294208,13347,-41866,13280,-107512,270002,976162,0,0,0,224,303,194,289,208,299,343,340,257,231,341,115,0
2,1773251294208,1277,516,13864,2285857,35430,-342084,0,0,0,543,591,264,536,536,566,388,225,418,261,174,593,0
1,1773251294224,7298,-29198,17353,1820378,1902234,1095892,0,0,0,232,277,158,287,183,255,414,436,238,293,399,90,0
2,1773251294224,1598,574,14687,2817310,-28099,-365297,0,0,0,552,587,245,541,551,553,349,227,415,261,176,593,0
1,1773251294240,-1397,-2345,16630,3814242,3495370,704938,0,0,0,236,267,149,279,170,254,458,463,240,333,419,89,0
2,1773251294240,2062,588,15659,3532022,-142942,-433714,0,0,0,553,574,230,541,554,548,309,223,412,260,174,591,0
1,1773251294256,-4728,10126,14692,4974886,3539353,87964,0,0,0,246,270,145,289,171,252,475,475,250,358,433,86,0
2,1773251294256,2459,650,16735,4249178,-255341,-541226,0,0,0,548,569,219,512,541,558,277,205,416,258,167,588,0
1,1773251294272,-287,3570,17425,5448917,1858252,-305432,0,0,0,247,274,154,307,166,271,491,490,265,387,454,102,0
2,1773251294272,3579,837,18530,5092172,-379958,-724486,0,0,0,547,563,229,504,530,547,266,173,410,238,153,563,0
1,1773251294288,2191,-1976,22244,4678005,505796,142942,0,0,0,253,288,178,320,178,282,504,504,267,429,470,106,0
2,1773251294288,4852,789,21560,6050009,-537561,-1014036,0,0,0,524,544,230,502,513,546,264,143,395,216,138,494,0
1,1773251294304,-904,-1866,20784,3097086,102625,560774,0,0,0,258,296,217,331,191,303,516,516,268,452,481,128,0
2,1773251294304,5503,837,25747,7013954,-702495,-1313360,0,0,0,452,533,205,483,506,518,267,151,389,208,145,426,0
1,1773251294320,-4254,387,13630,1533271,150272,250454,0,0,0,267,302,249,342,194,326,539,535,270,474,505,165,0
2,1773251294320,5575,1703,29437,7911926,-594982,-1538158,0,0,0,370,497,175,452,465,472,285,171,334,202,136,374,0
2,1773251294336,5326,2928,30772,8598539,-272445,-1694540,0,0,0,326,465,168,390,421,411,304,247,289,171,129,329,0
1,1773251294352,-1823,153,9317,351858,169820,-197920,0,0,0,298,324,259,368,202,345,559,559,283,503,536,211,0
2,1773251294352,6465,3790,28853,8994379,259006,-1896125,0,0,0,262,433,179,350,386,366,333,299,274,128,124,212,0
1,1773251294368,-1856,445,10337,70860,241902,-68416,0,0,0,312,327,274,380,198,346,574,574,278,521,548,217,0
2,1773251294368,8638,6278,21158,8974832,995710,-2414139,0,0,0,256,433,191,355,397,370,351,316,276,127,130,194,0
1,1773251294384,-2048,1072,10428,-84299,244346,-7330,0,0,0,322,338,306,374,207,348,585,584,279,532,563,230,0
2,1773251294384,9064,11203,13170,7843509,1131322,-3137403,0,0,0,254,435,192,362,400,376,347,315,270,126,129,191,0
1,1773251294400,-2019,1340,10007,-59864,168598,-23212,0,0,0,323,345,278,388,216,347,590,583,270,528,560,234,0
2,1773251294400,3675,18980,11069,3407406,84299,-2988352,0,0,0,255,437,192,362,396,373,345,311,265,126,128,188,0
1,1773251294416,-1966,1416,10016,36651,107512,-4886,0,0,0,321,350,295,387,205,347,592,576,278,536,568,253,0
2,1773251294416,43,20488,12447,-1831373,-1478293,-1341460,0,0,0,255,437,192,362,395,375,348,311,266,128,129,188,0
1,1773251294432,-1895,1483,10169,167377,64751,31764,0,0,0,325,351,301,385,205,356,595,566,278,540,568,267,0
2,1773251294432,3034,12845,10098,-4527733,-2591290,221133,0,0,0,255,438,193,362,396,379,351,313,267,128,130,189,0
1,1773251294448,-1794,1435,10203,290771,-9773,61086,0,0,0,327,360,298,381,211,361,591,563,293,513,555,262,0
1,1773251294464,-1818,1325,9983,364075,-119729,61086,0,0,0,331,363,312,385,217,373,580,537,293,484,546,275,0
2,1773251294464,7997,3565,2837,-4489859,-984714,-124616,0,0,0,256,442,197,364,397,377,351,320,268,131,133,189,0
1,1773251294480,-1928,1249,9753,390953,-175929,53756,0,0,0,331,362,328,385,220,375,577,512,293,480,543,282,0
2,1773251294480,5776,4714,3981,-4502076,134390,-604756,0,0,0,257,443,197,364,399,379,350,320,268,129,132,188,0
1,1773251294496,-1986,1129,9619,376292,-163711,52534,0,0,0,331,367,338,399,227,385,567,493,302,457,522,287,0
2,1773251294496,2981,6231,6800,-5095837,482583,-481361,0,0,0,255,443,199,363,398,378,353,323,266,129,130,188,0
1,1773251294512,-1990,985,9552,335975,-142942,56199,0,0,0,333,372,337,413,227,389,561,475,303,434,502,293,0
2,1773251294512,3239,5599,7834,-5535660,438601,56199,0,0,0,257,443,199,362,394,376,354,323,265,131,134,189,0
1,1773251294528,-1966,966,9394,271224,-113620,61086,0,0,0,330,374,338,416,224,393,557,459,302,430,489,299,0
2,1773251294528,4245,4465,8456,-5742133,781907,565661,0,0,0,262,443,201,368,394,378,361,323,264,142,136,189,0
2,1773251294544,4350,3776,9705,-5791002,1451415,938289,0,0,0,257,443,199,365,397,381,362,327,268,128,132,189,0
1,1773251294560,-1919,1067,9188,153938,-29321,68416,0,0,0,333,384,336,413,236,390,555,431,308,416,475,316,0
2,1773251294560,3273,3790,11801,-5940053,1809382,1260825,0,0,0,257,444,201,361,396,378,358,327,268,219,175,188,0
1,1773251294576,-1914,1005,9619,197920,-51312,64751,0,0,0,338,382,334,412,226,396,550,426,311,422,456,316,0
2,1773251294576,2833,3670,13740,-6162408,1855808,1534493,0,0,0,254,442,198,365,396,383,359,327,269,144,143,191,0
1,1773251294592,-1895,957,9739,206472,-63529,62308,0,0,0,337,376,330,407,244,406,554,431,312,428,449,315,0
2,1773251294592,3153,3378,15510,-6352998,1905899,1598023,0,0,0,256,442,199,365,395,380,363,327,270,132,138,189,0
1,1773251294608,-1895,938,9609,188146,-58643,58643,0,0,0,333,369,334,411,227,415,554,407,301,432,438,316,0
2,1773251294608,3421,3129,18186,-6586349,2075720,1517389,0,0,0,258,443,201,366,395,382,362,327,271,133,139,189,0
1,1773251294624,-1904,947,9609,186924,-51312,57421,0,0,0,326,381,339,398,239,428,556,391,312,383,433,348,0
2,1773251294624,3306,2976,21225,-6801373,2214997,1374446,0,0,0,257,441,201,370,397,387,362,328,271,134,141,189,0
1,1773251294640,-1923,966,9796,237015,-59864,65973,0,0,0,326,374,334,426,252,425,553,376,324,379,413,377,0
2,1773251294640,3172,2412,25001,-6954089,2189341,1391551,0,0,0,262,441,202,375,395,386,372,323,269,137,140,187,0
1,1773251294656,-1990,928,9930,316428,-78190,89186,0,0,0,355,383,371,420,268,437,548,358,334,378,376,419,0
2,1773251294656,2804,947,28844,-7015176,2116037,1688431,0,0,0,265,442,203,377,395,386,373,320,269,137,139,186,0
1,1773251294672,-2086,885,9940,422718,-90408,128281,0,0,0,362,392,389,434,285,473,542,337,365,365,349,463,0
2,1773251294672,2297,-3321,32620,-6971194,2112371,2375044,0,0,0,262,443,202,378,397,389,367,319,271,136,139,187,0
1,1773251294688,-2148,847,9930,551000,-95294,182037,0,0,0,359,408,369,449,297,484,546,312,392,359,323,488,0
2,1773251294688,1445,-11648,34505,-6729291,2178345,2908940,0,0,0,263,444,200,381,398,390,375,318,277,137,137,184,0
1,1773251294704,-2201,737,10059,707381,-124616,245567,0,0,0,368,425,365,463,317,486,551,276,408,349,292,511,0
1,1773251294720,-2292,631,10351,822224,-178372,294437,0,0,0,392,445,367,474,373,504,548,240,424,333,256,531,0
2,1773251294720,7001,-38578,23819,-4806287,287106,1576032,0,0,0,265,446,200,386,400,394,377,319,284,138,139,183,0
1,1773251294736,-2483,603,10887,970053,-238237,346971,0,0,0,407,463,326,494,411,519,528,212,444,315,220,546,0
2,1773251294736,3689,-46341,14300,-2465452,1108109,-1276708,0,0,0,267,449,202,385,400,397,374,318,280,136,135,184,0
1,1773251294752,-2555,555,11835,1251052,-289550,419053,0,0,0,415,467,273,511,417,520,492,199,455,299,199,556,0
2,1773251294752,-8150,-45412,14601,-613308,1642005,-2911383,0,0,0,265,447,205,382,400,393,377,334,281,135,136,183,0
2,1773251294768,-12787,-37879,18726,889419,-75747,-2442239,0,0,0,264,443,190,379,403,384,397,415,268,160,218,172,0
1,1773251294784,-2000,349,13472,2032959,-305432,431270,0,0,0,435,493,251,529,421,551,412,184,465,277,180,566,0
2,1773251294784,-5465,-14596,21636,2405587,-2499660,-1071457,0,0,0,243,410,149,363,375,353,440,463,252,192,260,162,0
1,1773251294800,-2737,287,14055,2575407,-326202,478918,0,0,0,424,523,208,544,436,554,375,179,466,281,172,572,0
2,1773251294800,5240,11452,15089,3338989,-3885102,316428,0,0,0,247,394,150,349,370,358,462,475,259,210,319,159,0
1,1773251294816,-3536,349,14769,3170390,-271224,613308,0,0,0,454,469,174,553,417,536,326,168,434,277,152,578,0
2,1773251294816,5647,12883,9317,4212526,-3621209,1174082,0,0,0,251,397,150,359,366,373,483,486,264,205,339,155,0
1,1773251294832,-4613,435,15754,3858224,-40317,851546,0,0,0,433,478,209,522,399,527,251,164,430,231,134,559,0
2,1773251294832,-2799,-119,12045,5126381,-1761735,1362229,0,0,0,258,406,157,367,372,384,490,491,278,204,363,161,0
1,1773251294848,-5982,617,17248,4603480,263893,1211956,0,0,0,438,473,216,511,428,520,272,168,434,211,130,533,0
2,1773251294848,-7245,-2871,18032,4932125,-271224,447153,0,0,0,260,413,170,378,369,398,506,506,293,238,392,182,0
1,1773251294864,-7532,531,19760,5403713,537561,1653001,0,0,0,427,459,233,449,443,506,252,158,405,172,130,472,0
2,1773251294864,-2895,1019,18846,4263839,178372,-800233,0,0,0,274,431,205,369,397,408,534,534,308,299,430,209,0
1,1773251294880,-9370,38,22947,6199060,758694,2136806,0,0,0,383,424,220,410,362,481,218,149,372,159,111,398,0
2,1773251294880,3316,942,18047,3037221,138055,-733038,0,0,0,301,456,247,382,410,434,552,551,319,310,430,251,0
1,1773251294896,-9825,382,24757,6822142,862541,2590068,0,0,0,329,404,197,373,329,425,221,178,332,157,138,345,0
2,1773251294896,4374,-1057,15529,1334129,12217,-94073,0,0,0,336,476,287,415,394,459,561,562,326,300,416,293,0
1,1773251294912,-8533,1550,26489,7419569,847880,2984687,0,0,0,281,373,189,335,291,363,251,210,291,167,182,279,0
2,1773251294912,1143,-823,11452,212581,-139277,290771,0,0,0,363,488,322,419,394,463,572,574,330,330,432,314,0
1,1773251294928,-8289,3340,27059,7839844,989601,3164281,0,0,0,252,320,205,296,232,317,283,230,268,175,219,191,0
2,1773251294928,167,727,9609,135612,-155159,151494,0,0,0,365,494,328,422,400,473,577,578,331,336,436,328,0
1,1773251294944,-10117,5355,22493,8092742,1376890,3318219,0,0,0,249,290,237,271,208,293,306,250,264,169,254,133,0
2,1773251294944,1095,1076,9911,208915,-156381,9773,0,0,0,378,503,320,428,407,460,579,584,321,310,431,333,0
1,1773251294960,-12376,8236,14970,7874052,1517389,3497814,0,0,0,256,300,264,288,188,310,308,253,268,172,262,137,0
1,1773251294976,-9944,14146,11950,5693264,840550,2609616,0,0,0,240,304,254,292,199,340,308,260,281,180,263,157,0
2,1773251294976,1220,971,10303,61086,-184481,19547,0,0,0,395,504,336,431,415,468,583,583,333,323,461,348,0
2,1773251294992,1033,1210,10150,103847,-178372,1221,0,0,0,395,503,332,439,419,471,580,590,323,305,397,349,0
1,1773251295008,-4479,15482,9652,-2355496,1479515,-2610838,0,0,0,246,310,246,301,199,318,337,263,264,188,256,143,0
2,1773251295008,957,1344,10174,221133,-144164,-24434,0,0,0,396,506,332,439,419,469,582,586,325,295,368,370,0
1,1773251295024,-7949,8758,6054,-3651752,1762957,-3391523,0,0,0,226,312,241,292,204,320,329,267,269,180,256,144,0
2,1773251295024,894,1287,10217,342084,-48869,-26878,0,0,0,400,508,326,439,419,470,575,576,329,282,325,374,0
1,1773251295040,-8772,5661,3665,-3337767,762359,-2222327,0,0,0,231,316,241,289,203,321,320,270,272,178,255,148,0
2,1773251295040,938,1124,10136,398284,40317,-19547,0,0,0,399,509,324,443,420,471,579,564,330,277,308,384,0
1,1773251295056,-6159,5628,3732,-3378084,34208,-1064127,0,0,0,228,315,241,292,203,319,324,268,271,178,254,144,0
2,1773251295056,1048,957,9964,387288,90408,-19547,0,0,0,403,512,309,446,425,478,578,552,335,271,293,387,0
1,1773251295072,-3546,6642,5321,-4013384,156381,-431270,0,0,0,239,311,240,296,201,321,322,270,271,183,256,145,0
2,1773251295072,1134,871,9801,349414,102625,-28099,0,0,0,403,513,302,446,425,477,569,536,342,265,278,393,0
1,1773251295088,-4096,6523,6896,-4886921,406836,-193033,0,0,0,230,309,242,293,208,326,319,272,273,183,257,148,0
2,1773251295088,1191,871,9758,318871,84299,-39095,0,0,0,405,516,323,446,425,481,567,526,349,265,270,399,0
1,1773251295104,-5005,5613,8265,-5572312,78190,-94073,0,0,0,221,309,244,289,212,328,316,272,275,181,257,148,0
2,1773251295104,1268,842,9796,299323,42760,-50090,0,0,0,408,520,325,448,430,486,564,520,350,270,259,413,0
1,1773251295120,-4733,4809,9705,-5951049,-493579,-285884,0,0,0,221,312,251,285,206,330,313,271,281,180,258,153,0
2,1773251295120,1330,799,9815,282219,-8552,-58643,0,0,0,394,501,326,451,445,486,561,511,348,279,248,424,0
1,1773251295136,-4632,4072,11476,-6269920,-929736,-668286,0,0,0,224,315,257,285,203,332,314,272,286,177,257,155,0
2,1773251295136,1344,794,9839,274889,-73303,-65973,0,0,0,388,487,355,454,452,492,564,493,352,279,245,425,0
1,1773251295152,-4891,3029,13567,-6525262,-1274264,-1082453,0,0,0,224,313,248,292,213,328,319,274,278,178,258,143,0
2,1773251295152,1263,813,9954,295658,-138055,-70860,0,0,0,432,530,349,461,437,506,564,466,360,310,250,428,0
1,1773251295168,-5072,1852,15687,-6648657,-1532050,-1238834,0,0,0,224,313,244,294,211,327,325,277,277,184,258,145,0
2,1773251295168,1148,741,10050,326202,-136833,-72082,0,0,0,441,538,322,466,448,508,565,440,368,386,266,430,0
1,1773251295184,-5336,894,17994,-6686530,-1738522,-1150870,0,0,0,232,317,248,293,202,323,339,276,277,187,260,144,0
2,1773251295184,1081,670,10107,361632,-97738,-75747,0,0,0,465,556,330,471,457,517,546,411,371,252,199,466,0
2,1773251295200,1143,636,10155,408057,-37873,-84299,0,0,0,479,558,332,476,457,513,542,388,371,252,175,482,0
1,1773251295216,-5374,-19,23627,-6721961,-2083050,-780685,0,0,0,236,317,252,303,203,329,340,268,280,197,265,146,0
2,1773251295216,1311,603,10189,458148,-9773,-103847,0,0,0,471,555,311,486,469,519,536,348,381,253,168,505,0
1,1773251295232,-5795,-894,26762,-6745173,-2202780,-1042136,0,0,0,236,317,253,304,198,329,335,268,281,198,266,150,0
2,1773251295232,1483,526,10236,508239,-2443,-142942,0,0,0,486,558,331,486,473,529,531,322,390,259,170,517,0
1,1773251295248,-5709,-4087,30016,-6631553,-2583959,-1766622,0,0,0,231,320,254,303,201,326,326,270,283,187,254,146,0
2,1773251295248,1847,430,10346,561996,23212,-221133,0,0,0,507,569,343,498,479,537,515,282,399,266,168,538,0
1,1773251295264,-4154,-9700,32376,-6405532,-2952922,-2430021,0,0,0,227,321,254,303,203,329,330,277,288,186,248,143,0
2,1773251295264,2057,339,10725,657290,36651,-365297,0,0,0,508,578,327,510,491,540,507,255,402,266,169,556,0
1,1773251295280,-2833,-19200,32007,-6070778,-2719572,-2603507,0,0,0,229,324,248,312,213,325,332,273,287,190,253,143,0
2,1773251295280,1617,363,11462,849102,-31764,-450818,0,0,0,511,579,315,527,508,547,490,248,405,269,167,580,0
1,1773251295296,-2804,-31423,26245,-5375614,-1991420,-1554041,0,0,0,233,329,236,314,219,320,335,274,284,195,257,139,0
2,1773251295296,1196,425,12160,1233947,-157603,-432492,0,0,0,519,573,320,526,522,547,459,233,420,267,165,590,0
1,1773251295312,2502,-40550,19703,-4078136,-1693318,23212,0,0,0,241,333,237,318,218,316,334,274,279,197,258,135,0
2,1773251295312,966,378,12481,1632231,-190589,-394618,0,0,0,525,577,301,529,530,553,428,221,422,270,169,593,0
1,1773251295328,14611,-44283,15563,-1952325,-1098335,1159422,0,0,0,245,336,240,322,220,316,331,273,279,197,260,135,0
2,1773251295328,732,239,12711,2034181,-103847,-344527,0,0,0,538,584,274,533,536,556,390,230,412,269,174,600,0
1,1773251295344,19363,-43809,14850,-70860,266337,1026253,0,0,0,232,329,229,311,221,313,336,292,276,214,288,132,0
1,1773251295360,10906,-34209,16377,1580919,1759291,427605,0,0,0,216,310,205,294,209,290,368,354,254,259,352,112,0
2,1773251295360,2077,4,14486,2982244,-28099,-300545,0,0,0,545,579,237,530,545,565,323,209,429,260,171,603,0
1,1773251295376,-914,-6680,18396,2795319,2660928,155159,0,0,0,220,288,161,288,186,255,436,442,224,320,416,90,0
2,1773251295376,3364,-19,15750,3650530,-167377,-474031,0,0,0,549,568,230,523,542,568,285,198,421,249,164,599,0
1,1773251295392,-8399,21517,14347,3277902,3374419,-15882,0,0,0,234,286,140,282,168,235,473,473,230,368,436,82,0
2,1773251295392,3661,186,17195,4425107,-333532,-740368,0,0,0,552,559,234,511,519,553,266,176,438,243,155,588,0
1,1773251295408,-3776,12864,11581,4420220,3081204,-230907,0,0,0,238,288,145,291,166,256,498,498,250,437,473,86,0
2,1773251295408,4259,363,19301,5446474,-438601,-1066570,0,0,0,542,545,252,518,519,551,267,154,427,241,152,556,0
2,1773251295424,5063,215,22325,6432410,-419053,-1374446,0,0,0,505,536,249,502,502,540,266,137,410,221,134,488,0
1,1773251295440,3374,-5331,25379,5040859,-35430,287106,0,0,0,246,292,191,316,177,279,547,548,247,479,522,100,0
2,1773251295440,5407,569,26728,7406130,-196698,-1632231,0,0,0,423,498,194,484,485,522,274,149,383,205,128,403,0
1,1773251295456,-2986,-646,19660,2796541,7330,491135,0,0,0,246,323,231,344,220,318,557,556,277,507,533,142,0
2,1773251295456,5336,1703,30007,8203920,207694,-1809382,0,0,0,357,481,156,436,446,460,288,212,327,190,134,358,0
1,1773251295472,-4130,689,12462,1282817,161268,43982,0,0,0,259,331,254,356,219,353,563,563,305,522,547,194,0
2,1773251295472,5766,2900,30916,8814785,750142,-2042733,0,0,0,297,444,173,375,405,401,313,265,283,154,131,276,0
1,1773251295488,-2077,-62,9729,645073,52534,-201585,0,0,0,284,318,302,372,215,372,583,564,299,533,561,222,0
2,1773251295488,6829,4249,28485,9136100,1291369,-2404365,0,0,0,256,430,198,357,388,387,333,304,283,134,129,209,0
1,1773251295504,-1627,-23,10011,360410,-23212,-96516,0,0,0,300,331,293,389,218,374,595,558,303,538,571,258,0
2,1773251295504,8351,8155,20138,8726820,1335351,-2990796,0,0,0,251,433,216,358,390,399,342,317,290,128,134,204,0
1,1773251295520,-2167,689,10318,289550,62308,7330,0,0,0,314,345,295,399,218,373,607,552,299,541,582,278,0
2,1773251295520,6269,14606,13601,6261368,53756,-3368310,0,0,0,248,432,216,358,391,398,344,316,286,127,130,198,0
1,1773251295536,-2278,1091,10150,285884,125838,42760,0,0,0,323,361,318,413,222,386,618,550,310,543,582,290,0
2,1773251295536,2780,20626,11552,1352455,-1598023,-2492330,0,0,0,248,433,207,356,392,387,345,315,276,124,126,190,0
1,1773251295552,-1981,985,9949,332310,105068,32986,0,0,0,327,373,321,425,231,400,615,539,331,545,558,309,0
2,1773251295552,2952,16439,11045,-3535688,-2625498,-565661,0,0,0,251,436,196,361,395,381,346,317,269,128,129,189,0
1,1773251295568,-1899,923,10141,366519,31764,45204,0,0,0,330,369,311,432,241,404,603,516,328,541,527,326,0
2,1773251295568,5302,7939,7901,-5723807,-2841745,592539,0,0,0,254,437,191,364,396,376,348,320,267,130,133,191,0
