sole_id,timestamp,accel_x,accel_y,accel_z,gyro_x,gyro_y,gyro_z,magn_x,magn_y,magn_z,pressure_01,pressure_02,pressure_03,pressure_04,pressure_05,pressure_06,pressure_07,pressure_08,pressure_09,pressure_10,pressure_11,pressure_12,corrupt,asphalt,brick,concrete,grass
1,1786372915952,717,-220,9887,24434,-273667,-255341,0,0,0,385,334,440,282,215,283,634,529,278,600,576,350,0,,,,
2,1786372915952,-17157,28580,2670,-1136209,-1832595,1848478,0,0,0,234,187,211,124,98,146,211,235,148,217,347,186,0,,,,
1,1786372915968,-995,33,10040,0,-367740,-313984,0,0,0,385,335,438,288,225,285,640,530,327,589,585,350,0,,,,
2,1786372915968,-5068,9131,3019,265115,1205847,1720196,0,0,0,233,198,211,124,101,147,226,240,158,207,342,182,0,,,,
1,1786372915984,-2469,201,10691,76969,-284663,-35430,0,0,0,385,331,428,290,223,289,655,531,318,584,592,350,0,,,,
2,1786372915984,2239,-2120,13122,1126435,2526538,1541823,0,0,0,241,196,212,128,96,146,237,232,158,226,346,182,0,,,,
1,1786372916000,-808,-9,10059,173485,-123394,155159,0,0,0,386,334,429,291,225,289,643,529,301,587,590,347,0,,,,
2,1786372916000,2718,-1588,14807,63529,640186,1897347,0,0,0,241,195,211,132,100,150,242,230,159,237,339,181,0,,,,
1,1786372916016,382,-248,9384,130725,-40317,114842,0,0,0,393,333,433,289,223,279,644,531,308,591,590,343,0,,,,
2,1786372916016,2589,-1430,11122,-431270,-222354,1871691,0,0,0,241,194,209,130,96,147,244,228,160,242,337,189,0,,,,
1,1786372916032,28,-253,9600,2443,-23212,-23212,0,0,0,402,326,436,294,218,281,650,532,309,589,589,345,0,,,,
2,1786372916032,4,-1612,11074,-142942,243124,1384220,0,0,0,243,190,209,133,97,153,243,228,163,249,336,192,0,,,,
1,1786372916048,-440,-110,10136,-34208,-9773,-53756,0,0,0,407,324,436,294,213,280,646,532,305,582,586,341,0,,,,
2,1786372916048,-478,-1962,11950,-86742,118507,941954,0,0,0,245,185,207,143,102,157,239,226,152,247,333,182,0,,,,
1,1786372916064,-502,-47,10327,-2443,0,-40317,0,0,0,400,326,433,285,210,269,645,539,307,579,584,336,0,,,,
2,1786372916064,1378,-2373,11304,-218689,-361632,386066,0,0,0,254,190,213,136,97,151,249,233,159,246,333,181,0,,,,
1,1786372916080,-363,-71,10189,36651,6108,-34208,0,0,0,389,329,428,283,216,268,653,549,306,591,581,339,0,,,,
2,1786372916080,2809,-2464,10045,-256563,-496022,-239459,0,0,0,251,188,215,132,93,148,250,233,160,244,334,180,0,,,,
1,1786372916096,-301,-90,10069,54977,8552,-42760,0,0,0,388,336,429,286,223,270,657,553,307,601,581,340,0,,,,
2,1786372916096,3661,-2483,9270,-217468,-419053,-745255,0,0,0,249,188,213,133,91,149,249,232,160,244,334,179,0,,,,
1,1786372916112,-339,-95,10045,57421,7330,-51312,0,0,0,388,330,440,281,219,272,657,554,311,582,589,339,0,x,,,
2,1786372916112,4307,-2450,8882,-168598,-276111,-1018923,0,0,0,250,191,214,130,93,150,248,233,163,242,337,181,0,x,,,
1,1786372916128,-411,-100,10088,63529,21991,-52534,0,0,0,394,336,439,282,218,272,653,539,307,582,590,339,0,,,,
2,1786372916128,4685,-2388,8547,-146607,-153938,-1145983,0,0,0,250,192,217,130,96,151,243,235,163,241,342,185,0,,,,
1,1786372916144,-416,-114,10107,75747,57421,-45204,0,0,0,406,338,443,285,218,276,655,531,294,581,591,340,0,,,,
2,1786372916144,4905,-2378,8217,-152716,-53756,-1120326,0,0,0,250,191,218,131,95,153,242,235,164,242,342,187,0,,,,
1,1786372916160,-320,-134,10040,86742,85521,-35430,0,0,0,416,345,445,281,221,274,647,507,287,576,583,339,0,,,,
2,1786372916160,5422,-2775,7925,-166155,47647,-988379,0,0,0,253,192,218,131,94,154,246,233,167,242,339,185,0,,,,
1,1786372916176,-177,-153,9949,83077,80634,-31764,0,0,0,402,340,445,282,222,282,648,509,300,579,584,346,0,,,,
2,1786372916176,6216,-3426,7815,-160046,177150,-905302,0,0,0,263,195,222,131,93,150,247,233,164,243,341,185,0,,,,
1,1786372916192,-110,-172,9935,68416,41538,-34208,0,0,0,401,347,443,290,237,279,656,524,309,582,586,354,0,,,,
2,1786372916192,6757,-3895,8006,-134390,335975,-966388,0,0,0,264,196,219,132,95,149,246,240,163,240,348,184,0,,,,
1,1786372916208,-129,-191,9940,51312,2443,-39095,0,0,0,415,345,444,290,235,283,655,526,308,582,586,354,0,,,,
2,1786372916208,6168,-3780,8537,-96516,522900,-1106887,0,0,0,241,198,205,140,104,158,234,245,149,243,361,184,0,,,,
1,1786372916224,-186,-191,9920,28099,-13439,-43982,0,0,0,407,341,441,285,234,282,651,523,304,583,590,353,0,,,,
2,1786372916224,952,-1794,10385,-56199,373849,-954171,0,0,0,247,183,199,162,99,163,277,246,148,248,359,174,0,,,,
1,1786372916240,-148,-153,9920,2443,-18325,-47647,0,0,0,433,332,441,299,228,287,646,521,299,582,587,349,0,,,,
2,1786372916240,-8064,4972,12299,-75747,-845437,371406,0,0,0,248,186,203,196,122,163,257,245,146,234,366,174,0,,,,
1,1786372916256,67,-148,9940,-15882,-19547,-65973,0,0,0,435,326,453,303,226,291,652,529,306,579,584,345,0,,,,
2,1786372916256,-7542,9054,9499,-83077,-725707,2222327,0,0,0,248,195,197,152,111,159,257,293,142,248,392,185,0,,,,
1,1786372916272,43,-191,9987,-34208,-53756,-113620,0,0,0,435,325,457,302,226,290,655,534,307,580,587,347,0,,,,
2,1786372916272,-3756,5407,8805,136833,483805,2805093,0,0,0,247,199,199,151,109,162,247,282,142,244,380,183,0,,,,
1,1786372916288,-588,-71,10198,-12217,-98960,-91629,0,0,0,436,326,464,301,226,294,655,538,308,583,594,359,0,,,,
2,1786372916288,-574,-1383,11328,312763,1144761,2107485,0,0,0,247,200,200,151,112,159,250,277,146,238,376,181,0,,,,
1,1786372916304,-588,-67,10136,28099,-89186,-13439,0,0,0,430,327,471,303,229,301,656,540,308,584,598,364,0,,,,
2,1786372916304,-196,-3919,13022,175929,586430,1066570,0,0,0,247,196,209,146,105,162,249,252,144,238,365,185,0,,,,
1,1786372916320,-143,-167,9949,18325,-59864,-2443,0,0,0,420,328,467,306,233,297,658,538,301,581,598,352,0,,,,
2,1786372916320,-1167,-2670,12629,89186,10995,349414,0,0,0,244,189,209,147,103,164,247,238,148,234,350,185,0,,,,
1,1786372916336,-23,-167,10016,-2443,-53756,-29321,0,0,0,411,333,472,304,229,294,664,541,303,581,601,354,0,,,,
2,1786372916336,-1574,-282,11734,130725,-68416,-145385,0,0,0,252,192,215,145,101,157,247,234,154,237,345,190,0,,,,
1,1786372916352,-177,-105,10212,-2443,-72082,-56199,0,0,0,410,332,475,305,231,299,666,543,310,578,595,353,0,,,,
2,1786372916352,-1206,1737,10978,160046,-24434,-620639,0,0,0,255,197,220,141,102,155,246,243,158,241,351,196,0,,,,
1,1786372916368,-248,-100,10212,29321,-102625,-56199,0,0,0,414,328,470,300,224,293,663,542,309,578,594,350,0,,,,
2,1786372916368,-368,3144,10217,228463,85521,-847880,0,0,0,256,197,223,136,97,154,242,247,161,238,352,197,0,,,,
1,1786372916384,-277,-114,10093,48869,-116064,-53756,0,0,0,421,328,465,310,231,303,657,546,304,582,599,357,0,,,,
2,1786372916384,-545,4532,9930,368962,105068,-510683,0,0,0,260,198,223,134,94,152,236,241,157,233,346,195,0,,,,
1,1786372916400,-277,-114,9987,47647,-102625,-51312,0,0,0,421,328,470,304,231,303,652,546,303,585,602,361,0,,,,
2,1786372916400,-435,5853,9399,449596,-108734,256563,0,0,0,262,201,223,133,96,151,236,238,155,227,343,190,0,,,,
1,1786372916416,-258,-119,9968,30543,-81855,-52534,0,0,0,422,330,471,301,232,302,653,547,314,588,606,362,0,,,,
2,1786372916416,210,6436,8576,409279,-136833,926071,0,0,0,259,197,223,131,95,149,240,236,158,228,347,191,0,,,,
1,1786372916432,-282,-129,9978,12217,-62308,-54977,0,0,0,412,344,458,337,259,322,650,547,312,582,607,354,0,,,,
2,1786372916432,-33,6590,8423,232128,43982,1191187,0,0,0,262,194,218,137,96,153,236,229,155,240,354,197,0,,,,
1,1786372916448,-301,-134,10007,0,-46425,-56199,0,0,0,407,345,448,304,236,295,649,547,302,583,606,354,0,,,,
2,1786372916448,-770,6312,8686,-52534,107512,1253495,0,0,0,275,198,222,137,93,151,240,233,156,236,347,194,0,,,,
1,1786372916464,-296,-134,10011,-12217,-30543,-54977,0,0,0,407,348,463,293,226,289,649,547,302,584,604,353,0,,,,
2,1786372916464,-1316,5498,8954,-344527,2443,1220508,0,0,0,282,202,226,139,96,148,237,233,156,231,347,191,0,,,,
1,1786372916480,-263,-124,10002,-28099,-18325,-52534,0,0,0,404,342,465,290,225,292,649,549,302,587,609,356,0,,,,
2,1786372916480,-1210,4331,9107,-548556,-145385,1137431,0,0,0,285,192,220,153,92,152,216,205,161,240,345,197,0,,,,
1,1786372916496,-234,-110,10002,-43982,-10995,-51312,0,0,0,400,335,462,288,222,294,645,547,304,590,610,373,0,,,,
2,1786372916496,-780,3110,9298,-673173,-283441,976162,0,0,0,293,187,215,161,98,148,250,225,147,244,331,190,0,,,,
1,1786372916512,-234,-86,10021,-52534,-10995,-51312,0,0,0,399,336,464,285,221,291,646,547,309,587,604,376,0,,,,
2,1786372916512,-358,2100,9365,-645073,-404392,785572,0,0,0,282,194,211,153,93,145,245,231,146,238,321,188,0,,,,
1,1786372916528,-229,-67,10031,-54977,-10995,-50090,0,0,0,402,341,460,286,222,287,647,546,297,587,600,364,0,,,,
2,1786372916528,33,1048,9260,-455705,-538783,640186,0,0,0,260,197,218,139,95,146,230,227,149,216,298,184,0,,,,
1,1786372916544,-220,-52,10031,-54977,-12217,-48869,0,0,0,406,341,453,303,228,297,641,544,277,588,597,358,0,,,,
2,1786372916544,693,43,9049,-9773,-645073,610865,0,0,0,234,197,214,128,97,145,186,185,146,209,308,190,0,,,,
1,1786372916560,-215,-38,10011,-58643,-12217,-47647,0,0,0,407,334,455,312,233,303,639,554,274,583,589,352,0,,,,
2,1786372916560,1962,-435,9255,554665,-559552,730594,0,0,0,243,201,223,122,90,140,198,190,143,208,316,185,0,,,,
1,1786372916576,-205,-33,10016,-65973,-13439,-47647,0,0,0,409,333,456,284,213,287,642,557,274,590,590,357,0,,,,
2,1786372916576,3306,-397,10026,823446,-273667,952949,0,0,0,250,208,223,128,102,146,209,219,143,204,318,185,0,,,,
1,1786372916592,-196,-23,10031,-70860,-18325,-48869,0,0,0,403,325,465,286,220,285,645,557,269,600,596,369,0,,,,
2,1786372916592,3862,-617,10801,542448,-31764,1240056,0,0,0,254,211,221,131,106,148,207,228,139,201,314,181,0,,,,
1,1786372916608,-191,0,10035,-78190,-19547,-50090,0,0,0,400,320,459,275,210,272,643,557,271,603,597,354,0,,,,
2,1786372916608,4422,-2335,10571,-1221,-114842,1434311,0,0,0,256,215,220,132,110,149,206,219,139,205,310,180,0,,,,
1,1786372916624,-191,14,10064,-79412,-15882,-50090,0,0,0,392,314,446,278,204,261,645,541,268,605,602,354,0,,,,
2,1786372916624,4934,-4871,9734,-326202,-138055,1373225,0,0,0,252,217,220,131,110,147,206,225,138,205,317,178,0,,,,
1,1786372916640,-172,4,10035,-80634,-13439,-50090,0,0,0,391,307,467,277,226,276,647,531,260,611,610,335,0,,,,
2,1786372916640,3809,-7796,9231,-293215,124616,976162,0,0,0,249,223,219,127,109,143,214,240,138,194,331,170,0,,,,
1,1786372916656,-153,-14,9959,-98960,-15882,-46425,0,0,0,381,302,449,269,196,267,645,542,269,614,611,325,0,,,,
2,1786372916656,875,-9456,9853,23212,158824,356745,0,0,0,252,226,220,126,108,142,227,244,144,188,338,165,0,,,,
1,1786372916672,-153,-33,9920,-144164,-19547,-43982,0,0,0,385,284,456,259,180,259,647,544,260,630,607,317,0,,,,
2,1786372916672,311,-9691,9983,221133,-295658,-184481,0,0,0,254,220,223,130,105,144,227,233,146,195,333,170,0,,,,
1,1786372916688,-157,14,9959,-202807,-12217,-45204,0,0,0,371,312,454,258,187,276,647,565,279,614,629,334,0,,,,
2,1786372916688,3297,-9040,9265,109955,-498466,-770911,0,0,0,254,215,222,133,99,144,219,220,140,199,323,169,0,,,,
1,1786372916704,-143,129,10026,-238237,-1221,-47647,0,0,0,385,352,443,251,191,268,645,566,276,614,636,340,0,,,,
2,1786372916704,5561,-7676,8671,-75747,-17104,-1424537,0,0,0,255,212,221,137,99,141,220,225,139,195,332,159,0,,,,
1,1786372916720,-114,253,10102,-230907,0,-50090,0,0,0,384,331,441,246,180,260,640,561,275,621,639,336,0,,,,
2,1786372916720,3694,-2799,9375,-29321,564439,-1727526,0,0,0,250,221,225,136,110,146,212,243,140,202,352,171,0,,,,
1,1786372916736,-76,301,10174,-184481,-18325,-54977,0,0,0,386,296,441,249,169,261,636,563,276,619,645,329,0,,,,
2,1786372916736,2024,2723,10150,-73303,767246,-1351233,0,0,0,241,213,225,128,97,140,227,258,145,196,348,163,0,,,,
1,1786372916752,-76,315,10251,-128281,-43982,-59864,0,0,0,392,282,431,250,165,258,635,567,277,614,649,325,0,,,,
2,1786372916752,2498,3560,9830,-129503,979827,-632856,0,0,0,226,240,223,117,107,140,258,306,159,188,375,155,0,,,,
1,1786372916768,-124,315,10294,-70860,-72082,-64751,0,0,0,381,294,415,242,167,251,635,569,287,615,652,333,0,,,,
2,1786372916768,3718,971,9451,98960,959058,6108,0,0,0,245,233,226,129,101,140,248,297,140,234,406,163,0,,,,
1,1786372916784,-167,344,10260,-18325,-81855,-64751,0,0,0,382,311,414,235,164,243,634,570,288,617,652,337,0,,,,
2,1786372916784,2574,-148,9930,398284,515570,29321,0,0,0,236,203,220,137,93,148,229,285,137,230,427,164,0,,,,
1,1786372916800,-181,378,10236,36651,-79412,-62308,0,0,0,399,279,430,235,153,237,628,566,268,616,651,320,0,,,,
2,1786372916800,1320,-378,10452,458148,218689,-96516,0,0,0,244,227,220,143,114,149,255,316,137,232,428,161,0,,,,
1,1786372916816,-153,382,10260,106290,-79412,-57421,0,0,0,408,296,413,247,160,241,628,559,257,623,645,328,0,,,,
2,1786372916816,1550,-363,10519,271224,172263,-106290,0,0,0,252,243,215,161,132,157,294,340,139,286,473,154,0,,,,
1,1786372916832,-129,363,10270,178372,-91629,-52534,0,0,0,408,265,396,268,158,236,611,558,265,615,632,326,0,,,,
2,1786372916832,2081,-373,10208,75747,76969,-31764,0,0,0,278,212,228,173,112,160,334,358,150,301,502,162,0,,,,
1,1786372916848,-134,339,10294,255341,-117286,-51312,0,0,0,401,301,404,231,157,240,597,514,258,595,617,339,0,,,,
2,1786372916848,1947,-296,9748,-28099,-59864,35430,0,0,0,299,219,246,181,109,163,348,375,151,324,530,165,0,,,,
1,1786372916864,-172,344,10370,350636,-147829,-47647,0,0,0,406,274,382,237,153,238,573,473,248,595,586,340,0,,,,
2,1786372916864,1430,-220,9609,-73303,-106290,51312,0,0,0,315,219,248,201,112,170,403,399,151,375,559,165,0,,,,
1,1786372916880,-205,315,10471,471587,-175929,-36651,0,0,0,407,338,375,230,167,229,541,443,241,584,560,348,0,,,,
2,1786372916880,1359,-258,9739,-122173,-86742,58643,0,0,0,313,204,236,205,106,168,429,407,151,405,576,161,0,,,,
1,1786372916896,-215,229,10519,594982,-199142,-24434,0,0,0,401,333,362,232,173,229,494,401,242,556,552,344,0,,,,
2,1786372916896,1464,-282,9858,-191811,-58643,79412,0,0,0,294,193,238,191,98,174,426,414,158,389,589,170,0,,,,
1,1786372916912,-234,148,10543,692721,-206472,-15882,0,0,0,396,316,344,230,168,235,459,328,242,493,495,353,0,,,,
2,1786372916912,1359,-186,9739,-243124,-24434,89186,0,0,0,287,223,246,185,110,172,432,441,150,404,607,171,0,,,,
1,1786372916928,-382,28,10691,813672,-185703,-1221,0,0,0,393,278,328,221,154,221,431,304,238,440,466,347,0,,,,
2,1786372916928,1258,-100,9681,-270002,34208,89186,0,0,0,300,265,242,195,129,152,444,479,133,451,634,154,0,,,,
1,1786372916944,-732,-105,10959,946841,-135612,30543,0,0,0,380,249,298,217,145,209,406,277,226,410,405,338,0,,,,
2,1786372916944,1373,-38,9801,-283441,102625,89186,0,0,0,309,247,263,207,120,164,480,526,148,445,666,160,0,,,,
1,1786372916960,-1464,-114,11667,1103222,57421,112399,0,0,0,360,240,268,202,138,198,377,254,220,386,374,342,0,,,,
2,1786372916960,1651,0,10088,-277332,112399,87964,0,0,0,310,231,294,212,116,185,513,559,164,463,674,176,0,,,,
1,1786372916976,-2435,-717,13333,1391551,492357,293215,0,0,0,339,225,254,183,124,184,379,248,219,377,387,340,0,,,,
2,1786372916976,1765,28,10256,-259006,91629,79412,0,0,0,316,227,258,222,110,173,489,537,175,473,687,157,0,,,,
1,1786372916992,-3914,-1627,15027,1743409,791681,572991,0,0,0,318,187,249,174,101,175,407,249,217,379,376,323,0,,,,
2,1786372916992,1737,76,10246,-216246,74525,61086,0,0,0,313,225,266,214,109,177,531,606,155,452,691,166,0,,,,
1,1786372917008,-4532,-1215,15994,1870469,1099557,852767,0,0,0,301,157,247,156,84,173,385,268,227,358,367,323,0,,,,
2,1786372917008,1689,76,10145,-172263,78190,41538,0,0,0,305,203,298,218,108,202,533,629,181,474,700,175,0,,,,
1,1786372917024,-4991,134,15496,1819156,1775174,1021366,0,0,0,300,151,245,155,81,174,385,258,229,355,366,321,0,,,,
2,1786372917024,1665,95,9992,-152716,96516,30543,0,0,0,308,220,260,212,106,170,535,630,155,479,706,161,0,,,,
1,1786372917040,-7628,3254,13026,1673770,2282192,1088561,0,0,0,331,160,252,161,82,173,394,254,230,356,362,315,0,,,,
2,1786372917040,1665,157,9954,-151494,112399,23212,0,0,0,327,214,271,233,101,173,568,636,149,539,685,175,0,,,,
1,1786372917056,-11988,8245,9657,1342681,1599245,1092227,0,0,0,305,172,252,161,86,179,409,259,236,359,364,315,0,,,,
2,1786372917056,1670,224,9978,-141720,129503,17104,0,0,0,350,204,262,246,101,181,580,635,159,559,687,178,0,,,,
1,1786372917072,-12309,11509,6633,803898,70860,627969,0,0,0,313,172,252,155,85,173,396,267,239,354,366,323,0,,,,
2,1786372917072,1660,268,9901,-125838,149051,2443,0,0,0,330,206,255,234,107,184,571,628,165,517,682,192,0,,,,
1,1786372917088,-10074,11926,5551,411723,-834441,-87964,0,0,0,301,170,255,157,87,180,392,261,239,361,378,326,0,,,,
2,1786372917088,1684,311,9748,-114842,162490,-9773,0,0,0,308,204,262,210,102,201,565,627,196,498,682,197,0,,,,
1,1786372917104,-6934,10930,6144,48869,-1262047,-717155,0,0,0,304,174,262,158,88,182,384,276,238,339,381,330,0,,,,
2,1786372917104,1761,387,9566,-108734,147829,-24434,0,0,0,306,204,280,211,102,209,552,628,193,501,684,204,0,,,,
1,1786372917120,-4163,9696,6992,-307876,-1524719,-1062905,0,0,0,315,168,262,168,85,179,397,269,231,351,369,329,0,,,,
2,1786372917120,1837,445,9432,-95294,85521,-32986,0,0,0,309,205,272,216,107,205,546,627,175,492,685,196,0,,,,
1,1786372917136,-1718,8121,7925,-659734,-1622458,-1145983,0,0,0,306,168,257,159,88,179,384,279,237,344,367,317,0,,,,
2,1786372917136,1871,473,9322,-72082,9773,-37873,0,0,0,313,211,262,222,114,203,553,626,174,490,685,186,0,,,,
1,1786372917152,-502,6676,8810,-885754,-1500285,-1038470,0,0,0,295,167,247,164,100,182,369,273,232,340,357,306,0,,,,
2,1786372917152,1804,488,9313,-41538,-52534,-41538,0,0,0,321,216,270,228,114,209,560,627,179,497,684,189,0,,,,
1,1786372917168,119,5436,9820,-1100779,-1317025,-874759,0,0,0,292,156,236,172,108,185,375,258,231,342,350,297,0,,,,
2,1786372917168,1727,464,9437,-12217,-70860,-46425,0,0,0,321,215,273,223,110,212,560,629,188,491,687,195,0,,,,
1,1786372917184,110,4833,10653,-1315803,-1169196,-701273,0,0,0,280,148,229,177,113,187,376,247,232,333,349,295,0,,,,
2,1786372917184,1718,406,9585,7330,-68416,-52534,0,0,0,307,211,268,213,109,210,558,628,210,485,692,195,0,,,,
1,1786372917200,-196,4728,11150,-1539380,-1093448,-587652,0,0,0,260,155,232,171,119,191,363,246,231,317,355,299,0,,,,
2,1786372917200,1804,397,9672,28099,-63529,-53756,0,0,0,302,216,266,209,111,210,562,629,215,488,699,194,0,,,,
1,1786372917216,-449,4575,11653,-1715309,-1086118,-582765,0,0,0,243,166,234,162,124,193,347,250,232,290,359,306,0,,,,
2,1786372917216,1871,402,9691,57421,-83077,-52534,0,0,0,304,227,260,214,117,202,558,633,198,482,698,184,0,,,,
1,1786372917232,-445,3737,12328,-1866804,-1110553,-697608,0,0,0,251,173,234,164,126,194,336,260,234,267,356,314,0,,,,
2,1786372917232,1904,406,9700,94073,-127059,-53756,0,0,0,313,221,265,214,106,197,556,625,195,469,699,178,0,,,,
1,1786372917248,-181,2153,12821,-1876578,-1121548,-866206,0,0,0,267,181,237,168,123,196,335,273,240,269,352,317,0,,,,
2,1786372917248,1856,387,9691,133168,-189368,-61086,0,0,0,308,221,260,210,107,194,569,601,224,464,706,183,0,,,,
1,1786372917264,138,765,13132,-1766622,-1108109,-1022588,0,0,0,217,186,231,159,134,204,322,265,232,257,332,310,0,,,,
2,1786372917264,1794,354,9700,167377,-237015,-67195,0,0,0,319,225,270,210,104,176,572,601,186,457,713,187,0,,,,
1,1786372917280,406,-344,13237,-1561371,-1065348,-1159422,0,0,0,236,195,244,158,127,199,341,259,239,287,348,312,0,,,,
2,1786372917280,1746,330,9705,206472,-272445,-75747,0,0,0,324,221,273,205,101,170,565,599,186,454,707,155,0,,,,
1,1786372917296,617,-1201,13160,-1326799,-1028697,-1211956,0,0,0,229,198,243,151,131,200,326,262,238,265,343,309,0,,,,
2,1786372917296,1722,301,9715,244346,-294437,-80634,0,0,0,318,206,273,220,102,187,561,599,177,471,705,169,0,,,,
1,1786372917312,985,-1818,13146,-1145983,-944397,-1183856,0,0,0,234,198,246,155,128,202,338,253,240,275,344,309,0,,,,
2,1786372917312,1694,296,9729,289550,-316428,-83077,0,0,0,330,192,272,244,101,184,567,591,143,489,702,153,0,,,,
1,1786372917328,1277,-2177,13089,-1159422,-794124,-1049466,0,0,0,237,193,241,161,128,206,333,240,240,278,323,309,0,,,,
2,1786372917328,1684,306,9763,355523,-346971,-92851,0,0,0,304,196,314,250,119,227,571,572,169,467,700,189,0,,,,
1,1786372917344,1497,-2723,12514,-1384220,-659734,-726929,0,0,0,238,190,235,163,128,207,340,242,239,275,321,303,0,,,,
2,1786372917344,1622,248,9830,442266,-379958,-109955,0,0,0,301,218,307,238,142,225,559,543,177,518,657,192,0,,,,
1,1786372917360,1852,-3359,11715,-1547932,-531452,-344527,0,0,0,257,203,240,168,129,202,335,256,231,263,341,293,0,,,,
2,1786372917360,1521,134,9906,530231,-397062,-134390,0,0,0,293,246,341,230,148,233,532,490,187,482,652,202,0,,,,
1,1786372917376,2000,-3938,10849,-1560149,-346971,10995,0,0,0,256,198,237,171,126,207,334,256,229,266,334,295,0,,,,
2,1786372917376,1450,47,9930,626747,-392175,-162490,0,0,0,323,255,336,258,152,231,539,438,171,498,640,234,0,,,,
1,1786372917392,1746,-4446,10050,-1392772,-205250,232128,0,0,0,262,200,240,173,123,205,360,261,240,276,345,302,0,,,,
2,1786372917392,1407,-38,10002,748920,-367740,-197920,0,0,0,331,298,352,262,188,270,525,392,207,478,593,241,0,,,,
1,1786372917408,1593,-4948,9533,-1185078,-155159,309097,0,0,0,271,205,244,173,123,198,376,264,239,279,355,301,0,,,,
2,1786372917408,1378,-181,10165,855211,-338419,-215024,0,0,0,344,323,378,279,220,295,508,336,226,446,521,243,0,,,,
1,1786372917424,1746,-5613,9294,-998153,-141720,239459,0,0,0,269,206,247,169,123,196,366,262,235,273,347,298,0,,,,
2,1786372917424,1335,-445,10370,941954,-288328,-208915,0,0,0,385,315,368,308,219,289,525,283,206,435,463,270,0,,,,
1,1786372917440,1990,-6680,9059,-821002,-75747,74525,0,0,0,259,203,251,165,124,200,358,257,239,271,339,300,0,,,,
2,1786372917440,1282,-598,10495,1025031,-183259,-201585,0,0,0,400,352,365,307,239,305,518,265,236,387,418,293,0,,,,
1,1786372917456,1856,-7891,8829,-569326,-2443,-65973,0,0,0,252,203,255,163,125,203,360,252,242,275,342,302,0,,,,
2,1786372917456,1416,-636,10562,1121548,-69638,-219911,0,0,0,386,402,365,314,299,305,426,268,267,353,366,298,0,,,,
1,1786372917472,1316,-8915,8748,-320093,3665,-98960,0,0,0,248,207,253,159,126,204,346,250,238,274,344,299,0,,,,
2,1786372917472,1718,-713,10949,1252273,-12217,-285884,0,0,0,382,399,314,305,308,310,322,243,263,337,353,329,0,,,,
1,1786372917488,631,-10117,8619,-50090,-13439,17104,0,0,0,246,208,246,157,122,193,358,268,232,284,361,296,0,,,,
2,1786372917488,1828,-784,11816,1469741,-46425,-362853,0,0,0,440,466,299,355,322,354,366,211,286,332,310,365,0,,,,
1,1786372917504,9,-11155,8528,228463,32986,235793,0,0,0,249,209,225,163,126,187,385,361,231,310,451,284,0,,,,
2,1786372917504,1555,-961,12701,1864360,-156381,-419053,0,0,0,431,408,258,376,323,360,304,210,244,323,336,376,0,,,,
1,1786372917520,71,-12222,10351,763581,653625,526565,0,0,0,243,166,223,161,100,184,408,430,223,369,499,270,0,,,,
2,1786372917520,1258,-1134,13165,2343279,-166155,-420275,0,0,0,437,421,271,361,353,385,262,214,243,290,306,387,0,,,,
1,1786372917536,-421,-7513,12835,1655444,2208888,741590,0,0,0,252,161,214,177,100,184,438,468,218,401,539,258,0,,,,
2,1786372917536,1426,-1115,13730,2801427,-172263,-404392,0,0,0,435,402,271,303,354,390,189,212,270,253,286,418,0,,,,
1,1786372917552,-2057,1584,13610,2255314,2988352,401949,0,0,0,257,164,224,178,101,187,456,491,225,426,565,249,0,,,,
2,1786372917552,2100,-1277,14218,3297450,-266337,-423940,0,0,0,391,397,244,312,356,363,168,158,270,244,256,374,0,,,,
1,1786372917568,-871,2368,13682,2327396,2045176,-218689,0,0,0,260,163,285,179,93,195,498,498,233,483,592,251,0,,,,
2,1786372917568,2680,-1488,15118,3920533,-464257,-543670,0,0,0,390,446,224,321,330,292,146,138,188,236,241,339,0,,,,
1,1786372917584,1579,33,14462,2053728,1086118,-400727,0,0,0,272,192,298,193,114,199,520,548,233,524,607,259,0,,,,
2,1786372917584,3445,-1574,16817,4580267,-703716,-709825,0,0,0,340,429,258,310,340,325,138,127,180,227,227,335,0,,,,
1,1786372917600,2273,-1818,14467,1328021,430049,-118507,0,0,0,276,218,300,196,128,207,549,579,245,530,617,268,0,,,,
2,1786372917600,4235,-2115,19435,5167919,-1036027,-922406,0,0,0,284,394,273,254,307,305,146,149,172,208,209,265,0,,,,
1,1786372917616,301,-851,12706,597426,158824,3665,0,0,0,286,232,328,200,135,210,570,594,239,561,634,285,0,,,,
2,1786372917616,5312,-2340,21708,5693264,-1303586,-1152091,0,0,0,274,324,232,235,253,257,160,131,147,224,207,217,0,,,,
1,1786372917632,-588,119,11179,254119,62308,-34208,0,0,0,293,249,347,200,142,215,571,588,248,594,656,300,0,,,,
2,1786372917632,4771,-1651,23761,6146526,-1297477,-1387885,0,0,0,276,235,206,210,177,212,182,137,138,224,229,191,0,,,,
1,1786372917648,-540,201,10610,161268,37873,-57421,0,0,0,305,260,370,205,149,228,578,588,266,603,666,312,0,,,,
2,1786372917648,4962,-732,24551,6315124,-1362229,-1448972,0,0,0,261,194,205,170,125,176,191,164,139,206,253,179,0,,,,
1,1786372917664,-516,33,10744,68416,26878,-30543,0,0,0,331,258,388,228,154,234,598,587,261,599,663,314,0,,,,
2,1786372917664,6882,3115,20397,6123313,-1414763,-1475850,0,0,0,252,194,206,161,121,168,193,187,141,196,275,180,0,,,,
1,1786372917680,-564,210,10744,-25656,8552,-24434,0,0,0,351,256,376,253,159,229,615,569,244,599,665,308,0,,,,
2,1786372917680,8930,12309,13227,5200906,-1459967,-1277930,0,0,0,262,194,206,165,123,167,199,197,145,200,293,183,0,,,,
1,1786372917696,-512,521,10500,-54977,-20769,-39095,0,0,0,347,259,363,256,166,232,628,561,253,606,673,316,0,,,,
2,1786372917696,8423,19923,12356,2056172,-1205847,18325,0,0,0,268,203,206,162,126,161,199,197,143,210,301,184,0,,,,
1,1786372917712,-387,660,10318,-19547,-74525,-48869,0,0,0,349,259,374,254,165,238,640,559,275,620,655,308,0,,,,
2,1786372917712,6647,18320,11265,-874759,-1318247,1550375,0,0,0,264,228,205,162,142,163,196,206,141,208,314,183,0,,,,
1,1786372917728,-349,689,10342,32986,-145385,-51312,0,0,0,350,260,378,251,163,234,645,562,282,636,636,304,0,,,,
2,1786372917728,7556,11773,7083,-1832595,-1473406,2298075,0,0,0,265,256,207,160,152,162,195,206,140,206,321,181,0,,,,
1,1786372917744,-430,727,10457,108734,-216246,-45204,0,0,0,360,262,378,257,162,232,652,571,282,608,657,304,0,,,,
2,1786372917744,7733,10782,5522,-1629788,-416610,1880243,0,0,0,276,215,204,166,130,159,205,199,139,215,318,177,0,,,,
1,1786372917760,-574,722,10332,208915,-249233,-31764,0,0,0,350,274,375,271,169,249,648,574,259,595,650,318,0,,,,
2,1786372917760,4589,11232,7394,-2291966,339641,1622458,0,0,0,277,223,203,169,130,154,213,205,140,218,323,176,0,,,,
1,1786372917776,-713,646,10059,276111,-219911,-17104,0,0,0,353,277,375,268,173,243,640,567,259,598,653,312,0,,,,
2,1786372917776,3168,9016,8671,-3468492,-46425,1643227,0,0,0,276,222,208,164,128,156,210,215,136,215,323,176,0,,,,
1,1786372917792,-751,583,9911,289550,-133168,-8552,0,0,0,347,273,388,263,174,247,623,554,255,598,662,312,0,,,,
2,1786372917792,3718,5905,8571,-4295604,-285884,1352455,0,0,0,300,214,207,192,122,155,254,204,139,248,329,188,0,,,,
1,1786372917808,-622,555,9997,295658,-62308,-1221,0,0,0,343,275,390,254,179,248,620,538,273,594,656,308,0,,,,
2,1786372917808,3508,3699,8805,-4719544,-24434,670730,0,0,0,298,211,215,183,117,167,241,202,149,240,332,197,0,,,,
1,1786372917824,-516,512,10074,318871,-50090,1221,0,0,0,338,282,373,250,200,243,622,513,271,598,659,311,0,,,,
2,1786372917824,2177,2742,10165,-5026199,156381,155159,0,0,0,280,207,209,176,118,165,225,200,144,231,330,195,0,,,,
1,1786372917840,-526,469,10035,349414,-75747,6108,0,0,0,344,311,380,253,229,242,617,514,261,601,643,316,0,,,,
2,1786372917840,1665,1976,11596,-5299866,223576,-20769,0,0,0,281,220,212,171,122,164,222,197,146,226,323,194,0,,,,
1,1786372917856,-603,387,9920,368962,-74525,14660,0,0,0,350,314,378,266,226,251,608,501,279,596,622,320,0,,,,
2,1786372917856,1794,909,13208,-5540547,376292,97738,0,0,0,281,238,212,173,127,161,223,199,143,229,324,191,0,,,,
1,1786372917872,-626,268,9863,361632,-45204,21991,0,0,0,352,310,384,283,221,264,596,484,280,590,601,327,0,,,,
2,1786372917872,1837,-210,14687,-5703037,551000,332310,0,0,0,283,218,207,173,118,157,226,191,137,231,320,188,0,,,,
1,1786372917888,-603,210,9916,340862,-17104,26878,0,0,0,365,332,388,300,238,264,599,463,254,584,581,331,0,,,,
2,1786372917888,2043,-1091,16056,-5761680,670730,742812,0,0,0,284,222,206,171,118,156,223,193,136,229,324,187,0,,,,
1,1786372917904,-612,248,10078,351858,4886,29321,0,0,0,377,369,376,308,264,257,609,413,251,584,573,333,0,,,,
2,1786372917904,2904,-1579,17492,-5667607,813672,1320690,0,0,0,283,255,210,166,132,153,227,200,137,224,323,183,0,,,,
1,1786372917920,-655,253,10222,404392,36651,35430,0,0,0,374,389,388,310,281,280,589,361,279,586,565,355,0,,,,
2,1786372917920,3364,-2598,19258,-5516113,1031140,1811826,0,0,0,273,251,207,163,131,154,228,198,137,222,319,184,0,,,,
1,1786372917936,-655,167,10260,477696,76969,43982,0,0,0,389,380,401,328,275,314,577,325,313,557,526,389,0,,,,
2,1786372917936,2928,-5154,21316,-5403713,1189965,2125811,0,0,0,269,224,206,169,121,160,229,194,140,226,318,185,0,,,,
1,1786372917952,-626,110,10351,566882,108734,52534,0,0,0,407,421,402,346,307,298,576,268,319,542,470,393,0,,,,
2,1786372917952,2129,-9681,22656,-5401270,1164309,2202780,0,0,0,273,209,210,172,118,162,230,193,146,230,318,187,0,,,,
1,1786372917968,-598,47,10595,700051,119729,61086,0,0,0,422,457,400,379,371,317,568,270,319,519,423,395,0,,,,
2,1786372917968,985,-15716,23244,-5337740,1125213,2052507,0,0,0,270,206,207,169,118,160,229,195,151,227,318,187,0,,,,
1,1786372917984,-650,-90,10777,855211,79412,85521,0,0,0,411,468,434,370,352,327,558,251,281,484,403,407,0,,,,
2,1786372917984,-1162,-23163,22847,-5010316,1010371,1495398,0,0,0,266,198,204,171,119,162,236,199,150,223,314,180,0,,,,
1,1786372918000,-818,-224,10863,1004262,32986,135612,0,0,0,421,475,395,411,373,327,547,196,273,500,367,440,0,,,,
2,1786372918000,-1416,-30126,19530,-4224743,321315,511905,0,0,0,270,195,210,172,117,165,241,192,148,224,306,177,0,,,,
1,1786372918016,-1186,-315,10969,1131322,35430,218689,0,0,0,437,493,373,413,404,351,520,190,302,448,346,458,0,,,,
2,1786372918016,856,-35395,14122,-3156951,-240680,-493579,0,0,0,287,203,216,179,115,164,244,194,147,230,305,181,0,,,,
1,1786372918032,-1363,-478,11639,1306029,95294,356745,0,0,0,465,516,332,394,443,330,468,197,317,393,321,510,0,,,,
2,1786372918032,1296,-38511,9270,-1692096,-68416,-1225395,0,0,0,268,194,204,174,106,153,233,215,141,229,292,179,0,,,,
1,1786372918048,-1196,-698,12806,1623679,213802,483805,0,0,0,463,526,301,379,453,316,451,195,298,390,315,504,0,,,,
2,1786372918048,-3809,-38530,11576,257785,7330,-878424,0,0,0,288,190,207,190,102,169,286,258,153,252,377,176,0,,,,
1,1786372918064,-789,-842,13697,2073276,317649,542448,0,0,0,441,520,285,375,450,327,412,197,265,377,339,490,0,,,,
2,1786372918064,-4522,-25690,14639,2713463,-1071457,-69638,0,0,0,247,277,174,218,178,161,320,366,124,291,482,141,0,,,,
1,1786372918080,-287,-847,14300,2591290,368962,527787,0,0,0,440,518,248,365,421,336,362,193,266,351,338,483,0,,,,
2,1786372918080,167,-794,14577,3866776,-1894903,371406,0,0,0,267,184,174,224,117,169,353,424,129,344,557,139,0,,,,
1,1786372918096,-95,-847,14955,3145955,395840,483805,0,0,0,461,519,210,361,377,313,327,188,270,342,322,479,0,,,,
2,1786372918096,430,7508,13127,3963293,-1813048,239459,0,0,0,248,169,167,214,127,174,331,460,122,299,534,142,0,,,,
1,1786372918112,-555,-914,15869,3744603,412944,456927,0,0,0,468,499,194,372,367,297,298,190,246,333,312,460,0,,,,
2,1786372918112,-2096,-43,12883,3733608,-1050688,-206472,0,0,0,244,177,172,230,132,188,339,496,124,342,597,134,0,,,,
1,1786372918128,-2005,-1095,17745,4525289,472809,548556,0,0,0,449,465,201,350,365,294,263,182,240,305,287,437,0,,,,
2,1786372918128,-1574,-2474,14079,3365867,-287106,-445931,0,0,0,281,194,206,221,118,192,371,577,140,354,676,138,0,,,,
1,1786372918144,-4125,-1363,20339,5413487,658512,823446,0,0,0,413,436,218,301,345,282,240,166,250,274,248,424,0,,,,
2,1786372918144,531,-1292,14965,2828306,83077,-533896,0,0,0,287,202,223,203,113,193,420,617,145,426,693,137,0,,,,
1,1786372918160,-5733,-1694,23125,6211277,956614,1224173,0,0,0,375,408,214,277,325,276,241,174,235,257,222,399,0,,,,
2,1786372918160,2737,-856,14946,1982868,6108,-427605,0,0,0,285,215,227,201,111,184,476,642,149,504,711,158,0,,,,
1,1786372918176,-6829,-1206,25316,6945537,1097113,1648114,0,0,0,340,355,215,240,269,264,247,191,231,247,220,365,0,,,,
2,1786372918176,2096,-1698,13141,1258382,-285884,-190589,0,0,0,299,235,256,209,114,184,536,658,168,545,728,167,0,,,,
1,1786372918192,-7508,469,27341,7644367,778242,2122145,0,0,0,263,294,206,184,211,209,235,229,217,238,286,307,0,,,,
2,1786372918192,938,-1641,11270,731816,-416610,-62308,0,0,0,311,251,282,212,125,193,566,660,175,580,739,175,0,,,,
1,1786372918208,-7389,3000,29523,8025547,415388,2593733,0,0,0,230,223,221,155,141,193,334,244,220,253,330,292,0,,,,
2,1786372918208,717,-1162,10648,372627,-387288,-54977,0,0,0,314,257,293,215,137,195,526,633,173,609,749,181,0,,,,
1,1786372918224,-8341,9380,22861,7588167,1275486,2939483,0,0,0,252,260,226,167,152,211,295,245,234,250,338,302,0,,,,
2,1786372918224,957,-741,10725,169820,-360410,-56199,0,0,0,312,252,320,234,156,205,499,611,189,610,747,157,0,,,,
1,1786372918240,-11380,17329,14515,5556430,1707979,2761110,0,0,0,258,228,232,156,138,191,291,247,229,243,358,312,0,,,,
2,1786372918240,894,-531,10672,113620,-323758,-46425,0,0,0,303,249,324,242,168,216,559,661,173,607,746,167,0,,,,
1,1786372918256,-11170,21210,12830,1015258,168598,1463633,0,0,0,257,228,233,149,135,187,298,247,230,241,363,311,0,,,,
2,1786372918256,636,-354,10428,168598,-224798,-46425,0,0,0,314,259,309,223,151,194,555,651,161,606,738,173,0,,,,
1,1786372918272,-6647,14668,11308,-2272418,-404392,-1004262,0,0,0,270,227,230,157,138,183,304,248,239,246,359,308,0,,,,
2,1786372918272,526,-162,10198,263893,-107512,-57421,0,0,0,322,255,280,225,147,183,549,635,151,602,731,157,0,,,,
1,1786372918288,-7389,8825,7016,-2351831,30543,-2965139,0,0,0,264,218,228,154,136,188,300,246,244,250,361,310,0,,,,
2,1786372918288,569,-95,10059,387288,-10995,-67195,0,0,0,309,252,270,233,159,195,541,620,163,559,715,154,0,,,,
1,1786372918304,-9088,8810,5053,-1624901,-875980,-3604104,0,0,0,258,215,222,161,137,189,301,244,235,255,357,321,0,,,,
2,1786372918304,617,-134,9997,486248,32986,-68416,0,0,0,296,260,251,255,175,216,512,617,147,526,693,175,0,,,,
1,1786372918320,-4546,9844,7432,-2543642,-2120924,-3557679,0,0,0,260,215,225,163,134,194,301,241,232,255,355,317,0,,,,
2,1786372918320,708,-215,9882,571769,47647,-72082,0,0,0,280,260,257,227,180,219,464,585,168,502,678,177,0,,,,
1,1786372918336,-947,8533,9858,-3924198,-1960877,-3279124,0,0,0,270,217,230,168,129,193,316,245,234,261,361,311,0,,,,
2,1786372918336,842,-378,9734,603534,19547,-81855,0,0,0,275,272,265,210,170,220,448,563,176,496,663,180,0,,,,
1,1786372918352,-995,5508,10906,-5114163,-1490511,-2273640,0,0,0,283,213,229,183,128,189,339,249,234,277,366,314,0,,,,
2,1786372918352,871,-583,9528,559552,-62308,-91629,0,0,0,279,371,245,214,215,199,433,535,163,495,652,212,0,,,,
1,1786372918368,-258,2857,11840,-5908288,-1555262,-902858,0,0,0,283,210,225,188,131,191,348,248,235,283,362,315,0,,,,
2,1786372918368,794,-722,9408,476474,-150272,-98960,0,0,0,295,304,280,221,188,221,422,499,187,474,631,213,0,,,,
1,1786372918384,2067,1182,13357,-6254038,-1743409,405614,0,0,0,269,221,224,175,132,188,352,254,235,271,360,313,0,,,,
2,1786372918384,650,-765,9456,393397,-201585,-102625,0,0,0,308,294,314,231,185,243,411,471,207,467,619,208,0,,,,
1,1786372918400,3862,679,15381,-6333450,-1545489,827111,0,0,0,267,223,227,167,132,188,337,251,237,264,362,312,0,,,,
2,1786372918400,583,-799,9595,343306,-211359,-101403,0,0,0,304,304,330,239,193,253,420,440,202,460,621,209,0,,,,
1,1786372918416,3785,129,16937,-6423858,-1263269,493579,0,0,0,258,207,231,141,115,181,293,239,234,248,358,307,0,,,,
2,1786372918416,612,-871,9715,328645,-196698,-101403,0,0,0,312,300,296,242,201,242,409,400,187,446,616,194,0,,,,
1,1786372918432,2167,-1048,17831,-6465397,-1160643,-313984,0,0,0,258,212,231,142,124,188,311,249,243,240,357,310,0,,,,
2,1786372918432,646,-923,9681,323758,-196698,-111177,0,0,0,343,324,280,250,207,237,407,389,185,440,588,187,0,,,,
1,1786372918448,799,-2349,18808,-6299242,-1384220,-1169196,0,0,0,260,217,234,155,127,193,308,243,237,251,357,313,0,,,,
2,1786372918448,646,-933,9710,333532,-206472,-129503,0,0,0,339,351,302,243,217,250,408,382,201,426,558,202,0,,,,
1,1786372918464,-52,-3268,20521,-6072000,-1483180,-1787391,0,0,0,267,212,231,163,127,191,317,237,233,261,355,311,0,,,,
2,1786372918464,631,-952,9906,373849,-212581,-144164,0,0,0,327,360,331,244,253,271,403,345,210,421,527,208,0,,,,
1,1786372918480,-1129,-4436,22703,-5924171,-1280373,-1993864,0,0,0,266,220,228,158,130,188,319,240,229,260,355,309,0,,,,
2,1786372918480,617,-918,10155,448375,-195476,-145385,0,0,0,343,365,343,283,305,293,415,284,200,433,472,203,0,,,,
1,1786372918496,-1459,-7260,23890,-5832541,-1109331,-1995085,0,0,0,248,288,227,162,166,201,319,255,230,245,361,295,0,,,,
2,1786372918496,631,-894,10337,558330,-160046,-152716,0,0,0,352,385,324,325,334,307,432,224,196,409,400,224,0,,,,
1,1786372918512,-167,-12275,23732,-5569869,-1076344,-2250427,0,0,0,248,299,221,166,177,204,308,268,238,241,365,292,0,,,,
2,1786372918512,732,-914,10500,704938,-111177,-178372,0,0,0,383,411,322,353,339,326,397,193,209,373,349,249,0,,,,
1,1786372918528,2392,-18334,22268,-5033529,-1045801,-2680476,0,0,0,253,256,221,173,159,205,310,269,235,250,361,296,0,,,,
2,1786372918528,1115,-1014,10969,922406,-72082,-249233,0,0,0,420,440,346,389,349,353,339,187,215,328,312,293,0,,,,
1,1786372918544,3335,-24493,20100,-4250400,-525344,-2603507,0,0,0,257,229,223,183,153,208,324,267,230,255,360,295,0,,,,
2,1786372918544,1397,-1201,11940,1242499,-103847,-372627,0,0,0,434,455,291,373,360,344,305,153,229,305,278,290,0,,,,
1,1786372918560,1426,-29360,16865,-3415958,215024,-1893682,0,0,0,266,231,228,189,154,205,347,268,233,264,363,296,0,,,,
2,1786372918560,909,-1359,13089,1722639,-188146,-456927,0,0,0,466,490,243,438,432,346,307,170,259,295,273,322,0,,,,
1,1786372918576,-1450,-33500,12199,-2390926,474031,-730594,0,0,0,270,232,234,190,150,204,359,269,237,268,365,301,0,,,,
2,1786372918576,579,-1550,14060,2273640,-204028,-480140,0,0,0,428,547,214,333,452,330,226,173,224,276,293,301,0,,,,
1,1786372918592,473,-35697,9585,-1291369,-48869,-111177,0,0,0,266,221,228,199,156,212,356,263,234,263,363,295,0,,,,
2,1786372918592,636,-1531,14668,2871066,-217468,-476474,0,0,0,456,544,276,332,410,378,162,136,215,249,248,365,0,,,,
1,1786372918608,2952,-34548,8686,131946,-279776,-46425,0,0,0,265,204,214,210,162,215,369,253,227,278,358,282,0,,,,
2,1786372918608,976,-1550,14615,3525914,-306654,-485026,0,0,0,474,550,252,344,402,355,186,167,235,257,242,327,0,,,,
1,1786372918624,1052,-28762,9490,1236391,-30543,-278554,0,0,0,270,186,214,204,141,205,417,292,226,318,403,276,0,,,,
2,1786372918624,1383,-1708,14687,4216191,-411723,-548556,0,0,0,469,533,239,343,419,370,135,135,193,240,242,324,0,,,,
1,1786372918640,-3144,-16826,12275,1926668,124616,1221,0,0,0,269,146,192,195,95,182,483,436,210,384,543,247,0,,,,
2,1786372918640,1813,-1914,15582,4908913,-535117,-681725,0,0,0,443,535,220,338,461,334,125,128,168,223,215,292,0,,,,
1,1786372918656,-6968,8279,16228,2279749,1021366,109955,0,0,0,245,190,160,182,126,172,500,531,206,452,556,228,0,,,,
2,1786372918656,3163,-2584,17774,5610186,-695164,-888198,0,0,0,383,502,205,326,448,295,146,132,166,191,190,252,0,,,,
1,1786372918672,-5805,21880,13247,2470339,2586403,-329867,0,0,0,252,190,175,203,116,186,539,580,231,495,592,224,0,,,,
2,1786372918672,5441,-3886,20684,6246707,-977384,-1181413,0,0,0,307,431,204,283,408,287,130,123,158,190,213,238,0,,,,
1,1786372918688,1215,4503,14213,3100751,3075095,-571769,0,0,0,260,150,204,217,92,180,576,623,213,556,647,213,0,,,,
2,1786372918688,7590,-5178,24508,6764721,-1104444,-1605353,0,0,0,240,327,187,221,320,251,116,130,137,184,222,205,0,,,,
1,1786372918704,4465,-6307,18923,2836858,2464230,-357967,0,0,0,269,162,238,222,112,199,618,659,236,627,669,202,0,,,,
2,1786372918704,5996,-5029,29303,6936985,-912632,-2012190,0,0,0,220,233,182,165,189,183,141,149,125,174,215,170,0,,,,
1,1786372918720,2971,-2823,20095,1831373,1392772,-17104,0,0,0,270,215,280,225,145,223,640,675,242,650,682,244,0,,,,
2,1786372918720,6087,-2010,30222,6836803,-701273,-2197893,0,0,0,231,191,223,138,107,160,180,150,135,183,228,166,0,,,,
1,1786372918736,2048,1268,16214,1155757,583987,20769,0,0,0,294,251,309,235,161,227,636,672,246,658,690,267,0,,,,
2,1786372918736,8442,6618,23172,6189286,-588874,-2328618,0,0,0,234,187,232,140,98,164,207,136,132,193,234,155,0,,,,
1,1786372918752,1608,1478,13127,866206,-45204,19547,0,0,0,302,264,325,253,182,243,640,669,257,662,683,284,0,,,,
2,1786372918752,8710,13539,18999,4194200,-813672,-1883908,0,0,0,237,197,198,131,98,135,204,129,112,209,238,149,0,,,,
1,1786372918768,741,531,11356,818559,-537561,1221,0,0,0,308,271,324,260,202,247,647,679,246,662,682,278,0,,,,
2,1786372918768,6183,15855,18205,598647,-1467298,-146607,0,0,0,236,206,200,133,105,136,177,136,123,193,241,154,0,,,,
1,1786372918784,-311,756,10634,734260,-702495,-42760,0,0,0,312,270,316,265,220,244,653,681,239,663,681,278,0,,,,
2,1786372918784,7150,12141,13294,-1523497,-2149023,1718974,0,0,0,230,193,204,142,114,146,176,140,124,197,250,156,0,,,,
1,1786372918800,-842,1076,10461,625526,-579100,-64751,0,0,0,319,288,313,275,232,251,657,670,243,662,676,289,0,,,,
2,1786372918800,9035,9605,8169,-2091602,-1474628,2414139,0,0,0,231,192,202,131,100,140,179,138,120,187,258,147,0,,,,
1,1786372918816,-746,1172,10490,612086,-305432,-42760,0,0,0,321,314,318,276,233,262,652,644,244,643,668,299,0,,,,
2,1786372918816,6877,9404,6728,-2365270,150272,2166128,0,0,0,235,201,196,136,94,138,168,138,113,184,258,145,0,,,,
1,1786372918832,-358,1220,10457,691499,-125838,-7330,0,0,0,320,319,324,277,233,265,647,595,245,614,658,308,0,,,,
2,1786372918832,2665,8868,7968,-3273015,592539,1860695,0,0,0,238,196,194,138,106,141,172,154,119,191,272,148,0,,,,
1,1786372918848,4,1210,10385,796568,-147829,9773,0,0,0,333,326,322,297,242,263,648,535,254,595,645,314,0,,,,
2,1786372918848,1196,7250,8308,-4130670,376292,1579697,0,0,0,244,204,203,134,98,139,174,145,122,201,276,155,0,,,,
1,1786372918864,47,1091,10323,884532,-300545,4886,0,0,0,324,315,297,298,257,277,632,480,272,563,599,352,0,,,,
2,1786372918864,1397,5407,8480,-4840496,261450,1015258,0,0,0,234,201,188,134,97,135,188,143,124,203,275,152,0,,,,
1,1786372918880,-186,918,10222,956614,-430049,0,0,0,0,336,315,287,304,259,282,618,418,292,543,556,327,0,,,,
2,1786372918880,1081,4278,9193,-5323079,346971,504574,0,0,0,231,202,186,131,99,135,184,144,120,203,279,148,0,,,,
1,1786372918896,-492,689,10011,970053,-417831,0,0,0,0,346,323,273,327,258,282,627,383,285,527,486,333,0,,,,
2,1786372918896,497,3364,10160,-5687155,443488,183259,0,0,0,233,216,189,130,101,133,189,146,120,212,279,152,0,,,,
1,1786372918912,-626,416,9796,913854,-310319,2443,0,0,0,366,331,287,340,258,289,614,348,294,527,463,360,0,,,,
2,1786372918912,382,2814,11155,-5874080,582765,268780,0,0,0,238,211,191,142,105,134,195,147,122,215,273,153,0,,,,
1,1786372918928,-679,210,9667,805120,-182037,10995,0,0,0,380,357,278,343,260,298,604,317,309,516,410,377,0,,,,
2,1786372918928,483,2364,12337,-6006027,781907,551000,0,0,0,238,192,189,146,103,137,194,145,122,218,283,153,0,,,,
1,1786372918944,-684,119,9681,698829,-84299,34208,0,0,0,361,374,282,340,289,297,586,273,318,496,419,391,0,,,,
2,1786372918944,550,1560,13907,-6164851,984714,900415,0,0,0,237,182,188,143,97,140,189,138,119,219,280,154,0,,,,
1,1786372918960,-670,86,9849,619417,-41538,70860,0,0,0,358,408,275,338,332,291,585,267,319,444,390,393,0,,,,
2,1786372918960,646,804,15582,-6311459,1062905,1174082,0,0,0,243,178,193,144,92,141,195,132,119,230,263,154,0,,,,
1,1786372918976,-760,19,10069,571769,-26878,113620,0,0,0,381,418,272,353,345,300,578,238,320,415,358,416,0,,,,
2,1786372918976,1124,291,17745,-6464175,1097113,1477072,0,0,0,249,181,196,145,88,140,207,133,123,249,258,152,0,,,,
1,1786372918992,-985,-23,10270,582765,-28099,171042,0,0,0,408,415,265,377,352,309,560,219,316,399,337,435,0,,,,
2,1786372918992,1952,-335,20220,-6599788,1170417,1653001,0,0,0,247,186,197,142,86,138,210,131,127,248,253,151,0,,,,
1,1786372919008,-1091,-100,10638,665843,12217,265115,0,0,0,421,414,259,380,362,314,548,202,319,389,309,450,0,,,,
2,1786372919008,2105,-2474,23469,-6726848,1307251,1463633,0,0,0,237,179,195,140,86,144,217,131,135,236,246,154,0,,,,
1,1786372919024,-741,-201,11112,803898,108734,333532,0,0,0,425,424,251,368,370,325,536,192,339,377,283,490,0,,,,
2,1786372919024,1450,-6566,26838,-6847799,1306029,1102000,0,0,0,228,180,188,141,92,142,210,134,125,222,244,149,0,,,,
1,1786372919040,-339,-291,11462,1011592,184481,335975,0,0,0,443,441,244,374,378,338,513,206,358,357,274,525,0,,,,
2,1786372919040,717,-14797,28891,-6882007,1194852,785572,0,0,0,235,192,190,140,95,137,209,121,124,230,254,158,0,,,,
1,1786372919056,-478,-459,11682,1266934,116064,331088,0,0,0,476,450,240,397,386,336,462,236,343,339,270,516,0,,,,
2,1786372919056,-732,-25360,29088,-6509379,1293812,428827,0,0,0,228,184,182,135,95,140,209,126,131,218,258,152,0,,,,
1,1786372919072,-536,-655,11921,1551597,34208,357967,0,0,0,464,455,214,399,395,335,397,252,310,330,259,514,0,,,,
2,1786372919072,-3464,-36568,26743,-5424483,1237612,-107512,0,0,0,228,194,187,136,101,141,213,142,133,214,278,152,0,,,,
1,1786372919088,-177,-751,11998,1833817,28099,370184,0,0,0,458,464,206,404,437,360,436,211,346,323,271,525,0,,,,
2,1786372919088,-3225,-44220,19564,-3814242,485026,-503352,0,0,0,229,204,192,138,107,142,218,159,136,211,298,152,0,,,,
1,1786372919104,-52,-861,12246,2131919,68416,317649,0,0,0,481,473,212,398,443,352,440,191,333,339,219,547,0,,,,
2,1786372919104,-2847,-49418,12816,-2040289,139277,-598647,0,0,0,202,212,185,119,123,136,196,286,149,166,401,123,0,,,,
1,1786372919120,-574,-1076,12964,2442239,78190,294437,0,0,0,467,485,204,428,455,347,430,197,331,330,217,526,0,,,,
2,1786372919120,-6211,-50657,13242,287106,195476,-105068,0,0,0,230,216,185,158,132,146,283,389,132,228,543,133,0,,,,
1,1786372919136,-827,-1273,13759,2862514,70860,335975,0,0,0,479,494,202,405,407,342,387,201,335,299,218,526,0,,,,
2,1786372919136,-5738,-24958,16582,3370754,-384845,772133,0,0,0,227,213,171,166,141,149,277,479,121,281,572,132,0,,,,
1,1786372919152,-421,-1301,14515,3376863,85521,371406,0,0,0,472,471,181,413,381,365,325,164,307,283,196,519,0,,,,
2,1786372919152,-2172,5608,16822,4458094,-1314581,635299,0,0,0,237,222,169,174,141,153,291,533,118,317,630,133,0,,,,
1,1786372919168,-512,-1435,15415,3883881,144164,377514,0,0,0,479,464,186,418,394,358,284,149,307,289,178,500,0,,,,
2,1786372919168,-1115,6719,15185,4113566,-1319468,-428827,0,0,0,233,251,177,173,159,161,317,577,127,340,673,132,0,,,,
1,1786372919184,-1296,-2091,16841,4506963,211359,425162,0,0,0,446,453,184,392,403,352,265,141,305,277,168,479,0,,,,
2,1786372919184,-157,-732,15946,3814242,-373849,-941954,0,0,0,256,245,195,179,139,156,379,596,129,406,692,126,0,,,,
1,1786372919200,-2689,-2689,19282,5187467,291993,551000,0,0,0,402,416,182,375,375,319,254,148,280,259,165,412,0,,,,
2,1786372919200,1440,-3034,17372,3286454,465479,-790459,0,0,0,279,221,220,186,109,156,429,605,137,453,705,121,0,,,,
1,1786372919216,-4881,-2761,23024,5948605,355523,825889,0,0,0,372,361,192,340,330,302,241,159,281,234,168,383,0,,,,
2,1786372919216,3168,-961,15692,2289522,361632,-469144,0,0,0,277,215,228,181,109,159,428,623,143,461,714,130,0,,,,
1,1786372919232,-5934,-2325,25862,6718295,267558,1249830,0,0,0,340,300,192,274,261,268,253,163,265,223,165,363,0,,,,
2,1786372919232,3125,210,12438,1336573,-29321,-150272,0,0,0,300,211,235,191,111,162,438,638,140,499,718,145,0,,,,
1,1786372919248,-5661,-1407,28030,7349930,-94073,1617571,0,0,0,289,245,193,216,189,222,287,172,240,232,193,317,0,,,,
2,1786372919248,1895,38,10270,851546,-228463,-21991,0,0,0,337,217,256,217,115,170,473,643,140,548,719,147,0,,,,
1,1786372919264,-5173,1775,30882,7932695,-681725,2019520,0,0,0,252,242,203,196,162,202,339,197,237,250,248,292,0,,,,
2,1786372919264,1584,-191,10112,466701,-267558,-10995,0,0,0,328,238,254,219,128,164,499,636,134,578,725,146,0,,,,
1,1786372919280,-7092,8643,25886,7737219,-320093,2392148,0,0,0,272,275,219,199,164,201,358,211,237,270,278,293,0,,,,
2,1786372919280,1636,186,10437,116064,-309097,-23212,0,0,0,321,235,255,220,131,171,511,626,132,571,729,153,0,,,,
1,1786372919296,-9140,15300,18612,6003583,233350,2482556,0,0,0,319,251,234,198,144,197,309,194,232,282,270,284,0,,,,
2,1786372919296,1545,799,10533,-3665,-290771,-31764,0,0,0,310,236,250,208,128,186,494,623,132,538,734,142,0,,,,
1,1786372919312,-8102,18607,16156,1634675,153938,1534493,0,0,0,319,201,221,213,138,201,328,202,239,283,270,294,0,,,,
2,1786372919312,1306,990,10212,89186,-153938,-36651,0,0,0,304,243,243,196,126,156,489,593,135,531,738,135,0,,,,
1,1786372919328,-4814,14443,14821,-1940107,353080,-389732,0,0,0,316,209,229,202,138,196,331,219,242,288,293,297,0,,,,
2,1786372919328,1244,957,9940,182037,-30543,-41538,0,0,0,303,242,255,209,129,167,482,594,140,533,739,153,0,,,,
1,1786372919344,-4828,9729,11040,-2872288,767246,-1842369,0,0,0,306,209,231,197,126,187,324,201,240,304,273,292,0,,,,
2,1786372919344,1349,942,9839,238237,31764,-42760,0,0,0,311,248,247,203,133,162,466,592,130,516,722,148,0,,,,
1,1786372919360,-6417,7824,7518,-2423913,173485,-2480112,0,0,0,311,205,226,195,131,195,330,199,248,301,270,291,0,,,,
2,1786372919360,1497,976,9777,287106,40317,-50090,0,0,0,307,242,249,197,126,156,467,558,137,513,721,133,0,,,,
1,1786372919376,-3718,8336,8513,-3155729,-916297,-2577851,0,0,0,322,197,221,202,125,192,336,198,249,305,261,288,0,,,,
2,1786372919376,1617,985,9696,333532,-9773,-73303,0,0,0,334,251,260,209,133,159,461,548,155,497,701,136,0,,,,
1,1786372919392,-990,7709,10083,-4477642,-1100779,-2678033,0,0,0,331,198,227,208,126,197,340,205,242,309,268,295,0,,,,
2,1786372919392,1660,952,9576,375071,-109955,-105068,0,0,0,312,270,277,196,135,157,450,536,162,488,667,141,0,,,,
1,1786372919408,-1225,5044,10390,-5630955,-626747,-2430021,0,0,0,334,199,224,205,123,195,341,204,244,308,267,293,0,,,,
2,1786372919408,1531,909,9480,410501,-218689,-124616,0,0,0,319,289,262,212,155,162,443,533,139,489,648,134,0,,,,
1,1786372919424,-1761,2330,9987,-5870414,-817337,-1491732,0,0,0,331,200,226,210,128,198,338,201,245,305,269,293,0,,,,
2,1786372919424,1320,875,9514,452040,-265115,-127059,0,0,0,320,302,255,243,169,175,468,527,133,498,645,142,0,,,,
1,1786372919440,-258,832,10686,-5850867,-1115439,-399505,0,0,0,332,204,233,210,129,205,336,203,252,301,278,298,0,,,,
2,1786372919440,1206,746,9624,503352,-233350,-124616,0,0,0,311,298,296,250,176,192,466,511,143,498,636,153,0,,,,
1,1786372919456,1598,760,12342,-5904623,-979827,307876,0,0,0,328,199,230,204,125,202,334,202,248,298,279,294,0,,,,
2,1786372919456,1244,588,9657,542448,-193033,-128281,0,0,0,313,305,304,235,180,203,440,480,157,478,619,160,0,,,,
1,1786372919472,1531,550,13845,-6212499,-671951,433714,0,0,0,323,196,226,201,123,197,333,200,242,295,275,294,0,,,,
2,1786372919472,1306,449,9672,561996,-177150,-142942,0,0,0,321,296,308,241,179,228,433,444,179,479,603,172,0,,,,
1,1786372919488,708,-277,14754,-6398202,-689055,179594,0,0,0,320,199,229,199,121,196,337,201,243,292,271,295,0,,,,
2,1786372919488,1287,363,9753,586430,-171042,-158824,0,0,0,324,305,321,269,195,242,447,416,203,489,577,183,0,,,,
1,1786372919504,-47,-1024,15549,-6324898,-951728,-327423,0,0,0,316,198,229,194,120,196,340,204,243,291,271,284,0,,,,
2,1786372919504,1301,301,9868,629191,-156381,-164933,0,0,0,325,349,312,275,226,242,445,394,215,450,523,193,0,,,,
1,1786372919520,-1024,-1450,17348,-6168517,-1225395,-965167,0,0,0,316,198,227,197,123,197,338,208,243,291,275,278,0,,,,
2,1786372919520,1397,229,10126,698829,-139277,-168598,0,0,0,329,347,339,269,246,274,419,342,217,387,434,211,0,,,,
1,1786372919536,-1914,-2747,19731,-6107430,-1363451,-1336573,0,0,0,319,196,227,202,125,200,333,198,242,298,279,281,0,,,,
2,1786372919536,1541,177,10413,781907,-122173,-188146,0,0,0,372,342,314,308,282,287,414,233,232,367,353,228,0,,,,
1,1786372919552,-2278,-5618,22244,-6111095,-1370781,-1422094,0,0,0,314,198,227,207,130,204,327,191,239,298,275,275,0,,,,
2,1786372919552,1665,52,10576,878424,-108734,-232128,0,0,0,411,367,312,334,289,353,409,201,278,407,330,259,0,,,,
1,1786372919568,-1411,-10519,24053,-6092769,-1354899,-1400103,0,0,0,316,201,224,211,134,206,333,197,244,306,274,272,0,,,,
2,1786372919568,1852,-86,10729,999375,-124616,-307876,0,0,0,396,427,269,401,375,304,384,192,243,367,309,284,0,,,,
1,1786372919584,583,-16946,24546,-5938831,-1339016,-1363451,0,0,0,309,201,220,202,127,200,324,200,253,322,301,264,0,,,,
2,1786372919584,1895,-239,11366,1202182,-201585,-408057,0,0,0,442,456,274,398,360,366,349,192,284,315,321,316,0,,,,
1,1786372919600,2780,-25383,23129,-5419596,-1071457,-1171639,0,0,0,304,192,214,232,134,195,324,203,241,322,294,261,0,,,,
2,1786372919600,1871,-430,12510,1546710,-288328,-493579,0,0,0,438,460,281,355,360,366,301,181,283,269,273,332,0,,,,
1,1786372919616,1847,-32744,19238,-4280943,-406836,-487470,0,0,0,320,201,210,224,127,195,368,189,245,359,287,261,0,,,,
2,1786372919616,1785,-449,13735,2125811,-299323,-583987,0,0,0,452,478,251,355,383,374,278,160,280,269,259,357,0,,,,
1,1786372919632,483,-36487,14711,-3000570,-46425,331088,0,0,0,326,203,217,233,130,207,393,184,253,357,283,270,0,,,,
2,1786372919632,1373,-325,14515,2720793,-296880,-621860,0,0,0,476,492,244,336,416,382,210,137,283,261,254,384,0,,,,
1,1786372919648,2837,-38142,11222,-1565036,-267558,668286,0,0,0,336,204,222,243,129,214,417,184,253,362,284,275,0,,,,
2,1786372919648,1344,-301,14970,3403741,-326202,-596204,0,0,0,499,496,251,384,401,342,170,135,262,244,233,385,0,,,,
1,1786372919664,5733,-38415,9772,-64751,-290771,324980,0,0,0,345,204,225,252,129,217,423,182,247,366,277,273,0,,,,
2,1786372919664,1914,-526,15257,4164879,-365297,-616973,0,0,0,485,499,246,366,465,384,142,136,301,264,256,376,0,,,,
1,1786372919680,4077,-35257,9992,1221730,70860,-155159,0,0,0,328,182,215,235,121,214,438,291,240,390,415,264,0,,,,
2,1786372919680,2483,-713,15841,4923573,-422718,-734260,0,0,0,461,477,212,379,460,353,160,116,238,254,223,319,0,,,,
1,1786372919696,-1421,-17224,14328,2299296,540004,-89186,0,0,0,271,165,179,196,110,194,466,434,230,414,531,243,0,,,,
2,1786372919696,3149,-918,17473,5701816,-509461,-928515,0,0,0,401,489,203,391,464,399,152,117,240,214,188,275,0,,,,
1,1786372919712,-5671,11514,16367,2718350,1742187,-153938,0,0,0,245,164,158,190,110,178,513,539,225,443,575,218,0,,,,
2,1786372919712,4331,-1713,20617,6476393,-706160,-1166752,0,0,0,316,456,203,349,447,379,129,128,229,173,180,238,0,,,,
1,1786372919728,-3306,21229,11806,2951700,3172834,-524122,0,0,0,251,165,161,200,111,184,549,596,229,487,610,207,0,,,,
2,1786372919728,6829,-2737,25163,7137349,-1075122,-1442863,0,0,0,265,368,198,275,352,284,125,128,179,163,194,205,0,,,,
1,1786372919744,2407,1641,13596,3365867,3265685,-476474,0,0,0,246,174,171,201,111,193,570,632,233,538,645,200,0,,,,
2,1786372919744,8394,-2665,29049,7600385,-990823,-1822821,0,0,0,248,274,189,197,220,217,147,135,156,171,205,174,0,,,,
1,1786372919760,3589,-7212,17980,2879618,2581516,-208915,0,0,0,253,205,201,216,129,190,601,659,231,597,668,182,0,,,,
2,1786372919760,8198,-976,31677,7882605,-623082,-2188119,0,0,0,221,193,180,136,122,151,178,156,135,168,195,141,0,,,,
1,1786372919776,1775,-1823,19109,1929112,1599245,-109955,0,0,0,265,223,251,215,144,193,604,679,247,660,702,183,0,,,,
2,1786372919776,10059,6092,27336,7678576,-250454,-2553416,0,0,0,222,186,198,127,99,146,180,151,136,187,222,156,0,,,,
1,1786372919792,1976,1320,16252,1413542,851546,-160046,0,0,0,264,213,285,227,161,224,604,684,278,664,701,228,0,,,,
2,1786372919792,12299,16271,18817,6318790,-42760,-2900388,0,0,0,234,186,203,137,106,149,184,143,133,197,227,164,0,,,,
1,1786372919808,2043,799,13438,1100779,241902,-80634,0,0,0,290,228,334,227,155,236,615,680,276,677,695,255,0,,,,
2,1786372919808,9557,22900,16932,2631607,-228463,-2214997,0,0,0,244,181,198,146,103,145,211,148,129,207,225,162,0,,,,
1,1786372919824,1105,-67,11777,911410,-193033,28099,0,0,0,290,241,333,235,169,229,634,694,281,684,701,262,0,,,,
2,1786372919824,5589,19148,16338,-1467298,-1662775,-105068,0,0,0,266,190,192,165,105,143,236,148,125,233,228,169,0,,,,
1,1786372919840,0,301,11055,733038,-398284,18325,0,0,0,307,267,325,231,181,220,625,694,261,684,704,261,0,,,,
2,1786372919840,7537,12529,11127,-2907718,-2642603,1469741,0,0,0,278,224,205,172,128,151,227,163,131,217,237,155,0,,,,
1,1786372919856,-459,760,10710,563217,-400727,-41538,0,0,0,316,264,317,259,183,227,640,676,270,678,690,270,0,,,,
2,1786372919856,10830,9480,5886,-2403143,-1544267,1909564,0,0,0,271,203,199,143,102,138,218,158,130,191,222,145,0,,,,
1,1786372919872,-263,942,10547,520457,-298102,-67195,0,0,0,310,264,316,261,187,236,628,637,262,656,679,277,0,,,,
2,1786372919872,6657,10399,7513,-2902831,-76969,1957212,0,0,0,287,214,201,151,112,141,204,166,128,205,235,155,0,,,,
1,1786372919888,-81,1005,10370,614530,-249233,-43982,0,0,0,319,265,335,266,191,246,638,612,276,642,677,304,0,,,,
2,1786372919888,3134,9341,9777,-4125783,-96516,2174680,0,0,0,303,207,199,180,118,149,213,164,123,226,237,152,0,,,,
1,1786372919904,-14,995,10232,719599,-256563,-21991,0,0,0,317,267,338,265,191,251,652,576,272,619,660,301,0,,,,
2,1786372919904,3866,5613,10404,-5391496,-785572,2113593,0,0,0,296,204,203,176,119,150,208,173,127,220,238,154,0,,,,
1,1786372919920,-9,894,10169,795346,-305432,-13439,0,0,0,312,295,328,261,209,253,639,526,273,592,634,303,0,,,,
2,1786372919920,4819,3134,10672,-5885075,-544891,1346346,0,0,0,290,199,200,161,109,146,216,178,135,201,231,149,0,,,,
1,1786372919936,-81,746,10193,835663,-356745,-13439,0,0,0,314,299,328,269,224,258,625,475,278,576,589,319,0,,,,
2,1786372919936,4158,1603,11835,-6274807,-252898,513126,0,0,0,293,203,202,167,113,150,214,178,136,206,230,151,0,,,,
1,1786372919952,-234,579,10141,872315,-378736,-13439,0,0,0,319,291,322,285,224,264,624,429,275,562,546,329,0,,,,
2,1786372919952,3943,823,13046,-6541144,-193033,287106,0,0,0,280,200,201,163,115,154,207,178,137,211,231,156,0,,,,
1,1786372919968,-402,392,9997,885754,-343306,-4886,0,0,0,327,299,308,299,239,269,626,388,287,537,525,334,0,,,,
2,1786372919968,4642,-52,14051,-6731734,35430,503352,0,0,0,270,198,201,159,112,154,209,177,140,210,232,158,0,,,,
1,1786372919984,-536,220,9844,860098,-240680,12217,0,0,0,339,301,316,315,259,289,625,341,319,514,496,350,0,,,,
2,1786372919984,5297,-1110,15094,-6831916,552222,1075122,0,0,0,278,204,204,167,113,154,221,177,141,218,235,159,0,,,,
1,1786372920000,-569,28,9763,813672,-133168,40317,0,0,0,358,320,335,332,255,315,613,289,339,507,461,378,0,,,,
2,1786372920000,5326,-1957,16377,-6789156,962723,1754404,0,0,0,289,210,206,176,112,154,244,179,144,229,236,157,0,,,,
1,1786372920016,-531,-191,9806,752585,-67195,76969,0,0,0,372,347,333,340,260,304,609,277,322,502,454,376,0,,,,
2,1786372920016,5719,-2502,17956,-6665761,1229060,2320066,0,0,0,294,214,207,180,110,153,267,177,142,233,235,152,0,,,,
1,1786372920032,-569,-268,10007,707381,-62308,114842,0,0,0,379,384,326,354,271,310,593,266,305,491,416,388,0,,,,
2,1786372920032,6336,-3378,20827,-6510601,1576032,2553416,0,0,0,285,214,202,167,108,148,257,173,138,225,241,147,0,,,,
1,1786372920048,-689,-244,10260,714712,-48869,158824,0,0,0,407,392,320,361,283,316,589,221,305,477,360,404,0,,,,
2,1786372920048,5053,-5738,24134,-6559470,1866804,2003637,0,0,0,279,216,206,148,104,146,213,159,134,222,263,153,0,,,,
1,1786372920064,-866,-291,10466,788016,-2443,221133,0,0,0,414,415,305,372,322,358,578,185,337,454,322,423,0,,,,
2,1786372920064,2660,-10007,27312,-6698748,1918116,1244943,0,0,0,277,222,201,164,121,148,207,156,129,220,257,146,0,,,,
1,1786372920080,-928,-421,10705,882089,42760,294437,0,0,0,429,428,301,403,310,373,578,182,350,438,306,451,0,,,,
2,1786372920080,545,-16458,28475,-6731734,1725083,831998,0,0,0,270,220,199,216,150,159,199,143,127,228,263,152,0,,,,
1,1786372920096,-617,-598,11232,1051909,97738,365297,0,0,0,444,429,269,412,344,384,573,175,352,406,285,490,0,,,,
2,1786372920096,-971,-26886,26685,-6131865,1600466,696386,0,0,0,275,206,205,155,113,151,206,156,136,213,244,156,0,,,,
1,1786372920112,-215,-760,11715,1334129,75747,372627,0,0,0,459,452,238,414,399,393,566,204,349,374,269,502,0,,,,
2,1786372920112,-2273,-38028,22517,-4726875,1435533,338419,0,0,0,276,203,216,160,106,178,217,139,170,207,223,172,0,,,,
1,1786372920128,9,-923,12136,1666440,-51312,351858,0,0,0,464,464,219,413,416,378,539,262,355,369,277,519,0,,,,
2,1786372920128,-2057,-44211,16515,-3064100,966388,-67195,0,0,0,285,197,212,171,102,173,240,125,161,226,243,165,0,,,,
1,1786372920144,76,-1019,12926,2010968,-205250,313984,0,0,0,475,461,210,407,397,374,495,264,384,338,243,541,0,,,,
2,1786372920144,-3000,-48384,11399,-1197295,722042,-87964,0,0,0,287,200,217,159,98,170,233,124,163,225,250,169,0,,,,
1,1786372920160,-43,-942,14108,2437352,-249233,280998,0,0,0,481,445,202,402,386,388,451,230,380,298,191,568,0,,,,
2,1786372920160,-5599,-47236,10820,676838,761138,656069,0,0,0,260,212,228,142,124,184,210,179,171,198,282,172,0,,,,
1,1786372920176,-402,-1024,14754,2984687,-197920,274889,0,0,0,487,441,192,423,380,389,426,188,371,295,160,585,0,,,,
2,1786372920176,-4417,-37554,14046,2430021,613308,1565036,0,0,0,235,207,194,146,143,163,271,347,145,245,467,147,0,,,,
1,1786372920192,-875,-1249,15309,3709173,-202807,311541,0,0,0,484,447,195,445,386,388,403,161,382,296,156,566,0,,,,
2,1786372920192,-1713,-8025,21229,3676187,179594,1909564,0,0,0,235,214,162,172,158,163,292,486,137,273,598,137,0,,,,
1,1786372920208,-1383,-1282,16132,4372573,-221133,414166,0,0,0,462,429,202,423,401,393,348,157,375,276,168,519,0,,,,
2,1786372920208,-1574,32486,19028,3646865,-855211,1442863,0,0,0,226,197,155,184,147,172,323,572,148,348,664,154,0,,,,
1,1786372920224,-2359,-1665,17496,5105611,-218689,582765,0,0,0,435,404,186,399,377,362,297,137,366,272,166,466,0,,,,
2,1786372920224,-3441,18927,11275,4083023,-1320690,139277,0,0,0,238,189,160,198,139,172,378,634,137,407,710,144,0,,,,
1,1786372920240,-3196,-2249,20583,5979148,-309097,833220,0,0,0,385,376,175,372,342,354,287,140,333,259,162,428,0,,,,
2,1786372920240,-646,-7073,16199,4597371,-714712,-736703,0,0,0,268,202,189,205,129,165,432,667,130,450,733,141,0,,,,
1,1786372920256,-4278,-2096,26082,6868568,-455705,1062905,0,0,0,390,317,194,338,288,285,295,140,316,258,161,380,0,,,,
2,1786372920256,3134,-10466,24484,3437949,-90408,-596204,0,0,0,276,213,218,196,120,162,479,686,155,523,746,158,0,,,,
1,1786372920272,-6724,-1416,30418,7757988,-647517,1367116,0,0,0,307,267,186,251,226,252,260,156,268,229,169,346,0,,,,
2,1786372920272,3383,-1354,19640,1750739,-280998,-283441,0,0,0,276,219,232,201,129,177,515,704,181,575,756,156,0,,,,
1,1786372920288,-8542,110,34108,8541117,-1317025,1882686,0,0,0,228,227,192,173,178,209,364,201,238,281,255,295,0,,,,
2,1786372920288,1512,2479,11261,839328,-338419,-78190,0,0,0,291,234,253,225,136,195,540,702,175,585,748,161,0,,,,
1,1786372920304,-8978,6575,34591,8872206,-2404365,2651155,0,0,0,244,217,211,195,148,204,359,223,237,278,306,285,0,,,,
2,1786372920304,1330,765,9763,729373,-67195,-63529,0,0,0,301,279,247,232,161,185,523,681,161,591,741,159,0,,,,
1,1786372920320,-8734,16779,25690,7971791,-2748893,3461162,0,0,0,239,207,221,174,142,206,306,203,241,259,296,299,0,,,,
2,1786372920320,2000,-28,10519,570548,30543,-57421,0,0,0,313,245,262,221,143,179,466,607,175,577,749,145,0,,,,
1,1786372920336,-6049,23455,17721,3802025,-1523497,3288898,0,0,0,247,212,232,154,136,194,290,209,233,255,290,297,0,,,,
2,1786372920336,2096,875,10811,455705,-113620,-64751,0,0,0,308,301,248,248,207,183,539,668,138,564,742,150,0,,,,
1,1786372920352,-4661,18090,16606,-1663996,857654,1128878,0,0,0,265,201,237,160,128,198,291,214,231,267,291,294,0,,,,
2,1786372920352,1713,1368,10375,538783,-206472,-92851,0,0,0,291,313,264,235,236,210,504,639,138,540,744,150,0,,,,
1,1786372920368,-7896,10356,12467,-3599217,1966986,-569326,0,0,0,274,200,236,198,139,197,294,208,237,265,287,292,0,,,,
2,1786372920368,1392,1244,10011,667064,-202807,-116064,0,0,0,300,288,267,254,201,238,528,597,172,542,734,176,0,,,,
1,1786372920384,-10480,7312,7485,-2790432,538783,-1064127,0,0,0,279,210,235,200,140,193,313,217,236,266,295,296,0,,,,
2,1786372920384,1234,961,9853,735481,-125838,-123394,0,0,0,294,336,260,242,213,223,401,497,182,505,697,159,0,,,,
1,1786372920400,-4546,8834,7432,-2829527,-1676214,-1315803,0,0,0,278,212,235,177,126,194,325,221,235,265,300,306,0,,,,
2,1786372920400,1220,1009,9825,752585,-40317,-112399,0,0,0,289,268,267,242,178,220,419,512,177,463,657,158,0,,,,
1,1786372920416,607,8547,9471,-4042706,-1602910,-1981646,0,0,0,274,212,235,170,123,195,311,211,238,252,290,311,0,,,,
2,1786372920416,1273,971,9753,791681,26878,-103847,0,0,0,285,246,255,250,173,232,440,502,160,470,626,164,0,,,,
1,1786372920432,435,5972,10519,-5302310,-585208,-2415361,0,0,0,269,211,230,156,125,193,295,214,238,248,285,312,0,,,,
2,1786372920432,1363,717,9562,808785,50090,-113620,0,0,0,277,251,267,241,182,242,426,462,167,465,597,172,0,,,,
1,1786372920448,-1124,3058,10634,-5980370,-480140,-1795943,0,0,0,261,200,223,152,121,187,296,210,239,251,287,308,0,,,,
2,1786372920448,1411,464,9375,766025,43982,-127059,0,0,0,294,257,258,258,185,244,473,445,168,469,562,176,0,,,,
1,1786372920464,-775,1225,11289,-6288246,-753807,-783129,0,0,0,241,196,226,151,122,190,304,209,240,255,283,314,0,,,,
2,1786372920464,1440,306,9303,676838,20769,-135612,0,0,0,292,293,269,260,207,256,488,438,180,466,540,187,0,,,,
1,1786372920480,335,445,12864,-6445850,-941954,125838,0,0,0,242,218,227,161,136,199,325,239,254,272,299,324,0,,,,
2,1786372920480,1478,157,9337,580321,-19547,-135612,0,0,0,285,319,267,256,225,257,487,421,199,447,536,191,0,,,,
1,1786372920496,804,-43,14539,-6644992,-1022588,481361,0,0,0,245,196,226,158,121,193,314,224,240,274,299,323,0,,,,
2,1786372920496,1454,67,9413,508239,-59864,-130725,0,0,0,287,293,263,266,223,263,488,407,205,431,510,196,0,,,,
1,1786372920512,526,-789,15951,-6861238,-1112996,245567,0,0,0,257,205,225,154,114,178,316,223,231,273,305,321,0,,,,
2,1786372920512,1402,28,9562,464257,-76969,-128281,0,0,0,294,273,276,276,219,289,476,398,217,396,482,214,0,,,,
1,1786372920528,-459,-1794,16989,-6883229,-1319468,-445931,0,0,0,254,205,225,156,117,185,324,220,238,274,301,312,0,,,,
2,1786372920528,1397,0,9724,459370,-57421,-125838,0,0,0,306,292,280,298,229,304,476,347,229,365,457,232,0,,,,
1,1786372920544,-1737,-2933,18521,-6768386,-1599245,-1147204,0,0,0,250,220,227,155,125,192,321,233,245,268,302,312,0,,,,
2,1786372920544,1450,-9,9892,491135,-29321,-128281,0,0,0,319,297,289,343,245,311,502,259,236,373,395,238,0,,,,
1,1786372920560,-2857,-4977,21028,-6624222,-1894903,-1579697,0,0,0,246,218,233,152,123,203,321,218,262,268,290,320,0,,,,
2,1786372920560,1608,9,10145,575435,3665,-149051,0,0,0,320,317,310,350,256,331,509,230,279,335,366,250,0,,,,
1,1786372920576,-3105,-8834,23369,-6554584,-1995085,-1518610,0,0,0,251,222,232,150,116,199,327,207,262,274,277,313,0,,,,
2,1786372920576,1823,4,10509,717155,56199,-206472,0,0,0,328,360,270,372,322,338,474,208,239,335,303,289,0,,,,
1,1786372920592,-2684,-14137,24484,-6434854,-2052507,-1284038,0,0,0,248,228,232,154,120,201,328,200,259,272,275,303,0,,,,
2,1786372920592,1737,-67,11103,927293,95294,-273667,0,0,0,343,425,265,375,424,408,449,181,297,355,329,326,0,,,,
1,1786372920608,-545,-21033,24000,-6070778,-2178345,-1036027,0,0,0,246,225,233,162,129,211,331,196,264,269,273,302,0,,,,
2,1786372920608,1569,-148,11830,1230282,94073,-295658,0,0,0,350,428,230,365,446,397,387,183,315,306,290,345,0,,,,
1,1786372920624,2321,-28332,21890,-5205793,-1877799,-866206,0,0,0,250,218,233,166,134,213,338,191,266,272,270,296,0,,,,
2,1786372920624,2057,-339,12601,1660331,41538,-315206,0,0,0,351,454,238,346,394,397,344,143,334,351,301,417,0,,,,
1,1786372920640,2469,-34079,18152,-4020715,-1147204,-456927,0,0,0,254,216,230,169,132,208,345,184,260,289,274,291,0,,,,
2,1786372920640,2689,-655,13400,2175901,0,-430049,0,0,0,435,413,197,386,405,406,312,213,309,301,279,387,0,,,,
1,1786372920656,2077,-36305,14108,-2747671,-707381,252898,0,0,0,254,212,224,175,131,209,358,184,257,302,275,292,0,,,,
2,1786372920656,2593,-612,14357,2828306,-64751,-581543,0,0,0,452,464,199,407,487,415,296,180,368,308,277,410,0,,,,
1,1786372920672,5345,-36190,11835,-1451415,-658512,447153,0,0,0,255,202,216,173,130,206,372,183,259,291,273,284,0,,,,
2,1786372920672,2517,-449,15223,3534466,-162490,-681725,0,0,0,486,479,205,424,488,443,238,156,352,300,269,414,0,,,,
1,1786372920688,7561,-35314,10839,-109955,-410501,-23212,0,0,0,259,184,202,183,119,201,412,206,253,334,333,272,0,,,,
2,1786372920688,2737,-512,15807,4340808,-254119,-774577,0,0,0,458,433,191,433,437,445,180,136,360,260,221,391,0,,,,
1,1786372920704,5321,-30849,12199,1142317,135612,-665843,0,0,0,239,177,195,221,116,206,496,397,241,388,509,254,0,,,,
2,1786372920704,3058,-650,16822,5213123,-232128,-934623,0,0,0,419,443,229,452,437,433,181,127,334,235,190,348,0,,,,
1,1786372920720,-598,-8418,15716,2327396,1997529,-838107,0,0,0,268,165,149,229,104,182,570,541,222,514,566,206,0,,,,
2,1786372920720,3397,-995,19167,6153856,-212581,-1121548,0,0,0,363,408,228,430,429,415,193,140,300,202,158,297,0,,,,
1,1786372920736,-2354,12141,14730,2965139,4046371,-944397,0,0,0,256,181,145,226,126,188,567,594,227,509,600,191,0,,,,
2,1786372920736,4776,-2043,24043,7039611,-317649,-1280373,0,0,0,334,330,210,367,351,353,181,127,227,192,147,248,0,,,,
1,1786372920752,2196,10217,14295,3164281,4707327,-841772,0,0,0,274,182,137,245,128,189,599,620,223,564,638,196,0,,,,
2,1786372920752,6436,-2560,29174,7627263,-293215,-1435533,0,0,0,301,265,196,289,267,272,173,133,168,209,155,207,0,,,,
1,1786372920768,4345,-1966,17779,2725680,3711617,-312763,0,0,0,268,153,168,242,112,201,622,642,216,617,661,174,0,,,,
2,1786372920768,7116,-1809,32553,8010886,54977,-1628566,0,0,0,254,197,182,200,172,196,184,158,153,203,177,175,0,,,,
1,1786372920784,2407,-2904,18707,2113593,2433687,-95294,0,0,0,269,157,200,244,114,207,620,656,223,659,678,176,0,,,,
2,1786372920784,7815,2823,31304,8139168,1006705,-1930334,0,0,0,224,155,184,139,95,152,193,153,144,181,200,157,0,,,,
1,1786372920800,1880,1301,16601,1718974,1203404,-241902,0,0,0,275,169,252,246,125,217,640,674,238,686,690,193,0,,,,
2,1786372920800,8714,12471,23871,7555181,1800830,-2423913,0,0,0,213,165,185,138,99,157,190,142,136,187,207,159,0,,,,
1,1786372920816,2421,1713,13984,1468520,310319,-146607,0,0,0,280,180,275,245,133,225,650,684,257,694,694,218,0,,,,
2,1786372920816,6331,22182,18798,5148372,1279151,-2543642,0,0,0,240,175,191,150,101,158,190,134,136,201,216,171,0,,,,
1,1786372920832,1383,722,12433,1216843,-178372,2443,0,0,0,295,206,286,247,143,229,666,689,264,697,697,244,0,,,,
2,1786372920832,3364,23067,18856,522900,-1207069,-930958,0,0,0,239,171,197,144,100,157,194,138,147,202,215,164,0,,,,
1,1786372920848,-62,449,11342,907745,-398284,40317,0,0,0,301,233,298,247,155,234,671,684,262,697,697,266,0,,,,
2,1786372920848,6154,16180,14673,-2571742,-3156951,728151,0,0,0,224,154,201,146,93,167,214,134,173,197,204,157,0,,,,
1,1786372920864,-693,760,10777,657290,-410501,6108,0,0,0,308,240,303,252,160,237,665,674,255,690,690,272,0,,,,
2,1786372920864,10591,10011,7920,-2698802,-2465452,1021366,0,0,0,229,160,231,145,93,184,186,130,153,206,220,179,0,,,,
1,1786372920880,-674,1014,10614,493579,-298102,-31764,0,0,0,321,245,304,263,170,236,669,663,249,681,681,267,0,,,,
2,1786372920880,7303,10815,7705,-2794097,-959058,717155,0,0,0,229,157,242,147,99,184,188,129,159,207,220,186,0,,,,
1,1786372920896,-430,1110,10457,406836,-180816,-48869,0,0,0,316,253,299,261,188,233,668,650,252,672,672,270,0,,,,
2,1786372920896,3613,10380,9389,-3990171,-886976,919963,0,0,0,238,171,254,139,100,178,185,130,160,206,220,190,0,,,,
1,1786372920912,-205,1316,10184,426383,-164933,-43982,0,0,0,314,244,298,258,178,224,672,646,252,667,667,262,0,,,,
2,1786372920912,4690,6953,9447,-5213123,-1565036,1226617,0,0,0,247,160,250,158,90,182,203,127,164,221,224,195,0,,,,
1,1786372920928,-76,1469,10040,499687,-213802,-32986,0,0,0,308,232,307,252,177,228,662,608,253,655,655,259,0,,,,
2,1786372920928,6226,3819,9021,-5717698,-1167974,919963,0,0,0,239,161,265,143,88,185,195,127,171,213,224,196,0,,,,
1,1786372920944,-110,1397,10040,593761,-310319,-20769,0,0,0,308,238,306,251,179,230,655,560,275,648,652,253,0,,,,
2,1786372920944,5446,2206,9877,-5996253,-602313,441044,0,0,0,232,166,279,140,91,198,192,128,186,207,220,207,0,,,,
1,1786372920960,-296,1220,10007,660956,-377514,-13439,0,0,0,316,247,311,263,182,233,642,535,256,622,622,292,0,,,,
2,1786372920960,4694,1411,11404,-6235712,-454483,218689,0,0,0,226,164,276,137,89,193,192,130,180,207,219,202,0,,,,
1,1786372920976,-574,1072,9810,687834,-366519,-3665,0,0,0,319,252,331,274,182,255,638,503,254,622,642,274,0,,,,
2,1786372920976,5202,665,12653,-6439741,-270002,260228,0,0,0,223,168,284,138,92,194,202,140,179,210,239,202,0,,,,
1,1786372920992,-727,971,9590,670730,-267558,8552,0,0,0,332,284,333,262,186,239,645,492,252,604,615,304,0,,,,
2,1786372920992,5958,-516,14089,-6636439,217468,494800,0,0,0,236,173,294,137,89,194,197,138,180,206,239,204,0,,,,
1,1786372921008,-684,789,9509,604756,-123394,28099,0,0,0,353,282,333,280,196,256,642,470,253,607,608,293,0,,,,
2,1786372921008,5766,-1751,15529,-6668204,697608,872315,0,0,0,234,171,302,131,83,197,194,134,189,200,233,209,0,,,,
1,1786372921024,-598,641,9595,543670,-14660,51312,0,0,0,346,298,347,298,218,275,638,433,282,592,590,299,0,,,,
2,1786372921024,5580,-2354,17037,-6579018,993266,1384220,0,0,0,221,167,298,127,79,196,207,137,199,199,235,209,0,,,,
1,1786372921040,-521,622,9882,535117,21991,64751,0,0,0,348,317,366,316,246,288,632,397,293,593,565,316,0,,,,
2,1786372921040,6025,-2455,19090,-6426302,1238834,2002416,0,0,0,225,176,283,127,86,184,215,137,194,199,235,198,0,,,,
1,1786372921056,-502,583,10265,580321,35430,68416,0,0,0,364,340,364,343,266,312,626,343,293,584,545,331,0,,,,
2,1786372921056,6379,-3350,22067,-6348111,1637118,2225992,0,0,0,233,194,276,134,104,181,203,137,181,203,237,188,0,,,,
1,1786372921072,-521,445,10457,668286,32986,67195,0,0,0,371,391,362,350,307,333,623,284,308,555,523,368,0,,,,
2,1786372921072,5628,-5790,25393,-6368880,1930334,2003637,0,0,0,242,199,247,141,99,156,187,132,149,219,240,171,0,,,,
1,1786372921088,-531,253,10514,770911,7330,78190,0,0,0,382,421,374,359,344,341,622,257,316,509,472,405,0,,,,
2,1786372921088,4077,-10839,27274,-6449515,1854586,1585806,0,0,0,248,178,207,146,82,144,240,128,136,235,232,160,0,,,,
1,1786372921104,-708,229,10725,895528,-50090,112399,0,0,0,407,422,369,386,354,341,619,237,328,459,395,417,0,,,,
2,1786372921104,2440,-18540,27111,-6328563,1784948,1253495,0,0,0,240,166,205,147,80,144,250,131,142,232,228,159,0,,,,
1,1786372921120,-985,215,11112,1075122,-120951,183259,0,0,0,422,450,336,390,376,343,606,203,360,424,339,445,0,,,,
2,1786372921120,296,-28035,25326,-5681046,1827708,883311,0,0,0,233,163,192,146,80,141,243,123,133,244,234,152,0,,,,
1,1786372921136,-1076,-14,11375,1288925,-179594,279776,0,0,0,443,438,307,410,373,362,578,199,343,387,317,469,0,,,,
2,1786372921136,-1383,-36994,21622,-4502076,1372003,353080,0,0,0,239,162,192,142,77,139,259,139,149,231,230,154,0,,,,
1,1786372921152,-823,-311,11998,1524719,-194255,356745,0,0,0,444,450,286,431,385,377,541,194,368,365,292,495,0,,,,
2,1786372921152,-540,-44843,14635,-2840523,491135,-202807,0,0,0,245,160,257,158,88,173,272,132,165,237,234,175,0,,,,
1,1786372921168,-741,-425,13314,1887573,-142942,384845,0,0,0,448,445,215,422,408,372,509,191,359,378,261,515,0,,,,
2,1786372921168,-2005,-49121,10480,-1125213,288328,-323758,0,0,0,245,166,247,148,89,161,251,181,152,228,331,160,0,,,,
1,1786372921184,-1005,-449,14486,2452013,-83077,426383,0,0,0,473,464,215,423,403,377,447,160,342,367,249,531,0,,,,
2,1786372921184,-5278,-44230,12749,1034805,168598,513126,0,0,0,246,173,192,134,81,151,281,317,147,235,492,159,0,,,,
1,1786372921200,-899,-387,15223,3054326,-31764,474031,0,0,0,485,493,215,413,399,366,415,150,318,315,191,556,0,,,,
2,1786372921200,-3613,-19148,19660,3051882,-753807,1527163,0,0,0,249,182,157,163,98,137,309,446,128,295,591,123,0,,,,
1,1786372921216,-1067,-435,15563,3637091,32986,502131,0,0,0,484,476,203,408,378,370,389,140,302,312,166,558,0,,,,
2,1786372921216,-1387,13031,19224,3908315,-2150245,1610240,0,0,0,242,180,150,196,105,135,335,529,114,311,647,120,0,,,,
1,1786372921232,-1340,-559,16075,4339586,97738,585208,0,0,0,475,480,189,384,371,370,321,142,298,279,167,519,0,,,,
2,1786372921232,-3833,10428,13912,4031710,-2351831,400727,0,0,0,239,188,156,185,104,135,365,580,116,362,681,127,0,,,,
1,1786372921248,-1182,-670,17295,5006651,142942,653625,0,0,0,454,463,188,393,360,349,301,140,299,273,159,468,0,,,,
2,1786372921248,-3311,-2550,14486,3976732,-1332907,-524122,0,0,0,239,196,167,171,107,139,386,615,124,388,697,135,0,,,,
1,1786372921264,-2459,-1287,19865,5786115,161268,733038,0,0,0,403,425,185,360,343,329,264,145,330,246,169,412,0,,,,
2,1786372921264,-258,-4307,17176,3467271,-227241,-612086,0,0,0,254,184,191,200,104,153,429,624,124,456,717,137,0,,,,
1,1786372921280,-4493,-1660,23622,6559470,174707,924849,0,0,0,364,366,181,315,317,306,237,158,311,213,176,369,0,,,,
2,1786372921280,2182,569,16420,2557081,136833,-382401,0,0,0,271,176,220,204,95,162,464,630,136,540,737,142,0,,,,
1,1786372921296,-6350,-1134,27709,7342600,89186,1259604,0,0,0,332,299,188,282,263,284,274,159,282,222,176,350,0,,,,
2,1786372921296,2656,1167,14146,1699427,-50090,-188146,0,0,0,272,181,233,186,102,168,486,647,161,565,744,154,0,,,,
1,1786372921312,-7365,229,30418,8063421,-239459,1671327,0,0,0,281,241,207,221,185,245,313,159,274,255,210,326,0,,,,
2,1786372921312,1976,-291,11978,996932,-322536,-58643,0,0,0,268,192,238,201,121,181,521,646,166,573,747,145,0,,,,
1,1786372921328,-7896,3857,31902,8675508,-830776,2230879,0,0,0,248,204,219,163,130,198,302,181,245,264,258,285,0,,,,
2,1786372921328,1354,-287,10811,518013,-443488,-6108,0,0,0,278,211,260,202,120,187,521,632,158,566,752,126,0,,,,
1,1786372921344,-9432,10662,26867,8714603,-1142317,2889392,0,0,0,259,207,224,173,138,205,319,188,260,278,256,283,0,,,,
2,1786372921344,1005,670,10528,219911,-409279,-34208,0,0,0,278,216,272,200,119,182,510,639,160,558,761,147,0,,,,
1,1786372921360,-10346,18425,17918,6734178,-1258382,3414736,0,0,0,264,210,226,177,145,207,312,175,263,286,251,299,0,,,,
2,1786372921360,918,1354,10476,125838,-284663,-69638,0,0,0,285,233,266,223,133,181,528,641,148,562,758,145,0,,,,
1,1786372921376,-5900,20105,17276,1204626,-1027475,2312735,0,0,0,259,195,227,163,125,205,324,183,256,267,270,300,0,,,,
2,1786372921376,904,1474,10361,235793,-131946,-83077,0,0,0,292,235,273,207,125,181,525,634,161,558,759,141,0,,,,
1,1786372921392,-2512,14893,15793,-3193603,372627,138055,0,0,0,276,212,227,170,125,197,337,172,244,288,279,303,0,,,,
2,1786372921392,775,1363,10122,378736,3665,-78190,0,0,0,292,243,273,217,138,194,508,622,148,558,745,162,0,,,,
1,1786372921408,-6259,9002,10198,-3244916,1029918,-1492954,0,0,0,264,240,233,157,133,208,313,181,248,274,283,305,0,,,,
2,1786372921408,794,1363,9949,487470,134390,-69638,0,0,0,307,287,273,220,176,182,497,593,142,531,736,147,0,,,,
1,1786372921424,-7614,7336,7245,-2592512,-301767,-2179567,0,0,0,268,234,231,167,133,203,333,182,251,276,285,294,0,,,,
2,1786372921424,1033,1368,9897,577878,196698,-84299,0,0,0,305,244,291,216,146,204,494,564,163,500,716,161,0,,,,
1,1786372921440,-2005,7982,8920,-3014009,-2014633,-2477669,0,0,0,268,239,233,167,139,201,334,197,256,272,303,298,0,,,,
2,1786372921440,1306,1268,9810,638965,125838,-118507,0,0,0,312,246,277,233,152,198,476,515,150,510,645,153,0,,,,
1,1786372921456,1014,6671,10744,-4337143,-1255938,-2642603,0,0,0,262,241,227,164,140,203,321,195,254,268,300,297,0,,,,
2,1786372921456,1354,1110,9648,658512,-40317,-142942,0,0,0,319,261,289,238,158,222,450,492,160,488,647,166,0,,,,
1,1786372921472,239,4221,10940,-5360953,-602313,-2217440,0,0,0,252,239,226,159,140,197,321,192,257,264,299,295,0,,,,
2,1786372921472,1124,1005,9509,642630,-193033,-144164,0,0,0,312,284,293,249,176,243,425,446,181,474,639,184,0,,,,
1,1786372921488,-488,1689,10667,-5836206,-900415,-977384,0,0,0,254,234,224,163,143,197,326,195,263,266,303,299,0,,,,
2,1786372921488,961,947,9523,634078,-248011,-149051,0,0,0,300,324,286,265,198,255,449,399,179,476,622,185,0,,,,
1,1786372921504,2067,971,11959,-5922949,-1409876,266337,0,0,0,253,232,229,158,139,197,323,190,255,270,305,298,0,,,,
2,1786372921504,942,827,9605,635299,-259006,-157603,0,0,0,303,326,283,274,208,260,455,369,177,446,606,189,0,,,,
1,1786372921520,4388,1067,13921,-6144082,-1414763,919963,0,0,0,249,228,230,152,133,194,330,188,252,270,305,296,0,,,,
2,1786372921520,966,603,9667,623082,-257785,-163711,0,0,0,316,308,278,281,215,265,458,342,176,410,593,196,0,,,,
1,1786372921536,4795,827,15391,-6498384,-1167974,784350,0,0,0,249,217,227,150,127,193,345,191,259,264,304,297,0,,,,
2,1786372921536,952,416,9743,583987,-252898,-153938,0,0,0,320,310,299,292,234,287,468,313,185,396,558,207,0,,,,
1,1786372921552,3823,-430,16061,-6603453,-1156978,80634,0,0,0,244,212,225,145,122,195,339,192,264,258,307,296,0,,,,
2,1786372921552,976,368,9906,559552,-249233,-147829,0,0,0,324,335,349,303,258,309,425,282,204,370,492,222,0,,,,
1,1786372921568,2632,-1368,16769,-6422637,-1263269,-713490,0,0,0,239,227,222,144,129,194,323,196,262,260,313,297,0,,,,
2,1786372921568,1081,430,10122,597426,-251676,-169820,0,0,0,346,384,342,324,280,309,380,233,201,342,433,232,0,,,,
1,1786372921584,1320,-1507,18205,-6205169,-1339016,-1412320,0,0,0,244,222,224,151,129,193,331,194,259,263,311,293,0,,,,
2,1786372921584,1249,435,10351,679282,-267558,-215024,0,0,0,372,386,301,335,304,323,381,197,227,334,389,259,0,,,,
1,1786372921600,339,-1914,20607,-6217386,-1307251,-1714087,0,0,0,243,222,223,151,129,193,333,196,258,261,305,293,0,,,,
2,1786372921600,1569,335,10772,825889,-324980,-304210,0,0,0,420,391,315,322,360,332,346,163,240,340,369,300,0,,,,
1,1786372921616,100,-4359,23134,-6363994,-1155757,-1632231,0,0,0,247,222,224,156,132,196,349,199,257,267,302,292,0,,,,
2,1786372921616,1804,23,11280,1014036,-423940,-434936,0,0,0,445,462,330,318,335,382,306,171,245,328,394,333,0,,,,
1,1786372921632,957,-9552,24355,-6417750,-990823,-1317025,0,0,0,246,210,223,155,126,201,318,197,271,252,290,285,0,,,,
2,1786372921632,1445,-205,11811,1279151,-515570,-560774,0,0,0,514,424,329,339,316,370,308,124,231,412,349,337,0,,,,
1,1786372921648,3306,-17200,24288,-6052452,-957836,-945619,0,0,0,246,206,224,152,130,206,312,188,262,266,283,293,0,,,,
2,1786372921648,598,-177,12285,1633453,-546113,-599869,0,0,0,547,439,280,388,374,351,280,132,220,352,339,388,0,,,,
1,1786372921664,5183,-25187,23345,-5423261,-719599,-463035,0,0,0,243,200,213,156,135,202,323,187,251,272,283,283,0,,,,
2,1786372921664,258,-76,13093,2083050,-503352,-525344,0,0,0,557,479,326,388,366,365,246,136,254,356,352,419,0,,,,
1,1786372921680,4268,-32672,20617,-4570493,-40317,296880,0,0,0,254,207,222,168,132,199,352,191,247,304,297,281,0,,,,
2,1786372921680,483,-124,14132,2608394,-483805,-456927,0,0,0,604,488,279,344,382,353,177,131,207,311,350,380,0,,,,
1,1786372921696,1694,-38511,15462,-3262020,472809,1170417,0,0,0,251,205,219,168,126,199,364,189,251,314,301,282,0,,,,
2,1786372921696,847,-253,14692,3255911,-493579,-453262,0,0,0,598,514,277,346,402,359,150,111,193,313,310,366,0,,,,
1,1786372921712,2823,-41564,11505,-1725083,329867,1284038,0,0,0,235,196,208,162,129,202,349,227,245,318,369,275,0,,,,
2,1786372921712,1239,-411,15123,3924198,-509461,-497244,0,0,0,591,538,295,384,420,372,172,111,226,304,298,353,0,,,,
1,1786372921728,5168,-41478,10820,109955,156381,324980,0,0,0,232,170,196,169,114,193,390,334,237,354,487,256,0,,,,
2,1786372921728,1483,-564,16152,4698775,-576656,-603534,0,0,0,579,526,314,387,430,373,180,116,211,255,265,340,0,,,,
1,1786372921744,421,-28207,15051,2223549,812450,-401949,0,0,0,244,174,174,180,104,178,454,447,234,427,565,230,0,,,,
2,1786372921744,2297,-799,18344,5480682,-728151,-746477,0,0,0,524,522,282,365,409,344,159,125,191,227,219,310,0,,,,
1,1786372921760,-3914,-3977,15874,3605326,2008524,-195476,0,0,0,248,226,165,180,113,171,507,521,232,497,592,215,0,,,,
2,1786372921760,4201,-1708,21593,6278472,-1026253,-989601,0,0,0,444,478,234,328,376,296,139,135,172,226,203,272,0,,,,
1,1786372921776,-3029,9040,14189,3718947,2796541,172263,0,0,0,247,237,182,182,119,178,554,573,226,541,618,210,0,,,,
2,1786372921776,6709,-2703,25479,6905220,-1365894,-1368338,0,0,0,352,381,236,284,325,284,132,142,167,211,219,268,0,,,,
1,1786372921792,320,2450,15285,3382971,2171015,-3665,0,0,0,253,185,200,199,119,191,560,604,219,582,639,193,0,,,,
2,1786372921792,7384,-2723,28925,7346265,-1430646,-1761735,0,0,0,273,288,242,224,237,260,143,142,169,191,239,250,0,,,,
1,1786372921808,2057,-2541,17391,2776993,1221730,-101403,0,0,0,263,168,251,213,112,211,585,621,227,631,667,192,0,,,,
2,1786372921808,6527,-789,31318,7626041,-1231504,-2063502,0,0,0,237,207,218,166,146,186,192,130,146,204,249,192,0,,,,
1,1786372921824,804,-1258,17272,2029294,756251,43982,0,0,0,285,195,289,222,124,229,608,638,247,679,687,225,0,,,,
2,1786372921824,7604,5321,29432,7645589,-1102000,-2236988,0,0,0,235,176,232,169,101,188,238,120,152,220,259,186,0,,,,
1,1786372921840,-43,363,14749,1324355,577878,47647,0,0,0,301,218,332,227,139,224,614,633,248,687,687,267,0,,,,
2,1786372921840,10945,14347,20832,6329785,-1462411,-2200336,0,0,0,223,179,220,140,104,175,189,126,150,196,262,180,0,,,,
1,1786372921856,71,732,12184,845437,346971,-8552,0,0,0,327,250,345,235,155,213,645,640,233,688,688,252,0,,,,
2,1786372921856,11495,20564,17109,2863736,-1299921,-1253495,0,0,0,226,174,225,136,95,168,199,125,145,199,255,179,0,,,,
1,1786372921872,0,574,11098,605978,84299,-10995,0,0,0,324,273,338,235,173,219,661,631,236,688,688,277,0,,,,
2,1786372921872,7705,19305,16247,-1138652,-1144761,796568,0,0,0,229,179,229,132,96,165,184,122,139,205,239,183,0,,,,
1,1786372921888,-282,732,10820,436157,-84299,-9773,0,0,0,339,261,326,256,167,212,670,619,229,686,686,274,0,,,,
2,1786372921888,8064,12668,10753,-2361605,-1566258,2659707,0,0,0,232,184,227,132,88,162,187,113,139,221,265,183,0,,,,
1,1786372921904,-449,1115,10792,312763,-188146,-28099,0,0,0,343,258,330,262,162,220,663,613,241,682,682,283,0,,,,
2,1786372921904,9887,9825,6987,-2125811,-928515,3164281,0,0,0,240,190,233,127,87,161,195,127,146,208,272,183,0,,,,
1,1786372921920,-378,1335,10624,306654,-263893,-48869,0,0,0,341,261,327,266,169,223,657,600,239,672,672,283,0,,,,
2,1786372921920,7097,9810,8064,-2698802,45204,2899166,0,0,0,231,195,234,130,94,169,190,119,150,212,280,183,0,,,,
1,1786372921936,-382,1450,10356,417831,-342084,-48869,0,0,0,333,262,323,272,180,236,645,592,228,667,667,284,0,,,,
2,1786372921936,3996,8274,9605,-4012162,7330,2526538,0,0,0,231,190,228,133,95,164,190,117,142,214,276,180,0,,,,
1,1786372921952,-497,1459,10150,537561,-381179,-37873,0,0,0,326,258,329,266,181,242,643,566,234,655,664,289,0,,,,
2,1786372921952,4484,5149,9332,-5045746,-474031,1902234,0,0,0,234,188,235,126,87,160,192,114,144,212,268,176,0,,,,
1,1786372921968,-607,1397,10031,632856,-375071,-19547,0,0,0,320,254,339,257,187,245,638,521,239,638,654,294,0,,,,
2,1786372921968,4962,2670,9203,-5517334,-222354,864985,0,0,0,239,185,229,133,89,157,193,112,140,212,269,173,0,,,,
1,1786372921984,-679,1287,9944,698829,-350636,-2443,0,0,0,321,264,344,264,198,254,628,478,245,621,632,304,0,,,,
2,1786372921984,3780,1392,10059,-5764124,140499,30543,0,0,0,235,182,228,136,88,161,197,114,142,211,272,176,0,,,,
1,1786372922000,-760,1134,9868,737925,-306654,9773,0,0,0,330,285,349,278,212,265,624,436,261,609,608,314,0,,,,
2,1786372922000,2842,1033,11284,-5897293,268780,-161268,0,0,0,229,181,229,135,87,166,195,120,146,214,274,181,0,,,,
1,1786372922016,-842,933,9806,733038,-228463,19547,0,0,0,347,298,366,294,224,269,625,397,271,604,584,318,0,,,,
2,1786372922016,3536,483,12400,-6024352,421497,230907,0,0,0,228,188,229,138,92,166,200,125,149,216,270,184,0,,,,
1,1786372922032,-851,756,9743,697608,-144164,29321,0,0,0,370,301,376,311,227,258,629,378,264,601,550,323,0,,,,
2,1786372922032,4484,-598,13730,-6144082,796568,836885,0,0,0,226,194,227,137,93,165,208,129,150,214,265,179,0,,,,
1,1786372922048,-832,617,9734,651182,-62308,40317,0,0,0,359,331,364,315,260,271,626,353,277,613,520,324,0,,,,
2,1786372922048,4781,-1598,15194,-6219829,1164309,1406211,0,0,0,222,191,225,132,90,165,209,127,149,211,265,174,0,,,,
1,1786372922064,-784,483,9834,623082,-9773,52534,0,0,0,361,323,376,323,251,286,617,303,314,564,542,339,0,,,,
2,1786372922064,5154,-2091,17008,-6269920,1308473,1960877,0,0,0,231,192,225,140,90,165,224,121,149,221,267,173,0,,,,
1,1786372922080,-732,301,9997,605978,1221,62308,0,0,0,379,339,354,327,278,297,608,301,345,541,502,366,0,,,,
2,1786372922080,5790,-2383,18985,-6282138,1457524,2311514,0,0,0,262,203,224,174,100,165,258,122,141,248,268,173,0,,,,
1,1786372922096,-722,205,10179,599869,-20769,62308,0,0,0,401,376,345,332,286,293,596,264,314,537,458,388,0,,,,
2,1786372922096,5101,-3283,22143,-6324898,1826487,2302961,0,0,0,268,203,223,175,104,171,249,126,143,241,264,176,0,,,,
1,1786372922112,-880,306,10423,651182,-45204,74525,0,0,0,412,381,365,355,300,315,574,211,305,537,433,429,0,,,,
2,1786372922112,2794,-5628,25431,-6438519,2020742,2129476,0,0,0,234,201,224,143,99,167,210,122,143,223,270,175,0,,,,
1,1786372922128,-1158,382,10758,777020,-25656,117286,0,0,0,429,424,400,373,289,332,581,215,332,480,369,425,0,,,,
2,1786372922128,378,-10193,27226,-6480058,1833817,2054950,0,0,0,228,200,216,134,99,163,213,126,149,215,277,172,0,,,,
1,1786372922144,-1416,239,11060,960280,52534,204028,0,0,0,440,468,352,384,340,340,554,179,344,443,313,439,0,,,,
2,1786372922144,-938,-18061,26944,-6172182,1501506,2003637,0,0,0,267,196,216,162,104,166,232,123,151,223,268,174,0,,,,
1,1786372922160,-1579,-4,11299,1139874,146607,310319,0,0,0,462,469,306,383,360,343,529,196,352,421,279,477,0,,,,
2,1786372922160,-1550,-27599,25407,-5485569,1106887,1577254,0,0,0,239,194,220,148,100,172,209,112,147,215,266,175,0,,,,
1,1786372922176,-1402,-306,11691,1348790,205250,428827,0,0,0,487,469,281,398,364,350,507,193,331,403,259,489,0,,,,
2,1786372922176,-598,-36491,21153,-4416555,439822,773355,0,0,0,250,197,218,154,102,167,221,119,142,220,272,176,0,,,,
1,1786372922192,-655,-497,12423,1682322,204028,498466,0,0,0,501,478,257,416,395,349,481,216,314,369,270,499,0,,,,
2,1786372922192,-239,-43627,14510,-2831971,185703,145385,0,0,0,241,192,214,154,104,171,217,127,144,220,269,183,0,,,,
1,1786372922208,-411,-502,13342,2130697,144164,464257,0,0,0,506,483,231,416,414,351,444,227,324,348,280,522,0,,,,
2,1786372922208,-4144,-47384,10849,-950506,389732,266337,0,0,0,207,191,204,132,101,164,213,197,145,191,307,164,0,,,,
1,1786372922224,-445,-445,14209,2610838,117286,417831,0,0,0,499,487,222,400,404,355,397,188,337,337,260,540,0,,,,
2,1786372922224,-7724,-44728,12031,926071,298102,1180191,0,0,0,213,203,199,138,128,170,232,345,143,219,451,149,0,,,,
1,1786372922240,-698,-579,14639,3131295,119729,398284,0,0,0,490,498,215,394,402,350,361,159,323,312,224,532,0,,,,
2,1786372922240,-4355,-20808,18076,2750115,-171042,1616349,0,0,0,213,196,196,159,147,182,252,456,153,249,584,158,0,,,,
1,1786372922256,-1134,-756,15027,3699399,118507,427605,0,0,0,497,499,193,399,407,350,342,165,313,291,207,508,0,,,,
2,1786372922256,-995,9514,17592,3811799,-917519,769690,0,0,0,271,184,186,204,142,184,294,510,151,328,644,166,0,,,,
1,1786372922272,-1493,-847,15745,4348138,150272,521678,0,0,0,488,492,205,386,389,360,291,170,325,262,195,492,0,,,,
2,1786372922272,-497,8413,13175,4343251,-1200961,-645073,0,0,0,275,187,190,200,132,185,332,570,155,369,683,161,0,,,,
1,1786372922288,-1617,-1086,17123,4967556,207694,627969,0,0,0,462,492,187,371,393,352,246,163,300,254,185,444,0,,,,
2,1786372922288,555,-2837,15376,4500855,-364075,-883311,0,0,0,237,203,214,169,121,187,365,617,161,391,724,151,0,,,,
1,1786372922304,-2962,-1794,19971,5712811,272445,764803,0,0,0,399,475,178,349,409,333,239,176,274,242,203,394,0,,,,
2,1786372922304,1435,-3302,19224,3608991,366519,-504574,0,0,0,260,211,246,186,109,190,415,621,152,471,741,151,0,,,,
1,1786372922320,-5034,-2177,24029,6538701,328645,1012814,0,0,0,372,382,205,322,318,303,227,173,266,225,178,390,0,,,,
2,1786372922320,2517,-617,18348,2438574,364075,-366519,0,0,0,274,203,272,201,107,197,463,641,164,513,737,165,0,,,,
1,1786372922336,-6652,-1780,27355,7293730,205250,1361007,0,0,0,330,326,193,279,284,272,243,191,266,214,196,371,0,,,,
2,1786372922336,2933,679,14032,1507615,9773,-262672,0,0,0,284,203,262,201,111,190,496,662,192,523,737,174,0,,,,
1,1786372922352,-6920,-425,30145,8029212,-373849,1808161,0,0,0,254,277,191,205,209,231,277,223,229,222,255,311,0,,,,
2,1786372922352,2139,339,11050,1044579,-179594,-107512,0,0,0,294,212,267,203,111,191,503,661,177,554,747,178,0,,,,
1,1786372922368,-6561,3201,32361,8627860,-1128878,2331061,0,0,0,231,242,202,189,183,214,303,216,236,252,299,283,0,,,,
2,1786372922368,1603,0,10327,658512,-266337,-14660,0,0,0,321,255,277,204,127,197,508,653,174,595,753,185,0,,,,
1,1786372922384,-7312,11299,25762,8214915,-1215621,2949257,0,0,0,237,234,218,180,164,210,296,210,233,248,286,278,0,,,,
2,1786372922384,1574,349,10758,321315,-334754,-18325,0,0,0,322,251,249,213,128,161,503,650,138,578,752,151,0,,,,
1,1786372922400,-7532,17228,18210,5630955,-971275,3266907,0,0,0,255,225,221,189,153,211,321,209,235,288,257,281,0,,,,
2,1786372922400,1359,1024,10562,195476,-321315,-48869,0,0,0,308,247,272,214,131,183,447,640,144,562,760,161,0,,,,
1,1786372922416,-4881,17568,16487,1021366,-671951,2428800,0,0,0,254,214,221,180,148,208,332,216,246,286,271,295,0,,,,
2,1786372922416,1095,1387,10227,278554,-207694,-76969,0,0,0,317,235,304,206,127,199,487,623,180,561,747,181,0,,,,
1,1786372922432,-2426,12768,14601,-2640159,177150,583987,0,0,0,256,219,224,172,145,205,326,225,253,269,292,303,0,,,,
2,1786372922432,942,1316,10016,455705,-39095,-89186,0,0,0,310,249,285,204,133,202,445,598,180,520,744,186,0,,,,
1,1786372922448,-5436,7781,8614,-2591290,555887,-1240056,0,0,0,261,229,230,170,144,207,319,234,255,259,302,301,0,,,,
2,1786372922448,1057,1201,9887,549778,74525,-86742,0,0,0,296,277,284,202,150,207,433,586,175,499,729,194,0,,,,
1,1786372922464,-6408,7389,5920,-1843591,-762359,-2058615,0,0,0,258,232,234,165,142,205,311,238,255,249,301,294,0,,,,
2,1786372922464,1292,1167,9748,603534,102625,-96516,0,0,0,289,256,295,218,155,217,449,566,164,498,715,197,0,,,,
1,1786372922480,-1574,8102,7619,-2459343,-1822821,-2550973,0,0,0,253,234,233,160,140,198,305,232,248,248,298,286,0,,,,
2,1786372922480,1483,1134,9633,646295,17104,-127059,0,0,0,302,257,298,223,155,226,428,514,161,466,669,187,0,,,,
1,1786372922496,1799,7389,9447,-3678630,-1396437,-2913827,0,0,0,255,237,233,159,140,198,296,233,244,250,306,285,0,,,,
2,1786372922496,1464,1024,9581,673173,-107512,-150272,0,0,0,317,276,292,227,159,220,408,480,155,472,656,216,0,,,,
1,1786372922512,722,5168,9786,-4882034,-530231,-2662150,0,0,0,251,241,234,158,141,195,299,235,244,249,307,280,0,,,,
2,1786372922512,1253,784,9528,660956,-224798,-155159,0,0,0,318,291,280,235,168,221,410,474,158,473,658,210,0,,,,
1,1786372922528,33,2799,9748,-5545434,-817337,-1514945,0,0,0,250,243,229,158,141,190,301,233,240,245,304,270,0,,,,
2,1786372922528,1072,598,9456,594982,-251676,-144164,0,0,0,311,294,283,238,178,238,411,458,182,451,655,185,0,,,,
1,1786372922544,1426,1325,10581,-5844758,-1235169,-301767,0,0,0,248,238,230,161,140,190,300,228,235,246,301,268,0,,,,
2,1786372922544,1057,521,9461,544891,-234572,-138055,0,0,0,332,288,287,250,177,254,414,413,192,459,633,192,0,,,,
1,1786372922560,3493,842,12251,-5993809,-1315803,608421,0,0,0,240,230,236,160,138,190,305,222,235,246,297,270,0,,,,
2,1786372922560,1119,435,9571,513126,-213802,-142942,0,0,0,337,333,278,265,204,259,418,359,185,463,602,205,0,,,,
1,1786372922576,4029,516,13716,-6191730,-1062905,764803,0,0,0,242,228,232,167,139,192,319,222,238,271,299,273,0,,,,
2,1786372922576,1143,373,9729,508239,-207694,-149051,0,0,0,293,403,278,260,252,260,419,317,189,443,587,219,0,,,,
1,1786372922592,3397,-311,14869,-6368880,-849102,494800,0,0,0,256,228,236,178,143,204,327,223,242,279,295,278,0,,,,
2,1786372922592,1177,301,9930,532674,-207694,-151494,0,0,0,295,364,280,276,240,266,432,294,195,433,540,217,0,,,,
1,1786372922608,1828,-1177,15754,-6368880,-916297,-138055,0,0,0,274,219,223,199,147,211,336,223,243,290,299,276,0,,,,
2,1786372922608,1167,215,10126,590095,-191811,-158824,0,0,0,329,348,295,296,241,272,411,261,202,367,440,212,0,,,,
1,1786372922624,555,-1631,17195,-6329785,-1100779,-774577,0,0,0,254,218,220,192,149,213,334,221,244,290,299,279,0,,,,
2,1786372922624,1191,134,10303,674395,-136833,-175929,0,0,0,363,415,328,285,257,297,389,200,236,323,417,264,0,,,,
1,1786372922640,-526,-2383,19684,-6349333,-1189965,-1227839,0,0,0,239,217,220,185,148,215,332,217,247,285,290,280,0,,,,
2,1786372922640,1416,119,10524,770911,-91629,-208915,0,0,0,390,430,292,295,320,293,373,176,245,317,361,241,0,,,,
1,1786372922656,-1373,-4977,22091,-6440963,-1099557,-1209513,0,0,0,238,220,217,183,147,213,337,213,250,281,280,274,0,,,,
2,1786372922656,1775,76,10868,918741,-112399,-283441,0,0,0,381,402,404,332,310,371,389,157,279,347,318,265,0,,,,
1,1786372922672,-789,-10471,23196,-6414085,-1060462,-835663,0,0,0,236,219,213,198,152,229,331,201,244,282,260,267,0,,,,
2,1786372922672,1569,-177,11217,1138652,-212581,-375071,0,0,0,413,445,307,374,321,342,327,189,230,354,316,301,0,,,,
1,1786372922688,1440,-17587,23302,-6098878,-1152091,-493579,0,0,0,238,215,217,206,155,242,326,193,249,293,250,276,0,,,,
2,1786372922688,952,-392,11490,1433089,-254119,-422718,0,0,0,437,462,285,363,332,367,319,139,248,341,308,332,0,,,,
1,1786372922704,4359,-25355,22478,-5466022,-1110553,-257785,0,0,0,247,216,225,189,149,227,336,202,271,304,272,298,0,,,,
2,1786372922704,808,-339,12294,1771509,-156381,-392175,0,0,0,477,471,257,381,348,365,291,136,239,317,269,347,0,,,,
1,1786372922720,4618,-32754,19602,-4483750,-549778,164933,0,0,0,248,217,221,184,145,221,338,208,276,300,285,302,0,,,,
2,1786372922720,1162,-335,13381,2211332,-96516,-376292,0,0,0,484,487,235,378,361,343,266,140,247,330,272,355,0,,,,
1,1786372922736,2488,-38071,14711,-3204599,90408,795346,0,0,0,255,217,220,187,143,219,343,191,278,299,254,284,0,,,,
2,1786372922736,1378,-402,14137,2723237,-151494,-390953,0,0,0,502,479,253,399,381,353,232,134,233,330,279,351,0,,,,
1,1786372922752,2067,-40650,10270,-1740965,116064,1149648,0,0,0,260,207,216,199,141,225,378,207,282,298,288,289,0,,,,
2,1786372922752,1670,-579,14386,3320663,-235793,-430049,0,0,0,528,456,289,375,390,371,180,133,240,284,261,388,0,,,,
1,1786372922768,5221,-40138,9968,-73303,-61086,357967,0,0,0,248,184,192,187,127,212,425,340,243,372,482,255,0,,,,
2,1786372922768,1923,-770,14859,3982841,-305432,-513126,0,0,0,510,458,249,355,400,360,147,140,243,240,241,357,0,,,,
1,1786372922784,3689,-30748,14477,1947438,790459,-864985,0,0,0,249,151,160,197,98,187,494,484,222,480,559,221,0,,,,
2,1786372922784,2297,-847,16372,4800179,-394618,-648738,0,0,0,444,488,207,371,413,349,132,128,211,224,217,289,0,,,,
1,1786372922800,-416,-5417,16463,3632204,2623055,-1284038,0,0,0,265,177,178,200,101,179,525,544,208,501,594,208,0,,,,
2,1786372922800,3953,-1282,19081,5682268,-585208,-878424,0,0,0,373,481,221,350,404,361,120,116,186,200,188,258,0,,,,
1,1786372922816,1761,7757,15238,3861890,3386636,-646295,0,0,0,246,143,176,201,104,183,562,603,223,557,626,204,0,,,,
2,1786372922816,5881,-2254,22636,6439741,-976162,-1198517,0,0,0,320,414,227,286,361,338,113,118,182,164,168,236,0,,,,
1,1786372922832,3905,2091,16649,3444058,2662150,31764,0,0,0,261,161,217,203,107,191,582,609,226,570,645,207,0,,,,
2,1786372922832,7413,-2512,26647,7043276,-1288925,-1568701,0,0,0,281,341,189,247,304,252,133,120,157,163,176,203,0,,,,
1,1786372922848,1852,-3426,18846,2431243,1474628,204028,0,0,0,278,179,269,224,126,213,610,616,231,616,654,217,0,,,,
2,1786372922848,7130,-1933,30715,7552737,-1214400,-1903456,0,0,0,226,271,183,197,231,217,191,146,149,184,209,185,0,,,,
1,1786372922864,411,-2330,17721,1580919,883311,14660,0,0,0,293,203,301,232,139,220,633,618,252,643,665,246,0,,,,
2,1786372922864,7173,612,33213,7744549,-972497,-2098932,0,0,0,217,198,199,153,122,161,183,127,133,202,238,159,0,,,,
1,1786372922880,760,492,14137,1104444,597426,-146607,0,0,0,306,222,326,237,149,223,645,613,255,656,672,279,0,,,,
2,1786372922880,10792,9786,24847,7050606,-1100779,-2183232,0,0,0,198,177,173,151,118,162,185,127,129,178,229,144,0,,,,
1,1786372922896,770,871,11476,966388,235793,-102625,0,0,0,322,231,346,238,154,226,646,613,249,661,670,284,0,,,,
2,1786372922896,13323,20009,16721,4851491,-1111774,-1795943,0,0,0,216,189,198,145,111,150,197,136,135,192,224,157,0,,,,
1,1786372922912,148,110,10624,802676,-29321,-62308,0,0,0,331,242,362,236,155,230,641,613,254,660,667,273,0,,,,
2,1786372922912,9877,23857,15108,704938,-907745,-182037,0,0,0,210,187,198,139,109,156,201,138,143,189,227,161,0,,,,
1,1786372922928,-239,-95,10748,530231,-91629,-79412,0,0,0,330,261,378,244,161,241,640,606,256,666,672,279,0,,,,
2,1786372922928,7092,17343,12122,-1744631,-1497841,1628566,0,0,0,217,198,212,134,113,175,205,169,182,177,236,173,0,,,,
1,1786372922944,-114,483,10691,329867,-84299,-89186,0,0,0,343,275,385,249,161,238,646,600,252,663,667,280,0,,,,
2,1786372922944,8643,12356,7365,-2125811,-1382998,2306627,0,0,0,226,229,195,146,138,156,210,156,146,197,242,163,0,,,,
1,1786372922960,23,933,10571,307876,-119729,-75747,0,0,0,350,267,395,247,161,233,655,582,258,658,658,291,0,,,,
2,1786372922960,8155,11667,5675,-2166128,-1221,2075720,0,0,0,263,195,193,175,120,160,208,142,139,211,233,155,0,,,,
1,1786372922976,47,976,10466,436157,-193033,-61086,0,0,0,354,265,386,269,166,241,636,538,260,653,654,319,0,,,,
2,1786372922976,3474,11179,7930,-3319441,560774,1942551,0,0,0,247,185,200,160,106,155,208,134,136,206,238,155,0,,,,
1,1786372922992,-28,914,10327,554665,-246789,-65973,0,0,0,341,261,374,268,181,247,632,528,255,646,650,308,0,,,,
2,1786372922992,1665,8293,8997,-4508185,184481,1822821,0,0,0,229,184,197,144,102,148,212,136,138,200,241,156,0,,,,
1,1786372923008,-138,914,10198,656069,-270002,-74525,0,0,0,329,286,400,261,197,258,637,500,271,641,651,307,0,,,,
2,1786372923008,2407,5168,8777,-5099503,-39095,1321912,0,0,0,227,186,199,141,102,150,208,140,138,193,235,157,0,,,,
1,1786372923024,-277,918,10112,758694,-243124,-73303,0,0,0,320,308,375,257,195,256,635,485,289,627,634,313,0,,,,
2,1786372923024,1928,3096,9399,-5391496,234572,379958,0,0,0,225,189,202,141,104,158,203,142,142,189,230,159,0,,,,
1,1786372923040,-402,722,10026,857654,-157603,-65973,0,0,0,350,286,384,296,185,255,628,445,263,608,587,312,0,,,,
2,1786372923040,775,2455,10820,-5622403,433714,-218689,0,0,0,224,188,201,144,106,163,204,140,145,188,234,156,0,,,,
1,1786372923056,-478,430,9911,916297,-35430,-65973,0,0,0,339,311,383,306,217,279,624,417,271,606,539,305,0,,,,
2,1786372923056,497,2239,12352,-5893627,526565,-204028,0,0,0,221,183,199,146,107,159,204,139,143,191,245,151,0,,,,
1,1786372923072,-440,100,9825,906524,91629,-59864,0,0,0,330,341,396,306,283,288,610,403,282,589,545,321,0,,,,
2,1786372923072,626,1392,14122,-6224716,696386,98960,0,0,0,217,181,196,141,104,152,203,140,142,196,253,151,0,,,,
1,1786372923088,-220,-244,9801,814894,164933,-19547,0,0,0,354,354,403,307,273,290,613,370,296,578,535,336,0,,,,
2,1786372923088,789,62,15338,-6374989,882089,542448,0,0,0,233,191,204,150,109,152,205,143,143,195,253,152,0,,,,
1,1786372923104,-67,-425,9887,708603,168598,46425,0,0,0,361,339,398,312,245,308,603,337,317,567,499,349,0,,,,
2,1786372923104,961,-665,16664,-6290690,1033583,1076344,0,0,0,240,199,206,184,133,160,208,143,146,192,254,151,0,,,,
1,1786372923120,-62,-325,10035,667064,145385,92851,0,0,0,357,342,390,325,259,316,590,320,326,567,464,359,0,,,,
2,1786372923120,1555,-856,18631,-6186843,1167974,1627344,0,0,0,237,206,202,153,112,163,209,150,145,191,250,153,0,,,,
1,1786372923136,-110,-234,10203,693942,135612,109955,0,0,0,378,356,390,343,269,314,594,269,335,570,443,369,0,,,,
2,1786372923136,2033,-1550,21277,-6179512,1354899,1879021,0,0,0,222,210,193,150,123,164,212,167,138,190,270,151,0,,,,
1,1786372923152,-325,-196,10490,808785,164933,125838,0,0,0,407,355,406,360,278,331,600,204,343,546,416,391,0,,,,
2,1786372923152,1000,-3618,25082,-6296798,1469741,1551597,0,0,0,226,228,216,150,126,181,202,169,166,190,291,169,0,,,,
1,1786372923168,-641,-339,10830,972497,251676,186924,0,0,0,423,382,423,370,312,346,601,191,329,510,367,418,0,,,,
2,1786372923168,-435,-6661,28308,-6494719,1259604,1160643,0,0,0,227,237,198,143,129,159,208,166,145,197,315,162,0,,,,
1,1786372923184,-622,-641,10983,1160643,355523,301767,0,0,0,425,407,403,361,321,358,573,189,341,468,329,444,0,,,,
2,1786372923184,-598,-14070,29121,-6563136,761138,1056796,0,0,0,226,231,203,142,129,156,198,164,138,203,313,159,0,,,,
1,1786372923200,-220,-832,11093,1319468,379958,387288,0,0,0,451,395,348,361,311,362,556,180,360,436,319,481,0,,,,
2,1786372923200,832,-25293,26752,-6069557,423940,938289,0,0,0,234,226,201,160,138,171,201,165,137,199,293,166,0,,,,
1,1786372923216,282,-952,11457,1524719,342084,397062,0,0,0,471,409,343,360,321,352,545,179,389,411,250,503,0,,,,
2,1786372923216,1837,-36041,21689,-4911356,400727,527787,0,0,0,231,222,197,157,132,167,203,158,137,200,286,158,0,,,,
1,1786372923232,435,-1119,11878,1786169,283441,375071,0,0,0,470,423,282,435,344,394,500,185,374,371,250,511,0,,,,
2,1786372923232,-215,-44106,14917,-3125186,634078,144164,0,0,0,222,221,190,158,131,171,211,160,142,198,288,156,0,,,,
1,1786372923248,268,-1301,12557,2103819,238237,360410,0,0,0,479,444,224,407,392,363,453,162,404,350,223,528,0,,,,
2,1786372923248,-5192,-48494,10629,-1191187,772133,315206,0,0,0,226,233,192,147,133,162,202,203,138,188,341,152,0,,,,
1,1786372923264,224,-1474,13534,2535090,239459,370184,0,0,0,476,447,183,405,408,348,439,193,373,324,220,545,0,,,,
2,1786372923264,-8064,-46503,10696,752585,289550,1138652,0,0,0,221,217,173,160,135,160,239,325,138,227,466,143,0,,,,
1,1786372923280,449,-1531,14405,3042108,261450,365297,0,0,0,481,461,191,415,407,321,428,177,312,358,210,540,0,,,,
2,1786372923280,-1287,-23957,17334,2608394,-857654,1470963,0,0,0,233,205,152,195,138,164,297,471,127,291,599,137,0,,,,
1,1786372923296,693,-1392,15194,3634648,285884,328645,0,0,0,474,442,188,380,361,314,353,161,305,319,189,527,0,,,,
2,1786372923296,2325,6853,17362,3770260,-2211332,773355,0,0,0,239,212,146,208,150,170,319,593,108,337,681,126,0,,,,
1,1786372923312,358,-1497,16147,4249178,276111,324980,0,0,0,436,432,188,372,370,329,314,154,301,294,187,517,0,,,,
2,1786372923312,-847,12792,14505,4552167,-2770884,-251676,0,0,0,227,235,150,209,166,179,362,689,107,415,728,116,0,,,,
1,1786372923328,86,-1655,18123,4937012,224798,365297,0,0,0,391,434,182,350,374,327,278,168,313,260,196,470,0,,,,
2,1786372923328,-2574,-1210,21024,4564385,-1766622,-643851,0,0,0,274,283,181,226,163,176,478,705,132,549,752,131,0,,,,
1,1786372923344,-220,-1698,22517,5855754,189368,412944,0,0,0,357,404,190,307,370,299,246,187,319,227,205,404,0,,,,
2,1786372923344,153,-6609,25642,3235142,-800233,-590095,0,0,0,298,223,208,231,144,182,516,685,166,613,754,148,0,,,,
1,1786372923360,-2335,-1947,26551,6824586,311541,458148,0,0,0,325,369,189,273,346,264,249,199,282,224,217,355,0,,,,
2,1786372923360,1253,-1617,18679,1793500,-574213,-199142,0,0,0,304,211,222,233,141,195,521,696,153,626,753,148,0,,,,
1,1786372923376,-4723,-2048,29954,7806857,-20769,646295,0,0,0,273,300,179,226,252,225,270,194,236,249,234,325,0,,,,
2,1786372923376,-177,1799,11213,1156978,-238237,-12217,0,0,0,302,256,207,233,154,168,563,683,127,632,752,109,0,,,,
1,1786372923392,-6523,-445,35783,8708494,-1081231,1100779,0,0,0,231,204,193,173,148,190,290,180,235,272,248,300,0,,,,
2,1786372923392,-521,1584,8475,1037249,212581,-68416,0,0,0,314,224,228,235,139,176,574,689,144,631,754,139,0,,,,
1,1786372923408,-7422,7236,32921,8431162,-704938,1728748,0,0,0,255,209,219,184,145,196,311,186,259,267,245,297,0,,,,
2,1786372923408,880,124,10098,744033,244346,-62308,0,0,0,319,246,243,243,135,166,559,689,140,609,756,149,0,,,,
1,1786372923424,-8949,14338,22062,6287025,1095892,1815491,0,0,0,283,216,231,190,139,198,314,186,233,277,243,304,0,,,,
2,1786372923424,1316,229,10835,390953,43982,1221,0,0,0,303,240,254,243,151,196,571,678,160,612,749,144,0,,,,
1,1786372923440,-10294,14678,16099,1711644,1679879,685390,0,0,0,293,215,237,165,124,184,308,179,234,275,251,302,0,,,,
2,1786372923440,770,1076,10471,310319,-72082,2443,0,0,0,292,236,269,238,151,194,561,666,162,574,752,144,0,,,,
1,1786372923456,-9126,10729,13553,-1211956,1104444,-561996,0,0,0,292,204,219,171,130,191,317,191,248,274,257,312,0,,,,
2,1786372923456,502,1392,10136,394618,-69638,-37873,0,0,0,301,281,250,245,173,183,566,649,136,562,736,138,0,,,,
1,1786372923472,-7461,7662,10107,-1572367,477696,-1301142,0,0,0,289,202,217,170,130,190,308,187,248,271,261,326,0,,,,
2,1786372923472,454,1229,9940,519235,-30543,-81855,0,0,0,323,276,251,256,163,174,562,614,132,555,728,128,0,,,,
1,1786372923488,-6389,8289,7154,-1496619,-3665,-1535715,0,0,0,275,201,224,166,134,201,309,190,253,270,262,336,0,,,,
2,1786372923488,320,1172,9887,587652,29321,-90408,0,0,0,326,254,244,264,157,185,534,586,146,513,702,136,0,,,,
1,1786372923504,-4479,8547,6518,-2488664,-386066,-1795943,0,0,0,294,205,231,184,133,203,340,186,256,285,258,341,0,,,,
2,1786372923504,325,1234,9973,660956,125838,-90408,0,0,0,313,249,238,277,157,202,491,558,164,460,674,146,0,,,,
1,1786372923520,-3129,7336,6690,-3585778,-489913,-1992642,0,0,0,281,209,235,179,133,206,324,186,254,278,258,340,0,,,,
2,1786372923520,559,1172,10026,764803,208915,-97738,0,0,0,302,251,242,276,156,207,471,516,171,431,644,151,0,,,,
1,1786372923536,-2794,5656,7240,-4372573,-524122,-1874134,0,0,0,271,209,228,175,135,199,315,189,238,276,262,334,0,,,,
2,1786372923536,823,861,9844,818559,167377,-118507,0,0,0,290,245,236,260,165,199,451,481,164,417,615,150,0,,,,
1,1786372923552,-2579,4154,7997,-4978551,-662177,-1369559,0,0,0,263,208,225,170,136,198,308,192,233,268,265,330,0,,,,
2,1786372923552,875,550,9571,790459,67195,-136833,0,0,0,273,247,235,252,182,206,418,452,173,384,596,149,0,,,,
1,1786372923568,-2397,2881,8939,-5444031,-857654,-757472,0,0,0,258,203,223,167,134,199,305,195,237,262,265,327,0,,,,
2,1786372923568,789,358,9380,690277,-35430,-144164,0,0,0,271,261,254,251,194,229,422,408,196,358,581,162,0,,,,
1,1786372923584,-2258,2096,10294,-5754350,-1150870,-244346,0,0,0,259,200,222,168,133,199,311,195,239,264,265,328,0,,,,
2,1786372923584,722,272,9370,602313,-103847,-150272,0,0,0,281,267,264,258,204,242,448,380,203,367,568,172,0,,,,
1,1786372923600,-1928,1483,12524,-6156299,-1561371,90408,0,0,0,259,202,222,173,134,206,320,192,240,265,261,327,0,,,,
2,1786372923600,689,205,9562,548556,-145385,-160046,0,0,0,303,272,281,274,202,254,483,384,209,359,547,177,0,,,,
1,1786372923616,-1474,320,14548,-6558249,-1905899,234572,0,0,0,256,203,221,175,136,219,324,193,241,261,255,314,0,,,,
2,1786372923616,674,95,9815,535117,-157603,-169820,0,0,0,317,286,245,303,214,263,474,349,203,359,505,199,0,,,,
1,1786372923632,-717,-1483,16075,-6730513,-2185675,234572,0,0,0,251,200,218,180,142,234,316,191,237,255,253,302,0,,,,
2,1786372923632,665,-4,9916,543670,-138055,-163711,0,0,0,305,312,265,284,208,301,448,275,227,327,449,212,0,,,,
1,1786372923648,201,-2718,17420,-6566801,-2269975,-41538,0,0,0,241,195,211,195,147,253,297,182,227,243,249,294,0,,,,
2,1786372923648,722,19,10031,588874,-98960,-177150,0,0,0,356,361,265,351,257,311,487,255,271,356,395,213,0,,,,
1,1786372923664,-28,-3077,18961,-6399424,-2168571,-568104,0,0,0,239,194,212,200,147,250,306,182,227,248,250,286,0,,,,
2,1786372923664,880,76,10447,711047,-81855,-223576,0,0,0,376,394,305,336,313,320,431,216,328,317,372,246,0,,,,
1,1786372923680,-1665,-3378,20918,-6349333,-2183232,-1045801,0,0,0,243,204,221,188,137,237,339,174,243,275,253,296,0,,,,
2,1786372923680,1024,28,10959,884532,-86742,-278554,0,0,0,368,371,313,380,340,351,446,183,280,357,355,288,0,,,,
1,1786372923696,-2345,-5293,23445,-6415306,-2509434,-1182635,0,0,0,225,204,218,166,137,215,327,183,266,258,249,287,0,,,,
2,1786372923696,1057,-105,11423,1133765,-123394,-333532,0,0,0,418,376,283,426,321,374,451,164,302,352,319,297,0,,,,
1,1786372923712,-1292,-9495,25144,-6482501,-2717128,-1249830,0,0,0,234,206,234,167,134,209,316,167,247,290,249,289,0,,,,
2,1786372923712,909,-320,11533,1434311,-178372,-377514,0,0,0,470,397,261,415,327,397,378,163,305,335,289,316,0,,,,
1,1786372923728,1378,-16812,24953,-6207612,-2745228,-1357342,0,0,0,250,208,216,182,134,205,385,191,253,313,289,276,0,,,,
2,1786372923728,713,-516,11902,1750739,-166155,-414166,0,0,0,511,412,268,413,360,387,357,159,296,335,265,348,0,,,,
1,1786372923744,4618,-24790,24077,-5507560,-2605951,-1331686,0,0,0,233,199,201,194,138,212,353,166,243,304,253,268,0,,,,
2,1786372923744,770,-631,13132,2196671,-91629,-431270,0,0,0,506,441,236,413,400,380,345,173,301,301,246,365,0,,,,
1,1786372923760,6929,-31887,22148,-4433659,-1923003,-1011592,0,0,0,241,204,203,195,134,210,362,170,239,302,242,265,0,,,,
2,1786372923760,981,-631,14395,2751337,-86742,-450818,0,0,0,489,452,213,401,416,370,290,170,321,289,236,369,0,,,,
1,1786372923776,5963,-37219,17626,-3116634,-566882,-400727,0,0,0,243,209,202,193,131,205,372,175,235,302,259,259,0,,,,
2,1786372923776,1100,-526,15147,3452610,-175929,-487470,0,0,0,484,442,221,389,406,372,220,163,272,283,246,375,0,,,,
1,1786372923792,4235,-40511,12969,-1765400,284663,8552,0,0,0,239,205,193,185,133,198,406,237,228,327,337,252,0,,,,
2,1786372923792,1397,-722,15333,4148996,-217468,-548556,0,0,0,470,425,236,368,382,372,182,149,224,246,230,381,0,,,,
1,1786372923808,3594,-40942,10672,-43982,305432,-162490,0,0,0,242,182,188,184,120,191,463,351,227,400,466,246,0,,,,
2,1786372923808,1598,-918,15951,4907691,-145385,-673173,0,0,0,450,430,234,371,372,367,173,125,268,224,191,360,0,,,,
1,1786372923824,1383,-27303,15678,2007303,713490,-636521,0,0,0,256,162,186,194,104,189,510,487,225,497,567,240,0,,,,
2,1786372923824,1698,-1158,18233,5787337,-84299,-814894,0,0,0,422,424,227,391,375,372,166,114,266,233,178,318,0,,,,
1,1786372923840,-425,-2105,16965,3529579,1861917,-558330,0,0,0,269,159,190,204,100,196,540,587,224,570,618,231,0,,,,
2,1786372923840,3182,-2129,22373,6542366,-177150,-927293,0,0,0,360,351,223,342,349,335,154,109,192,220,165,286,0,,,,
1,1786372923856,-71,10605,16137,3933972,2663372,20769,0,0,0,269,158,213,207,97,204,570,616,234,611,653,228,0,,,,
2,1786372923856,5896,-3192,28265,7308391,-277332,-1149648,0,0,0,292,282,201,268,301,268,155,135,169,186,176,231,0,,,,
1,1786372923872,-330,2096,19463,3643200,2107485,353080,0,0,0,265,173,248,205,108,205,603,636,242,642,670,245,0,,,,
2,1786372923872,7293,-3187,32677,7772649,-91629,-1466076,0,0,0,260,246,213,193,215,229,170,201,153,187,252,193,0,,,,
1,1786372923888,-2033,-4551,22230,2417804,1218065,131946,0,0,0,297,218,297,223,126,227,627,648,253,669,684,253,0,,,,
2,1786372923888,7260,708,34869,7968126,455705,-1819156,0,0,0,293,203,178,181,118,147,206,166,138,223,253,147,0,,,,
1,1786372923904,-2029,-1832,17750,1246165,911410,-142942,0,0,0,295,209,347,246,152,253,638,642,259,682,690,278,0,,,,
2,1786372923904,8944,10078,28911,7533190,640186,-2175901,0,0,0,241,207,185,147,127,162,197,185,143,198,249,155,0,,,,
1,1786372923920,-837,1660,12007,933402,553443,-131946,0,0,0,312,221,362,234,141,233,642,645,238,686,687,279,0,,,,
2,1786372923920,9681,19832,20306,5527108,54977,-2023185,0,0,0,243,189,182,138,102,138,213,175,144,194,251,155,0,,,,
1,1786372923936,-971,1832,9906,797790,75747,-37873,0,0,0,319,229,388,237,152,249,653,643,256,688,688,295,0,,,,
2,1786372923936,6403,21459,18449,1103222,-1418429,12217,0,0,0,276,200,182,196,111,145,275,182,139,246,256,157,0,,,,
1,1786372923952,-1809,593,10677,564439,-217468,-15882,0,0,0,325,239,372,247,154,239,668,646,248,690,690,296,0,,,,
2,1786372923952,6657,14697,14022,-1545489,-2659707,2058615,0,0,0,278,205,191,190,110,145,259,180,148,248,276,159,0,,,,
1,1786372923968,-1909,1048,10820,344527,-276111,-53756,0,0,0,327,245,370,261,171,253,662,639,240,678,678,293,0,,,,
2,1786372923968,8509,10820,9131,-1424537,-1854586,2249205,0,0,0,261,202,194,168,110,149,245,190,150,227,281,166,0,,,,
1,1786372923984,-1890,1756,10562,355523,-311541,-53756,0,0,0,323,274,374,242,175,255,633,633,253,666,680,310,0,,,,
2,1786372923984,5752,10375,8222,-1777617,-601091,1839926,0,0,0,258,211,197,155,117,151,213,203,148,212,287,166,0,,,,
1,1786372924000,-1914,1981,10256,557109,-328645,-23212,0,0,0,322,276,372,264,201,266,619,602,255,661,668,311,0,,,,
2,1786372924000,2306,9834,10232,-3233920,-834441,1499063,0,0,0,244,205,191,135,109,144,206,208,153,198,283,160,0,,,,
1,1786372924016,-2010,1732,9987,729373,-299323,0,0,0,0,314,276,364,256,205,263,618,564,256,645,661,309,0,,,,
2,1786372924016,3756,6460,10232,-4725653,-1516167,1029918,0,0,0,250,205,194,140,106,144,206,202,149,206,279,161,0,,,,
1,1786372924032,-2100,1560,9820,797790,-229685,12217,0,0,0,314,280,365,251,201,258,626,534,258,633,657,324,0,,,,
2,1786372924032,5005,3546,10136,-5672494,-1494176,294437,0,0,0,252,209,210,149,111,163,197,197,160,220,291,179,0,,,,
1,1786372924048,-2091,1397,9777,819781,-134390,21991,0,0,0,324,307,372,266,226,259,618,483,256,631,642,334,0,,,,
2,1786372924048,4694,2062,10667,-6078109,-1186300,-257785,0,0,0,241,204,218,145,111,174,195,194,181,224,304,195,0,,,,
1,1786372924064,-2010,1186,9719,829554,-57421,31764,0,0,0,333,318,381,280,236,265,606,424,261,624,611,334,0,,,,
2,1786372924064,4723,1268,11136,-6216164,-967610,-295658,0,0,0,243,200,216,145,106,169,202,192,183,227,305,193,0,,,,
1,1786372924080,-1914,1000,9652,811229,-18325,37873,0,0,0,343,292,384,293,214,274,600,389,271,605,571,337,0,,,,
2,1786372924080,5723,502,11557,-6290690,-503352,202807,0,0,0,245,199,217,146,105,171,189,182,179,224,303,186,0,,,,
1,1786372924096,-1847,890,9686,769690,-10995,42760,0,0,0,351,307,366,300,243,270,578,354,272,580,532,330,0,,,,
2,1786372924096,6561,-559,12313,-6376211,19547,797790,0,0,0,246,202,216,149,110,178,173,173,176,216,301,188,0,,,,
1,1786372924112,-1861,804,9686,735481,-18325,46425,0,0,0,367,352,377,306,308,278,600,321,309,570,521,336,0,,,,
2,1786372924112,7011,-1962,13323,-6395759,526565,1276708,0,0,0,256,207,220,155,113,181,201,195,184,220,301,195,0,,,,
1,1786372924128,-1880,660,9643,712268,-25656,59864,0,0,0,396,332,378,350,238,287,576,286,321,556,514,360,0,,,,
2,1786372924128,6815,-2876,14472,-6301685,897971,1558928,0,0,0,259,208,218,163,115,182,201,190,186,222,305,194,0,,,,
1,1786372924144,-1919,440,9772,696386,-43982,76969,0,0,0,376,342,343,352,275,289,568,273,308,557,444,368,0,,,,
2,1786372924144,6862,-2890,15864,-6203947,1128878,1787391,0,0,0,263,205,222,161,116,182,201,198,192,222,308,190,0,,,,
1,1786372924160,-2029,344,9987,698829,-57421,90408,0,0,0,380,378,347,383,281,309,622,219,308,541,418,399,0,,,,
2,1786372924160,6786,-3488,17779,-6195395,1448972,1932777,0,0,0,307,195,214,190,113,186,216,194,196,238,307,190,0,,,,
1,1786372924176,-2215,335,10256,735481,-45204,117286,0,0,0,404,370,346,377,295,318,589,221,330,525,405,419,0,,,,
2,1786372924176,5441,-5896,19794,-6239377,1766622,1907121,0,0,0,269,200,211,177,113,183,236,190,189,238,307,182,0,,,,
1,1786372924192,-2488,339,10638,829554,34208,178372,0,0,0,414,390,378,392,305,337,575,183,329,485,334,457,0,,,,
2,1786372924192,2991,-10557,21718,-6159965,1854586,1843591,0,0,0,287,205,197,184,106,151,251,184,140,245,300,152,0,,,,
1,1786372924208,-2790,354,11031,973719,208915,261450,0,0,0,433,417,336,416,323,349,539,174,305,436,305,474,0,,,,
2,1786372924208,1598,-16061,22794,-5986479,1718974,1846034,0,0,0,246,190,196,150,100,158,236,199,148,215,281,151,0,,,,
1,1786372924224,-2775,201,11361,1165530,430049,364075,0,0,0,447,445,300,417,359,339,508,187,304,400,316,491,0,,,,
2,1786372924224,583,-23847,22660,-5594303,1693318,1654223,0,0,0,242,188,184,152,109,147,226,182,142,210,275,147,0,,,,
1,1786372924240,-2139,-90,11892,1458746,548556,443488,0,0,0,468,469,270,414,373,343,492,230,303,372,320,509,0,,,,
2,1786372924240,-2086,-32304,22254,-4824613,1654223,1137431,0,0,0,244,185,190,157,117,152,215,174,139,218,286,156,0,,,,
1,1786372924256,-1564,-459,12318,1805717,497244,466701,0,0,0,478,477,243,425,396,353,458,237,301,356,317,544,0,,,,
2,1786372924256,-5575,-39119,21182,-3707952,984714,456927,0,0,0,245,189,187,160,118,151,211,181,131,217,292,154,0,,,,
1,1786372924272,-1335,-636,12782,2236988,306654,445931,0,0,0,486,479,229,431,417,366,416,210,314,347,297,554,0,,,,
2,1786372924272,-5987,-42861,17506,-2397035,-454483,-59864,0,0,0,250,194,183,188,129,150,210,186,128,217,290,147,0,,,,
