sole_id,timestamp,accel_x,accel_y,accel_z,gyro_x,gyro_y,gyro_z,magn_x,magn_y,magn_z,pressure_01,pressure_02,pressure_03,pressure_04,pressure_05,pressure_06,pressure_07,pressure_08,pressure_09,pressure_10,pressure_11,pressure_12,corrupt,dirt,transition,grass,asphalt,concrete
1,1787240517584,-1536,-7906,26915,-6592457,-1969429,-1213178,0,0,0,331,254,227,242,190,258,399,233,306,298,273,351,0,,,,,
2,1787240517584,670,-143,10002,480140,-162490,-212581,0,0,0,339,347,338,367,289,424,477,230,276,347,292,290,0,,,,,
1,1787240517600,196,-15142,28145,-6657209,-1999972,-1082453,0,0,0,332,257,227,247,191,258,410,231,302,306,275,354,0,,,,,
2,1787240517600,775,-134,10232,604756,-69638,-255341,0,0,0,364,366,337,371,336,442,460,193,292,312,274,299,0,,,,,
1,1787240517616,3297,-25403,26666,-6266255,-1920560,-1012814,0,0,0,331,255,228,250,193,262,415,232,303,301,274,352,0,,,,,
2,1787240517616,804,-205,10490,762359,57421,-304210,0,0,0,380,383,297,387,356,447,453,168,331,296,242,313,0,,,,,
1,1787240517632,5226,-35836,22890,-5186245,-1189965,-913854,0,0,0,331,256,228,252,193,262,423,235,305,304,273,349,0,,,,,
2,1787240517632,914,-253,11294,998153,173485,-349414,0,0,0,387,403,276,398,378,446,439,151,335,281,218,341,0,,,,,
1,1787240517648,2861,-41545,16515,-3578448,46425,-795346,0,0,0,332,259,230,255,193,262,421,229,302,306,274,351,0,,,,,
2,1787240517648,1234,-253,12749,1376890,218689,-395840,0,0,0,393,436,259,397,399,436,403,150,335,267,212,366,0,,,,,
1,1787240517664,-201,-43838,10083,-1739744,116064,-624304,0,0,0,331,263,230,258,194,264,431,235,306,308,278,349,0,,,,,
2,1787240517664,1493,-315,14529,2025629,216246,-476474,0,0,0,403,440,235,396,400,446,367,151,343,264,211,379,0,,,,,
1,1787240517680,555,-44259,7829,-91629,-576656,-513126,0,0,0,304,244,208,242,187,256,434,294,302,313,339,328,0,,,,,
2,1787240517680,1201,-378,15683,2789210,149051,-553443,0,0,0,415,418,234,396,401,467,338,143,328,265,208,393,0,,,,,
1,1787240517696,2292,-37865,11299,1490511,-717155,-439822,0,0,0,294,227,187,232,168,246,472,396,285,357,418,300,0,,,,,
2,1787240517696,1450,-449,16022,3595552,31764,-604756,0,0,0,417,415,234,385,395,455,294,141,328,261,216,390,0,,,,,
1,1787240517712,3819,-15051,17520,3070208,684169,-448375,0,0,0,298,220,172,234,173,248,493,476,283,398,469,278,0,,,,,
2,1787240517712,2435,-665,16391,4497189,-48869,-739146,0,0,0,408,403,221,382,380,435,236,139,325,247,223,352,0,,,,,
1,1787240517728,3287,13941,16716,3576005,2718350,-654847,0,0,0,304,220,173,244,172,253,519,519,284,441,504,262,0,,,,,
2,1787240517728,2823,-358,17922,5474574,-57421,-974940,0,0,0,396,418,201,393,385,413,195,114,285,227,195,318,0,,,,,
1,1787240517744,3220,11672,15266,3704286,2842966,-437379,0,0,0,301,222,206,251,166,259,554,554,290,480,533,260,0,x,,,,
2,1787240517744,3737,-62,20789,6508158,-155159,-1205847,0,0,0,361,404,203,394,381,395,189,107,259,199,162,275,0,x,,,,
1,1787240517760,2756,-2675,18932,3687182,1912008,134390,0,0,0,310,236,276,262,180,278,574,574,310,518,557,287,0,,,,,
2,1787240517760,5776,-650,25316,7639480,-448375,-1497841,0,0,0,304,355,190,329,345,336,171,104,228,174,153,236,0,,,,,
1,1787240517776,737,-7327,21440,2803871,1202182,403171,0,0,0,337,264,336,277,207,299,581,580,325,549,569,327,0,,,,,
2,1787240517776,7614,-1287,31012,8374962,-489913,-1848478,0,0,0,318,280,189,289,234,296,188,91,205,192,169,205,0,,,,,
1,1787240517792,-67,-2541,17755,1524719,1026253,155159,0,0,0,357,294,370,292,235,317,589,582,327,558,574,357,0,,,,,
2,1787240517792,8887,-335,35620,8651073,232128,-2212553,0,0,0,292,232,189,229,158,217,254,166,186,184,221,158,0,,,,,
1,1787240517808,784,583,13342,806342,715934,-58643,0,0,0,364,315,393,306,263,339,591,575,338,556,579,383,0,,,,,
2,1787240517808,9064,7159,33208,8084190,1006705,-2634050,0,0,0,292,241,191,241,160,221,274,161,185,194,220,154,0,,,,,
1,1787240517824,1100,583,11179,645073,106290,-70860,0,0,0,374,332,388,319,281,351,596,570,355,557,575,399,0,,,,,
2,1787240517824,7829,18482,23397,6274807,498466,-2648711,0,0,0,291,239,194,234,157,221,268,146,185,189,205,157,0,,,,,
1,1787240517840,306,248,10988,673173,-315206,-34208,0,0,0,392,351,388,331,292,352,596,553,340,554,564,404,0,,,,,
2,1787240517840,5723,25714,16290,2394591,-1297477,-1374446,0,0,0,291,235,202,229,151,225,270,147,195,184,201,160,0,,,,,
1,1787240517856,-248,545,10868,703716,-455705,-39095,0,0,0,390,361,388,334,294,357,596,546,347,547,556,415,0,,,,,
2,1787240517856,6393,21210,12232,-1350012,-2704911,841772,0,0,0,291,234,201,229,151,223,277,155,196,180,203,154,0,,,,,
1,1787240517872,-387,894,10758,764803,-426383,-47647,0,0,0,394,365,386,337,294,360,598,515,354,531,513,423,0,,,,,
2,1787240517872,8624,15673,7293,-2591290,-2605951,1888795,0,0,0,290,234,196,228,157,229,270,163,191,177,212,151,0,,,,,
1,1787240517888,-402,871,10653,883311,-388510,-14660,0,0,0,398,364,378,347,308,369,593,480,355,515,472,434,0,,,,,
2,1787240517888,9054,13103,3488,-2668259,-993266,1798387,0,0,0,290,237,195,227,159,229,267,166,189,175,217,150,0,,,,,
1,1787240517904,-473,693,10533,971275,-354301,28099,0,0,0,408,365,380,357,306,368,588,446,346,493,450,440,0,,,,,
2,1787240517904,4881,12883,5001,-3329215,206472,1483180,0,0,0,291,239,195,229,159,231,270,165,188,176,216,148,0,,,,,
1,1787240517920,-483,531,10370,1006705,-290771,58643,0,0,0,413,381,359,364,320,368,574,436,354,467,429,451,0,,,,,
2,1787240517920,1340,10997,7188,-4310265,405614,1368338,0,0,0,290,240,196,229,159,233,271,165,187,177,216,149,0,,,,,
1,1787240517936,-349,421,10184,1009149,-235793,70860,0,0,0,429,392,366,357,324,361,573,390,353,445,406,459,0,,,,,
2,1787240517936,789,7729,8528,-5149593,35430,1128878,0,0,0,286,242,194,227,160,230,270,166,186,176,216,148,0,,,,,
1,1787240517952,-296,177,9954,985936,-241902,74525,0,0,0,427,398,343,371,344,366,566,360,362,435,391,465,0,,,,,
2,1787240517952,540,5407,9853,-5612629,185703,470366,0,0,0,285,244,193,226,161,229,270,170,185,174,216,146,0,,,,,
1,1787240517968,-449,-186,9700,919963,-248011,87964,0,0,0,437,400,328,382,347,368,558,330,361,418,378,472,0,,,,,
2,1787240517968,-952,4283,11964,-5981592,401949,-120951,0,0,0,287,243,193,230,162,231,271,171,183,176,217,146,0,,,,,
1,1787240517984,-689,-449,9471,797790,-189368,112399,0,0,0,445,400,317,395,350,370,551,302,360,411,354,482,0,,,,,
2,1787240517984,-1698,3943,14242,-6373767,379958,-299323,0,0,0,288,242,193,234,165,234,275,171,184,181,224,149,0,,,,,
1,1787240518000,-808,-617,9332,641408,-91629,157603,0,0,0,449,407,312,406,360,381,547,279,358,413,331,490,0,,,,,
2,1787240518000,-1349,3216,16137,-6812369,388510,-270002,0,0,0,292,246,199,232,165,233,277,177,191,183,227,150,0,,,,,
1,1787240518016,-751,-598,9490,529009,9773,204028,0,0,0,457,417,314,415,381,384,549,257,355,409,318,500,0,,,,,
2,1787240518016,-569,1880,17803,-7166670,509461,-92851,0,0,0,289,242,193,233,163,231,270,171,182,181,219,144,0,,,,,
1,1787240518032,-708,-521,9791,489913,102625,240680,0,0,0,466,427,309,420,400,380,555,237,355,403,307,517,0,,,,,
2,1787240518032,196,933,19664,-7182553,678060,246789,0,0,0,289,241,192,230,160,232,268,176,182,174,220,145,0,,,,,
1,1787240518048,-689,-512,10050,507018,175929,279776,0,0,0,479,444,309,410,391,388,554,221,351,401,295,527,0,,,,,
2,1787240518048,871,272,22344,-7093367,916297,616973,0,0,0,285,235,195,236,160,243,266,166,187,179,218,153,0,,,,,
1,1787240518064,-665,-574,10413,588874,252898,324980,0,0,0,480,445,313,416,397,380,553,211,353,397,287,544,0,,,,,
2,1787240518064,904,-1239,26202,-7111693,1192408,803898,0,0,0,288,234,195,235,159,242,270,161,188,181,214,154,0,,,,,
1,1787240518080,-626,-741,10792,740368,302989,379958,0,0,0,458,428,316,410,421,375,548,208,355,374,279,548,0,,,,,
2,1787240518080,81,-5518,30054,-7313278,1257160,785572,0,0,0,289,240,201,233,161,234,270,158,191,184,221,158,0,,,,,
1,1787240518096,-311,-866,11060,932180,276111,430049,0,0,0,515,475,278,418,438,385,530,198,369,369,266,573,0,,,,,
2,1787240518096,-727,-12840,32323,-7392691,1142317,818559,0,0,0,288,246,199,233,167,235,270,164,192,178,222,152,0,,,,,
1,1787240518112,268,-981,11294,1163087,173485,432492,0,0,0,530,489,256,428,466,398,524,201,376,375,260,581,0,,,,,
2,1787240518112,-1373,-23330,31629,-6998072,989601,847880,0,0,0,290,250,199,230,167,230,286,160,195,177,224,152,0,,,,,
1,1787240518128,775,-1057,11806,1417207,32986,340862,0,0,0,547,499,236,428,458,392,513,193,371,372,248,581,0,,,,,
2,1787240518128,-3072,-34118,27906,-5825210,840550,679282,0,0,0,290,253,199,236,169,234,281,153,192,178,220,150,0,,,,,
1,1787240518144,564,-1119,12739,1740965,-87964,223576,0,0,0,539,510,223,438,458,389,513,192,361,376,255,572,0,,,,,
2,1787240518144,-3981,-45111,20425,-3889989,348193,486248,0,0,0,293,249,200,236,164,231,281,145,192,180,208,148,0,,,,,
1,1787240518160,-268,-1177,13859,2157576,-125838,183259,0,0,0,544,507,224,440,451,392,481,185,359,359,248,566,0,,,,,
2,1787240518160,-2885,-52371,12926,-1825265,182037,441044,0,0,0,295,247,202,232,158,227,283,146,193,181,202,146,0,,,,,
1,1787240518176,-588,-1320,14620,2734232,-68416,228463,0,0,0,537,506,220,476,451,396,445,185,356,337,233,562,0,,,,,
2,1787240518176,-3488,-54438,9643,254119,280998,521678,0,0,0,294,236,203,234,155,227,284,225,186,191,254,143,0,,,,,
1,1787240518192,-780,-1469,14936,3325550,-8552,278554,0,0,0,534,490,219,453,449,410,386,185,367,323,230,552,0,,,,,
2,1787240518192,-3890,-44086,13452,2224771,237015,775798,0,0,0,287,205,180,244,144,218,298,333,173,230,361,133,0,,,,,
1,1787240518208,-1119,-1612,15266,3963293,24434,377514,0,0,0,525,475,223,427,450,414,331,181,372,307,218,528,0,,,,,
2,1787240518208,-1052,-4254,19626,3734830,-36651,938289,0,0,0,282,188,154,247,133,208,320,389,163,268,451,125,0,,,,,
1,1787240518224,-1397,-1938,16099,4564385,42760,502131,0,0,0,502,464,223,419,441,405,297,178,368,288,205,497,0,,,,,
2,1787240518224,1761,29265,15539,4236961,-818559,636521,0,0,0,283,200,158,247,135,214,347,446,158,306,501,117,0,,,,,
1,1787240518240,-2627,-2502,18329,5279097,97738,669508,0,0,0,472,451,216,404,424,389,279,182,361,269,199,464,0,,,,,
2,1787240518240,-38,14280,10586,5040859,-1081231,-67195,0,0,0,289,210,186,257,136,231,397,497,165,369,536,114,0,,,,,
1,1787240518256,-5518,-3340,22656,6114761,334754,990823,0,0,0,435,428,206,379,402,368,274,186,344,248,187,428,0,,,,,
2,1787240518256,-1799,-8504,19210,5413487,76969,-251676,0,0,0,301,215,241,264,130,251,443,520,180,417,579,133,0,,,,,
1,1787240518272,-7858,-3962,26341,6818477,518013,1457524,0,0,0,386,380,190,340,350,336,295,189,322,242,187,402,0,,,,,
2,1787240518272,-71,-9437,25058,4020715,645073,-382401,0,0,0,310,227,233,266,136,242,450,533,163,449,587,133,0,,,,,
1,1787240518288,-7556,-3402,29676,7494094,357967,2140471,0,0,0,348,320,184,290,271,282,343,203,303,270,215,381,0,,,,,
2,1787240518288,3058,-1239,20090,2036624,125838,-470366,0,0,0,323,244,270,282,149,282,455,536,179,460,580,155,0,,,,,
1,1787240518304,-7221,1268,33242,8140390,274889,2808758,0,0,0,332,247,210,235,178,242,367,218,297,295,266,360,0,,,,,
2,1787240518304,2292,617,11825,930958,-183259,-153938,0,0,0,320,241,272,304,149,284,491,538,208,475,577,183,0,,,,,
1,1787240518320,-8882,11390,29002,7687128,938289,3061656,0,0,0,338,252,215,248,186,250,376,199,300,300,263,355,0,,,,,
2,1787240518320,775,-119,8987,638965,52534,39095,0,0,0,312,246,292,278,149,297,468,544,199,443,570,210,0,,,,,
1,1787240518336,-10337,19382,19564,4489859,2228436,2152689,0,0,0,346,256,224,243,186,256,369,199,321,295,259,369,0,,,,,
2,1787240518336,1249,-550,9930,460592,190589,29321,0,0,0,309,244,324,278,152,312,489,559,223,464,581,228,0,,,,,
1,1787240518352,-9954,17142,16204,324980,2053728,182037,0,0,0,342,256,219,235,186,244,370,216,295,294,266,363,0,,,,,
2,1787240518352,1823,-4,10519,227241,2443,-13439,0,0,0,309,250,323,273,149,308,484,534,215,450,567,220,0,,,,,
1,1787240518368,-8131,12677,13242,-1995085,1447750,-1457524,0,0,0,346,253,219,241,186,242,366,218,289,300,276,365,0,,,,,
2,1787240518368,1584,737,10404,136833,-219911,-42760,0,0,0,317,260,324,285,156,317,478,517,210,457,565,219,0,,,,,
1,1787240518384,-6633,9672,9566,-2238210,904080,-2254092,0,0,0,347,253,219,237,187,245,364,224,288,295,278,367,0,,,,,
2,1787240518384,1081,1000,10241,262672,-241902,-72082,0,0,0,315,271,328,287,157,318,478,502,224,424,552,220,0,,,,,
1,1787240518400,-5618,9590,7341,-2322509,190589,-2243097,0,0,0,345,255,222,237,187,247,367,226,291,296,279,365,0,,,,,
2,1787240518400,842,976,10131,498466,-127059,-111177,0,0,0,319,270,319,285,157,313,467,487,224,433,532,222,0,,,,,
1,1787240518416,-3522,9131,6896,-2928487,-481361,-2117258,0,0,0,342,256,224,235,187,248,357,227,292,294,278,360,0,,,,,
2,1787240518416,847,880,9983,640186,-43982,-119729,0,0,0,325,286,305,290,169,316,451,456,227,433,514,224,0,,,,,
1,1787240518432,-1220,7575,7623,-3789807,-682947,-1941329,0,0,0,338,257,225,233,187,249,364,229,294,291,278,359,0,,,,,
2,1787240518432,1067,689,9849,673173,-36651,-101403,0,0,0,331,300,303,297,182,321,442,429,224,407,486,225,0,,,,,
1,1787240518448,-684,5891,8451,-4514294,-514348,-1569923,0,0,0,338,257,227,234,188,251,372,231,297,292,280,360,0,,,,,
2,1787240518448,1196,445,9743,669508,-68416,-109955,0,0,0,329,301,289,300,185,318,435,399,220,363,444,223,0,,,,,
1,1787240518464,-512,4556,9303,-5183802,-526565,-1054353,0,0,0,338,256,229,237,190,253,376,232,299,294,280,360,0,,,,,
2,1787240518464,1158,196,9595,634078,-107512,-144164,0,0,0,327,303,271,302,197,312,430,366,218,335,402,222,0,,,,,
1,1787240518480,-33,3598,10361,-5666385,-713490,-597426,0,0,0,338,255,228,238,190,254,378,231,297,293,278,358,0,,,,,
2,1787240518480,966,43,9423,566882,-131946,-166155,0,0,0,331,304,269,311,210,316,428,336,222,337,378,225,0,,,,,
1,1787240518496,291,2928,11993,-5931501,-853989,-405614,0,0,0,337,255,226,238,188,252,379,231,295,293,278,356,0,,,,,
2,1787240518496,875,-9,9356,507018,-135612,-168598,0,0,0,332,301,269,322,208,325,427,298,230,336,367,231,0,,,,,
1,1787240518512,76,2421,14137,-6177069,-957836,-441044,0,0,0,337,255,225,238,187,250,381,233,295,292,280,355,0,,,,,
2,1787240518512,890,-28,9432,464257,-128281,-164933,0,0,0,329,304,274,330,230,339,431,280,231,333,341,240,0,,,,,
1,1787240518528,-502,1852,16185,-6483723,-1051909,-652404,0,0,0,340,252,222,240,188,250,384,234,294,297,284,357,0,,,,,
2,1787240518528,918,-81,9547,441044,-112399,-164933,0,0,0,325,288,275,328,228,355,430,287,225,325,312,251,0,,,,,
1,1787240518544,-1139,760,18128,-6780604,-1207069,-896750,0,0,0,341,249,221,243,187,253,386,232,295,301,284,356,0,,,,,
2,1787240518544,899,-138,9648,443488,-80634,-168598,0,0,0,330,291,265,338,242,368,430,273,236,325,301,255,0,,,,,
1,1787240518560,-1914,-330,20401,-6938207,-1411098,-1071457,0,0,0,345,253,224,244,188,253,392,229,299,297,276,350,0,,,,,
2,1787240518560,923,-129,9782,475253,-28099,-174707,0,0,0,354,316,291,347,249,394,451,245,263,358,292,278,0,,,,,
1,1787240518576,-2881,-2024,23866,-7020063,-1666440,-1055575,0,0,0,342,253,222,246,188,256,395,226,299,297,273,345,0,,,,,
2,1787240518576,1052,-153,9930,527787,15882,-193033,0,0,0,369,347,298,339,275,392,433,194,278,347,298,301,0,,,,,
1,1787240518592,-2895,-6264,27504,-7128797,-1837482,-748920,0,0,0,345,259,228,245,189,256,395,228,304,295,273,346,0,,,,,
2,1787240518592,1296,-210,10165,609643,39095,-235793,0,0,0,370,376,324,351,307,419,446,188,294,316,281,304,0,,,,,
1,1787240518608,-1450,-12883,29571,-7149566,-1891238,-448375,0,0,0,340,259,225,245,191,259,395,226,310,297,277,346,0,,,,,
2,1787240518608,1698,-306,10543,750142,25656,-326202,0,0,0,393,389,303,400,318,428,436,162,287,314,243,322,0,,,,,
1,1787240518624,1636,-22067,29404,-6883229,-1810604,-215024,0,0,0,340,265,225,245,193,259,395,226,315,288,272,340,0,,,,,
2,1787240518624,1852,-588,10811,918741,-24434,-443488,0,0,0,411,384,277,423,343,423,416,151,290,314,225,340,0,,,,,
1,1787240518640,5072,-32337,26341,-5954714,-1317025,23212,0,0,0,334,264,226,251,194,267,401,223,310,294,272,345,0,,,,,
2,1787240518640,1311,-765,11476,1174082,-98960,-522900,0,0,0,418,386,259,428,358,431,398,145,300,307,219,359,0,,,,,
1,1787240518656,5838,-40028,20416,-4525289,-532674,122173,0,0,0,335,267,229,253,195,269,405,223,308,297,273,346,0,,,,,
2,1787240518656,1081,-622,12730,1565036,-123394,-532674,0,0,0,432,394,236,424,355,437,373,138,285,287,216,354,0,,,,,
1,1787240518672,4565,-46006,12773,-2474004,-185703,-47647,0,0,0,338,265,227,254,193,269,408,226,309,297,275,344,0,,,,,
2,1787240518672,1306,-526,14189,2145358,-90408,-536339,0,0,0,430,404,223,413,376,455,343,139,314,272,212,363,0,,,,,
1,1787240518688,4039,-48820,8853,-612086,-169820,-410501,0,0,0,329,248,212,251,186,262,438,303,304,326,337,327,0,,,,,
2,1787240518688,1287,-583,15137,2882062,-85521,-557109,0,0,0,436,407,228,409,395,465,303,150,333,271,215,385,0,,,,,
1,1787240518704,3177,-44201,10672,1166752,-54977,-885754,0,0,0,312,225,180,243,176,253,473,422,292,368,424,296,0,,,,,
2,1787240518704,1440,-622,15716,3657861,-128281,-577878,0,0,0,437,406,230,414,403,461,256,141,331,263,216,381,0,,,,,
1,1787240518720,3072,-21110,17114,2944370,926071,-1202182,0,0,0,304,222,158,238,177,250,490,488,287,402,470,274,0,,,,,
2,1787240518720,2220,-784,16166,4508185,-157603,-669508,0,0,0,422,413,219,417,403,462,206,123,311,241,214,357,0,,,,,
1,1787240518736,3431,9121,16405,3703065,2678033,-1110553,0,0,0,303,236,167,240,184,255,511,511,286,431,495,263,0,,,,,
2,1787240518736,3038,-722,17697,5506339,-90408,-895528,0,0,0,403,418,216,405,400,466,173,114,282,213,193,322,0,,,,,
1,1787240518752,4757,11686,15348,4009719,3121521,-357967,0,0,0,302,232,190,249,174,261,545,546,296,459,528,255,0,,,,,
2,1787240518752,4254,-837,20827,6575353,-69638,-1169196,0,0,0,365,395,220,379,398,434,167,102,270,190,156,270,0,,,,,
1,1787240518768,3531,-2153,19282,3882659,1897347,379958,0,0,0,314,232,242,265,174,266,566,569,328,514,554,262,0,,,,,
2,1787240518768,6666,-1923,26111,7707897,-238237,-1519832,0,0,0,314,349,200,343,349,367,169,96,233,179,151,228,0,,,,,
1,1787240518784,875,-5896,21272,3083647,817337,493579,0,0,0,322,264,325,270,200,294,576,575,316,543,562,307,0,,,,,
2,1787240518784,8734,-2613,32031,8411614,-128281,-1933999,0,0,0,294,288,183,291,253,285,189,104,191,178,163,184,0,,,,,
1,1787240518800,-430,-1966,18339,1880243,459370,117286,0,0,0,338,295,362,279,226,309,582,570,323,539,572,349,0,,,,,
2,1787240518800,8911,-1014,36807,8770803,522900,-2427578,0,0,0,282,240,173,237,162,220,239,134,178,184,199,151,0,,,,,
1,1787240518816,540,95,13649,1120326,376292,-41538,0,0,0,350,311,378,295,261,325,599,580,330,547,581,369,0,,,,,
2,1787240518816,8609,7169,33677,8319984,797790,-2875953,0,0,0,288,237,197,228,151,221,250,147,184,187,204,163,0,,,,,
1,1787240518832,636,0,11213,698829,72082,-35430,0,0,0,355,316,402,301,286,336,606,580,335,537,584,379,0,,,,,
2,1787240518832,8298,18339,23110,6525262,103847,-3046995,0,0,0,294,240,198,232,159,223,260,147,194,189,209,163,0,,,,,
1,1787240518848,-67,-277,10902,489913,-241902,-23212,0,0,0,358,327,407,301,277,332,608,563,347,553,586,395,0,,,,,
2,1787240518848,6106,24704,16999,2321287,-1277930,-2290744,0,0,0,295,239,195,230,156,224,265,158,191,190,212,160,0,,,,,
1,1787240518864,-311,392,10854,401949,-285884,-51312,0,0,0,358,339,420,302,276,336,608,541,349,538,561,405,0,,,,,
2,1787240518864,4991,20847,14453,-1765400,-2450791,-735481,0,0,0,305,239,198,229,153,217,257,157,183,189,214,156,0,,,,,
1,1787240518880,-205,957,10796,432492,-278554,-57421,0,0,0,362,336,412,307,277,343,597,520,351,522,552,408,0,,,,,
2,1787240518880,6968,14606,8399,-3750712,-2890614,439822,0,0,0,300,240,193,224,151,214,262,168,188,182,218,154,0,,,,,
1,1787240518896,-28,1067,10725,592539,-317649,-39095,0,0,0,365,337,390,311,283,339,588,491,349,498,524,406,0,,,,,
2,1787240518896,8700,12093,3642,-3519805,-1726305,649960,0,0,0,297,237,195,224,152,217,270,176,191,182,222,156,0,,,,,
1,1787240518912,-14,938,10562,752585,-409279,-30543,0,0,0,368,343,371,316,284,338,576,464,344,497,500,414,0,,,,,
2,1787240518912,5623,11907,4422,-3661526,-289550,835663,0,0,0,296,240,198,222,151,219,273,182,189,177,220,154,0,,,,,
1,1787240518928,-234,842,10337,871093,-487470,-36651,0,0,0,370,344,355,326,288,344,569,450,346,483,480,421,0,,,,,
2,1787240518928,2421,10457,6456,-4221078,230907,1279151,0,0,0,292,241,196,224,153,221,280,190,193,183,222,154,0,,,,,
1,1787240518944,-440,765,10122,930958,-478918,-25656,0,0,0,370,347,347,339,296,351,563,429,350,468,464,428,0,,,,,
2,1787240518944,1804,7863,7915,-4802622,80634,1602910,0,0,0,301,240,196,234,153,225,295,183,195,216,212,151,0,,,,,
1,1787240518960,-555,545,9801,938289,-404392,3665,0,0,0,375,359,348,341,305,354,559,407,352,459,447,431,0,,,,,
2,1787240518960,1751,6073,9193,-5192354,223576,1468520,0,0,0,310,242,200,239,152,224,297,168,195,243,210,155,0,,,,,
1,1787240518976,-698,291,9533,896750,-299323,41538,0,0,0,384,368,352,340,313,359,560,391,353,457,430,434,0,,,,,
2,1787240518976,339,4785,11524,-5718920,438601,1132544,0,0,0,311,247,205,242,156,227,288,163,197,235,216,158,0,,,,,
1,1787240518992,-756,0,9399,786794,-164933,87964,0,0,0,389,378,356,352,323,370,559,363,359,464,426,447,0,,,,,
2,1787240518992,-282,3742,13563,-6210056,436157,890641,0,0,0,303,248,205,238,161,232,272,165,197,205,219,158,0,,,,,
1,1787240519008,-650,-201,9461,645073,-50090,119729,0,0,0,396,406,365,357,339,371,563,334,366,450,419,461,0,,,,,
2,1787240519008,-181,2608,15529,-6691417,455705,647517,0,0,0,296,249,204,234,166,233,258,164,193,185,220,160,0,,,,,
1,1787240519024,-626,-253,9662,554665,21991,145385,0,0,0,410,400,376,378,354,379,568,305,357,445,386,483,0,,,,,
2,1787240519024,196,1526,17243,-7064045,530231,461814,0,0,0,299,253,206,237,170,235,260,162,192,188,220,161,0,,,,,
1,1787240519040,-679,-234,10021,549778,76969,175929,0,0,0,430,407,375,393,379,383,563,289,362,435,347,501,0,,,,,
2,1787240519040,880,603,19210,-7252192,608421,444709,0,0,0,299,253,206,234,167,234,260,166,196,188,220,160,0,,,,,
1,1787240519056,-737,-248,10318,604756,136833,210137,0,0,0,469,418,377,394,378,387,562,255,365,424,322,520,0,,,,,
2,1787240519056,1842,-306,21789,-7290065,784350,486248,0,0,0,302,250,204,240,165,237,255,159,193,196,218,163,0,,,,,
1,1787240519072,-784,-330,10504,698829,191811,255341,0,0,0,460,423,369,397,385,387,551,225,364,404,300,532,0,,,,,
2,1787240519072,2383,-1665,25651,-7315722,1131322,393397,0,0,0,300,247,208,238,156,237,255,140,192,194,208,161,0,,,,,
1,1787240519088,-818,-435,10710,811229,206472,321315,0,0,0,480,439,351,416,403,397,552,204,374,408,289,547,0,,,,,
2,1787240519088,2067,-4154,29935,-7501425,1386664,218689,0,0,0,299,240,207,239,156,238,259,138,192,194,207,160,0,,,,,
1,1787240519104,-617,-626,11016,962723,173485,388510,0,0,0,486,460,333,407,431,395,543,202,385,374,281,564,0,,,,,
2,1787240519104,1952,-10949,33433,-7705454,1491732,216246,0,0,0,296,242,205,239,159,238,258,142,199,190,205,164,0,,,,,
1,1787240519120,-339,-847,11385,1158200,117286,430049,0,0,0,501,477,300,409,433,407,533,194,381,357,250,574,0,,,,,
2,1787240519120,1440,-21756,33850,-7412238,1631010,390953,0,0,0,303,244,202,247,159,238,264,144,197,194,207,161,0,,,,,
1,1787240519136,134,-990,12026,1430646,26878,426383,0,0,0,519,475,260,417,439,395,525,193,379,344,230,578,0,,,,,
2,1787240519136,-2900,-36003,29514,-5949827,1655444,571769,0,0,0,297,239,203,248,160,255,262,137,210,191,207,167,0,,,,,
1,1787240519152,215,-1014,13208,1826487,-78190,348193,0,0,0,527,484,228,415,455,400,511,195,370,336,230,574,0,,,,,
2,1787240519152,-5580,-45843,21880,-4051258,932180,619417,0,0,0,300,246,203,250,166,253,263,143,208,190,207,161,0,,,,,
1,1787240519168,-76,-1005,14515,2364048,-164933,294437,0,0,0,532,490,220,419,466,404,490,191,361,340,237,567,0,,,,,
2,1787240519168,-2852,-53357,12888,-1970651,211359,364075,0,0,0,302,244,203,249,163,246,265,140,201,193,208,158,0,,,,,
1,1787240519184,-138,-890,15553,2977357,-180816,278554,0,0,0,538,487,226,432,446,408,466,183,359,351,229,563,0,,,,,
2,1787240519184,-2694,-55003,8652,43982,239459,97738,0,0,0,294,238,203,246,156,246,264,173,199,193,231,150,0,,,,,
1,1787240519200,-665,-909,16137,3687182,-102625,279776,0,0,0,532,480,224,435,419,412,410,175,357,340,208,556,0,,,,,
2,1787240519200,-5010,-45527,11868,1936442,339641,361632,0,0,0,287,210,185,246,144,226,298,291,179,215,306,129,0,,,,,
1,1787240519216,-1521,-966,16472,4453207,4886,361632,0,0,0,514,470,219,437,420,412,336,172,365,311,196,536,0,,,,,
2,1787240519216,-3383,-13366,20349,3456275,-519235,959058,0,0,0,278,197,168,242,139,222,323,391,182,248,400,131,0,,,,,
1,1787240519232,-2435,-1220,17075,5205793,96516,557109,0,0,0,488,463,225,443,430,420,289,177,377,289,192,499,0,,,,,
2,1787240519232,-248,25589,18588,3947411,-1958433,1270599,0,0,0,272,199,163,245,137,229,340,464,187,283,472,132,0,,,,,
1,1787240519248,-3393,-1770,19679,6148969,195476,864985,0,0,0,461,451,228,427,427,416,270,178,372,260,184,457,0,,,,,
2,1787240519248,-2450,22589,9964,4194200,-2113593,775798,0,0,0,278,198,173,256,133,236,382,523,182,344,504,130,0,,,,,
1,1787240519264,-5704,-2541,23991,7105584,371406,1175304,0,0,0,420,426,198,386,400,378,270,185,358,239,176,415,0,,,,,
2,1787240519264,-4948,-3584,14668,5031086,-432492,-31764,0,0,0,290,211,207,265,135,254,438,554,188,411,524,134,0,,,,,
1,1787240519280,-8724,-3177,28628,7925365,359188,1598023,0,0,0,364,395,191,346,368,337,278,186,326,223,175,394,0,,,,,
2,1787240519280,-1966,-10337,22584,4473977,707381,-570548,0,0,0,305,239,245,278,148,273,478,556,194,449,559,136,0,,,,,
1,1787240519296,-8657,-1435,32701,8481252,-114842,2217440,0,0,0,314,308,178,279,263,272,339,203,304,262,214,349,0,,,,,
2,1787240519296,2565,-2388,22172,2861292,466701,-604756,0,0,0,319,248,248,288,152,272,504,552,188,478,581,148,0,,,,,
1,1787240519312,-7398,3120,35501,8651073,-360410,2764776,0,0,0,324,260,210,247,193,252,365,214,304,282,255,355,0,,,,,
2,1787240519312,2057,119,14276,1281595,70860,-172263,0,0,0,314,255,260,283,159,284,537,558,204,490,577,172,0,,,,,
1,1787240519328,-8073,13390,27666,7921700,179594,3106860,0,0,0,326,257,215,246,189,251,365,205,302,285,243,352,0,,,,,
2,1787240519328,555,-708,10232,645073,278554,29321,0,0,0,311,259,264,285,160,293,521,549,199,473,580,192,0,,,,,
1,1787240519344,-8265,20291,16338,4164879,981049,2697580,0,0,0,331,260,216,239,192,243,366,215,295,286,252,353,0,,,,,
2,1787240519344,1057,-641,10193,508239,439822,4886,0,0,0,319,251,263,283,143,290,531,537,201,481,584,207,0,,,,,
1,1787240519360,-6039,17836,15056,-748920,1134987,1285260,0,0,0,336,258,218,236,187,242,370,219,293,285,256,355,0,,,,,
2,1787240519360,1665,-14,10538,361632,310319,-26878,0,0,0,322,266,269,283,146,287,518,540,203,483,576,205,0,,,,,
1,1787240519376,-4225,10653,13558,-3341432,1748296,-526565,0,0,0,347,253,219,238,184,241,373,218,292,290,257,359,0,,,,,
2,1787240519376,1450,574,10547,249233,92851,-32986,0,0,0,322,267,258,287,154,287,504,542,200,485,544,195,0,,,,,
1,1787240519392,-5728,7657,9116,-3308446,2025629,-1560149,0,0,0,348,256,220,238,186,241,370,219,291,294,263,361,0,,,,,
2,1787240519392,1014,737,10313,294437,78190,-36651,0,0,0,324,266,254,311,198,286,499,530,202,450,496,194,0,,,,,
1,1787240519408,-6949,8365,5867,-2941926,952949,-2014633,0,0,0,344,260,222,237,188,241,370,222,291,295,268,360,0,,,,,
2,1787240519408,890,780,10045,405614,130725,-58643,0,0,0,314,258,249,285,159,287,468,515,210,409,484,202,0,,,,,
1,1787240519424,-4067,8145,6882,-3747047,-271224,-2351831,0,0,0,341,261,222,239,190,243,375,228,293,294,270,357,0,,,,,
2,1787240519424,961,837,9825,476474,139277,-87964,0,0,0,319,265,250,283,154,288,465,469,208,390,460,200,0,,,,,
1,1787240519440,-1943,6403,8269,-4548502,-444709,-2554638,0,0,0,340,263,222,239,193,244,378,235,294,292,271,355,0,,,,,
2,1787240519440,1052,923,9667,524122,118507,-102625,0,0,0,318,268,248,288,158,293,453,448,210,376,434,195,0,,,,,
1,1787240519456,-2153,4268,9026,-5090950,-120951,-2317622,0,0,0,340,265,224,237,194,243,377,238,294,292,275,355,0,,,,,
2,1787240519456,1201,966,9595,575435,67195,-102625,0,0,0,315,266,247,287,160,292,411,374,223,385,424,208,0,,,,,
1,1787240519472,-2541,3120,9705,-5496565,-351858,-1612684,0,0,0,336,264,223,237,196,244,376,240,293,292,278,354,0,,,,,
2,1787240519472,1292,660,9475,597426,-14660,-105068,0,0,0,314,264,245,294,162,299,430,375,222,385,416,207,0,,,,,
1,1787240519488,-1828,2230,11136,-5936388,-703716,-927293,0,0,0,337,263,223,239,195,248,376,238,294,291,276,352,0,,,,,
2,1787240519488,1244,277,9279,554665,-86742,-123394,0,0,0,314,260,247,302,163,311,451,395,227,379,404,213,0,,,,,
1,1787240519504,-1095,1512,13275,-6382320,-791681,-608421,0,0,0,333,260,223,240,194,250,383,243,300,291,276,353,0,,,,,
2,1787240519504,1091,71,9126,458148,-127059,-144164,0,0,0,328,253,247,316,163,318,459,386,226,380,390,216,0,,,,,
1,1787240519520,-1306,827,15080,-6806260,-806342,-604756,0,0,0,334,262,225,240,195,250,384,243,298,291,277,353,0,,,,,
2,1787240519520,947,105,9193,360410,-123394,-150272,0,0,0,329,255,248,327,170,325,466,359,228,389,374,213,0,,,,,
1,1787240519536,-1947,-33,16420,-7122688,-956614,-808785,0,0,0,332,259,225,238,194,251,385,243,300,295,282,353,0,,,,,
2,1787240519536,961,186,9418,324980,-109955,-142942,0,0,0,316,262,256,324,177,335,466,332,239,396,364,222,0,,,,,
1,1787240519552,-2546,-1091,17875,-7181331,-1202182,-1109331,0,0,0,324,254,223,238,190,252,390,224,301,300,265,344,0,,,,,
2,1787240519552,1143,234,9724,355523,-123394,-141720,0,0,0,323,268,266,319,178,346,462,312,243,385,365,239,0,,,,,
1,1787240519568,-3594,-1933,20454,-7039611,-1495398,-1285260,0,0,0,324,254,222,242,189,252,395,218,302,300,266,343,0,,,,,
2,1787240519568,1277,95,9858,411723,-182037,-167377,0,0,0,326,286,275,331,196,376,461,292,263,362,352,255,0,,,,,
1,1787240519584,-4321,-3656,24015,-7029837,-1959655,-1119105,0,0,0,326,258,223,244,190,253,399,218,303,296,262,342,0,,,,,
2,1787240519584,1239,-62,9925,460592,-222354,-207694,0,0,0,324,298,282,340,224,405,470,286,271,345,329,273,0,,,,,
1,1787240519600,-3732,-8226,28016,-7161784,-2335948,-598647,0,0,0,326,259,224,247,190,256,404,210,305,297,253,342,0,,,,,
2,1787240519600,1162,-81,10107,544891,-182037,-252898,0,0,0,336,321,297,340,255,421,488,265,291,323,308,292,0,,,,,
1,1787240519616,-2431,-15415,29514,-7100697,-2169793,-171042,0,0,0,324,259,222,256,194,261,408,206,304,296,243,337,0,,,,,
2,1787240519616,1134,-90,10399,698829,-78190,-301767,0,0,0,363,326,290,374,282,420,495,196,283,334,304,309,0,,,,,
1,1787240519632,181,-27025,27575,-6393315,-1863138,123394,0,0,0,323,260,220,263,198,265,410,206,305,297,242,333,0,,,,,
2,1787240519632,1172,-205,10744,905302,59864,-344527,0,0,0,419,347,286,391,298,428,475,184,309,316,240,341,0,,,,,
1,1787240519648,3632,-35922,23713,-5260771,-1534493,290771,0,0,0,326,263,222,262,198,267,413,209,309,300,247,332,0,,,,,
2,1787240519648,1478,-210,11433,1154535,156381,-387288,0,0,0,402,364,293,414,325,461,444,146,297,290,206,359,0,,,,,
1,1787240519664,6379,-41804,16759,-3387858,-812450,254119,0,0,0,329,266,224,259,196,266,418,215,313,318,247,328,0,,,,,
2,1787240519664,1995,-110,12940,1572367,212581,-464257,0,0,0,402,391,242,445,392,451,431,149,317,291,212,366,0,,,,,
1,1787240519680,6475,-45407,11629,-1577254,-306654,78190,0,0,0,322,261,216,256,194,263,428,247,310,342,276,320,0,,,,,
2,1787240519680,2445,-306,15089,2302961,189368,-586430,0,0,0,424,398,220,399,387,429,387,149,350,270,206,399,0,,,,,
1,1787240519696,4130,-46810,9964,-45204,111177,-182037,0,0,0,306,244,192,246,187,257,453,343,297,339,382,310,0,,,,,
2,1787240519696,2383,-626,16271,3202155,136833,-728151,0,0,0,426,395,212,409,416,470,336,146,354,276,212,405,0,,,,,
1,1787240519712,2952,-35716,14367,1809382,993266,-637743,0,0,0,305,229,170,250,180,253,478,455,292,387,449,284,0,,,,,
2,1787240519712,2038,-397,16970,4188092,39095,-860098,0,0,0,430,409,203,409,440,454,278,140,332,264,215,387,0,,,,,
1,1787240519728,3436,-3598,17482,3611435,2801427,-1424537,0,0,0,303,237,170,244,191,255,493,493,283,415,474,269,0,,,,,
2,1787240519728,2048,-52,17578,5121494,-17104,-954171,0,0,0,428,412,208,396,426,449,214,127,335,249,207,375,0,,,,,
1,1787240519744,5331,12443,15549,3743382,3211929,-1458746,0,0,0,301,243,172,245,193,265,516,516,300,454,499,267,0,,,,,
2,1787240519744,2842,134,19248,6168517,51312,-1084896,0,0,0,391,401,207,381,412,449,174,102,323,218,181,328,0,,,,,
1,1787240519760,6508,6738,15850,3819129,2591290,-535117,0,0,0,319,236,206,267,177,281,538,538,309,526,526,282,0,,,,,
2,1787240519760,4996,-220,22464,7331604,135612,-1329242,0,0,0,333,366,192,362,378,400,180,98,285,190,148,266,0,,,,,
1,1787240519776,3838,-5010,19176,3600439,1351233,599869,0,0,0,317,244,245,275,185,282,562,562,309,553,553,266,0,,,,,
2,1787240519776,7547,-1584,28604,8542339,100181,-1738522,0,0,0,303,318,177,324,306,325,183,101,226,180,145,216,0,,,,,
1,1787240519792,-287,-4709,20354,2746450,581543,634078,0,0,0,318,267,298,279,203,294,574,574,317,550,564,303,0,,,,,
2,1787240519792,8973,-2550,34888,8958949,610865,-2087937,0,0,0,293,255,171,263,203,254,209,119,187,181,174,176,0,,,,,
1,1787240519808,-406,-971,16630,1534493,438601,42760,0,0,0,333,286,343,290,225,307,581,578,319,559,570,326,0,,,,,
2,1787240519808,8552,406,39506,8869763,1993864,-2543642,0,0,0,290,217,182,227,141,224,251,139,189,185,197,162,0,,,,,
1,1787240519824,674,430,12562,819781,285884,-160046,0,0,0,341,304,351,295,246,312,593,578,317,564,580,344,0,,,,,
2,1787240519824,6637,13835,31294,7693236,1995085,-3042108,0,0,0,299,223,196,235,144,235,256,135,199,189,196,170,0,,,,,
1,1787240519840,497,248,10906,591317,17104,-69638,0,0,0,344,315,346,296,260,318,600,578,324,563,585,367,0,,,,,
2,1787240519840,4072,26025,21205,4833165,45204,-2814867,0,0,0,305,222,200,235,143,230,258,134,197,193,195,169,0,,,,,
1,1787240519856,-47,177,10801,452040,-172263,-14660,0,0,0,348,323,349,300,271,322,603,574,329,570,583,372,0,,,,,
2,1787240519856,3512,27858,16841,403171,-2564412,-1043357,0,0,0,307,221,200,235,140,224,264,140,190,194,195,165,0,,,,,
1,1787240519872,-172,689,11016,393397,-240680,-36651,0,0,0,352,335,349,305,280,323,597,554,330,563,571,374,0,,,,,
2,1787240519872,6250,20526,12313,-2572964,-3622430,801455,0,0,0,310,224,204,235,139,228,268,138,195,199,199,172,0,,,,,
1,1787240519888,28,1134,10815,516791,-302989,-48869,0,0,0,355,339,349,309,282,326,591,530,334,544,554,389,0,,,,,
2,1787240519888,9069,14606,6255,-3387858,-3033556,1358564,0,0,0,303,221,216,227,134,237,263,142,203,192,201,187,0,,,,,
1,1787240519904,86,1215,10605,702495,-383623,-42760,0,0,0,364,338,348,317,284,331,585,503,341,534,526,401,0,,,,,
2,1787240519904,8490,13682,3886,-3362202,-1441641,851546,0,0,0,305,221,216,227,138,240,269,142,204,197,202,193,0,,,,,
1,1787240519920,-76,1052,10428,904080,-477696,-35430,0,0,0,369,343,340,325,290,336,575,467,342,521,488,407,0,,,,,
2,1787240519920,5183,12199,5661,-4105014,-426383,612086,0,0,0,307,223,203,235,140,228,275,144,199,202,206,172,0,,,,,
1,1787240519936,-358,899,10308,971275,-476474,-30543,0,0,0,365,348,344,331,297,346,566,440,343,500,464,416,0,,,,,
2,1787240519936,3196,9389,7705,-4863709,-211359,608421,0,0,0,306,223,203,235,138,233,273,139,198,199,206,167,0,,,,,
1,1787240519952,-540,703,10126,996932,-408057,-9773,0,0,0,369,358,367,338,307,362,558,414,357,489,453,426,0,,,,,
2,1787240519952,3263,6896,9236,-5501452,-210137,471587,0,0,0,306,223,206,240,139,234,272,141,196,196,202,165,0,,,,,
1,1787240519968,-612,469,9868,989601,-291993,25656,0,0,0,381,373,349,350,316,360,558,377,348,474,434,434,0,,,,,
2,1787240519968,3058,4867,10782,-6063448,2443,222354,0,0,0,309,224,207,250,151,235,275,144,200,200,202,170,0,,,,,
1,1787240519984,-636,201,9743,939510,-167377,62308,0,0,0,407,378,348,362,328,361,558,350,355,468,396,436,0,,,,,
2,1787240519984,2330,3273,12696,-6437297,299323,23212,0,0,0,311,222,204,246,146,236,277,143,197,198,198,166,0,,,,,
1,1787240520000,-626,-47,9691,862541,-68416,98960,0,0,0,403,388,349,362,350,367,555,322,355,454,386,475,0,,,,,
2,1787240520000,2100,2464,14941,-6709743,504574,21991,0,0,0,310,223,204,242,139,235,279,144,198,197,196,163,0,,,,,
1,1787240520016,-593,-224,9681,753807,7330,151494,0,0,0,411,398,359,361,353,373,554,306,359,447,378,485,0,,,,,
2,1787240520016,2234,1622,17147,-7084815,678060,119729,0,0,0,306,224,204,241,142,237,275,147,202,198,198,166,0,,,,,
1,1787240520032,-655,-277,9830,687834,53756,205250,0,0,0,416,404,349,376,369,379,560,276,359,433,367,492,0,,,,,
2,1787240520032,2680,569,19095,-7387804,838107,339641,0,0,0,305,225,207,240,147,238,271,143,201,195,199,167,0,,,,,
1,1787240520048,-713,-325,10040,673173,131946,256563,0,0,0,449,423,352,402,383,382,554,256,364,428,333,516,0,,,,,
2,1787240520048,3201,-157,21493,-7368256,1122770,642630,0,0,0,303,230,205,246,157,240,271,142,198,193,200,164,0,,,,,
1,1787240520064,-760,-358,10165,700051,211359,309097,0,0,0,470,424,348,407,388,384,551,244,368,415,297,539,0,,,,,
2,1787240520064,3206,-981,24771,-7277848,1475850,827111,0,0,0,298,228,200,250,157,242,269,142,195,193,197,161,0,,,,,
1,1787240520080,-693,-459,10337,764803,217468,378736,0,0,0,475,435,333,410,403,390,552,211,375,404,274,557,0,,,,,
2,1787240520080,2244,-2971,29356,-7243640,1780061,739146,0,0,0,293,223,195,244,149,238,269,135,193,190,192,158,0,,,,,
1,1787240520096,-507,-679,10629,875980,146607,450818,0,0,0,493,454,316,423,417,400,551,195,388,382,245,576,0,,,,,
2,1787240520096,354,-7733,33390,-7439116,1761735,466701,0,0,0,296,227,193,244,151,235,273,132,195,190,195,156,0,,,,,
1,1787240520112,-62,-890,11179,1066570,31764,488692,0,0,0,508,469,280,435,430,404,543,194,387,363,224,586,0,,,,,
2,1787240520112,-1483,-16487,34783,-7563733,1517389,295658,0,0,0,302,231,195,251,158,238,272,133,198,197,201,159,0,,,,,
1,1787240520128,469,-981,11988,1381777,-96516,439822,0,0,0,518,477,238,441,434,404,532,192,378,350,215,585,0,,,,,
2,1787240520128,-3029,-28920,32213,-6936985,1181413,180816,0,0,0,295,231,192,253,157,243,273,128,199,198,195,158,0,,,,,
1,1787240520144,689,-952,12993,1767844,-238237,332310,0,0,0,530,477,218,444,428,409,523,188,373,336,205,583,0,,,,,
2,1787240520144,-3924,-41995,24642,-4989547,715934,42760,0,0,0,298,238,198,261,166,250,277,134,202,198,200,158,0,,,,,
1,1787240520160,335,-938,13988,2205223,-361632,230907,0,0,0,534,476,211,452,434,415,512,182,359,338,200,586,0,,,,,
2,1787240520160,-3297,-51926,15994,-2929709,419053,2443,0,0,0,299,240,198,270,177,252,275,132,199,198,204,159,0,,,,,
1,1787240520176,-28,-942,14950,2758667,-406836,191811,0,0,0,545,473,207,463,433,418,486,173,363,335,193,581,0,,,,,
2,1787240520176,-4623,-56821,10619,-833220,433714,202807,0,0,0,302,243,202,263,163,251,284,136,204,207,207,158,0,,,,,
1,1787240520192,-335,-961,15745,3406184,-382401,184481,0,0,0,542,468,205,454,422,421,457,170,368,323,188,582,0,,,,,
2,1787240520192,-5699,-52457,10423,1329242,299323,724486,0,0,0,302,227,202,253,152,245,291,222,204,217,305,145,0,,,,,
1,1787240520208,-909,-1000,16080,4130670,-298102,227241,0,0,0,524,467,206,453,436,416,376,170,365,310,187,544,0,,,,,
2,1787240520208,-3445,-34907,16850,3098308,74525,1237612,0,0,0,284,194,160,249,144,215,314,376,168,233,412,121,0,,,,,
1,1787240520224,-1789,-1225,16377,4874704,-173485,349414,0,0,0,512,458,207,439,435,412,291,173,379,287,185,534,0,,,,,
2,1787240520224,-1292,10758,22593,3948632,-949284,1402546,0,0,0,276,193,155,247,144,218,333,463,164,259,482,122,0,,,,,
1,1787240520240,-2694,-1847,17889,5665164,10995,563217,0,0,0,470,442,209,433,426,428,284,179,392,261,175,474,0,,,,,
2,1787240520240,-2402,35424,15324,3827681,-2130697,1176526,0,0,0,276,202,155,263,145,225,355,530,159,317,556,124,0,,,,,
1,1787240520256,-4225,-2268,22493,6522819,204028,792903,0,0,0,445,421,210,404,405,394,281,176,370,247,175,429,0,,,,,
2,1787240520256,-5412,11036,11763,4561941,-1941329,327423,0,0,0,284,205,173,261,136,232,390,575,164,362,582,122,0,,,,,
1,1787240520272,-6795,-2818,27714,7345043,335975,1087340,0,0,0,412,387,193,365,368,349,292,185,345,235,170,396,0,,,,,
2,1787240520272,-2445,-10605,21493,4673119,-838107,-395840,0,0,0,300,211,205,264,137,246,421,554,182,395,592,126,0,,,,,
1,1787240520288,-8470,-2455,31356,8009665,233350,1512502,0,0,0,355,336,185,299,298,306,324,204,325,242,195,365,0,,,,,
2,1787240520288,1593,-8044,24043,3424510,-360410,-485026,0,0,0,313,219,224,271,137,252,443,565,177,426,589,122,0,,,,,
1,1787240520304,-7202,775,35319,8517904,-105068,2045176,0,0,0,327,280,205,255,220,269,364,212,315,263,229,345,0,,,,,
2,1787240520304,1072,760,16118,2050063,-219911,-156381,0,0,0,320,230,242,274,137,256,464,591,166,444,584,128,0,,,,,
1,1787240520320,-6848,10112,31883,8458040,238237,2467895,0,0,0,327,263,218,243,193,254,378,207,311,280,237,338,0,,,,,
2,1787240520320,-421,1880,10246,1352455,112399,-69638,0,0,0,323,241,248,281,145,256,490,599,168,449,584,138,0,,,,,
1,1787240520336,-8356,19473,20521,6393315,1268156,2497217,0,0,0,339,267,220,243,195,250,379,208,307,288,236,341,0,,,,,
2,1787240520336,579,-756,10212,1017701,393397,-149051,0,0,0,326,252,236,288,159,254,506,600,170,454,578,137,0,,,,,
1,1787240520352,-7322,18970,17721,1448972,1308473,1445307,0,0,0,348,267,223,241,196,246,379,217,304,288,242,346,0,,,,,
2,1787240520352,1813,-789,11031,612086,262672,-89186,0,0,0,342,270,244,292,162,262,503,589,172,469,558,153,0,,,,,
1,1787240520368,-4039,13586,16544,-2472782,1417207,-80634,0,0,0,347,268,223,236,196,244,375,221,303,287,251,346,0,,,,,
2,1787240520368,1526,387,10710,360410,56199,-29321,0,0,0,355,282,250,298,158,265,509,570,179,488,530,166,0,,,,,
1,1787240520384,-3479,9069,11887,-3237585,2147802,-1258382,0,0,0,348,268,219,237,200,245,376,223,302,290,256,347,0,,,,,
2,1787240520384,722,1249,10198,367740,14660,-34208,0,0,0,331,280,254,289,166,266,504,529,171,477,506,172,0,,,,,
1,1787240520400,-5575,9059,7671,-2855184,1722639,-1534493,0,0,0,344,262,219,238,196,247,381,220,302,290,255,346,0,,,,,
2,1787240520400,650,1172,10045,552222,131946,-79412,0,0,0,320,275,245,285,158,262,504,499,175,453,481,190,0,,,,,
1,1787240520416,-5010,9011,6350,-3203377,525344,-1623679,0,0,0,336,266,219,231,197,245,389,221,304,283,256,346,0,,,,,
2,1787240520416,765,928,9834,676838,219911,-102625,0,0,0,316,271,241,281,160,262,482,483,175,414,453,186,0,,,,,
1,1787240520432,-2560,7580,7231,-3963293,-217468,-1662775,0,0,0,332,272,221,231,202,243,390,225,304,287,261,350,0,,,,,
2,1787240520432,866,823,9681,686612,252898,-101403,0,0,0,316,259,238,284,148,267,488,436,189,404,439,186,0,,,,,
1,1787240520448,-2005,5556,8006,-4514294,-146607,-1523497,0,0,0,329,270,220,231,204,246,394,228,307,287,259,348,0,,,,,
2,1787240520448,1038,799,9705,687834,245567,-106290,0,0,0,332,268,241,303,164,281,480,411,189,417,432,194,0,,,,,
1,1787240520464,-2239,4091,8796,-5037194,-150272,-1134987,0,0,0,329,271,220,231,200,246,394,226,305,285,258,345,0,,,,,
2,1787240520464,1206,698,9748,704938,180816,-123394,0,0,0,321,256,243,304,150,295,464,383,196,410,406,198,0,,,,,
1,1787240520480,-2077,3374,10035,-5632177,-349414,-676838,0,0,0,328,266,221,231,195,247,394,220,305,285,256,345,0,,,,,
2,1787240520480,1277,440,9619,693942,65973,-147829,0,0,0,322,242,246,307,152,295,452,359,206,381,387,209,0,,,,,
1,1787240520496,-1943,2818,11854,-6296798,-552222,-428827,0,0,0,329,262,225,232,193,249,395,220,307,297,251,341,0,,,,,
2,1787240520496,1292,268,9466,653625,-46425,-177150,0,0,0,323,251,249,301,161,295,450,337,207,380,391,213,0,,,,,
1,1787240520512,-2211,1885,13917,-6933320,-778242,-384845,0,0,0,328,261,224,231,190,250,396,220,308,290,253,340,0,,,,,
2,1787240520512,1201,134,9399,597426,-146607,-205250,0,0,0,326,274,251,309,179,309,455,323,213,374,383,221,0,,,,,
1,1787240520528,-2522,598,15553,-7298617,-1000597,-513126,0,0,0,331,265,226,232,190,251,399,219,308,288,253,340,0,,,,,
2,1787240520528,1072,19,9480,540004,-206472,-216246,0,0,0,324,280,265,307,184,335,454,296,247,374,371,240,0,,,,,
1,1787240520544,-2675,-684,17032,-7332826,-1189965,-709825,0,0,0,324,268,223,234,193,250,401,219,309,292,254,336,0,,,,,
2,1787240520544,1009,-28,9657,518013,-232128,-222354,0,0,0,326,281,265,316,191,345,462,272,242,353,346,236,0,,,,,
1,1787240520560,-2919,-1426,19200,-7211875,-1379333,-922406,0,0,0,316,270,222,238,197,253,399,218,308,297,255,333,0,,,,,
2,1787240520560,1057,-23,9873,568104,-221133,-240680,0,0,0,323,290,270,327,210,363,472,247,242,342,328,248,0,,,,,
1,1787240520576,-3172,-2517,22569,-7133684,-1631010,-979827,0,0,0,318,272,226,242,199,257,398,213,308,303,254,334,0,,,,,
2,1787240520576,1134,-43,10045,652404,-194255,-276111,0,0,0,332,308,283,337,239,383,484,219,267,340,309,279,0,,,,,
1,1787240520592,-2311,-6834,26666,-7204544,-1920560,-571769,0,0,0,320,273,228,244,199,261,402,207,311,305,247,333,0,,,,,
2,1787240520592,1196,-172,10260,766025,-152716,-333532,0,0,0,354,328,293,353,280,403,482,186,281,334,268,307,0,,,,,
1,1787240520608,-531,-13314,29045,-7191105,-2025629,13439,0,0,0,325,277,226,259,200,262,407,204,310,308,242,325,0,,,,,
2,1787240520608,1220,-373,10500,915076,-90408,-399505,0,0,0,377,350,291,376,328,420,464,168,286,325,234,323,0,,,,,
1,1787240520624,2617,-22493,29107,-6809925,-1971872,564439,0,0,0,330,276,220,285,201,260,416,204,309,316,246,321,0,,,,,
2,1787240520624,1167,-559,10792,1109331,0,-455705,0,0,0,398,371,276,397,362,426,454,162,313,311,228,335,0,,,,,
1,1787240520640,6020,-31548,27059,-6028018,-1591914,849102,0,0,0,324,283,223,275,208,267,415,211,313,308,256,321,0,,,,,
2,1787240520640,985,-698,11505,1397659,146607,-485026,0,0,0,408,384,250,408,383,440,433,141,334,304,214,363,0,,,,,
1,1787240520656,7528,-39487,21263,-4571715,-674395,734260,0,0,0,324,282,227,268,205,271,420,209,317,311,248,323,0,,,,,
2,1787240520656,1162,-727,13012,1849699,316428,-489913,0,0,0,412,413,218,420,408,441,401,145,319,293,209,382,0,,,,,
1,1787240520672,5384,-44402,13529,-2605951,-85521,239459,0,0,0,325,276,227,269,202,274,416,226,317,311,262,323,0,,,,,
2,1787240520672,1627,-737,14931,2535090,400727,-526565,0,0,0,427,405,210,422,399,434,370,130,328,273,205,368,0,,,,,
1,1787240520688,3359,-46589,9093,-816115,-63529,-339641,0,0,0,310,255,197,253,196,261,435,326,301,339,354,303,0,,,,,
2,1787240520688,1660,-636,16018,3321885,334754,-597426,0,0,0,420,402,210,421,420,465,305,127,348,255,202,373,0,,,,,
1,1787240520704,2770,-43172,11332,1076344,-65973,-1011592,0,0,0,310,229,166,253,180,260,474,433,291,379,443,281,0,,,,,
2,1787240520704,2048,-559,16400,4142888,207694,-664621,0,0,0,423,424,205,391,434,455,270,139,368,245,213,371,0,,,,,
1,1787240520720,4063,-19305,15620,3208264,1723861,-1403768,0,0,0,309,240,158,251,189,259,498,494,285,399,474,257,0,,,,,
2,1787240520720,2818,-521,17128,5023755,147829,-799011,0,0,0,423,418,208,419,426,482,192,118,325,235,205,351,0,,,,,
1,1787240520736,4709,6216,16381,4210083,3450166,-1248608,0,0,0,313,242,172,261,184,271,518,518,295,453,500,254,0,,,,,
2,1787240520736,3852,-416,19372,6197838,163711,-1073901,0,0,0,390,411,198,396,445,475,174,102,317,206,176,308,0,,,,,
1,1787240520752,5503,10662,17788,4287052,3712838,-367740,0,0,0,302,265,206,265,216,270,554,554,300,522,540,243,0,,,,,
2,1787240520752,5259,-827,23895,7473325,78190,-1412320,0,0,0,326,375,193,359,379,405,173,100,276,178,140,248,0,,,,,
1,1787240520768,4005,-157,21679,3843564,2466673,507018,0,0,0,301,274,287,275,231,288,578,578,314,559,566,247,0,,,,,
2,1787240520768,6992,-2000,30758,8592430,-94073,-1734857,0,0,0,304,319,184,306,292,322,173,98,222,180,145,224,0,,,,,
1,1787240520784,1359,-6164,22364,2713463,1127657,525344,0,0,0,323,294,343,293,245,309,590,588,318,579,582,289,0,,,,,
2,1787240520784,7910,-2115,36659,8867319,426383,-1955990,0,0,0,295,247,179,252,184,247,227,122,195,185,177,182,0,,,,,
1,1787240520800,1287,-2680,17659,1554041,603534,-10995,0,0,0,349,317,379,306,260,320,602,584,325,594,594,329,0,,,,,
2,1787240520800,8533,1938,39100,8691390,1451415,-2298075,0,0,0,298,225,189,237,147,228,259,140,193,191,197,170,0,,,,,
1,1787240520816,1828,555,12825,1005484,238237,-103847,0,0,0,371,342,412,310,271,324,613,574,330,604,597,350,0,,,,,
2,1787240520816,7508,14304,30145,7551516,1773952,-2823419,0,0,0,303,225,194,233,142,225,264,141,191,195,197,171,0,,,,,
1,1787240520832,1277,875,10777,800233,-226020,-20769,0,0,0,383,365,421,313,278,330,612,561,328,601,585,369,0,,,,,
2,1787240520832,3871,22440,21071,4235739,-351858,-2305405,0,0,0,303,227,191,225,139,214,265,147,186,197,197,172,0,,,,,
1,1787240520848,258,129,10859,734260,-571769,-9773,0,0,0,383,370,412,322,284,342,602,546,335,584,567,389,0,,,,,
2,1787240520848,2828,22330,16482,-172263,-3014009,-549778,0,0,0,307,234,193,253,162,210,266,153,187,198,202,175,0,,,,,
1,1787240520864,33,459,10940,709825,-608421,-65973,0,0,0,384,374,416,326,297,349,599,522,340,562,540,391,0,,,,,
2,1787240520864,6168,14917,11399,-2995683,-4386012,1088561,0,0,0,311,237,197,254,164,209,265,151,188,200,205,178,0,,,,,
1,1787240520880,105,938,10849,763581,-594982,-80634,0,0,0,386,377,405,329,307,350,593,475,347,543,512,402,0,,,,,
2,1787240520880,8403,11643,5905,-3020117,-3351206,937067,0,0,0,306,233,198,221,141,209,263,146,188,200,207,182,0,,,,,
1,1787240520896,138,1038,10672,884532,-613308,-58643,0,0,0,395,379,394,333,315,349,590,457,353,529,479,407,0,,,,,
2,1787240520896,7135,11347,3627,-3216816,-1753183,415388,0,0,0,302,232,199,223,142,213,265,149,190,197,206,183,0,,,,,
1,1787240520912,-43,899,10519,988379,-654847,-37873,0,0,0,389,378,364,337,319,360,591,436,362,498,447,431,0,,,,,
2,1787240520912,4259,10318,4967,-4112344,-1106887,349414,0,0,0,306,235,199,229,146,218,266,152,191,202,205,185,0,,,,,
1,1787240520928,-253,842,10404,1066570,-654847,-12217,0,0,0,383,373,351,343,319,356,579,385,360,453,411,437,0,,,,,
2,1787240520928,3508,8102,5991,-4845383,-981049,449596,0,0,0,307,235,201,228,146,218,263,151,191,209,207,193,0,,,,,
1,1787240520944,-435,698,10232,1097113,-599869,29321,0,0,0,389,384,325,347,316,359,572,350,360,450,386,454,0,,,,,
2,1787240520944,4134,5953,6776,-5280319,-719599,408057,0,0,0,304,238,203,231,148,224,262,149,193,194,205,171,0,,,,,
1,1787240520960,-559,263,9892,1088561,-497244,87964,0,0,0,397,388,313,350,326,364,567,320,365,434,353,466,0,,,,,
2,1787240520960,3785,4551,8289,-5617516,-130725,230907,0,0,0,306,242,206,234,150,227,262,148,195,194,211,169,0,,,,,
1,1787240520976,-693,-114,9581,1039692,-390953,140499,0,0,0,401,390,305,361,342,367,564,291,369,423,321,471,0,,,,,
2,1787240520976,2598,3823,10509,-5947383,219911,261450,0,0,0,311,242,207,275,182,231,269,147,193,201,213,172,0,,,,,
1,1787240520992,-799,-335,9413,924849,-263893,205250,0,0,0,412,399,309,368,338,377,559,264,371,420,303,492,0,,,,,
2,1787240520992,2526,3125,12505,-6306572,307876,452040,0,0,0,308,242,208,243,153,233,266,142,205,195,207,170,0,,,,,
1,1787240521008,-737,-411,9418,777020,-119729,266337,0,0,0,426,403,305,381,347,379,562,231,369,408,300,500,0,,,,,
2,1787240521008,3120,1899,14032,-6663318,441044,565661,0,0,0,303,239,204,236,157,231,263,144,203,195,210,167,0,,,,,
1,1787240521024,-569,-516,9547,660956,-29321,310319,0,0,0,436,411,306,394,367,379,564,221,368,402,292,511,0,,,,,
2,1787240521024,3287,813,15415,-6849021,621860,626747,0,0,0,303,241,201,238,156,231,260,145,194,195,210,161,0,,,,,
1,1787240521040,-459,-583,9791,605978,1221,323758,0,0,0,451,425,313,396,379,374,561,210,365,397,274,533,0,,,,,
2,1787240521040,3354,421,17200,-6849021,784350,761138,0,0,0,306,242,204,246,159,230,265,145,195,193,208,159,0,,,,,
1,1787240521056,-727,-540,10189,627969,56199,346971,0,0,0,462,441,308,404,402,371,556,197,362,396,260,546,0,,,,,
2,1787240521056,3651,253,20425,-6924768,1042136,926071,0,0,0,299,237,200,243,157,231,264,142,193,192,206,160,0,,,,,
1,1787240521072,-1019,-612,10509,711047,161268,408057,0,0,0,469,460,297,428,423,374,548,195,359,398,252,550,0,,,,,
2,1787240521072,3340,-1191,24589,-7167892,1380555,823446,0,0,0,298,237,201,242,157,233,262,139,192,191,205,161,0,,,,,
1,1787240521088,-1076,-890,10748,851546,276111,509461,0,0,0,483,480,287,451,427,380,538,192,359,391,240,563,0,,,,,
2,1787240521088,1952,-4747,28896,-7419569,1546710,448375,0,0,0,303,238,201,249,156,235,262,132,192,195,204,162,0,,,,,
1,1787240521104,-626,-1095,11155,1048244,300545,597426,0,0,0,487,489,262,456,443,389,535,188,361,381,232,575,0,,,,,
2,1787240521104,497,-11926,31844,-7467216,1324355,102625,0,0,0,301,237,197,254,159,240,264,131,193,192,200,157,0,,,,,
1,1787240521120,105,-1191,11619,1284038,278554,614530,0,0,0,487,514,244,445,432,398,528,189,356,361,222,583,0,,,,,
2,1787240521120,-411,-21435,31892,-7133684,1174082,-114842,0,0,0,298,239,196,256,165,244,267,135,197,192,202,156,0,,,,,
1,1787240521136,679,-1225,12112,1569923,208915,542448,0,0,0,510,515,223,455,444,399,512,190,350,346,221,580,0,,,,,
2,1787240521136,-5144,-32476,29250,-5946162,1334129,-302989,0,0,0,300,242,200,255,163,245,267,134,198,200,209,163,0,,,,,
1,1787240521152,727,-1172,13189,1918116,91629,423940,0,0,0,528,499,208,459,444,395,503,175,372,357,217,583,0,,,,,
2,1787240521152,-10241,-42081,24067,-4200309,830776,-128281,0,0,0,299,243,203,259,166,247,265,132,197,199,210,163,0,,,,,
1,1787240521168,325,-1167,14390,2342057,21991,332310,0,0,0,536,497,208,461,431,388,484,180,352,358,219,583,0,,,,,
2,1787240521168,-7839,-50437,15812,-2357939,-268780,370184,0,0,0,297,240,201,267,176,247,271,142,202,197,218,161,0,,,,,
1,1787240521184,-277,-1263,15070,2893057,-19547,302989,0,0,0,537,501,212,457,437,392,449,178,351,360,214,566,0,,,,,
2,1787240521184,-3656,-54730,9662,-141720,-355523,587652,0,0,0,292,229,195,243,148,237,272,181,192,211,270,150,0,,,,,
1,1787240521200,-598,-1344,15348,3576005,-36651,335975,0,0,0,535,509,201,442,441,416,395,176,351,321,209,560,0,,,,,
2,1787240521200,-5240,-44426,13156,1943773,62308,735481,0,0,0,286,205,185,233,130,214,286,302,161,252,361,131,0,,,,,
1,1787240521216,-1048,-1450,15788,4311486,-40317,425162,0,0,0,513,493,202,437,432,409,343,182,361,297,198,535,0,,,,,
2,1787240521216,-5053,-7796,21062,3572339,80634,855211,0,0,0,271,190,152,246,145,214,304,432,164,292,461,134,0,,,,,
1,1787240521232,-1560,-1732,17252,5109276,-75747,607200,0,0,0,482,469,201,434,434,413,304,176,390,277,185,490,0,,,,,
2,1787240521232,-14,24402,15826,3887546,-1072679,94073,0,0,0,276,189,159,256,144,221,329,485,162,329,488,126,0,,,,,
1,1787240521248,-2780,-2239,20344,6039013,-80634,823446,0,0,0,451,445,201,418,420,405,282,176,391,251,175,443,0,,,,,
2,1787240521248,1416,15525,11318,4778187,-1576032,-829554,0,0,0,286,198,169,261,128,229,392,540,163,376,584,121,0,,,,,
1,1787240521264,-5240,-3330,25101,6999293,31764,1091005,0,0,0,412,416,201,387,383,371,288,182,359,236,167,405,0,,,,,
2,1787240521264,440,-5862,18856,5374392,-471587,-750142,0,0,0,302,211,200,273,138,245,429,559,159,420,594,113,0,,,,,
1,1787240521280,-8217,-4455,29241,7816631,-90408,1491732,0,0,0,361,363,196,330,321,319,322,190,326,240,177,370,0,,,,,
2,1787240521280,756,-9116,25005,4404338,304210,-367740,0,0,0,327,218,220,286,139,251,468,556,177,442,594,116,0,,,,,
1,1787240521296,-7422,-1493,33730,8334645,-1012814,2162462,0,0,0,331,298,199,272,243,274,365,198,311,260,207,349,0,,,,,
2,1787240521296,1789,-918,19942,2427578,-40317,-234572,0,0,0,323,233,254,282,141,268,461,477,215,444,591,139,0,,,,,
1,1787240521312,-4273,6355,35706,8284554,-897971,2731789,0,0,0,333,259,209,249,188,252,391,202,305,278,225,346,0,,,,,
2,1787240521312,1105,445,12471,1222952,-144164,-131946,0,0,0,328,246,261,290,143,279,516,515,199,449,594,163,0,,,,,
1,1787240521328,-4814,15955,25666,7023728,1216843,2811201,0,0,0,333,258,207,245,191,250,389,201,300,277,221,341,0,,,,,
2,1787240521328,665,-215,9657,755029,111177,-40317,0,0,0,334,261,265,293,144,277,546,543,182,439,590,177,0,,,,,
1,1787240521344,-8609,17908,17190,2994461,2276083,2021963,0,0,0,335,261,210,239,194,246,386,202,293,277,222,345,0,,,,,
2,1787240521344,1129,-737,10251,587652,296880,1221,0,0,0,334,257,270,293,149,279,549,552,182,434,576,178,0,,,,,
1,1787240521360,-8135,14295,15032,-1634675,1369559,568104,0,0,0,339,258,215,242,188,247,391,207,298,278,228,351,0,,,,,
2,1787240521360,1426,-47,10619,375071,119729,-8552,0,0,0,331,256,270,292,154,282,540,547,187,429,564,191,0,,,,,
1,1787240521376,-4714,10284,12524,-2794097,1116661,-777020,0,0,0,332,251,209,232,186,243,395,210,297,273,231,351,0,,,,,
2,1787240521376,1210,579,10457,234572,-58643,-34208,0,0,0,330,261,264,291,158,280,511,528,193,417,547,198,0,,,,,
1,1787240521392,-4580,9485,8834,-2665815,1430646,-1717753,0,0,0,339,259,216,240,190,246,389,215,300,271,231,349,0,,,,,
2,1787240521392,851,808,10155,255341,-103847,-61086,0,0,0,330,265,261,290,163,278,480,501,191,411,534,196,0,,,,,
1,1787240521408,-6049,10064,6398,-2830749,1043357,-2305405,0,0,0,337,265,217,239,194,246,389,221,299,279,247,349,0,,,,,
2,1787240521408,799,861,9973,360410,-64751,-86742,0,0,0,330,275,261,287,168,278,463,470,187,412,529,195,0,,,,,
1,1787240521424,-4919,8954,6853,-3736051,30543,-2500882,0,0,0,337,264,219,242,195,254,390,214,307,284,238,354,0,,,,,
2,1787240521424,818,981,9791,455705,-46425,-109955,0,0,0,326,284,264,285,169,281,452,441,194,399,515,197,0,,,,,
1,1787240521440,-3206,7020,7891,-4502076,-412944,-2390926,0,0,0,336,264,219,243,195,252,390,214,302,283,240,350,0,,,,,
2,1787240521440,856,1062,9681,543670,-56199,-119729,0,0,0,324,278,273,285,166,285,446,426,200,374,482,201,0,,,,,
1,1787240521456,-2316,4814,8839,-5099503,-349414,-1857030,0,0,0,329,264,216,239,198,252,386,215,299,295,249,348,0,,,,,
2,1787240521456,909,804,9691,592539,-81855,-116064,0,0,0,325,277,260,290,167,282,442,417,195,368,446,198,0,,,,,
1,1787240521472,-2187,3225,9681,-5561317,-381179,-1028697,0,0,0,331,267,216,239,202,252,390,217,299,294,249,346,0,,,,,
2,1787240521472,899,445,9595,591317,-102625,-125838,0,0,0,324,273,262,289,159,279,442,400,198,373,428,204,0,,,,,
1,1787240521488,-1842,2239,11093,-5973040,-599869,-326202,0,0,0,311,256,232,239,200,250,395,218,300,291,249,345,0,,,,,
2,1787240521488,784,172,9384,533896,-103847,-146607,0,0,0,327,278,262,297,162,293,444,379,199,385,402,207,0,,,,,
1,1787240521504,-1488,1579,13146,-6366437,-853989,-64751,0,0,0,314,257,235,239,199,251,397,220,302,289,250,345,0,,,,,
2,1787240521504,703,110,9250,477696,-89186,-158824,0,0,0,334,272,260,297,165,291,451,370,205,368,402,212,0,,,,,
1,1787240521520,-1426,727,14840,-6652322,-1043357,-86742,0,0,0,336,268,222,241,200,253,398,219,301,287,248,343,0,,,,,
2,1787240521520,717,191,9308,453262,-58643,-163711,0,0,0,327,290,263,316,193,314,457,346,214,377,393,221,0,,,,,
1,1787240521536,-1694,-291,16487,-6783047,-1254717,-361632,0,0,0,333,266,221,244,199,254,400,215,301,289,244,340,0,,,,,
2,1787240521536,851,239,9581,485026,-37873,-186924,0,0,0,317,278,278,303,182,329,461,311,243,368,367,237,0,,,,,
1,1787240521552,-2196,-847,18334,-6794043,-1464854,-746477,0,0,0,330,267,220,246,201,258,403,214,305,292,244,340,0,,,,,
2,1787240521552,976,186,9830,541226,-50090,-224798,0,0,0,322,288,286,318,192,343,452,303,237,360,359,250,0,,,,,
1,1787240521568,-3086,-1832,21473,-6846577,-1726305,-1062905,0,0,0,326,271,220,248,205,263,405,213,308,296,247,339,0,,,,,
2,1787240521568,1024,-52,10011,607200,-94073,-262672,0,0,0,337,316,290,324,215,356,461,296,244,353,345,255,0,,,,,
1,1787240521584,-3393,-4838,25259,-6933320,-2041511,-1032362,0,0,0,326,272,220,248,204,261,409,210,308,296,239,332,0,,,,,
2,1787240521584,1048,-191,10169,660956,-133168,-278554,0,0,0,356,366,293,339,273,377,457,248,262,352,319,276,0,,,,,
1,1787240521600,-1675,-11016,27944,-7016398,-2174680,-553443,0,0,0,330,274,220,249,204,261,413,206,310,297,236,331,0,,,,,
2,1787240521600,1201,-134,10457,753807,-147829,-301767,0,0,0,373,360,292,362,287,397,455,192,268,348,287,286,0,,,,,
1,1787240521616,1708,-19128,28686,-6955311,-2136806,21991,0,0,0,331,275,224,252,205,268,411,214,313,296,245,337,0,,,,,
2,1787240521616,1201,-191,10739,916297,-140499,-360410,0,0,0,395,358,293,374,332,428,448,163,299,336,260,318,0,,,,,
1,1787240521632,6776,-29193,27030,-6374989,-1782504,532674,0,0,0,333,270,221,261,202,272,423,205,313,305,243,342,0,,,,,
2,1787240521632,1148,-397,10969,1108109,-98960,-419053,0,0,0,413,406,277,379,395,442,432,154,307,326,242,333,0,,,,,
1,1787240521648,8222,-37190,22210,-4952895,-720820,585208,0,0,0,345,272,224,265,200,271,427,206,315,312,235,339,0,,,,,
2,1787240521648,1301,-536,11816,1334129,-7330,-476474,0,0,0,420,429,259,387,418,448,404,150,303,318,238,342,0,,,,,
1,1787240521664,5623,-41928,15252,-3156951,162490,299323,0,0,0,347,273,225,267,204,271,428,212,316,305,227,340,0,,,,,
2,1787240521664,1478,-550,14055,1832595,41538,-548556,0,0,0,432,412,241,400,411,447,375,143,310,308,234,359,0,,,,,
1,1787240521680,3254,-43665,9796,-1433089,70860,-244346,0,0,0,319,256,206,250,192,263,432,264,304,330,324,318,0,,,,,
2,1787240521680,1435,-636,15673,2625498,6108,-616973,0,0,0,443,413,216,401,414,425,344,137,302,291,220,354,0,,,,,
1,1787240521696,3838,-43780,9408,128281,-324980,-993266,0,0,0,310,232,185,245,176,252,460,393,287,363,412,293,0,,,,,
2,1787240521696,1277,-593,16037,3497814,-58643,-665843,0,0,0,440,416,212,402,417,424,286,131,299,264,216,356,0,,,,,
1,1787240521712,4398,-31835,14529,2272418,285884,-1690874,0,0,0,296,229,168,232,176,252,488,477,281,394,463,275,0,,,,,
2,1787240521712,1488,-330,16463,4404338,-67195,-725707,0,0,0,433,416,216,414,409,443,218,123,297,239,212,352,0,,,,,
1,1787240521728,3665,-4565,15620,4047593,1695761,-1693318,0,0,0,292,239,169,233,180,259,509,510,283,427,489,270,0,,,,,
2,1787240521728,2067,-244,17808,5415931,-25656,-841772,0,0,0,412,409,204,387,437,421,171,112,276,212,192,315,0,,,,,
1,1787240521744,3761,8485,15998,4309043,2463008,-646295,0,0,0,295,238,186,249,177,266,535,534,293,475,517,260,0,,,,,
2,1787240521744,3560,-244,20813,6571688,14660,-1065348,0,0,0,353,404,192,365,422,391,160,109,253,191,165,276,0,,,,,
1,1787240521760,3268,2933,19148,4175874,2019520,390953,0,0,0,300,244,242,265,185,282,556,551,310,509,538,261,0,,,,,
2,1787240521760,5704,-985,25029,7720114,-42760,-1368338,0,0,0,300,348,178,339,362,348,148,96,222,173,147,228,0,,,,,
1,1787240521776,579,-5556,22072,3273015,981049,572991,0,0,0,319,278,321,284,214,304,567,550,325,529,549,288,0,,,,,
2,1787240521776,8375,-2412,30959,8767137,23212,-1805717,0,0,0,287,300,178,285,261,286,169,103,192,181,155,214,0,,,,,
1,1787240521792,-952,-3924,18990,1819156,752585,119729,0,0,0,350,314,366,302,248,321,579,544,329,549,566,324,0,,,,,
2,1787240521792,7035,-1340,37090,9048135,564439,-2222327,0,0,0,297,231,188,233,160,229,244,153,187,189,208,169,0,,,,,
1,1787240521808,148,-325,13984,949284,744033,-108734,0,0,0,367,338,396,311,276,337,593,540,328,548,582,350,0,,,,,
2,1787240521808,5388,3527,37870,8648630,302989,-2415361,0,0,0,297,240,208,235,160,239,253,153,192,192,207,185,0,,,,,
1,1787240521824,1038,775,10825,603534,405614,-50090,0,0,0,375,358,424,314,290,344,595,531,338,556,586,363,0,,,,,
2,1787240521824,6834,15175,24584,7079928,-1161865,-2054950,0,0,0,292,235,187,238,160,229,254,146,189,193,201,164,0,,,,,
1,1787240521840,210,9,10906,453262,-36651,1221,0,0,0,377,359,424,318,299,344,604,534,352,565,581,382,0,,,,,
2,1787240521840,8317,24225,16712,3335324,-1777617,-847880,0,0,0,297,239,192,239,164,227,254,152,193,195,208,168,0,,,,,
1,1787240521856,-282,134,11045,354301,-248011,-17104,0,0,0,374,364,432,324,303,349,607,540,349,569,563,383,0,,,,,
2,1787240521856,6824,24680,13912,-921184,-1890017,616973,0,0,0,304,246,197,235,157,226,248,147,186,192,207,164,0,,,,,
1,1787240521872,-215,861,10930,397062,-304210,-40317,0,0,0,374,372,430,321,309,350,606,532,358,559,543,395,0,,,,,
2,1787240521872,5642,17382,10054,-2979800,-2271196,1419650,0,0,0,304,248,197,235,156,227,248,149,187,192,207,163,0,,,,,
1,1787240521888,-57,1153,10835,615752,-383623,-24434,0,0,0,383,383,398,328,309,350,594,490,339,537,519,401,0,,,,,
2,1787240521888,7126,14247,5427,-2952922,-1932777,1167974,0,0,0,308,248,198,237,157,226,251,153,191,193,209,163,0,,,,,
1,1787240521904,-86,1014,10753,830776,-498466,-12217,0,0,0,384,386,384,332,318,353,575,455,351,515,494,413,0,,,,,
2,1787240521904,6207,13792,4871,-3624874,-867428,893084,0,0,0,307,248,197,237,158,225,254,159,193,192,212,162,0,,,,,
1,1787240521920,-373,808,10595,954171,-582765,-12217,0,0,0,394,390,365,341,324,360,568,428,365,487,472,428,0,,,,,
2,1787240521920,3780,11725,7006,-4988325,-359188,852767,0,0,0,307,249,200,238,159,227,254,159,192,192,213,162,0,,,,,
1,1787240521936,-636,741,10323,987158,-543670,6108,0,0,0,399,390,347,347,327,359,561,406,371,453,438,439,0,,,,,
2,1787240521936,3043,8064,8298,-5986479,-273667,645073,0,0,0,308,249,209,239,158,236,253,151,194,194,212,169,0,,,,,
1,1787240521952,-751,545,9997,990823,-467922,42760,0,0,0,403,388,338,349,334,365,556,370,371,433,400,452,0,,,,,
2,1787240521952,2885,4881,9241,-6299242,-64751,147829,0,0,0,305,244,211,238,155,243,255,149,197,192,211,173,0,,,,,
1,1787240521968,-789,201,9748,943175,-376292,91629,0,0,0,409,394,340,356,336,368,554,341,365,425,381,464,0,,,,,
2,1787240521968,1459,3488,11342,-6310237,246789,-259006,0,0,0,305,243,201,242,155,234,256,152,195,191,211,163,0,,,,,
1,1787240521984,-909,-52,9652,855211,-271224,131946,0,0,0,418,405,339,361,346,370,546,317,370,428,365,473,0,,,,,
2,1787240521984,622,3115,13515,-6427524,348193,-257785,0,0,0,307,245,198,258,165,228,260,154,197,193,211,157,0,,,,,
1,1787240522000,-1043,-191,9609,740368,-145385,184481,0,0,0,420,414,333,360,363,369,541,293,370,421,345,477,0,,,,,
2,1787240522000,818,2479,15333,-6717074,441044,26878,0,0,0,307,245,199,277,184,229,262,152,198,195,211,158,0,,,,,
1,1787240522016,-976,-368,9595,632856,6108,244346,0,0,0,419,417,332,359,378,370,541,270,368,407,330,481,0,,,,,
2,1787240522016,1086,1191,16956,-6930877,708603,447153,0,0,0,305,240,194,241,154,232,257,150,194,192,207,157,0,,,,,
1,1787240522032,-995,-478,9590,575435,182037,272445,0,0,0,432,424,340,368,385,377,509,275,368,409,317,493,0,,,,,
2,1787240522032,1234,502,18750,-6880786,944397,933402,0,0,0,310,246,200,241,151,228,259,153,198,194,211,161,0,,,,,
1,1787240522048,-1038,-536,9566,535117,335975,318871,0,0,0,451,437,351,384,394,379,493,270,364,415,308,512,0,,,,,
2,1787240522048,1493,354,21215,-6725626,1105666,1374446,0,0,0,306,248,200,248,161,239,255,148,200,195,211,162,0,,,,,
1,1787240522064,-918,-626,9624,507018,378736,395840,0,0,0,471,451,363,395,400,383,541,212,370,413,309,530,0,,,,,
2,1787240522064,1091,-751,24876,-6767165,1222952,1474628,0,0,0,309,249,198,247,159,236,262,145,192,202,216,158,0,,,,,
1,1787240522080,-574,-665,10150,537561,312763,475253,0,0,0,486,466,371,395,400,380,530,202,365,408,291,540,0,,,,,
2,1787240522080,57,-3287,28614,-6976081,1164309,1248608,0,0,0,308,252,198,247,163,235,264,148,197,195,211,158,0,,,,,
1,1787240522096,-339,-641,10835,675616,276111,497244,0,0,0,487,475,358,402,407,392,524,194,362,386,274,550,0,,,,,
2,1787240522096,-689,-9045,31284,-7233866,890641,879645,0,0,0,312,256,201,248,159,236,263,147,194,198,211,156,0,,,,,
1,1787240522112,-114,-670,11543,916297,235793,491135,0,0,0,517,489,324,444,432,386,545,202,366,384,280,563,0,,,,,
2,1787240522112,-425,-17678,31648,-7155675,618195,591317,0,0,0,308,257,197,253,162,242,265,145,197,197,213,155,0,,,,,
1,1787240522128,268,-780,12117,1263269,144164,436157,0,0,0,530,489,276,416,446,391,516,197,360,384,247,578,0,,,,,
2,1787240522128,550,-29528,28686,-6340781,452040,234572,0,0,0,311,256,198,255,159,239,267,136,195,201,222,156,0,,,,,
1,1787240522144,382,-832,12754,1662775,-25656,359188,0,0,0,535,496,251,417,453,403,492,187,376,357,222,587,0,,,,,
2,1787240522144,-1526,-40258,22268,-4554611,623082,-46425,0,0,0,311,255,199,254,155,238,271,135,195,204,224,154,0,,,,,
1,1787240522160,0,-823,13711,2059837,-140499,300545,0,0,0,534,507,236,421,450,396,473,187,376,346,215,585,0,,,,,
2,1787240522160,-4513,-48016,16089,-2632829,630412,168598,0,0,0,311,256,197,255,154,238,271,134,192,206,228,151,0,,,,,
1,1787240522176,-277,-923,14792,2531425,-182037,276111,0,0,0,546,510,210,440,452,390,448,175,355,344,211,580,0,,,,,
2,1787240522176,-4718,-53495,11328,-620639,287106,670730,0,0,0,307,250,193,258,156,237,273,151,187,210,235,150,0,,,,,
1,1787240522192,-550,-1076,15563,3160616,-161268,285884,0,0,0,546,502,217,430,454,397,413,168,358,338,208,564,0,,,,,
2,1787240522192,-1832,-49179,11610,1414763,120951,692721,0,0,0,296,219,187,250,141,231,289,252,183,232,305,141,0,,,,,
1,1787240522208,-1201,-1186,16013,3863111,-142942,344527,0,0,0,535,491,218,414,446,396,359,174,357,319,210,542,0,,,,,
2,1787240522208,57,-31002,18358,3167947,207694,375071,0,0,0,282,187,169,243,123,218,325,389,175,281,413,124,0,,,,,
1,1787240522224,-1952,-1220,16654,4693888,-116064,520457,0,0,0,513,477,213,440,450,386,308,180,362,293,201,510,0,,,,,
2,1787240522224,507,8322,22842,4208861,-585208,106290,0,0,0,277,181,155,246,122,214,361,475,170,319,478,119,0,,,,,
1,1787240522240,-2249,-1397,18281,5483126,-85521,736703,0,0,0,479,464,211,434,444,392,286,178,366,274,187,468,0,,,,,
2,1787240522240,885,28504,16970,3920533,-2081828,0,0,0,0,285,192,175,252,122,231,391,519,171,351,509,128,0,,,,,
1,1787240522256,-3766,-1962,22000,6434854,108734,961501,0,0,0,440,441,211,395,421,384,285,180,360,255,176,427,0,,,,,
2,1787240522256,-387,10471,15013,4343251,-2283414,-194255,0,0,0,298,205,201,266,126,251,438,547,175,412,541,131,0,,,,,
1,1787240522272,-6810,-2689,26326,7356039,318871,1259604,0,0,0,398,407,200,357,385,347,292,188,345,240,174,397,0,,,,,
2,1787240522272,-1359,-11270,20148,4462981,-1298699,-172263,0,0,0,308,215,214,279,133,258,462,542,179,423,567,130,0,,,,,
1,1787240522288,-8858,-2560,29940,8107403,201585,1755626,0,0,0,345,357,185,303,315,299,322,196,323,252,199,366,0,,,,,
2,1787240522288,-1129,-6025,19420,3014009,-524122,0,0,0,0,318,232,233,281,139,257,479,549,183,449,579,126,0,,,,,
1,1787240522304,-7829,234,34189,8636412,-324980,2379930,0,0,0,304,277,202,244,215,252,367,210,300,275,251,333,0,,,,,
2,1787240522304,-1115,2866,13237,1814269,-208915,-43982,0,0,0,323,242,247,286,148,257,527,552,179,482,561,149,0,,,,,
1,1787240522320,-6408,8959,31457,8279667,234572,2790432,0,0,0,313,270,213,243,198,255,378,208,297,279,251,344,0,,,,,
2,1787240522320,-617,1588,10533,1303586,42760,-193033,0,0,0,327,248,253,288,148,272,519,547,188,486,563,151,0,,,,,
1,1787240522336,-7954,19684,19061,5962044,1977981,2709798,0,0,0,320,271,213,242,199,252,380,202,294,289,243,339,0,,,,,
2,1787240522336,440,-995,10964,886976,229685,-179594,0,0,0,326,250,265,291,150,278,547,547,188,480,559,179,0,,,,,
1,1787240522352,-10136,19631,15439,1098335,1628566,1583362,0,0,0,330,272,217,238,199,246,377,210,291,316,240,330,0,,,,,
2,1787240522352,1000,-1038,11332,509461,226020,-47647,0,0,0,329,240,266,294,139,279,537,538,184,478,550,191,0,,,,,
1,1787240522368,-7647,14280,14453,-2465452,530231,229685,0,0,0,338,272,217,236,205,241,376,221,286,286,266,339,0,,,,,
2,1787240522368,540,516,10528,342084,125838,-1221,0,0,0,320,240,259,292,138,275,535,529,187,458,553,192,0,,,,,
1,1787240522384,-4867,9791,11241,-2906496,526565,-747699,0,0,0,334,274,212,235,208,239,376,226,284,287,276,339,0,,,,,
2,1787240522384,153,1282,10198,377514,124616,-21991,0,0,0,321,240,253,301,142,275,543,510,187,424,534,192,0,,,,,
1,1787240522400,-5374,9547,7834,-2604729,571769,-1353677,0,0,0,329,278,217,233,209,243,377,227,285,286,277,343,0,,,,,
2,1787240522400,162,1229,10270,592539,211359,-78190,0,0,0,322,237,254,300,141,282,526,485,191,407,503,192,0,,,,,
1,1787240522416,-4848,9437,7068,-3232698,-120951,-1843591,0,0,0,324,277,219,261,220,239,377,228,288,285,277,341,0,,,,,
2,1787240522416,258,1028,10174,766025,268780,-114842,0,0,0,323,243,255,295,153,291,505,474,200,394,464,198,0,,,,,
1,1787240522432,-2857,7705,8131,-4222300,-687834,-2141693,0,0,0,320,279,220,244,216,245,378,228,290,282,274,338,0,,,,,
2,1787240522432,339,861,9944,867428,294437,-136833,0,0,0,322,237,250,306,153,302,482,434,197,371,407,204,0,,,,,
1,1787240522448,-1890,5254,8930,-4791626,-613308,-2035402,0,0,0,319,282,220,235,214,248,378,228,289,281,275,338,0,,,,,
2,1787240522448,483,746,9887,895528,277332,-141720,0,0,0,322,234,249,305,148,308,467,388,201,351,369,210,0,,,,,
1,1787240522464,-1694,3311,9643,-5229006,-542448,-1583362,0,0,0,317,283,222,235,216,249,379,231,290,280,279,337,0,,,,,
2,1787240522464,636,483,9806,906524,221133,-151494,0,0,0,326,243,254,300,155,311,467,356,219,340,354,217,0,,,,,
1,1787240522480,-1488,2364,11031,-5701816,-734260,-904080,0,0,0,315,284,223,235,214,249,381,235,292,279,283,335,0,,,,,
2,1787240522480,684,181,9624,869872,144164,-171042,0,0,0,328,251,255,307,164,316,472,328,224,359,339,219,0,,,,,
1,1787240522496,-985,1794,12696,-6173404,-993266,-445931,0,0,0,316,284,222,236,212,250,382,236,292,280,285,335,0,,,,,
2,1787240522496,684,14,9451,777020,69638,-191811,0,0,0,317,256,253,307,174,324,472,312,222,370,323,220,0,,,,,
1,1787240522512,-263,928,14510,-6598566,-1207069,-267558,0,0,0,320,282,224,239,212,253,384,234,293,283,284,335,0,,,,,
2,1787240522512,703,-52,9380,674395,0,-208915,0,0,0,305,271,250,315,185,344,479,300,242,312,315,225,0,,,,,
1,1787240522528,62,-52,15797,-6712187,-1230282,-445931,0,0,0,320,281,225,240,209,254,365,230,290,284,282,332,0,,,,,
2,1787240522528,765,-67,9480,597426,-75747,-230907,0,0,0,313,328,254,325,193,356,470,285,256,319,314,233,0,,,,,
1,1787240522544,-406,-689,17142,-6665761,-1164309,-872315,0,0,0,315,281,224,241,209,255,336,226,289,286,279,330,0,,,,,
2,1787240522544,875,-157,9638,558330,-152716,-265115,0,0,0,317,342,258,331,206,358,467,276,269,317,306,246,0,,,,,
1,1787240522560,-1555,-1119,19014,-6688974,-1205847,-1280373,0,0,0,312,279,223,242,210,257,393,226,300,287,272,325,0,,,,,
2,1787240522560,1000,-291,9739,540004,-222354,-318871,0,0,0,318,318,280,339,236,391,457,215,286,324,288,271,0,,,,,
1,1787240522576,-2737,-1938,21363,-6776938,-1436755,-1343903,0,0,0,313,279,222,243,213,259,399,225,305,286,269,323,0,,,,,
2,1787240522576,1172,-445,9796,547335,-260228,-411723,0,0,0,354,333,298,355,246,414,465,196,286,312,278,286,0,,,,,
1,1787240522592,-2723,-4340,24517,-6863681,-1723861,-847880,0,0,0,313,282,219,243,213,259,399,224,305,286,268,322,0,,,,,
2,1787240522592,1210,-497,9964,602313,-246789,-531452,0,0,0,334,353,296,359,332,424,462,173,297,310,256,320,0,,,,,
1,1787240522608,-1450,-9370,27102,-6885672,-1747074,-193033,0,0,0,313,285,220,244,213,260,399,223,304,281,261,314,0,,,,,
2,1787240522608,942,-459,10457,767246,-182037,-648738,0,0,0,357,373,303,363,335,427,451,169,293,310,239,323,0,,,,,
1,1787240522624,703,-17903,26733,-6572909,-1601688,54977,0,0,0,312,287,220,251,217,262,404,225,305,292,270,319,0,,,,,
2,1787240522624,622,-555,11079,1011592,-102625,-696386,0,0,0,375,412,269,385,392,427,449,154,315,286,220,324,0,,,,,
1,1787240522640,3326,-27274,24699,-5809328,-1456302,146607,0,0,0,334,279,215,269,208,266,410,216,303,303,263,314,0,,,,,
2,1787240522640,172,-636,11974,1384220,-4886,-686612,0,0,0,396,435,239,402,416,432,431,152,318,290,226,346,0,,,,,
1,1787240522656,5561,-34591,20866,-4570493,-1127657,239459,0,0,0,342,279,214,282,206,265,417,215,304,326,260,310,0,,,,,
2,1787240522656,-167,-588,13122,1810604,73303,-621860,0,0,0,406,436,226,412,426,470,395,144,311,269,212,377,0,,,,,
1,1787240522672,6915,-40301,15448,-2911383,-775798,212581,0,0,0,328,264,194,273,205,261,419,261,299,325,318,307,0,,,,,
2,1787240522672,33,-612,14606,2430021,89186,-513126,0,0,0,440,441,209,464,403,467,356,134,314,278,197,362,0,,,,,
1,1787240522688,7456,-45197,12486,-1262047,-289550,-63529,0,0,0,308,249,174,259,198,261,451,373,296,341,398,293,0,,,,,
2,1787240522688,674,-717,15721,3145955,-2443,-448375,0,0,0,453,433,214,476,395,467,320,132,323,274,198,365,0,,,,,
1,1787240522704,7164,-47685,13606,896750,1332907,-632856,0,0,0,294,244,163,249,194,264,489,470,288,374,458,270,0,,,,,
2,1787240522704,1689,-832,16329,3908315,-152716,-496022,0,0,0,454,422,223,432,401,465,262,125,316,253,203,380,0,,,,,
1,1787240522720,6436,-28949,15180,3253468,3694512,-960280,0,0,0,297,243,164,252,194,270,516,514,286,433,496,261,0,,,,,
2,1787240522720,2713,-784,17501,4822170,-243124,-711047,0,0,0,442,424,216,391,408,443,206,111,308,233,188,356,0,,,,,
1,1787240522736,5283,-148,18387,4142888,4218635,-829554,0,0,0,302,242,175,267,194,278,537,537,294,488,523,259,0,,,,,
2,1787240522736,3713,-693,19707,5907066,-257785,-1031140,0,0,0,397,412,209,381,403,401,179,101,288,206,161,302,0,,,,,
1,1787240522752,4474,11103,20866,4078136,2902831,-162490,0,0,0,295,250,206,282,199,285,556,553,302,515,541,247,0,,,,,
2,1787240522752,4862,-693,23393,7106806,-287106,-1407433,0,0,0,338,372,210,353,363,360,166,100,244,179,145,255,0,,,,,
1,1787240522768,3761,497,21043,3826459,1197295,291993,0,0,0,292,274,272,291,220,293,575,563,312,539,555,244,0,,,,,
2,1787240522768,6853,-1689,29820,8335867,-306654,-1837482,0,0,0,295,318,194,295,285,313,181,108,208,173,154,207,0,,,,,
1,1787240522784,2512,-5082,19282,2916270,207694,182037,0,0,0,326,301,327,306,247,305,590,564,331,550,565,274,0,,,,,
2,1787240522784,7906,-1919,35539,8885645,328645,-2223549,0,0,0,280,258,181,255,198,245,226,125,187,181,178,168,0,,,,,
1,1787240522800,1488,-2392,15573,1800830,-96516,-59864,0,0,0,350,319,366,316,273,317,612,557,343,559,579,314,0,,,,,
2,1787240522800,7753,4546,36975,8567995,1185078,-2653598,0,0,0,295,245,205,246,169,241,253,141,200,192,189,177,0,,,,,
1,1787240522816,847,296,12261,1199739,-321315,-97738,0,0,0,368,357,397,329,292,343,609,545,330,566,559,351,0,,,,,
2,1787240522816,6623,16180,28968,6847799,680503,-2818532,0,0,0,298,244,198,261,180,237,262,142,198,194,196,171,0,,,,,
1,1787240522832,86,459,10873,944397,-561996,-87964,0,0,0,376,369,419,325,294,339,617,538,340,546,549,371,0,,,,,
2,1787240522832,5345,23383,19937,3100751,-1469741,-1853365,0,0,0,303,244,190,245,166,221,258,145,186,198,198,159,0,,,,,
1,1787240522848,-315,4,10811,872315,-632856,-86742,0,0,0,386,378,403,341,301,337,621,520,362,545,532,376,0,,,,,
2,1787240522848,5742,19846,15199,-476474,-2916270,208915,0,0,0,300,245,193,241,166,224,256,145,186,198,208,159,0,,,,,
1,1787240522864,-181,454,10839,856433,-566882,-80634,0,0,0,370,384,392,340,312,352,617,492,356,526,512,398,0,,,,,
2,1787240522864,7341,15094,9992,-2059837,-3044552,1587027,0,0,0,304,246,198,241,165,222,258,158,188,197,208,159,0,,,,,
1,1787240522880,-105,727,10720,886976,-536339,-63529,0,0,0,362,382,385,348,319,361,611,470,361,502,482,412,0,,,,,
2,1787240522880,8040,13007,5628,-2377487,-1914451,1857030,0,0,0,307,250,199,244,165,223,259,155,184,200,212,159,0,,,,,
1,1787240522896,-229,559,10519,927293,-546113,-41538,0,0,0,367,383,366,349,322,362,598,444,363,477,450,430,0,,,,,
2,1787240522896,5183,12572,5206,-3109304,-742812,1492954,0,0,0,308,251,197,249,172,228,259,159,186,198,214,152,0,,,,,
1,1787240522912,-373,397,10452,956614,-546113,-24434,0,0,0,376,387,357,362,331,368,586,421,368,464,419,443,0,,,,,
2,1787240522912,3072,10653,5934,-4054923,-397062,1158200,0,0,0,309,255,199,245,169,227,262,162,189,193,213,149,0,,,,,
1,1787240522928,-564,378,10404,978606,-499687,-13439,0,0,0,381,389,337,371,333,383,579,398,372,443,392,448,0,,,,,
2,1787240522928,2651,8111,6901,-4901582,-246789,647517,0,0,0,307,254,197,249,169,227,263,153,190,207,218,157,0,,,,,
1,1787240522944,-756,296,10203,982271,-388510,10995,0,0,0,383,389,308,370,334,391,578,355,378,418,365,457,0,,,,,
2,1787240522944,1770,6116,8375,-5611408,53756,94073,0,0,0,307,253,197,249,168,227,261,151,188,203,213,156,0,,,,,
1,1787240522960,-842,-43,9825,932180,-241902,61086,0,0,0,389,400,293,373,356,390,565,307,380,405,339,472,0,,,,,
2,1787240522960,220,4718,10050,-6061004,274889,-166155,0,0,0,305,249,195,244,166,222,262,150,187,199,213,150,0,,,,,
1,1787240522976,-856,-358,9538,834441,-120951,120951,0,0,0,393,409,297,376,369,388,553,273,372,403,318,483,0,,,,,
2,1787240522976,-114,3890,11399,-6155078,317649,74525,0,0,0,305,248,195,245,162,222,263,145,186,199,215,148,0,,,,,
1,1787240522992,-804,-492,9552,713490,-26878,179594,0,0,0,396,406,297,374,356,386,560,245,369,397,299,484,0,,,,,
2,1787240522992,397,3144,12864,-6191730,442266,416610,0,0,0,305,248,197,248,161,226,261,140,186,201,216,149,0,,,,,
1,1787240523008,-794,-497,9700,621860,84299,228463,0,0,0,413,426,288,384,364,390,554,238,372,384,288,492,0,,,,,
2,1787240523008,880,2249,14668,-6298020,634078,724486,0,0,0,304,247,199,247,162,229,260,139,189,202,220,154,0,,,,,
1,1787240523024,-861,-512,9825,570548,185703,285884,0,0,0,421,432,296,383,372,395,551,220,371,378,281,508,0,,,,,
2,1787240523024,1153,1641,16420,-6462954,709825,948062,0,0,0,302,247,202,247,164,234,260,139,194,202,221,157,0,,,,,
1,1787240523040,-732,-612,10007,564439,272445,343306,0,0,0,437,425,295,384,384,391,550,218,370,377,272,525,0,,,,,
2,1787240523040,1746,1095,18310,-6602231,799011,1123992,0,0,0,300,247,203,247,165,238,259,138,197,203,219,156,0,,,,,
1,1787240523056,-655,-732,10131,603534,351858,375071,0,0,0,452,439,287,412,409,387,543,202,362,366,258,531,0,,,,,
2,1787240523056,1947,-373,21004,-6684087,1023810,1029918,0,0,0,298,247,200,243,164,238,252,138,199,201,218,156,0,,,,,
1,1787240523072,-693,-780,10212,674395,394618,419053,0,0,0,462,449,284,434,409,390,536,190,354,376,240,549,0,,,,,
2,1787240523072,1186,-2842,24211,-6775717,1202182,698829,0,0,0,297,247,197,245,170,236,243,144,192,198,220,153,0,,,,,
1,1787240523088,-277,-842,10629,836885,365297,470366,0,0,0,479,464,283,425,422,396,531,182,357,354,225,567,0,,,,,
2,1787240523088,-14,-6719,27475,-6954089,1192408,348193,0,0,0,301,249,199,249,169,239,259,143,192,200,219,153,0,,,,,
1,1787240523104,258,-976,11256,1047023,299323,464257,0,0,0,489,460,247,441,448,404,524,180,360,346,210,563,0,,,,,
2,1787240523104,47,-13797,29380,-7000515,1031140,205250,0,0,0,304,251,198,249,168,236,259,133,194,199,218,152,0,,,,,
1,1787240523120,804,-1158,11931,1334129,189368,394618,0,0,0,485,469,232,445,442,408,505,184,361,332,199,575,0,,,,,
2,1787240523120,938,-23704,28968,-6532592,1037249,92851,0,0,0,297,246,198,245,167,239,266,128,197,195,211,151,0,,,,,
1,1787240523136,1043,-1249,12385,1634675,41538,284663,0,0,0,515,473,222,448,438,404,510,180,363,345,200,575,0,,,,,
2,1787240523136,-603,-33941,25900,-5319414,1404990,-24434,0,0,0,302,250,200,255,167,244,262,128,197,204,219,158,0,,,,,
1,1787240523152,751,-1206,13457,1992642,-84299,173485,0,0,0,522,482,219,430,435,397,477,177,364,344,206,579,0,,,,,
2,1787240523152,-5982,-42062,20780,-3433062,1390329,256563,0,0,0,297,250,200,256,166,244,272,131,202,202,217,157,0,,,,,
1,1787240523168,-23,-1191,14874,2503325,-125838,102625,0,0,0,533,487,209,441,435,396,441,176,356,341,204,575,0,,,,,
2,1787240523168,-6915,-47992,15060,-1674992,663399,745255,0,0,0,302,250,201,252,166,240,270,146,199,199,220,157,0,,,,,
1,1787240523184,-784,-1340,15434,3076317,-96516,135612,0,0,0,537,483,204,443,431,402,396,178,353,324,200,561,0,,,,,
2,1787240523184,-3115,-50911,10768,70860,32986,802676,0,0,0,289,217,187,239,142,220,276,253,186,231,317,133,0,,,,,
1,1787240523200,-1167,-1383,15941,3828903,-42760,259006,0,0,0,520,473,205,436,428,407,335,175,358,307,198,543,0,,,,,
2,1787240523200,-3177,-36621,15707,2078163,-109955,361632,0,0,0,274,194,158,245,141,213,302,384,170,254,408,135,0,,,,,
1,1787240523216,-1703,-1454,17056,4668232,41538,434936,0,0,0,494,462,205,438,429,419,294,167,368,289,188,510,0,,,,,
2,1787240523216,-2785,-2474,17817,3907094,-1060462,196698,0,0,0,272,195,162,251,147,226,332,478,169,277,475,136,0,,,,,
1,1787240523232,-2775,-1718,19468,5551543,145385,673173,0,0,0,464,450,208,425,424,424,282,173,375,257,177,462,0,,,,,
2,1787240523232,-1292,12912,15333,4797735,-1958433,-96516,0,0,0,286,206,181,266,144,244,384,523,173,338,528,132,0,,,,,
1,1787240523248,-4479,-2124,24374,6602231,414166,978606,0,0,0,425,423,205,406,409,387,279,183,369,247,176,421,0,,,,,
2,1787240523248,-1445,3498,18334,5473352,-1583362,-537561,0,0,0,296,210,198,279,143,260,432,554,176,397,564,132,0,,,,,
1,1787240523264,-6853,-2689,30231,7676132,684169,1356120,0,0,0,383,385,196,356,346,338,303,185,336,240,174,395,0,,,,,
2,1787240523264,-904,-8073,24067,4961447,-450818,-681725,0,0,0,305,214,216,285,154,272,475,579,183,413,586,135,0,,,,,
1,1787240523280,-7542,-1876,35438,8384736,240680,1828930,0,0,0,338,308,214,283,244,289,363,180,319,275,195,347,0,,,,,
2,1787240523280,966,-5125,21756,3111747,-182037,-421497,0,0,0,316,228,237,289,154,280,522,586,188,414,595,149,0,,,,,
1,1787240523296,-7351,2723,38439,8575326,-138055,2254092,0,0,0,317,257,220,247,187,264,386,188,310,281,228,349,0,,,,,
2,1787240523296,794,-890,15218,1639562,-239459,-116064,0,0,0,321,239,258,291,143,294,542,582,190,433,588,168,0,,,,,
1,1787240523312,-7379,13912,28049,7437895,717155,2448347,0,0,0,333,260,220,243,187,254,377,189,305,286,230,348,0,,,,,
2,1787240523312,-181,248,10418,921184,-25656,14660,0,0,0,326,239,265,297,149,303,542,582,192,444,581,179,0,,,,,
1,1787240523328,-8202,17683,18454,3681073,1843591,1571145,0,0,0,336,264,220,239,192,249,376,195,297,282,235,349,0,,,,,
2,1787240523328,378,-378,10083,651182,255341,6108,0,0,0,328,242,263,295,145,287,560,592,201,448,575,186,0,,,,,
1,1787240523344,-7317,14984,15515,-483805,2073276,-112399,0,0,0,335,269,216,235,201,245,376,207,295,282,245,349,0,,,,,
2,1787240523344,1009,-402,10571,423940,246789,-4886,0,0,0,328,244,259,295,145,279,549,583,204,447,562,201,0,,,,,
1,1787240523360,-5680,9892,13586,-2515543,2117258,-1764178,0,0,0,338,270,226,234,203,247,373,211,295,309,239,341,0,,,,,
2,1787240523360,832,215,10595,257785,78190,-12217,0,0,0,326,249,263,297,146,284,523,573,188,425,546,197,0,,,,,
1,1787240523376,-6432,9227,8729,-2371378,1908343,-2291966,0,0,0,338,269,223,237,204,249,374,212,295,298,245,345,0,,,,,
2,1787240523376,469,564,10323,268780,78190,-26878,0,0,0,329,252,263,297,156,286,511,568,193,421,554,205,0,,,,,
1,1787240523392,-6164,9571,5613,-2495995,1088561,-2377487,0,0,0,335,267,219,239,204,249,377,215,295,285,252,347,0,,,,,
2,1787240523392,454,670,10126,356745,135612,-52534,0,0,0,322,255,251,297,155,289,495,548,198,400,506,199,0,,,,,
1,1787240523408,-4441,8848,4900,-3062878,272445,-2324953,0,0,0,334,270,220,241,206,252,377,218,297,284,255,344,0,,,,,
2,1787240523408,593,818,9954,470366,147829,-84299,0,0,0,322,248,250,298,148,287,481,484,193,409,490,197,0,,,,,
1,1787240523424,-3670,7217,5608,-3710395,35430,-2114815,0,0,0,332,272,222,242,209,255,376,219,299,283,256,344,0,,,,,
2,1787240523424,646,933,9873,576656,129503,-103847,0,0,0,317,251,247,294,149,284,485,458,211,386,468,214,0,,,,,
1,1787240523440,-3330,6068,6652,-4420220,-162490,-1689653,0,0,0,331,272,223,241,207,255,377,221,301,284,258,344,0,,,,,
2,1787240523440,693,871,9863,676838,100181,-102625,0,0,0,320,253,254,297,151,287,471,419,199,371,444,206,0,,,,,
1,1787240523456,-2684,4867,7791,-5241223,-357967,-1087340,0,0,0,332,272,224,242,205,256,379,221,301,286,259,345,0,,,,,
2,1787240523456,717,550,9739,708603,53756,-98960,0,0,0,310,238,243,304,161,291,458,392,193,356,408,208,0,,,,,
1,1787240523472,-2426,3464,8767,-5872858,-487470,-449596,0,0,0,331,272,224,242,205,258,382,222,302,286,260,341,0,,,,,
2,1787240523472,684,186,9533,670730,10995,-107512,0,0,0,314,244,248,302,156,293,450,375,201,346,389,207,0,,,,,
1,1787240523488,-2407,2550,10088,-6262590,-748920,20769,0,0,0,329,271,227,241,203,256,383,220,301,287,257,339,0,,,,,
2,1787240523488,631,-23,9356,585208,-18325,-125838,0,0,0,320,253,253,310,156,303,449,359,212,347,375,217,0,,,,,
1,1787240523504,-1923,1952,11964,-6525262,-1098335,123394,0,0,0,324,275,227,240,205,260,384,225,300,285,264,342,0,,,,,
2,1787240523504,646,-28,9327,499687,-54977,-134390,0,0,0,324,256,256,321,166,321,457,331,212,360,365,225,0,,,,,
1,1787240523520,-1564,1239,13577,-6696304,-1382998,32986,0,0,0,322,277,226,242,212,261,385,227,300,286,266,342,0,,,,,
2,1787240523520,713,-52,9394,437379,-109955,-136833,0,0,0,322,260,260,328,176,349,460,302,227,359,356,243,0,,,,,
1,1787240523536,-1359,569,15415,-6798930,-1745852,-175929,0,0,0,325,283,226,239,212,261,389,225,303,286,260,338,0,,,,,
2,1787240523536,813,-143,9514,414166,-171042,-152716,0,0,0,328,269,261,342,190,378,466,284,245,360,347,261,0,,,,,
1,1787240523552,-871,-86,17975,-6862460,-2076941,-340862,0,0,0,322,284,225,239,212,261,394,224,306,284,257,329,0,,,,,
2,1787240523552,894,-181,9672,425162,-223576,-193033,0,0,0,332,286,263,351,210,392,471,270,254,361,335,278,0,,,,,
1,1787240523568,9,-1722,21225,-6897890,-2224771,-307876,0,0,0,319,286,222,244,215,261,395,222,304,284,256,323,0,,,,,
2,1787240523568,894,-181,9849,485026,-250454,-255341,0,0,0,338,320,268,349,237,397,471,246,273,353,313,306,0,,,,,
1,1787240523584,1426,-5106,24924,-6912551,-2068389,32986,0,0,0,317,285,220,248,213,265,395,217,306,285,255,323,0,,,,,
2,1787240523584,804,-234,10040,570548,-239459,-307876,0,0,0,375,364,276,371,278,412,479,201,286,360,287,323,0,,,,,
1,1787240523600,2971,-11088,28035,-6885672,-1706757,511905,0,0,0,317,283,222,251,207,268,398,210,309,319,239,317,0,,,,,
2,1787240523600,818,-272,10361,709825,-196698,-349414,0,0,0,401,390,282,389,309,423,462,176,277,328,268,333,0,,,,,
1,1787240523616,5317,-20550,28686,-6541144,-1462411,686612,0,0,0,320,288,230,257,207,273,400,209,311,308,243,321,0,,,,,
2,1787240523616,875,-330,10787,907745,-147829,-395840,0,0,0,401,366,282,392,332,458,458,162,301,318,234,355,0,,,,,
1,1787240523632,7882,-31371,26963,-5645616,-1025031,544891,0,0,0,319,292,227,264,214,274,401,210,309,295,252,323,0,,,,,
2,1787240523632,861,-478,11615,1181413,-80634,-444709,0,0,0,405,379,273,411,369,487,428,151,346,315,226,394,0,,,,,
1,1787240523648,8566,-39688,22431,-4229630,-381179,320093,0,0,0,318,294,222,267,219,273,401,216,308,295,258,323,0,,,,,
2,1787240523648,827,-555,13275,1656666,-18325,-493579,0,0,0,418,404,246,409,399,470,395,150,322,295,223,405,0,,,,,
1,1787240523664,8887,-42699,16190,-2548529,39095,-26878,0,0,0,314,282,204,257,214,267,415,278,299,334,314,311,0,,,,,
2,1787240523664,1129,-626,14979,2334726,-32986,-533896,0,0,0,432,430,220,407,429,453,362,149,298,276,220,416,0,,,,,
1,1787240523680,7676,-43220,12012,-707381,401949,-976162,0,0,0,307,256,176,252,205,257,453,398,285,396,417,286,0,,,,,
2,1787240523680,1105,-703,16022,3196046,-106290,-599869,0,0,0,438,430,221,419,441,457,314,139,314,289,219,445,0,,,,,
1,1787240523696,3359,-40157,14185,1486845,1018923,-1635897,0,0,0,306,245,171,263,202,261,493,478,281,406,472,269,0,,,,,
2,1787240523696,918,-536,16530,4017049,-152716,-645073,0,0,0,456,420,235,398,413,462,254,131,309,260,214,430,0,,,,,
1,1787240523712,574,-19128,16214,3822794,2273640,-1395216,0,0,0,305,241,165,257,191,263,513,513,275,430,495,252,0,,,,,
2,1787240523712,1373,-478,17291,4874704,-112399,-703716,0,0,0,432,419,218,415,406,457,208,117,299,255,206,384,0,,,,,
1,1787240523728,1239,6274,19143,4299269,3145955,-433714,0,0,0,315,248,191,276,189,271,530,530,287,485,517,243,0,,,,,
2,1787240523728,2651,-741,19301,5927836,-8552,-852767,0,0,0,385,403,219,388,404,436,180,103,287,222,175,351,0,,,,,
1,1787240523744,2871,5762,21244,3826459,2467895,244346,0,0,0,311,271,249,285,207,279,553,553,300,513,529,237,0,,,,,
2,1787240523744,4647,-1081,23292,7060380,42760,-1133765,0,0,0,333,371,191,354,371,383,165,93,258,197,155,303,0,,,,,
1,1787240523760,2613,-2684,20684,3103195,1304808,290771,0,0,0,314,295,322,288,232,294,570,570,310,531,548,256,0,,,,,
2,1787240523760,5675,-1555,30586,7910704,-201585,-1491732,0,0,0,310,310,179,313,277,317,183,93,215,186,155,231,0,,,,,
1,1787240523776,1770,-4599,17415,2072054,543670,48869,0,0,0,327,325,353,293,264,315,583,575,325,555,564,307,0,,,,,
2,1787240523776,5604,-488,37070,8297993,-508239,-1751961,0,0,0,301,252,182,257,179,249,230,120,189,184,179,172,0,,,,,
1,1787240523792,1450,-799,13711,1241278,206472,-15882,0,0,0,355,349,388,307,280,330,585,558,328,540,562,331,0,,,,,
2,1787240523792,6293,5345,37530,8403062,-340862,-1912008,0,0,0,291,230,180,231,146,221,264,147,188,181,191,149,0,,,,,
1,1787240523808,837,1072,11438,810007,-147829,9773,0,0,0,366,356,397,318,285,331,588,551,329,548,564,369,0,,,,,
2,1787240523808,8059,16453,27690,7500203,296880,-2200336,0,0,0,293,231,180,236,152,224,266,147,187,183,192,145,0,,,,,
1,1787240523824,43,263,10897,629191,-433714,2443,0,0,0,368,361,394,328,292,335,593,549,336,546,552,376,0,,,,,
2,1787240523824,5154,23819,22450,4218635,-169820,-1849699,0,0,0,301,234,184,239,155,222,261,144,183,190,200,149,0,,,,,
1,1787240523840,-287,124,10868,496022,-499687,-45204,0,0,0,376,370,396,339,295,338,596,534,344,546,535,385,0,,,,,
2,1787240523840,1727,22316,19559,-709825,-2495995,-169820,0,0,0,307,233,188,236,154,215,264,151,184,196,209,153,0,,,,,
1,1787240523856,-268,794,10854,500909,-459370,-59864,0,0,0,382,380,399,343,297,339,600,509,350,542,507,397,0,,,,,
2,1787240523856,6164,15089,11682,-2593733,-3886324,1166752,0,0,0,312,236,188,242,158,218,263,150,182,201,213,153,0,,,,,
1,1787240523872,-148,1258,10815,663399,-414166,-36651,0,0,0,385,386,389,342,298,342,595,478,350,523,481,410,0,,,,,
2,1787240523872,9389,11998,5580,-2734232,-2825862,1248608,0,0,0,308,233,190,246,161,227,263,150,186,197,212,156,0,,,,,
1,1787240523888,-100,1052,10643,817337,-448375,-21991,0,0,0,385,388,371,342,301,345,584,451,350,499,459,420,0,,,,,
2,1787240523888,5781,12170,5699,-3194825,-1114218,722042,0,0,0,305,236,189,240,157,220,267,153,189,195,212,151,0,,,,,
1,1787240523904,-205,875,10466,905302,-494800,-15882,0,0,0,386,391,362,349,308,349,577,430,355,483,435,424,0,,,,,
2,1787240523904,3330,10648,6590,-4070805,-818559,540004,0,0,0,305,237,193,245,160,227,264,151,189,195,215,150,0,,,,,
1,1787240523920,-392,775,10313,955393,-494800,-2443,0,0,0,389,395,354,358,318,357,572,405,356,471,416,431,0,,,,,
2,1787240523920,4221,8016,6709,-4814839,-893084,480140,0,0,0,308,236,194,242,147,225,266,151,191,196,215,150,0,,,,,
1,1787240523936,-531,622,10126,989601,-444709,18325,0,0,0,390,398,343,362,327,361,566,377,356,455,406,445,0,,,,,
2,1787240523936,4369,6384,7805,-5287649,-311541,343306,0,0,0,313,239,197,243,159,227,264,150,191,196,216,152,0,,,,,
1,1787240523952,-636,330,9901,992045,-373849,46425,0,0,0,394,400,332,362,325,362,566,340,351,441,377,458,0,,,,,
2,1787240523952,3479,5049,9341,-5683490,135612,342084,0,0,0,303,234,192,240,154,226,267,160,198,219,211,156,0,,,,,
1,1787240523968,-780,14,9691,934623,-305432,91629,0,0,0,398,404,323,366,328,367,567,304,351,434,348,466,0,,,,,
2,1787240523968,3125,3948,10610,-5905845,328645,502131,0,0,0,309,237,193,245,159,228,264,151,192,200,219,154,0,,,,,
1,1787240523984,-847,-162,9585,816115,-219911,151494,0,0,0,403,404,322,366,332,387,563,269,342,413,334,466,0,,,,,
2,1787240523984,3598,2991,12213,-6076887,532674,686612,0,0,0,306,238,197,245,156,232,264,152,195,198,218,154,0,,,,,
1,1787240524000,-818,-258,9557,700051,-111177,208915,0,0,0,415,417,333,378,349,380,566,249,353,407,322,482,0,,,,,
2,1787240524000,3967,2091,13998,-6334672,746477,748920,0,0,0,308,241,201,247,158,237,269,153,200,198,218,155,0,,,,,
1,1787240524016,-813,-311,9676,625526,-13439,252898,0,0,0,423,428,332,381,358,386,560,237,354,393,298,493,0,,,,,
2,1787240524016,4115,1229,15683,-6624222,910189,742812,0,0,0,309,240,207,247,156,241,270,150,204,199,221,161,0,,,,,
1,1787240524032,-1043,-392,9858,598647,70860,302989,0,0,0,439,443,336,385,383,387,560,224,358,389,286,509,0,,,,,
2,1787240524032,4623,583,17602,-6714630,1137431,788016,0,0,0,307,244,207,245,163,243,268,168,203,196,226,160,0,,,,,
1,1787240524048,-1239,-459,10098,613308,167377,377514,0,0,0,452,462,327,395,412,387,561,206,359,389,274,524,0,,,,,
2,1787240524048,4852,-430,20488,-6731734,1580919,733038,0,0,0,302,241,202,242,159,242,275,162,202,191,215,153,0,,,,,
1,1787240524064,-1162,-526,10504,692721,276111,463035,0,0,0,465,465,328,411,422,384,550,204,361,380,255,543,0,,,,,
2,1787240524064,3450,-3192,24632,-6873455,1981646,513126,0,0,0,298,238,199,240,154,240,281,143,203,188,202,149,0,,,,,
1,1787240524080,-856,-660,11007,852767,349414,526565,0,0,0,481,463,301,416,431,383,542,196,367,371,239,561,0,,,,,
2,1787240524080,1612,-8188,28480,-7094588,1997529,376292,0,0,0,296,239,194,237,158,233,270,138,195,190,202,149,0,,,,,
1,1787240524096,-129,-909,11605,1181413,278554,557109,0,0,0,498,473,264,428,441,391,534,188,366,361,218,574,0,,,,,
2,1787240524096,598,-16444,30428,-7137349,1717753,371406,0,0,0,297,240,190,240,160,229,261,136,188,197,206,148,0,,,,,
1,1787240524112,603,-938,12060,1506393,94073,494800,0,0,0,506,485,240,431,452,396,534,183,365,357,212,581,0,,,,,
2,1787240524112,-1335,-27015,29485,-6509379,1830152,175929,0,0,0,300,245,190,249,163,234,267,138,192,195,207,145,0,,,,,
1,1787240524128,1072,-909,12687,1863138,-133168,355523,0,0,0,518,488,227,440,454,405,523,182,365,355,212,582,0,,,,,
2,1787240524128,-6709,-37530,27437,-5238780,1960877,-189368,0,0,0,301,243,191,250,162,232,270,138,192,194,203,144,0,,,,,
1,1787240524144,808,-957,13936,2236988,-311541,202807,0,0,0,534,488,213,455,449,423,491,181,363,345,202,581,0,,,,,
2,1787240524144,-10399,-45560,22818,-3500257,946841,-316428,0,0,0,299,238,187,249,158,233,275,139,195,198,206,147,0,,,,,
1,1787240524160,-90,-952,15549,2824640,-344527,124616,0,0,0,536,487,204,453,442,433,450,179,360,332,192,575,0,,,,,
2,1787240524160,-3364,-50600,14515,-1687209,-327423,6108,0,0,0,296,234,185,248,159,232,276,152,193,200,216,147,0,,,,,
1,1787240524176,-1052,-952,16362,3569896,-270002,140499,0,0,0,532,478,209,452,432,430,395,175,366,318,188,562,0,,,,,
2,1787240524176,1263,-51002,9609,287106,23212,376292,0,0,0,293,225,185,246,149,228,284,217,188,207,277,134,0,,,,,
1,1787240524192,-1617,-957,16405,4346917,-152716,250454,0,0,0,524,471,207,456,432,441,323,169,367,284,182,546,0,,,,,
2,1787240524192,-2928,-34429,15922,2294409,729373,1014036,0,0,0,278,186,147,257,141,206,338,363,164,249,402,115,0,,,,,
1,1787240524208,-2287,-1196,16688,5097059,-70860,432492,0,0,0,498,460,202,450,435,446,274,173,375,271,181,519,0,,,,,
2,1787240524208,-4709,-387,20282,3588222,-189368,1628566,0,0,0,280,201,161,251,147,231,352,460,178,267,469,123,0,,,,,
1,1787240524224,-3211,-1823,19277,6039013,-12217,746477,0,0,0,458,444,200,444,436,432,261,169,378,245,177,468,0,,,,,
2,1787240524224,-4656,26508,14764,4083023,-2169793,1369559,0,0,0,281,196,179,260,140,253,374,510,182,307,543,134,0,,,,,
1,1787240524240,-4489,-2378,24455,6963863,131946,1007927,0,0,0,407,419,204,421,412,384,278,180,367,240,168,411,0,,,,,
2,1787240524240,-4977,6877,15127,4912578,-2023185,-156381,0,0,0,292,194,186,265,126,253,420,544,183,344,579,136,0,,,,,
1,1787240524256,-6939,-2847,29652,7800749,112399,1328021,0,0,0,372,392,182,363,352,332,301,183,336,231,164,378,0,,,,,
2,1787240524256,-1287,-10902,23029,4785518,-728151,-1076344,0,0,0,305,202,235,275,131,260,475,572,178,392,593,131,0,,,,,
1,1787240524272,-7877,-1392,33821,8532565,-398284,1809382,0,0,0,320,315,194,279,259,279,348,194,325,255,219,331,0,,,,,
2,1787240524272,2560,-6642,24766,3299894,-58643,-629191,0,0,0,309,241,226,279,180,256,489,588,172,409,591,134,0,,,,,
1,1787240524288,-6159,3321,36477,8824559,-919963,2283414,0,0,0,313,277,214,250,208,261,368,200,311,271,242,334,0,,,,,
2,1787240524288,813,124,16645,1901012,-43982,-42760,0,0,0,321,261,235,289,184,268,509,587,177,422,596,147,0,,,,,
1,1787240524304,-5819,14725,27073,7910704,-125838,2583959,0,0,0,312,270,217,247,200,259,371,198,308,279,245,339,0,,,,,
2,1787240524304,-569,1282,10610,1175304,188146,25656,0,0,0,325,251,251,296,163,276,541,581,185,429,599,164,0,,,,,
1,1787240524320,-6853,21942,17104,4559498,938289,2300518,0,0,0,322,267,218,245,198,259,372,203,304,281,246,338,0,,,,,
2,1787240524320,579,-311,9518,860098,483805,-102625,0,0,0,321,255,253,289,155,274,557,581,183,428,589,176,0,,,,,
1,1787240524336,-5551,19320,16003,-657290,1293812,1023810,0,0,0,330,264,220,243,193,256,374,208,306,282,252,339,0,,,,,
2,1787240524336,1627,-425,10404,594982,364075,-59864,0,0,0,324,269,266,287,158,279,561,582,183,425,574,182,0,,,,,
1,1787240524352,-4048,12395,14515,-3065321,1865582,-375071,0,0,0,334,263,221,243,192,254,369,209,305,283,259,339,0,,,,,
2,1787240524352,1478,277,10634,342084,112399,-2443,0,0,0,328,266,278,291,157,288,562,571,192,425,551,190,0,,,,,
1,1787240524368,-5407,9121,9873,-3307224,2040289,-1141096,0,0,0,337,263,221,244,195,256,367,209,300,284,264,337,0,,,,,
2,1787240524368,971,851,10380,344527,10995,-17104,0,0,0,325,258,273,289,149,288,553,543,200,424,520,194,0,,,,,
1,1787240524384,-5843,9509,6949,-3266907,1082453,-1339016,0,0,0,336,264,220,244,196,258,372,213,301,287,266,338,0,,,,,
2,1787240524384,827,990,10169,470366,0,-54977,0,0,0,322,255,263,290,152,282,531,513,199,403,490,195,0,,,,,
1,1787240524400,-3316,9045,7791,-4219857,219911,-1527163,0,0,0,337,265,220,244,196,257,374,217,300,289,267,340,0,,,,,
2,1787240524400,784,904,9964,601091,19547,-84299,0,0,0,329,257,264,300,154,288,510,487,204,387,453,202,0,,,,,
1,1787240524416,-2249,6561,9049,-5297423,63529,-1562593,0,0,0,335,264,220,244,196,257,376,215,300,287,265,340,0,,,,,
2,1787240524416,670,899,9877,656069,58643,-91629,0,0,0,324,256,249,294,155,284,502,456,204,357,424,198,0,,,,,
1,1787240524432,-2900,3642,9456,-5798332,-73303,-981049,0,0,0,327,269,227,242,195,262,379,218,304,286,267,347,0,,,,,
2,1787240524432,703,861,9897,714712,111177,-96516,0,0,0,333,275,250,304,167,284,484,422,206,380,415,216,0,,,,,
1,1787240524448,-2622,1588,10174,-6050009,-377514,-205250,0,0,0,325,267,228,242,197,262,380,217,307,287,266,347,0,,,,,
2,1787240524448,914,684,9815,758694,128281,-102625,0,0,0,338,279,255,306,166,291,494,381,207,366,378,208,0,,,,,
1,1787240524464,-1732,670,11557,-6180734,-624304,381179,0,0,0,323,268,225,239,197,259,387,216,302,281,262,335,0,,,,,
2,1787240524464,1067,392,9528,757472,90408,-119729,0,0,0,325,279,239,308,192,288,481,372,219,354,375,208,0,,,,,
1,1787240524480,-1354,114,13208,-6356663,-756251,460592,0,0,0,322,269,227,237,197,258,394,216,302,280,260,335,0,,,,,
2,1787240524480,1081,162,9298,718377,36651,-151494,0,0,0,331,262,247,317,177,302,471,352,211,360,372,212,0,,,,,
1,1787240524496,-1794,-784,14496,-6475171,-935845,-2443,0,0,0,316,266,229,234,196,262,396,218,305,277,261,342,0,,,,,
2,1787240524496,990,81,9250,656069,-6108,-182037,0,0,0,324,280,255,317,181,319,475,334,219,339,349,214,0,,,,,
1,1787240524512,-2622,-1689,15520,-6428745,-1170417,-746477,0,0,0,322,272,231,243,199,263,409,213,302,294,260,337,0,,,,,
2,1787240524512,985,28,9370,597426,-34208,-200363,0,0,0,340,287,255,333,209,350,470,313,235,317,327,228,0,,,,,
1,1787240524528,-3560,-2201,16491,-6293133,-1379333,-1426981,0,0,0,321,273,229,240,195,262,402,210,302,295,257,327,0,,,,,
2,1787240524528,1062,-57,9576,572991,-62308,-219911,0,0,0,320,292,253,322,225,365,466,285,245,312,311,245,0,,,,,
1,1787240524544,-4197,-3350,18506,-6224716,-1572367,-1722639,0,0,0,316,275,228,239,196,262,401,212,306,293,260,322,0,,,,,
2,1787240524544,1162,-196,9772,582765,-98960,-248011,0,0,0,329,311,263,332,257,388,470,262,261,312,294,263,0,,,,,
1,1787240524560,-4292,-6106,21234,-6250373,-1714087,-1545489,0,0,0,313,276,226,240,199,263,404,213,309,293,256,322,0,,,,,
2,1787240524560,1378,-272,9949,627969,-123394,-305432,0,0,0,350,317,270,366,282,399,464,206,258,311,278,281,0,,,,,
1,1787240524576,-3431,-10519,23618,-6370102,-1811826,-954171,0,0,0,314,278,225,243,202,266,405,210,311,290,249,319,0,,,,,
2,1787240524576,1521,-354,10208,697608,-134390,-383623,0,0,0,367,330,264,395,301,409,469,173,266,307,250,303,0,,,,,
1,1787240524592,-162,-17803,24441,-6309016,-1990198,-279776,0,0,0,317,281,224,250,203,269,410,209,312,298,247,315,0,,,,,
2,1787240524592,1258,-454,10500,805120,-151494,-449596,0,0,0,383,364,258,408,344,420,470,165,288,300,228,320,0,,,,,
1,1787240524608,5072,-27293,23909,-5750685,-1980425,304210,0,0,0,321,282,225,254,204,271,411,211,311,300,251,315,0,,,,,
2,1787240524608,871,-550,10978,992045,-122173,-449596,0,0,0,397,396,252,405,398,427,455,157,303,292,236,340,0,,,,,
1,1787240524624,8303,-35745,20966,-4544837,-1213178,957836,0,0,0,327,284,227,255,205,271,405,215,308,288,256,316,0,,,,,
2,1787240524624,933,-550,12165,1298699,-36651,-428827,0,0,0,404,409,238,397,421,439,430,163,316,289,250,375,0,,,,,
1,1787240524640,7800,-40114,16324,-3192381,-329867,1639562,0,0,0,331,282,228,260,207,272,409,224,310,295,257,320,0,,,,,
2,1787240524640,1598,-617,14376,1913229,31764,-458148,0,0,0,411,410,221,414,414,450,395,167,315,287,226,385,0,,,,,
1,1787240524656,5905,-40588,11112,-1721418,75747,1850921,0,0,0,327,271,219,260,203,271,421,260,306,309,282,317,0,,,,,
2,1787240524656,2029,-670,15812,2695137,39095,-558330,0,0,0,414,423,210,432,426,434,361,156,297,264,210,364,0,,,,,
1,1787240524672,6781,-39243,9925,-153938,-140499,725707,0,0,0,304,240,181,250,187,260,470,432,289,369,409,286,0,,,,,
2,1787240524672,1703,-454,16482,3563787,12217,-675616,0,0,0,420,440,209,424,424,439,303,150,302,261,217,379,0,,,,,
1,1787240524688,7968,-32845,14012,1717753,542448,-768468,0,0,0,304,230,165,258,186,260,492,491,286,409,463,264,0,,,,,
2,1787240524688,1722,-291,17252,4521624,0,-751364,0,0,0,422,438,206,401,433,437,236,136,323,240,216,373,0,,,,,
1,1787240524704,6068,-11462,16219,3451388,2499660,-1578475,0,0,0,303,244,175,256,186,263,525,525,290,440,497,256,0,,,,,
2,1787240524704,2569,-167,18726,5629734,61086,-884532,0,0,0,407,412,195,410,393,436,196,105,287,246,167,323,0,,,,,
1,1787240524720,3929,6748,19061,3687182,3551570,-806342,0,0,0,310,247,190,276,182,273,551,551,293,498,527,249,0,,,,,
2,1787240524720,4292,-229,21852,6932098,188146,-1166752,0,0,0,343,408,201,380,388,413,166,99,261,174,132,256,0,,,,,
1,1787240524736,3019,4838,21694,3440393,3138625,311541,0,0,0,301,252,242,272,189,284,580,580,307,536,553,265,0,,,,,
2,1787240524736,6518,-923,27035,8256454,235793,-1536936,0,0,0,300,344,185,338,343,369,158,90,243,160,120,217,0,,,,,
1,1787240524752,1981,-3522,21143,2886949,1971872,640186,0,0,0,324,276,323,284,213,299,581,581,320,552,563,306,0,,,,,
2,1787240524752,7939,-1507,34266,9072570,394618,-1896125,0,0,0,298,275,173,297,238,279,209,109,204,195,161,180,0,,,,,
1,1787240524768,1986,-3216,17262,1948660,1102000,161268,0,0,0,345,306,353,303,250,315,589,582,329,559,568,331,0,,,,,
2,1787240524768,7274,-105,40296,9112887,1076344,-2232101,0,0,0,287,248,171,250,183,228,258,198,200,215,220,161,0,,,,,
1,1787240524784,2263,-268,13395,1181413,519235,-91629,0,0,0,361,341,368,316,295,329,595,576,334,557,574,362,0,,,,,
2,1787240524784,6982,9212,36132,8365188,1187522,-2537534,0,0,0,292,255,181,244,184,228,259,202,202,196,228,160,0,,,,,
1,1787240524800,1588,894,11395,847880,21991,-39095,0,0,0,371,355,387,321,302,334,600,562,338,565,562,377,0,,,,,
2,1787240524800,6503,23225,23455,6217386,89186,-2542421,0,0,0,297,247,187,244,172,226,259,163,197,196,207,160,0,,,,,
1,1787240524816,708,287,10993,794124,-328645,-28099,0,0,0,375,362,390,326,300,341,601,534,349,561,546,390,0,,,,,
2,1787240524816,4484,28365,17793,1698205,-1805717,-1244943,0,0,0,301,249,189,240,160,227,259,153,194,197,204,158,0,,,,,
1,1787240524832,191,205,10868,773355,-507018,-64751,0,0,0,369,371,382,329,306,351,600,507,355,540,520,403,0,,,,,
2,1787240524832,4599,22804,13792,-2376265,-3500257,536339,0,0,0,307,252,190,240,153,221,258,150,188,197,205,154,0,,,,,
1,1787240524848,67,650,10892,818559,-505796,-80634,0,0,0,368,376,382,334,311,358,599,483,351,522,486,413,0,,,,,
2,1787240524848,7843,15419,7968,-3389080,-3628539,1131322,0,0,0,307,255,190,237,154,218,256,151,185,194,207,150,0,,,,,
1,1787240524864,105,770,10734,927293,-483805,-48869,0,0,0,379,381,379,345,322,363,589,442,357,511,454,425,0,,,,,
2,1787240524864,8150,13950,4785,-3500257,-2100154,607200,0,0,0,306,255,188,238,153,218,255,150,185,194,208,150,0,,,,,
1,1787240524880,143,626,10533,1016479,-507018,-23212,0,0,0,379,383,353,350,345,373,580,397,364,486,421,437,0,,,,,
2,1787240524880,5034,13089,5618,-4313930,-877202,239459,0,0,0,307,253,187,240,152,220,256,148,185,195,207,151,0,,,,,
1,1787240524896,119,445,10413,1065348,-546113,-13439,0,0,0,385,379,334,358,342,376,575,361,369,457,401,454,0,,,,,
2,1787240524896,3110,10031,7446,-5351179,-805120,250454,0,0,0,306,254,190,238,152,220,256,148,185,191,209,151,0,,,,,
1,1787240524912,-33,287,10222,1097113,-551000,-2443,0,0,0,401,387,316,367,349,366,565,346,360,435,372,464,0,,,,,
2,1787240524912,3220,6738,8365,-5966931,-757472,162490,0,0,0,305,253,192,237,148,220,255,145,185,193,213,153,0,,,,,
1,1787240524928,-330,47,9930,1105666,-516791,24434,0,0,0,407,395,291,382,367,369,558,311,358,419,337,466,0,,,,,
2,1787240524928,3417,4225,9538,-6199060,-285884,-120951,0,0,0,307,253,194,240,151,224,257,145,188,200,217,157,0,,,,,
1,1787240524944,-655,-244,9686,1067792,-438601,87964,0,0,0,416,402,280,390,374,366,558,280,361,414,310,489,0,,,,,
2,1787240524944,2550,3469,11734,-6296798,215024,-189368,0,0,0,308,252,195,243,158,230,261,146,192,197,215,155,0,,,,,
1,1787240524960,-780,-478,9624,961501,-241902,173485,0,0,0,431,409,274,396,375,371,560,246,363,411,287,492,0,,,,,
2,1787240524960,2388,3029,13869,-6492275,504574,12217,0,0,0,311,255,201,241,155,230,256,148,196,194,214,157,0,,,,,
1,1787240524976,-665,-622,9609,855211,-7330,252898,0,0,0,441,420,266,401,380,370,557,235,362,396,275,503,0,,,,,
2,1787240524976,2785,2244,15908,-6787934,740368,355523,0,0,0,310,251,200,242,154,230,258,147,197,196,211,158,0,,,,,
1,1787240524992,-555,-732,9633,780685,120951,305432,0,0,0,453,435,267,408,384,376,553,221,362,393,269,530,0,,,,,
2,1787240524992,3350,1186,18042,-7009067,955393,746477,0,0,0,308,252,199,244,153,235,258,145,198,193,207,157,0,,,,,
1,1787240525008,-531,-871,9853,734260,140499,356745,0,0,0,466,445,265,412,401,385,554,208,370,390,261,541,0,,,,,
2,1787240525008,4067,277,20478,-7057936,1170417,1077566,0,0,0,306,253,203,241,151,235,261,145,201,191,204,154,0,,,,,
1,1787240525024,-397,-966,10165,742812,172263,395840,0,0,0,470,456,262,418,411,385,552,195,368,390,247,549,0,,,,,
2,1787240525024,4240,-1186,24197,-7044497,1474628,1132544,0,0,0,308,250,202,249,154,235,266,137,192,195,203,154,0,,,,,
1,1787240525040,-320,-995,10576,840550,206472,419053,0,0,0,486,464,252,425,418,398,535,187,379,365,226,565,0,,,,,
2,1787240525040,3536,-4379,28839,-7221648,1687209,901637,0,0,0,301,249,197,249,159,241,263,135,202,196,204,162,0,,,,,
1,1787240525056,-248,-1148,11189,1050688,153938,458148,0,0,0,503,469,242,430,427,400,527,183,379,346,207,572,0,,,,,
2,1787240525056,2493,-10820,32131,-7577172,1659109,525344,0,0,0,303,253,197,241,154,231,241,136,193,194,202,153,0,,,,,
1,1787240525072,239,-1282,11634,1291369,63529,477696,0,0,0,506,473,226,444,431,401,528,179,370,345,198,573,0,,,,,
2,1787240525072,1153,-21397,31639,-7365813,1657888,212581,0,0,0,302,252,195,247,159,235,260,139,200,194,201,154,0,,,,,
1,1787240525088,1038,-1311,11916,1580919,-32986,390953,0,0,0,508,479,210,449,439,408,520,174,363,347,194,575,0,,,,,
2,1787240525088,-2354,-33644,29112,-6299242,1850921,-184481,0,0,0,303,252,196,252,163,239,264,134,197,195,201,152,0,,,,,
1,1787240525104,1167,-1340,12758,1868025,-112399,235793,0,0,0,526,483,208,444,445,408,502,169,358,350,190,574,0,,,,,
2,1787240525104,-7805,-43656,23909,-4321260,1518610,-522900,0,0,0,304,253,195,257,166,242,270,139,202,197,204,154,0,,,,,
1,1787240525120,349,-1411,14285,2263866,-157603,129503,0,0,0,547,479,207,455,435,414,474,168,360,346,185,574,0,,,,,
2,1787240525120,-8174,-51351,16994,-2443460,574213,-601091,0,0,0,306,254,195,260,168,245,273,139,204,200,206,157,0,,,,,
1,1787240525136,-349,-1469,15338,2899166,-127059,146607,0,0,0,542,477,202,452,426,435,433,167,349,322,183,567,0,,,,,
2,1787240525136,-4436,-55922,10591,-547335,-116064,-469144,0,0,0,301,235,194,256,153,238,281,218,195,211,274,145,0,,,,,
1,1787240525152,-497,-1421,15908,3616322,-39095,202807,0,0,0,537,475,203,462,432,455,381,164,351,302,176,552,0,,,,,
2,1787240525152,-4082,-45412,13227,1567480,61086,161268,0,0,0,288,207,170,250,142,218,305,349,175,234,380,123,0,,,,,
1,1787240525168,-890,-1474,16171,4360356,84299,280998,0,0,0,505,471,219,444,442,439,327,166,385,307,186,515,0,,,,,
2,1787240525168,-5283,-10902,20076,3492927,-270002,1258382,0,0,0,275,195,149,247,142,210,334,447,165,272,461,115,0,,,,,
1,1787240525184,-1727,-2043,17051,5103168,100181,445931,0,0,0,478,473,216,448,432,450,299,170,374,290,183,486,0,,,,,
2,1787240525184,-4924,23780,17200,4331034,-1376890,1767844,0,0,0,279,203,157,252,137,221,373,511,168,326,517,118,0,,,,,
1,1787240525200,-3000,-2598,20483,6018244,74525,676838,0,0,0,447,454,205,438,424,415,293,175,381,281,175,440,0,,,,,
2,1787240525200,-5427,10801,15285,5235115,-1347568,459370,0,0,0,308,221,175,278,138,228,431,546,164,396,544,112,0,,,,,
1,1787240525216,-5518,-3278,26977,7015176,116064,972497,0,0,0,399,418,203,396,385,368,299,176,350,258,178,402,0,,,,,
2,1787240525216,-2608,-7461,21378,5549099,-543670,-824668,0,0,0,341,230,211,312,150,242,472,557,165,457,558,120,0,,,,,
1,1787240525232,-7317,-2861,31318,7751879,168598,1420872,0,0,0,364,366,183,334,315,320,332,180,323,261,173,368,0,,,,,
2,1787240525232,2718,-9370,25599,4118453,30543,-967610,0,0,0,329,244,241,322,183,264,507,565,173,485,568,141,0,,,,,
1,1787240525248,-7025,-655,35553,8318762,25656,1925447,0,0,0,338,290,202,269,220,271,367,191,309,282,215,347,0,,,,,
2,1787240525248,2766,-2507,18645,2058615,-116064,-283441,0,0,0,330,260,271,300,158,283,512,569,185,507,573,149,0,,,,,
1,1787240525264,-6939,6542,36640,8513017,144164,2339613,0,0,0,331,267,213,255,191,259,384,192,310,294,230,338,0,,,,,
2,1787240525264,703,583,11466,935845,-10995,41538,0,0,0,338,268,284,292,153,295,521,561,197,507,558,185,0,,,,,
1,1787240525280,-8533,18157,24383,6841690,1512502,2283414,0,0,0,337,268,217,258,195,259,384,189,310,295,223,333,0,,,,,
2,1787240525280,416,220,9294,770911,355523,0,0,0,0,331,279,275,291,157,311,521,560,214,508,550,201,0,,,,,
1,1787240525296,-9303,22187,17176,2742784,2206445,1307251,0,0,0,342,266,220,254,196,258,383,196,303,292,229,333,0,,,,,
2,1787240525296,1474,-454,9983,697608,449596,-36651,0,0,0,331,276,273,299,162,293,524,530,202,504,532,204,0,,,,,
1,1787240525312,-6968,17822,16353,-2102598,1727526,-498466,0,0,0,345,264,221,252,194,257,387,206,300,293,239,336,0,,,,,
2,1787240525312,1986,-129,10686,516791,219911,-20769,0,0,0,330,257,276,304,169,303,516,513,192,515,525,214,0,,,,,
1,1787240525328,-4919,12026,13443,-3450166,1809382,-1740965,0,0,0,346,264,224,250,193,255,387,209,304,297,241,337,0,,,,,
2,1787240525328,1435,564,10485,488692,51312,-29321,0,0,0,338,276,275,310,165,311,522,496,203,484,492,212,0,,,,,
1,1787240525344,-5738,9786,9322,-3406184,1860695,-2125811,0,0,0,340,268,226,245,193,255,383,208,304,297,248,339,0,,,,,
2,1787240525344,1043,847,10241,597426,36651,-57421,0,0,0,311,261,265,297,175,302,491,483,204,442,463,209,0,,,,,
1,1787240525360,-6283,9595,7063,-3635869,937067,-1921782,0,0,0,340,268,224,248,194,257,386,209,305,295,248,337,0,,,,,
2,1787240525360,1024,751,10064,728151,98960,-79412,0,0,0,319,261,262,307,175,303,488,449,209,400,436,216,0,,,,,
1,1787240525376,-3790,8423,8145,-4697553,-89186,-1635897,0,0,0,338,271,224,246,196,257,385,214,302,285,247,337,0,,,,,
2,1787240525376,1249,536,9940,783129,109955,-98960,0,0,0,330,269,263,314,185,305,483,412,210,390,405,220,0,,,,,
1,1787240525392,-2158,6369,9346,-5615073,-338419,-1351233,0,0,0,337,271,227,245,199,259,381,214,301,271,248,336,0,,,,,
2,1787240525392,1402,349,9853,792903,54977,-128281,0,0,0,329,274,260,322,199,313,471,375,220,371,377,225,0,,,,,
1,1787240525408,-2254,3852,9873,-6147747,-223576,-900415,0,0,0,330,272,227,242,199,259,381,213,300,272,248,336,0,,,,,
2,1787240525408,1387,143,9743,772133,-20769,-160046,0,0,0,328,283,259,321,197,323,453,343,221,345,365,233,0,,,,,
1,1787240525424,-2402,2258,10504,-6192951,-436157,-410501,0,0,0,330,274,230,241,197,259,384,220,301,273,250,336,0,,,,,
2,1787240525424,1325,-62,9533,724486,-65973,-180816,0,0,0,328,290,258,326,205,331,442,314,220,334,349,241,0,,,,,
1,1787240525440,-1885,1651,12256,-6207612,-719599,-190589,0,0,0,327,273,227,245,200,262,383,215,301,273,251,333,0,,,,,
2,1787240525440,1273,-272,9337,659734,-91629,-204028,0,0,0,330,292,258,339,222,342,445,284,222,340,321,249,0,,,,,
1,1787240525456,-1608,1612,14544,-6440963,-822224,-359188,0,0,0,326,275,231,244,200,263,386,219,304,277,258,333,0,,,,,
2,1787240525456,1191,-416,9279,585208,-111177,-224798,0,0,0,335,292,259,345,228,359,446,257,229,341,296,261,0,,,,,
1,1787240525472,-2215,875,16482,-6844134,-882089,-706160,0,0,0,323,274,231,243,199,264,386,215,304,279,260,330,0,,,,,
2,1787240525472,1268,-402,9447,538783,-142942,-237015,0,0,0,339,298,266,346,239,377,434,231,244,330,277,285,0,,,,,
1,1787240525488,-2986,-272,18267,-7031058,-1103222,-1005484,0,0,0,320,272,227,243,196,262,388,212,305,280,258,325,0,,,,,
2,1787240525488,1387,-425,9638,529009,-191811,-261450,0,0,0,354,323,283,353,273,394,425,202,253,327,271,314,0,,,,,
1,1787240525504,-3407,-1119,20827,-6945537,-1464854,-1131322,0,0,0,318,276,227,244,197,264,390,208,307,282,257,323,0,,,,,
2,1787240525504,1435,-516,9763,548556,-228463,-309097,0,0,0,368,348,274,372,322,402,429,186,259,335,270,325,0,,,,,
1,1787240525520,-3359,-3594,24723,-6949202,-1833817,-1017701,0,0,0,317,280,229,245,199,268,392,206,308,283,256,322,0,,,,,
2,1787240525520,1464,-598,9906,590095,-245567,-370184,0,0,0,373,350,263,387,312,414,428,158,265,336,240,342,0,,,,,
1,1787240525536,-2565,-8796,27709,-7040832,-2069611,-725707,0,0,0,316,279,228,248,202,269,395,205,310,283,252,319,0,,,,,
2,1787240525536,1526,-693,10193,671951,-239459,-436157,0,0,0,403,361,273,389,311,412,426,134,273,341,222,352,0,,,,,
1,1787240525552,4,-17152,28480,-6899112,-2190562,-338419,0,0,0,318,282,229,255,205,272,399,204,310,285,251,318,0,,,,,
2,1787240525552,1344,-837,10677,853989,-185703,-509461,0,0,0,424,379,264,400,338,436,411,137,290,328,223,346,0,,,,,
1,1787240525568,4063,-26231,28006,-6400645,-2041511,-13439,0,0,0,319,286,230,261,208,275,406,205,309,289,254,317,0,,,,,
2,1787240525568,808,-966,11270,1123992,-98960,-538783,0,0,0,428,401,264,398,375,450,389,126,329,314,221,368,0,,,,,
1,1787240525584,7398,-35103,25120,-5404935,-1203404,223576,0,0,0,321,289,229,266,209,274,411,211,309,291,258,313,0,,,,,
2,1787240525584,416,-885,12242,1447750,-7330,-482583,0,0,0,422,422,245,412,399,473,366,133,317,286,208,402,0,,,,,
1,1787240525600,6422,-41627,18736,-3981619,-125838,282219,0,0,0,319,289,229,266,211,275,410,219,309,288,264,315,0,,,,,
2,1787240525600,1033,-789,13864,1966986,28099,-410501,0,0,0,440,446,247,426,394,471,346,136,302,276,206,418,0,,,,,
1,1787240525616,3709,-45738,11758,-2078163,42760,34208,0,0,0,321,278,227,264,203,276,419,224,309,296,274,317,0,,,,,
2,1787240525616,1698,-856,15228,2654820,-28099,-410501,0,0,0,441,438,248,437,378,488,308,121,317,280,202,414,0,,,,,
1,1787240525632,2311,-46896,8609,-276111,-307876,-449596,0,0,0,307,251,199,251,189,266,454,348,297,343,376,298,0,,,,,
2,1787240525632,1885,-938,15774,3381749,-129503,-472809,0,0,0,429,455,233,419,391,474,250,129,311,265,209,400,0,,,,,
1,1787240525648,2665,-41727,12256,1341460,-481361,-921184,0,0,0,295,226,167,248,179,262,480,455,288,382,450,272,0,,,,,
2,1787240525648,2522,-1072,16037,4274834,-163711,-607200,0,0,0,421,448,220,393,410,452,202,125,299,244,216,370,0,,,,,
1,1787240525664,4053,-16132,16276,3287676,1033583,-1069014,0,0,0,299,243,169,248,190,265,489,493,288,412,485,260,0,,,,,
2,1787240525664,3393,-1081,16994,5321857,-114842,-861319,0,0,0,402,431,216,381,416,451,174,109,303,216,191,344,0,,,,,
1,1787240525680,3632,10184,16482,4214970,2841745,-681725,0,0,0,303,250,184,252,186,271,529,530,298,473,515,253,0,,,,,
2,1787240525680,4388,-1301,19956,6423858,-26878,-1208291,0,0,0,358,418,217,368,397,436,165,95,293,190,153,306,0,,,,,
1,1787240525696,2708,5848,19272,4170987,2717128,112399,0,0,0,301,247,216,256,175,281,560,560,309,496,540,257,0,,,,,
2,1787240525696,6121,-2483,25058,7557624,-7330,-1585806,0,0,0,315,380,206,337,355,392,160,92,258,165,133,249,0,,,,,
1,1787240525712,1407,-3488,22325,3721391,1748296,502131,0,0,0,319,266,294,270,194,297,575,575,316,532,559,278,0,,,,,
2,1787240525712,8169,-3407,31361,8400618,103847,-1940107,0,0,0,292,312,185,295,275,313,195,111,220,165,146,194,0,,,,,
1,1787240525728,871,-5570,21052,2552194,801455,250454,0,0,0,338,296,350,284,228,310,586,580,318,552,575,319,0,,,,,
2,1787240525728,8231,-1564,37176,8754920,784350,-2335948,0,0,0,290,260,182,256,189,244,247,134,199,181,175,168,0,,,,,
1,1787240525744,1110,-1684,16300,1428202,532674,-9773,0,0,0,350,326,366,293,262,323,595,578,324,555,579,348,0,,,,,
2,1787240525744,7963,5312,38008,8487361,1178969,-2774549,0,0,0,294,240,188,239,162,226,254,132,190,185,187,160,0,,,,,
1,1787240525760,1153,808,11859,841772,234572,-53756,0,0,0,365,349,392,299,279,328,600,565,323,563,572,371,0,,,,,
2,1787240525760,9054,17918,26379,7024950,621860,-3122743,0,0,0,293,231,184,246,171,227,253,128,186,189,185,154,0,,,,,
1,1787240525776,693,646,10576,724486,-158824,-34208,0,0,0,375,368,417,304,287,333,605,544,323,569,558,391,0,,,,,
2,1787240525776,7293,25441,18736,3088534,-546113,-2320066,0,0,0,292,229,185,245,171,225,253,130,186,189,184,155,0,,,,,
1,1787240525792,43,325,10835,718377,-397062,-51312,0,0,0,377,381,416,310,294,343,608,522,335,564,539,402,0,,,,,
2,1787240525792,5025,24087,15908,-1329242,-1910786,-346971,0,0,0,296,237,191,242,171,227,258,135,192,190,193,159,0,,,,,
1,1787240525808,-196,603,10935,725707,-416610,-63529,0,0,0,382,387,407,318,296,346,601,497,340,551,515,411,0,,,,,
2,1787240525808,7169,17434,10624,-3065321,-2579073,1205847,0,0,0,297,245,191,244,178,230,260,136,192,194,199,161,0,,,,,
