sole_id,timestamp,accel_x,accel_y,accel_z,gyro_x,gyro_y,gyro_z,magn_x,magn_y,magn_z,pressure_01,pressure_02,pressure_03,pressure_04,pressure_05,pressure_06,pressure_07,pressure_08,pressure_09,pressure_10,pressure_11,pressure_12,corrupt,concrete,transition,asphalt,grass,brick
2,1790112573824,-2464,-5173,23081,6652322,-2260201,1478293,0,0,0,171,95,123,196,90,254,423,460,190,312,412,250,0,,,,,
1,1790112573840,-2909,-2129,21837,5402492,343306,807563,0,0,0,425,336,191,389,365,422,305,121,233,274,155,441,0,,,,,
2,1790112573840,-5278,-3914,22962,5500230,-907745,1291369,0,0,0,186,94,130,188,71,236,448,435,188,344,414,263,0,,,,,
1,1790112573856,-3431,-3015,25872,6560692,880867,966388,0,0,0,415,301,199,381,308,402,295,105,217,272,128,422,0,,,,,
2,1790112573856,-2349,-1239,18238,4161214,-868650,375071,0,0,0,189,89,131,187,68,233,463,415,200,368,408,269,0,,,,,
1,1790112573872,-3589,-3661,29648,7562511,1342681,1110553,0,0,0,376,281,202,343,271,367,303,105,214,240,114,406,0,,,,,
2,1790112573872,1320,-976,12543,2381152,-1160643,-57421,0,0,0,219,96,156,205,86,251,483,387,221,364,397,265,0,,,,,
1,1790112573888,-3388,-2431,32371,8297993,1828930,1248608,0,0,0,295,238,199,312,234,352,314,120,222,217,112,386,0,,,,,
2,1790112573888,655,-1957,10500,838107,-698829,109955,0,0,0,242,110,184,225,115,271,491,365,242,372,360,312,0,,,,,
1,1790112573904,-6173,325,30744,8778133,2758667,1354899,0,0,0,251,197,192,294,209,321,307,118,194,215,117,281,0,,,,,
2,1790112573904,-378,-1670,10064,136833,-257785,133168,0,0,0,279,124,240,245,130,296,477,311,242,390,332,365,0,,,,,
1,1790112573920,-9279,5297,22991,8316319,3045774,1381777,0,0,0,251,189,184,296,198,329,310,120,193,210,117,262,0,,,,,
2,1790112573920,-244,-885,10165,208915,-172263,29321,0,0,0,304,146,281,259,171,316,502,282,248,390,296,372,0,,,,,
1,1790112573936,-10026,11868,13079,6123313,2179567,1372003,0,0,0,251,190,170,295,199,316,298,122,176,208,128,248,0,,,,,
2,1790112573936,95,-622,10131,300545,-156381,-15882,0,0,0,334,166,286,275,182,310,528,250,251,380,263,379,0,,,,,
1,1790112573952,-6733,14060,10610,2147802,851546,1254717,0,0,0,242,183,163,288,196,292,285,123,157,210,138,231,0,,,,,
2,1790112573952,177,-751,10088,277332,-81855,-2443,0,0,0,350,169,282,279,188,308,496,216,251,336,184,387,0,,,,,
1,1790112573968,-4053,10691,9552,-893084,403171,824668,0,0,0,238,179,161,293,192,284,308,137,165,215,142,226,0,,,,,
2,1790112573968,95,-818,10059,244346,-13439,-4886,0,0,0,366,180,286,284,197,311,476,194,241,405,191,401,0,,,,,
1,1790112573984,-4441,6901,5675,-1660331,408057,337197,0,0,0,244,180,155,308,193,283,334,147,177,223,140,227,0,,,,,
2,1790112573984,110,-861,9997,246789,-10995,-21991,0,0,0,371,183,287,286,203,320,464,172,266,332,169,422,0,,,,,
1,1790112574000,-4613,6599,2852,-1903456,81855,138055,0,0,0,244,187,150,318,194,282,331,144,177,230,135,232,0,x,,,,
2,1790112574000,181,-904,9978,240680,-36651,-34208,0,0,0,383,176,297,302,212,333,451,152,263,288,144,433,0,x,,,,
1,1790112574016,-3723,7456,2584,-2555860,-364075,96516,0,0,0,239,206,148,319,203,285,328,147,175,233,143,238,0,,,,,
2,1790112574016,177,-942,9964,219911,-47647,-45204,0,0,0,382,175,278,308,217,341,439,156,261,263,140,442,0,,,,,
1,1790112574032,-2842,7078,3953,-3547905,-706160,75747,0,0,0,238,208,147,321,206,287,316,141,167,237,147,242,0,,,,,
2,1790112574032,124,-957,9968,204028,-45204,-51312,0,0,0,382,181,264,306,219,335,435,178,275,261,137,458,0,,,,,
1,1790112574048,-2368,6231,4972,-4155105,-1067792,86742,0,0,0,239,203,150,316,204,287,291,128,154,240,145,242,0,,,,,
2,1790112574048,105,-966,10035,230907,-30543,-54977,0,0,0,385,186,248,301,220,337,404,160,278,246,127,468,0,,,,,
1,1790112574064,-1052,5637,5987,-4451985,-1546710,95294,0,0,0,227,201,146,305,205,283,336,156,182,233,147,244,0,,,,,
2,1790112574064,100,-985,10126,283441,4886,-56199,0,0,0,395,189,216,305,225,342,372,140,257,238,118,480,0,,,,,
1,1790112574080,713,5503,7331,-4734205,-1795943,18325,0,0,0,229,206,147,306,207,283,291,131,151,232,147,244,0,,,,,
2,1790112574080,119,-1038,10150,346971,64751,-53756,0,0,0,404,194,191,312,239,344,387,139,251,230,101,486,0,,,,,
1,1790112574096,1378,5714,9054,-5208237,-1792278,-90408,0,0,0,230,215,147,308,211,283,310,140,163,232,147,244,0,,,,,
2,1790112574096,220,-1119,10035,361632,84299,-51312,0,0,0,403,203,188,312,244,346,408,136,269,220,103,487,0,,,,,
1,1790112574112,1445,5752,10882,-5734802,-1933999,-43982,0,0,0,227,210,150,307,209,287,326,149,177,231,147,249,0,,,,,
2,1790112574112,282,-1201,9940,353080,65973,-64751,0,0,0,404,214,196,313,245,349,392,151,280,237,134,505,0,,,,,
1,1790112574128,2105,5388,12830,-6164851,-2177123,190589,0,0,0,226,209,151,305,208,288,327,151,181,230,149,251,0,,,,,
2,1790112574128,306,-1234,10002,342084,35430,-79412,0,0,0,416,227,196,316,286,358,388,179,280,225,127,515,0,,,,,
1,1790112574144,3062,4704,15161,-6465397,-2233323,535117,0,0,0,225,211,152,305,211,292,332,153,186,230,150,253,0,,,,,
2,1790112574144,330,-1287,10088,353080,3665,-98960,0,0,0,421,235,174,314,289,369,367,140,267,238,125,509,0,,,,,
1,1790112574160,3321,4178,17372,-6647435,-2207666,844215,0,0,0,224,219,154,307,215,293,337,153,189,231,150,254,0,,,,,
2,1790112574160,258,-1349,10098,382401,-35430,-119729,0,0,0,432,231,157,342,286,370,391,147,273,251,110,518,0,,,,,
1,1790112574176,3177,3752,20167,-6844134,-2252871,1152091,0,0,0,225,219,155,308,213,295,336,149,190,232,145,256,0,,,,,
2,1790112574176,210,-1383,10165,411723,-72082,-120951,0,0,0,421,238,157,308,277,393,325,144,266,219,121,526,0,,,,,
1,1790112574192,3058,3101,23637,-7082371,-2361605,1414763,0,0,0,229,202,158,307,204,299,334,146,194,233,141,259,0,,,,,
2,1790112574192,291,-1421,10361,464257,-91629,-127059,0,0,0,428,307,147,318,286,364,332,158,270,240,150,531,0,,,,,
1,1790112574208,3259,1445,27374,-7280291,-2566855,1497841,0,0,0,233,183,162,306,196,301,337,145,198,235,143,259,0,,,,,
2,1790112574208,315,-1483,10562,559552,-91629,-145385,0,0,0,437,227,141,313,271,372,307,145,260,218,109,518,0,,,,,
1,1790112574224,4000,-2120,30878,-7356039,-2858849,1343903,0,0,0,230,181,165,307,194,303,341,139,197,234,136,257,0,,,,,
2,1790112574224,177,-1560,10638,685390,-62308,-152716,0,0,0,436,217,142,313,258,373,305,148,255,206,94,522,0,,,,,
1,1790112574240,4843,-8513,33237,-7220427,-2995683,1000597,0,0,0,229,181,159,314,195,298,352,134,194,233,121,255,0,,,,,
2,1790112574240,172,-1670,10715,840550,-12217,-153938,0,0,0,431,251,138,312,269,368,303,145,245,216,120,544,0,,,,,
1,1790112574256,3967,-15793,33232,-6867347,-2718350,703716,0,0,0,236,183,156,327,191,292,382,133,190,242,119,250,0,,,,,
2,1790112574256,95,-1727,10849,1007927,19547,-153938,0,0,0,436,263,129,318,286,363,293,147,233,227,127,569,0,,,,,
1,1790112574272,1244,-23957,29222,-5942497,-2444682,586430,0,0,0,221,191,161,304,201,310,369,138,201,226,118,259,0,,,,,
2,1790112574272,-28,-1799,11155,1187522,41538,-139277,0,0,0,442,289,134,320,277,365,279,155,231,216,127,581,0,,,,,
1,1790112574288,3900,-31260,22646,-4504520,-2862514,498466,0,0,0,222,192,167,305,201,310,366,133,201,226,115,266,0,,,,,
2,1790112574288,19,-1933,11753,1414763,64751,-101403,0,0,0,466,276,147,308,258,383,271,146,243,215,129,589,0,,,,,
1,1790112574304,15611,-38693,15912,-2780658,-3147177,-87964,0,0,0,215,190,181,300,199,322,329,128,200,226,115,270,0,,,,,
2,1790112574304,416,-2062,12873,1753183,62308,-83077,0,0,0,491,255,155,297,249,392,273,137,254,225,124,602,0,,,,,
1,1790112574320,23206,-44474,11768,-1099557,-2106263,-1247386,0,0,0,218,190,169,303,199,315,335,114,189,226,115,268,0,,,,,
2,1790112574320,947,-2215,13917,2212553,7330,-117286,0,0,0,491,275,162,298,244,376,265,141,244,223,119,608,0,,,,,
1,1790112574336,18865,-43249,11261,546113,-388510,-2233323,0,0,0,187,195,151,278,209,306,360,244,195,290,241,236,0,,,,,
2,1790112574336,1215,-2282,14443,2737898,-73303,-224798,0,0,0,477,270,161,289,231,359,237,131,224,213,110,596,0,,,,,
1,1790112574352,4670,-22043,14276,2755002,1017701,-2130697,0,0,0,191,213,164,274,206,315,335,306,173,337,365,250,0,,,,,
2,1790112574352,1091,-2249,15199,3292563,-158824,-333532,0,0,0,452,254,148,277,221,348,219,121,210,198,98,557,0,,,,,
1,1790112574368,-5671,12428,10672,5733581,2831971,-872315,0,0,0,216,221,157,307,226,338,371,382,178,357,422,262,0,,,,,
2,1790112574368,2177,-2364,16889,4078136,-285884,-460592,0,0,0,422,253,154,286,226,359,206,122,206,190,97,499,0,,,,,
1,1790112574384,-3005,5733,13199,7194770,3976732,-295658,0,0,0,222,214,150,296,229,337,408,438,201,366,440,267,0,,,,,
2,1790112574384,4666,-2665,18789,5056742,-405614,-838107,0,0,0,381,240,140,258,215,344,170,108,200,163,80,464,0,,,,,
1,1790112574400,2057,-8289,21182,7281513,2582738,-1071457,0,0,0,216,195,166,294,203,340,423,428,205,395,448,280,0,,,,,
2,1790112574400,5049,-3187,22096,6166073,-566882,-1299921,0,0,0,350,207,139,246,206,323,177,107,180,163,87,435,0,,,,,
1,1790112574416,5336,-7552,26326,6835582,911410,-1302364,0,0,0,225,171,192,327,185,362,450,430,228,428,452,290,0,,,,,
2,1790112574416,5431,-4910,26551,7000515,-581543,-1562593,0,0,0,310,152,138,204,170,281,151,88,156,147,75,378,0,,,,,
1,1790112574432,2010,-2134,22421,5247332,981049,-162490,0,0,0,251,183,219,337,200,381,474,451,283,437,441,313,0,,,,,
2,1790112574432,5537,-4742,30854,7518529,-408057,-1881464,0,0,0,244,126,119,173,113,233,177,105,162,125,62,272,0,,,,,
1,1790112574448,-1028,-2120,14443,2207666,1056796,252898,0,0,0,291,253,252,353,237,402,475,393,294,450,408,380,0,,,,,
2,1790112574448,6523,-1459,32280,7823961,-685390,-2312735,0,0,0,186,61,103,150,64,188,181,121,140,97,50,144,0,,,,,
1,1790112574464,-679,-2603,9763,133168,543670,-3665,0,0,0,350,270,278,376,249,418,450,312,269,451,380,442,0,,,,,
2,1790112574464,10117,5273,26120,7729888,-1198517,-2720793,0,0,0,178,57,105,151,64,185,178,111,134,101,65,141,0,,,,,
1,1790112574480,-28,-1354,9562,8552,108734,-102625,0,0,0,419,285,288,393,267,422,451,280,269,443,338,479,0,,,,,
2,1790112574480,11476,12864,15305,6475171,-1170417,-2971248,0,0,0,188,72,102,149,77,174,169,108,112,122,77,154,0,,,,,
1,1790112574496,-124,-875,10284,372627,75747,-19547,0,0,0,448,313,309,380,302,438,460,282,295,432,297,485,0,,,,,
2,1790112574496,8691,16712,8777,3076317,-693942,-2646268,0,0,0,196,77,110,150,79,173,167,109,116,99,56,128,0,,,,,
1,1790112574512,-287,-1000,10442,464257,65973,34208,0,0,0,457,304,333,390,281,450,469,217,302,456,284,505,0,,,,,
2,1790112574512,4608,13189,10390,-608421,-755029,-1500285,0,0,0,201,79,119,147,69,172,171,109,119,99,52,121,0,,,,,
1,1790112574528,-291,-1182,10126,316428,-35430,12217,0,0,0,461,318,319,387,286,445,472,203,311,426,243,505,0,,,,,
2,1790112574528,3441,8365,9313,-2305405,-1397659,-459370,0,0,0,199,75,119,145,58,171,170,110,123,111,60,131,0,,,,,
1,1790112574544,-215,-1129,10074,293215,-125838,2443,0,0,0,464,356,305,388,300,445,473,205,323,388,231,496,0,,,,,
2,1790112574544,4886,7150,4953,-2123367,-1529606,43982,0,0,0,191,68,116,146,59,174,169,112,125,115,76,140,0,,,,,
1,1790112574560,-272,-1119,10150,310319,-173485,9773,0,0,0,471,358,317,385,306,447,467,199,326,369,207,487,0,,,,,
2,1790112574560,5417,7748,2660,-2194227,-968832,382401,0,0,0,185,67,112,148,65,176,173,116,121,110,86,147,0,,,,,
1,1790112574576,-335,-1139,10198,326202,-175929,28099,0,0,0,471,359,299,394,323,447,434,160,293,362,197,472,0,,,,,
2,1790112574576,4398,8217,3292,-2987131,41538,823446,0,0,0,182,68,111,150,68,182,175,124,131,94,64,140,0,,,,,
1,1790112574592,-291,-1182,10174,344527,-161268,30543,0,0,0,467,359,272,395,323,445,432,142,288,355,184,470,0,,,,,
2,1790112574592,3613,7169,4800,-3811799,491135,1172861,0,0,0,184,68,115,153,71,187,175,127,142,93,54,127,0,,,,,
1,1790112574608,-263,-1258,10251,371406,-107512,13439,0,0,0,458,359,256,396,318,437,397,165,294,345,177,476,0,,,,,
2,1790112574608,3560,6101,5762,-4414112,818559,1337794,0,0,0,185,71,116,151,67,182,171,119,127,103,68,126,0,,,,,
1,1790112574624,-382,-1335,10638,437379,-29321,1221,0,0,0,456,360,239,399,317,429,389,164,289,340,173,475,0,,,,,
2,1790112574624,3254,5565,6905,-4860043,1225395,1296256,0,0,0,184,71,107,154,73,185,177,128,129,93,65,134,0,,,,,
1,1790112574640,-564,-1426,10887,554665,9773,15882,0,0,0,455,367,229,405,322,426,412,135,270,342,169,469,0,,,,,
2,1790112574640,2546,5350,8580,-5321857,1566258,1226617,0,0,0,181,65,113,148,66,182,163,110,122,112,78,134,0,,,,,
1,1790112574656,-507,-1507,10567,658512,-13439,54977,0,0,0,446,374,237,417,332,428,370,120,236,344,174,464,0,,,,,
2,1790112574656,2010,5168,10768,-5850867,1760513,1158200,0,0,0,174,72,114,151,68,184,183,118,134,123,65,146,0,,,,,
1,1790112574672,-387,-1598,10078,692721,-47647,80634,0,0,0,449,366,232,418,328,438,348,107,218,335,169,467,0,,,,,
2,1790112574672,1871,4680,13046,-6290690,1871691,1072679,0,0,0,151,69,114,143,69,187,167,110,116,114,65,146,0,,,,,
1,1790112574688,-368,-1732,9595,649960,-65973,95294,0,0,0,452,355,237,412,324,430,360,116,242,340,167,469,0,,,,,
2,1790112574688,1675,4000,15367,-6592457,1979203,967610,0,0,0,143,71,115,147,78,194,167,115,130,90,66,139,0,,,,,
1,1790112574704,-354,-1866,9274,553443,-68416,111177,0,0,0,468,340,214,403,316,424,412,124,265,327,156,476,0,,,,,
2,1790112574704,1454,3015,17803,-6745173,2109928,852767,0,0,0,141,75,119,139,70,203,174,120,140,85,58,131,0,,,,,
1,1790112574720,-296,-1957,9241,445931,-83077,122173,0,0,0,466,332,222,406,316,430,381,117,265,327,156,476,0,,,,,
2,1790112574720,1038,1368,20507,-6731734,2311514,792903,0,0,0,135,73,120,142,68,205,187,123,152,95,63,143,0,,,,,
1,1790112574736,-469,-1986,9681,404392,-120951,139277,0,0,0,467,332,213,416,314,430,366,105,256,327,156,476,0,,,,,
2,1790112574736,569,-583,23503,-6580240,2465452,869872,0,0,0,138,74,125,138,62,199,181,115,147,96,48,148,0,,,,,
1,1790112574752,-674,-2005,10232,449596,-184481,186924,0,0,0,480,347,214,404,315,437,384,111,266,322,154,483,0,,,,,
2,1790112574752,402,-2440,26594,-6427524,2469117,1092227,0,0,0,137,72,125,139,62,199,189,112,145,89,58,143,0,,,,,
1,1790112574768,-765,-2033,10729,583987,-261450,266337,0,0,0,475,331,205,405,311,440,383,112,258,319,149,494,0,,,,,
2,1790112574768,-210,-5680,29887,-6633996,2327396,1332907,0,0,0,138,74,129,142,69,202,190,111,144,108,68,166,0,,,,,
1,1790112574784,-507,-2110,10600,726929,-261450,322536,0,0,0,478,330,225,427,318,447,373,105,251,324,150,502,0,,,,,
2,1790112574784,-1560,-12447,32194,-7028615,1986533,1436755,0,0,0,135,75,127,145,71,206,185,108,143,121,64,178,0,,,,,
1,1790112574800,-9,-2206,10232,810007,-221133,318871,0,0,0,487,339,222,420,340,439,376,114,261,322,162,508,0,,,,,
2,1790112574800,-1445,-21603,31021,-6899112,1218065,1241278,0,0,0,132,75,127,146,69,211,185,111,147,116,62,162,0,,,,,
1,1790112574816,220,-2311,10433,874759,-171042,226020,0,0,0,492,349,220,419,344,450,364,112,260,323,161,508,0,,,,,
2,1790112574816,421,-31002,26996,-6155078,422718,981049,0,0,0,133,77,132,147,70,217,189,116,152,106,60,150,0,,,,,
1,1790112574832,-268,-2402,11390,1017701,-135612,150272,0,0,0,494,353,234,436,342,462,345,105,252,333,163,508,0,,,,,
2,1790112574832,-14,-38554,20057,-4550946,549778,1036027,0,0,0,169,68,130,169,71,226,194,113,158,101,52,152,0,,,,,
1,1790112574848,-971,-2488,12610,1330464,-97738,161268,0,0,0,501,359,236,444,358,456,326,102,240,342,175,515,0,,,,,
2,1790112574848,-4871,-45082,15539,-2872288,1080009,1325577,0,0,0,224,62,122,198,68,226,221,133,166,137,83,145,0,,,,,
1,1790112574864,-813,-2522,13323,1806939,-113620,232128,0,0,0,503,360,235,444,372,454,311,95,231,351,177,520,0,,,,,
2,1790112574864,-12356,-51361,16238,-1042136,985936,1528384,0,0,0,141,78,103,170,78,208,279,229,155,212,203,137,0,,,,,
1,1790112574880,-540,-2474,14553,2406809,-232128,277332,0,0,0,498,349,250,444,368,454,311,86,240,360,169,510,0,,,,,
2,1790112574880,-11208,-37200,17224,2634050,-498466,1226617,0,0,0,146,88,109,177,101,237,304,343,178,247,312,182,0,,,,,
1,1790112574896,-1368,-2368,16645,3230255,-322536,354301,0,0,0,490,352,235,431,364,450,270,84,235,336,165,499,0,,,,,
2,1790112574896,-2512,-5872,13457,6192951,-2031737,608421,0,0,0,157,80,117,194,88,257,403,417,207,308,387,212,0,,,,,
1,1790112574912,-2057,-2172,19238,4266282,-270002,527787,0,0,0,463,350,220,434,356,444,254,81,224,334,168,476,0,,,,,
2,1790112574912,2038,3182,15620,7241196,-2359161,431270,0,0,0,167,86,117,215,108,274,411,473,199,319,413,256,0,,,,,
1,1790112574928,-2479,-2010,22368,5514891,69638,709825,0,0,0,423,338,187,403,392,431,237,93,200,289,176,459,0,,,,,
2,1790112574928,-57,-2325,21746,6861238,-1898569,702495,0,0,0,175,91,125,201,81,260,452,464,199,342,464,266,0,,,,,
1,1790112574944,-3728,-2723,25302,6756169,667064,841772,0,0,0,425,319,210,378,321,418,258,90,219,270,137,437,0,,,,,
2,1790112574944,-3421,-5680,24958,5860641,-1758070,679282,0,0,0,193,94,140,183,60,234,463,450,190,400,420,263,0,,,,,
1,1790112574960,-4752,-3953,28126,7786088,1110553,1027475,0,0,0,384,292,208,354,276,381,307,109,226,263,122,414,0,,,,,
2,1790112574960,-1904,-3058,19215,3954741,-1631010,246789,0,0,0,195,89,159,201,76,254,513,449,229,389,367,277,0,,,,,
1,1790112574976,-4958,-3986,30796,8389623,1451415,1297477,0,0,0,297,239,201,309,229,345,308,110,211,221,106,398,0,,,,,
2,1790112574976,23,-1354,12639,1828930,-1077566,23212,0,0,0,239,106,176,225,103,264,527,386,236,385,333,303,0,,,,,
1,1790112574992,-7441,-1890,30619,8725599,1976759,1571145,0,0,0,238,193,183,294,189,309,308,112,190,219,113,265,0,,,,,
2,1790112574992,540,-1119,9279,404392,-401949,42760,0,0,0,291,142,211,259,161,306,524,333,237,403,318,356,0,,,,,
1,1790112575008,-11385,4192,23086,8321206,1996307,1864360,0,0,0,222,178,175,286,183,299,282,101,167,221,116,243,0,,,,,
2,1790112575008,14,-1134,9873,270002,-223576,47647,0,0,0,332,160,254,283,193,324,529,316,237,394,269,378,0,,,,,
1,1790112575024,-11452,13046,12873,6050009,1087340,2280970,0,0,0,230,177,162,287,180,282,274,102,151,218,115,240,0,,,,,
2,1790112575024,-177,-947,10457,361632,-213802,4886,0,0,0,363,187,288,288,227,320,519,250,248,367,216,400,0,,,,,
1,1790112575040,-8595,17674,9715,2375044,276111,2614503,0,0,0,229,175,150,290,178,272,312,123,162,212,115,226,0,,,,,
2,1790112575040,-38,-775,10342,366519,-141720,-28099,0,0,0,391,204,301,289,231,328,475,190,253,336,189,418,0,,,,,
1,1790112575056,-4685,15017,10375,-1376890,107512,2472782,0,0,0,227,174,147,283,175,271,310,120,159,212,116,223,0,,,,,
2,1790112575056,67,-784,10093,322536,-30543,-36651,0,0,0,416,215,306,289,212,336,445,179,262,308,166,433,0,,,,,
1,1790112575072,-3268,9049,7853,-2868623,521678,1747074,0,0,0,234,179,153,282,172,273,294,108,156,216,115,228,0,,,,,
2,1790112575072,81,-875,10064,321315,1221,-41538,0,0,0,423,236,318,282,218,335,437,170,277,282,137,452,0,,,,,
1,1790112575088,-3115,6877,4245,-2901609,668286,863763,0,0,0,240,186,155,291,175,277,302,112,163,217,115,232,0,,,,,
2,1790112575088,114,-947,10078,340862,-10995,-64751,0,0,0,415,241,327,278,232,346,401,158,269,252,119,457,0,,,,,
1,1790112575104,-2378,8155,3756,-3253468,324980,-2443,0,0,0,235,182,149,291,179,277,275,101,141,222,119,236,0,,,,,
2,1790112575104,76,-1005,9964,324980,-23212,-80634,0,0,0,412,238,302,279,233,359,366,161,274,230,115,465,0,,,,,
1,1790112575120,-2134,8222,4886,-4107457,-156381,-825889,0,0,0,228,174,146,280,171,277,249,87,131,224,119,243,0,,,,,
2,1790112575120,52,-1062,9873,256563,-7330,-74525,0,0,0,424,232,288,286,237,363,350,143,284,227,114,473,0,,,,,
1,1790112575136,-2684,6853,6149,-4781853,-768468,-1295034,0,0,0,229,179,153,282,175,285,269,97,143,225,123,253,0,,,,,
2,1790112575136,90,-1100,9935,212581,19547,-73303,0,0,0,420,249,279,274,249,353,328,136,261,250,147,498,0,,,,,
1,1790112575152,-2502,5704,6958,-5028642,-1373225,-1229060,0,0,0,226,176,152,281,176,285,264,93,143,234,125,256,0,,,,,
2,1790112575152,124,-1091,10155,229685,65973,-84299,0,0,0,412,227,250,292,252,371,328,140,277,247,145,484,0,,,,,
1,1790112575168,-1598,5178,8088,-5254662,-1696983,-867428,0,0,0,232,174,173,296,179,302,238,79,136,224,119,267,0,,,,,
2,1790112575168,62,-1062,10394,309097,105068,-87964,0,0,0,297,169,249,284,238,364,352,133,268,238,112,484,0,,,,,
1,1790112575184,-646,4910,9916,-5590638,-1781283,-284663,0,0,0,229,173,162,303,182,298,272,96,150,227,119,258,0,,,,,
2,1790112575184,110,-1105,10533,400727,109955,-79412,0,0,0,437,235,236,296,256,371,304,147,244,212,106,485,0,,,,,
1,1790112575200,311,4608,12227,-5954714,-1904677,323758,0,0,0,227,179,160,304,186,299,287,103,157,226,119,260,0,,,,,
2,1790112575200,201,-1210,10337,465479,34208,-78190,0,0,0,452,229,211,294,253,363,287,134,241,230,118,505,0,,,,,
1,1790112575216,1359,4106,14687,-6284581,-2102598,729373,0,0,0,225,176,156,293,182,296,289,104,157,227,119,260,0,,,,,
2,1790112575216,67,-1287,9949,460592,-45204,-73303,0,0,0,454,244,213,297,260,361,280,131,245,231,133,516,0,,,,,
1,1790112575232,1981,3053,17520,-6564357,-2302961,846659,0,0,0,226,176,157,288,179,294,277,98,150,228,120,261,0,,,,,
2,1790112575232,47,-1349,9858,434936,-74525,-56199,0,0,0,462,255,196,294,264,356,288,142,246,222,131,519,0,,,,,
1,1790112575248,2613,1770,20703,-6731734,-2471560,736703,0,0,0,233,179,159,298,183,297,306,113,167,224,118,259,0,,,,,
2,1790112575248,248,-1445,9968,420275,-74525,-50090,0,0,0,468,248,182,291,259,352,281,142,241,219,125,520,0,,,,,
1,1790112575264,3196,569,23699,-6802595,-2559525,298102,0,0,0,238,182,164,304,187,301,342,132,191,219,113,258,0,,,,,
2,1790112575264,335,-1541,9911,423940,-89186,-80634,0,0,0,470,243,169,297,263,353,277,149,240,225,128,531,0,,,,,
1,1790112575280,3388,-2187,27489,-6847799,-2863736,-630412,0,0,0,236,181,168,298,184,301,316,118,179,217,110,259,0,,,,,
2,1790112575280,268,-1593,10040,438601,-100181,-111177,0,0,0,467,239,157,308,268,354,272,153,246,229,130,535,0,,,,,
1,1790112575296,4781,-7083,31299,-6871012,-3240029,-1180191,0,0,0,233,181,167,291,182,297,292,103,161,217,108,254,0,,,,,
2,1790112575296,402,-1636,10538,515570,-106290,-139277,0,0,0,460,241,147,322,284,357,271,145,237,232,124,531,0,,,,,
1,1790112575312,6891,-13582,34137,-6893003,-2968805,-1263269,0,0,0,227,181,162,287,180,294,347,128,188,221,113,252,0,,,,,
2,1790112575312,617,-1708,11060,660956,-130725,-193033,0,0,0,454,258,141,333,301,361,275,140,226,232,124,539,0,,,,,
1,1790112575328,5412,-21674,33113,-6725626,-1781283,-976162,0,0,0,219,178,154,285,179,293,366,139,202,219,115,253,0,,,,,
2,1790112575328,569,-1775,11462,878424,-163711,-266337,0,0,0,455,269,151,322,278,361,269,143,241,218,130,542,0,,,,,
1,1790112575344,-2282,-33357,25503,-5832541,-1080009,-278554,0,0,0,214,179,156,281,178,293,380,145,211,213,109,259,0,,,,,
2,1790112575344,71,-1746,11682,1150870,-129503,-298102,0,0,0,465,265,157,294,260,358,279,151,241,213,134,537,0,,,,,
1,1790112575360,-2292,-45115,16467,-4256508,-2053728,828333,0,0,0,215,179,192,284,175,319,385,133,229,219,111,265,0,,,,,
2,1790112575360,-569,-1718,11911,1469741,-26878,-265115,0,0,0,466,229,153,293,260,362,288,157,247,220,120,555,0,,,,,
1,1790112575376,16085,-51146,11380,-2118480,-3287676,1392772,0,0,0,227,189,160,291,176,291,387,138,205,223,111,249,0,,,,,
2,1790112575376,-679,-1804,12610,1865582,134390,-153938,0,0,0,479,244,159,285,249,361,265,130,218,238,123,586,0,,,,,
1,1790112575392,28911,-49064,11801,67195,-946841,-152716,0,0,0,172,179,183,262,186,297,313,193,174,260,227,210,0,,,,,
2,1790112575392,-52,-1962,13749,2304183,246789,-79412,0,0,0,470,250,153,272,241,365,235,127,219,216,132,577,0,,,,,
1,1790112575408,14113,-34199,17066,2075720,1926668,-1462411,0,0,0,188,174,155,250,186,286,347,264,176,299,306,215,0,,,,,
2,1790112575408,923,-2134,15276,2849075,260228,-108734,0,0,0,447,230,162,280,235,344,247,143,252,195,96,557,0,,,,,
1,1790112575424,-7039,6666,16233,4697553,3003013,-780685,0,0,0,197,174,147,294,209,322,371,333,189,346,396,233,0,,,,,
2,1790112575424,2421,-2167,18023,3701843,162490,-302989,0,0,0,429,280,146,274,236,339,219,117,203,199,107,518,0,,,,,
1,1790112575440,-8911,14170,12093,6404311,2662150,-230907,0,0,0,192,158,157,302,184,353,414,394,213,396,439,248,0,,,,,
2,1790112575440,3866,-2053,20684,4731762,-79412,-626747,0,0,0,385,274,150,261,220,331,183,110,195,172,90,459,0,,,,,
1,1790112575456,1330,-4862,16889,6818477,1098335,-1050688,0,0,0,203,155,183,290,162,354,449,428,239,437,456,262,0,,,,,
2,1790112575456,4417,-2033,23598,5968153,-530231,-999375,0,0,0,354,238,138,239,210,310,176,109,193,152,76,429,0,,,,,
1,1790112575472,5417,-8193,25537,6157521,521678,-868650,0,0,0,250,181,232,314,185,363,462,416,255,467,447,296,0,,,,,
2,1790112575472,5259,-3374,28040,7098254,-818559,-1242499,0,0,0,304,171,134,199,156,267,180,111,188,134,65,363,0,,,,,
1,1790112575488,1296,-3728,22335,3436727,855211,158824,0,0,0,313,227,282,356,222,393,457,349,248,482,418,351,0,,,,,
2,1790112575488,5690,-3517,32940,7855726,-748920,-1562593,0,0,0,253,98,112,176,109,222,180,116,154,129,43,255,0,,,,,
1,1790112575504,-1009,-1354,12979,961501,659734,222354,0,0,0,371,264,310,378,244,417,460,288,255,494,393,403,0,,,,,
2,1790112575504,7054,349,33113,8217359,-1163087,-1964542,0,0,0,196,64,106,162,86,203,173,126,134,113,54,162,0,,,,,
1,1790112575520,-837,-650,8241,-87964,128281,-14660,0,0,0,420,273,335,382,245,424,509,310,325,505,347,444,0,,,,,
2,1790112575520,10993,7312,25972,8283332,-1682322,-2382374,0,0,0,168,56,107,156,78,199,167,132,128,102,63,136,0,,,,,
1,1790112575536,-81,-1014,9844,379958,-86742,-85521,0,0,0,444,302,379,391,248,429,494,294,316,447,283,487,0,,,,,
2,1790112575536,12586,16563,12208,6473949,-1264491,-2601064,0,0,0,172,63,109,152,85,197,167,129,129,107,74,153,0,,,,,
1,1790112575552,-363,-1009,10691,489913,-19547,17104,0,0,0,472,292,367,398,250,452,486,270,323,437,253,503,0,,,,,
2,1790112575552,9911,21526,7245,2702467,-441044,-2201558,0,0,0,181,74,114,147,90,195,167,128,136,118,89,168,0,,,,,
1,1790112575568,-603,-861,10337,333532,-20769,73303,0,0,0,472,347,383,399,326,455,464,243,322,434,248,493,0,,,,,
2,1790112575568,5580,19018,9667,-1373225,-274889,-1078788,0,0,0,181,72,112,149,80,192,174,134,144,109,76,161,0,,,,,
1,1790112575584,-454,-847,10064,277332,-109955,52534,0,0,0,485,320,383,409,272,446,479,210,325,413,215,497,0,,,,,
2,1790112575584,5551,12869,7853,-2772106,-1047023,-79412,0,0,0,191,84,115,154,80,192,193,143,151,86,61,135,0,,,,,
1,1790112575600,-421,-899,10169,306654,-175929,43982,0,0,0,486,313,339,399,264,449,477,183,328,384,199,496,0,,,,,
2,1790112575600,7245,10404,3737,-2724458,-1048244,280998,0,0,0,213,106,126,166,84,197,189,139,140,119,74,149,0,,,,,
1,1790112575616,-502,-947,10318,349414,-201585,61086,0,0,0,495,324,335,399,275,445,466,140,301,367,173,492,0,,,,,
2,1790112575616,6805,10964,2086,-3045774,226020,373849,0,0,0,178,85,113,148,73,188,178,130,129,110,90,144,0,,,,,
1,1790112575632,-559,-971,10323,414166,-188146,85521,0,0,0,507,333,330,396,275,443,458,116,295,350,151,500,0,,,,,
2,1790112575632,3340,10098,5556,-4309043,1065348,653625,0,0,0,179,86,115,152,84,189,179,137,137,122,88,168,0,,,,,
1,1790112575648,-574,-1033,10361,500909,-156381,98960,0,0,0,495,337,302,402,276,434,421,108,276,345,150,494,0,,,,,
2,1790112575648,1804,7815,8193,-5269323,1148426,939510,0,0,0,181,92,117,152,92,199,176,138,139,99,73,180,0,,,,,
1,1790112575664,-579,-1124,10701,572991,-97738,103847,0,0,0,484,332,261,407,284,429,417,116,281,337,148,490,0,,,,,
2,1790112575664,2703,5757,9040,-5618738,1214400,954171,0,0,0,171,83,110,150,88,188,176,130,134,118,78,181,0,,,,,
1,1790112575680,-559,-1220,10969,676838,-56199,105068,0,0,0,482,323,239,411,289,440,426,120,295,332,143,490,0,,,,,
2,1790112575680,2890,4522,10299,-5823989,1589471,825889,0,0,0,170,81,104,147,88,188,179,137,142,133,96,188,0,,,,,
1,1790112575696,-454,-1325,10653,790459,-81855,103847,0,0,0,465,330,243,423,292,454,378,102,264,346,149,475,0,,,,,
2,1790112575696,1785,3862,12802,-6072000,1959655,704938,0,0,0,170,93,108,147,102,191,176,134,134,109,82,175,0,,,,,
1,1790112575712,-282,-1450,9978,797790,-135612,81855,0,0,0,465,352,238,418,301,454,369,101,258,343,147,476,0,,,,,
2,1790112575712,1277,3235,15534,-6427524,1970651,739146,0,0,0,164,97,120,144,98,200,169,129,144,119,81,194,0,,,,,
1,1790112575728,-258,-1598,9466,723264,-146607,45204,0,0,0,476,326,231,420,299,430,376,100,243,340,150,484,0,,,,,
2,1790112575728,1813,2096,17817,-6780604,2112371,766025,0,0,0,146,98,122,138,102,199,180,137,147,116,77,185,0,,,,,
1,1790112575744,-555,-1775,9155,588874,-116064,18325,0,0,0,459,325,252,427,299,442,397,100,258,350,147,477,0,,,,,
2,1790112575744,1722,215,20124,-6943094,2582738,724486,0,0,0,137,99,118,139,104,196,179,140,142,105,78,163,0,,,,,
1,1790112575760,-985,-1890,9198,459370,-74525,63529,0,0,0,470,328,245,425,312,446,381,108,258,336,147,486,0,,,,,
2,1790112575760,86,-1914,22852,-6707300,2916270,789237,0,0,0,140,102,116,154,104,196,176,133,135,111,85,165,0,,,,,
1,1790112575776,-1139,-1933,9542,370184,-43982,162490,0,0,0,478,314,247,422,307,445,357,98,256,363,162,502,0,,,,,
2,1790112575776,-1727,-3656,25790,-6377433,2983465,1034805,0,0,0,136,102,114,154,107,198,176,127,129,113,83,170,0,,,,,
1,1790112575792,-837,-1923,9944,367740,-30543,240680,0,0,0,493,330,236,407,310,443,381,112,277,352,163,515,0,,,,,
2,1790112575792,-3263,-5379,28815,-6363994,2790432,1346346,0,0,0,127,97,112,141,108,200,179,124,129,109,80,163,0,,,,,
1,1790112575808,-559,-1943,10198,409279,-30543,282219,0,0,0,500,359,230,424,325,447,404,118,285,333,151,512,0,,,,,
2,1790112575808,-3508,-10174,31203,-6754947,2210110,1379333,0,0,0,124,94,109,143,103,198,185,121,134,111,81,162,0,,,,,
1,1790112575824,-167,-1990,10122,483805,-43982,270002,0,0,0,502,358,238,435,321,452,359,100,253,338,154,516,0,,,,,
2,1790112575824,-1373,-18592,31461,-6882007,1236391,973719,0,0,0,125,87,111,145,96,204,185,124,142,106,68,165,0,,,,,
1,1790112575840,148,-2038,10059,538783,-54977,210137,0,0,0,496,357,256,432,322,460,336,96,240,347,162,513,0,,,,,
2,1790112575840,1842,-27240,26972,-6131865,720820,339641,0,0,0,126,84,121,147,90,218,188,135,153,102,68,156,0,,,,,
1,1790112575856,71,-2067,10638,609643,-48869,113620,0,0,0,501,357,254,431,334,470,336,102,242,341,163,519,0,,,,,
2,1790112575856,1823,-36912,18884,-4638910,1142317,-350636,0,0,0,136,95,123,150,90,213,189,132,152,100,67,140,0,,,,,
1,1790112575872,-363,-2110,11734,803898,-15882,57421,0,0,0,514,361,237,435,338,467,323,101,233,333,162,535,0,,,,,
2,1790112575872,-7030,-44302,13821,-2999348,2114815,-740368,0,0,0,133,98,124,149,92,222,190,132,149,108,76,170,0,,,,,
1,1790112575888,-636,-2182,12629,1121548,12217,47647,0,0,0,515,368,238,433,329,451,334,105,238,342,164,534,0,,,,,
2,1790112575888,-19593,-47719,14228,-1167974,1435533,-461814,0,0,0,136,89,123,149,83,217,191,128,154,102,75,146,0,,,,,
1,1790112575904,-760,-2249,13385,1567480,2443,70860,0,0,0,521,337,237,429,323,443,343,100,244,353,163,538,0,,,,,
2,1790112575904,-19789,-43201,15180,742812,-588874,179594,0,0,0,129,87,109,165,86,197,221,190,154,125,146,110,0,,,,,
1,1790112575920,-1048,-2278,14113,2113593,-59864,125838,0,0,0,510,344,247,433,338,456,281,83,224,355,175,525,0,,,,,
2,1790112575920,-6034,-21919,17702,2240653,-1839926,215024,0,0,0,130,72,101,169,80,204,290,229,162,225,206,143,0,,,,,
1,1790112575936,-1397,-2278,14735,2746450,-216246,240680,0,0,0,507,344,228,417,346,451,314,106,258,346,168,535,0,,,,,
2,1790112575936,6379,17185,15348,3747047,-2665815,-224798,0,0,0,142,103,147,162,94,256,306,343,211,238,282,200,0,,,,,
1,1790112575952,-1646,-2172,16496,3640756,-543670,456927,0,0,0,476,350,241,443,346,457,324,106,293,339,168,503,0,,,,,
2,1790112575952,8021,26441,7231,5380501,-3687182,-480140,0,0,0,154,113,167,169,89,287,365,428,216,246,384,224,0,,,,,
1,1790112575968,-1646,-1976,20459,4855156,-830776,669508,0,0,0,449,345,224,436,327,462,295,92,267,317,149,479,0,,,,,
2,1790112575968,459,-3809,14745,6533814,-3458718,360410,0,0,0,156,91,144,181,80,277,417,466,221,340,428,238,0,,,,,
1,1790112575984,-2335,-2230,23622,6139195,-574213,755029,0,0,0,431,309,215,426,316,438,302,94,250,311,134,457,0,,,,,
2,1790112575984,-4809,-12371,27542,6432410,-2704911,955393,0,0,0,174,88,138,186,77,244,443,476,214,387,423,229,0,,,,,
1,1790112576000,-3158,-3445,25690,7138571,-184481,814894,0,0,0,417,280,209,379,275,401,316,98,232,279,119,429,0,,,,,
2,1790112576000,-3206,-3584,24134,4224743,-1858252,570548,0,0,0,196,91,158,188,70,240,450,421,224,369,371,237,0,,,,,
1,1790112576016,-3067,-4484,28848,7757988,160046,915076,0,0,0,359,242,198,334,235,364,318,101,222,231,99,400,0,,,,,
2,1790112576016,-291,971,13371,1738522,-1016479,197920,0,0,0,230,93,187,208,87,252,463,338,232,370,325,265,0,,,,,
1,1790112576032,-4288,-3618,30940,7907039,1108109,1095892,0,0,0,282,202,204,302,193,355,294,88,202,215,93,308,0,,,,,
2,1790112576032,741,-449,7623,439822,-450818,119729,0,0,0,277,122,216,236,143,270,492,295,235,391,311,304,0,,,,,
1,1790112576048,-8791,296,28097,7648032,2250427,1321912,0,0,0,256,181,199,296,179,339,306,96,198,214,97,264,0,,,,,
2,1790112576048,114,-1483,9509,388510,-326202,103847,0,0,0,314,165,256,252,189,296,528,295,250,403,301,352,0,,,,,
1,1790112576064,-12959,10327,17999,6352998,2205223,1644449,0,0,0,259,187,190,294,189,324,312,107,195,209,102,255,0,,,,,
2,1790112576064,-153,-1143,10768,401949,-295658,36651,0,0,0,343,185,328,265,204,320,543,279,263,402,280,385,0,,,,,
1,1790112576080,-12964,18133,11012,3662747,1199739,2014633,0,0,0,252,193,187,283,189,314,303,108,190,205,106,241,0,,,,,
2,1790112576080,-9,-650,10409,328645,-200363,-13439,0,0,0,364,195,371,281,231,351,508,218,278,368,254,386,0,,,,,
1,1790112576096,-7824,17425,10107,282219,229685,2090380,0,0,0,237,179,180,275,177,305,317,114,196,208,109,234,0,,,,,
2,1790112576096,95,-617,9983,268780,-85521,-20769,0,0,0,378,209,339,285,240,316,486,204,257,349,219,393,0,,,,,
1,1790112576112,-3637,12691,8145,-1450194,807563,1594358,0,0,0,228,175,175,278,180,307,326,121,201,211,113,233,0,,,,,
2,1790112576112,105,-746,9978,263893,-10995,-15882,0,0,0,380,214,373,270,234,334,454,231,303,320,190,422,0,,,,,
1,1790112576128,-3527,10284,4527,-2307848,1761735,901637,0,0,0,225,175,177,293,185,312,312,115,191,215,119,236,0,,,,,
2,1790112576128,110,-722,10074,288328,-29321,-23212,0,0,0,389,213,383,289,255,341,451,160,272,275,146,412,0,,,,,
1,1790112576144,-5417,9853,3244,-3037221,1748296,439822,0,0,0,231,178,150,302,193,295,334,129,187,217,119,227,0,,,,,
2,1790112576144,143,-722,10107,317649,-68416,-34208,0,0,0,395,237,336,289,233,338,401,157,256,243,141,420,0,,,,,
1,1790112576160,-5857,8791,3694,-3889989,1271821,184481,0,0,0,230,178,150,304,192,297,315,113,172,224,115,228,0,,,,,
2,1790112576160,167,-789,10160,356745,-92851,-45204,0,0,0,413,245,344,300,270,377,405,140,262,253,137,477,0,,,,,
1,1790112576176,-5503,7217,4714,-4653571,731816,39095,0,0,0,219,176,142,288,189,296,298,107,164,219,120,231,0,,,,,
2,1790112576176,162,-866,10256,427605,-90408,-53756,0,0,0,424,254,287,305,267,348,347,115,221,220,108,453,0,,,,,
1,1790112576192,-5604,5891,5604,-5209458,241902,-67195,0,0,0,226,177,150,301,193,300,298,110,168,220,119,236,0,,,,,
2,1790112576192,134,-928,10332,508239,-79412,-61086,0,0,0,426,286,255,305,278,356,350,133,243,209,107,474,0,,,,,
1,1790112576208,-5891,4781,6834,-5602855,-322536,-147829,0,0,0,228,177,154,306,195,311,267,98,153,225,121,241,0,,,,,
2,1790112576208,110,-966,10418,583987,-42760,-62308,0,0,0,428,256,223,296,271,365,345,115,235,192,92,480,0,,,,,
1,1790112576224,-5652,3948,8676,-5842315,-825889,-249233,0,0,0,220,173,173,294,188,321,253,92,154,221,118,248,0,,,,,
2,1790112576224,172,-1033,10495,629191,15882,-67195,0,0,0,420,245,209,293,268,357,323,127,242,172,73,481,0,,,,,
1,1790112576240,-5407,3407,11222,-6123313,-1242499,-427605,0,0,0,215,169,187,286,181,327,260,91,164,217,112,251,0,,,,,
2,1790112576240,191,-1134,10461,652404,32986,-81855,0,0,0,418,269,200,285,291,353,304,133,248,193,106,489,0,,,,,
1,1790112576256,-5733,3015,13960,-6473949,-1541823,-630412,0,0,0,217,168,194,289,180,332,283,96,177,219,110,252,0,,,,,
2,1790112576256,119,-1258,10059,634078,-31764,-85521,0,0,0,424,269,195,282,297,350,286,120,235,210,125,489,0,,,,,
1,1790112576272,-6446,2019,16965,-6856351,-2006081,-773355,0,0,0,223,166,199,298,181,337,310,102,190,225,110,253,0,,,,,
2,1790112576272,105,-1397,9566,564439,-96516,-75747,0,0,0,429,251,189,290,281,347,309,122,229,226,122,490,0,,,,,
1,1790112576288,-6661,607,20378,-7131240,-2572964,-856433,0,0,0,219,165,199,298,183,340,324,111,201,222,110,253,0,,,,,
2,1790112576288,191,-1541,9227,450818,-131946,-72082,0,0,0,440,251,179,299,284,350,333,138,237,245,133,500,0,,,,,
1,1790112576304,-5805,-1555,24828,-7228979,-3026226,-1086118,0,0,0,208,167,202,285,189,342,325,122,213,214,114,258,0,,,,,
2,1790112576304,90,-1631,9126,313984,-141720,-83077,0,0,0,458,251,176,311,308,355,292,135,234,226,137,505,0,,,,,
1,1790112576320,-4426,-4651,28848,-7210653,-3308446,-1634675,0,0,0,216,169,207,296,189,348,303,111,200,223,116,263,0,,,,,
2,1790112576320,-19,-1603,9581,245567,-124616,-76969,0,0,0,449,247,172,320,313,365,300,130,239,220,132,519,0,,,,,
1,1790112576336,-2120,-10050,32313,-7002959,-3714060,-2581516,0,0,0,216,168,207,299,192,350,301,106,197,212,108,258,0,,,,,
2,1790112576336,-4,-1574,10050,254119,-105068,-64751,0,0,0,434,259,171,301,285,359,288,128,247,208,112,522,0,,,,,
1,1790112576352,995,-16908,34601,-6638883,-3920533,-3347541,0,0,0,202,165,215,280,181,353,324,109,220,209,104,262,0,,,,,
2,1790112576352,-33,-1579,10246,312763,-83077,-56199,0,0,0,437,260,156,302,279,357,288,145,253,210,124,530,0,,,,,
1,1790112576368,1732,-25479,33175,-6108652,-3004235,-3571118,0,0,0,199,167,213,281,183,365,370,130,249,208,102,268,0,,,,,
2,1790112576368,-23,-1603,10595,411723,-41538,-43982,0,0,0,432,229,149,317,287,361,292,139,249,210,102,526,0,,,,,
1,1790112576384,-5599,-35596,24546,-4977329,-1715309,-2697580,0,0,0,204,175,210,286,192,353,309,102,205,215,106,275,0,,,,,
2,1790112576384,162,-1651,11289,621860,23212,-52534,0,0,0,457,242,158,320,293,360,288,132,239,221,116,548,0,,,,,
1,1790112576400,-7394,-43235,15979,-3369532,-2300518,-852767,0,0,0,201,166,210,287,180,354,334,109,223,218,104,279,0,,,,,
2,1790112576400,277,-1703,11921,897971,91629,-78190,0,0,0,480,237,155,312,285,364,276,192,233,234,161,559,0,,,,,
1,1790112576416,8657,-44603,13299,-1649336,-3302337,762359,0,0,0,203,164,210,287,177,354,354,117,236,219,103,274,0,,,,,
2,1790112576416,459,-1756,12869,1318247,177150,-125838,0,0,0,474,215,160,309,255,373,289,146,253,205,97,578,0,,,,,
1,1790112576432,23790,-42249,13807,23212,-1872912,640186,0,0,0,190,158,192,286,185,331,349,161,220,254,173,241,0,,,,,
2,1790112576432,971,-1832,14237,1882686,245567,-208915,0,0,0,445,214,152,302,252,361,274,126,232,206,84,574,0,,,,,
1,1790112576448,16128,-33371,17157,1654223,1123992,-752585,0,0,0,193,169,163,281,183,309,342,221,188,294,266,225,0,,,,,
2,1790112576448,1517,-1904,15453,2585181,296880,-361632,0,0,0,433,226,148,304,241,354,261,127,225,203,103,573,0,,,,,
1,1790112576464,-2651,-2048,18674,3953519,2359161,-1048244,0,0,0,203,183,148,298,190,314,344,267,174,330,337,232,0,,,,,
2,1790112576464,1387,-1655,17496,3483153,443488,-537561,0,0,0,394,209,138,279,241,361,256,129,240,195,84,546,0,,,,,
1,1790112576480,-8542,14668,13290,6052452,2417804,-690277,0,0,0,205,185,157,314,195,339,385,327,197,356,373,244,0,,,,,
2,1790112576480,1464,-1177,20555,4579045,586430,-678060,0,0,0,360,223,135,275,243,354,239,126,227,194,100,507,0,,,,,
1,1790112576496,-1761,-622,12668,7127575,1717753,-816115,0,0,0,207,174,174,312,184,358,439,391,230,388,393,261,0,,,,,
2,1790112576496,1794,-713,24101,5949827,505796,-789237,0,0,0,335,227,134,258,242,327,207,118,197,178,110,463,0,,,,,
1,1790112576512,4211,-7954,22474,7105584,1144761,-943175,0,0,0,230,177,184,331,190,367,450,419,243,443,423,296,0,,,,,
2,1790112576512,2249,-1325,27461,7138571,277332,-808785,0,0,0,314,183,130,228,192,289,188,115,172,156,98,399,0,,,,,
1,1790112576528,2890,-5321,26810,5759237,1110553,-202807,0,0,0,276,224,218,357,219,384,474,444,288,464,410,357,0,,,,,
2,1790112576528,3732,-2201,31572,8157494,301767,-878424,0,0,0,278,127,116,193,132,244,177,109,147,136,78,302,0,,,,,
1,1790112576544,-1086,-3000,17075,1997529,805120,202807,0,0,0,364,269,259,374,238,408,479,391,297,459,359,447,0,,,,,
2,1790112576544,5508,-497,32270,8563108,331088,-1230282,0,0,0,209,91,101,161,100,201,169,107,125,119,73,194,0,,,,,
1,1790112576560,-1603,-1660,8872,-238237,216246,57421,0,0,0,423,299,270,387,262,425,472,328,282,465,318,470,0,,,,,
2,1790112576560,8375,3838,28279,8792794,272445,-1733635,0,0,0,157,60,101,150,64,185,171,121,120,103,84,135,0,,,,,
1,1790112576576,-851,-1100,8925,56199,-2443,-54977,0,0,0,447,301,300,413,268,442,461,266,295,444,283,501,0,,,,,
2,1790112576576,9925,12318,17138,8228354,693942,-2343279,0,0,0,176,51,106,155,62,200,169,111,126,98,76,139,0,,,,,
1,1790112576592,-760,-1076,10480,507018,2443,-13439,0,0,0,486,308,341,397,263,458,498,228,313,436,257,528,0,,,,,
2,1790112576592,6322,21229,7441,4757418,718377,-2543642,0,0,0,190,66,109,160,65,187,179,116,124,116,72,155,0,,,,,
1,1790112576608,-981,-1229,10748,486248,-1221,46425,0,0,0,495,336,315,398,300,437,505,226,329,406,242,521,0,,,,,
2,1790112576608,3546,22770,7188,-316428,-252898,-1948660,0,0,0,210,72,105,169,71,191,172,121,118,120,77,142,0,,,,,
1,1790112576624,-914,-1244,10141,328645,-117286,40317,0,0,0,500,341,301,395,297,453,507,206,338,371,207,521,0,,,,,
2,1790112576624,5221,15649,7542,-3127630,-1226617,-1328021,0,0,0,183,72,108,159,78,193,180,122,132,101,72,130,0,,,,,
1,1790112576640,-899,-1234,10011,311541,-204028,30543,0,0,0,499,358,284,405,315,452,484,184,327,360,196,511,0,,,,,
2,1790112576640,7178,10256,4297,-3514918,-1093448,-1329242,0,0,0,179,88,108,160,91,198,172,122,131,118,74,154,0,,,,,
1,1790112576656,-1005,-1263,10198,366519,-228463,47647,0,0,0,488,367,264,419,333,455,412,128,274,374,197,492,0,,,,,
2,1790112576656,6025,9715,1794,-3100751,228463,-1602910,0,0,0,175,81,105,157,82,197,177,125,131,111,81,151,0,,,,,
1,1790112576672,-1033,-1335,10150,373849,-182037,72082,0,0,0,474,374,258,425,338,459,379,104,259,371,193,484,0,,,,,
2,1790112576672,1722,10303,4139,-3824016,1308473,-1260825,0,0,0,172,80,107,156,85,200,188,131,131,106,79,147,0,,,,,
1,1790112576688,-1028,-1392,10179,364075,-128281,85521,0,0,0,471,374,246,426,333,463,415,122,288,348,182,487,0,,,,,
2,1790112576688,-1129,9351,6901,-4742757,1566258,-544891,0,0,0,172,82,115,157,87,200,180,130,129,109,87,147,0,,,,,
1,1790112576704,-971,-1430,10480,427605,-149051,87964,0,0,0,469,363,236,430,326,465,411,119,281,337,172,487,0,,,,,
2,1790112576704,-918,7274,8413,-5316971,1447750,232128,0,0,0,171,80,108,158,88,196,168,127,119,112,81,147,0,,,,,
1,1790112576720,-990,-1474,10658,532674,-168598,84299,0,0,0,459,349,243,434,318,458,355,97,249,346,166,480,0,,,,,
2,1790112576720,-177,5704,9490,-5538104,1609019,675616,0,0,0,170,80,107,156,84,195,174,136,133,107,87,153,0,,,,,
1,1790112576736,-1028,-1555,10466,626747,-123394,85521,0,0,0,459,339,232,429,307,451,370,102,276,350,161,483,0,,,,,
2,1790112576736,-277,4848,11198,-5687155,1918116,825889,0,0,0,166,87,106,157,97,198,181,144,147,103,91,161,0,,,,,
1,1790112576752,-851,-1694,9906,615752,-70860,74525,0,0,0,467,332,218,414,304,443,412,121,311,341,163,498,0,,,,,
2,1790112576752,-469,4613,13563,-6068335,1975538,759916,0,0,0,172,98,105,186,108,200,190,145,147,107,78,158,0,,,,,
1,1790112576768,-804,-1847,9370,547335,-68416,47647,0,0,0,477,333,222,413,305,449,401,123,285,338,156,505,0,,,,,
2,1790112576768,-172,4221,15721,-6542366,1988977,554665,0,0,0,165,103,112,192,106,207,195,146,147,110,75,163,0,,,,,
1,1790112576784,-894,-1943,9083,444709,-78190,30543,0,0,0,477,334,224,409,296,454,372,109,271,344,163,493,0,,,,,
2,1790112576784,-201,2316,17970,-6796486,2122145,223576,0,0,0,136,101,121,150,108,219,189,142,151,100,80,165,0,,,,,
1,1790112576800,-981,-2005,9073,337197,-74525,26878,0,0,0,488,339,220,409,296,446,404,133,294,341,160,508,0,,,,,
2,1790112576800,-473,-502,20047,-6541144,2277305,-31764,0,0,0,135,100,122,148,104,217,196,133,158,95,66,147,0,,,,,
1,1790112576816,-1019,-2019,9413,234572,-48869,35430,0,0,0,493,334,223,427,291,446,431,125,299,341,152,509,0,,,,,
2,1790112576816,-689,-2952,22373,-5918062,2448347,-140499,0,0,0,136,97,121,152,100,222,195,125,151,103,61,159,0,,,,,
1,1790112576832,-1014,-2019,9719,188146,-23212,41538,0,0,0,488,347,228,444,310,448,372,99,255,331,149,525,0,,,,,
2,1790112576832,-1478,-3799,25374,-5792224,2582738,-68416,0,0,0,138,103,126,155,103,224,198,122,153,101,63,151,0,,,,,
1,1790112576848,-1048,-2005,10078,196698,-30543,56199,0,0,0,496,361,223,442,316,461,365,108,266,334,155,522,0,,,,,
2,1790112576848,-3125,-5680,28011,-6137973,2508212,92851,0,0,0,139,99,121,150,99,220,193,124,144,91,63,140,0,,,,,
1,1790112576864,-1091,-1990,10576,311541,-76969,86742,0,0,0,497,352,216,433,321,458,394,113,272,335,161,524,0,,,,,
2,1790112576864,-4613,-10466,29293,-6548475,2003637,343306,0,0,0,135,100,121,159,101,223,194,111,143,100,52,135,0,,,,,
1,1790112576880,-1005,-2024,10796,469144,-129503,116064,0,0,0,502,349,214,428,323,463,396,121,282,328,165,534,0,,,,,
2,1790112576880,-2263,-17468,28087,-6337115,1127657,543670,0,0,0,135,101,122,158,104,223,178,111,136,109,85,155,0,,,,,
1,1790112576896,-717,-2129,10662,649960,-200363,118507,0,0,0,514,346,214,425,317,476,375,119,282,328,164,546,0,,,,,
2,1790112576896,2057,-25374,23972,-5568647,610865,585208,0,0,0,138,102,124,161,103,224,201,124,150,106,77,149,0,,,,,
1,1790112576912,-655,-2206,10839,792903,-265115,72082,0,0,0,521,334,215,429,308,487,339,100,262,331,158,551,0,,,,,
2,1790112576912,2680,-32624,17927,-4360356,1183856,384845,0,0,0,134,108,120,157,105,221,203,135,153,98,65,155,0,,,,,
1,1790112576928,-880,-2278,11361,978606,-307876,29321,0,0,0,523,328,215,431,312,491,313,91,258,331,158,550,0,,,,,
2,1790112576928,-5642,-41789,13912,-2824640,2039068,-107512,0,0,0,139,108,120,165,107,225,210,135,152,94,65,141,0,,,,,
1,1790112576944,-1249,-2354,11974,1248608,-310319,32986,0,0,0,522,335,212,424,330,485,318,101,278,339,171,549,0,,,,,
2,1790112576944,-17166,-47992,12725,-1018923,1674992,-428827,0,0,0,133,88,112,169,90,213,211,136,148,112,78,126,0,,,,,
1,1790112576960,-1631,-2421,12916,1606575,-300545,79412,0,0,0,517,356,219,438,345,474,310,103,263,349,181,546,0,,,,,
2,1790112576960,-17492,-39947,14448,1053131,-283441,-87964,0,0,0,129,80,102,165,83,201,262,199,158,174,161,131,0,,,,,
1,1790112576976,-2096,-2459,14185,2103819,-259006,179594,0,0,0,503,356,255,445,344,471,278,92,234,351,181,529,0,,,,,
2,1790112576976,-3924,-9428,17161,3138625,-2340835,366519,0,0,0,131,85,113,159,91,217,304,271,172,211,254,159,0,,,,,
1,1790112576992,-2455,-2488,14974,2739119,-191811,342084,0,0,0,501,339,246,432,358,471,286,100,257,345,183,518,0,,,,,
2,1790112576992,10801,27733,12275,5185024,-4669453,378736,0,0,0,144,99,131,165,98,236,331,376,182,234,344,182,0,,,,,
1,1790112577008,-2206,-2450,15965,3473379,-153938,511905,0,0,0,482,323,241,432,322,473,266,78,257,333,153,502,0,,,,,
2,1790112577008,4642,7843,11931,6020687,-5602855,574213,0,0,0,151,104,135,181,98,246,368,483,195,263,413,197,0,,,,,
1,1790112577024,-2464,-2383,17544,4316373,-123394,629191,0,0,0,446,325,240,436,327,469,260,69,231,319,152,472,0,,,,,
2,1790112577024,-4187,-9935,18635,6181956,-4448320,1387885,0,0,0,156,98,131,189,92,247,392,519,202,297,431,218,0,,,,,
1,1790112577040,-3642,-2742,20157,5396383,24434,825889,0,0,0,430,316,219,421,304,440,277,92,271,299,135,452,0,,,,,
2,1790112577040,-7781,-6508,24288,5584530,-2404365,1500285,0,0,0,174,98,128,188,83,235,418,501,198,351,431,233,0,,,,,
1,1790112577056,-4331,-3823,23852,6394537,390953,1020144,0,0,0,418,292,204,401,280,405,297,95,243,275,116,429,0,,,,,
2,1790112577056,-4187,95,20287,4214970,-1376890,649960,0,0,0,187,97,139,203,81,229,462,471,194,373,429,237,0,,,,,
1,1790112577072,-5838,-5005,27939,7182553,763581,1198517,0,0,0,387,252,220,359,242,366,277,96,215,242,100,407,0,,,,,
2,1790112577072,9,86,12026,2227214,-940732,85521,0,0,0,216,105,172,225,93,232,502,411,196,371,379,258,0,,,,,
1,1790112577088,-6164,-4101,30332,7656584,1109331,1484402,0,0,0,305,225,206,318,225,338,281,118,201,214,114,336,0,,,,,
2,1790112577088,-258,-2234,9700,864985,-560774,108734,0,0,0,271,137,207,236,149,267,540,372,233,387,349,304,0,,,,,
1,1790112577104,-7379,-325,28772,7930252,1875356,1778839,0,0,0,256,206,192,306,207,325,306,124,199,211,116,278,0,,,,,
2,1790112577104,-1048,-2421,10122,290771,-312763,87964,0,0,0,305,177,287,250,186,299,551,358,268,387,349,326,0,,,,,
1,1790112577120,-9882,5183,23359,7674910,2204001,1920560,0,0,0,252,189,194,307,190,324,314,113,198,223,110,261,0,,,,,
2,1790112577120,-894,-1296,10437,324980,-207694,23212,0,0,0,327,199,270,279,207,334,564,272,269,500,285,352,0,,,,,
1,1790112577136,-10591,10050,15764,6368880,1717753,1927890,0,0,0,250,180,201,299,186,328,311,111,200,224,111,257,0,,,,,
2,1790112577136,-598,-899,10193,340862,-124616,1221,0,0,0,348,200,316,283,234,328,587,282,288,395,270,376,0,,,,,
1,1790112577152,-7561,11682,11414,3467271,698829,1436755,0,0,0,248,176,200,294,183,325,319,114,200,218,109,251,0,,,,,
2,1790112577152,-512,-1086,9973,277332,-34208,10995,0,0,0,361,195,312,285,214,310,572,252,285,338,213,380,0,,,,,
1,1790112577168,-4278,11241,8801,796568,263893,668286,0,0,0,243,175,175,291,181,311,321,110,183,236,114,242,0,,,,,
2,1790112577168,-607,-1153,10064,255341,28099,3665,0,0,0,367,198,314,281,214,303,532,220,296,306,209,370,0,,,,,
1,1790112577184,-2555,9408,5972,-1072679,631634,-41538,0,0,0,229,179,154,281,190,295,322,129,185,255,124,230,0,,,,,
2,1790112577184,-612,-1143,10074,263893,58643,-3665,0,0,0,368,201,315,295,223,319,535,188,284,279,153,384,0,,,,,
1,1790112577200,-3503,7925,3364,-1886351,1391551,-254119,0,0,0,230,184,158,273,182,301,335,136,201,220,121,233,0,,,,,
2,1790112577200,-492,-1148,10064,283441,57421,-8552,0,0,0,371,206,295,296,219,330,515,173,281,249,125,392,0,,,,,
1,1790112577216,-4627,8083,2479,-2493551,1649336,-118507,0,0,0,218,169,165,275,183,290,351,142,197,223,123,226,0,,,,,
2,1790112577216,-425,-1186,10122,318871,57421,-17104,0,0,0,388,213,294,293,220,339,460,172,283,233,130,402,0,,,,,
1,1790112577232,-5417,8193,2991,-3613878,1423316,167377,0,0,0,223,166,149,284,176,288,361,133,200,233,117,228,0,,,,,
2,1790112577232,-435,-1253,10212,395840,85521,-30543,0,0,0,390,227,281,315,246,338,435,162,276,235,119,413,0,,,,,
1,1790112577248,-5843,7078,3823,-4681671,952949,525344,0,0,0,223,160,147,291,178,292,370,136,203,239,117,241,0,,,,,
2,1790112577248,-454,-1282,10366,507018,164933,-35430,0,0,0,382,232,227,316,257,325,428,142,267,236,106,421,0,,,,,
1,1790112577264,-5293,5403,4666,-5242445,310319,866206,0,0,0,217,162,144,287,181,289,355,142,204,233,121,237,0,,,,,
2,1790112577264,-445,-1330,10418,626747,280998,-35430,0,0,0,394,220,188,288,245,323,391,142,269,230,117,439,0,,,,,
1,1790112577280,-4168,4398,5666,-5511226,-251676,959058,0,0,0,212,194,144,286,198,289,355,149,200,228,132,235,0,,,,,
2,1790112577280,-311,-1459,10212,691499,372627,-30543,0,0,0,394,219,173,305,269,328,366,155,275,226,112,446,0,,,,,
1,1790112577296,-3192,4053,7111,-5728694,-659734,697608,0,0,0,214,195,144,289,198,289,361,149,200,229,130,233,0,,,,,
2,1790112577296,-138,-1612,9968,681725,379958,-40317,0,0,0,398,234,178,286,294,333,333,140,262,192,97,444,0,,,,,
1,1790112577312,-2785,3819,9227,-6041457,-1038470,87964,0,0,0,214,184,146,290,194,292,364,147,203,229,127,234,0,,,,,
2,1790112577312,-47,-1756,9796,627969,298102,-64751,0,0,0,407,245,196,291,247,344,325,141,267,201,105,471,0,,,,,
1,1790112577328,-2938,3536,11222,-6316346,-1392772,-531452,0,0,0,214,182,150,292,195,300,364,147,205,224,123,241,0,,,,,
2,1790112577328,-86,-1876,9552,547335,151494,-87964,0,0,0,405,262,172,290,269,326,331,159,269,210,139,472,0,,,,,
1,1790112577344,-3474,2971,13390,-6544810,-1832595,-1027475,0,0,0,215,184,152,293,197,302,365,147,205,222,123,248,0,,,,,
2,1790112577344,-210,-1966,9126,406836,15882,-81855,0,0,0,405,230,166,303,254,334,328,139,259,216,89,485,0,,,,,
1,1790112577360,-3814,1904,15898,-6724404,-2307848,-1320690,0,0,0,214,186,161,289,195,305,365,146,211,227,127,255,0,,,,,
2,1790112577360,-239,-2029,8973,235793,-64751,-63529,0,0,0,420,235,196,302,245,334,333,138,260,217,101,477,0,,,,,
1,1790112577376,-3752,90,18688,-6761056,-2671924,-1396437,0,0,0,211,186,179,286,189,319,366,141,226,225,125,263,0,,,,,
2,1790112577376,-90,-2014,9356,112399,-98960,-56199,0,0,0,422,242,174,315,259,346,316,113,246,227,124,498,0,,,,,
1,1790112577392,-3182,-2258,22005,-6554584,-2966361,-1341460,0,0,0,210,190,176,290,192,315,374,146,225,226,126,262,0,,,,,
2,1790112577392,-62,-1976,9729,70860,-120951,-69638,0,0,0,420,244,173,310,248,339,322,119,252,214,99,484,0,,,,,
1,1790112577408,-1493,-3656,25034,-6368880,-3176499,-1318247,0,0,0,211,187,175,290,190,315,372,146,224,229,134,267,0,,,,,
2,1790112577408,-196,-1952,9853,75747,-138055,-83077,0,0,0,424,249,179,310,256,334,321,127,258,222,108,486,0,,,,,
1,1790112577424,1158,-4465,27566,-6401867,-3034778,-1590693,0,0,0,207,183,174,294,189,320,374,141,227,230,128,270,0,,,,,
2,1790112577424,-349,-1981,9581,50090,-140499,-72082,0,0,0,428,246,182,308,250,341,338,129,276,221,103,496,0,,,,,
1,1790112577440,2206,-5876,28925,-6461732,-2511877,-2042733,0,0,0,207,177,178,290,188,321,370,154,228,226,135,270,0,,,,,
2,1790112577440,-358,-2005,9547,0,-128281,-50090,0,0,0,422,283,184,295,272,341,354,130,285,212,95,490,0,,,,,
1,1790112577456,526,-7954,28485,-6350555,-1871691,-2188119,0,0,0,207,170,178,291,188,322,370,155,230,224,136,270,0,,,,,
2,1790112577456,-100,-1976,10246,41538,-107512,-50090,0,0,0,428,270,165,301,283,351,359,137,276,205,100,494,0,,,,,
1,1790112577472,-3670,-11892,26149,-6085439,-1189965,-1667662,0,0,0,205,170,179,291,189,326,373,155,232,224,133,270,0,,,,,
2,1790112577472,86,-1943,11103,232128,-84299,-87964,0,0,0,435,243,149,319,288,364,356,146,265,202,96,503,0,,,,,
1,1790112577488,-8848,-17793,22464,-5506339,-950506,-631634,0,0,0,205,171,177,296,186,328,361,147,221,225,134,272,0,,,,,
2,1790112577488,-62,-1928,11615,563217,-45204,-149051,0,0,0,435,243,146,328,282,372,344,149,258,201,87,512,0,,,,,
1,1790112577504,-6475,-22062,19253,-4420220,-1918116,403171,0,0,0,204,175,182,293,187,335,365,152,228,219,132,283,0,,,,,
2,1790112577504,-291,-1976,11763,908967,43982,-155159,0,0,0,440,241,145,318,258,374,322,142,249,200,95,524,0,,,,,
1,1790112577520,3814,-24876,16731,-3036000,-2862514,897971,0,0,0,208,173,192,298,185,337,375,156,236,255,129,277,0,,,,,
2,1790112577520,-153,-2072,12361,1237612,151494,-145385,0,0,0,444,235,152,308,270,370,315,153,250,204,107,530,0,,,,,
1,1790112577536,13237,-26795,14472,-1831373,-2320066,291993,0,0,0,212,173,190,303,185,336,382,156,235,250,128,274,0,,,,,
2,1790112577536,282,-2167,13457,1672549,182037,-169820,0,0,0,437,245,152,306,263,365,314,159,249,205,111,539,0,,,,,
1,1790112577552,11036,-27930,11227,-541226,-554665,-591317,0,0,0,214,174,184,304,187,333,385,155,232,226,128,276,0,,,,,
2,1790112577552,540,-2258,13902,2113593,106290,-235793,0,0,0,448,270,151,299,268,365,263,143,224,185,114,539,0,,,,,
1,1790112577568,4891,-25178,9791,574213,504574,-664621,0,0,0,213,175,183,300,189,331,384,160,231,225,136,273,0,,,,,
2,1790112577568,808,-2407,13869,2569299,-8552,-328645,0,0,0,449,234,158,285,272,364,258,199,231,195,151,560,0,,,,,
1,1790112577584,2636,-18387,11040,1439198,810007,-382401,0,0,0,208,175,184,303,195,330,374,178,227,244,167,269,0,,,,,
2,1790112577584,1273,-2555,14194,3127630,-92851,-474031,0,0,0,447,266,156,302,285,361,255,158,231,199,127,542,0,,,,,
1,1790112577600,1885,-12644,12825,2124589,960280,-572991,0,0,0,203,180,176,317,203,331,342,221,201,301,262,258,0,,,,,
2,1790112577600,1990,-2737,14706,3740938,-131946,-669508,0,0,0,415,313,131,286,272,351,241,173,234,189,115,513,0,,,,,
1,1790112577616,-4474,-2794,14836,3644422,811229,-1138652,0,0,0,213,203,151,315,215,341,325,309,166,363,396,262,0,,,,,
2,1790112577616,3005,-2967,15640,4569271,-42760,-976162,0,0,0,374,301,128,278,267,348,211,128,227,193,126,476,0,,,,,
1,1790112577632,-7719,7753,9796,6902777,1205847,-481361,0,0,0,219,212,155,323,218,368,404,408,189,430,455,290,0,,,,,
2,1790112577632,3244,-3062,19258,5558873,233350,-1271821,0,0,0,355,283,123,255,258,338,197,130,203,175,105,444,0,,,,,
1,1790112577648,-4991,-2110,14754,8823337,1886351,-3665,0,0,0,235,203,178,316,210,380,479,479,229,418,477,294,0,,,,,
2,1790112577648,4292,-3833,24900,6581462,551000,-1468520,0,0,0,321,280,119,235,234,323,183,124,179,167,114,402,0,,,,,
1,1790112577664,-660,-9667,27556,9022479,2096489,-647517,0,0,0,219,165,221,327,156,396,546,546,287,523,526,300,0,,,,,
2,1790112577664,4862,-3890,31327,7539298,897971,-1784948,0,0,0,285,233,117,223,176,266,214,119,155,167,93,317,0,,,,,
1,1790112577680,2976,-6953,32739,7622376,2353052,-805120,0,0,0,248,166,211,356,160,397,502,496,262,520,520,361,0,,,,,
2,1790112577680,3565,-1440,35491,8285776,658512,-2229658,0,0,0,232,122,104,186,99,206,199,108,141,132,65,203,0,,,,,
1,1790112577696,1737,-3283,21306,3743382,1521054,-140499,0,0,0,298,188,217,388,187,398,477,397,250,528,492,416,0,,,,,
2,1790112577696,4819,2699,35596,8916189,-191811,-2614503,0,0,0,195,60,93,157,64,177,172,107,130,114,71,148,0,,,,,
1,1790112577712,-880,-3058,10227,939510,334754,67195,0,0,0,337,242,243,410,240,434,451,320,255,507,419,460,0,,,,,
2,1790112577712,8796,10854,26637,8651073,-702495,-2950479,0,0,0,188,52,93,150,63,177,176,123,129,118,82,138,0,,,,,
1,1790112577728,-1421,-2584,8121,342084,-109955,-26878,0,0,0,390,267,265,427,258,454,463,311,300,450,330,485,0,,,,,
2,1790112577728,8872,17252,13180,6327342,-963945,-3093421,0,0,0,187,54,97,153,64,179,180,124,128,111,64,124,0,,,,,
1,1790112577744,-1014,-1885,10323,813672,-13439,-15882,0,0,0,439,305,279,425,265,467,500,310,339,433,303,515,0,,,,,
2,1790112577744,5943,16740,8777,1806939,-1461189,-2442239,0,0,0,185,66,102,155,71,176,171,116,122,102,54,117,0,,,,,
1,1790112577760,-832,-1775,10725,951728,-3665,75747,0,0,0,473,309,306,422,284,472,526,268,367,425,260,531,0,,,,,
2,1790112577760,4723,11974,7705,-1671327,-2004859,-1428202,0,0,0,190,75,108,151,75,178,180,131,131,108,73,118,0,,,,,
1,1790112577776,-737,-2158,9873,796568,-113620,123394,0,0,0,493,296,310,426,292,468,535,222,381,397,205,533,0,,,,,
2,1790112577776,6307,7303,4536,-2466673,-2228436,-646295,0,0,0,191,79,109,150,75,180,184,134,128,114,79,126,0,,,,,
1,1790112577792,-804,-2301,9609,652404,-162490,76969,0,0,0,498,315,281,435,287,467,526,198,363,390,198,536,0,,,,,
2,1790112577792,7776,7336,1043,-2173458,-1552819,-348193,0,0,0,186,76,109,148,72,182,174,125,120,99,63,130,0,,,,,
1,1790112577808,-966,-2211,9801,560774,-117286,61086,0,0,0,494,315,279,452,294,473,487,156,331,404,182,521,0,,,,,
2,1790112577808,7044,8260,454,-2581516,-356745,-15882,0,0,0,180,81,112,147,83,191,179,135,135,102,76,116,0,,,,,
1,1790112577824,-837,-2206,10083,536339,-90408,81855,0,0,0,492,313,278,450,293,482,461,122,320,392,166,509,0,,,,,
2,1790112577824,4441,8322,2747,-3569896,746477,439822,0,0,0,175,77,109,144,69,184,192,138,154,90,76,115,0,,,,,
1,1790112577840,-684,-2316,10251,548556,-123394,73303,0,0,0,501,300,242,431,283,473,486,127,336,359,146,521,0,,,,,
2,1790112577840,2579,7183,5197,-4368908,1295034,912632,0,0,0,195,77,111,160,79,191,187,145,146,110,76,123,0,,,,,
1,1790112577856,-818,-2388,10457,585208,-114842,45204,0,0,0,487,336,231,425,284,477,456,118,326,351,152,506,0,,,,,
2,1790112577856,1890,6379,6733,-4790405,1589471,1127657,0,0,0,195,81,114,161,78,190,167,113,125,106,89,145,0,,,,,
1,1790112577872,-971,-2445,10323,654847,-4886,50090,0,0,0,494,401,220,444,288,477,418,95,294,375,158,499,0,,,,,
2,1790112577872,1167,6398,8557,-5255884,1863138,1039692,0,0,0,200,84,109,162,78,192,188,134,129,129,71,157,0,,,,,
1,1790112577888,-737,-2579,9820,671951,40317,59864,0,0,0,480,347,220,447,290,468,300,57,204,362,155,493,0,,,,,
2,1790112577888,311,6523,10835,-5845980,2125811,800233,0,0,0,185,89,111,152,77,193,176,128,121,106,57,145,0,,,,,
1,1790112577904,-583,-2723,9313,587652,-25656,39095,0,0,0,474,352,244,439,292,462,396,98,280,370,169,492,0,,,,,
2,1790112577904,-866,6111,13807,-6526484,2405587,430049,0,0,0,175,86,107,149,81,193,181,129,136,93,51,132,0,,,,,
1,1790112577920,-856,-2837,8968,425162,-100181,26878,0,0,0,469,341,247,431,285,467,394,92,282,366,160,489,0,,,,,
2,1790112577920,-1871,5063,16338,-6933320,2546086,85521,0,0,0,186,81,106,155,76,194,188,128,136,83,69,132,0,,,,,
1,1790112577936,-952,-2881,9006,294437,-120951,45204,0,0,0,475,346,242,421,283,469,352,76,252,365,161,484,0,,,,,
2,1790112577936,-2550,3862,18626,-7153231,2626720,-229685,0,0,0,187,82,108,159,80,197,192,129,139,103,78,144,0,,,,,
1,1790112577952,-847,-2852,9523,261450,-112399,57421,0,0,0,478,350,228,410,280,461,393,98,284,356,158,491,0,,,,,
2,1790112577952,-3110,2895,20713,-7172779,2715906,-442266,0,0,0,162,88,109,151,82,200,192,132,144,116,75,141,0,,,,,
1,1790112577968,-880,-2857,9882,291993,-92851,57421,0,0,0,472,342,236,411,284,459,324,79,228,349,150,488,0,,,,,
2,1790112577968,-3479,2139,23407,-7016398,2818532,-439822,0,0,0,137,89,107,145,81,200,193,128,148,94,74,130,0,,,,,
1,1790112577984,-957,-2933,9614,315206,-54977,67195,0,0,0,475,327,240,411,282,463,298,67,208,335,141,491,0,,,,,
2,1790112577984,-3230,1100,27082,-6797708,2897944,-324980,0,0,0,126,91,106,144,84,203,194,127,151,84,73,134,0,,,,,
1,1790112578000,-981,-2986,9475,306654,-23212,85521,0,0,0,475,325,238,411,280,466,357,84,261,329,140,495,0,,,,,
2,1790112578000,-2751,-1282,31739,-6900333,2955366,-268780,0,0,0,125,96,108,143,87,204,190,127,143,103,76,148,0,,,,,
1,1790112578016,-971,-3000,9772,301767,4886,113620,0,0,0,467,335,248,417,287,466,338,78,252,335,147,487,0,,,,,
2,1790112578016,-2924,-5876,34874,-7367034,2894279,-327423,0,0,0,128,93,111,148,86,206,211,135,155,117,88,160,0,,,,,
1,1790112578032,-732,-3005,10212,370184,15882,125838,0,0,0,472,337,240,416,290,462,313,74,238,336,149,491,0,,,,,
2,1790112578032,-2833,-13677,35099,-7690793,2470339,-475253,0,0,0,125,89,115,152,83,213,261,165,197,123,90,155,0,,,,,
1,1790112578048,-397,-3029,10567,503352,-13439,103847,0,0,0,482,330,228,418,302,455,320,81,246,348,154,502,0,,,,,
2,1790112578048,-650,-22148,31562,-7038389,1990198,-662177,0,0,0,130,101,113,149,78,205,208,136,165,101,61,117,0,,,,,
1,1790112578064,-526,-3067,11050,715934,-86742,56199,0,0,0,490,320,223,411,306,453,354,93,270,329,146,512,0,,,,,
2,1790112578064,-1253,-29968,26025,-5787337,2218662,-669508,0,0,0,127,86,115,152,80,220,203,130,167,96,50,125,0,,,,,
1,1790112578080,-1067,-3082,11902,1048244,-144164,68416,0,0,0,490,348,237,420,311,459,311,88,248,313,152,509,0,,,,,
2,1790112578080,-8628,-38387,19942,-4164879,2736676,-246789,0,0,0,128,92,125,157,83,231,209,132,167,102,72,142,0,,,,,
1,1790112578096,-1210,-3105,12816,1468520,-162490,129503,0,0,0,495,332,246,431,306,453,274,68,233,349,152,509,0,,,,,
2,1790112578096,-17755,-47547,15984,-2480112,2488664,103847,0,0,0,125,102,136,149,83,247,201,135,184,104,63,176,0,,,,,
1,1790112578112,-1258,-3158,13850,2037846,-213802,197920,0,0,0,483,335,249,417,299,461,326,90,282,348,154,507,0,,,,,
2,1790112578112,-22895,-51662,15084,-789237,1120326,-4886,0,0,0,113,73,108,172,84,224,225,156,148,129,111,132,0,,,,,
1,1790112578128,-1732,-3129,15051,2681698,-342084,293215,0,0,0,486,327,252,412,296,456,351,105,299,344,154,507,0,,,,,
2,1790112578128,-17305,-38401,17200,1154535,-810007,-392175,0,0,0,119,94,116,169,104,230,303,338,179,223,344,154,0,,,,,
1,1790112578144,-2321,-2857,17123,3717725,-547335,507018,0,0,0,473,310,241,422,310,459,333,100,308,336,151,499,0,,,,,
2,1790112578144,-2656,-2431,15640,3563787,-3144734,-482583,0,0,0,193,114,172,200,85,233,460,531,178,326,483,203,0,,,,,
1,1790112578160,-2445,-2421,19573,4955338,-670730,752585,0,0,0,449,314,227,430,314,464,299,83,276,328,142,476,0,,,,,
2,1790112578160,8336,24589,9959,6516710,-7230200,-509461,0,0,0,205,120,180,196,75,244,499,639,201,382,567,237,0,,,,,
1,1790112578176,-1995,-2230,22330,6239377,-599869,915076,0,0,0,432,300,214,413,307,447,295,87,266,307,131,458,0,,,,,
2,1790112578176,-871,-129,19425,7793418,-7902152,390953,0,0,0,198,106,143,198,77,255,537,677,219,431,597,264,0,,,,,
1,1790112578192,-1914,-3421,26312,7536855,-311541,879645,0,0,0,419,269,213,379,286,421,297,96,261,276,120,439,0,,,,,
2,1790112578192,-10681,-13108,30739,7985230,-4634023,1576032,0,0,0,211,88,126,218,78,261,574,647,213,481,582,271,0,,,,,
1,1790112578208,-2651,-4379,30643,8493470,-161268,762359,0,0,0,380,247,210,345,252,386,262,86,210,244,110,413,0,,,,,
2,1790112578208,-7322,-5728,25628,5998696,-2182010,1051909,0,0,0,241,92,145,243,95,270,597,569,223,514,540,298,0,,,,,
1,1790112578224,-5585,-3120,32533,9230173,120951,875980,0,0,0,293,220,189,312,214,337,234,74,156,218,105,348,0,,,,,
2,1790112578224,-2550,-2278,15845,2921157,-1204626,329867,0,0,0,293,126,181,267,147,281,621,506,242,510,463,350,0,,,,,
1,1790112578240,-11270,339,29715,9490402,740368,1395216,0,0,0,205,172,170,276,178,303,285,93,173,215,113,239,0,,,,,
2,1790112578240,-449,-2081,8399,162490,-532674,-46425,0,0,0,343,164,211,286,203,303,612,456,234,467,378,372,0,,,,,
1,1790112578256,-16027,7169,20780,8610756,1144761,2144136,0,0,0,207,170,172,270,178,298,309,106,193,220,123,243,0,,,,,
2,1790112578256,-976,-1770,9236,101403,-141720,26878,0,0,0,364,183,236,295,225,326,597,390,234,421,333,383,0,,,,,
1,1790112578272,-16802,14840,11251,5327966,911410,3090978,0,0,0,223,178,171,280,165,289,281,96,160,221,121,234,0,,,,,
2,1790112578272,-1172,-1311,10519,430049,-51312,50090,0,0,0,373,188,265,284,227,319,587,330,252,392,306,407,0,,,,,
1,1790112578288,-13658,17157,8298,343306,439822,3813020,0,0,0,226,161,143,261,162,273,328,122,176,222,127,229,0,,,,,
2,1790112578288,-928,-1234,10236,321315,-64751,7330,0,0,0,389,196,313,300,234,332,542,253,248,379,230,433,0,,,,,
1,1790112578304,-9437,12433,8681,-3191160,500909,3933972,0,0,0,226,161,147,267,164,281,294,107,171,217,124,235,0,,,,,
2,1790112578304,-713,-1215,9925,184481,-35430,-24434,0,0,0,386,198,337,321,252,349,511,254,242,320,197,458,0,,,,,
1,1790112578320,-7322,7159,6077,-3960850,916297,3679852,0,0,0,223,158,154,263,160,285,313,116,179,217,121,242,0,,,,,
2,1790112578320,-713,-1210,9978,219911,-12217,-45204,0,0,0,392,219,267,323,232,355,491,181,236,321,193,498,0,,,,,
1,1790112578336,-5537,5891,3967,-3869220,698829,3160616,0,0,0,225,159,154,267,158,286,314,116,171,222,121,238,0,,,,,
2,1790112578336,-804,-1273,10131,339641,-31764,-61086,0,0,0,424,218,266,336,232,343,496,143,233,304,139,498,0,,,,,
1,1790112578352,-1052,6776,4647,-4158770,210137,1772730,0,0,0,220,157,165,266,158,286,336,127,188,221,120,237,0,,,,,
2,1790112578352,-914,-1359,10155,400727,-46425,-65973,0,0,0,417,223,233,323,248,366,434,128,262,239,104,474,0,,,,,
1,1790112578368,1459,6896,5896,-4632801,399505,-276111,0,0,0,215,154,183,265,159,297,349,132,208,220,118,245,0,,,,,
2,1790112578368,-875,-1411,10265,390953,21991,-61086,0,0,0,419,234,213,309,241,351,382,129,270,227,98,483,0,,,,,
1,1790112578384,-1588,6154,6570,-4985882,508239,-2361605,0,0,0,215,156,187,269,161,305,349,131,220,220,119,252,0,,,,,
2,1790112578384,-938,-1454,10557,448375,163711,-48869,0,0,0,418,258,173,309,255,347,355,139,270,219,98,493,0,,,,,
1,1790112578400,-4431,5589,7552,-5290092,-238237,-3596774,0,0,0,219,160,186,272,161,308,348,129,222,219,117,259,0,,,,,
2,1790112578400,-952,-1507,10681,575435,284663,-19547,0,0,0,411,219,160,300,251,362,319,116,238,212,96,508,0,,,,,
1,1790112578416,-4292,5297,9317,-5712811,-1040914,-3885102,0,0,0,224,161,188,276,160,309,326,112,196,222,114,260,0,,,,,
2,1790112578416,-732,-1627,10437,658512,215024,-3665,0,0,0,407,218,155,299,298,359,307,135,253,217,117,516,0,,,,,
1,1790112578432,-4048,4728,11548,-6299242,-1009149,-3547905,0,0,0,228,162,187,283,161,305,319,102,180,229,112,253,0,,,,,
2,1790112578432,-526,-1775,9925,651182,73303,-17104,0,0,0,408,234,154,298,294,356,287,124,237,221,129,523,0,,,,,
1,1790112578448,-5144,3852,13802,-6809925,-853989,-2803871,0,0,0,230,164,187,284,161,304,361,121,202,228,111,251,0,,,,,
2,1790112578448,-497,-1943,9198,530231,-59864,-52534,0,0,0,409,228,150,357,278,345,279,115,224,213,127,520,0,,,,,
1,1790112578464,-5628,2943,16377,-7187440,-1000597,-1739744,0,0,0,223,160,188,282,163,308,372,132,215,226,114,254,0,,,,,
2,1790112578464,-607,-2048,8815,354301,-105068,-67195,0,0,0,407,236,144,364,294,348,291,134,244,214,128,519,0,,,,,
1,1790112578480,-5508,2139,19267,-7561289,-1158200,-806342,0,0,0,226,165,193,282,164,311,370,126,215,230,113,256,0,,,,,
2,1790112578480,-684,-2100,8825,177150,-130725,-72082,0,0,0,405,264,146,300,335,360,294,148,250,223,138,523,0,,,,,
1,1790112578496,-5704,966,22861,-7959574,-1292590,-160046,0,0,0,222,171,172,282,172,302,365,132,211,228,118,254,0,,,,,
2,1790112578496,-607,-2057,9475,103847,-144164,-81855,0,0,0,404,256,150,298,349,356,287,142,234,221,145,520,0,,,,,
1,1790112578512,-6034,-1402,26613,-8236906,-1624901,-87964,0,0,0,222,179,168,282,175,295,365,136,206,226,118,256,0,,,,,
2,1790112578512,-593,-2005,10040,123394,-155159,-102625,0,0,0,406,234,139,304,289,367,295,126,236,223,130,518,0,,,,,
1,1790112578528,-5518,-4493,29719,-8249124,-2240653,-483805,0,0,0,216,167,168,288,174,310,363,129,213,222,108,285,0,,,,,
2,1790112578528,-770,-1976,10174,194255,-152716,-119729,0,0,0,416,256,143,307,275,369,291,124,232,233,119,531,0,,,,,
1,1790112578544,-3412,-7513,32586,-7936361,-2998126,-1069014,0,0,0,215,169,175,282,167,308,359,128,213,220,107,280,0,,,,,
2,1790112578544,-942,-2010,9959,250454,-119729,-107512,0,0,0,414,228,146,311,277,370,287,132,240,232,137,529,0,,,,,
1,1790112578560,-411,-11586,34984,-7418347,-3170390,-1547932,0,0,0,205,171,196,277,165,322,358,125,225,214,103,278,0,,,,,
2,1790112578560,-990,-2033,10145,313984,-76969,-89186,0,0,0,433,266,156,316,291,359,308,118,229,232,134,543,0,,,,,
1,1790112578576,-832,-17018,34486,-6861238,-2647489,-1654223,0,0,0,210,174,203,280,183,330,329,115,212,213,106,288,0,,,,,
2,1790112578576,-894,-2024,11031,488692,-23212,-69638,0,0,0,431,239,161,300,288,360,290,120,231,226,126,536,0,,,,,
1,1790112578592,-5704,-25470,28595,-5910732,-2169793,-863763,0,0,0,213,183,197,284,198,332,327,117,216,215,110,302,0,,,,,
2,1790112578592,-689,-2057,11993,803898,41538,-64751,0,0,0,437,230,154,304,277,368,298,126,257,230,123,551,0,,,,,
1,1790112578608,-4704,-34448,20851,-4731762,-2796541,728151,0,0,0,213,190,197,283,201,338,346,127,237,216,115,304,0,,,,,
2,1790112578608,-430,-2153,12644,1225395,118507,-95294,0,0,0,432,273,166,300,261,374,290,129,254,207,108,553,0,,,,,
1,1790112578624,11117,-40435,15927,-3221703,-3338989,1761735,0,0,0,214,194,194,281,203,341,357,140,248,215,122,297,0,,,,,
2,1790112578624,-253,-2230,13476,1696983,135612,-152716,0,0,0,424,276,160,304,249,359,290,123,230,210,101,571,0,,,,,
1,1790112578640,23560,-43498,13290,-1519832,-2116037,1255938,0,0,0,207,188,178,280,203,335,341,172,231,247,181,286,0,,,,,
2,1790112578640,119,-2311,14505,2216219,101403,-219911,0,0,0,434,251,155,303,262,359,277,141,225,214,118,586,0,,,,,
1,1790112578656,18659,-41765,12739,471587,700051,-248011,0,0,0,200,183,161,284,203,328,327,251,195,315,305,266,0,,,,,
2,1790112578656,737,-2378,15510,2895501,72082,-351858,0,0,0,438,234,156,296,254,369,250,139,221,204,108,555,0,,,,,
1,1790112578672,3374,-22833,13046,3109304,2510656,-293215,0,0,0,215,202,149,305,217,329,366,356,178,374,413,254,0,,,,,
2,1790112578672,612,-2158,17295,3696956,81855,-525344,0,0,0,414,233,147,306,234,358,229,125,218,188,90,496,0,,,,,
1,1790112578688,-4158,2321,10586,6891781,3925420,219911,0,0,0,237,210,158,334,215,355,407,411,178,434,465,276,0,,,,,
2,1790112578688,760,-1818,20440,4770857,-25656,-657290,0,0,0,376,237,141,285,224,345,277,177,256,185,93,461,0,,,,,
1,1790112578704,-2995,-1421,19650,9050579,3009122,-486248,0,0,0,218,199,164,302,188,371,477,477,224,455,485,284,0,,,,,
2,1790112578704,2397,-2172,24455,6108652,-287106,-785572,0,0,0,344,220,139,245,217,325,259,178,239,164,95,439,0,,,,,
1,1790112578720,1426,-7891,29676,9409768,1182635,-1334129,0,0,0,219,173,187,318,172,367,469,469,240,471,481,321,0,,,,,
2,1790112578720,3531,-2957,29600,7323052,-343306,-965167,0,0,0,309,175,134,211,187,287,180,113,174,129,76,381,0,,,,,
1,1790112578736,3732,-6561,30624,8019438,262672,-935845,0,0,0,239,161,199,334,136,380,503,503,285,501,501,346,0,,,,,
2,1790112578736,2656,-2397,36257,8327314,-345749,-1249830,0,0,0,252,116,123,178,126,238,174,103,151,121,62,273,0,,,,,
1,1790112578752,47,-3886,19741,4598593,818559,-67195,0,0,0,274,165,218,379,178,398,481,447,291,503,503,409,0,,,,,
2,1790112578752,5072,1229,38899,8994379,-1225395,-1558928,0,0,0,193,80,102,160,84,194,176,113,129,122,69,164,0,,,,,
1,1790112578768,-2124,-3450,10069,796568,829554,134390,0,0,0,333,230,237,406,225,415,489,384,304,513,418,442,0,,,,,
2,1790112578768,10715,8528,33658,9280264,-2041511,-1903456,0,0,0,175,102,91,153,97,181,179,129,128,109,77,145,0,,,,,
1,1790112578784,-1301,-2742,8825,-243124,256563,-89186,0,0,0,384,271,259,407,242,422,488,349,310,488,359,479,0,,,,,
2,1790112578784,11801,17889,17544,7417125,-1953547,-2061059,0,0,0,180,69,94,156,77,176,184,118,117,126,85,147,0,,,,,
1,1790112578800,-894,-1718,10155,289550,79412,-58643,0,0,0,419,295,278,408,261,429,489,315,308,455,313,501,0,,,,,
2,1790112578800,9088,21373,8944,3335324,-1717753,-1632231,0,0,0,182,76,90,156,95,174,184,121,128,141,98,166,0,,,,,
1,1790112578816,-957,-1517,10490,568104,101403,29321,0,0,0,436,303,302,415,264,439,491,285,308,438,272,509,0,,,,,
2,1790112578816,6188,16831,9408,-1259604,-1714087,-580321,0,0,0,190,58,98,162,79,181,185,112,128,119,85,131,0,,,,,
1,1790112578832,-1129,-1698,10136,458148,26878,50090,0,0,0,455,316,304,421,255,442,497,252,320,428,240,514,0,,,,,
2,1790112578832,6953,10906,7106,-2458121,-1755626,86742,0,0,0,182,68,102,158,78,181,196,134,133,123,96,152,0,,,,,
1,1790112578848,-1124,-1751,10011,405614,-89186,46425,0,0,0,474,342,282,430,273,441,507,217,343,415,210,519,0,,,,,
2,1790112578848,8327,9040,2502,-2329840,-1186300,230907,0,0,0,185,71,98,154,78,179,172,115,112,110,72,144,0,,,,,
1,1790112578864,-1067,-1794,9992,434936,-151494,54977,0,0,0,471,336,284,437,290,450,493,182,339,410,187,516,0,,,,,
2,1790112578864,7571,9949,1028,-2621833,-91629,156381,0,0,0,177,65,97,148,74,174,165,114,107,116,84,152,0,,,,,
1,1790112578880,-1110,-1866,9992,437379,-153938,69638,0,0,0,479,320,274,434,282,446,466,132,304,408,176,508,0,,,,,
2,1790112578880,5029,9490,3680,-3853337,630412,310319,0,0,0,165,52,97,141,70,177,174,125,129,112,79,143,0,,,,,
1,1790112578896,-1158,-1943,10074,444709,-141720,90408,0,0,0,474,342,266,430,315,448,455,140,317,386,178,498,0,,,,,
2,1790112578896,4225,8021,5872,-4872261,799011,499687,0,0,0,167,67,102,147,74,183,168,117,123,120,73,151,0,,,,,
1,1790112578912,-1067,-1995,10150,489913,-167377,89186,0,0,0,469,327,226,428,312,441,456,118,295,380,171,499,0,,,,,
2,1790112578912,4891,6422,7140,-5519778,1103222,507018,0,0,0,167,68,105,147,72,186,177,121,131,116,72,155,0,,,,,
1,1790112578928,-1043,-2057,10294,522900,-213802,73303,0,0,0,462,320,204,429,309,445,456,130,333,356,170,499,0,,,,,
2,1790112578928,4580,5436,8930,-5941275,1716531,408057,0,0,0,155,74,107,145,78,193,186,135,141,99,79,148,0,,,,,
1,1790112578944,-1167,-2120,10457,580321,-273667,62308,0,0,0,451,320,219,431,290,445,432,105,310,358,155,488,0,,,,,
2,1790112578944,3034,5163,11864,-6293133,2256536,397062,0,0,0,142,77,110,145,85,200,176,132,133,96,76,143,0,,,,,
1,1790112578960,-1301,-2177,10404,660956,-288328,79412,0,0,0,439,320,216,447,298,455,396,96,279,368,151,483,0,,,,,
2,1790112578960,2268,4857,14845,-6664539,2405587,546113,0,0,0,136,75,113,140,86,199,171,128,127,106,82,151,0,,,,,
1,1790112578976,-1268,-2254,10174,720820,-273667,101403,0,0,0,446,298,221,438,294,466,388,92,276,357,146,476,0,,,,,
2,1790112578976,2325,4158,17410,-6979746,2565634,657290,0,0,0,136,74,113,137,85,199,175,125,126,107,88,158,0,,,,,
1,1790112578992,-1134,-2378,9925,728151,-259006,101403,0,0,0,448,284,227,421,270,464,341,71,242,343,140,479,0,,,,,
2,1790112578992,2258,3378,19741,-7166670,2860071,647517,0,0,0,141,70,107,146,80,205,171,109,121,105,68,153,0,,,,,
1,1790112579008,-1134,-2493,9700,709825,-237015,85521,0,0,0,444,287,226,430,270,456,370,82,254,344,146,479,0,,,,,
2,1790112579008,1234,2957,22603,-7314500,3139847,635299,0,0,0,139,80,113,150,82,214,178,123,142,109,71,157,0,,,,,
1,1790112579024,-1172,-2636,9317,662177,-175929,63529,0,0,0,444,295,232,433,274,453,407,100,277,357,147,476,0,,,,,
2,1790112579024,220,2622,25905,-7508755,3269350,777020,0,0,0,126,80,115,148,85,219,185,124,148,97,53,144,0,,,,,
1,1790112579040,-1206,-2780,8935,566882,-107512,41538,0,0,0,443,302,234,437,275,456,400,98,271,364,143,484,0,,,,,
2,1790112579040,-9,1292,29006,-7668802,3414736,1003040,0,0,0,125,74,119,151,77,224,189,124,156,105,56,146,0,,,,,
1,1790112579056,-1421,-2881,8987,459370,-61086,37873,0,0,0,448,303,225,435,278,457,391,94,269,354,142,495,0,,,,,
2,1790112579056,-808,-1713,32916,-7745771,3649308,1069014,0,0,0,121,79,116,151,71,224,189,113,165,114,76,163,0,,,,,
1,1790112579072,-1722,-2904,9571,434936,-61086,92851,0,0,0,466,308,215,418,291,447,388,95,276,343,145,501,0,,,,,
2,1790112579072,-3220,-6795,37066,-7696902,3419623,780685,0,0,0,121,73,117,157,75,230,195,105,150,112,69,159,0,,,,,
1,1790112579088,-1904,-2938,9877,478918,-75747,184481,0,0,0,478,327,212,434,317,442,348,80,234,352,155,511,0,,,,,
2,1790112579088,-3756,-13558,37750,-7404908,2059837,272445,0,0,0,123,73,117,166,73,234,201,113,157,114,75,162,0,,,,,
1,1790112579104,-1675,-3019,9724,563217,-74525,287106,0,0,0,477,334,245,459,306,471,312,69,215,360,152,514,0,,,,,
2,1790112579104,-162,-22967,33653,-6653544,823446,-177150,0,0,0,124,81,119,163,71,237,200,121,168,93,49,148,0,,,,,
1,1790112579120,-1115,-3029,10318,662177,-54977,307876,0,0,0,495,326,241,454,303,488,303,60,207,363,153,529,0,,,,,
2,1790112579120,2483,-35194,24996,-5290092,1062905,-602313,0,0,0,120,68,115,166,71,237,211,122,170,109,58,153,0,,,,,
1,1790112579136,-1076,-3000,11940,895528,-36651,280998,0,0,0,505,353,260,440,320,476,330,76,243,377,169,537,0,,,,,
2,1790112579136,-9337,-47231,19095,-3312111,2338392,-951728,0,0,0,121,73,112,159,78,234,212,127,172,116,84,155,0,,,,,
1,1790112579152,-1373,-3015,13658,1398881,-30543,272445,0,0,0,521,346,243,440,337,479,262,78,216,346,172,550,0,,,,,
2,1790112579152,-25259,-52902,18420,-1270599,1923003,-481361,0,0,0,132,73,106,177,77,220,272,202,159,191,195,184,0,,,,,
1,1790112579168,-1430,-3015,14778,1998751,-41538,280998,0,0,0,513,335,250,433,318,465,307,94,269,363,173,550,0,,,,,
2,1790112579168,-20545,-43464,21660,1644449,-1274264,594982,0,0,0,165,86,127,188,73,228,349,309,177,249,313,194,0,,,,,
1,1790112579184,-1651,-2928,15573,2692693,-61086,301767,0,0,0,512,355,257,417,329,461,281,85,248,367,179,542,0,,,,,
2,1790112579184,-3948,-15415,19851,5282762,-5312084,412944,0,0,0,177,111,139,181,89,249,389,489,197,271,445,212,0,,,,,
1,1790112579200,-1837,-2708,16563,3574783,-73303,378736,0,0,0,494,354,251,428,320,456,308,87,260,360,163,516,0,,x,,,
2,1790112579200,2684,1976,20440,7224092,-7811744,-386066,0,0,0,166,112,139,184,98,261,414,594,199,299,530,233,0,,x,,,
1,1790112579216,-2273,-2388,18114,4538728,-64751,471587,0,0,0,470,348,232,428,328,452,309,92,278,340,151,491,0,,,,,
2,1790112579216,-2440,-1273,27035,6772052,-5661499,452040,0,0,0,168,88,138,194,83,255,439,546,199,341,515,228,0,,,,,
1,1790112579232,-3584,-2196,20909,5826432,86742,693942,0,0,0,443,334,222,413,332,441,261,86,235,314,152,462,0,,,,,
2,1790112579232,-8145,-5106,27915,4739092,-1742187,1469741,0,0,0,183,77,126,198,74,237,460,512,187,380,481,217,0,,,,,
1,1790112579248,-4402,-2967,25991,7164227,540004,948062,0,0,0,421,298,216,387,300,415,240,82,192,289,142,436,0,,,,,
2,1790112579248,-3431,-760,15711,2404365,-519235,733038,0,0,0,216,94,161,217,78,240,518,530,173,406,488,225,0,,,,,
1,1790112579264,-5862,-4781,32586,8326093,1269377,1120326,0,0,0,382,267,202,344,255,376,262,90,192,259,118,417,0,,,,,
2,1790112579264,871,1608,8212,1105666,-570548,127059,0,0,0,240,112,223,224,87,252,512,548,187,442,506,266,0,,,,,
1,1790112579280,-8121,-3364,34974,9183748,1723861,1413542,0,0,0,298,241,191,297,216,334,269,94,180,225,106,363,0,,,,,
2,1790112579280,71,162,9509,603534,-636521,73303,0,0,0,280,133,252,235,110,262,557,524,215,466,496,282,0,,,,,
1,1790112579296,-11265,765,32265,9612575,2043955,1806939,0,0,0,228,182,177,278,187,310,262,88,172,220,113,270,0,,,,,
2,1790112579296,-1043,-325,10882,262672,-379958,86742,0,0,0,272,157,266,248,150,268,544,516,216,445,488,279,0,,,,,
1,1790112579312,-15711,7307,20641,8357858,1401324,2315179,0,0,0,237,186,176,275,185,307,263,90,161,221,111,271,0,,,,,
2,1790112579312,-851,387,10571,134390,-108734,54977,0,0,0,283,129,276,258,149,273,530,509,210,440,450,301,0,,,,,
1,1790112579328,-13385,11830,13275,5362175,-300545,2803871,0,0,0,231,184,173,275,201,305,242,85,148,221,117,271,0,,,,,
2,1790112579328,-311,780,10021,172263,-61086,28099,0,0,0,284,124,296,274,146,291,551,431,230,399,376,306,0,,,,,
1,1790112579344,-4608,13730,12888,779464,-1205847,2658485,0,0,0,231,177,154,275,183,281,276,93,145,233,117,255,0,,,,,
2,1790112579344,-205,741,10007,197920,-30543,23212,0,0,0,294,152,304,269,176,291,534,374,237,387,359,338,0,,,,,
1,1790112579360,-1660,10619,13208,-2737898,-23212,1342681,0,0,0,239,177,152,294,183,279,271,92,139,231,117,254,0,,,,,
2,1790112579360,-344,603,10165,210137,21991,18325,0,0,0,296,203,272,275,200,289,503,279,248,344,288,337,0,,,,,
1,1790112579376,-3713,7183,10471,-3959628,613308,133168,0,0,0,240,177,152,297,186,282,316,113,168,228,117,255,0,,,,,
2,1790112579376,-325,574,10141,230907,53756,2443,0,0,0,313,185,289,272,210,291,485,218,241,320,210,346,0,,,,,
1,1790112579392,-3790,6743,7686,-4043927,195476,-436157,0,0,0,242,172,149,305,184,281,336,117,174,229,113,256,0,,,,,
2,1790112579392,-234,545,10093,243124,39095,-8552,0,0,0,330,175,255,284,216,299,486,190,225,314,167,368,0,,,,,
1,1790112579408,-2297,7532,6905,-4624249,46425,-806342,0,0,0,240,172,149,302,181,281,329,117,171,228,111,253,0,,,,,
2,1790112579408,-205,483,10083,266337,2443,-20769,0,0,0,344,185,238,287,222,299,472,166,229,286,139,392,0,,,,,
1,1790112579424,-2057,7480,7920,-5632177,427605,-1031140,0,0,0,231,170,147,291,178,283,295,101,155,227,111,259,0,,,,,
2,1790112579424,-239,406,10136,307876,-17104,-37873,0,0,0,352,210,229,288,235,299,459,151,233,250,111,404,0,,,,,
1,1790112579440,-3742,5675,9088,-6355441,711047,-970053,0,0,0,228,166,151,290,174,289,278,87,143,229,111,268,0,,,,,
2,1790112579440,-296,363,10203,356745,-24434,-46425,0,0,0,361,223,217,293,254,309,444,158,241,223,100,416,0,,,,,
1,1790112579456,-5087,4020,9686,-6588792,518013,-685390,0,0,0,231,167,160,292,172,294,304,98,159,231,110,269,0,,,,,
2,1790112579456,-301,315,10265,430049,-12217,-32986,0,0,0,370,207,223,294,256,324,408,156,263,221,116,443,0,,,,,
1,1790112579472,-5077,3431,10485,-6560692,-96516,-387288,0,0,0,226,170,161,278,168,295,324,112,178,228,113,271,0,,,,,
2,1790112579472,-248,258,10303,519235,31764,-21991,0,0,0,369,196,210,300,249,334,385,126,275,232,123,470,0,,,,,
1,1790112579488,-4690,3287,11935,-6681643,-597426,-302989,0,0,0,226,165,172,278,165,298,327,109,180,230,111,270,0,,,,,
2,1790112579488,-181,191,10337,596204,128281,-26878,0,0,0,367,203,152,312,283,335,385,126,270,228,107,479,0,,,,,
1,1790112579504,-4690,2895,14036,-6979746,-984714,-421497,0,0,0,220,162,173,275,167,304,325,116,190,224,114,273,0,,,,,
2,1790112579504,-28,90,10375,620639,232128,-50090,0,0,0,386,211,139,332,335,337,353,145,251,242,120,499,0,,,,,
1,1790112579520,-5254,1765,16381,-7171557,-1370781,-607200,0,0,0,225,169,166,282,174,301,320,114,186,224,113,271,0,,,,,
2,1790112579520,138,-23,10500,637743,261450,-90408,0,0,0,398,197,141,344,278,379,323,125,234,226,112,504,0,,,,,
1,1790112579536,-5599,516,18827,-7155675,-1808161,-753807,0,0,0,229,170,167,283,174,300,238,75,133,226,113,273,0,,,,,
2,1790112579536,28,-76,10830,718377,171042,-133168,0,0,0,413,234,132,319,322,357,285,85,230,209,99,516,0,,,,,
1,1790112579552,-5312,-253,21612,-7018841,-2140471,-875980,0,0,0,234,171,174,298,178,307,313,110,179,223,111,271,0,,,,,
2,1790112579552,-4,-148,10916,838107,64751,-151494,0,0,0,413,271,137,312,314,392,325,141,280,204,104,526,0,,,,,
1,1790112579568,-5226,-741,25383,-6951646,-2333505,-1065348,0,0,0,235,176,175,298,175,304,265,87,145,218,109,260,0,,,,,
2,1790112579568,105,-291,10782,956614,9773,-171042,0,0,0,411,256,135,315,305,365,311,132,246,212,127,552,0,,,,,
1,1790112579584,-5790,-1684,29475,-7087258,-2455678,-1310916,0,0,0,230,175,173,284,172,303,323,111,182,216,103,260,0,,,,,
2,1790112579584,234,-483,10782,1059240,-2443,-208915,0,0,0,427,251,150,313,289,381,299,140,252,195,134,554,0,,,,,
1,1790112579600,-5230,-5886,33093,-7433008,-2972470,-1602910,0,0,0,225,178,181,279,169,308,355,122,209,214,99,263,0,,,,,
2,1790112579600,263,-641,10949,1175304,-36651,-251676,0,0,0,450,260,156,318,308,372,298,145,239,244,102,527,0,,,,,
1,1790112579616,-1718,-12902,35520,-7536855,-3585778,-1736079,0,0,0,214,174,194,274,166,331,354,120,228,214,100,276,0,,,,,
2,1790112579616,229,-808,10988,1329242,-92851,-291993,0,0,0,468,267,154,323,308,377,301,154,256,229,123,562,0,,,,,
1,1790112579632,2397,-20885,34496,-6962641,-2919935,-1692096,0,0,0,208,173,202,273,168,342,348,123,232,212,104,284,0,,,,,
2,1790112579632,224,-957,11337,1483180,-141720,-323758,0,0,0,477,252,149,324,299,373,296,148,245,227,138,594,0,,,,,
1,1790112579648,698,-30409,28762,-5908288,-1490511,-1495398,0,0,0,215,175,207,287,174,337,320,126,228,214,106,283,0,,,,,
2,1790112579648,224,-1072,12289,1707979,-183259,-348193,0,0,0,497,243,146,325,281,367,292,135,234,228,127,595,0,,,,,
1,1790112579664,-3369,-42139,19865,-4577824,-1221730,-671951,0,0,0,222,175,205,296,179,328,311,124,219,220,108,280,0,,,,,
2,1790112579664,-239,-1048,13275,2056172,-204028,-339641,0,0,0,494,264,154,319,276,372,282,129,232,218,110,598,0,,,,,
1,1790112579680,7925,-51356,14276,-2659707,-2463008,653625,0,0,0,212,173,182,288,186,318,335,157,196,246,163,266,0,,,,,
2,1790112579680,-713,-1014,14213,2493551,-217468,-262672,0,0,0,491,277,168,307,283,369,276,129,223,207,106,594,0,,,,,
1,1790112579696,23005,-53304,15908,-316428,-1637118,706160,0,0,0,207,185,157,290,203,316,330,249,173,313,284,249,0,,,,,
2,1790112579696,-28,-1191,15257,3046995,-255341,-189368,0,0,0,505,272,171,299,271,355,258,125,214,218,117,582,0,,,,,
1,1790112579712,18746,-44981,18257,3164281,1287703,-113620,0,0,0,219,218,157,297,213,329,344,324,177,378,368,271,0,,,,,
2,1790112579712,760,-1344,16266,3667634,-335975,-215024,0,0,0,487,279,160,298,253,354,215,113,225,220,122,560,0,,,,,
1,1790112579728,1593,-10930,16003,7524638,3516140,52534,0,0,0,220,213,171,302,200,358,357,394,186,401,429,294,0,,,,,
2,1790112579728,1732,-1550,17224,4404338,-505796,-353080,0,0,0,438,294,148,294,268,358,196,114,225,188,110,506,0,,,,,
1,1790112579744,-5853,4790,19487,8244237,2690250,138055,0,0,0,244,229,183,306,226,370,330,395,177,428,457,309,0,,,x,,
2,1790112579744,3168,-2029,18607,5236336,-726929,-625526,0,0,0,408,289,133,286,271,346,193,123,198,185,99,473,0,,,x,,
1,1790112579760,-1464,-1564,24986,6653544,428827,-439822,0,0,0,233,198,183,303,185,370,434,447,220,468,472,317,0,,,,,
2,1790112579760,4934,-3216,21627,6181956,-862541,-1010371,0,0,0,386,252,124,277,268,325,202,124,191,188,90,458,0,,,,,
1,1790112579776,1727,-4709,24977,5039638,-262672,-357967,0,0,0,236,185,191,306,165,353,434,424,192,471,470,317,0,,,,,
2,1790112579776,6202,-5125,26886,7137349,-718377,-1477072,0,0,0,331,181,122,229,233,296,214,152,203,173,97,412,0,,,,,
1,1790112579792,-976,-1713,16147,3065321,382401,138055,0,0,0,246,167,219,301,145,352,469,465,239,480,479,326,0,,,,,
2,1790112579792,5379,-4144,31031,7762875,-445931,-1940107,0,0,0,253,120,122,173,135,247,167,116,168,111,59,293,0,,,,,
1,1790112579808,-2479,-57,10007,1248608,626747,119729,0,0,0,264,169,229,312,158,354,479,467,254,491,491,338,0,,,,,
2,1790112579808,5661,-1459,33366,8222246,-572991,-2334726,0,0,0,211,115,98,160,101,183,176,120,136,114,83,177,0,,,,,
1,1790112579824,-1708,-674,9624,268780,364075,-86742,0,0,0,291,183,238,319,182,356,471,438,243,495,491,358,0,,,,,
2,1790112579824,9370,4651,31615,8373740,-1077566,-2720793,0,0,0,183,97,99,161,80,184,176,116,122,122,74,140,0,,,,,
1,1790112579840,-1115,-703,10495,73303,72082,-67195,0,0,0,305,196,251,329,234,365,429,363,251,493,484,364,0,,,,,
2,1790112579840,11672,13017,23115,7635815,-1137431,-2943148,0,0,0,182,103,100,160,88,181,191,125,121,112,61,118,0,,,,,
1,1790112579856,-1287,-172,10332,108734,10995,-1221,0,0,0,308,234,271,329,234,372,425,326,240,497,476,368,0,,,,,
2,1790112579856,8379,18190,11538,4736649,-546113,-2164906,0,0,0,232,140,113,184,108,193,209,134,138,119,72,133,0,,,,,
1,1790112579872,-1469,47,9997,119729,42760,6108,0,0,0,321,272,280,333,226,369,463,364,243,503,461,373,0,,,,,
2,1790112579872,4666,16353,10069,-84299,-437379,-42760,0,0,0,198,100,102,170,86,185,201,134,136,121,71,136,0,,,,,
1,1790112579888,-1440,9,9997,118507,41538,-4886,0,0,0,339,294,282,342,244,371,482,397,266,503,435,378,0,,,,,
2,1790112579888,5159,11380,10935,-3076317,-739146,1711644,0,0,0,194,87,105,164,73,183,196,125,133,117,67,134,0,,,,,
1,1790112579904,-1354,-47,10145,155159,8552,0,0,0,0,344,309,293,340,240,383,470,373,258,496,407,394,0,,,,,
2,1790112579904,7700,7169,8513,-3331659,-459370,2367713,0,0,0,194,83,104,168,75,188,189,114,122,112,57,133,0,,,,,
1,1790112579920,-1330,-52,10131,195476,-30543,15882,0,0,0,350,305,299,347,251,384,458,348,247,490,382,407,0,,,,,
2,1790112579920,6202,7346,5398,-2781880,745255,1963320,0,0,0,187,82,104,166,79,191,185,114,124,107,60,135,0,,,,,
1,1790112579936,-1330,-71,10050,204028,-65973,25656,0,0,0,357,323,300,347,252,385,455,327,244,484,350,418,0,,,,,
2,1790112579936,2555,8097,5762,-3213151,1547932,1507615,0,0,0,183,82,105,162,78,189,179,114,126,108,59,132,0,,,,,
1,1790112579952,-1306,-105,10007,186924,-95294,28099,0,0,0,370,359,308,348,270,384,440,278,239,468,320,420,0,,,,,
2,1790112579952,397,7451,7997,-4277278,1464854,1149648,0,0,0,185,84,103,162,77,186,180,113,126,114,58,127,0,,,,,
1,1790112579968,-1287,-124,10016,177150,-119729,29321,0,0,0,366,359,328,342,270,393,441,259,260,470,314,432,0,,,,,
2,1790112579968,23,6111,9279,-5089729,1332907,700051,0,0,0,186,88,106,158,75,185,192,122,133,113,66,126,0,,,,,
1,1790112579984,-1301,-143,10026,180816,-140499,28099,0,0,0,356,385,329,339,304,396,445,272,277,438,286,438,0,,,,,
2,1790112579984,-416,5120,9978,-5481904,1536936,153938,0,0,0,180,90,108,154,72,183,196,132,133,108,70,127,0,,,,,
1,1790112580000,-1335,-167,10016,186924,-142942,29321,0,0,0,383,336,310,356,267,402,449,267,286,422,264,452,0,,,,,
2,1790112580000,-2316,5235,11428,-5709146,1775174,-156381,0,0,0,176,84,105,158,74,182,193,128,135,114,77,135,0,,,,,
1,1790112580016,-1383,-196,10007,195476,-131946,34208,0,0,0,417,338,323,364,282,406,447,256,289,414,251,460,0,,,,,
2,1790112580016,-3651,5470,13160,-5973040,1772730,-166155,0,0,0,170,79,107,155,68,182,190,124,133,98,63,119,0,,,,,
1,1790112580032,-1411,-248,9987,208915,-97738,42760,0,0,0,426,331,305,375,291,407,437,213,262,402,237,462,0,,,,,
2,1790112580032,-3776,5398,14922,-6289468,1684766,62308,0,0,0,157,67,107,145,59,178,185,114,127,91,67,132,0,,,,,
1,1790112580048,-1402,-291,9992,227241,-56199,51312,0,0,0,428,336,291,372,300,408,438,199,263,399,245,465,0,,,,,
2,1790112580048,-3239,4948,16735,-6599788,1777617,351858,0,0,0,167,84,107,149,73,185,185,113,136,98,44,124,0,,,,,
1,1790112580064,-1387,-325,10054,249233,-28099,59864,0,0,0,436,344,291,378,306,409,427,174,255,399,246,464,0,,,,,
2,1790112580064,-2967,4359,18980,-6875899,1879021,590095,0,0,0,142,86,113,146,72,195,194,129,147,119,71,133,0,,,,,
1,1790112580080,-1368,-354,10131,279776,-20769,70860,0,0,0,447,352,291,390,313,422,401,135,235,393,221,471,0,,,,,
2,1790112580080,-2737,3302,21627,-7149566,1846034,770911,0,0,0,140,88,112,151,79,201,186,113,139,103,73,129,0,,,,,
1,1790112580096,-1411,-373,10256,324980,-15882,85521,0,0,0,456,379,274,392,329,435,387,121,235,382,201,479,0,,,,,
2,1790112580096,-2316,1115,24225,-7283957,1846034,908967,0,0,0,134,86,109,148,76,205,201,119,146,103,65,137,0,,,,,
1,1790112580112,-1588,-406,10480,419053,39095,120951,0,0,0,469,384,253,399,339,432,396,122,248,369,195,476,0,,,,,
2,1790112580112,-1990,-2770,27346,-7032280,1925447,867428,0,0,0,132,91,107,151,81,208,202,128,154,98,59,136,0,,,,,
1,1790112580128,-1722,-469,10792,546113,108734,179594,0,0,0,480,365,259,404,342,439,421,132,274,364,196,486,0,,,,,
2,1790112580128,-2584,-6288,30308,-6805038,1844813,656069,0,0,0,130,94,113,151,81,209,193,121,148,90,43,131,0,,,,,
1,1790112580144,-1588,-555,11227,736703,113620,249233,0,0,0,474,415,262,425,360,451,383,115,253,371,203,486,0,,,,,
2,1790112580144,-3637,-10313,32510,-6990741,1433089,504574,0,0,0,130,95,114,154,82,211,185,102,133,95,50,127,0,,,,,
1,1790112580160,-1397,-698,11165,971275,43982,283441,0,0,0,491,403,248,418,374,445,327,102,213,371,205,504,0,,,,,
2,1790112580160,-2479,-17894,32672,-7225314,700051,702495,0,0,0,128,95,115,156,84,214,191,110,139,99,65,137,0,,,,,
1,1790112580176,-1249,-818,11031,1130100,8552,290771,0,0,0,485,443,235,430,423,441,343,118,231,376,223,499,0,,,,,
2,1790112580176,2306,-30188,27370,-6370102,359188,1016479,0,0,0,128,94,120,153,83,215,202,126,157,94,60,141,0,,,,,
1,1790112580192,-1335,-904,11763,1312138,17104,280998,0,0,0,505,480,263,443,389,458,364,131,275,381,220,512,0,,,,,
2,1790112580192,2067,-41842,20564,-4800179,927293,741590,0,0,0,133,94,117,150,84,212,204,123,160,99,57,135,0,,,,,
1,1790112580208,-1512,-976,13065,1609019,50090,289550,0,0,0,524,505,244,440,382,460,344,130,253,368,210,527,0,,,,,
2,1790112580208,-9806,-51227,16396,-2709798,1243721,-304210,0,0,0,130,93,108,152,85,210,203,138,158,122,79,151,0,,,,,
1,1790112580224,-1373,-1024,14266,2037846,94073,304210,0,0,0,531,428,253,418,389,450,314,123,238,374,202,533,0,,,,,
2,1790112580224,-20191,-54668,15180,-827111,53756,-1049466,0,0,0,135,94,109,161,89,209,213,150,146,135,117,140,0,,,,,
1,1790112580240,-1263,-1028,15333,2634050,150272,280998,0,0,0,532,405,269,416,349,443,284,102,221,368,184,530,0,,,,,
2,1790112580240,-14903,-42119,17382,1193630,-1975538,-988379,0,0,0,130,85,89,167,91,189,274,236,149,188,239,127,0,,,,,
1,1790112580256,-1818,-1009,16199,3304780,215024,279776,0,0,0,523,398,265,431,334,430,308,106,228,365,167,514,0,,,,,
2,1790112580256,2560,-2981,18143,3557679,-3446501,-700051,0,0,0,140,92,113,164,87,219,280,282,172,176,280,170,0,,,,,
1,1790112580272,-2373,-918,16831,4051258,306654,390953,0,0,0,500,395,248,418,347,425,282,103,222,341,168,497,0,,,,,
2,1790112580272,13414,24350,11433,5433035,-4306599,-422718,0,0,0,150,99,117,170,102,241,295,398,183,225,335,199,0,,,,,
1,1790112580288,-2684,-737,17760,4884478,456927,540004,0,0,0,477,416,236,409,358,437,248,101,221,316,163,479,0,,,,,
2,1790112580288,5680,2876,13060,5974262,-3275459,979827,0,0,0,168,99,112,204,99,241,333,467,183,288,436,240,0,,,,,
1,1790112580304,-4522,-770,18501,5820323,784350,778242,0,0,0,458,432,218,405,368,437,243,105,222,302,156,462,0,,,,,
2,1790112580304,-4871,-8825,20028,5656612,-1566258,2298075,0,0,0,177,109,112,200,85,235,417,471,183,351,463,250,0,,,,,
1,1790112580320,-5795,-1675,21028,6725626,1419650,1242499,0,0,0,436,395,188,377,379,401,221,97,188,281,164,443,0,,,,,
2,1790112580320,-9284,-3680,23115,4612032,-891863,1718974,0,0,0,166,88,106,196,85,234,417,486,191,328,465,244,0,,,,,
1,1790112580336,-5709,-3838,25675,7451334,2239431,1613905,0,0,0,410,334,178,365,349,370,238,98,172,263,150,423,0,,,,,
2,1790112580336,-3311,1033,17616,3167947,-1058018,144164,0,0,0,186,93,128,194,79,230,441,483,193,375,507,256,0,,,,,
1,1790112580352,-6264,-5259,29418,7942469,2878397,1820378,0,0,0,354,274,183,332,259,354,288,114,195,237,120,401,0,,,,,
2,1790112580352,804,837,11849,1861917,-923628,-237015,0,0,0,209,82,143,201,72,229,470,487,194,414,519,232,0,,,,,
1,1790112580368,-7331,-1976,29906,8415279,3208264,2002416,0,0,0,253,257,172,274,237,313,285,146,200,219,129,334,0,,,,,
2,1790112580368,186,-387,10078,938289,-560774,56199,0,0,0,216,85,159,206,69,224,498,502,199,444,513,247,0,,,,,
1,1790112580384,-10289,3584,26159,8574104,3602883,2139250,0,0,0,237,228,175,284,224,319,316,135,208,230,138,288,0,,,,,
2,1790112580384,-947,-416,10346,401949,-309097,146607,0,0,0,216,97,180,209,78,234,492,483,196,442,495,260,0,,,,,
1,1790112580400,-12644,7834,18238,7332826,2850297,2134363,0,0,0,224,229,201,274,205,319,277,105,183,233,136,271,0,,,,,
2,1790112580400,-799,220,10361,195476,-193033,37873,0,0,0,224,105,184,217,99,247,486,442,192,439,465,257,0,,,,,
1,1790112580416,-10189,10136,14094,5056742,1384220,1894903,0,0,0,249,198,183,293,189,292,152,44,90,236,128,288,0,,,,,
2,1790112580416,-411,449,10093,139277,-131946,-10995,0,0,0,240,115,183,220,113,241,508,423,199,435,427,257,0,,,,,
1,1790112580432,-5350,11691,12864,1604132,476474,1172861,0,0,0,235,178,164,276,178,276,254,85,137,238,128,261,0,,,,,
2,1790112580432,-339,363,9997,144164,-87964,1221,0,0,0,251,123,198,225,119,234,512,392,201,413,391,255,0,,,,,
1,1790112580448,-4316,9911,11753,-1690874,585208,29321,0,0,0,229,222,164,267,208,268,255,93,134,231,133,255,0,,,,,
2,1790112580448,-445,330,10088,145385,-43982,13439,0,0,0,250,119,199,236,126,241,494,338,195,409,356,268,0,,,,,
1,1790112580464,-5733,7547,9313,-2957809,426383,-719599,0,0,0,229,245,160,280,218,278,300,124,162,225,135,264,0,,,,,
2,1790112580464,-430,382,10102,145385,-8552,2443,0,0,0,248,120,194,218,117,254,496,315,202,398,297,281,0,,,,,
1,1790112580480,-5709,6939,6542,-3139847,-271224,-1036027,0,0,0,228,233,154,281,207,276,285,108,149,234,136,264,0,,,,,
2,1790112580480,-378,392,10064,157603,0,-7330,0,0,0,259,109,222,225,113,268,493,280,221,392,240,295,0,,,,,
1,1790112580496,-4245,7202,5503,-3709173,-785572,-1193630,0,0,0,230,218,159,284,198,288,269,89,146,240,133,274,0,,,,,
2,1790112580496,-358,339,10035,172263,-4886,-13439,0,0,0,269,121,200,244,130,296,495,263,225,374,237,302,0,,,,,
1,1790112580512,-3694,6661,6556,-4685336,-802676,-1222952,0,0,0,233,217,172,285,199,304,270,93,155,235,132,281,0,,,,,
2,1790112580512,-358,296,10040,183259,-15882,-21991,0,0,0,298,151,216,254,174,281,468,238,228,309,211,319,0,,,,,
1,1790112580528,-3790,5297,8107,-5597969,-857654,-1121548,0,0,0,235,205,181,273,194,304,248,89,144,229,130,278,0,,,,,
2,1790112580528,-358,268,10059,193033,-21991,-30543,0,0,0,278,139,220,250,172,278,483,187,228,278,153,322,0,,,,,
1,1790112580544,-3546,3919,9408,-6048787,-1060462,-897971,0,0,0,242,181,194,274,178,312,263,95,161,225,120,294,0,,,,,
2,1790112580544,-344,229,10050,202807,-28099,-36651,0,0,0,274,138,221,247,188,287,448,189,240,246,151,343,0,,,,,
1,1790112580560,-2727,3129,10543,-6232047,-1216843,-665843,0,0,0,246,180,204,284,180,315,327,126,200,224,119,293,0,,,,,
2,1790112580560,-320,186,10031,207694,-34208,-42760,0,0,0,279,161,220,251,208,306,454,173,252,251,136,356,0,,,,,
1,1790112580576,-2378,2699,11969,-6383541,-1347568,-463035,0,0,0,237,180,180,271,179,298,333,127,196,231,123,289,0,,,,,
2,1790112580576,-311,138,10026,211359,-40317,-48869,0,0,0,287,199,210,253,224,307,423,155,251,258,145,392,0,,,,,
1,1790112580592,-2388,2474,13529,-6571688,-1609019,-302989,0,0,0,235,181,208,270,180,313,334,126,212,225,122,294,0,,,,,
2,1790112580592,-315,105,10035,216246,-45204,-57421,0,0,0,299,181,214,266,231,317,428,160,262,256,145,421,0,,,,,
1,1790112580608,-2096,1957,15568,-6792821,-1966986,-125838,0,0,0,237,182,190,273,181,311,335,129,205,226,124,294,0,,,,,
2,1790112580608,-358,86,10107,250454,-45204,-64751,0,0,0,321,210,202,277,241,328,435,149,272,235,129,436,0,,,,,
1,1790112580624,-1603,1095,17841,-6874677,-2288301,2443,0,0,0,239,186,192,273,182,312,329,122,202,227,122,292,0,,,,,
2,1790112580624,-330,67,10189,307876,-31764,-72082,0,0,0,340,232,186,294,250,343,438,142,266,222,114,450,0,,,,,
1,1790112580640,-1368,373,20301,-6761056,-2476447,51312,0,0,0,241,187,193,277,184,309,306,109,182,232,124,280,0,,,,,
2,1790112580640,-196,4,10222,376292,-3665,-91629,0,0,0,356,237,159,305,273,350,432,151,284,220,114,469,0,,,,,
1,1790112580656,-1316,-248,23732,-6615670,-2664594,61086,0,0,0,249,190,203,289,187,313,309,109,185,225,118,275,0,,,,,
2,1790112580656,-153,-47,10337,448375,43982,-128281,0,0,0,373,225,140,309,273,356,424,153,304,216,107,489,0,,,,,
1,1790112580672,-655,-1440,27891,-6604674,-2951700,-8552,0,0,0,244,190,203,283,185,313,318,113,193,221,110,276,0,,,,,
2,1790112580672,-124,-110,10571,577878,128281,-167377,0,0,0,374,205,138,325,252,367,418,142,287,216,101,509,0,,,,,
1,1790112580688,1239,-4666,32218,-6808703,-3357315,-179594,0,0,0,242,193,196,283,188,310,318,115,190,220,110,274,0,,,,,
2,1790112580688,23,-224,10782,767246,223576,-217468,0,0,0,375,213,126,342,268,369,407,144,282,223,117,533,0,,,,,
1,1790112580704,4627,-10591,34591,-7138571,-3649308,-415388,0,0,0,237,193,187,284,189,305,327,122,191,224,117,272,0,,,,,
2,1790112580704,-119,-282,11026,955393,272445,-260228,0,0,0,407,194,130,349,275,378,405,158,290,218,101,557,0,,,,,
1,1790112580720,6877,-17884,34051,-7181331,-3275459,-702495,0,0,0,223,188,174,281,189,300,340,129,197,228,120,270,0,,,,,
2,1790112580720,-272,-325,11509,1143539,276111,-262672,0,0,0,427,207,136,346,280,386,367,150,298,200,88,570,0,,,,,
1,1790112580736,1995,-29231,27791,-6428745,-1744631,-840550,0,0,0,215,188,167,286,195,301,339,126,194,231,121,270,0,,,,,
2,1790112580736,-210,-445,12328,1414763,245567,-232128,0,0,0,434,229,133,343,262,386,333,140,267,213,87,572,0,,,,,
1,1790112580752,-3192,-41014,18324,-4710992,-2199114,266337,0,0,0,216,192,172,287,197,304,334,118,190,233,121,274,0,,,,,
2,1790112580752,-28,-617,13175,1805717,254119,-212581,0,0,0,437,207,142,373,246,392,343,150,261,226,82,608,0,,,,,
1,1790112580768,9112,-48255,12873,-2806314,-4048814,1695761,0,0,0,216,192,171,289,198,304,327,117,186,234,123,270,0,,,,,
2,1790112580768,-253,-650,13993,2254092,301767,-197920,0,0,0,431,218,149,334,258,396,320,143,261,206,86,624,0,,,,,
1,1790112580784,30299,-48777,12447,-994488,-3551570,1490511,0,0,0,217,181,148,303,207,286,299,130,154,263,163,243,0,,,,,
2,1790112580784,-28,-732,14792,2789210,333532,-161268,0,0,0,455,208,159,321,252,388,280,112,233,230,79,633,0,,,,,
1,1790112580800,30858,-43249,15022,926071,51312,-376292,0,0,0,190,190,152,291,207,301,329,263,171,296,290,245,0,,,,,
2,1790112580800,574,-832,15558,3349984,334754,-186924,0,0,0,456,213,146,325,245,373,273,130,236,237,112,622,0,,,,,
1,1790112580816,2981,-11945,16731,4188092,3726277,-1372003,0,0,0,200,206,150,291,218,324,341,325,174,327,358,260,0,,,,,
2,1790112580816,837,-808,16525,3962071,260228,-266337,0,0,0,443,216,147,309,237,366,242,124,218,222,87,584,0,,,,,
1,1790112580832,-6953,7298,14615,6590014,4601036,-577878,0,0,0,216,214,158,281,222,325,365,320,163,369,421,276,0,,,,,
2,1790112580832,2206,-971,17573,4772079,39095,-427605,0,0,0,403,221,148,294,236,365,216,116,217,198,80,516,0,,,,,
1,1790112580848,-3105,1397,16549,7013954,3290120,-489913,0,0,0,214,206,169,288,185,351,436,429,222,389,450,288,0,,,,,
2,1790112580848,3493,-1258,19195,5591860,-223576,-707381,0,0,0,365,230,138,275,238,348,191,115,198,193,98,487,0,,,,,
1,1790112580864,4919,-8236,24761,6294355,823446,-1150870,0,0,0,219,198,178,303,193,353,453,440,219,413,458,297,0,,,,,
2,1790112580864,4345,-2416,23144,6542366,-547335,-1038470,0,0,0,333,210,126,251,219,312,197,118,195,173,94,450,0,,,,,
1,1790112580880,2823,-3910,24216,4871039,472809,-417831,0,0,0,222,182,200,296,170,350,455,438,232,426,445,309,0,,,,,
2,1790112580880,5460,-4249,27834,7369478,-571769,-1312138,0,0,0,292,172,120,208,167,268,162,80,190,146,67,356,0,,,,,
1,1790112580896,-1947,-550,15678,2565634,618195,233350,0,0,0,252,167,218,303,166,356,465,442,264,444,438,325,0,,,,,
2,1790112580896,6125,-3943,31595,7853283,-277332,-1655444,0,0,0,249,116,113,170,109,229,151,78,154,126,58,242,0,,,,,
1,1790112580912,-2507,-631,9605,735481,458148,7330,0,0,0,284,202,248,326,194,377,460,421,258,460,433,351,0,,,,,
2,1790112580912,7733,181,31801,8103738,-846659,-2144136,0,0,0,202,66,94,156,76,190,184,113,122,118,71,174,0,,,,,
1,1790112580928,-1282,-1014,9246,125838,205250,-178372,0,0,0,298,235,276,347,221,402,454,393,258,473,430,383,0,,,,,
2,1790112580928,11505,7202,27896,8254011,-1585806,-2624277,0,0,0,172,54,85,150,63,170,183,117,119,121,80,146,0,,,,,
1,1790112580944,-899,-732,10576,194255,89186,-87964,0,0,0,325,242,287,366,242,419,450,367,262,481,420,408,0,,,,,
2,1790112580944,14577,16262,18363,7764097,-1412320,-3059213,0,0,0,178,59,95,156,63,182,198,130,134,116,79,134,0,,,,,
1,1790112580960,-1383,-397,10370,243124,117286,24434,0,0,0,348,267,296,373,261,422,449,345,252,481,384,426,0,,,,,
2,1790112580960,10935,20593,9227,4608367,-84299,-2735454,0,0,0,167,55,92,161,68,182,193,123,128,120,70,138,0,,,,,
1,1790112580976,-1478,-339,9992,200363,96516,32986,0,0,0,341,299,310,360,260,412,471,349,277,473,332,440,0,,,,,
2,1790112580976,4905,19693,7829,-124616,489913,-1474628,0,0,0,176,59,97,161,65,177,193,122,124,118,81,131,0,,,,,
1,1790112580992,-1340,-363,10107,196698,-13439,12217,0,0,0,352,324,321,368,254,422,479,332,301,455,306,456,0,,,,,
2,1790112580992,2636,13041,10126,-3595552,-586430,123394,0,0,0,188,66,105,162,64,179,196,130,137,139,89,144,0,,,,,
1,1790112581008,-1325,-378,10217,243124,-109955,24434,0,0,0,363,327,313,385,266,439,467,285,314,435,270,464,0,,,,,
2,1790112581008,4503,7848,8499,-4188092,-1436755,827111,0,0,0,183,66,105,157,63,177,186,132,136,109,62,123,0,,,,,
1,1790112581024,-1363,-416,10179,291993,-169820,48869,0,0,0,365,314,303,386,289,451,463,269,322,426,246,475,0,,,,,
2,1790112581024,6580,6800,4637,-3522248,-945619,736703,0,0,0,179,66,97,155,65,180,187,124,136,104,50,123,0,,,,,
1,1790112581040,-1354,-464,10088,301767,-195476,43982,0,0,0,390,323,303,384,302,465,468,244,342,406,219,476,0,,,,,
2,1790112581040,4613,7958,5656,-4140444,235793,621860,0,0,0,173,64,99,148,62,177,188,117,134,111,56,125,0,,,,,
1,1790112581056,-1368,-502,10069,305432,-207694,35430,0,0,0,402,308,281,395,277,453,444,188,283,395,205,477,0,,,,,
2,1790112581056,2507,7489,8298,-5115385,759916,676838,0,0,0,171,62,98,156,68,177,185,109,130,100,47,111,0,,,,,
1,1790112581072,-1459,-555,10093,321315,-201585,40317,0,0,0,424,311,281,402,281,454,429,165,284,365,190,466,0,,,,,
2,1790112581072,2244,5575,10222,-5795889,620639,720820,0,0,0,168,66,98,162,72,181,200,123,139,116,77,137,0,,,,,
1,1790112581088,-1555,-626,10098,356745,-167377,62308,0,0,0,423,300,260,396,276,451,421,131,267,361,177,470,0,,,,,
2,1790112581088,3761,4221,10619,-5963266,548556,514348,0,0,0,173,71,101,156,72,182,200,125,134,96,75,134,0,,,,,
1,1790112581104,-1545,-703,10064,384845,-107512,84299,0,0,0,419,336,244,395,296,455,429,136,295,358,180,472,0,,,,,
2,1790112581104,4355,3790,11418,-6128200,894306,245567,0,0,0,166,69,104,152,67,183,192,112,130,92,48,125,0,,,,,
1,1790112581120,-1502,-756,10107,382401,-68416,92851,0,0,0,428,337,246,400,302,456,420,137,297,355,179,469,0,,,,,
2,1790112581120,3618,3488,13218,-6318790,1411098,102625,0,0,0,149,73,108,145,66,181,190,114,134,99,61,131,0,,,,,
1,1790112581136,-1430,-799,10184,388510,-61086,92851,0,0,0,446,318,242,413,298,457,427,128,284,349,164,476,0,,,,,
2,1790112581136,2890,3053,15132,-6390872,1795943,149051,0,0,0,137,73,108,144,69,183,189,118,134,114,72,134,0,,,,,
1,1790112581152,-1373,-866,10160,411723,-53756,80634,0,0,0,455,319,226,421,304,459,424,114,273,349,161,483,0,,,,,
2,1790112581152,2402,2703,17286,-6359107,2150245,420275,0,0,0,135,67,106,152,69,187,185,116,129,118,66,137,0,,,,,
1,1790112581168,-1459,-942,10117,436157,-45204,75747,0,0,0,455,329,218,431,313,464,395,102,256,357,167,485,0,,,,,
2,1790112581168,1765,2431,20023,-6371324,2478891,819781,0,0,0,139,65,109,158,68,187,191,120,131,102,55,137,0,,,,,
1,1790112581184,-1608,-995,10189,463035,-32986,100181,0,0,0,455,341,225,440,325,469,379,106,260,359,169,488,0,,,,,
2,1790112581184,1215,1962,23421,-6439741,2616946,1255938,0,0,0,140,70,111,156,70,190,196,124,139,101,36,127,0,,,,,
1,1790112581200,-1569,-1043,10284,509461,-18325,139277,0,0,0,460,340,228,426,338,465,372,104,270,355,171,487,0,,,,,
2,1790112581200,904,583,27039,-6508158,2645046,1610240,0,0,0,132,72,110,148,68,190,178,112,138,97,50,131,0,,,,,
1,1790112581216,-1517,-1115,10361,569326,-19547,167377,0,0,0,482,330,222,433,317,466,339,80,228,349,161,490,0,,,,,
2,1790112581216,52,-2249,30265,-6644992,2690250,1830152,0,0,0,131,72,114,145,67,191,188,123,132,88,55,119,0,,,,,
1,1790112581232,-1588,-1210,10509,651182,-41538,193033,0,0,0,495,341,219,415,329,463,380,102,281,333,157,514,0,,,,,
2,1790112581232,-1521,-7231,32907,-6819699,2593733,1800830,0,0,0,136,73,117,141,62,185,245,156,165,128,81,138,0,,,,,
1,1790112581248,-1655,-1301,10638,753807,-67195,233350,0,0,0,496,341,227,422,347,471,393,118,313,347,173,521,0,,,,,
2,1790112581248,-3029,-14769,33955,-6795264,1861917,1426981,0,0,0,129,72,116,147,65,198,197,132,154,103,75,140,0,,,,,
1,1790112581264,-1521,-1416,10624,882089,-92851,277332,0,0,0,501,326,228,424,319,494,407,118,337,349,160,529,0,,,,,
2,1790112581264,-1799,-23086,31222,-6318790,951728,1156978,0,0,0,126,75,112,153,65,206,201,124,140,91,23,121,0,,,,,
1,1790112581280,-1359,-1541,10820,1022588,-95294,283441,0,0,0,504,375,246,433,343,477,325,90,249,359,182,525,0,,,,,
2,1790112581280,1354,-35300,23483,-5216789,717155,895528,0,0,0,133,75,119,158,75,221,191,111,144,94,62,152,0,,,,,
1,1790112581296,-1517,-1627,11567,1196074,-65973,278554,0,0,0,510,365,242,446,339,482,321,91,251,361,173,535,0,,,,,
2,1790112581296,-4489,-51079,15319,-3382971,1968207,-106290,0,0,0,136,75,121,158,72,220,283,167,214,120,80,153,0,,,,,
1,1790112581312,-1464,-1694,12711,1523497,-21991,280998,0,0,0,521,389,244,436,340,476,326,98,254,361,169,541,0,,,,,
2,1790112581312,-20492,-57362,14008,-1359786,2265088,-713490,0,0,0,133,74,117,167,72,216,234,132,168,112,68,143,0,,,,,
1,1790112581328,-1234,-1732,13802,1938886,-1221,259006,0,0,0,526,378,244,435,344,473,321,99,247,363,181,538,0,,,,,
2,1790112581328,-23996,-48011,16377,1003040,-338419,218689,0,0,0,127,67,93,172,74,188,267,177,145,154,124,114,0,,,,,
1,1790112581344,-1474,-1737,14869,2477669,-14660,223576,0,0,0,518,371,250,434,337,470,324,105,256,360,184,532,0,,,,,
2,1790112581344,-7556,-24149,19444,2902831,-2461786,1102000,0,0,0,130,68,96,164,73,200,290,233,156,192,218,147,0,,,,,
1,1790112581360,-2407,-1742,15735,3211929,-52534,291993,0,0,0,505,384,257,427,341,459,313,116,266,352,179,520,0,,,,,
2,1790112581360,11289,15936,15472,4624249,-3299894,893084,0,0,0,138,85,114,166,91,228,309,340,181,219,355,180,0,,,,,
1,1790112581376,-2790,-1665,16707,3966958,-50090,449596,0,0,0,497,379,242,424,356,459,271,107,250,338,175,503,0,,,,,
2,1790112581376,7384,12481,10160,5679824,-3695734,605978,0,0,0,144,94,117,176,98,239,350,418,199,264,439,198,0,,,,,
1,1790112581392,-3685,-1526,18138,4886921,124616,657290,0,0,0,483,378,209,418,352,470,244,79,222,311,159,490,0,,,,,
2,1790112581392,-3249,-5972,16654,6199060,-2790432,1411098,0,0,0,147,86,108,181,87,235,389,458,195,320,459,217,0,,,,,
1,1790112581408,-5757,-1761,20038,5990144,502131,1020144,0,0,0,455,348,189,407,352,435,248,81,216,297,146,465,0,,,,,
2,1790112581408,-8035,-6441,24709,5539325,-1596801,1396437,0,0,0,158,81,112,192,78,230,438,476,180,374,473,225,0,,,,,
1,1790112581424,-6283,-3029,23579,6978524,1053131,1445307,0,0,0,421,324,196,388,327,423,207,75,197,287,140,446,0,,,,,
2,1790112581424,-4292,-684,21287,3815464,-1003040,419053,0,0,0,181,78,131,206,69,229,496,436,181,410,461,222,0,,,,,
1,1790112581440,-5474,-5436,28394,7717671,1585806,1657888,0,0,0,377,278,188,353,269,358,246,86,171,265,119,423,0,,,,,
2,1790112581440,550,1737,12141,1905899,-761138,-96516,0,0,0,190,75,141,207,67,222,510,451,189,395,431,217,0,,,,,
1,1790112581456,-5259,-4843,31083,8181929,1876578,1777617,0,0,0,304,277,187,307,241,342,310,110,192,220,112,399,0,,,,,
2,1790112581456,320,157,9260,889419,-535117,61086,0,0,0,209,89,162,217,75,232,530,472,178,408,456,237,0,,,,,
1,1790112581472,-7681,-555,30605,8542339,2494773,1946216,0,0,0,241,207,162,282,181,313,214,71,121,218,112,263,0,,,,,
2,1790112581472,-770,-804,10222,439822,-343306,142942,0,0,0,235,89,174,241,74,236,539,452,190,425,425,265,0,,,,,
1,1790112581488,-12983,7217,23129,8168489,2665815,2169793,0,0,0,228,186,176,278,195,299,314,126,176,221,127,255,0,,,,,
2,1790112581488,-717,-95,10591,244346,-197920,62308,0,0,0,242,93,182,251,99,238,540,438,193,432,404,272,0,,,,,
1,1790112581504,-13950,12983,14175,6521597,1514945,2348165,0,0,0,222,180,197,281,191,291,209,75,114,221,125,255,0,,,,,
2,1790112581504,-335,473,10174,168598,-120951,0,0,0,0,271,93,207,267,84,248,533,368,225,422,313,283,0,,,,,
1,1790112581520,-9600,15223,10504,3125186,-25656,2207666,0,0,0,217,176,164,271,181,279,273,108,150,213,119,255,0,,,,,
2,1790112581520,-220,449,9940,194255,-101403,-4886,0,0,0,267,102,210,268,101,264,565,352,232,408,306,318,0,,,,,
1,1790112581536,-4407,13117,11256,-1178969,-180816,1354899,0,0,0,225,174,162,280,174,278,153,74,134,216,111,251,0,,,,,
2,1790112581536,-335,306,10112,229685,-64751,-3665,0,0,0,279,118,218,248,118,272,531,280,242,367,285,347,0,,,,,
1,1790112581552,-4268,9432,9968,-3240029,356745,530231,0,0,0,229,171,159,283,171,273,218,87,145,226,111,249,0,,,,,
2,1790112581552,-392,268,10174,244346,-21991,-14660,0,0,0,288,131,220,246,146,271,515,250,255,358,262,352,0,,,,,
1,1790112581568,-6326,7250,6173,-3309667,92851,61086,0,0,0,228,172,149,283,170,268,340,125,174,230,114,250,0,,,,,
2,1790112581568,-363,248,10074,229685,0,-24434,0,0,0,285,139,224,249,158,278,477,226,236,316,227,362,0,,,,,
1,1790112581584,-5441,7293,4647,-3418401,-761138,-131946,0,0,0,229,184,146,289,174,268,330,126,173,229,118,252,0,,,,,
2,1790112581584,-325,229,10011,216246,-1221,-25656,0,0,0,295,158,233,261,186,286,455,181,224,291,176,389,0,,,,,
1,1790112581600,-2560,7197,6101,-4299269,-1233947,-414166,0,0,0,228,192,147,291,178,270,323,123,168,230,122,253,0,,,,,
2,1790112581600,-291,205,10054,226020,-18325,-26878,0,0,0,312,174,245,265,207,289,452,163,239,257,132,403,0,,,,,
1,1790112581616,-1311,5996,8001,-5149593,-1144761,-719599,0,0,0,231,180,158,296,173,280,306,110,164,231,116,259,0,,,,,
2,1790112581616,-272,162,10122,267558,-30543,-36651,0,0,0,314,200,240,267,228,301,439,158,254,230,116,416,0,,,,,
1,1790112581632,-1847,4532,9136,-5522221,-1109331,-871093,0,0,0,238,196,155,312,185,283,294,109,155,230,119,259,0,,,,,
2,1790112581632,-291,95,10141,302989,-34208,-46425,0,0,0,319,215,227,282,244,319,414,151,260,227,123,433,0,,,,,
1,1790112581648,-1713,3847,10102,-5670051,-1328021,-871093,0,0,0,241,185,154,306,177,280,286,103,149,232,116,260,0,,,,,
2,1790112581648,-325,43,10141,323758,-35430,-47647,0,0,0,340,205,225,292,237,320,401,148,257,235,127,445,0,,,,,
1,1790112581664,-827,3709,11576,-5819102,-1578475,-778242,0,0,0,241,178,150,300,177,280,302,107,153,232,117,259,0,,,,,
2,1790112581664,-354,4,10122,353080,-21991,-42760,0,0,0,350,217,214,288,243,323,397,140,249,236,116,457,0,,,,,
1,1790112581680,-191,3689,13271,-6025574,-1748296,-652404,0,0,0,238,174,149,303,176,278,307,111,157,242,121,259,0,,,,,
2,1790112581680,-320,-23,10102,377514,3665,-36651,0,0,0,358,233,206,300,260,339,387,137,255,227,109,471,0,,,,,
1,1790112581696,425,3474,15606,-6340781,-1996307,-471587,0,0,0,228,171,148,296,173,281,327,121,177,264,133,265,0,,,,,
2,1790112581696,-167,-90,10174,393397,45204,-50090,0,0,0,372,218,208,313,252,342,387,136,265,232,117,496,0,,,,,
1,1790112581712,1052,2962,17918,-6618113,-2183232,-323758,0,0,0,227,171,148,302,180,287,346,129,186,241,122,265,0,,,,,
2,1790112581712,-57,-153,10284,426383,75747,-87964,0,0,0,404,210,188,318,257,342,377,140,261,219,105,500,0,,,,,
1,1790112581728,1330,2024,20602,-6798930,-2227214,-175929,0,0,0,232,176,153,307,179,289,346,127,186,232,115,265,0,,,,,
2,1790112581728,-19,-215,10366,478918,78190,-130725,0,0,0,395,223,163,318,275,352,366,137,279,206,95,498,0,,,,,
1,1790112581744,1191,976,23799,-6911329,-2216219,8552,0,0,0,233,177,157,304,175,289,343,123,187,231,112,265,0,,,,,
2,1790112581744,23,-291,10500,555887,43982,-174707,0,0,0,443,195,152,319,275,362,362,137,259,225,122,541,0,,,,,
1,1790112581760,1541,-526,27446,-7040832,-2353052,151494,0,0,0,230,177,157,304,177,290,343,123,187,231,109,265,0,,,,,
2,1790112581760,52,-368,10595,641408,-3665,-215024,0,0,0,412,206,140,321,282,377,345,142,265,227,111,523,0,,,,,
1,1790112581776,3019,-3488,31160,-7199657,-2654820,162490,0,0,0,229,179,159,302,179,291,351,125,190,231,109,265,0,,,,,
2,1790112581776,-86,-449,10643,736703,-56199,-244346,0,0,0,415,252,127,322,292,364,335,153,249,243,134,552,0,,,,,
1,1790112581792,5886,-8423,33605,-7313278,-2857627,15882,0,0,0,226,181,169,299,176,297,359,127,202,230,107,267,0,,,,,
2,1790112581792,-272,-564,10701,847880,-83077,-232128,0,0,0,429,273,142,327,291,364,330,149,252,218,105,548,0,,,,,
1,1790112581808,6996,-16668,32548,-7200879,-2116037,-287106,0,0,0,220,177,180,300,174,306,354,120,209,228,105,271,0,,,,,
2,1790112581808,-263,-684,10921,970053,-86742,-211359,0,0,0,433,278,143,326,294,363,353,153,253,224,106,560,0,,,,,
1,1790112581824,-272,-26920,27408,-6536258,-741590,-312763,0,0,0,224,178,179,308,179,307,335,110,193,230,109,270,0,,,,,
2,1790112581824,-224,-765,11629,1164309,-97738,-197920,0,0,0,446,266,147,338,302,381,328,141,245,232,123,588,0,,,,,
1,1790112581840,-6695,-37367,18755,-4778187,-1596801,725707,0,0,0,236,185,188,316,185,315,299,99,174,237,110,275,0,,,,,
2,1790112581840,-311,-804,12457,1425759,-103847,-179594,0,0,0,462,258,142,331,289,386,307,139,243,236,122,606,0,,,,,
1,1790112581856,8504,-42971,13663,-2800206,-4100127,1808161,0,0,0,224,183,185,300,185,314,345,123,209,231,115,280,0,,,,,
2,1790112581856,-440,-842,13390,1808161,-85521,-145385,0,0,0,491,266,147,327,279,381,305,140,248,231,119,614,0,,,,,
1,1790112581872,29169,-43010,13074,-1222952,-2834414,483805,0,0,0,225,182,184,292,185,310,338,125,198,238,133,264,0,,,,,
2,1790112581872,-119,-971,14079,2302961,-56199,-122173,0,0,0,492,256,153,321,284,371,294,141,251,221,120,614,0,,,,,
1,1790112581888,26532,-40339,14319,682947,769690,-1857030,0,0,0,185,195,164,285,207,312,293,223,165,281,287,237,0,,,,,
2,1790112581888,162,-1091,14596,2858849,-21991,-151494,0,0,0,443,215,158,303,272,360,267,134,236,218,106,614,0,,,,,
1,1790112581904,1019,-18655,15156,3946189,2794097,-2178345,0,0,0,225,204,159,300,200,327,328,279,185,336,350,258,0,,,,,
2,1790112581904,272,-1095,15869,3505144,-2443,-206472,0,0,0,420,203,167,298,240,353,245,119,216,225,91,608,0,,,,,
1,1790112581920,-8207,3268,13457,6798930,2970026,-674395,0,0,0,223,212,160,291,194,349,397,400,195,358,421,271,0,,,,,
2,1790112581920,1579,-1273,17391,4191757,-69638,-311541,0,0,0,446,251,155,305,237,344,232,123,221,208,101,541,0,,,,,
1,1790112581936,-2488,2043,16439,7575950,2130697,226020,0,0,0,227,210,175,304,197,362,411,437,198,386,448,283,0,,,,,
2,1790112581936,3311,-1507,19262,5005429,-276111,-592539,0,0,0,402,254,148,292,227,339,188,107,192,182,101,472,0,,,,,
1,1790112581952,1665,-5345,24948,6734178,894306,-577878,0,0,0,230,198,188,313,196,369,434,444,204,421,455,298,0,,,,,
2,1790112581952,4426,-1962,22627,6081774,-693942,-1016479,0,0,0,353,221,127,258,210,304,160,104,165,179,86,446,0,,,,,
1,1790112581968,1832,-5312,26503,5281540,350636,-619417,0,0,0,230,184,199,306,185,360,446,441,209,438,460,306,0,,,,,
2,1790112581968,5293,-3297,26489,7035945,-1003040,-1368338,0,0,0,317,182,132,217,186,281,168,99,156,143,62,386,0,,,,,
1,1790112581984,-1301,-1440,16769,2740341,463035,-29321,0,0,0,241,173,219,307,178,361,459,454,241,453,448,310,0,,,,,
2,1790112581984,5470,-4000,30643,7705454,-1003040,-1731192,0,0,0,263,121,134,181,127,250,162,103,155,120,63,297,0,,,,,
1,1790112582000,-2096,-464,9375,674395,371406,19547,0,0,0,272,177,245,332,190,377,466,449,262,472,442,328,0,,,,,
2,1790112582000,6968,-1091,31863,8007221,-1385442,-2133141,0,0,0,221,82,102,165,90,197,190,119,144,104,42,197,0,,,,,
1,1790112582016,-1440,-823,8906,17104,163711,-83077,0,0,0,293,200,264,346,203,382,469,427,266,484,448,349,0,,,,,
2,1790112582016,11069,5240,29083,8230798,-2205223,-2581516,0,0,0,178,57,99,154,69,180,185,124,138,104,63,142,0,,,,,
1,1790112582032,-1206,-789,10337,109955,90408,-54977,0,0,0,305,241,274,347,218,384,469,412,265,489,448,357,0,,,,,
2,1790112582032,13912,15214,21234,7781201,-2469117,-2860071,0,0,0,177,61,92,155,66,172,181,119,128,136,84,174,0,,,,,
1,1790112582048,-1359,-488,10442,147829,105068,0,0,0,0,338,286,289,361,245,394,438,359,220,484,452,370,0,,,,,
2,1790112582048,12261,22962,10136,5104389,-1696983,-2311514,0,0,0,184,94,94,153,118,172,176,126,120,119,76,144,0,,,,,
1,1790112582064,-1454,-315,9964,73303,109955,15882,0,0,0,352,292,321,353,243,393,426,314,204,483,425,382,0,,,,,
2,1790112582064,7628,22057,7485,25656,-520457,-542448,0,0,0,188,74,100,171,88,170,202,127,127,112,56,127,0,,,,,
1,1790112582080,-1378,-335,9992,65973,70860,2443,0,0,0,365,307,324,359,255,414,407,255,188,483,421,393,0,,,,,
2,1790112582080,6044,14266,10342,-3414736,-448375,1309695,0,0,0,190,60,99,180,65,176,215,126,129,110,43,118,0,,,,,
