foot,step_id,surface,contact_time_sec,stance_duration,time_to_peak_frac,impact_mag,impact_mag_norm,accel_mag_strike,loading_rate,loading_rate_norm,heel_pmax_ratio,fore_pmax_ratio,heel_mean_ratio,fore_mean_ratio,heel_fore_ratio,total_pmax,total_p_mean,midstance_diff,heel_impulse,heel_impulse_norm,rise_slope,fall_slope,slope_asym,heel_skew,heel_kurt,gyro_mag_strike,gyro_x_strike,gyro_y_strike,gyro_z_strike,gyro_x_std,gyro_y_std,gyro_z_std,pressure_01_mean_ratio,pressure_02_mean_ratio,pressure_03_mean_ratio,pressure_04_mean_ratio,pressure_05_mean_ratio,pressure_06_mean_ratio,pressure_07_mean_ratio,pressure_08_mean_ratio,pressure_09_mean_ratio,pressure_10_mean_ratio,pressure_11_mean_ratio,pressure_12_mean_ratio,accel_spec_centroid,accel_hf_frac,accel_spec_entropy,accel_zcr,accel_jerk_ratio,gyro_hf_frac,heel_ripple_frac,impact_mag_roll3_std,loading_rate_roll3_std,stance_duration_roll3_std,source_user,source_recording
right,0,paved,0.768,1.1199999999999999,0.9857142857142858,19138.0,1.3409501130024812,27592.364396694968,1088.5416666666665,0.2606078568811003,0.22752120640904808,0.5291234684260132,0.17115565619501014,0.4338280429415215,0.39452418758919605,5305.0,4130.084507042254,6.100000000000023,690.0,0.16706679943799532,0.21739130434782608,-1.0,-0.782608695652174,0.4629895142116142,-1.3780922937831774,8564950.76025601,7836179.0,1924225.0,2872288.0,3978078.7908913568,1011191.3910725558,1242841.4842942697,0.07314927225852215,0.10102102061138467,0.06752922560667858,0.08688223819721998,0.07336411627494577,0.09602504467391453,0.1031046665484456,0.0844882620142138,0.07653562318405652,0.08227843784528502,0.08666739418079634,0.06895469860453696,3.6158460607367386,0.12895053341735555,0.47530059131892066,0.05714285714285714,0.41537914226483524,0.2230642245920632,0.0005838127906137122,0.0,0.0,0.0,Kristian,REC_20260311_115523.csv
right,1,paved,1.904,1.12,1.0,20267.0,1.453401993957761,28732.847022180034,1353.125,0.3239517761612912,0.234929249854623,0.5324675324675324,0.1696551435827582,0.4312046459290638,0.39344460961714767,5159.0,4042.9154929577467,-11.800000000000011,668.8380281690141,0.16543458039972547,0.014285714285714285,0.0,0.014285714285714285,0.6032986825124974,-1.1134765043314483,8761495.093564454,8032877.0,1499063.0,3160616.0,3942817.056771053,1109839.015732137,1244422.2763290138,0.07269889599960982,0.09587280131825102,0.06518444714628614,0.09051479374457841,0.06691238717004533,0.09794214884670455,0.11071706027235957,0.0840071486550983,0.07996251484948458,0.08080209861102886,0.08564799492765993,0.06973770845889349,3.9680293289588278,0.1615254671438302,0.5016811483501322,0.05714285714285714,0.46161522455656223,0.1972129083227979,0.0004449166936601674,798.3235559596121,187.0886691889408,0.0,Kristian,REC_20260311_115523.csv
right,2,paved,3.04,1.056,0.015151515151515152,22727.0,1.6984255786787423,30629.966013693193,1299.8511904761904,0.3111974887021752,0.24284594276754215,0.537828302626421,0.16654948177562431,0.4351918978487768,0.38270354434172976,5102.0,4096.940298507463,-2.6000000000000227,664.2388059701492,0.16213045774968576,10.0,-0.6461538461538462,9.353846153846154,0.6541556984410123,-0.838694528186652,9379299.996125191,8396953.0,2166128.0,3573561.0,4335243.606589187,1104381.7623457045,1296239.1241476296,0.07235833075283703,0.09640248456256033,0.07016521248110165,0.08833676387548041,0.06647479917666987,0.10028597970819139,0.10556112133190039,0.08242408787045301,0.08369187052587479,0.07828557897229457,0.0841253939051713,0.07188837683746516,4.608257030050155,0.1907229431421156,0.5367955390702217,0.06060606060606061,0.43953095953072446,0.263345649013016,0.0006718169308559728,1835.1731071845325,139.93698219291704,0.03695041722813605,Kristian,REC_20260311_115523.csv
right,3,paved,4.112,1.12,0.014285714285714285,16094.0,1.0377583276810718,30820.667951879303,1657.2916666666665,0.39677234478261303,0.22698589458054938,0.5200445434298441,0.16912094773613243,0.43276574919418803,0.3907909719078805,5388.0,4173.028169014085,-0.19999999999998863,688.6760563380282,0.1650302917798741,19.0,-0.043478260869565216,18.956521739130434,0.6015675607149588,-0.7524111634497914,9331166.027914304,8049982.0,1859473.0,4337143.0,4042424.431575934,1228393.5796977931,1382858.8892480605,0.07449584015390587,0.102671414347672,0.07610915166140708,0.08695344009990381,0.07036805778220295,0.09373069848287965,0.10379870732571679,0.08359856219518369,0.0790421384815296,0.07900163693740823,0.08552238554094874,0.06470796699124154,3.853913540856949,0.1397000156378423,0.47627074737061853,0.08571428571428572,0.4737927202486135,0.18978135197316157,0.0004278053673993507,3353.1631335203474,192.83808143602582,0.036950417228136134,Kristian,REC_20260311_115523.csv
right,4,paved,5.248,1.12,0.0,17535.0,1.1812863706009638,28578.89264824654,2614.5833333333335,0.6259576275325951,0.22707908872013335,0.5321355806630857,0.16695343401037843,0.4417530967445622,0.3779338169684072,5399.0,4109.267605633803,-13.699999999999989,669.1619718309859,0.16284215000102822,0.0,-0.7571428571428571,-0.7571428571428571,0.5654640404958258,-1.1700239274073365,8900162.259432016,8181929.0,1457524.0,3185051.0,4065356.497902125,1127490.3642110848,1185622.8291965167,0.07727980038250878,0.10148136469265623,0.06491338712220401,0.08993412348590268,0.07130567113840922,0.09894158857683422,0.10256102660424049,0.08411423165774375,0.08009034885075987,0.07633381089807305,0.08283920235263471,0.07020544423803288,3.6174764921285143,0.12734347782000047,0.4727692548640062,0.05714285714285714,0.47160653607674946,0.20907496813104973,0.000914072785711802,3488.7923889697604,679.7906094956069,0.036950417228136134,Kristian,REC_20260311_115523.csv
right,5,paved,6.384,1.1519999999999992,0.027777777777777776,17023.0,1.1302895919923692,27839.41820512778,1204.8611111111113,0.2884559053835465,0.2250280583613917,0.5310512532734755,0.17575218457072722,0.4313996301362075,0.40739994263587304,5346.0,4096.287671232877,-13.0,703.5410958904109,0.17175090041434107,1.0,-0.15714285714285714,0.8428571428571429,0.41580698768614854,-1.3589652030185753,8686881.26081812,8092742.0,1538158.0,2757445.0,3955725.417284597,1144231.3270334383,1122903.6952287357,0.0726919462660812,0.09716783322018933,0.06795996374933534,0.0874864979650803,0.0661139889442161,0.09844530129184795,0.10502660277096869,0.08591808821218008,0.08218600871487379,0.08024639750659633,0.08983409635854715,0.06692327500008359,3.992925702134743,0.14171323956221793,0.4907277308804042,0.05555555555555555,0.5096581849527633,0.1954093807709949,0.0005867683316130838,730.4868239742526,719.7705058439242,0.018475208614067692,Kristian,REC_20260311_115523.csv
right,6,paved,7.552,1.120000000000001,0.014285714285714285,20473.0,1.4739202291010627,29810.0995805113,1548.9583333333335,0.3708362518489916,0.23059185242121444,0.5359338970023059,0.16610668217743868,0.43536113867314474,0.3815376877311358,5204.0,4116.478873239436,16.19999999999999,667.0,0.16203168303281212,4.0,-0.2028985507246377,3.7971014492753623,0.5619346133555139,-1.151801618657072,9295630.613817709,8451931.0,1376890.0,3616322.0,4185442.973487902,1164821.967439978,1278724.4286085446,0.07215246176480651,0.09385157559790605,0.06808088411400418,0.08843877236801588,0.06618537653539536,0.10080062955486366,0.10714065761111302,0.08269750573100215,0.08608478461696377,0.07892017654908133,0.08340917644643651,0.07223799911041161,3.7398394718992303,0.14135283612319396,0.49102934280773725,0.05714285714285714,0.4710585441763652,0.16912341890661156,0.0007702835407460461,1861.7414786519964,734.9916419925249,0.01847520861406742,Kristian,REC_20260311_115523.csv
right,7,paved,8.688,1.0719999999999992,0.0,23905.0,1.8157580107117977,29015.51161017155,1162.5,0.27831422801847655,0.22938443670150988,0.5315524583817267,0.1663656852263862,0.4337022161865411,0.3835942704861252,5166.0,4071.6470588235293,-12.699999999999989,660.0661764705883,0.16211281747522321,0.0,-0.22388059701492538,-0.22388059701492538,0.5147313667051545,-1.249012956468668,9292817.13990892,8345640.0,2069611.0,3524692.0,4252680.496527766,1073737.7351572474,1270963.6965496805,0.07431231760524719,0.09643806524314485,0.06698040972001504,0.09033054985697363,0.06524675662399955,0.0996128174752232,0.11008697159698345,0.08192955589586523,0.08207402698719987,0.0782383195122656,0.08443612933052097,0.07031408015256148,4.529436931281256,0.17933203662754882,0.5270048542128941,0.05970149253731343,0.46722077362435627,0.22022948051487873,0.0006763963089616586,3441.0039232758786,211.95416386505084,0.04026578365477756,Kristian,REC_20260311_115523.csv
right,8,paved,9.776,1.152000000000001,1.0,18631.0,1.2904513498099863,28853.644639802438,1509.375,0.36135960250786064,0.23640615864353928,0.5386864159033327,0.1606789325908343,0.4325624563898654,0.3714583413728467,5131.0,4103.13698630137,-24.899999999999977,642.9383561643835,0.15669434345255384,0.5416666666666666,0.0,0.5416666666666666,0.6012706272045599,-0.9649255240083914,8840047.43962367,7975456.0,1814269.0,3353650.0,4087772.6147612566,1213321.7816738228,1246806.091397765,0.07549853269633325,0.09286579930490872,0.0686210684107382,0.09152703077164481,0.06404722080332789,0.10131907094137797,0.1096855396305533,0.08032611199583346,0.08280333456860604,0.07909417785923901,0.08035282059500082,0.07385929242243656,3.914981171024673,0.14966740458715672,0.4913700912602382,0.06944444444444445,0.47233457470664075,0.21913681312331773,0.000789586559666697,2676.6479036287137,212.61826093790586,0.040265783654778356,Kristian,REC_20260311_115523.csv
right,9,paved,10.944,1.0879999999999992,0.029411764705882353,19502.0,1.377205635294529,31249.741518931,1443.75,0.3456483154423015,0.23543123543123542,0.5493395493395493,0.1707272199774977,0.43374563929832505,0.3936113807474558,5148.0,4096.202898550725,-0.6000000000000227,682.1739130434783,0.16653811589382883,4.5,-0.7121212121212122,3.787878787878788,0.4695081997746652,-0.9263560311932149,9307180.287236355,8412836.0,2106263.0,3378084.0,4224627.563451933,1179652.7936570502,1264726.4589919378,0.07105555516243392,0.09120500428109454,0.06073493302386798,0.09079812339458954,0.06441808957040454,0.10262243576589133,0.11092988203992385,0.0864533431456492,0.08470198628634507,0.07776732074243378,0.0842738768318485,0.07503944975551764,4.107461384053868,0.15457549488740338,0.4908749430008987,0.058823529411764705,0.444785719427806,0.2127154186858017,0.0005877415738242135,2827.2520816745932,184.26903734757013,0.042332020977034555,Kristian,REC_20260311_115523.csv
right,10,paved,12.048,1.1039999999999992,0.0,17563.0,1.1840752569311213,29642.567044707852,1575.0,0.37707088957341983,0.2252062152311529,0.5328985229234606,0.16267668384729622,0.4378824146064471,0.37150768886988367,5213.0,4088.214285714286,-10.0,648.2857142857143,0.1585742989429545,0.0,0.0,0.0,0.5916856040959579,-1.013153335896353,8965216.739453988,8035321.0,2290744.0,3249803.0,4123844.553048783,1346273.3450890593,1261751.5745869782,0.07625404035991963,0.09384118109548353,0.0646108150607146,0.09198916746745872,0.0670673538918494,0.10031624006289858,0.10706735389184939,0.08126496025159431,0.08466847208875689,0.0776343146675985,0.08141172359570192,0.07387437756617454,4.120233211282551,0.1667586100494027,0.5109540300443562,0.057971014492753624,0.44394412264255406,0.22046071179694085,0.0005400275292960634,971.1664807505032,65.62499999999946,0.033306655991459204,Kristian,REC_20260311_115523.csv
right,11,paved,13.168,1.088000000000001,0.029411764705882353,16712.0,1.0993130331109768,30843.203465269296,1325.5208333333335,0.3173430601733973,0.23149236192714454,0.546220133176655,0.15877966970752236,0.44433880972219253,0.35733918855007524,5106.0,4070.1739130434785,-25.69999999999999,629.1884057971015,0.15458514039922805,3.0,-0.030303030303030304,2.9696969696969697,0.8679010072093895,-0.7587748541126076,9037951.447160855,8131838.0,1929112.0,3440393.0,4102600.9708495676,1333460.6335520204,1290170.988810783,0.07643443644469132,0.10006694155432591,0.06668162169476075,0.09023223022197534,0.07085834739818117,0.10077196430733294,0.10346030864329409,0.0793862741327864,0.08240932624037714,0.07700059107968181,0.07939339557473597,0.07330456270785708,4.289588014337132,0.1605924721089452,0.5112612434501115,0.08823529411764706,0.47581375216521254,0.2786010778945462,0.0008918637337648217,1429.9196947148182,124.79620250057629,0.009237604307033687,Kristian,REC_20260311_115523.csv
right,12,paved,14.272,1.1199999999999992,1.0,17492.0,1.1770034380225076,30609.97727865867,1183.0357142857142,0.2832306851954542,0.2311797217457595,0.5281113016962073,0.16365801593784104,0.4368457900625296,0.3746356715817816,5247.0,4103.971830985915,-11.5,654.7887323943662,0.15955000652064988,0.45714285714285713,0.0,0.45714285714285713,0.6853263848948619,-0.8678912917043746,9061944.009617914,8206363.0,1726305.0,3434284.0,4099038.8283294425,1269969.574978066,1238683.235670995,0.07393387374649085,0.09573343583337338,0.06598554474881771,0.09121702781915149,0.0678525097638152,0.0987535262988105,0.10854479686459699,0.08211557337103871,0.08328929034737904,0.07904400409084981,0.08154244256680235,0.071987974548874,3.95217332502188,0.1635241255529268,0.5021981482397895,0.05714285714285714,0.47681337165017357,0.22666814681792896,0.000561132521257776,472.16557830206114,198.40105217556194,0.01599999999999921,Kristian,REC_20260311_115523.csv
right,13,paved,15.408,1.104000000000001,0.0,18970.0,1.3242167950215362,30140.55284828067,1347.2222222222224,0.32253859161042087,0.2365234375,0.53046875,0.16628578449440964,0.4346515015884717,0.3825726677271556,5120.0,4069.5,-0.10000000000002274,659.7928571428571,0.1621311849472557,0.0,-0.7971014492753623,-0.7971014492753623,0.5878507767884318,-0.9202145816554599,9080634.762580698,8255232.0,1624901.0,3415958.0,4149928.3122820994,1132415.3226769464,1333103.7660402877,0.07407017359099925,0.09438154915486283,0.06697909536096044,0.09086409351798219,0.06569076580134449,0.0998508065223878,0.10728941779439383,0.08143155529812368,0.0838642865918944,0.07902339704772436,0.08485422919628595,0.07170063012304073,4.027212100793085,0.16884239844324186,0.5056081658408287,0.057971014492753624,0.4604466538680189,0.22846321920879217,0.0008560546864995144,1146.8397156243407,89.19096443223049,0.01599999999999921,Kristian,REC_20260311_115523.csv
right,14,paved,16.528,1.120000000000001,1.0,16152.0,1.0435353065078268,29021.68027527007,2281.25,0.5461542646599136,0.22901353965183752,0.5201160541586074,0.1631058129802675,0.435851246671925,0.37422357794229133,5170.0,4089.1971830985917,-21.5,650.387323943662,0.1590501252010622,0.18571428571428572,0.0,0.18571428571428572,0.6438516482965421,-1.0386445074387292,8974511.249319708,8217359.0,1753183.0,3153286.0,3981223.444809844,1164678.222316101,1232616.8240420173,0.07519985671625341,0.09916544106250409,0.06948917277746587,0.08899780596763027,0.06719181078279078,0.09810459024637228,0.104889902284618,0.07989102168888827,0.08239159861262757,0.07993235353886743,0.08321479129137921,0.0715316550306028,3.7454230758405163,0.14579709714090014,0.4860171265103681,0.05714285714285714,0.4400888643683983,0.2207587306143781,0.0009639246201705923,1409.56305286425,592.3737159929555,0.009237604307033687,Kristian,REC_20260311_115523.csv
right,15,paved,17.664,1.0879999999999974,0.014705882352941176,19143.0,1.3414481284185809,30279.32659422927,1375.0,0.32918887184981094,0.23788721207307387,0.5430897537728356,0.16471706020057225,0.438180977428398,0.3759110246345519,5036.0,4011.710144927536,-1.0,643.8768115942029,0.1604993352793272,7.0,-0.8059701492537313,6.1940298507462686,0.657339483266062,-0.9505847707953752,9074904.073015979,8296771.0,1662775.0,3279124.0,4229604.236309986,1283339.7819151517,1246480.4662550036,0.07476662524204503,0.09331377705846652,0.06506676107626948,0.09257319152625647,0.06781595907632727,0.1007738215658507,0.10763417242276235,0.08274327331580013,0.08370422820149707,0.07732074217508164,0.08197378688477212,0.07231366145487125,4.0397698718298924,0.1535864653285666,0.4992641131806361,0.058823529411764705,0.4771599273543412,0.21998013081955414,0.000811624842244691,1679.1433331712094,531.4239608665825,0.01600000000000193,Kristian,REC_20260311_115523.csv
right,16,paved,18.768,1.1039999999999992,0.014492753623188406,19286.0,1.3556913693190282,29355.841820666632,1017.8571428571428,0.24368526877193794,0.22628726287262874,0.5280681378242353,0.16753342583471909,0.43537083523102393,0.3848062669281109,5166.0,4046.2714285714287,-11.699999999999989,661.3071428571428,0.16343617933970955,4.0,-0.19117647058823528,3.8088235294117645,0.5698529233874374,-1.1630343726340238,9124385.207103325,8372518.0,1326799.0,3375641.0,4179788.226804421,1307044.4766037571,1267808.4943099874,0.07454834962699346,0.09414310882329058,0.06711646348137085,0.09133982255268519,0.0675224810142671,0.10032163649779868,0.10678614173895544,0.08375965174287439,0.08204378634298243,0.07904631777403535,0.0837737740918447,0.06959846631290181,4.114940830229862,0.15478502518569623,0.5003974713008462,0.057971014492753624,0.4768941700398714,0.22746952436490184,0.0004605803180285166,1769.5802703842844,651.2809934260011,0.01600000000000193,Kristian,REC_20260311_115523.csv
right,17,paved,19.888,1.1039999999999992,0.0,19238.0,1.3509104213244725,29983.3920862867,1589.84375,0.3806246330763439,0.224414780421745,0.5316308763784098,0.16695407691735686,0.4355026610530192,0.38335948743361736,5169.0,4034.385714285714,-14.199999999999989,656.9857142857143,0.16284653000810886,0.0,0.0,0.0,0.559251247122932,-1.1454991908162007,9296927.322892709,8502022.0,1646892.0,3381749.0,4208376.525870441,1301269.8784794833,1242800.5397114626,0.07457322233514041,0.09709391056170705,0.06838003307283459,0.09044393375518313,0.06759039258941883,0.09896355260315785,0.10659438328370048,0.08402058022641083,0.0814108715435524,0.07811421105000939,0.08293349669094605,0.06988141228793905,3.99666617903873,0.1506286272817133,0.4938230067512762,0.057971014492753624,0.4630427798223023,0.24170107510623595,0.0008362128118702001,72.77591176560543,288.92834638626937,0.009237604307035274,Kristian,REC_20260311_115523.csv
right,18,paved,21.008,1.1359999999999992,0.014084507042253521,19904.0,1.4172460747489333,29140.185826449357,1060.3298611111113,0.25385366601296977,0.2315891472868217,0.5253875968992248,0.17717845284904013,0.4296890133454769,0.4123411289235941,5160.0,4086.902777777778,1.1000000000000227,707.6111111111111,0.1731411657156839,11.0,-0.04285714285714286,10.957142857142857,0.27512627727995975,-1.2822202282164323,9069206.911476769,8189259.0,1877799.0,3414736.0,4129765.121645852,1324143.102799478,1256613.3789448147,0.07181817254984589,0.09231726008217307,0.0661020808341008,0.08942862871571448,0.065558338459238,0.09922618663277338,0.10799063403759299,0.08940823837665714,0.08315859945557794,0.07768719180852113,0.08777021447238298,0.06953445457542216,3.9510947699556525,0.1636042668399246,0.4970479387973607,0.056338028169014086,0.47420422752575386,0.23611241454566467,0.0007038126670649548,371.4350548884447,318.68416158555146,0.01847520861406817,Kristian,REC_20260311_115523.csv
right,19,paved,22.16,1.088000000000001,1.0,17927.0,1.220330779223169,28871.0940042112,1274.3055555555557,0.3050816059820218,0.24250788643533122,0.5319400630914827,0.16997580772148818,0.4361409737034227,0.38972675802062123,5072.0,4049.68115942029,-14.5,670.7826086956521,0.16563837553860028,0.5294117647058824,0.0,0.5294117647058824,0.5709519476622561,-1.1165401743864498,9449142.411147797,8629082.0,1321912.0,3616322.0,4315660.007885156,1096879.6266395617,1353456.9165153666,0.07313869762514852,0.09613925590849878,0.06494338434229927,0.09149405213507594,0.06773480109366276,0.09818271612007387,0.10815308415763632,0.08520262822623359,0.08259014844611133,0.07659218117010463,0.08477317949525459,0.07105587127990037,4.0498306547328555,0.15525658210373605,0.500612246766344,0.058823529411764705,0.43878685850658006,0.21754212020714914,0.0011067211997438382,1005.8831940140873,266.3753330961402,0.02444040370643048,Kristian,REC_20260311_115523.csv
right,20,paved,23.264,1.120000000000001,0.02857142857142857,21268.0,1.5531046802608919,29458.81311254749,1396.875,0.33442596753833065,0.23971273291925466,0.530861801242236,0.1757768587012338,0.43185571731919553,0.40702681856869427,5152.0,4059.323943661972,0.0,696.7957746478874,0.17165315809196008,2.0,-1.3088235294117647,0.6911764705882353,0.44331955013891144,-1.2870585508673658,9395846.81175518,8548448.0,1736079.0,3491705.0,4178610.0092653353,1229819.5163654701,1284382.037428905,0.07324469487738193,0.09581835593243862,0.06223543780272855,0.08978460300056902,0.06566693961389532,0.09783770280210399,0.11078303471056028,0.08707479216687716,0.08274811597018862,0.07665190901142215,0.08870206653435665,0.06945234757747769,4.001041808599711,0.16446309340912163,0.5016864427195437,0.05714285714285714,0.47508302975273325,0.2278859840311935,0.0005564949987759346,1679.846520767095,170.32884715266997,0.02444040370643048,Kristian,REC_20260311_115523.csv
right,21,paved,24.4,1.120000000000001,1.0,20775.0,1.5040003602334757,31038.06561305005,1069.4444444444446,0.25603578921651965,0.23750975800156127,0.5427400468384075,0.16422009854851818,0.4384757554872048,0.3745249229708417,5124.0,4107.507042253521,-9.300000000000011,657.8239436619718,0.1601516289308823,0.8714285714285714,0.0,0.8714285714285714,0.6036644137688372,-0.9294818859763145,9556044.927345518,8668177.0,1676214.0,3656639.0,4317897.857824518,1311213.0734994495,1378216.2895820271,0.07236492440841744,0.09577448368325944,0.06595618465674324,0.08970521168729191,0.06896681788412148,0.1002149962452809,0.10819077402077269,0.08267925783433289,0.08381424598725111,0.0783793329287152,0.0815408407141853,0.07241292994962849,4.090069389587284,0.15214625076485697,0.4985243986897171,0.05714285714285714,0.4861943096280388,0.20714206625259093,0.0006028589479668425,1803.5351396632063,165.42979994976753,0.01847520861406817,Kristian,REC_20260311_115523.csv
right,22,paved,25.536,1.1359999999999992,0.0,19717.0,1.3986202981868099,28888.51970939321,1931.25,0.4623607336435981,0.23642047674872999,0.5314576006252443,0.17107150244776942,0.43127628766462106,0.39666336253734286,5118.0,4028.6111111111113,-5.699999999999989,672.7361111111111,0.16698958836102873,0.0,-0.7323943661971831,-0.7323943661971831,0.492541985797919,-1.2263047314579814,8784401.761835463,8008443.0,2225992.0,2841745.0,4048364.679434552,1107072.43043324,1045018.7446353254,0.07313659242915259,0.0922429842101634,0.06357305385092739,0.09282906984761773,0.0643625456802041,0.09869682134730744,0.11083224160518512,0.08678549265669172,0.0831448665793284,0.07965938081776185,0.0842860097910777,0.0704509411845825,4.079194849831455,0.16786257580084388,0.5040568419060829,0.056338028169014086,0.4566874201103953,0.19526668352757837,0.0004203360637956077,792.4659824455022,435.0241803476445,0.009237604307033192,Kristian,REC_20260311_115523.csv
right,23,paved,26.688,1.152000000000001,0.027777777777777776,16266.0,1.0548900579948965,27939.806405914842,2972.222222222222,0.7115799856147429,0.22668717554316478,0.5389348202268794,0.16405040828307627,0.4460159043603565,0.3678129113316168,5201.0,4106.739726027397,-25.0,657.8013698630137,0.16017605539840957,9.5,-0.22857142857142856,9.271428571428572,0.6520983417593351,-0.9308122145835118,9074568.701983638,8130616.0,2702467.0,2989574.0,4178895.7167302766,1192679.0673802062,1158365.3458087293,0.07454501787906281,0.10057639963708172,0.06574891925068048,0.08975889950365587,0.07369442813684154,0.09958571276084752,0.10310148369536211,0.08203020761061001,0.08240046432192988,0.07595599615733574,0.08202020067246624,0.07058227037412607,4.285919884374472,0.16007173463878457,0.5095870995930557,0.05555555555555555,0.5082188399851806,0.2031288788328479,0.0011756092685858007,2357.959781958402,952.7937215219273,0.016000000000000156,Kristian,REC_20260311_115523.csv
right,24,paved,27.856,1.1679999999999993,1.0,17272.0,1.1550907597141271,28525.19337357768,1495.8333333333335,0.358117590891158,0.22334541293152776,0.5241274079725348,0.16450246147714764,0.4368819764991817,0.3765375326197846,5243.0,4136.716216216216,-10.600000000000023,664.7905405405405,0.16070489388044443,0.2328767123287671,0.0,0.2328767123287671,0.5378076077340533,-1.186076445072306,9037000.213881707,8203920.0,1859473.0,3302337.0,4012608.1500159423,1007172.1575093116,1194701.171980765,0.07604935367849548,0.09796907718290719,0.06837908381435856,0.08973366392588455,0.07041425337371006,0.09762280435258415,0.10439145816795539,0.08207972768581948,0.08114217766409577,0.07885873701885227,0.08242273379132817,0.070936929344009,3.4221269643061256,0.13423560747898336,0.47031451136504276,0.0547945205479452,0.4532407494447243,0.15814790482996913,0.0005848682681282464,1774.7986740284973,758.6100219352874,0.016000000000000156,Kristian,REC_20260311_115523.csv
right,25,paved,29.04,1.152000000000001,1.0,16960.0,1.1240145977495148,25180.289771962514,1390.9722222222222,0.33301278298746023,0.22363913208983632,0.4992386752950133,0.17536836838154932,0.4356655649631961,0.40252979001511685,5254.0,4161.260273972603,-2.3999999999999773,713.6780821917808,0.1715052736921112,0.041666666666666664,0.0,0.041666666666666664,0.3427874634365412,-1.2213908491113512,8429441.608558957,7668802.0,1804495.0,2998126.0,3703633.483683539,1096561.1441024882,1249830.644758628,0.0711717999025585,0.10150375939849623,0.06711283462596948,0.08674268859539391,0.07202770498926828,0.09565726926774028,0.10308389186626812,0.08846108265409584,0.07973414271229738,0.07884202625653451,0.08690728572745349,0.068755514003924,4.001099248312946,0.1610016306656602,0.49668268214712474,0.05555555555555555,0.47583916305411456,0.17994928314593306,0.0005808282952575841,514.9459518564197,884.2201428714856,0.009237604307033192,Kristian,REC_20260311_115523.csv
left,0,paved,1.296,1.136,0.0,21043.0,1.530693986536412,28666.467239616395,1039.5833333333333,0.24888673795917524,0.20300751879699247,0.4956766917293233,0.14864612144059372,0.48314090639159296,0.30766618904349435,5320.0,4233.208333333333,-27.899999999999977,614.4166666666666,0.1451420809669577,0.0,-0.3380281690140845,-0.3380281690140845,0.6053809851800466,-1.2350570009681994,9063168.281730678,8492248.0,1354899.0,2861292.0,4066097.1923630713,1404328.1420138471,1119947.7938022804,0.08404447637889571,0.11844509844450789,0.05948666463248588,0.0953538654356592,0.09917615677628276,0.09775879209031763,0.1002424612275297,0.09129534664737476,0.07240699364482549,0.0551295805978523,0.05735077479321896,0.06930978933104981,3.5396748099784223,0.12928828970987852,0.4774555523397328,0.056338028169014086,0.4607122812248382,0.16462471881696578,0.0004466773394812039,0.0,0.0,0.0,Kristian,REC_20260311_115523.csv
left,1,paved,2.448,1.088,0.0,19664.0,1.3933413347761545,29915.08906889632,1981.25,0.47433123807450034,0.20372503840245776,0.5078725038402457,0.14403765327034632,0.48826287818263925,0.29500021342273125,5208.0,4172.31884057971,12.100000000000023,585.6594202898551,0.1403678488311508,0.0,-0.1323529411764706,-0.1323529411764706,0.8061934757092392,-0.9259855828413062,9546330.550385997,8803789.0,2320066.0,2871066.0,4213635.587152134,1320768.6217408266,1217556.029377964,0.08430303240821148,0.11780888533815,0.0601757615756018,0.09740525895307235,0.09911077147521624,0.10033693424571886,0.09941297023168572,0.08917989509882247,0.07360102817048178,0.0536385424988711,0.05485775817152385,0.07016916183264442,3.846913883761367,0.13599725630274273,0.48205864474744875,0.058823529411764705,0.5151422446931235,0.21152575513410793,0.0005881994111043765,975.1002512562491,665.8588856173324,0.03394112549695423,Kristian,REC_20260311_115523.csv
left,2,paved,3.552,1.0559999999999996,0.0,21607.0,1.5868701254724418,32276.79163113955,1125.0,0.26933634969529985,0.20288461538461539,0.515,0.1420570318707513,0.4865330625938024,0.2919781671431506,5200.0,4226.492537313433,-27.899999999999977,584.9029850746268,0.13838968835525733,0.0,-0.5,-0.5,0.8058680609212302,-0.8394814329002074,10029704.978974506,9178861.0,1831373.0,3604104.0,4416751.375919059,1267434.977549462,1154811.0004605346,0.08480974662311291,0.11683234748830229,0.05876931226273506,0.0978617462699744,0.09910479385538977,0.09973338041846914,0.0979253112033195,0.0880833406903858,0.07300079456166682,0.05642094111415202,0.0539736911803655,0.07348459433212677,4.02477315291304,0.14127455651056106,0.48490404856753905,0.06060606060606061,0.4681079976631635,0.2340773504391477,0.0005026851274158366,999.582079337827,520.7680514643021,0.040265783654777544,Kristian,REC_20260311_115523.csv
left,3,paved,4.624,1.12,0.9857142857142858,20784.0,1.504896787982455,31859.557074761728,1192.7083333333335,0.2855464077788133,0.21038513125119754,0.5154244108066679,0.14439134850730115,0.4861186499941724,0.2970290247225896,5219.0,4229.507042253521,21.600000000000023,595.7605633802817,0.140858156146456,1.0434782608695652,-2.0,-0.9565217391304348,0.7642402480881213,-0.8595491028124718,9790724.9273014,9136100.0,2058615.0,2855184.0,4392033.277895227,1185805.5725371044,1082457.4648696654,0.0831349173312909,0.11367155630296875,0.05756672605271483,0.09779716611998203,0.09774721523834896,0.10148354118450191,0.10077423866531245,0.08959523135583343,0.07541917114837078,0.055465458965350746,0.054796117151467726,0.07254866048385755,4.137281366120332,0.13568861367633822,0.48908814521598565,0.05714285714285714,0.535721483102863,0.17591321112055772,0.0007566260953148867,975.2758584113525,476.01583324020885,0.03200000000000036,Kristian,REC_20260311_115523.csv
left,4,paved,5.76,1.1360000000000001,0.014084507042253521,20186.0,1.445334144216948,30093.202455039576,1296.875,0.31048495867652626,0.21066616056177642,0.5120516226988043,0.14814392036893295,0.4820556138989088,0.307317073170582,5269.0,4258.527777777777,-17.100000000000023,615.8611111111111,0.1446183148845128,1.0,-0.8142857142857143,0.18571428571428572,0.6224665065652775,-1.0783023014137934,9530032.466924444,8875871.0,2127032.0,2741563.0,4296473.063351337,1200802.954401513,1127162.690715522,0.08378286705760338,0.1136575629292857,0.058555708480369464,0.09799943903409498,0.09655788711539592,0.10014872119342236,0.09910832512540198,0.08939252610774459,0.07369200362670981,0.05614225051693661,0.05875139426118834,0.07221131455184696,3.8080387554200343,0.1365105373213886,0.484936436423629,0.056338028169014086,0.5222459818900296,0.16829541261473605,0.0005010783283677669,713.4626829764823,86.5795669429973,0.04233202097703374,Kristian,REC_20260311_115523.csv
left,5,paved,6.912,1.12,0.014285714285714285,20100.0,1.4367682790600358,29912.89400910584,1071.1805555555557,0.25645143173148155,0.2084696823869105,0.5158806544754572,0.1482389810812679,0.48094136081876926,0.3082267260790989,5195.0,4278.492957746479,-16.100000000000023,619.2183098591549,0.14472813581193852,13.0,-0.2898550724637681,12.710144927536232,0.6649377672185294,-0.9699945186876899,9553117.531357655,8754920.0,2448347.0,2935818.0,4316251.202540203,1291833.949128676,1113398.6808250593,0.08341755192199439,0.11475674269931824,0.05768781293926715,0.09624291823170592,0.09696385129685653,0.10023273957856689,0.0972370816366168,0.08652842747709638,0.0727451090123217,0.058800485889134314,0.06171055360417153,0.07367672571295013,4.103566046763121,0.15765887943744936,0.5033610534103006,0.05714285714285714,0.5009180784587033,0.19822010813492136,0.0003893843999319563,372.57124598301203,112.95845657374456,0.009237604307033478,Kristian,REC_20260311_115523.csv
left,6,paved,8.048,1.1199999999999992,0.02857142857142857,19966.0,1.4234214659085678,29621.90366941328,982.8869047619047,0.2353130409705629,0.21022290545734051,0.5109531129900077,0.14467782554670316,0.4854146040015149,0.29805000581766866,5204.0,4239.239436619719,17.899999999999977,598.3028169014085,0.14113447137076143,9.0,-0.5441176470588235,8.455882352941176,0.7127305672157906,-0.9992293463422,9464047.78768477,8763472.0,1981646.0,2973691.0,4251038.725842505,1209607.6052904278,1048324.7478519633,0.08374143647877309,0.1155934163050773,0.05905922534602938,0.09774541008551892,0.09826702903125062,0.10084854445057245,0.09891822210999847,0.08864199663771737,0.0729602041290957,0.05572684443794727,0.05603582890898579,0.07246184207903357,3.8085282696336,0.13985928762300498,0.48208510529289383,0.05714285714285714,0.5202118016439693,0.1942487076627246,0.0006092971228596705,110.86929241228658,161.92707976884958,0.009237604307033702,Kristian,REC_20260311_115523.csv
left,7,paved,9.184,1.168000000000001,0.0410958904109589,18659.0,1.2932402361401438,29602.08891277776,2125.8680555555557,0.5089542595708252,0.20360775283055077,0.5025906735751295,0.15150132595739826,0.47832051732932857,0.3167359970323284,5211.0,4265.148648648648,-23.899999999999977,632.2567567567568,0.1482379182627265,3.0,-0.7571428571428571,2.242857142857143,0.4596152506897345,-1.43508686238221,9279109.702677893,8761029.0,1461189.0,2685363.0,4037732.893715667,1386507.6193560155,1034455.3297436321,0.08317570757332371,0.11633890013655619,0.06083245411426997,0.09607408885974,0.09729707465599566,0.09778500163170385,0.10077593062565546,0.09300711929814556,0.07082545204533286,0.05606090849468191,0.058494206659252715,0.06933315590534217,3.344556833571576,0.13089038589250454,0.4650292983317729,0.0547945205479452,0.488955142276732,0.1592305981344649,0.0006605398593875253,796.1036364695248,635.9464603377,0.027712812921102628,Kristian,REC_20260311_115523.csv
left,8,paved,10.368,1.1199999999999992,0.9857142857142858,20957.0,1.5221281213794997,29400.9625182578,970.8333333333334,0.23242729436668472,0.21687440076701822,0.5075743048897411,0.15094943918537423,0.4794973304761559,0.3148076737682834,5215.0,4265.6760563380285,-7.5,628.9507042253521,0.14744455413833976,1.8985507246376812,-8.0,-6.101449275362318,0.5594593366851212,-1.3368264530440295,9554480.659504471,8701164.0,1479515.0,3659082.0,4212785.847316487,1422581.248582385,1274642.4819824547,0.08309367601852982,0.11461287776981671,0.05901348134304949,0.09698444511214642,0.0975424531884053,0.09842403991243565,0.09991316205677153,0.09117323674400636,0.07193351449335178,0.05815830920251071,0.05977620244136788,0.06937460171760829,3.470889279197099,0.1295705809739891,0.46951340111765955,0.05714285714285714,0.49961822392834665,0.1435004373423206,0.000651756717343821,1152.6154316741267,663.4074174533484,0.027712812921102902,Kristian,REC_20260311_115523.csv
left,9,paved,11.504,1.056000000000001,0.0,20200.0,1.4467285873820268,30898.28314000634,694.4444444444445,0.16625700598475301,0.2115201220675186,0.5050543581918748,0.14593929711330805,0.48551352153796673,0.30058750300288917,5243.0,4222.671641791045,-5.5,600.4477611940298,0.14219617629074044,0.0,-1.5151515151515151,-1.5151515151515151,0.7638970903599852,-0.9178465397201645,9852513.753852567,9088453.0,1529606.0,3483153.0,4508893.264697322,1310617.4324000974,1210851.5488301578,0.08454009804926499,0.11768386004474779,0.059094652533057165,0.09746252460951721,0.09923688405515359,0.09955853088693231,0.09728579558106737,0.08891944337425199,0.07157172194161579,0.05584283840958013,0.057019853739056055,0.0717837967757556,3.9185413093020705,0.15643101728699094,0.49155690769575805,0.06060606060606061,0.4741558601471746,0.18871906339404984,0.0005952158034706034,1171.077424141262,759.3275075010534,0.056190153348547836,Kristian,REC_20260311_115523.csv
left,10,paved,12.576,1.1039999999999992,1.0,18612.0,1.288558891228808,31294.59269586361,729.1666666666666,0.17456985628399063,0.21788772597526165,0.5069457659372026,0.14483505175305542,0.4825061976706113,0.30017241737454037,5255.0,4275.8,39.19999999999999,603.8928571428571,0.1412350570987551,1.9565217391304348,0.0,1.9565217391304348,0.7625639442286072,-1.0080323228149717,10428009.039020775,9519723.0,2448347.0,3481931.0,4317502.062641184,1316092.184219112,1141850.7039115392,0.08412794932276667,0.11559073322953765,0.05936399537596974,0.09652329054546183,0.097812940602594,0.09996124367703954,0.09930305439917676,0.08846130715722371,0.07261798961597829,0.05672455613987023,0.056373744595831686,0.07313919533854985,3.865412941707225,0.1446121400267979,0.4907891106687796,0.057971014492753624,0.508028640984165,0.20532914437242594,0.0007784489821409757,1196.7886195982976,150.55410345069814,0.033306655991457094,Kristian,REC_20260311_115523.csv
left,11,paved,13.696,1.072000000000001,0.0,22402.0,1.6660545766322712,33175.45969538327,816.40625,0.19545589266082525,0.21508858830253383,0.5023814059820918,0.1482761839244169,0.47953994697014224,0.30920507219719984,5249.0,4253.985294117647,30.600000000000023,614.4264705882352,0.14443549474368325,0.0,-0.5373134328358209,-0.5373134328358209,0.7298032113681125,-0.9337739610391007,10266579.982593862,9380446.0,2623055.0,3244916.0,4526702.793985038,1263701.5134122751,1009617.1288268557,0.08353066847350754,0.11480929647285763,0.0595808083077806,0.09670516574423292,0.09690566976986978,0.09872403386443855,0.09946036761376012,0.08869191865067705,0.07239578111874333,0.05939413214598076,0.059584265273739855,0.07021789256441192,3.949709331126348,0.1484283793118942,0.4801603520083687,0.05970149253731343,0.4741607756438122,0.2191921766199654,0.0006076524119465129,1903.2712190681943,62.83717003837973,0.024440403706430084,Kristian,REC_20260311_115523.csv
left,12,paved,14.784,1.1199999999999992,0.0,19133.0,1.3404520975863816,29959.869375549686,815.9722222222223,0.1953519820320848,0.2060377358490566,0.5003773584905661,0.14292649803673294,0.4807724479988453,0.29728512653247335,5300.0,4293.647887323944,30.100000000000023,598.4154929577464,0.13937227939078034,0.0,-0.24285714285714285,-0.24285714285714285,0.783701820544584,-0.8807395306062165,9895064.991058977,9145874.0,2328618.0,2973691.0,4212041.183757727,1403542.1828389508,1117133.5128400538,0.08335602216179158,0.11457803699536491,0.06116142746080846,0.09658880298114804,0.09621812766320374,0.09940331114748613,0.10052845835151174,0.08633126564299046,0.07398416921164248,0.05853717742226479,0.05659523239374247,0.07271796856804516,3.989686078594864,0.16224060850327196,0.4972810797613718,0.05714285714285714,0.4789303293967839,0.20438005586851443,0.0004565288545612661,2054.341013561282,50.24297256929491,0.024440403706430084,Kristian,REC_20260311_115523.csv
left,13,paved,15.92,1.1199999999999992,0.0,20468.0,1.473422213684963,30543.213468788774,1226.5625,0.29365143682057,0.2079679756004575,0.5,0.15171346001817282,0.4793850110381793,0.31647518492399485,5246.0,4293.6760563380285,30.19999999999999,636.3098591549295,0.1481969880367786,0.0,-0.5428571428571428,-0.5428571428571428,0.5982595549278298,-1.081589104657653,9437355.463975117,8796459.0,1275486.0,3171612.0,4100007.0817886647,1338795.238486174,1206536.5365413048,0.08322754394769903,0.11707358676861811,0.059501198946370515,0.09552535500949644,0.09660129046649019,0.09851370013547602,0.09727046983608385,0.08968643698068891,0.07167107865809855,0.05736244919649271,0.062027023037483885,0.07153986701700175,3.714949601390414,0.1502298943768627,0.48848228394804527,0.05714285714285714,0.4726783026230834,0.1857716013211827,0.00038319871785712716,1643.6211039449845,236.9292137607794,0.02771281292110092,Kristian,REC_20260311_115523.csv
left,14,paved,17.056,1.0879999999999974,0.014705882352941176,21354.0,1.5616705454178044,30219.685719742356,1010.4166666666667,0.24190394370781565,0.20302045497992735,0.5067864653030013,0.14609964839597703,0.48352367194526974,0.3021561443065047,5231.0,4253.797101449275,0.8999999999999773,606.3913043478261,0.14255294502439425,1.0,-0.6119402985074627,0.3880597014925373,0.6263012961612308,-1.2153830967860462,9574452.713103866,8866098.0,2021963.0,2995683.0,4198937.462752543,1472298.2401028634,1148707.0168972458,0.08372400447000464,0.11549442612227098,0.060457494071792635,0.09751560413202869,0.0983980212052659,0.099788083621794,0.09846956853552837,0.08984300471530977,0.07232753686391018,0.05569107907002099,0.05625664368066724,0.07203453351140669,3.987402996069264,0.15797671327709228,0.4949922298126347,0.058823529411764705,0.4791873604492205,0.2156345842692177,0.0006707810584721118,1118.0386099474974,205.3907006367385,0.018475208614068848,Kristian,REC_20260311_115523.csv
left,15,paved,18.16,1.1039999999999992,0.043478260869565216,20803.0,1.5067892465636332,31304.666632947876,2112.5,0.5057538122056187,0.19881927251952008,0.50828413635498,0.14557206024827438,0.484802161589546,0.3002710626761837,5251.0,4261.414285714286,13.699999999999989,605.9714285714285,0.14219960509421753,14.666666666666666,-0.48484848484848486,14.181818181818182,0.5821557937079496,-1.2640972687687089,9892191.013693629,9203295.0,1955990.0,3054326.0,4340865.476428874,1336021.7177792485,1164392.1492509658,0.08334255227137871,0.11508922255857376,0.059933154318318194,0.09736539512368461,0.09808614846177827,0.10074790730106369,0.09980589944988082,0.09051656224124117,0.07351348814444567,0.05484765285837364,0.05505549800703321,0.07169651926422817,4.002953837754678,0.16425451972811786,0.5005118115878965,0.057971014492753624,0.49446617978760565,0.1966083058562243,0.0005468195533393153,447.3667399349221,583.9794443849204,0.01600000000000065,Kristian,REC_20260311_115523.csv
left,16,paved,19.28,1.1199999999999974,1.0,19540.0,1.3809905524568855,31797.386087538704,1020.8333333333334,0.2443977987975869,0.19900592620913785,0.5058306251194801,0.14753439195290924,0.481807035931104,0.30621053855663133,5231.0,4273.43661971831,-4.199999999999989,615.9929577464789,0.14414463406434772,0.35714285714285715,0.0,0.35714285714285715,0.5307003934254247,-1.32302849476607,9833722.824780349,9070127.0,2076941.0,3181386.0,4260988.6448137695,1212049.747486462,1137594.5583262222,0.0829955110838656,0.11477057749477611,0.05948967417456017,0.09704891666172293,0.09784650675314915,0.09981741119394621,0.09912858338771448,0.0908066206569242,0.0723236238275096,0.05693870421272585,0.056727771295985024,0.07210609925712064,4.017806711561466,0.14774123658638497,0.49100853327019806,0.05714285714285714,0.5300836901390225,0.18851011643218854,0.0009311632393149014,929.9969534000284,633.3024937666921,0.015999999999999705,Kristian,REC_20260311_115523.csv
left,17,paved,20.416,1.1039999999999992,0.0,20306.0,1.4572865142033375,31406.566861088144,997.3958333333333,0.23878662484560148,0.2054085155350978,0.5107403145377829,0.1414553109635937,0.48771211234640144,0.29003854401519485,5214.0,4248.085714285714,-12.300000000000011,585.8642857142858,0.13791253875695272,0.0,-0.5072463768115942,-0.5072463768115942,0.8095575946944871,-0.8217801834606879,9822568.083353661,9143430.0,2095267.0,2913827.0,4295203.248082357,1203967.8119552669,1045746.8067887553,0.0848415757013243,0.11605563514322419,0.0591157025349233,0.09773814087689918,0.09842080130209911,0.10093285715246532,0.09746911213790414,0.08735363155169051,0.07456467787171366,0.055298857300431124,0.05410167941190318,0.07410732901542207,4.133776872696707,0.14036760797301748,0.48778554312106126,0.08695652173913043,0.524741352644982,0.18473881768807532,0.0006083099995899262,636.2564996393635,637.1476451125388,0.009237604307032412,Kristian,REC_20260311_115523.csv
left,18,paved,21.536,1.1359999999999992,1.0,21708.0,1.596930036877653,31786.225585935805,1526.7857142857142,0.36552790315790695,0.21308016877637131,0.5099731492136556,0.14712009148840358,0.481788170653086,0.3053626063273914,5214.0,4287.125,5.699999999999989,615.8055555555555,0.14364068123872187,1.0422535211267605,0.0,1.0422535211267605,0.666687421394429,-1.1368375096818564,9955872.130575703,9222843.0,2625498.0,2676811.0,4214721.267345914,1166452.1088952334,881472.1603210914,0.08321751497539467,0.11414344630077784,0.05942534656416337,0.09672047765758586,0.096911618444114,0.10065020264163047,0.09963618457072695,0.09029620342563165,0.0733624256089778,0.0562115896110123,0.05682388806277193,0.07260110213721317,3.735640721164782,0.15072200642224148,0.484114731480986,0.056338028169014086,0.46275517273660227,0.16972726571591834,0.00045932531924714425,1099.438038272281,299.1072199764964,0.015999999999999705,Kristian,REC_20260311_115523.csv
left,19,paved,22.688,1.1040000000000028,0.0,19143.0,1.3414481284185809,30343.07369071235,1388.8888888888891,0.3325140119695061,0.21151271753681392,0.5050678906100593,0.14876253053660182,0.4831505349170247,0.3079009952086204,5229.0,4239.642857142857,-33.89999999999998,615.1785714285714,0.1451015078763373,0.0,-0.5652173913043478,-0.5652173913043478,0.6830899940962596,-1.1954285401701072,9290659.159996938,8778133.0,1888795.0,2386039.0,4247710.747529268,1161406.630919014,858951.3107107783,0.0843062926459439,0.11743239828152642,0.059516468705248085,0.09642321624126023,0.09848538455058546,0.0994221211355404,0.09791592957627833,0.09027377642995536,0.0713874147081122,0.05668941117007835,0.05848875410664645,0.06965883244882487,3.8333796754638363,0.135174626042396,0.4765322791660056,0.057971014492753624,0.5346225714656838,0.20848274314811394,0.0008353773124968977,1284.3544422523464,274.6318727125228,0.018475208614066763,Kristian,REC_20260311_115523.csv
left,20,paved,23.808,1.1359999999999992,0.0,21239.0,1.5502161908475145,31210.338431359567,1350.0,0.32320361963435984,0.20434031111964662,0.5077779911657384,0.15139009556907038,0.48003034350402646,0.3153760957357624,5207.0,4284.277777777777,27.30000000000001,633.9583333333334,0.14797320953875281,0.0,-0.28169014084507044,-0.28169014084507044,0.4583420186773955,-1.4777253654782452,9938833.969168918,9170308.0,2224771.0,3120299.0,4306105.47152272,1214725.584344604,1013597.0506927159,0.08234565659971214,0.11468288444830582,0.059912211315274196,0.09620122670747047,0.09723536963315482,0.09974778583191775,0.10019839983401845,0.09221702089033547,0.07216307688317752,0.05632675026258802,0.059173074678734915,0.06979654291531051,3.5832097812915604,0.1500799476255442,0.48316525964573775,0.056338028169014086,0.482817972018799,0.1539394897144995,0.00047031492974059565,1365.7965929571412,92.8987521525853,0.018475208614065722,Kristian,REC_20260311_115523.csv
left,21,paved,24.96,1.1039999999999992,0.9855072463768116,20153.0,1.4420472424706912,30904.34775237944,1364.5833333333335,0.3266950167600397,0.20053373999237514,0.5083873427373237,0.14541017776346782,0.48701428547220016,0.29857476895654084,5246.0,4215.071428571428,35.30000000000001,598.0428571428571,0.14188202199589905,0.07352941176470588,-17.0,-16.926470588235293,0.6417606011790273,-1.2025775296073558,10294559.07700461,9331577.0,2979800.0,3165503.0,4478903.19466354,1474487.1770039734,1174262.1432242205,0.08445205131246718,0.11675789259629561,0.05889410448899358,0.09792411584280897,0.09908661097083594,0.10088966463879616,0.09866296114283778,0.09050516005490501,0.07235600142346342,0.05446442188744472,0.054905017708562806,0.07110199793258884,3.442198221496934,0.1268992937582014,0.4497821179695653,0.057971014492753624,0.4609949408999387,0.14786477017061708,0.0005742880210829846,1048.2296186109875,19.645946659923684,0.018475208614066763,Kristian,REC_20260311_115523.csv
left,22,paved,26.08,1.1680000000000028,1.0,13208.0,0.7503038295084082,30699.878061647087,746.5277777777778,0.1787262814336095,0.20092556883918242,0.5187042036251446,0.14608195222056167,0.4862579146445221,0.30042071876050336,5186.0,4240.77027027027,31.600000000000023,605.5608108108108,0.14279500473205722,0.2876712328767123,0.0,0.2876712328767123,0.5700173226445446,-1.333054256043878,8880925.8095068,8103738.0,2193006.0,2896722.0,3991213.5593294967,1282003.776497413,1062767.669583518,0.08242701956872955,0.11507662108808638,0.05994895114031427,0.09760465494221154,0.09905773109806035,0.10077847917735497,0.09941462699598812,0.08987722143797182,0.07374042833880892,0.05531567760828764,0.056204730782589855,0.07055385782159666,3.261216317563662,0.12789239156493196,0.4594187101715499,0.0547945205479452,0.4217647741197902,0.1365426648281584,0.0006775216859366874,4357.1661662139995,352.70007710943867,0.03200000000000167,Kristian,REC_20260311_115523.csv
left,23,paved,27.264,1.120000000000001,0.9857142857142858,20296.0,1.4562904833711383,30325.936786849634,1020.8333333333333,0.24439779879758688,0.2114461302093336,0.5127712694449779,0.1459961745415075,0.4867995208249224,0.29991026756565903,5207.0,4256.140845070423,-2.3000000000000114,606.5915492957746,0.14252149338486889,0.782608695652174,-48.0,-47.21739130434783,0.6079508877364347,-1.2043219322826617,9479818.719899341,8823337.0,2010968.0,2823419.0,4291193.80992716,1241317.6848354207,841679.5364987808,0.08348831514365324,0.11688165566902503,0.06066793299491041,0.09679138014335541,0.09965054635224663,0.09975644139702038,0.09758559297915852,0.08941512843083398,0.07371949726327492,0.05547245736069837,0.05658104611067356,0.06999000615514947,3.5944695862472575,0.13916339494319516,0.4846843325225128,0.05714285714285714,0.45773312719729703,0.1642276059381689,0.0006288914420570497,4051.6091042119715,309.6773240169321,0.033306655991459724,Kristian,REC_20260311_115523.csv
left,24,paved,28.4,1.152000000000001,0.013888888888888888,19253.0,1.352404467572771,28456.312691562835,1287.5,0.3082404890957321,0.19977426636568849,0.5067720090293454,0.1520863134770614,0.47921988351895367,0.31736227712465576,5316.0,4290.191780821918,27.5,638.2945205479452,0.14877995044446715,4.0,-0.6901408450704225,3.3098591549295775,0.41711628819411545,-1.523375295174366,9075396.22916647,8508131.0,1258382.0,2896722.0,3925396.2994247773,1070807.0447184874,1009236.7847134686,0.08266386533156228,0.11543373863288035,0.060405384693981816,0.09571050883825483,0.09670353530193113,0.09941120874629611,0.09934415551241443,0.09163941963829571,0.0719608919995913,0.05782223868396853,0.06044689383876571,0.06845815878205784,3.4003352892306924,0.1295650263044902,0.4600130310835364,0.05555555555555555,0.44705936928207096,0.15244294530714164,0.0006033153390485547,3826.8703052668684,270.4950998126095,0.024440403706431794,Kristian,REC_20260311_115523.csv
right,0,paved,0.704,1.072,0.0,21464.0,1.5275733747406268,30339.946522695125,1034.7222222222222,0.2455921101164013,0.23104406510520048,0.5176657403731639,0.16469336803512094,0.43861329317283754,0.3754864948202321,5038.0,4023.073529411765,-27.399999999999977,645.6691176470588,0.16049150305772947,0.0,-0.43283582089552236,-0.43283582089552236,0.5234428528650793,-1.0002559742763795,9428655.314971272,8602204.0,1557706.0,3532022.0,4165362.529682113,1239022.865104512,1374243.806551403,0.07666804352832375,0.09506925126750473,0.06390709473661124,0.09514601435104122,0.06778545814767023,0.09793141766793752,0.11065581261034693,0.08308689946594826,0.08268115173868383,0.0783531759811967,0.08160646856917267,0.06710921193556288,3.909044189707767,0.13518616181129775,0.47472129794256823,0.05970149253731343,0.42930553506956887,0.22376000692881426,0.0007733035302095893,0.0,0.0,0.0,Kristian,REC_20260311_120243.csv
right,1,paved,1.792,1.0719999999999998,0.029850746268656716,20698.0,1.4532543841575227,31669.908414771267,1311.71875,0.31133744764840104,0.23286290322580644,0.5360887096774194,0.16344724020311577,0.44482425639877077,0.36744228277088103,4960.0,4005.25,6.800000000000011,638.1029411764706,0.15931663221433634,7.0,-0.7076923076923077,6.292307692307692,0.5281792174082363,-0.9909929115959359,9553049.216235882,8709716.0,1868025.0,3451388.0,4309335.669023587,1229185.5011817527,1351599.2623098933,0.07396174873419813,0.09447159426781761,0.0637655723921177,0.09539317880575862,0.0662329222307486,0.10200949489089688,0.10757204698245318,0.08462055317102186,0.08671706620354902,0.07555157385343501,0.07882668703209392,0.07087756143590948,4.20709799949992,0.15420308243943762,0.5025399229101538,0.05970149253731343,0.4729941364658372,0.21979587309644702,0.0007246152339744909,541.6437943888955,195.86612315679457,2.220446049250313e-16,Kristian,REC_20260311_120243.csv
right,2,paved,2.88,1.056,1.0,20593.0,1.4430670551611442,31885.14569513522,1662.5,0.3945956453816542,0.22751744765702892,0.5242273180458624,0.1602867000952455,0.44753529086940247,0.35815432517908546,5015.0,4027.2985074626868,18.30000000000001,628.6940298507462,0.15610812774016133,0.4090909090909091,0.0,0.4090909090909091,0.5891252426545631,-0.7893922792645256,9632188.18357101,8774468.0,1543045.0,3661526.0,4384640.859961374,1208759.1984943012,1389603.9041576416,0.07534401417193853,0.09519732867853344,0.06379966571421158,0.09563834873197469,0.06873983152292748,0.10232035844924006,0.10486270934554848,0.08173324587053282,0.08563942348672678,0.07667078038313155,0.07855345422471267,0.07150083942052189,4.336171411884726,0.16470977959784233,0.5174918660290099,0.06060606060606061,0.45627278999428084,0.24089445717636868,0.0008502686838996867,475.46854084506265,314.61073832704034,0.009237604307033988,Kristian,REC_20260311_120243.csv
right,3,paved,3.952,1.072,0.029850746268656716,18813.0,1.2703675731272992,32538.97549094009,1489.5833333333335,0.3535537424158932,0.23120338641402943,0.5347712154807498,0.1622990168677868,0.4447294103033425,0.3649387989811483,4961.0,4025.25,9.100000000000023,636.7132352941177,0.1581797988433309,3.5,-0.49230769230769234,3.0076923076923077,0.49266381245422536,-1.0634347183996502,9605059.737007678,8715825.0,1631010.0,3692069.0,4334404.543461028,1330612.7908778645,1371486.0102215945,0.0769736625785026,0.09570103427993147,0.06427806822374935,0.09609560239225186,0.06873157312114338,0.09986591990998002,0.10482359517311676,0.08276066155920166,0.08433528060003581,0.07805141807048886,0.07953835530858515,0.06884482878301311,4.208426449525896,0.16280697039144107,0.5055416737401903,0.05970149253731343,0.44369090500112957,0.22666713649592363,0.0007375121662705551,1059.2961499662563,175.39644094023777,0.009237604307033988,Kristian,REC_20260311_120243.csv
right,4,paved,5.04,1.072,1.0,19248.0,1.3125722218265816,31200.06374993487,1133.6805555555557,0.2690799461510236,0.22536604669568658,0.5296794618124258,0.16019625502985227,0.44776943302488414,0.35776505320509727,5054.0,4049.3529411764707,-9.199999999999989,632.125,0.1561051874664071,0.373134328358209,0.0,0.373134328358209,0.6352469634245722,-0.831779395110027,9574073.387612088,8613199.0,1238834.0,3992615.0,4316420.307290398,1268907.1702558526,1360515.237756862,0.07754325309780792,0.09848341783000915,0.06322360871017882,0.0953529249408039,0.06989860398901786,0.09957654817763187,0.10532910123621783,0.08253315707665712,0.08445793808742137,0.0764428594256163,0.07766309795319513,0.0694954894754427,3.987691832916988,0.15126662029456459,0.4941186946822297,0.05970149253731343,0.44812521072781564,0.22786209431016213,0.0006699424666275004,927.95923042628,269.63461871687895,0.009237604307034068,Kristian,REC_20260311_120243.csv
right,5,paved,6.128,1.056,0.015151515151515152,18851.0,1.2740544160021792,32842.2151962988,1856.25,0.44058235593365147,0.23265142398716407,0.5310870437224228,0.16052606094917427,0.44725609528988475,0.3589130760644889,4986.0,4007.2537313432836,-24.69999999999999,626.1865671641791,0.1562632688482826,4.0,-0.4153846153846154,3.5846153846153848,0.6425989794785849,-0.8432158378238306,9729944.270912707,8779355.0,1850921.0,3764151.0,4400421.521517198,1351225.7441247008,1336156.3473316608,0.07609335309848558,0.09638118933575679,0.06443166496577103,0.0942805211444917,0.06864789970426764,0.10147270248728053,0.10559954708997862,0.08194840699328829,0.0864737826180881,0.07598534001772904,0.07857765395588598,0.07010793858897671,4.103075943512215,0.1506014346032033,0.4971737356747137,0.06060606060606061,0.47789119898222293,0.24337846483561865,0.0006402765461698084,240.92806671978437,361.2980841630024,0.009237604307034068,Kristian,REC_20260311_120243.csv
right,6,paved,7.2,1.072,1.0,21957.0,1.5754053099331466,32056.54341940191,1359.375,0.3226486950019165,0.22943548387096774,0.5264112903225806,0.1626338521956706,0.4432298173052618,0.3669289516313605,4960.0,4014.25,-16.19999999999999,636.1691176470588,0.1584777025962655,0.1044776119402985,0.0,0.1044776119402985,0.48060377284664274,-1.0735573558558305,9770526.28457188,8696277.0,2153910.0,3898541.0,4429358.877703669,1160633.3917074234,1313641.9685757915,0.07652150976850851,0.09333660598822577,0.06415746843048112,0.09474335913601911,0.06537738717583315,0.10166722228531445,0.10697918078609658,0.08335378742641106,0.08810524271986929,0.07674131494785122,0.07928006476925951,0.06973685656613023,3.9311636145995736,0.1360890001512542,0.4842861454051747,0.05970149253731343,0.4511259157915567,0.20793797191131455,0.000597673478414678,1690.3414842372329,369.66862411328145,0.009237604307034068,Kristian,REC_20260311_120243.csv
right,7,paved,8.288,1.1039999999999992,0.9855072463768116,18798.0,1.268912240413531,30553.40671676401,1021.7013888888889,0.24250160537500365,0.22944243882872042,0.5276774969915764,0.16506480190449835,0.44018463132275354,0.37498992504210327,4986.0,4026.557142857143,-24.399999999999977,648.3714285714286,0.16102377429849676,0.04411764705882353,-7.0,-6.955882352941177,0.5245447364374951,-1.1410630831338007,9636122.936605416,8743925.0,2010968.0,3514918.0,4291576.982197215,1311697.8863996472,1345890.1232105268,0.07696401392185453,0.09584934311127194,0.06564275045324079,0.09471047580527851,0.06635232509871958,0.09938302484575622,0.10597142542902656,0.08365530282871933,0.08388946246172731,0.0784292855647682,0.08140949907577903,0.06774309140385795,3.6382700111982715,0.10556326946856957,0.455133738196326,0.057971014492753624,0.4811169018851638,0.20722698268377568,0.0009001503257191541,1808.7438550920724,419.7974943496174,0.024440403706430726,Kristian,REC_20260311_120243.csv
right,8,paved,9.408,1.056000000000001,0.015151515151515152,18114.0,1.2025490686656939,32195.96425019757,1205.7291666666665,0.286180739053424,0.22931726907630523,0.5367469879518072,0.16021153624288706,0.44864738128998405,0.35709901121487886,4980.0,4010.4626865671644,10.199999999999989,625.5895522388059,0.15598937108533276,3.0,-0.18461538461538463,2.815384615384615,0.580133598846503,-0.940133724369765,9522078.685712958,8615643.0,2229658.0,3386636.0,4419013.052398273,1311370.3127353918,1357292.2218408652,0.0764641739331078,0.09830257423679108,0.06699640120431259,0.09364312004793432,0.07062496976192868,0.1012538099969855,0.10426459149761258,0.08154044830499327,0.08482290724634445,0.07440984588818053,0.07867108793789379,0.06900606994391535,4.311604999143852,0.16545334373436288,0.5168667266792389,0.06060606060606061,0.45932653877639557,0.23305270664212002,0.0008560638274224915,2050.03195097052,169.06445158348097,0.024440403706430386,Kristian,REC_20260311_120243.csv
right,9,paved,10.48,1.0879999999999992,1.0,18722.0,1.2615385546637712,31534.46351216396,1458.3333333333335,0.3461365310365388,0.23079976185751142,0.5205397896408017,0.16244952942151084,0.44376289903723204,0.36607280548658533,5039.0,4023.7246376811595,-30.100000000000023,636.9492753623189,0.15829842564211544,0.3088235294117647,0.0,0.3088235294117647,0.5622942591934283,-0.9464998020757411,9587525.55233059,8673064.0,1666440.0,3731164.0,4339332.094367227,1337310.3197125765,1347211.8318968974,0.07444973112373351,0.09629480220575787,0.06761706833022976,0.09266416219740164,0.06820776769666867,0.10096997158159755,0.10625384945090172,0.08161376185450786,0.08562619535580633,0.07581842477767732,0.08083576756700295,0.0696484978587148,4.1009333011446785,0.175786917531741,0.513591393990616,0.058823529411764705,0.4472299854288375,0.25300843921761595,0.0006604785652932841,374.89909753603087,219.21167202824938,0.024440403706430282,Kristian,REC_20260311_120243.csv
right,10,paved,11.584,1.072000000000001,0.014925373134328358,20923.0,1.475084374864048,33719.96734873864,2050.0,0.4865690664856488,0.22847682119205298,0.5301908843007401,0.1598607577989021,0.4471454986918904,0.35751395969875926,5134.0,4064.014705882353,-26.399999999999977,632.6617647058823,0.15567408350913503,4.0,-0.42424242424242425,3.5757575757575757,0.6235545880401059,-0.8687825153560347,9733659.183836982,8855102.0,1263269.0,3838677.0,4369372.098818944,1179807.014475524,1390277.070198213,0.07567495196361176,0.09906170730912998,0.06493144637474534,0.09283054643879385,0.07027605996678161,0.10210129797758663,0.1055895901256726,0.08195677267842216,0.08287588699959833,0.07479926036627067,0.07790398512047997,0.07199849467890705,4.038576972310624,0.1673858747594134,0.5008338282472515,0.05970149253731343,0.40987111559050116,0.24056237511628786,0.0007733674518695432,1477.8670440875246,433.33427233471997,0.015999999999999254,Kristian,REC_20260311_120243.csv
right,11,paved,12.672,1.0559999999999992,0.015151515151515152,21923.0,1.5721065557819385,32505.668321079018,1310.4166666666667,0.3110283971742613,0.2309217046580773,0.5345887016848365,0.15871310703804198,0.44928659763368217,0.3532558235074675,5045.0,4043.0597014925374,20.69999999999999,624.544776119403,0.15447330047806263,5.0,-0.4307692307692308,4.569230769230769,0.6957130241917447,-0.7579691698162909,9887690.990075994,8976053.0,1955990.0,3656639.0,4391839.791583321,1507645.2362413646,1373590.811938418,0.0764974066485778,0.09866548535356331,0.061778983701570776,0.09330527714712886,0.07212654816619599,0.10227956512911382,0.10544326928401351,0.08088672314819942,0.0829097218376802,0.07513151337283348,0.07782638388984255,0.07314912232128025,4.390733191362817,0.1759257184203383,0.5264355891409206,0.06060606060606061,0.4408684093754694,0.2624411480271966,0.0009345407706530581,1637.6203263679067,391.35071476163745,0.016000000000000198,Kristian,REC_20260311_120243.csv
right,12,paved,13.744,1.072000000000001,0.014925373134328358,23215.0,1.6974592135278528,31023.372318302212,1241.6666666666667,0.29471053213968157,0.23235175473981445,0.527027027027027,0.16319277968297655,0.43709489109867544,0.37335778341559794,4958.0,4018.073529411765,-11.100000000000023,639.1102941176471,0.15905888467183205,5.0,-0.6060606060606061,4.393939393939394,0.5447559656873115,-1.0595107958926717,9655460.699111825,8706051.0,1374446.0,3942524.0,4185665.485901614,1494894.440024861,1375835.8402727572,0.07581186477277302,0.0950448158870398,0.06713050225268914,0.09134096307492981,0.06597030329869816,0.1001943424746275,0.10859023017322465,0.08294141544272386,0.08454446636338016,0.07763451170995758,0.08025136424025267,0.07054522030970357,4.408829631934511,0.1906037798263753,0.5261162243102928,0.05970149253731343,0.4358023604989762,0.2653741342841246,0.0006780599229589194,1149.0958764756442,448.1653056671208,0.009237604307035397,Kristian,REC_20260311_120243.csv
right,13,paved,14.832,1.0879999999999992,1.0,16496.0,1.0455671799405473,29493.230223222414,1577.0833333333335,0.3743219342780855,0.2248646558391338,0.5166279969064191,0.1662632294997968,0.4436312878774494,0.37477796098465155,5172.0,4101.231884057971,-8.699999999999989,665.3768115942029,0.16223828118098133,0.7058823529411765,0.0,0.7058823529411765,0.617917533206512,-0.7324694403138756,9541278.756597199,8609534.0,2041511.0,3569896.0,4110491.69689887,1270251.9268455016,1413252.112357261,0.07738572715868332,0.1056734455889888,0.07041009240772479,0.08805413714507836,0.07285898545859322,0.0964114705726452,0.10036221001113134,0.08392670989628426,0.08063324911214376,0.07447391204480802,0.08233651960351256,0.06747354100040638,3.946311132396616,0.15263668290675872,0.4987458230881112,0.058823529411764705,0.4334674279045191,0.20497017751209592,0.0007005780293814034,3565.2618884639223,177.17317982174472,0.016000000000000198,Kristian,REC_20260311_120243.csv
right,14,paved,15.936,1.056000000000001,0.0,20837.0,1.4667404673051094,32590.32808978762,1125.0,0.26701960965675847,0.2297484650425827,0.5208952267775797,0.1581788426338412,0.44446722610131706,0.3558841537569188,5049.0,4003.686567164179,13.399999999999977,616.3507462686567,0.15394580368093586,0.0,-0.7424242424242424,-0.7424242424242424,0.6118489712928,-0.9439129372795101,9703028.797751969,8729264.0,1901012.0,3786142.0,4370358.04468946,1282562.0566731454,1370150.3399419114,0.07636991280424385,0.09330579652335347,0.06865314430357096,0.09256767084068042,0.06705014408362442,0.1033897862790637,0.1080012078420262,0.08164490190011446,0.08815382837459505,0.07338385890615738,0.07653394073372675,0.07094580740884333,3.9988637293842024,0.1470285513760531,0.4956160451559419,0.06060606060606061,0.4208769902053706,0.23325796922224393,0.000574345300731569,3406.9567554246023,234.69653870003688,0.015999999999999254,Kristian,REC_20260311_120243.csv
right,15,paved,17.008,1.088000000000001,1.0,19578.0,1.3445895415294855,31312.50627145646,1350.0,0.32042353158811016,0.2278734481377653,0.5298358029635563,0.1574607014171607,0.44444204471417414,0.35428849113125094,4994.0,4026.217391304348,20.100000000000023,617.6086956521739,0.15339675820437781,0.2647058823529412,0.0,0.2647058823529412,0.5316623168320334,-1.0156118076841134,9458261.464658344,8627860.0,1098335.0,3716504.0,4345427.000373233,1254547.981632769,1423035.7847988112,0.07692695341043666,0.09567724587756335,0.06995093751462336,0.09210284763992527,0.06793516408755657,0.103214798656631,0.10573451544046449,0.08064893505969929,0.08551198845249793,0.07338495153144786,0.07681176635746141,0.07209989597169278,4.182413153691402,0.17095666154565778,0.5184648278097956,0.058823529411764705,0.4524821505067058,0.23341279053513295,0.000747918698264446,2233.3862929044176,226.04246671645444,0.01847520861406764,Kristian,REC_20260311_120243.csv
right,16,paved,18.112,1.120000000000001,0.014285714285714285,19349.0,1.3223714620992886,28980.866049861244,1089.781746031746,0.25866053016574003,0.22746268656716417,0.5307462686567164,0.16751523943701266,0.44106487745679257,0.3797972769965767,5025.0,4038.8169014084506,-30.0,660.556338028169,0.16355193962811587,2.0,-0.15942028985507245,1.8405797101449275,0.37659360527155294,-1.1910741540182175,9173746.467811938,8428718.0,1413542.0,3334102.0,4048676.8618799024,1063746.5734220354,1284314.2706964656,0.07444656781375106,0.09737895632523817,0.06823571259188997,0.08810975184477396,0.06868905968837617,0.10072326298316339,0.10411987892145239,0.08430861080500496,0.08616384661524083,0.07633318919220522,0.0832066286320077,0.06828453458689618,3.6465412099889716,0.1339814983791081,0.4724269938625984,0.05714285714285714,0.4142535652170523,0.1768547542659913,0.0005618839232691954,801.2142867756037,141.1729820178419,0.03200000000000009,Kristian,REC_20260311_120243.csv
right,17,paved,19.248,1.1519999999999975,0.0,17138.0,1.1078554200898327,27787.58220860534,1981.25,0.4702512014510691,0.2200503193342365,0.5291271530868976,0.1684347814395009,0.44404891560109183,0.3793158265264632,5167.0,4075.2328767123286,0.10000000000002274,670.9657534246576,0.1646447635566671,0.0,-0.2638888888888889,-0.2638888888888889,0.35642533736237453,-0.9603706121569675,9153442.780181782,8399397.0,1894903.0,3105638.0,4127318.623191987,1305944.9472126658,1254296.3017390398,0.07513479354066664,0.10002285775751954,0.06856991112366047,0.08770656017640811,0.07090274696462426,0.1011153241095559,0.10105481828082771,0.08418713780538636,0.08430142659298401,0.07490957740040069,0.08424764363411454,0.0678472026138518,3.9295725878598184,0.13667944088189266,0.4853371844609613,0.05555555555555555,0.49553132751678597,0.19555368350715457,0.0007310470914284979,1347.5015151506648,458.4222489567697,0.03199999999999829,Kristian,REC_20260311_120243.csv
right,18,paved,20.416,1.120000000000001,1.0,20411.0,1.4254090182340882,30056.76910447961,1831.25,0.43464858683016794,0.22868525896414343,0.5360557768924302,0.16617429837518463,0.44297889751111297,0.3751291524466433,5020.0,4062.0,-32.80000000000001,659.0,0.16223535204332842,0.34285714285714286,0.0,0.34285714285714286,0.3908518383680748,-1.1502689778041741,9359500.909315892,8438492.0,1500285.0,3760486.0,4156339.5621419973,988818.5407334993,1386477.36516012,0.0742609274554268,0.09589739322196102,0.06385531306995097,0.09093556910146254,0.0690563865715217,0.10109153195886299,0.10551937919986684,0.08446196628317418,0.08599801665730473,0.07690654017655911,0.08171233209201047,0.07030464421189868,3.580765568963373,0.12946138097791146,0.46978525841661267,0.05714285714285714,0.43351984704931446,0.1706269304389409,0.0006283916945082059,1669.7751345615382,477.31729828908357,0.018475208614066006,Kristian,REC_20260311_120243.csv
right,19,paved,21.552,1.1039999999999992,0.0,20301.0,1.4147365783331203,29166.98918297876,1794.7916666666665,0.4259951735542545,0.22834489593657087,0.5230921704658077,0.16864159971333317,0.4434623451173542,0.38028392166782893,5045.0,4066.442857142857,-4.899999999999977,669.4357142857143,0.16462439970349657,0.0,-0.2463768115942029,-0.2463768115942029,0.3929831725764133,-1.115318367182587,9157817.464002654,8431162.0,1682322.0,3154508.0,4133622.624121283,1199231.5574080206,1309490.4724338506,0.07445608833273025,0.09853118380051361,0.0648337789082069,0.08918992028835311,0.07141025325749778,0.10024205079202252,0.10411345823482089,0.08532553899336381,0.08408893697896723,0.07677471710972383,0.08331606071996937,0.06771801258383073,3.9365763815315264,0.15478835531121246,0.48903636111110377,0.057971014492753624,0.4122856552201225,0.22940418120984102,0.0005876128347027478,1858.7270733847229,98.82300688511371,0.024440403706430042,Kristian,REC_20260311_120243.csv
right,20,paved,22.672,1.088000000000001,0.0,19621.0,1.3487614953089548,29433.467974399482,1900.0,0.45096645186474765,0.22789115646258504,0.5182072829131653,0.16120749628843353,0.44550272898751336,0.36185523858567065,4998.0,4041.4202898550725,21.19999999999999,635.0434782608696,0.1571337383184273,0.0,-0.08823529411764706,-0.08823529411764706,0.5302143253685215,-0.9196193005020561,9218678.446937012,8393288.0,1585806.0,3467271.0,4135646.17226046,1070105.0213412943,1270944.5669762208,0.07597056566424489,0.0968449892059758,0.06534867208399973,0.09167031248879358,0.07172109102123661,0.10165030230439866,0.10506781229156058,0.08222823085584778,0.0836160339671087,0.07480509793514978,0.07897926543258575,0.0720976267490981,4.2455996744744775,0.17598731406450965,0.5162294627168593,0.058823529411764705,0.43122508485531547,0.23539215345030914,0.0007541644272621488,427.90185790670046,53.42372439940984,0.016000000000000094,Kristian,REC_20260311_120243.csv
right,21,paved,23.776,1.0719999999999992,0.014925373134328358,20220.0,1.4068777816787712,32785.2917937297,1562.5,0.37086056896772013,0.22435152922957802,0.5083236546651181,0.15293660929382055,0.45053768902562913,0.3394535307900443,5166.0,4053.294117647059,10.199999999999989,603.0073529411765,0.14876970075174875,5.0,-0.24242424242424243,4.757575757575758,0.845834157020733,-0.3598535992273484,9715996.960047899,8874650.0,1385442.0,3704286.0,4401499.691904851,1163939.2041516732,1306711.113848996,0.07656445012045394,0.09553957565378922,0.06530273125707485,0.09157040025542043,0.07065059646474908,0.10561852378602735,0.10450468754535162,0.07820799349838911,0.08715859286564304,0.07343337300089976,0.07472861579543146,0.0767204597567701,4.351236386018516,0.17267319187231342,0.5210893900860709,0.05970149253731343,0.4708546920696122,0.2337805186003811,0.0008812999890394754,371.4301190444032,172.69166251132762,0.016000000000000094,Kristian,REC_20260311_120243.csv
right,22,paved,24.864,1.0719999999999992,0.014925373134328358,22249.0,1.6037357867611708,36615.424563973036,1096.7261904761904,0.2603087993611521,0.22569984447900465,0.5141912908242613,0.15657405150998227,0.448200860560783,0.34933902472653106,5144.0,4043.1911764705883,7.199999999999989,616.2352941176471,0.15241309827342264,9.0,-0.3787878787878788,8.621212121212121,0.6960024882684274,-0.6855234563503454,10174870.714798149,9020036.0,2533869.0,3968180.0,4520194.135036413,1101061.8585791846,1293850.933554076,0.07521723158396287,0.09412701818962162,0.061679584777603595,0.09354870388488999,0.06772824319753253,0.10419841636447623,0.10797746392809988,0.07993103874705842,0.08859847892426266,0.0750862924960991,0.07664301276292387,0.07526451514346923,4.157287936775508,0.15561872790020279,0.4907564282894743,0.05970149253731343,0.4344690716626253,0.22813345374653832,0.0009151919968821109,1377.3178040428206,403.34028328142017,0.009237604307035215,Kristian,REC_20260311_120243.csv
right,23,paved,25.952,1.0719999999999992,1.0,17980.0,1.1895480964226965,31556.31299756041,1981.25,0.4702512014510691,0.2291542879778174,0.5399088928500693,0.1611772822345439,0.44726285165703605,0.3603636690087693,5049.0,4028.720588235294,-36.39999999999998,632.4264705882352,0.15697948188192865,0.208955223880597,0.0,0.208955223880597,0.5637090365475391,-1.032781416818698,9512254.907358086,8670621.0,1930334.0,3402519.0,4377383.395809282,1335967.0628101341,1303928.5210983097,0.07783086879866255,0.09848404653352948,0.06596751997605428,0.09238080984694455,0.07032593182042175,0.10165612349563612,0.10224016528382605,0.08103214785017868,0.08441593996050417,0.07618460100820214,0.0801451343843652,0.06933671104167502,4.226886709476009,0.17177252638249513,0.5204013259838736,0.05970149253731343,0.4368547239413103,0.26674285402471665,0.0006921185835781489,2135.368898652722,442.47018237632636,0.0,Kristian,REC_20260311_120243.csv
right,24,paved,27.04,1.120000000000001,0.014285714285714285,18741.0,1.263381976101211,30078.038815720683,998.2638888888889,0.23693869684048785,0.2292443572129539,0.5315014720314033,0.1645211550446645,0.44309950834429745,0.3712961805336441,5095.0,4067.887323943662,21.899999999999977,653.2183098591549,0.16057925351429955,11.0,-0.6956521739130435,10.304347826086957,0.49981081741245836,-1.1764858422780575,9598917.288357317,8780576.0,1546710.0,3556457.0,4227850.729116513,1334527.992640081,1331074.693598441,0.07501211827435773,0.09564088359531889,0.06904992729035385,0.09015303649331763,0.06996399141333702,0.10191122498441935,0.10358700920988852,0.08346374904784987,0.08543037185790457,0.07599196731528288,0.08105740599681463,0.06873831452115504,3.833243113553945,0.1525668359642231,0.4949251134490261,0.05714285714285714,0.4693867977980009,0.19547309565691146,0.0007164910538861043,2277.042892291083,541.3469142003934,0.0277128129211031,Kristian,REC_20260311_120243.csv
right,25,paved,28.176,1.056000000000001,0.0,21828.0,1.5628894485947389,30727.993263472315,1316.40625,0.3124500293553042,0.22022296107960102,0.5251320164287111,0.17014835783732513,0.4410347996205834,0.3857934974374036,5113.0,4028.179104477612,-20.0,668.7164179104477,0.1660096039838748,0.0,-0.2727272727272727,-0.2727272727272727,0.3073484574435455,-1.3315219395069993,9673374.676027544,8807455.0,1660331.0,3639535.0,4383196.041793753,1267877.096245189,1334353.7411276607,0.07403070903485891,0.09520615959212711,0.06600515769504388,0.09140087740099596,0.06835798553474033,0.10068991581693147,0.106421923168129,0.08725100782546834,0.08537986127578848,0.07681334479487788,0.08289735001185677,0.06554570784918189,4.424744326611779,0.18696977089793945,0.5324542487809816,0.06060606060606061,0.44261993056379734,0.23443677383831732,0.0005602836659679258,2037.8008571333323,501.5797491401147,0.03330665599145846,Kristian,REC_20260311_120243.csv
right,26,paved,29.248,1.0719999999999992,0.0,21560.0,1.5368875041087442,31215.357806695087,1653.6458333333335,0.3924941021575038,0.22353176188573712,0.5371554135037955,0.15654264511909502,0.45002174000416534,0.34785573940841097,5006.0,4024.8382352941176,2.1000000000000227,613.9044117647059,0.15252896535849084,0.0,-0.6119402985074627,-0.6119402985074627,0.5573814146164917,-0.9692242008027647,9354649.34554369,8480031.0,1530828.0,3640756.0,4217333.3032483375,1352387.9769833854,1286078.7536566393,0.07537021948269752,0.09666811600027769,0.0656036596282642,0.09272933877503299,0.07010511931425815,0.10357741816441289,0.10503527726726321,0.07989725564418007,0.08694174775018361,0.0749427269638166,0.07664538947491496,0.07248373153469814,4.268499807296056,0.1793854997390433,0.515036220202584,0.05970149253731343,0.43517112502826083,0.24578121682409187,0.000678694148702675,1710.173188110884,327.7373418872639,0.03330665599145846,Kristian,REC_20260311_120243.csv
right,27,paved,30.336,1.120000000000001,1.0,18980.0,1.286570277340587,27832.606884731442,1603.125,0.38050294376088084,0.2155525238744884,0.5162736308711752,0.15949009660679733,0.44314351544819947,0.3599061952771671,5131.0,4120.084507042254,-13.899999999999977,641.7112676056338,0.15575196734649227,0.35714285714285715,0.0,0.35714285714285715,0.5894037311429281,-1.0341527166921831,8761620.090111017,7984008.0,1880243.0,3079982.0,3829446.5423805215,1516352.1978527333,1156322.7276671152,0.0780204152793256,0.10089359578293894,0.06775807962369157,0.09015950718910455,0.07153552162884666,0.09845962410178924,0.10257549756260981,0.08026978798465777,0.08209526674552006,0.07725467137963804,0.07922030862213957,0.07175772409973814,4.163313259591587,0.19008795321024008,0.516886735679513,0.05714285714285714,0.4338584478672287,0.2724152361728949,0.00047637962980122693,1572.6478732803923,181.88390654897592,0.03330665599145846,Kristian,REC_20260311_120243.csv
right,28,paved,31.472,1.216000000000001,0.0,18238.0,1.2145798190995123,26092.688056235216,1322.9166666666667,0.31399528172600305,0.22045680238331677,0.5231380337636544,0.15713126264122745,0.4449615449029283,0.3531344774421333,5035.0,4032.3636363636365,-22.899999999999977,619.5714285714286,0.15364969145742885,0.0,-0.7631578947368421,-0.7631578947368421,0.5751840726989633,-0.8786855926523072,8151775.259931054,7450112.0,560774.0,3260798.0,3605456.653712755,1030231.7013350341,1233316.892800961,0.07486827357870735,0.09540986563260889,0.06657176352369787,0.09279144068124139,0.06806616595596665,0.10285611223477577,0.10749069219174728,0.08012444765082513,0.08583796039833555,0.07560903340504747,0.07700681499040232,0.0733674297566443,3.4490039028844874,0.12683508073836816,0.45982777695899835,0.07894736842105263,0.46920343099778666,0.13570149247362306,0.0004627914133183996,1743.6861338364026,178.16230725295074,0.07332121111929431,Kristian,REC_20260311_120243.csv
right,29,paved,32.704,1.7759999999999962,0.990990990990991,13831.0,0.7870030677943692,20041.164462176344,1170.5729166666665,0.27783637625165025,0.24027777777777778,0.4795634920634921,0.1827213482954884,0.4116818812159162,0.44384112255732283,5040.0,4197.892857142857,-13.300000000000011,756.9642857142857,0.18032005853276728,1.4363636363636363,-6.0,-4.5636363636363635,0.12148340873205354,-1.3648722751021802,6609681.083579827,5745798.0,1654223.0,2817310.0,2535443.070538122,667459.9271688445,1219291.5281849934,0.07326167039586187,0.08706323750861401,0.06719570192528565,0.08906253987970156,0.06139559813171574,0.09524974264299266,0.1145940565419726,0.09194238606103403,0.07891076305289219,0.0864400507057112,0.09077896223445438,0.06410529091976416,2.4402470097072246,0.09022698420201611,0.5345211767681453,0.07207207207207207,0.38637226149713644,0.034111941786029824,0.00019441049580743821,2783.4155876069494,219.40321823434135,0.35429554517850126,Kristian,REC_20260311_120243.csv
left,0,paved,1.232,1.1039999999999999,0.9565217391304348,20100.0,1.3952351199686241,31467.103091959387,791.2946428571429,0.1878143881415097,0.19878718969111236,0.5044532878529467,0.14338211082280733,0.48250859423363146,0.29715970354988736,5277.0,4338.457142857143,22.899999999999977,607.5571428571428,0.14003990885502418,0.5454545454545454,-10.666666666666666,-10.121212121212121,0.5345795563889351,-1.2454523969767122,9924589.6258994,9154426.0,2007303.0,3265685.0,4421653.504839428,1408076.327521033,1188180.2167721628,0.08394689356321537,0.11269641610579141,0.060360496819145716,0.09684153682019943,0.09755278374142225,0.100809372653873,0.10149098428671154,0.08866878284577798,0.07460848491234541,0.054097572540600346,0.05471332797702936,0.0742133477338883,3.80172256696621,0.14375377472735187,0.4878373943680675,0.057971014492753624,0.46476391755203517,0.18399276289113317,0.0004968620950567432,0.0,0.0,0.0,Kristian,REC_20260311_120243.csv
left,1,paved,2.352,1.056,0.015151515151515152,20516.0,1.4355963472304667,31717.330987963032,2185.714285714286,0.5187809559045593,0.19640151515151516,0.5018939393939394,0.14338890346818414,0.4852108396292869,0.2955187554706495,5280.0,4322.44776119403,-13.899999999999977,604.6641791044776,0.13988929710915596,12.0,-0.5384615384615384,11.461538461538462,0.6179699920957623,-1.2321846078353125,9832871.716697061,9126326.0,1683544.0,3249803.0,4438422.655094556,1498603.7154167024,1211004.237477315,0.08403198850844601,0.11486029198491733,0.0596400602201627,0.09661814063341666,0.09986049916437618,0.10055800334249526,0.09876590102346651,0.08824809049598761,0.07331390450408143,0.05393917211088244,0.055140812972196515,0.07502313503957127,3.938536214427722,0.1429976655550957,0.5026662585490859,0.06060606060606061,0.4784350127263446,0.21105267929848712,0.0006013169123780459,294.15642097360376,986.0035852840095,0.03394112549695423,Kristian,REC_20260311_120243.csv
left,2,paved,3.424,1.0240000000000005,1.0,21526.0,1.533588749957536,31770.406827738294,843.75,0.20026470724256887,0.19638095238095238,0.5127619047619048,0.13639306059036768,0.49227515967547036,0.27706671342145167,5250.0,4277.907692307693,22.100000000000023,567.7153846153847,0.13270865699982737,0.203125,0.0,0.203125,0.9581055114680632,-0.5012356130628253,10876957.31585635,9852034.0,3108082.0,3403741.0,4648266.696569634,1439754.9508947919,1299366.5425611401,0.08553426549283617,0.11574313827032624,0.05852969100638701,0.09783718856090684,0.10131120893031818,0.1023613268887738,0.0967906668968295,0.08435827723114102,0.07502229702514528,0.05276123482363772,0.05203478335922665,0.07771592151447147,3.9562412480977613,0.1372289117047935,0.5014447065812256,0.0625,0.4988126981275824,0.23804815440589017,0.0007053852659762332,733.3293939288129,790.3612938620201,0.0402657836547771,Kristian,REC_20260311_120243.csv
left,3,paved,4.464,1.0879999999999992,1.0,23766.0,1.7509184352136105,34188.381096507044,1098.9583333333333,0.2608386001739631,0.2049023362696285,0.5137878207583302,0.14293796090797403,0.4839069262982415,0.2953831680016299,5222.0,4329.434782608696,25.600000000000023,603.6594202898551,0.13943146174986862,0.6617647058823529,0.0,0.6617647058823529,0.6818518808910592,-1.0411117431055106,10665828.278909098,9589362.0,2698802.0,3810577.0,4669088.644600435,1337081.817609115,1253148.2985237231,0.0836638982897657,0.11267327461830208,0.058805413566051054,0.09661869708868513,0.09781709966491592,0.1013420100357847,0.10131523008994714,0.08845416110145916,0.07545584489055371,0.0538143011605759,0.05448379980651489,0.07555626968744455,3.9897228766768458,0.15961383059724657,0.4927796235726711,0.058823529411764705,0.4726839700042983,0.22354716595514063,0.0004555150743028063,1663.3400133466398,712.6286945259855,0.031999999999999466,Kristian,REC_20260311_120243.csv
left,4,paved,5.568,1.072,0.0,20741.0,1.457426337936992,33182.58737651421,1290.625,0.3063308299673368,0.2068700825177509,0.5160237958165419,0.13992558807782757,0.48627987828432406,0.28774702455598594,5211.0,4339.911764705882,-6.800000000000011,591.9485294117648,0.13639644340831003,0.0,-1.0895522388059702,-1.0895522388059702,0.7256545614607629,-0.9159439854697276,10479206.562402565,9475741.0,2943148.0,3370754.0,4562258.917529916,1583210.0950331534,1284542.6346507035,0.08479773917875805,0.11357644842332117,0.058330001287638,0.09727427367051378,0.09907696686704122,0.10121173512608687,0.09951408608198867,0.08674275025922186,0.07514045419736103,0.05361995703355314,0.053182837818605694,0.07753275005591061,3.784555795316415,0.13521672539049984,0.477293372483897,0.05970149253731343,0.500105866655183,0.218753214962049,0.0010143637440184316,1569.7372391581976,224.18915753550883,0.03330665599145769,Kristian,REC_20260311_120243.csv
left,5,paved,6.656,1.056,0.0,22593.0,1.637111416996925,33731.96147572803,1002.2321428571429,0.2378805649521519,0.19257142857142856,0.5072380952380953,0.13871345677899716,0.48959423766178856,0.2833233034796348,5250.0,4305.880597014925,23.69999999999999,582.2089552238806,0.13521251741803988,0.0,-0.030303030303030304,-0.030303030303030304,0.7060622311169747,-0.9409605350590855,10541010.888365546,9641896.0,2493551.0,3453832.0,4675527.716882828,1476972.481544154,1321300.139508386,0.08417506083315425,0.11458470540115219,0.05821958168974052,0.09733304678780148,0.10080278965940366,0.10183920636131082,0.09921176870229538,0.08655639285392418,0.07503448945212034,0.05296124009511464,0.05215706392507297,0.07712465423890966,3.9056594017794444,0.1211485301129119,0.4732927902361929,0.06060606060606061,0.50964600400273,0.18884559623695013,0.0009984977748894919,1525.1479709632547,146.77789745403663,0.016000000000000077,Kristian,REC_20260311_120243.csv
left,6,paved,7.728,1.104000000000001,0.0,21741.0,1.5544485188548824,32812.24393423894,1072.9166666666665,0.2546575906911678,0.19347496206373294,0.5036039453717754,0.14073292182014274,0.4853779507167607,0.2899450245159571,5272.0,4357.9,65.89999999999998,598.8714285714286,0.1374220217470407,0.0,-0.2898550724637681,-0.2898550724637681,0.619595921095275,-1.1244856024342944,10573788.646649696,9566149.0,2938261.0,3414736.0,4564020.588846464,1409267.7826470465,1107219.333380845,0.08351007857650966,0.1131246045769096,0.06188432829705003,0.09574074013368171,0.09838946019216332,0.10228714354554784,0.10019242557850604,0.08729630588782934,0.07583600226845827,0.05278099215546151,0.05343661593231341,0.07552130285556936,3.6190016085879657,0.12239364807043436,0.46238621939749475,0.057971014492753624,0.5198981423839021,0.17444268208317723,0.0011834854072332388,926.9850771902071,150.31281845980163,0.024440403706432034,Kristian,REC_20260311_120243.csv
left,7,paved,8.848,1.0559999999999992,1.0,20306.0,1.4152216892377096,31654.924735339366,957.03125,0.22715209849272858,0.2084115659031168,0.5022530980097635,0.14475882104772128,0.48417236328962393,0.29898199902223715,5326.0,4351.44776119403,47.5,614.1343283582089,0.14113333356199856,1.606060606060606,0.0,1.606060606060606,0.6275385474002226,-0.8833024015107407,9935435.237153227,9193521.0,2032959.0,3171612.0,4491260.970855898,1378953.244929319,1163161.6690183135,0.08404133810329037,0.11432805002280935,0.05934892144319783,0.09581302500111474,0.09898918527715943,0.10073847441407388,0.09831347947329246,0.08698425982774646,0.07430362857446655,0.055582804830782,0.05777456121997482,0.07378227181209204,4.171895556296857,0.14849350437357203,0.5062140612542774,0.06060606060606061,0.511983528807962,0.2374795684794458,0.0013005910414473514,1155.8184690224216,58.40783682758505,0.02771281292110309,Kristian,REC_20260311_120243.csv
left,8,paved,9.92,1.0879999999999992,0.0,22713.0,1.6487540787070718,33536.66703773647,1325.892857142857,0.314701682809751,0.209053343350864,0.5013148009015778,0.14487789807287912,0.48316551446918626,0.299851487190628,5324.0,4362.594202898551,57.39999999999998,616.6666666666666,0.14135320361837622,0.0,-1.5294117647058822,-1.5294117647058822,0.5719972110812892,-1.1620542012241015,10663683.927668525,9661444.0,2728124.0,3595552.0,4565254.255555235,1434487.2378998534,1261906.753310093,0.08367910331241549,0.1144379590657068,0.05978360169956049,0.09552220956152269,0.09898046302725076,0.10049863962075482,0.09934256641607339,0.08970862304372813,0.07372624319395121,0.05398994747839837,0.05516927502915098,0.07516136855148678,3.893638592412767,0.14985627506191826,0.4884660103173835,0.058823529411764705,0.4633367550204687,0.20922368789755197,0.0012851299706919525,1210.8989773442433,188.6289426218674,0.024440403706432405,Kristian,REC_20260311_120243.csv
left,9,paved,11.024,1.088000000000001,0.0,20574.0,1.4412236337237043,32786.03510642908,1181.25,0.2803705901395964,0.1913839115516584,0.5104841784216546,0.14026109381472227,0.487640134154652,0.2876323829616802,5246.0,4338.492753623188,-8.800000000000011,593.9710144927536,0.13690722751506568,0.0,0.0,0.0,0.656637886266863,-1.1180078855871318,10566276.730331551,9457415.0,2937040.0,3684739.0,4552680.325109941,1352366.0965455722,1122618.6337279978,0.08468846457061158,0.11431539705233904,0.05993866834137282,0.09685458116757306,0.09983097048330417,0.10172837691577921,0.09941674795227087,0.0871103301754433,0.07491080853565654,0.05283007522815644,0.05315076363927899,0.07522481593821403,3.8103384410955234,0.14452409748113995,0.48569085112905896,0.058823529411764705,0.4891880791257528,0.21104587489071816,0.0007009007419787306,1319.1407556941508,185.85589812092832,0.01847520861406907,Kristian,REC_20260311_120243.csv
left,10,paved,12.128,1.0719999999999992,0.0,20894.0,1.4722707316174293,32945.8257902272,1229.1666666666667,0.29174364758793986,0.18775586155563825,0.4992556754745069,0.14493443442252316,0.48573264475594374,0.2983831455167614,5374.0,4325.485294117647,-28.30000000000001,612.2794117647059,0.1415516110059055,0.0,-0.417910447761194,-0.417910447761194,0.49105594609724407,-1.3431028870444044,10480987.121008212,9407324.0,2833192.0,3650530.0,4439099.634211402,1422745.5217053038,1293974.5129625765,0.08340104646537451,0.11523358480687308,0.06008166373715292,0.09610958307976325,0.09960120081731734,0.10098832840925703,0.09951280543155648,0.09072766401593838,0.07379994764273307,0.05285704086246698,0.05420677040658478,0.07348036432498223,3.852638477578014,0.15335543380605857,0.49265412355125193,0.05970149253731343,0.46843292712207246,0.2073800214050993,0.0005168091711091444,1153.7245482927606,73.68120406061125,0.00923760430703585,Kristian,REC_20260311_120243.csv
left,11,paved,13.216,1.056000000000001,0.9242424242424242,24221.0,1.7950635275312508,34492.127869993754,1140.625,0.27072821534643565,0.19965411222136817,0.5205611068408916,0.1364601788248946,0.4885532036870116,0.2793148786969214,5204.0,4321.746268656716,-28.30000000000001,574.7462686567164,0.13298935960795286,0.8524590163934426,-3.2,-2.3475409836065575,0.7887002109616315,-0.8763246876146851,10535125.531114187,9382890.0,2819753.0,3872885.0,4776938.003446764,1484441.891251764,1412875.1025443517,0.08473633861381352,0.11301747151683435,0.05831321639608092,0.09753174677179278,0.09849528762903333,0.1030954181732785,0.10018752784425866,0.08508169375977787,0.07641327959607264,0.05347824435257998,0.05137848506511672,0.07827129028136084,3.7890497244177093,0.13513743602543377,0.4711273850282762,0.06060606060606061,0.47476298518654386,0.20748462756012312,0.0007216608410345608,2019.5683532213852,44.32084593347681,0.016000000000000486,Kristian,REC_20260311_120243.csv
left,12,paved,14.288,1.1039999999999992,1.0,21971.0,1.5767636204659972,32467.970401612725,1833.3333333333333,0.43514306758879157,0.20692208032574497,0.49416990560799556,0.1420141949847819,0.48107228117137585,0.29520344560056805,5403.0,4440.2,-15.899999999999977,615.2214285714285,0.13855714350061452,1.2608695652173914,0.0,1.2608695652173914,0.6426490660065813,-0.8867895794338763,10332415.75417574,9384111.0,2095267.0,3782477.0,4467679.576356024,974743.0404656973,1339447.6737228516,0.08578442412503941,0.11315449111043904,0.05761966964165064,0.09604457971648639,0.097437695856686,0.10052635981648188,0.09670413816623448,0.08317192919237873,0.0739091546712825,0.05785775415521823,0.05884226579240317,0.07894753775569956,3.479170063608724,0.10653282067773899,0.46419752131550357,0.057971014492753624,0.4663806429669295,0.15577869603195524,0.000545817940918729,1697.6139137035857,376.9840453999495,0.0244404037064308,Kristian,REC_20260311_120243.csv
left,13,paved,15.408,1.040000000000001,0.0,21268.0,1.5085570272807203,32616.9945120638,1145.8333333333335,0.2719644172429948,0.2033678756476684,0.49703923019985197,0.13554931934252495,0.48900664098586394,0.2771932075793212,5404.0,4346.287878787879,38.89999999999998,573.2045454545455,0.13188370431054017,0.0,-1.4615384615384615,-1.4615384615384615,0.9669126598818539,-0.5001718989168555,10428608.512788175,9456193.0,2506990.0,3612657.0,4610094.051344325,1446359.3486020027,1358699.7802536977,0.08657335587666241,0.11519060152341774,0.058217566366282614,0.09689913022258631,0.10004706210454758,0.10175872827735266,0.09601715152254622,0.08204144951282005,0.07511111885795958,0.05595161318436143,0.0535078698297049,0.07868435272175837,3.774119091999819,0.1276253972827841,0.47156531431156945,0.06153846153846154,0.4796278025141718,0.2063772389975384,0.0011044226045700942,1542.5583727474757,398.44033677276275,0.03330665599145729,Kristian,REC_20260311_120243.csv
left,14,paved,16.464,1.0720000000000027,0.9850746268656716,22000.0,1.579577263712616,32111.42039835672,986.4583333333334,0.2341366392082873,0.2003813155386082,0.5138226882745471,0.13805009005335236,0.48835083426784925,0.2826862992058896,5245.0,4327.5,18.100000000000023,582.4632352941177,0.13459577938627793,0.6212121212121212,-28.0,-27.37878787878788,0.7532336192540261,-0.9454067099269112,10389225.218859682,9386555.0,2415361.0,3740938.0,4502921.185938387,1464965.6316141195,1375043.8334660635,0.08528562204777924,0.11512556495735209,0.059343460087674584,0.09665613212355999,0.0995140517212084,0.10207972270363952,0.09859652699901451,0.08598565942841609,0.07497536276208923,0.05329119516090665,0.052064430624936285,0.07708227138342338,3.7377668016124383,0.1319522274687689,0.4705289969367815,0.05970149253731343,0.49793402530761954,0.1984740389831746,0.0007445783274455101,414.50251306034556,450.0470172196825,0.03199999999999936,Kristian,REC_20260311_120243.csv
left,15,paved,17.552,1.120000000000001,0.02857142857142857,20177.0,1.4027058278993019,31957.04488841232,1154.1666666666667,0.27394234027748926,0.1925953627524308,0.5,0.1429069227195292,0.4828029012441279,0.29599433299014277,5348.0,4365.295774647887,-19.899999999999977,609.4014084507043,0.13960140157968098,5.5,0.0,5.5,0.5871514468513501,-1.2445723568973759,10033319.336092966,9220399.0,1582140.0,3626096.0,4384288.897755032,1323382.3373010675,1255400.2538134817,0.0856886583036498,0.11498180269474989,0.06015435444736979,0.09597787930411442,0.09863003975014197,0.10006582004026639,0.09891719580816685,0.08825370399050128,0.0731473594548552,0.05476614526870064,0.05465321872902793,0.07476382220845594,3.552575440908918,0.13310082270451876,0.48203937700738075,0.05714285714285714,0.4665935207594735,0.15231850802369906,0.0005331186228420586,917.3725161205457,94.51271531641092,0.0402657836547775,Kristian,REC_20260311_120243.csv
left,16,paved,18.688,1.152000000000001,0.9722222222222222,12218.0,0.630506289973812,31550.290283926075,773.8095238095237,0.18366428177448993,0.19546476761619191,0.5022488755622189,0.14665747018790556,0.48003720777186826,0.3055127140426418,5336.0,4329.630136986301,25.5,620.7534246575342,0.14337331481381876,0.14285714285714285,0.0,0.14285714285714285,0.5000245995528994,-1.3829894555989355,10428435.257919425,9206960.0,3783699.0,3109304.0,4392493.806175316,1420724.3529221506,1160347.3740211008,0.08407501036185824,0.11466701258926226,0.06166808516023704,0.094911457525873,0.09829369461151732,0.09976808421105918,0.10079003236696481,0.09104197580862045,0.07239695883415649,0.05474857860616396,0.055615494379285146,0.07202361554500211,3.1624493788396513,0.11809270184131257,0.45572185282659866,0.08333333333333333,0.44891126014121613,0.11039404947633892,0.00043257381602188326,5201.867196818211,190.62054689171623,0.040265783654777065,Kristian,REC_20260311_120243.csv
left,17,paved,19.856,1.0879999999999974,0.058823529411764705,19320.0,1.3195578188526698,30681.036814292962,822.9166666666667,0.19531989965633262,0.19748451285902008,0.5094800075089169,0.15066656958271551,0.479949957636094,0.3139214144839694,5327.0,4378.898550724638,-21.80000000000001,644.9057971014493,0.14727580226646894,1.0,-0.796875,0.203125,0.33287687417448,-1.2572563431719492,9648526.600125898,8947954.0,2269975.0,2806314.0,4462463.210668148,1407203.188928033,1033418.9294029182,0.08104413789451387,0.11295276424486338,0.06037187566193602,0.09469656852361788,0.09615613747087481,0.10162372908282143,0.09920766257148908,0.08849753759796654,0.07452075831391654,0.05686361470027536,0.06216903198474898,0.07189618195297606,3.957865530178634,0.152412679893872,0.5007261113151767,0.058823529411764705,0.472795744984048,0.18519931006716817,0.0008104650841451508,4368.801017823236,206.88548769066873,0.03200000000000262,Kristian,REC_20260311_120243.csv
left,18,paved,20.96,1.1519999999999975,1.0,19684.0,1.3548738927067818,30654.51532808829,690.9722222222223,0.1640027849435029,0.19801795063575167,0.5057965594614809,0.14677058245384864,0.48244537041979757,0.3042221802772554,5348.0,4362.506849315068,-28.80000000000001,626.2123287671233,0.14354414798579426,0.875,0.0,0.875,0.42739429868912354,-1.4596193207748644,9205771.555499408,8528900.0,1695761.0,3021339.0,4127226.168337486,1286235.497435427,1271554.1806090618,0.0837962337854005,0.11581565205377077,0.061426288140223516,0.09553700115869034,0.09858602098202932,0.10027224512737744,0.10028166537399949,0.09153025626210894,0.07223445109792975,0.053177292181509316,0.0552403261917397,0.07210256764522095,3.40557355054638,0.13185475922774373,0.4713910230737824,0.08333333333333333,0.4279560673889159,0.14224756054462265,0.000588208105932529,4209.355770186218,66.68691330088991,0.03695041722813795,Kristian,REC_20260311_120243.csv
left,19,paved,22.128,1.0719999999999992,0.014925373134328358,18444.0,1.2345663883685978,31317.87890327185,1650.0,0.39162876082991244,0.2010163749294184,0.5098814229249012,0.14366893811677978,0.4852682326946921,0.29606087610334364,5313.0,4352.838235294118,-2.6000000000000227,610.1029411764706,0.14016209842800337,10.0,-0.7575757575757576,9.242424242424242,0.652797056390258,-0.9386687492125132,9789881.323568432,8985827.0,1567480.0,3555235.0,4242568.26768364,1254597.1658187048,1245983.1640957387,0.08366076224775586,0.11667167804644028,0.061565645133499776,0.09612727328011135,0.09936383630693968,0.10032669691512974,0.09612051636356264,0.08582973245988926,0.07277874814607102,0.05563307240373927,0.057839205656890526,0.07408283303997054,3.7596863468554815,0.12813599580908325,0.4739113560869903,0.05970149253731343,0.45696286428121424,0.20618777973814795,0.000527211521065332,637.3737783540522,519.8093328723057,0.04233202097703324,Kristian,REC_20260311_120243.csv
left,20,paved,23.216,1.0879999999999974,0.0,21694.0,1.5498884763517415,32903.4835389811,977.6785714285714,0.23205275601123057,0.19670597042859816,0.5034624742653939,0.1376828634167183,0.4884163042794262,0.2818965341867142,5343.0,4375.840579710145,-9.5,587.4492753623189,0.13424832661550742,0.0,-0.4117647058823529,-0.4117647058823529,0.7826676383438593,-0.8091304082015376,10311229.952146156,9454972.0,2398256.0,3342654.0,4386685.41836344,1418767.5976199978,1240221.5231833558,0.08527388526593647,0.11391600123206141,0.058956788426571455,0.09751501160853566,0.09944259156832808,0.10165831492417192,0.09914782418616051,0.0861217554888005,0.07588438494632915,0.052912401095607305,0.05156110792791778,0.07760993332957974,3.9241240881194464,0.1535380586390247,0.4874838545448566,0.058823529411764705,0.43581756612163625,0.22446332592233947,0.0008624059294194866,1640.1321085001991,492.2653269225413,0.04233202097703324,Kristian,REC_20260311_120243.csv
left,21,paved,24.32,1.024000000000001,1.0,21182.0,1.5002131197217816,33966.84222885607,1057.2916666666665,0.25094898500149054,0.2143669446550417,0.5083396512509477,0.13271305093220945,0.49487463390242165,0.268175092923262,5276.0,4307.384615384615,7.199999999999989,555.0384615384615,0.12885741838702766,1.609375,0.0,1.609375,1.1378122948238254,-0.011489811216394585,11035880.382774452,10027963.0,2923601.0,3561344.0,4730404.103820155,1551202.348149276,1139780.0062308179,0.08718122723051647,0.11608329166369027,0.05717194085291807,0.09801771555111079,0.10180727194799628,0.10261447246231874,0.09599971426530467,0.08285234659618544,0.07635188227730552,0.05312522323023073,0.049860704336024006,0.07893420958639903,4.167221049630046,0.18240108594377433,0.5525756903113773,0.046875,0.5579216381927856,0.1874356572759585,0.001345475514566155,1747.4404138625068,367.3457764043057,0.033306655991456345,Kristian,REC_20260311_120243.csv
left,22,paved,25.36,1.120000000000001,0.0,20784.0,1.4615982917164614,33413.02983867222,1170.3869047619048,0.2777922261839161,0.20153299682183587,0.5103757711721817,0.14522789746212367,0.48226682861343734,0.3011359870625961,5349.0,4406.478873239436,15.300000000000011,625.2042253521126,0.1418829508406316,0.0,-0.9,-0.9,0.7664132204507891,-0.6665178195157218,10276277.097532598,9417098.0,2178345.0,3489262.0,4438548.128988336,1136000.0971974588,1118232.4779236165,0.08272390206482133,0.11415968803937865,0.057399475803873945,0.09563063351019627,0.09863197596368983,0.10031004283065909,0.09657035095569905,0.08344946621492041,0.07353448826951352,0.05948667135459951,0.06177843124720322,0.07632487374544525,4.785915201651792,0.18528231549875193,0.5311652980582905,0.05714285714285714,0.49991140081906416,0.21800675255659743,0.0004542187279011542,456.18855750660714,96.83773330449593,0.04888080741286202,Kristian,REC_20260311_120243.csv
left,23,paved,26.496,1.1040000000000028,0.014492753623188406,20636.0,1.4472390089406135,33641.98433505372,997.3958333333334,0.23673266319106134,0.19942252165543792,0.5189605389797882,0.1436353838365694,0.4848996521710731,0.29621671864146226,5195.0,4374.071428571428,-2.1000000000000227,613.6071428571429,0.14028283554060456,6.0,-0.19117647058823528,5.8088235294117645,0.582105515632502,-1.0966442394400848,10416846.519429429,9530719.0,2274862.0,3535688.0,4546886.897422049,1270226.8135401465,1201104.42842774,0.08355732645296145,0.11416953802439703,0.057671015889086664,0.09677809167660074,0.09845028332544051,0.10136028871433937,0.09638617175890393,0.08480167219164884,0.07414145043029541,0.05682185606741023,0.05883371164492056,0.07702859382399531,3.3290753550539103,0.12248645483962539,0.45559651502622134,0.057971014492753624,0.4564559184468808,0.15710520278713339,0.0006054786968220375,282.37799725420757,87.84831104856694,0.051432804058629614,Kristian,REC_20260311_120243.csv
left,24,paved,27.616,1.088000000000001,0.9852941176470589,21727.0,1.553090208322032,31370.570189271344,1443.75,0.3426751657261734,0.20857626481098362,0.5128832048147451,0.14706342626351418,0.481069346358875,0.3057010956456483,5317.0,4352.652173913043,-23.600000000000023,625.2753623188406,0.14365387752927586,1.373134328358209,-78.0,-76.6268656716418,0.4633097377897052,-1.184720663970942,10430446.900236154,9529497.0,2803871.0,3181386.0,4486186.33895166,1406690.057763103,1173555.7028532927,0.08302783909860055,0.1133408583139382,0.06056277531939548,0.09526425667509067,0.09719877602527861,0.10116770384872792,0.09885693546829687,0.08836191827071951,0.07409775149583964,0.05548507822983156,0.05870150799279467,0.07393459926148643,3.568597766545499,0.13867983751539928,0.4702204989128141,0.058823529411764705,0.46141690921910533,0.17447982868884462,0.0008838216572457688,591.8099357056809,225.05011839323316,0.01600000000000081,Kristian,REC_20260311_120243.csv
left,25,paved,28.72,1.0400000000000027,1.0,20114.0,1.3965934305014747,32811.33605935607,1172.65625,0.27833085701027394,0.19413434247871333,0.517123935666982,0.1475219889112938,0.4792769859194876,0.30780111135151683,5285.0,4380.651515151515,-10.100000000000023,630.719696969697,0.14397851433472952,0.046153846153846156,0.0,0.046153846153846156,0.49778105056510824,-0.9241695162505592,10192620.921804655,9393885.0,1743409.0,3550348.0,4468781.557606092,1411777.5635581936,1349253.8552862369,0.08306153436426712,0.11458790895224524,0.05910633190718138,0.09455491261504619,0.09716971669497065,0.10022378019043798,0.0969794862394206,0.0854791905175306,0.07274066746678749,0.058857302947188564,0.06204279839376321,0.075196369711161,4.150224409146355,0.15563836660864222,0.5025071330763313,0.06153846153846154,0.47783894063675186,0.2100704998802137,0.0005197641373193562,823.0567011654173,224.8851844237887,0.03330665599145791,Kristian,REC_20260311_120243.csv
left,26,paved,29.776,1.1039999999999992,0.0,21038.0,1.4862419256696056,29981.111803934156,1015.625,0.24105936982901807,0.1953785459327447,0.4989667480743941,0.1384284063795874,0.48799654379011376,0.2836667762119647,5323.0,4364.814285714286,-5.300000000000011,589.65,0.1350916582934309,0.0,-0.5942028985507246,-0.5942028985507246,0.7134775933192228,-0.937598456509646,9830752.401113814,9083566.0,912632.0,3646865.0,4261995.208169967,1089517.3796702959,1144256.5146634905,0.08583575802603285,0.11494843505041943,0.05930214671218216,0.09712080697264161,0.0997031456092061,0.10169635756062277,0.09845943371833854,0.08666380831126835,0.0745277985972239,0.05301812873727241,0.05176459806831906,0.07695958263647283,3.892303600272049,0.15781538848863394,0.49157541659228515,0.057971014492753624,0.4984715583302067,0.20194034528321775,0.000867027133654872,809.3480915732717,216.58010465361437,0.03330665599145653,Kristian,REC_20260311_120243.csv
left,27,paved,30.896,1.1839999999999975,0.9594594594594594,20186.0,1.4035790275275628,29861.54659424056,1429.6875,0.3393374206054639,0.20488829482528165,0.5098338743555471,0.14247026820712594,0.48101284995062366,0.2961880711122028,5237.0,4401.573333333334,6.0,613.4266666666666,0.13936531785603934,0.8450704225352113,-12.0,-11.154929577464788,0.6034243656337883,-1.232781929900319,9486593.868196424,8583878.0,2403143.0,3246137.0,3856335.8074678206,1418178.7163350913,1285524.5410834218,0.08423351650016053,0.11246887476599277,0.059866471988803995,0.09567790911128747,0.09738941832920349,0.10109718343137908,0.10070035563041094,0.08789584330451534,0.07437946431276088,0.0553105253273072,0.05457442490261058,0.07640601239556764,2.987450349264993,0.10179971601532256,0.43414140738703505,0.05405405405405406,0.45861448084452544,0.1004339090637522,0.0004898336906807281,513.9494138531253,209.03414029745366,0.07214799604516398,Kristian,REC_20260311_120243.csv
left,28,paved,32.096,1.1680000000000064,0.0136986301369863,15668.0,0.9652328141405339,24509.203434628387,979.6875,0.2325295767427605,0.19981395348837208,0.48130232558139535,0.14638719217354956,0.481029717301921,0.30432047523915984,5375.0,4331.810810810811,0.10000000000002274,620.0945945945946,0.14314904821028593,5.0,-0.9305555555555556,4.069444444444445,0.5616418443347468,-1.1832571790823323,7877626.392490951,7227757.0,1532050.0,2733011.0,3286354.0582107008,1538957.372237724,1127949.8696365128,0.08307492653343898,0.11460471558614149,0.06255108343680005,0.0948233370976497,0.0987633908795398,0.10005178534661867,0.1008691203354193,0.09138553878597677,0.0727864883919714,0.0546241818851114,0.05500165338757276,0.07146377833375968,3.6091572579799935,0.12606024924341627,0.45251182632427994,0.0547945205479452,0.5066796960226133,0.1257893195471778,0.00034950206054820324,2886.033263841564,250.07973988726656,0.042332020977034986,Kristian,REC_20260311_120243.csv
left,29,paved,33.28,1.5679999999999978,0.030612244897959183,9131.0,0.33099881748028426,14638.78540043538,531.25,0.12609259344902485,0.19095385737734816,0.4586904979026081,0.15198183933585857,0.4658525277090095,0.32624453082440286,5483.0,4618.707070707071,1.8000000000000114,692.1363636363636,0.1498550033679459,16.0,-1.063157894736842,14.936842105263159,0.017845982724650433,-1.593034517244546,4876482.105165772,3815464.0,834441.0,2919935.0,1531484.0433714052,747076.555018547,1118441.6463511242,0.08180828077296547,0.11054079588498246,0.06231137315965813,0.09221610840411852,0.09304497301269322,0.09770104887458118,0.10737186496723908,0.09678689212950407,0.07234960153263409,0.05666678330548582,0.05519494720635448,0.0740073307497835,3.161576746089236,0.1244212785771696,0.5084035628019806,0.04081632653061224,0.3996996102415791,0.022464252613913265,0.00042660019006663156,5558.142945265086,449.2189764492173,0.2264626532859942,Kristian,REC_20260311_120243.csv
right,0,paved,0.688,1.1680000000000001,0.0136986301369863,19449.0,1.435030036030463,27384.844823369003,1269.53125,0.30660022934254005,0.22889842632331903,0.5039852851011649,0.1668238824049483,0.4339502455698229,0.3844308975693555,4893.0,3882.310810810811,-2.8999999999999773,632.7364864864865,0.16297934846549317,1.0,-0.4166666666666667,0.5833333333333333,0.48735622796532857,-0.8714469698935656,8751378.173601286,7964460.0,1629788.0,3240029.0,3899174.273576674,1085449.1653450516,1220547.9655606747,0.07828995687299636,0.0930345886226857,0.061115732828386546,0.0950847746709782,0.06724540622574324,0.09776846472740183,0.11079706638913157,0.08478859414322064,0.08081701132301396,0.07869024786714515,0.08203528826172767,0.07033286806756912,3.7269474534878655,0.16717645742943468,0.4832434902720444,0.0547945205479452,0.42996866747984686,0.20334811869289107,0.0006728555694405199,0.0,0.0,0.0,Kristian,REC_20260311_134844.csv
right,1,paved,1.872,1.0879999999999999,0.9852941176470589,20392.0,1.5310504944545134,29476.042475203485,1972.2222222222222,0.4763047665410263,0.23745819397993312,0.5152591973244147,0.16926242647004003,0.429847385725682,0.39377330673812183,4784.0,3887.7971014492755,-0.8000000000000114,641.9057971014493,0.1651078439412804,0.6119402985074627,-2.0,-1.3880597014925373,0.46085150227892774,-0.946295839223763,9164836.239273401,8252789.0,1605353.0,3648087.0,4227276.633260125,960298.8594074657,1389884.4426729716,0.07947200083501703,0.09237003183502449,0.06558984261419976,0.09688807043965138,0.06506795696680062,0.0963736403015008,0.11089324456306987,0.0868827770280849,0.07914768618270471,0.07760066801362868,0.08237964944195512,0.06733443177836262,3.816883177878072,0.13122937351314984,0.4827331521872838,0.058823529411764705,0.4412661820726993,0.2086516171146379,0.0009105725627168264,666.8016946589144,496.8775515369012,0.05656854249492409,Kristian,REC_20260311_134844.csv
right,2,paved,2.976,1.088,0.0,17544.0,1.2410544545905733,29107.294395048124,1515.625,0.3660335045689401,0.23455027534162756,0.5198857842137466,0.1701179112857945,0.4354108178925697,0.39070667125148767,4903.0,3871.7391304347825,-4.800000000000011,642.4202898550725,0.16592551001310127,0.0,-0.8823529411764706,-0.8823529411764706,0.4284372269426307,-0.6965198184613985,9143691.751264857,8283332.0,1673770.0,3491705.0,4135179.059491616,1319784.330837164,1314421.3404000015,0.08226090211491671,0.09590492232827999,0.06145236758375445,0.09715515627924387,0.06795433277185102,0.09567284297211304,0.1059442260902115,0.08657308628111547,0.0787235635410818,0.07538835860003744,0.08354482500467901,0.06942541643271571,4.3252972481310845,0.17327278839008578,0.5183003111793542,0.058823529411764705,0.46441814444616947,0.2500042018281549,0.0008087218960005502,1450.8260865222035,356.56176640537416,0.04618802153517023,Kristian,REC_20260311_134844.csv
right,3,paved,4.08,1.12,1.0,20224.0,1.5139439864850113,30111.65463736591,1740.625,0.42037249906164875,0.23116615067079463,0.532094943240454,0.1625600034831954,0.43772881146842085,0.37137149583042084,4845.0,3881.8169014084506,-8.0,615.4084507042254,0.15853618713467268,0.3142857142857143,0.0,0.3142857142857143,0.5647738983857415,-0.8431380435891573,9397693.58545356,8596095.0,2125811.0,3147177.0,4254408.185547082,1272254.9026855147,1093431.4205432055,0.07930074852417736,0.0893766168739047,0.059286888309162615,0.09762380764053423,0.06575982642076275,0.100432133928863,0.11000366461182327,0.08313952011726758,0.08453642660435617,0.07643074065070443,0.07942048336592782,0.07468914295251607,4.122217691073425,0.17867838606316355,0.5076292356913322,0.05714285714285714,0.4453740165424436,0.229014270162481,0.0010692199526184446,1598.0054234367701,228.3065543963855,0.01847520861406832,Kristian,REC_20260311_134844.csv
right,4,paved,5.216,1.088,0.0,18363.0,1.3244486809418958,30009.25358951802,1149.3055555555557,0.2775649255723235,0.2322235922729141,0.519317714755446,0.1645642115416497,0.4346656418139892,0.3785995388427201,4866.0,3846.4347826086955,-24.30000000000001,616.6811594202899,0.16032539072508328,0.0,-0.14705882352941177,-0.14705882352941177,0.5929218539375006,-1.0158006521211829,9200090.720401892,8267450.0,1992642.0,3510031.0,4125507.0579461614,1337580.0960033145,1341167.922715176,0.0802097933716146,0.09520956730117104,0.061506232008560535,0.09612138475682357,0.06575258850657865,0.09710102334554113,0.1091053638980573,0.08302437039381472,0.08048107790387486,0.07933565432322046,0.08153984114783501,0.07061310304290817,3.5867493305783147,0.11880736185177279,0.4608016116882381,0.058823529411764705,0.44176429791117017,0.19769377896356943,0.0007644845600094039,1373.3463996142166,298.4609468468118,0.01847520861406824,Kristian,REC_20260311_134844.csv
right,5,paved,6.32,1.12,1.0,20177.0,1.5091582372316388,28979.03174710984,1941.6666666666665,0.4689253969185597,0.2392075078206465,0.5180396246089677,0.17408057059641707,0.4259971455652761,0.4086425752109578,4795.0,3878.323943661972,-0.10000000000002274,659.0774647887324,0.16993873496973064,0.18571428571428572,0.0,0.18571428571428572,0.3314210023645443,-0.9647869399159199,9189231.785414655,8362745.0,1816713.0,3347541.0,4083894.023394531,1111497.10771428,1241127.2099485537,0.0779449522626661,0.09076448734570254,0.06020823573418167,0.09599035448011882,0.06399599071763976,0.09548556258874713,0.11197664157233594,0.09007811563729068,0.07976075043306786,0.08022559476469071,0.08400245495912638,0.06956685950443237,3.7231389724493993,0.14188198125888446,0.486742305151939,0.05714285714285714,0.42995477553164047,0.1949599521356393,0.0007285596677120951,1061.1413666425408,411.8884492018503,0.01847520861406824,Kristian,REC_20260311_134844.csv
right,6,paved,7.456,1.088,0.014705882352941176,19372.0,1.4271895532111079,28496.53666676005,1305.0595238095239,0.31518054345307855,0.2340904440351954,0.516267648864334,0.17189147947849112,0.4287562925895175,0.4009071877178327,4887.0,3875.0434782608695,0.0,649.6521739130435,0.16765029284383906,1.0,-0.2835820895522388,0.7164179104477613,0.48542879958995966,-1.0702316775497773,8990839.406919079,8092742.0,1762957.0,3497814.0,4154370.403021754,1204859.6857316343,1314211.109270826,0.07656950085646538,0.09226637943286285,0.06803476725833839,0.09457771394804358,0.06448922499233295,0.09701246923830682,0.10906656493802781,0.08654414349722116,0.08041050497797127,0.07769150790266963,0.08534733598126996,0.06798988697649021,4.5426690667364085,0.17948910009663224,0.536953448066824,0.058823529411764705,0.5061596185304528,0.23014145143423712,0.00044502375272480085,908.9097865024885,419.7944106672587,0.01847520861406824,Kristian,REC_20260311_134844.csv
right,7,paved,8.56,1.1359999999999992,0.014084507042253521,20138.0,1.5051870835958614,31284.385322393664,1612.5,0.3894294605310786,0.22798552472858866,0.5201045436268597,0.16356185331275366,0.4368711770422455,0.37439378450192634,4974.0,3887.3333333333335,-17.80000000000001,620.2708333333334,0.15956203910135483,5.0,-0.34285714285714286,4.6571428571428575,0.5941981576477093,-0.9065631337630644,9285090.157917101,8326093.0,2499660.0,3262020.0,4142478.4452710957,1335084.1652059702,1180393.314701297,0.07757388669753615,0.09229048762362088,0.06232850282970331,0.09923612302063683,0.06596567198307894,0.09706025267249756,0.11226276224775623,0.08469101926484879,0.08231864174241124,0.07742025381581204,0.07887083404790488,0.0699815640541931,3.8356878993800283,0.15337656639134092,0.49079614914464187,0.056338028169014086,0.4788082791065597,0.20613780674133905,0.000926842571498794,453.92767412147543,318.36535489418577,0.024440403706430944,Kristian,REC_20260311_134844.csv
right,8,paved,9.712,1.104000000000001,0.014492753623188406,19004.0,1.3897181548017223,30701.831215743467,1460.4166666666665,0.3527003253647107,0.22810965630114566,0.5339607201309329,0.16853070736143883,0.43252927554441917,0.38964000101313767,4888.0,3911.114285714286,4.5,643.3142857142857,0.16448363272432406,6.0,-0.11764705882352941,5.882352941176471,0.4594529969258165,-1.2574723246191741,9270690.938855853,8384736.0,1893682.0,3472158.0,4193458.7593659,1221695.8120115483,1268333.031987351,0.07956811723367108,0.09157419515081562,0.061885907560139966,0.0969142882189219,0.06587454068624944,0.0965125028307607,0.11058960179415438,0.08624505986602282,0.08165374865767154,0.07830797215261999,0.08228564749541599,0.06858841835355653,3.7778578665571585,0.1462569481506596,0.4903149100238858,0.057971014492753624,0.4120825480492784,0.23468189139975368,0.000585959521291327,578.5234077661275,153.72314319079103,0.024440403706430757,Kristian,REC_20260311_134844.csv
right,9,paved,10.832,1.0719999999999992,0.014925373134328358,21335.0,1.6270709528785638,31331.64457860455,1255.2083333333335,0.30314114983200885,0.2369578881206788,0.5105803477896501,0.16778370751356947,0.43124983405590134,0.38906381930739464,4773.0,3877.1029411764707,-16.600000000000023,634.1176470588235,0.16355450362801213,7.0,-0.3787878787878788,6.621212121212121,0.4715939188709147,-1.0853500986400682,9415424.890094658,8480031.0,1523497.0,3797138.0,4258233.126544161,1270814.7480222394,1363434.4172565113,0.0789552538849884,0.09083874785220923,0.06130259479675167,0.09721858725625182,0.06394252834325205,0.09734754952720155,0.10953827713992027,0.08534647231293832,0.08190242107698668,0.07958110019989152,0.08243723520063116,0.07158923240897729,4.202821739964324,0.17023043115571027,0.5062860152409258,0.05970149253731343,0.42906974674762005,0.28156340430610144,0.0008475855224672075,1165.641883255745,179.30287942318256,0.03200000000000017,Kristian,REC_20260311_134844.csv
right,10,paved,11.92,1.1039999999999992,0.014492753623188406,18621.0,1.3507193896093455,30390.595551913753,1506.25,0.3637693797984106,0.2211690363349131,0.531003159557662,0.1614909712141693,0.44564717295394485,0.3623740506276431,5064.0,4005.442857142857,-17.899999999999977,631.1142857142858,0.15756417160934585,4.0,-0.5,3.5,0.5535522515070287,-0.91083130786427,9377530.72406617,8591208.0,1857030.0,3268129.0,4217798.0234372085,1118149.2866256523,1200030.4164226516,0.07890334937103441,0.09575541851979985,0.05736123346446443,0.09435018778019909,0.07243001487261976,0.10031350198479926,0.1027245070101041,0.08223096429501285,0.08279804979652687,0.07825423263345234,0.07926000691915644,0.07561853335283061,4.206099299689722,0.18624142288716486,0.5217209434939997,0.057971014492753624,0.43439121223028865,0.24252129955710883,0.0008193034209740526,1468.9024247149066,133.68686853780503,0.018475208614068855,Kristian,REC_20260311_134844.csv
right,11,paved,13.04,1.104000000000001,0.0,17774.0,1.2644740785964392,31174.692332082446,1531.25,0.369807045853156,0.22463474025974026,0.5170454545454546,0.15940948294861812,0.4403385298050221,0.3620157496077168,4928.0,3889.0857142857144,-13.199999999999989,604.4,0.15540927724474352,0.0,-0.5217391304347826,-0.5217391304347826,0.5140644557650187,-0.9659082179827814,9264248.274380712,8352971.0,2072054.0,3429397.0,4288011.864398666,1154457.8283348612,1245509.096337491,0.07756872713381037,0.0906382697365521,0.0638122805213124,0.09852113607311302,0.06502446406794105,0.10063327407102661,0.11022421722329155,0.08047062107876989,0.08552138585638931,0.07622797866556957,0.07893886186984822,0.07241878370237588,4.02572567105577,0.15680212198348464,0.4947853254498459,0.08695652173913043,0.46320726521731886,0.23339193062406902,0.000827314689684137,1860.2834013486577,152.66844256912228,0.018475208614068855,Kristian,REC_20260311_134844.csv
right,12,paved,14.16,1.1039999999999992,1.0,18851.0,1.3741390136152114,30022.90935269265,1625.0,0.3924482935584513,0.22572716099959034,0.5266284309709136,0.16118014359245275,0.4395271794758912,0.36671257460017803,4882.0,3893.957142857143,-13.300000000000011,611.9928571428571,0.15716476445187963,0.21739130434782608,0.0,0.21739130434782608,0.6226510241162121,-0.8057383740588633,9077496.914283475,8319984.0,1707979.0,3203377.0,4194599.086500001,1175560.8211763059,1189328.7205134865,0.07852093170003338,0.09428528452510666,0.062261305979594755,0.09729727746655073,0.06819357465963746,0.09806770197045238,0.10842807720387267,0.08200251672004606,0.08168334085414396,0.07775050719613173,0.07917762687240669,0.07233185485202345,4.0589925728998235,0.15594833712446549,0.4984893951071153,0.057971014492753624,0.4487504184881506,0.2088947219820694,0.0009789981887123203,567.1916195901783,62.60408000548497,3.5079473567473574e-09,Kristian,REC_20260311_134844.csv
right,13,paved,15.28,1.1199999999999992,0.014285714285714285,15577.0,1.0407657571143194,29896.263545801172,1120.5357142857142,0.27061681781091007,0.22910216718266255,0.5376676986584107,0.1644745611285831,0.4372863282502423,0.37612555093276184,4845.0,3909.676056338028,-23.80000000000001,627.4788732394367,0.16049382716049385,8.0,-0.028985507246376812,7.971014492753623,0.5890986039952012,-1.081682910722265,9307453.7751435,8377405.0,1566258.0,3740938.0,4220279.607012894,1322103.205446861,1338183.934954159,0.07921840720206638,0.09638059419209112,0.06330627875224705,0.0970038222251042,0.06875682218547699,0.09591947749714504,0.10801658579112135,0.08326758817956172,0.07922561215042491,0.07851232226293017,0.08120697294902139,0.06918551661280968,3.882622123356942,0.15662693185675505,0.49012957071261415,0.05714285714285714,0.46132328825401353,0.20213810641035565,0.0005068851109951758,1668.6228852959348,268.31557991508805,0.009237604307034205,Kristian,REC_20260311_134844.csv
