foot,step_id,surface,contact_time_sec,stance_duration,time_to_peak_frac,impact_mag,impact_mag_norm,accel_mag_strike,loading_rate,loading_rate_norm,heel_pmax_ratio,fore_pmax_ratio,heel_mean_ratio,fore_mean_ratio,heel_fore_ratio,total_pmax,total_p_mean,midstance_diff,heel_impulse,heel_impulse_norm,rise_slope,fall_slope,slope_asym,heel_skew,heel_kurt,gyro_mag_strike,gyro_x_strike,gyro_y_strike,gyro_z_strike,gyro_x_std,gyro_y_std,gyro_z_std,pressure_01_mean_ratio,pressure_02_mean_ratio,pressure_03_mean_ratio,pressure_04_mean_ratio,pressure_05_mean_ratio,pressure_06_mean_ratio,pressure_07_mean_ratio,pressure_08_mean_ratio,pressure_09_mean_ratio,pressure_10_mean_ratio,pressure_11_mean_ratio,pressure_12_mean_ratio,accel_spec_centroid,accel_hf_frac,accel_spec_entropy,accel_zcr,accel_jerk_ratio,gyro_hf_frac,heel_ripple_frac,impact_mag_roll3_std,loading_rate_roll3_std,stance_duration_roll3_std,source_user,source_recording
right,0,loose,1.264,1.1039999999999999,0.014492753623188406,18406.0,1.219687075027202,30065.35140323492,1421.875,0.33853060206847846,0.2293217535153019,0.5165425971877585,0.16318694062682929,0.43572109667514664,0.3745215503035359,4836.0,3880.3,-21.5,617.85,0.15922737932634073,4.0,-0.9264705882352942,3.0735294117647056,0.5238789674447857,-0.912421515954839,9027367.697961017,8142833.0,1500285.0,3596774.0,4057345.1556615047,1254922.7577593625,1392197.0688424262,0.07949679884839538,0.09185593161058976,0.06718552689225059,0.09043115223049764,0.06309895037570733,0.10119247039072825,0.11089348761693683,0.0854793996045961,0.08914259206762362,0.07329330206427337,0.07770754102223318,0.07022284727616789,4.394840602248812,0.16800424848411144,0.518601770181698,0.08695652173913043,0.478090468353096,0.1772538059196172,0.0007050437850349308,0.0,0.0,0.0,Kristian,REC_20260311_143351.csv
right,1,loose,2.384,1.1520000000000001,1.0,18980.0,1.275727720562693,31761.380228195372,1471.4285714285716,0.3503286858454333,0.21706373447363062,0.5153736509875789,0.15985658651171417,0.43643581765606865,0.3662774228067519,4911.0,3988.849315068493,-9.199999999999989,623.1301369863014,0.15621801872342764,0.18055555555555555,0.0,0.18055555555555555,0.3074815300248756,-1.0092935000993704,8963633.878033284,8008443.0,1522276.0,3727499.0,4072643.6353119225,1110911.2290001276,1273429.9116548714,0.0787709573949297,0.0907804633464521,0.06248926802799585,0.09175578496218911,0.06526069247834718,0.1003447967965493,0.11158503499481431,0.08494227057619529,0.08829408007253096,0.07500017171155207,0.07491431593551888,0.07586216370292527,4.466495734578477,0.22092379621247532,0.5466143179783265,0.08333333333333333,0.47590138319940006,0.24641615643607714,0.000661775290873409,405.87929240107826,35.0396663891549,0.03394112549695439,Kristian,REC_20260311_143351.csv
right,2,loose,3.552,1.1199999999999997,0.014285714285714285,17410.0,1.122445815526594,30154.231096149673,1072.544642857143,0.25535942589309873,0.21883262151718527,0.5102704901362619,0.16142579923228373,0.4348963866343716,0.37118220383814127,4917.0,3977.4084507042253,-28.5,627.1056338028169,0.15766689329877193,1.0,-0.4057971014492754,0.5942028985507246,0.4602292798003466,-1.061685636038591,8986746.395808997,8078081.0,1782504.0,3511253.0,4007630.956554713,1220902.060302142,1306577.164500014,0.08078372214903895,0.09334763948497854,0.06608096431960792,0.08928596722333178,0.06527004631793651,0.09957648125327555,0.10725010269267271,0.08451961075935921,0.08741625235484922,0.07569512316038471,0.07690618847292455,0.0738679018116404,4.072818458973107,0.1652177555337109,0.5039410171777864,0.05714285714285714,0.4686402727424342,0.21459122240007011,0.0006243710430207875,794.3962067717422,217.4073148629316,0.02444040370643127,Kristian,REC_20260311_143351.csv
right,3,loose,4.688,1.12,1.0,18970.0,1.274751402696221,29725.554813998006,1537.5,0.36605946421470636,0.21989949748743717,0.5218090452261307,0.16585685487480442,0.43335254920636057,0.3827296162869157,4975.0,3933.56338028169,-18.69999999999999,637.1971830985915,0.1619898096196331,0.4,0.0,0.4,0.415478669937636,-0.9835586716030322,9106571.1244128,8307767.0,1320690.0,3488040.0,4108064.010586976,1147464.7288684263,1275261.6521427135,0.07960384269719245,0.09309911451824851,0.06825334875377305,0.08838346766541465,0.06493771550720953,0.0984700107059864,0.10972740911548501,0.08681516597859518,0.08846224080950148,0.07424726889928854,0.07904168889620923,0.06895872645309596,4.104372345417707,0.14869559495334386,0.4938660301484706,0.05714285714285714,0.5081447107283191,0.19917043959860728,0.00041492332434154113,903.5670054474837,251.54764501709798,0.018475208614068067,Kristian,REC_20260311_143351.csv
right,4,loose,5.824,1.12,0.0,19880.0,1.36359632854517,31005.25600603872,1364.5833333333333,0.32489017487890604,0.22621520565018696,0.5097631906938097,0.16831010471750002,0.4309162871121624,0.39058654720468067,4814.0,3917.9859154929577,8.600000000000023,644.3521126760563,0.16446003803333847,0.0,-0.5142857142857142,-0.5142857142857142,0.2385635069808162,-1.205061589211428,9371573.701622317,8361523.0,1951103.0,3755599.0,4174813.6078633894,1247024.951766891,1375026.1717562086,0.07860462942658812,0.0899139756342185,0.06428640757503316,0.09073359767342375,0.06358900987500764,0.09964159509952297,0.11365785093663387,0.08827832638931328,0.08703810882998954,0.07537287410533582,0.08003177832818673,0.06885184612674664,3.7861735239297447,0.14281908621533662,0.4842349578340966,0.05714285714285714,0.4612515608960889,0.19187559707027618,0.00043579365986801924,1249.1730598012964,235.0071823306687,0.0,Kristian,REC_20260311_143351.csv
right,5,loose,6.96,1.104,1.0,20636.0,1.437405959250451,30886.83203243738,1136.71875,0.2706384758294704,0.22327692942633098,0.5229054890631448,0.16335268056711505,0.43625407509440406,0.37444390755930645,4846.0,3930.6714285714284,3.0,626.7785714285715,0.15945839860147487,0.30434782608695654,0.0,0.30434782608695654,0.2686200728585687,-1.1885686240987303,9240737.731545355,8153829.0,2258979.0,3715282.0,4246982.4290201925,1303404.0237666254,1365785.4511134685,0.08066233685993307,0.09101680192769684,0.06125089497614003,0.09263411921627349,0.06262834048708509,0.10020098347428828,0.11182022700592774,0.08665549687984968,0.0897738299890604,0.07399317455760013,0.07669718368726536,0.07266661093887995,3.9966911851397153,0.1419278363810067,0.49259652181828767,0.057971014492753624,0.46181975698558664,0.20396895311647026,0.0005843010937123863,834.185431024382,201.01743386264917,0.009237604307034134,Kristian,REC_20260311_143351.csv
right,6,loose,8.08,1.1359999999999992,1.0,19487.0,1.3252270363928218,31537.27334440947,1194.1964285714284,0.2843231901203076,0.2263340830096095,0.5238192598650583,0.1607543717673551,0.43983322191337393,0.36548938042457246,4891.0,3947.3611111111113,-22.600000000000023,619.375,0.15690862390485907,0.39436619718309857,0.0,0.39436619718309857,0.39920665175474285,-0.9909947835783446,9299036.155510474,8404283.0,2152689.0,3347541.0,4156658.5614493913,1439726.2615885914,1235526.5033539233,0.07826607086309419,0.0892227578199219,0.0600541852855283,0.09250202315189472,0.06429752647690087,0.10236093029801906,0.1115231694873509,0.08494774990324055,0.09144998416663734,0.07342809894092396,0.07580662186411455,0.07614088174237359,3.948879648095531,0.14657500821572914,0.4943411160163557,0.08450704225352113,0.5095630752169048,0.2160564260553685,0.0006448352630494242,583.9785954981569,118.50291781638144,0.01599999999999959,Kristian,REC_20260311_143351.csv
right,7,loose,9.232,1.088000000000001,0.0,17645.0,1.1453892853886851,31201.30575793263,1539.0625,0.36643147586533104,0.2225986448784376,0.4992028696691909,0.1647347269844781,0.43440622350035024,0.37921815589331404,5018.0,3930.8695652173915,-28.0,631.7391304347826,0.16071231058511226,0.0,-0.7647058823529411,-0.7647058823529411,0.39224122932125227,-1.0820483753193384,9202660.939714883,8367632.0,1671327.0,3446501.0,4176988.0110889785,1378651.1310965465,1312481.7769920472,0.08040039818604136,0.09227592817903624,0.06289495999705047,0.09043984809939903,0.06522877262839656,0.09865059174870036,0.1114404748737234,0.08596762894959997,0.08781108284481805,0.07419533237473731,0.07876709803487815,0.07192788408361907,4.038225651380989,0.15284350894235346,0.4976878488331836,0.058823529411764705,0.45742498958571554,0.2319433798882,0.0008581867780418642,1508.8210629494804,217.60697902434086,0.02444040370643033,Kristian,REC_20260311_143351.csv
right,8,loose,10.336,1.1359999999999992,0.0,19794.0,1.3551999948935112,29750.56507026379,1442.7083333333333,0.3434907574101411,0.2180818570555895,0.505396049684382,0.16366688394064918,0.4357429718875502,0.3756041852644981,4911.0,3963.25,-17.899999999999977,633.8611111111111,0.1599346776284895,0.0,-0.16901408450704225,-0.16901408450704225,0.2727494774428127,-1.1293395437391542,9046657.235006144,8255232.0,1160643.0,3513696.0,4066614.39475986,1181057.18795214,1288360.449212314,0.07848496954659825,0.09124105497031756,0.06343348963042396,0.09102378098782565,0.06498244286044703,0.10096231347729487,0.10980746721615958,0.08607554125752574,0.0875333795916651,0.07521534655200207,0.07759134268312343,0.07364887122661677,4.220695307175735,0.17187688523760106,0.5094717460029438,0.08450704225352113,0.47488605922659066,0.22704122788298958,0.00047625676879786233,1162.2832414404563,177.9395494098087,0.027712812921101046,Kristian,REC_20260311_143351.csv
right,9,loose,11.488,1.136000000000001,0.9859154929577465,17621.0,1.1430461225091524,28753.212968292777,2070.3125,0.4929154370777296,0.22438524590163936,0.5102459016393442,0.16130465287644863,0.4359960653102094,0.3699681389592062,4880.0,3939.3194444444443,15.899999999999977,620.4236111111111,0.15749512570910795,0.32857142857142857,-6.0,-5.671428571428572,0.49331049874180105,-0.9259093728476757,8924513.686427848,8194146.0,1822821.0,3029891.0,3987174.5212221597,1412568.5446280413,1229591.472372775,0.07926143475149049,0.09264149546417705,0.06435121689801185,0.09237001597145587,0.06609996791605996,0.0995624596747182,0.1095966237823087,0.08434197954384394,0.08532212628379832,0.0751504595759984,0.07696267333260469,0.07433954680553255,4.577156408204224,0.17515811910966378,0.5302244998616986,0.056338028169014086,0.5254722150177596,0.2339511648018498,0.0005981850865801672,1247.7116386943471,337.9836480145624,0.02771281292110159,Kristian,REC_20260311_143351.csv
right,10,loose,12.64,1.1039999999999992,0.014492753623188406,16396.0,1.0234471838663364,31146.20312333431,1276.9097222222222,0.30401618781607553,0.21985383678440926,0.5296386520503451,0.15791721548880763,0.43887706503676965,0.3598210707945897,4926.0,3980.385714285714,-13.800000000000011,613.4142857142857,0.15410925717895252,8.0,-0.5294117647058824,7.470588235294118,0.5666748763745622,-0.8466283711096501,9111701.763277208,8196589.0,1764178.0,3567452.0,4102825.782866046,1441974.8044204572,1299759.4815841957,0.08004967214232649,0.09269381646430533,0.06945486259407739,0.09062653655245186,0.0673552814336012,0.09963140686293863,0.10770312999099155,0.0833623446399667,0.0885700237234726,0.07333819048405216,0.07455487084884092,0.07265986426297524,3.99289805287591,0.1473172491067806,0.49724594206588746,0.08695652173913043,0.49673537527325445,0.2285544066165641,0.0008724659335436729,1720.8988930207377,418.5021181247133,0.01847520861406863,Kristian,REC_20260311_143351.csv
right,11,loose,13.76,1.072000000000001,1.0,19492.0,1.3257151953260577,32884.892184709985,1699.6527777777778,0.40466600662398095,0.21512225190055476,0.5161290322580645,0.16051729139856133,0.4379607382225826,0.36651068780711055,4867.0,3953.8529411764707,-0.39999999999997726,619.2941176470588,0.15663053908696653,0.05970149253731343,0.0,0.05970149253731343,0.2924881366444326,-0.8605065972208772,9052083.831943063,8174598.0,1595580.0,3545461.0,4145535.407473192,1422895.2898466287,1366897.782017077,0.079799302244274,0.09153394678310807,0.06268643393264946,0.09216624141753019,0.06600784045346683,0.1001071181498315,0.11149586032983462,0.08644955404631371,0.08814559141864599,0.07489715913740135,0.07406773735224763,0.07264321473469662,4.72181613272339,0.2092854020328105,0.561083498131611,0.08955223880597014,0.5030410330945757,0.31978864962828146,0.00047927134206715626,1559.1922053849985,396.986206411045,0.032000000000000035,Kristian,REC_20260311_143351.csv
right,12,loose,14.848,1.1359999999999992,1.0,16870.0,1.0697246507371077,32001.136011085608,1113.28125,0.26505830107009987,0.20751376868607396,0.5043273013375295,0.15134565919174134,0.44570580213026734,0.3395640318530626,5084.0,4022.7083333333335,15.699999999999989,594.25,0.14772385934020404,0.16901408450704225,0.0,0.16901408450704225,0.6210120729152274,-0.674962963406974,9137190.308737254,8344419.0,1593136.0,3364645.0,4064644.34599669,1353313.353286045,1369417.820038976,0.07869559963402213,0.09273395825780724,0.06504048198594783,0.09274086350061284,0.06556528043917344,0.10377198888255908,0.10686899028087074,0.08016986897301775,0.0908937110501148,0.07219431353254958,0.07117579021872357,0.08014915324460097,4.20557124641684,0.1722434196892152,0.5082717123024129,0.08450704225352113,0.484620083189739,0.22281314173785774,0.0007035502185493368,1667.5718875059038,302.5771352153232,0.03199999999999909,Kristian,REC_20260311_143351.csv
right,13,loose,16.0,1.1359999999999992,0.0,16989.0,1.081342833348124,29314.52251018256,906.25,0.21576675736232692,0.21669736034376919,0.5121751585839983,0.16305860441756564,0.43546468842315994,0.3744473633623778,4887.0,3982.2083333333335,-2.5,634.6666666666666,0.15937555585782595,0.0,-0.08450704225352113,-0.08450704225352113,0.22573041688871828,-1.2829017635608948,8732754.944055226,7874052.0,1977981.0,3216816.0,3976942.3292144896,1272088.5241483287,1244983.7885463536,0.07877050352435659,0.0901126189753731,0.06328495844363297,0.09112057449977154,0.06396506684244853,0.10028983080995678,0.10945908712014202,0.08648886191706863,0.08997659729560999,0.07670576418026011,0.076569742500497,0.0732563938908827,4.290678714071187,0.18997063100775147,0.5275514967838506,0.056338028169014086,0.4622633327735054,0.230282692710444,0.0004802455905354174,1480.6560482885066,411.5380652403255,0.03695041722813502,Kristian,REC_20260311_143351.csv
right,14,loose,17.152,1.1199999999999974,0.014285714285714285,16266.0,1.0107550516022008,30604.510925678915,1188.1944444444443,0.2828941929861619,0.2170004086636698,0.5042909685328975,0.15868323551121907,0.4395473666860161,0.3610150976617729,4894.0,3930.676056338028,39.30000000000001,608.830985915493,0.15489218068066993,4.0,-0.057971014492753624,3.9420289855072466,0.4744253498086926,-1.108774778710875,9023702.997071214,8076860.0,2184454.0,3379306.0,4054305.370658001,1387195.7038610722,1348234.6292113082,0.0801245529923534,0.09257985222769263,0.06396061316191172,0.09188112284020955,0.0641720235919707,0.10104343588530806,0.10959660023362645,0.08403743756225858,0.08987093214083518,0.07592142698457062,0.07464579794896051,0.07216620443030264,4.168435916627046,0.1566711115403806,0.5143338596817215,0.08571428571428572,0.5091245809745276,0.2009670581929917,0.0005877054523020385,387.66523358864356,146.04028835194813,0.009237604307034925,Kristian,REC_20260311_143351.csv
right,15,loose,18.288,1.1039999999999992,1.0,18042.0,1.1841491046876222,33263.174983756435,947.4826388888889,0.22558373147603433,0.22536665978103698,0.5129105556703161,0.16277645950694658,0.434158711757567,0.3749238587149333,4841.0,3943.3571428571427,13.800000000000011,626.4142857142857,0.15885304399804373,0.2318840579710145,0.0,0.2318840579710145,0.43808138825127346,-0.9868626147367423,9294252.457491888,8367632.0,2386039.0,3266907.0,4082146.8579214457,1589514.817184383,1350510.6326916353,0.07781621895774087,0.09040882496784829,0.06287970728349666,0.09122393899324362,0.06447370804426975,0.09984965674642708,0.11184451247124459,0.08598185012770121,0.08820258300577825,0.07625482275798359,0.07679460937924538,0.07426956726502074,4.384527277026712,0.17952927516242656,0.5440476845228028,0.057971014492753624,0.5272559110256076,0.2936548099522864,0.0004826486436069302,893.0951796981126,152.27988135701779,0.015999999999999927,Kristian,REC_20260311_143351.csv
right,16,loose,19.408,1.1039999999999992,0.014492753623188406,19444.0,1.3210288695669923,31081.333015171662,1737.5,0.41367695549466815,0.22138013562026326,0.5129637016354208,0.1540696618603131,0.4471506918969963,0.3445587016909197,5014.0,3933.285714285714,-12.800000000000011,590.6928571428572,0.1501779682562743,12.0,-0.9558823529411765,11.044117647058824,0.660476261511391,-0.5902650781190921,8976809.110520843,8168489.0,1364672.0,3463605.0,4101920.471628301,1245509.0265197586,1347499.1747398658,0.07865833726800567,0.09252170123124977,0.06156975266044384,0.09374931899901935,0.06885918715722951,0.10199760287654815,0.1099335343042894,0.0819126139541641,0.09002288163294955,0.07214251988522864,0.07215704790614898,0.07647550212472307,4.124003152207035,0.165382147756952,0.5218800194412075,0.043478260869565216,0.4802213952956713,0.22117683750529624,0.0008811205457264072,1592.6635970390416,404.92925257691144,0.009237604307032797,Kristian,REC_20260311_143351.csv
right,17,loose,20.528,1.1360000000000028,1.0,17128.0,1.0949136516920843,32880.693256073544,1139.8809523809523,0.27139135655097274,0.21789176090468498,0.5113085621970921,0.15598627727565612,0.44140501192901793,0.3533858317418732,4952.0,3987.7083333333335,-10.199999999999989,607.1736111111111,0.15226128903052782,0.2676056338028169,0.0,0.2676056338028169,0.5646408601276808,-0.8011997189090292,9180424.0819198,8283332.0,2182010.0,3302337.0,4175565.9997617938,1296614.1900712189,1256779.0707803753,0.07870365532974592,0.0924507601483726,0.06480330181286244,0.09311948174076588,0.06603974017379795,0.10119638472389113,0.11135259390836424,0.08256970203576965,0.0885986451421904,0.0735976873378263,0.07341657523988646,0.074151472406527,4.341746417729795,0.184667864758504,0.5306780751893739,0.08450704225352113,0.5241772737274747,0.25028164581682394,0.000676934066896819,1166.5373261637799,411.96542491829166,0.01847520861406996,Kristian,REC_20260311_143351.csv
right,18,loose,21.68,1.120000000000001,0.0,18875.0,1.2654763829647373,32555.209245219114,1014.8809523809523,0.24163042450099662,0.21957618567103934,0.5087790110998991,0.1544880212954747,0.4420124223602484,0.34951058721484524,4955.0,3968.3098591549297,-17.5,597.8098591549295,0.15064596273291925,0.0,-0.15714285714285714,-0.15714285714285714,0.5786985024159282,-0.9610661249554,9131365.186119817,8418944.0,1672549.0,3115412.0,4185055.648144845,1146090.1511941834,1276120.2972661273,0.0782715173025732,0.08943034605146406,0.0628039041703638,0.09304347826086956,0.06568944099378882,0.10305590062111801,0.11325998225377107,0.08272582076308783,0.09079325643300798,0.07344099378881988,0.07176220053238687,0.07572315882874889,4.208632784412916,0.18269941332524064,0.5192332715820959,0.08571428571428572,0.47356322430101583,0.24299100304942053,0.0006994928972143649,1206.898642526928,386.21061051774956,0.01600000000000162,Kristian,REC_20260311_143351.csv
right,19,loose,22.816,1.1360000000000028,0.0,17200.0,1.1019431403306825,28542.752179844185,1317.7083333333335,0.313729825360165,0.2219730941704036,0.5006114961271912,0.16015496381608907,0.44019671717702447,0.3638258932121732,4906.0,3965.0833333333335,-19.100000000000023,620.2430555555555,0.15642623456141455,0.0,-0.6901408450704225,-0.6901408450704225,0.4202879659733043,-1.0197496352522961,8653404.999053609,7771427.0,1299921.0,3577226.0,3835875.190670619,1242232.8792841323,1311917.6957132805,0.07798280826380277,0.09293275326986261,0.06545329718445037,0.08953854129449429,0.06621690730893984,0.1017492976888534,0.10919975060072998,0.08496738894376607,0.08975921761487428,0.07183189368305276,0.07518757487232298,0.0751805692748506,4.497059286568479,0.19699330082969996,0.5626829396295038,0.08450704225352113,0.5222685191543491,0.2332061626897814,0.0005881580352458931,988.5020654168304,152.17971835457283,0.009237604307034734,Kristian,REC_20260311_143351.csv
left,0,loose,0.656,1.2000000000000002,0.8666666666666667,18994.0,1.2770945655757537,31755.286016661856,1325.0,0.31546587972974693,0.1750276650682405,0.5140169679085208,0.13184864890549317,0.4911189182928604,0.2684658317862021,5422.0,4430.618421052632,-7.399999999999977,572.125,0.12912982920882496,0.6615384615384615,-2.4,-1.7384615384615385,0.5104168828554941,-1.314605105443037,9561078.882684004,8561887.0,2576629.0,3386636.0,4171753.562240125,1084362.0514505703,977075.0974177524,0.08736454160195053,0.11414291102287609,0.06378757866164578,0.09729543517448853,0.09827248780169098,0.10599981587458089,0.1050940376031622,0.08921470508750412,0.07540826841922388,0.04542255298802888,0.04263394381798905,0.07536372194685902,3.3692998696983065,0.12846395789188636,0.47414465668670575,0.08,0.4740836597154094,0.1297185622071994,0.0006909112958954777,0.0,0.0,0.0,Kristian,REC_20260311_143351.csv
left,1,loose,1.872,1.0879999999999999,0.058823529411764705,20033.0,1.3785339919021913,30497.96365333266,1312.5,0.31248978652474935,0.16881443298969073,0.501840942562592,0.1321068127262841,0.49171120512446453,0.268667484794826,5432.0,4371.188405797101,6.600000000000023,564.268115942029,0.1290880336326141,0.25,-0.1875,0.0625,0.537962791974021,-1.215773451881495,9718268.790091628,8899084.0,2367713.0,3105638.0,4407624.725163112,1294877.4619630119,1168779.620059126,0.08785459464477541,0.11505841942628278,0.06293516173096561,0.09618980677161386,0.098885322865138,0.10537379149370717,0.10347068419028421,0.08922390355821387,0.07620386456772278,0.04624815988753763,0.04288290916807024,0.0756733816956885,4.264778632183803,0.14138985270681423,0.49576429691363993,0.08823529411764706,0.5152426060569054,0.19079473434885671,0.0008296874854322552,734.6839456528229,8.838834764831844,0.07919595949289363,Kristian,REC_20260311_143351.csv
left,2,loose,2.976,1.12,1.0,19238.0,1.3009167215176698,33398.646394726835,489.5833333333333,0.11656365052907315,0.17117952522255192,0.5135385756676558,0.1347171657485593,0.49199118108635287,0.2738202856625033,5392.0,4433.492957746479,9.5,584.3661971830986,0.13180717839239084,0.2,0.0,0.2,0.48362050821402525,-1.1617119565368559,9633356.319353707,8765916.0,2045176.0,3431840.0,4282406.6364044,1154507.6033471315,1125430.1486360843,0.08473908595899331,0.11302886478724689,0.06266321026247068,0.09634409012065645,0.0991873637928953,0.10615100165831157,0.10310123325010007,0.08868154699502506,0.07727986072724269,0.04649308401476596,0.046035618753534235,0.07629503967875773,4.000753775330244,0.14301852012492058,0.48945876260468657,0.08571428571428572,0.5223023587807019,0.20062635151740874,0.0004411203133141996,543.3050094866911,478.76039540014557,0.05768882040742404,Kristian,REC_20260311_143351.csv
left,3,loose,4.112,1.12,0.0,20282.0,1.4028443067773433,33324.26851410245,1202.34375,0.28626296515570787,0.17275437942601565,0.5085724934774506,0.1293119926598958,0.4940043072139462,0.2617628850022018,5366.0,4421.014084507042,-4.600000000000023,558.7887323943662,0.12639379149516394,0.0,-0.3142857142857143,-0.3142857142857143,0.6221507971770834,-1.086331089816092,10198349.3493284,9202073.0,2706133.0,3464827.0,4412830.170998323,1396700.474605842,1136412.6682083625,0.08621436672486078,0.11355179488486486,0.06344538885986263,0.09703337453646478,0.09936220101181299,0.10650478508531598,0.10417914441909958,0.08668586647636768,0.07755215169548763,0.046213347265938606,0.0426261261835281,0.07663145285639647,3.746382019653655,0.12923674575079552,0.4746766677400248,0.05714285714285714,0.5173917209331748,0.16683957615637296,0.0007156551447386608,545.2769938297413,446.72020535951447,0.018475208614068532,Kristian,REC_20260311_143351.csv
left,4,loose,5.248,1.1360000000000001,0.0,19272.0,1.3042362022636744,31998.383662303946,1286.830357142857,0.30637816655020067,0.16463081130355514,0.4986326344576117,0.13196930785503902,0.4911057533626507,0.26871871679647613,5485.0,4418.430555555556,-2.1999999999999886,570.6041666666666,0.12914182071939823,0.0,-0.09859154929577464,-0.09859154929577464,0.47450901501303916,-1.3563862893825034,9689493.111308713,8895419.0,2151467.0,3182607.0,4267906.498606882,1355595.6443205208,1211071.0480071718,0.08598452819157129,0.1135804254275808,0.06450254143785343,0.09706500862862945,0.0986398513801092,0.1059451099718037,0.10435140682809067,0.09008980690101752,0.07587535795452759,0.04581503613336812,0.0418795009540215,0.0762714261914267,3.6272776003540956,0.12585591489196826,0.4659920930798685,0.08450704225352113,0.5024132840097857,0.17152405676145643,0.00046946010082926003,593.182377800734,437.9437207614876,0.009237604307034394,Kristian,REC_20260311_143351.csv
left,5,loose,6.4,1.1039999999999992,0.014492753623188406,18597.0,1.2383347462768166,32203.474051723053,1106.25,0.2633842486422887,0.16716196136701336,0.5113298662704309,0.13259419768801478,0.493105827252145,0.2688960266943936,5384.0,4410.557142857143,-7.800000000000011,571.9857142857143,0.12968559203728716,3.0,-0.014705882352941176,2.985294117647059,0.46450713234235247,-1.347057100616168,9748160.447033789,8795237.0,2590068.0,3310889.0,4224947.77453195,1238529.7610525114,1209873.5154047643,0.0853957549904612,0.11366882706752306,0.06186131327755807,0.09728605715507273,0.0997217714639226,0.10591794363523882,0.10360207165275523,0.08969712281247266,0.0765112279303878,0.04582511441703187,0.04289707487554212,0.07761572072203382,3.7912242502502878,0.1323179932696446,0.4751085856878423,0.057971014492753624,0.5133171160432739,0.17147247993468603,0.0006378327573775006,848.0320355584062,90.35232976281925,0.016000000000000694,Kristian,REC_20260311_143351.csv
left,6,loose,7.52,1.120000000000001,0.014285714285714285,17090.0,1.091203643799491,31501.675939543282,673.6111111111112,0.16037835604709358,0.17601760176017603,0.49284928492849284,0.13388174643584524,0.49076502036659875,0.2728021372341791,5454.0,4425.915492957746,-15.600000000000023,579.5915492957746,0.13095404786150713,48.0,-0.463768115942029,47.53623188405797,0.509488206788694,-1.2471999186775584,9866309.94031117,9042027.0,2466673.0,3082425.0,4201939.977681484,1361358.5296455699,1086507.207430476,0.08408859470468433,0.11368062627291244,0.064667133401222,0.09622899694501019,0.09945901221995927,0.10533350305498983,0.10374872708757639,0.08939345723014258,0.07606288187372709,0.04692273421588595,0.04448828920570265,0.07592604378818738,3.7785105050118055,0.1241476120747049,0.47177265794942,0.05714285714285714,0.5442557594555063,0.21348038663054683,0.0005895236814698237,1117.1241351494184,315.12524422008187,0.016000000000000694,Kristian,REC_20260311_143351.csv
left,7,loose,8.656,1.0559999999999992,1.0,18626.0,1.2411660680895853,34209.47319091599,1228.125,0.29240115739101546,0.17750826901874311,0.5067989709665565,0.12662897483409608,0.49710874963160695,0.25473093146696646,5442.0,4405.985074626866,-5.600000000000023,543.9104477611941,0.12344809130050373,0.8181818181818182,0.0,0.8181818181818182,0.7341768263408529,-0.8379722659604174,10101241.55540585,9160535.0,2278527.0,3595552.0,4491980.427103662,1397253.2158885668,1286499.946827299,0.08609726931819336,0.11315002320452844,0.06376672165744696,0.09838042554056388,0.10009451187495977,0.10760803655814173,0.1030823066317526,0.08618534490059315,0.07787575245341309,0.04494225968069214,0.04044362993350293,0.07837371824621191,3.9931640381407663,0.13703759569702792,0.4869525649949909,0.09090909090909091,0.49118387857838286,0.1986416186799465,0.0005393000465914158,878.5580990084476,291.40909868393254,0.03330665599145894,Kristian,REC_20260311_143351.csv
left,8,loose,9.728,1.184000000000001,0.04054054054054054,17961.0,1.1762409299691994,32208.940823938934,1102.6785714285713,0.26253393629800365,0.17139198829339675,0.5006402048655569,0.1309405985136132,0.49217217613503444,0.2660463245643288,5467.0,4445.68,4.600000000000023,569.8933333333333,0.128190363079064,1.3333333333333333,-0.5070422535211268,0.8262910798122065,0.5377133593094208,-1.2183337145624462,9509223.00348609,8753698.0,2240653.0,2962696.0,4152112.0910441456,1116167.9284639936,1009261.3166483209,0.08516432431783964,0.11332649523432485,0.06446107981981009,0.09757187501874477,0.09922441561245973,0.10599653296383606,0.10563063468355798,0.08869134380642181,0.07605285730566902,0.045464360907667666,0.042249254707191396,0.07616682562247695,3.675278921052741,0.1422798854266217,0.47211788076905714,0.08108108108108109,0.4884685152704454,0.19208379939641912,0.00035750237804101255,770.2988597507702,290.7809441587949,0.06400000000000101,Kristian,REC_20260311_143351.csv
left,9,loose,10.928,1.1199999999999992,1.0,17492.0,1.130451622031664,30718.81356758428,848.9583333333334,0.20212633017275453,0.18007380073800738,0.5033210332103321,0.13044486886553514,0.4939382287234212,0.26409146180608273,5420.0,4432.070422535211,-10.5,564.887323943662,0.12745450096448105,1.0,0.0,1.0,0.6528851646296085,-1.0671541313663344,9908097.145728588,8787907.0,2750115.0,3657861.0,4191306.1121170605,1183843.0635947178,1104294.7305653335,0.08622492269851308,0.11478436619136448,0.06349367764406041,0.09766204711497822,0.10029649450071026,0.106064313565974,0.1015517498895693,0.08690816297346168,0.07513100735039423,0.045913746476545794,0.043536705892073466,0.07843280570235511,3.7717177726732873,0.1296568770812071,0.47586101187170143,0.08571428571428572,0.5339455935844323,0.2037883486095139,0.0005790624706772943,569.8160521899476,193.16578664088104,0.06400000000000101,Kristian,REC_20260311_143351.csv
left,10,loose,12.064,1.1199999999999992,0.02857142857142857,20382.0,1.412607485442063,32686.12419666792,1063.8020833333335,0.253277932133651,0.18020164986251147,0.5066911090742439,0.13474829418608308,0.4901141401754551,0.2749324762141802,5455.0,4479.295774647887,3.1999999999999886,590.2957746478874,0.13178316511020974,3.0,-1.088235294117647,1.911764705882353,0.5785295569959343,-0.9262601615487385,9912616.998339742,8912523.0,2681698.0,3411071.0,4392093.122039648,1193442.5836575353,1141721.4641828737,0.08545734679118323,0.1126843379555388,0.06133069207307488,0.09674873439612615,0.09961324403358175,0.10532654152124014,0.10265383768826841,0.08743200327013176,0.07574128226896834,0.0463195296041254,0.047316290915951326,0.0793761594818099,4.196945980804053,0.14424036654244504,0.4924306316788131,0.05714285714285714,0.5234810230446446,0.1875453418674028,0.000383261708189275,1550.983666365747,136.65234322895614,0.03695041722813715,Kristian,REC_20260311_143351.csv
left,11,loose,13.2,1.040000000000001,1.0,18473.0,1.2262284047325642,32989.71744347017,984.375,0.23436733989356198,0.17407476287892876,0.5114376046122373,0.12646355583264252,0.49586881606982597,0.25503429885935164,5377.0,4423.121212121212,-10.5,545.4015151515151,0.12330693394901447,0.4461538461538462,0.0,0.4461538461538462,0.6944026209203666,-0.8890652264437806,9717804.974565296,8883202.0,2124589.0,3318219.0,4415627.963254804,1311107.4204320344,1145754.4432182515,0.0868884580338853,0.11375143015695759,0.0621047799784877,0.09836054342538862,0.10008015730013771,0.10700314463254387,0.10309804539506587,0.08628899104567597,0.07667354055479814,0.045316278782979245,0.04017456478696656,0.08026006590711345,4.035782552006879,0.19047229052493939,0.5515286605129407,0.046153846153846156,0.4702210751105495,0.23392325977985667,0.0007961764520505808,1469.6225138903303,108.63100546652934,0.04618802153516905,Kristian,REC_20260311_143351.csv
left,12,loose,14.256,1.1679999999999993,1.0,17252.0,1.1070199932363367,33744.18041677705,2406.25,0.5728979419620405,0.17405122452794916,0.5083193120209385,0.13005075432900104,0.49319782646332533,0.2636888229243088,5349.0,4449.094594594595,-5.0,566.3581081081081,0.12729738513453998,0.6712328767123288,0.0,0.6712328767123288,0.5968191359005479,-1.3048238906991392,10243808.79146785,9263160.0,2149023.0,3809355.0,4212322.861047169,1157117.0139137942,1238456.6622301387,0.0867683373173406,0.11473029738817189,0.06283392005054171,0.09826475474815706,0.10043039428003875,0.10532662278690168,0.10373504478591149,0.08833865378014961,0.07444575726005594,0.04542679500536094,0.04171210054885142,0.07798732204851883,3.82938460846824,0.1530327474047042,0.482535374603931,0.0821917808219178,0.5076544881017485,0.22118585207818053,0.0006203821541623447,1577.5520065384005,798.978888556566,0.0646632301492372,Kristian,REC_20260311_143351.csv
left,13,loose,15.44,1.168000000000001,0.0,20612.0,1.4350627963709182,33778.628465347734,984.375,0.23436733989356198,0.1742677048572488,0.5120504263997033,0.1316642727707981,0.4925061968570268,0.26733526118242923,5394.0,4459.540540540541,2.0,574.5,0.1288249304558099,0.0,-0.0821917808219178,-0.0821917808219178,0.4812467240298271,-1.2509749417303417,10117910.783607058,8956506.0,3152064.0,3495370.0,4262462.810380299,1395997.8972340575,1248492.0799207434,0.08482573044126471,0.11258583177275565,0.06219280861560093,0.0984073016854239,0.09955273540481081,0.10624958334090895,0.10431628515845166,0.08960140118664509,0.07571074465312752,0.0456022011720999,0.04206287158415301,0.07889250498475785,3.335083611940624,0.11805193029520476,0.4520048166060769,0.0821917808219178,0.5037326397331291,0.11821814943678419,0.00040649910520314936,1700.7724715552044,820.9199140039991,0.07390083445627164,Kristian,REC_20260311_143351.csv
left,14,loose,16.624,1.1360000000000028,1.0,16817.0,1.0645501660448062,33017.9152279486,1005.2083333333334,0.2393274952352247,0.20029080334423846,0.5043620501635769,0.13453937414405728,0.49489164038396144,0.2718562270310606,5502.0,4452.125,-12.300000000000011,584.8611111111111,0.1313667318664932,2.3943661971830985,0.0,2.3943661971830985,0.5295186337341438,-1.1920077500695436,9685424.093264787,9023701.0,2434908.0,2539977.0,4249516.293876959,1126389.7095562376,996211.494930772,0.08296911899124326,0.11282377641138906,0.06139702326916298,0.09898207160750327,0.0990725402663522,0.1068653233630632,0.10417310086007618,0.09053417063636902,0.0771479287356537,0.046248202325356494,0.04400520350768827,0.07578154002614233,3.2704608861420454,0.11064779764596164,0.4447058156888314,0.08450704225352113,0.5212401090210831,0.14433873758697072,0.0004689650393377654,2076.8907048759206,814.9724223492564,0.018475208614066534,Kristian,REC_20260311_143351.csv
left,15,loose,17.776,0.9920000000000009,0.0,17956.0,1.1757527710359634,32542.67859288783,1041.6666666666665,0.24800776708313435,0.19822912902059991,0.49602457535236716,0.12634912171995905,0.4970027522803579,0.25422217712112016,5534.0,4406.158730158731,13.0,539.563492063492,0.12245666239174603,0.0,-0.532258064516129,-0.532258064516129,1.0813266198415608,0.14850682171510643,9879414.111126935,9042027.0,2362826.0,3203377.0,4462565.771720845,1479975.359127711,1326734.5194126004,0.08668602389152268,0.1142700693113535,0.06281251350922949,0.09775638716371024,0.1003537616899866,0.10726328227444988,0.10072481519374035,0.08487758836837327,0.07735925184085767,0.04668069224894447,0.0414715333515858,0.07974408115624593,3.940381162830772,0.1686248211968694,0.5286318477462526,0.04838709677419355,0.48673428522021,0.14113994435815036,0.0010568038225051391,1947.377809602783,28.99877272307564,0.09375144443331748,Kristian,REC_20260311_143351.csv
left,16,loose,18.784,1.2000000000000028,0.0,20775.0,1.4509767775944113,34383.47009828996,1212.5,0.2886810408847684,0.2018881626724764,0.5034495279593318,0.13179481634525747,0.4915617301448606,0.2681144773136808,5508.0,4502.513157894737,7.600000000000023,579.75,0.12876142271421517,0.0,-1.9733333333333334,-1.9733333333333334,0.5541422474883266,-1.1172556033504581,10485738.473393517,9375559.0,3241250.0,3397632.0,4303330.225117584,1229096.3057142003,1123261.9533475693,0.08462233080355708,0.11255994459234754,0.062283929150679006,0.09790438673138686,0.09860574942064519,0.10644055512856855,0.10496769348112604,0.08852366076255659,0.07605109427191248,0.046304549213743204,0.043271155582700886,0.07846495086077658,4.437177486177795,0.16245833097820367,0.5534028723740768,0.06666666666666667,0.4904204975248954,0.19867257756813397,0.0011165210314344272,2037.5576065476043,110.66697257738896,0.10653324989567135,Kristian,REC_20260311_143351.csv
left,17,loose,20.0,1.1039999999999992,1.0,19813.0,1.357054998839808,31559.39780794304,2468.75,0.5877784079870285,0.19719608928242022,0.5058107360265633,0.13253437975041538,0.4913950192346629,0.2697104662492797,5421.0,4445.1,16.100000000000023,574.0785714285714,0.12914862914862912,0.4492753623188406,0.0,0.4492753623188406,0.6520836229124453,-1.0063280429670176,9756876.087102214,9078679.0,2204001.0,2813645.0,4260252.632998687,1373616.6083012468,1172640.0925605157,0.08606587671175643,0.11443740619687168,0.06354027066721943,0.09673251766792969,0.09889862673827038,0.10607185440147578,0.10239846765459237,0.08929575744720511,0.07525461423011534,0.04654242070723139,0.043238622303210274,0.07752356527412206,4.162169751024061,0.13962733306789432,0.5016801094276921,0.07246376811594203,0.5620874849242586,0.1936575064539607,0.0011625362702155117,1432.983717051012,779.3068427086936,0.1041025135783643,Kristian,REC_20260311_143351.csv
left,18,loose,21.12,1.1359999999999992,1.0,20406.0,1.4149506483215957,33570.136267224174,1309.0277777777778,0.31166309396780556,0.2083938953488372,0.5067223837209303,0.13162908566249237,0.49067719798005954,0.26826004184482616,5504.0,4505.083333333333,-10.0,577.6875,0.12823014742605576,1.2535211267605635,0.0,1.2535211267605635,0.8624084920718371,-0.4155021602080451,9790712.127887225,8786685.0,2586403.0,3458718.0,4233585.682215548,1250204.4975640306,1199396.6456544634,0.08617734287810683,0.1123453136271989,0.06263295166571096,0.0972389214652584,0.09945247035755907,0.10633358613418177,0.10229493843374461,0.08829223778077852,0.07530690639586148,0.04689764031988556,0.04333684788171387,0.07969084306000014,3.4794514758038133,0.10637396461138109,0.4464035191832114,0.08450704225352113,0.5118675174956699,0.15684672858102766,0.0013322185769539027,485.32703750495256,699.0990996869666,0.048880807412864345,Kristian,REC_20260311_143351.csv
left,19,loose,22.272,1.120000000000001,0.0,18621.0,1.2406779091563493,30759.284403249694,1564.2361111111113,0.37242499690317354,0.20373391335870944,0.4897589269530542,0.13772623807669537,0.48792710994608596,0.28226805862836796,5517.0,4448.915492957746,0.5,598.6619718309859,0.13456357460118465,0.0,-3.5714285714285716,-3.5714285714285716,0.5752295916771698,-0.8958433704463067,9395268.751381038,8570439.0,1628566.0,3488040.0,4083974.9126593405,1261447.3021634936,1158082.9180865788,0.08374884842959038,0.11359628711539133,0.06441512886508186,0.09667492948115224,0.09869789440692937,0.10464965349998259,0.10437739217976845,0.09276196446040022,0.07430834544263043,0.04746844459640425,0.04496427361629516,0.07433683790637377,3.760819835479147,0.1284234975189261,0.47150158368801404,0.08571428571428572,0.4777689713336235,0.17219283718925193,0.0005331271327009417,909.0964378619753,609.4030277399522,0.016000000000000316,Kristian,REC_20260311_143351.csv
left,20,loose,23.408,1.1359999999999992,1.0,19171.0,1.2943753918123075,29659.819891563737,911.4583333333334,0.2170067961977426,0.16974100987516302,0.5112725917644867,0.12822520285230224,0.4954011793774917,0.25883104076047686,5367.0,4435.013888888889,2.0,556.2361111111111,0.1254192489689059,0.4225352112676056,0.0,0.4225352112676056,0.5511673155498252,-1.2386668925603983,9483070.376902515,8715825.0,2552194.0,2729345.0,4103647.7907631285,1119199.9818670016,1029209.7974766673,0.08495839609671774,0.11467457511407017,0.06437096213528079,0.09833678336219666,0.1006635955668434,0.10585586290911027,0.10397061264370336,0.08763282089182986,0.07587036242527112,0.045283586109275624,0.04059238196047238,0.07779006078522865,4.338933376674395,0.16743630959144107,0.5103210277346193,0.056338028169014086,0.5101598307676192,0.16111288334321455,0.0009335895667291274,914.1434971235818,328.9659515611343,0.009237604307033472,Kristian,REC_20260311_143351.csv
right,0,loose,0.688,1.104,0.014492753623188406,18406.0,1.219687075027202,30065.35140323492,1421.875,0.33853060206847846,0.2293217535153019,0.5165425971877585,0.16318694062682929,0.43572109667514664,0.3745215503035359,4836.0,3880.3,-21.5,617.85,0.15922737932634073,4.0,-0.9264705882352942,3.0735294117647056,0.5238789674447857,-0.912421515954839,9027367.697961017,8142833.0,1500285.0,3596774.0,4057345.1556615047,1254922.7577593625,1392197.0688424262,0.07949679884839538,0.09185593161058976,0.06718552689225059,0.09043115223049764,0.06309895037570733,0.10119247039072825,0.11089348761693683,0.0854793996045961,0.08914259206762362,0.07329330206427337,0.07770754102223318,0.07022284727616789,4.394840602248812,0.16800424848411144,0.518601770181698,0.08695652173913043,0.478090468353096,0.1772538059196172,0.0007050437850349308,0.0,0.0,0.0,Kristian,REC_20260311_143603.csv
right,1,loose,1.808,1.152,1.0,18980.0,1.275727720562693,31761.380228195372,1471.4285714285716,0.3503286858454333,0.21706373447363062,0.5153736509875789,0.15985658651171417,0.43643581765606865,0.3662774228067519,4911.0,3988.849315068493,-9.199999999999989,623.1301369863014,0.15621801872342764,0.18055555555555555,0.0,0.18055555555555555,0.3074815300248756,-1.0092935000993704,8963633.878033284,8008443.0,1522276.0,3727499.0,4072643.6353119225,1110911.2290001276,1273429.9116548714,0.0787709573949297,0.0907804633464521,0.06248926802799585,0.09175578496218911,0.06526069247834718,0.1003447967965493,0.11158503499481431,0.08494227057619529,0.08829408007253096,0.07500017171155207,0.07491431593551888,0.07586216370292527,4.466495734578477,0.22092379621247532,0.5466143179783265,0.08333333333333333,0.47590138319940006,0.24641615643607714,0.000661775290873409,405.87929240107826,35.0396663891549,0.03394112549695408,Kristian,REC_20260311_143603.csv
right,2,loose,2.976,1.12,0.014285714285714285,17410.0,1.122445815526594,30154.231096149673,1072.544642857143,0.25535942589309873,0.21883262151718527,0.5102704901362619,0.16142579923228373,0.4348963866343716,0.37118220383814127,4917.0,3977.4084507042253,-28.5,627.1056338028169,0.15766689329877193,1.0,-0.4057971014492754,0.5942028985507246,0.4602292798003466,-1.061685636038591,8986746.395808997,8078081.0,1782504.0,3511253.0,4007630.956554713,1220902.060302142,1306577.164500014,0.08078372214903895,0.09334763948497854,0.06608096431960792,0.08928596722333178,0.06527004631793651,0.09957648125327555,0.10725010269267271,0.08451961075935921,0.08741625235484922,0.07569512316038471,0.07690618847292455,0.0738679018116404,4.072818458973107,0.1652177555337109,0.5039410171777864,0.05714285714285714,0.4686402727424342,0.21459122240007011,0.0006243710430207875,794.3962067717422,217.4073148629316,0.024440403706431014,Kristian,REC_20260311_143603.csv
right,3,loose,4.112,1.12,1.0,18970.0,1.274751402696221,29725.554813998006,1537.5,0.36605946421470636,0.21989949748743717,0.5218090452261307,0.16585685487480442,0.43335254920636057,0.3827296162869157,4975.0,3933.56338028169,-18.69999999999999,637.1971830985915,0.1619898096196331,0.4,0.0,0.4,0.415478669937636,-0.9835586716030322,9106571.1244128,8307767.0,1320690.0,3488040.0,4108064.010586976,1147464.7288684263,1275261.6521427135,0.07960384269719245,0.09309911451824851,0.06825334875377305,0.08838346766541465,0.06493771550720953,0.0984700107059864,0.10972740911548501,0.08681516597859518,0.08846224080950148,0.07424726889928854,0.07904168889620923,0.06895872645309596,4.104372345417707,0.14869559495334386,0.4938660301484706,0.05714285714285714,0.5081447107283191,0.19917043959860728,0.00041492332434154113,903.5670054474837,251.54764501709798,0.018475208614067786,Kristian,REC_20260311_143603.csv
right,4,loose,5.248,1.12,0.0,19880.0,1.36359632854517,31005.25600603872,1364.5833333333333,0.32489017487890604,0.22621520565018696,0.5097631906938097,0.16831010471750002,0.4309162871121624,0.39058654720468067,4814.0,3917.9859154929577,8.600000000000023,644.3521126760563,0.16446003803333847,0.0,-0.5142857142857142,-0.5142857142857142,0.2385635069808162,-1.205061589211428,9371573.701622317,8361523.0,1951103.0,3755599.0,4174813.6078633894,1247024.951766891,1375026.1717562086,0.07860462942658812,0.0899139756342185,0.06428640757503316,0.09073359767342375,0.06358900987500764,0.09964159509952297,0.11365785093663387,0.08827832638931328,0.08703810882998954,0.07537287410533582,0.08003177832818673,0.06885184612674664,3.7861735239297447,0.14281908621533662,0.4842349578340966,0.05714285714285714,0.4612515608960889,0.19187559707027618,0.00043579365986801924,1249.1730598012964,235.0071823306687,0.0,Kristian,REC_20260311_143603.csv
right,5,loose,6.384,1.104,1.0,20636.0,1.437405959250451,30886.83203243738,1136.71875,0.2706384758294704,0.22327692942633098,0.5229054890631448,0.16335268056711505,0.43625407509440406,0.37444390755930645,4846.0,3930.6714285714284,3.0,626.7785714285715,0.15945839860147487,0.30434782608695654,0.0,0.30434782608695654,0.2686200728585687,-1.1885686240987303,9240737.731545355,8153829.0,2258979.0,3715282.0,4246982.4290201925,1303404.0237666254,1365785.4511134685,0.08066233685993307,0.09101680192769684,0.06125089497614003,0.09263411921627349,0.06262834048708509,0.10020098347428828,0.11182022700592774,0.08665549687984968,0.0897738299890604,0.07399317455760013,0.07669718368726536,0.07266661093887995,3.9966911851397153,0.1419278363810067,0.49259652181828767,0.057971014492753624,0.46181975698558664,0.20396895311647026,0.0005843010937123863,834.185431024382,201.01743386264917,0.009237604307033735,Kristian,REC_20260311_143603.csv
right,6,loose,7.504,1.136000000000001,1.0,19487.0,1.3252270363928218,31537.27334440947,1194.1964285714284,0.2843231901203076,0.2263340830096095,0.5238192598650583,0.1607543717673551,0.43983322191337393,0.36548938042457246,4891.0,3947.3611111111113,-22.600000000000023,619.375,0.15690862390485907,0.39436619718309857,0.0,0.39436619718309857,0.39920665175474285,-0.9909947835783446,9299036.155510474,8404283.0,2152689.0,3347541.0,4156658.5614493913,1439726.2615885914,1235526.5033539233,0.07826607086309419,0.0892227578199219,0.0600541852855283,0.09250202315189472,0.06429752647690087,0.10236093029801906,0.1115231694873509,0.08494774990324055,0.09144998416663734,0.07342809894092396,0.07580662186411455,0.07614088174237359,3.948879648095531,0.14657500821572914,0.4943411160163557,0.08450704225352113,0.5095630752169048,0.2160564260553685,0.0006448352630494242,583.9785954981569,118.50291781638144,0.016000000000000313,Kristian,REC_20260311_143603.csv
right,7,loose,8.656,1.0879999999999992,0.0,17645.0,1.1453892853886851,31201.30575793263,1539.0625,0.36643147586533104,0.2225986448784376,0.4992028696691909,0.1647347269844781,0.43440622350035024,0.37921815589331404,5018.0,3930.8695652173915,-28.0,631.7391304347826,0.16071231058511226,0.0,-0.7647058823529411,-0.7647058823529411,0.39224122932125227,-1.0820483753193384,9202660.939714883,8367632.0,1671327.0,3446501.0,4176988.0110889785,1378651.1310965465,1312481.7769920472,0.08040039818604136,0.09227592817903624,0.06289495999705047,0.09043984809939903,0.06522877262839656,0.09865059174870036,0.1114404748737234,0.08596762894959997,0.08781108284481805,0.07419533237473731,0.07876709803487815,0.07192788408361907,4.038225651380989,0.15284350894235346,0.4976878488331836,0.058823529411764705,0.45742498958571554,0.2319433798882,0.0008581867780418642,1508.8210629494804,217.60697902434086,0.024440403706431968,Kristian,REC_20260311_143603.csv
right,8,loose,9.76,1.136000000000001,0.0,19794.0,1.3551999948935112,29750.56507026379,1442.7083333333333,0.3434907574101411,0.2180818570555895,0.505396049684382,0.16366688394064918,0.4357429718875502,0.3756041852644981,4911.0,3963.25,-17.899999999999977,633.8611111111111,0.1599346776284895,0.0,-0.16901408450704225,-0.16901408450704225,0.2727494774428127,-1.1293395437391542,9046657.235006144,8255232.0,1160643.0,3513696.0,4066614.39475986,1181057.18795214,1288360.449212314,0.07848496954659825,0.09124105497031756,0.06343348963042396,0.09102378098782565,0.06498244286044703,0.10096231347729487,0.10980746721615958,0.08607554125752574,0.0875333795916651,0.07521534655200207,0.07759134268312343,0.07364887122661677,4.220695307175735,0.17187688523760106,0.5094717460029438,0.08450704225352113,0.47488605922659066,0.22704122788298958,0.00047625676879786233,1162.2832414404563,177.9395494098087,0.027712812921103034,Kristian,REC_20260311_143603.csv
right,9,loose,10.912,1.1359999999999992,0.9859154929577465,17621.0,1.1430461225091524,28753.212968292777,2070.3125,0.4929154370777296,0.22438524590163936,0.5102459016393442,0.16130465287644863,0.4359960653102094,0.3699681389592062,4880.0,3939.3194444444443,15.899999999999977,620.4236111111111,0.15749512570910795,0.32857142857142857,-6.0,-5.671428571428572,0.49331049874180105,-0.9259093728476757,8924513.686427848,8194146.0,1822821.0,3029891.0,3987174.5212221597,1412568.5446280413,1229591.472372775,0.07926143475149049,0.09264149546417705,0.06435121689801185,0.09237001597145587,0.06609996791605996,0.0995624596747182,0.1095966237823087,0.08434197954384394,0.08532212628379832,0.0751504595759984,0.07696267333260469,0.07433954680553255,4.577156408204224,0.17515811910966378,0.5302244998616986,0.056338028169014086,0.5254722150177596,0.2339511648018498,0.0005981850865801672,1247.7116386943471,337.9836480145624,0.02771281292110249,Kristian,REC_20260311_143603.csv
right,10,loose,12.064,1.1039999999999992,0.014492753623188406,16396.0,1.0234471838663364,31146.20312333431,1276.9097222222222,0.30401618781607553,0.21985383678440926,0.5296386520503451,0.15791721548880763,0.43887706503676965,0.3598210707945897,4926.0,3980.385714285714,-13.800000000000011,613.4142857142857,0.15410925717895252,8.0,-0.5294117647058824,7.470588235294118,0.5666748763745622,-0.8466283711096501,9111701.763277208,8196589.0,1764178.0,3567452.0,4102825.782866046,1441974.8044204572,1299759.4815841957,0.08004967214232649,0.09269381646430533,0.06945486259407739,0.09062653655245186,0.0673552814336012,0.09963140686293863,0.10770312999099155,0.0833623446399667,0.0885700237234726,0.07333819048405216,0.07455487084884092,0.07265986426297524,3.99289805287591,0.1473172491067806,0.49724594206588746,0.08695652173913043,0.49673537527325445,0.2285544066165641,0.0008724659335436729,1720.8988930207377,418.5021181247133,0.018475208614068345,Kristian,REC_20260311_143603.csv
right,11,loose,13.184,1.072000000000001,1.0,19492.0,1.3257151953260577,32884.892184709985,1699.6527777777778,0.40466600662398095,0.21512225190055476,0.5161290322580645,0.16051729139856133,0.4379607382225826,0.36651068780711055,4867.0,3953.8529411764707,-0.39999999999997726,619.2941176470588,0.15663053908696653,0.05970149253731343,0.0,0.05970149253731343,0.2924881366444326,-0.8605065972208772,9052083.831943063,8174598.0,1595580.0,3545461.0,4145535.407473192,1422895.2898466287,1366897.782017077,0.079799302244274,0.09153394678310807,0.06268643393264946,0.09216624141753019,0.06600784045346683,0.1001071181498315,0.11149586032983462,0.08644955404631371,0.08814559141864599,0.07489715913740135,0.07406773735224763,0.07264321473469662,4.72181613272339,0.2092854020328105,0.561083498131611,0.08955223880597014,0.5030410330945757,0.31978864962828146,0.00047927134206715626,1559.1922053849985,396.986206411045,0.031999999999999036,Kristian,REC_20260311_143603.csv
right,12,loose,14.272,1.1359999999999992,1.0,16870.0,1.0697246507371077,32001.136011085608,1113.28125,0.26505830107009987,0.20751376868607396,0.5043273013375295,0.15134565919174134,0.44570580213026734,0.3395640318530626,5084.0,4022.7083333333335,15.699999999999989,594.25,0.14772385934020404,0.16901408450704225,0.0,0.16901408450704225,0.6210120729152274,-0.674962963406974,9137190.308737254,8344419.0,1593136.0,3364645.0,4064644.34599669,1353313.353286045,1369417.820038976,0.07869559963402213,0.09273395825780724,0.06504048198594783,0.09274086350061284,0.06556528043917344,0.10377198888255908,0.10686899028087074,0.08016986897301775,0.0908937110501148,0.07219431353254958,0.07117579021872357,0.08014915324460097,4.20557124641684,0.1722434196892152,0.5082717123024129,0.08450704225352113,0.484620083189739,0.22281314173785774,0.0007035502185493368,1667.5718875059038,302.5771352153232,0.031999999999999036,Kristian,REC_20260311_143603.csv
right,13,loose,15.424,1.1359999999999992,0.0,16989.0,1.081342833348124,29314.52251018256,906.25,0.21576675736232692,0.21669736034376919,0.5121751585839983,0.16305860441756564,0.43546468842315994,0.3744473633623778,4887.0,3982.2083333333335,-2.5,634.6666666666666,0.15937555585782595,0.0,-0.08450704225352113,-0.08450704225352113,0.22573041688871828,-1.2829017635608948,8732754.944055226,7874052.0,1977981.0,3216816.0,3976942.3292144896,1272088.5241483287,1244983.7885463536,0.07877050352435659,0.0901126189753731,0.06328495844363297,0.09112057449977154,0.06396506684244853,0.10028983080995678,0.10945908712014202,0.08648886191706863,0.08997659729560999,0.07670576418026011,0.076569742500497,0.0732563938908827,4.290678714071187,0.18997063100775147,0.5275514967838506,0.056338028169014086,0.4622633327735054,0.230282692710444,0.0004802455905354174,1480.6560482885066,411.5380652403255,0.03695041722813497,Kristian,REC_20260311_143603.csv
right,14,loose,16.576,1.120000000000001,0.014285714285714285,16266.0,1.0107550516022008,30604.510925678915,1188.1944444444443,0.2828941929861619,0.2170004086636698,0.5042909685328975,0.15868323551121907,0.4395473666860161,0.3610150976617729,4894.0,3930.676056338028,39.30000000000001,608.830985915493,0.15489218068066993,4.0,-0.057971014492753624,3.9420289855072466,0.4744253498086926,-1.108774778710875,9023702.997071214,8076860.0,2184454.0,3379306.0,4054305.370658001,1387195.7038610722,1348234.6292113082,0.0801245529923534,0.09257985222769263,0.06396061316191172,0.09188112284020955,0.0641720235919707,0.10104343588530806,0.10959660023362645,0.08403743756225858,0.08987093214083518,0.07592142698457062,0.07464579794896051,0.07216620443030264,4.168435916627046,0.1566711115403806,0.5143338596817215,0.08571428571428572,0.5091245809745276,0.2009670581929917,0.0005877054523020385,387.66523358864356,146.04028835194813,0.009237604307032642,Kristian,REC_20260311_143603.csv
right,15,loose,17.712,1.1039999999999992,1.0,18042.0,1.1841491046876222,33263.174983756435,947.4826388888889,0.22558373147603433,0.22536665978103698,0.5129105556703161,0.16277645950694658,0.434158711757567,0.3749238587149333,4841.0,3943.3571428571427,13.800000000000011,626.4142857142857,0.15885304399804373,0.2318840579710145,0.0,0.2318840579710145,0.43808138825127346,-0.9868626147367423,9294252.457491888,8367632.0,2386039.0,3266907.0,4082146.8579214457,1589514.817184383,1350510.6326916353,0.07781621895774087,0.09040882496784829,0.06287970728349666,0.09122393899324362,0.06447370804426975,0.09984965674642708,0.11184451247124459,0.08598185012770121,0.08820258300577825,0.07625482275798359,0.07679460937924538,0.07426956726502074,4.384527277026712,0.17952927516242656,0.5440476845228028,0.057971014492753624,0.5272559110256076,0.2936548099522864,0.0004826486436069302,893.0951796981126,152.27988135701779,0.015999999999999837,Kristian,REC_20260311_143603.csv
right,16,loose,18.832,1.1039999999999992,0.014492753623188406,19444.0,1.3210288695669923,31081.333015171662,1737.5,0.41367695549466815,0.22138013562026326,0.5129637016354208,0.1540696618603131,0.4471506918969963,0.3445587016909197,5014.0,3933.285714285714,-12.800000000000011,590.6928571428572,0.1501779682562743,12.0,-0.9558823529411765,11.044117647058824,0.660476261511391,-0.5902650781190921,8976809.110520843,8168489.0,1364672.0,3463605.0,4101920.471628301,1245509.0265197586,1347499.1747398658,0.07865833726800567,0.09252170123124977,0.06156975266044384,0.09374931899901935,0.06885918715722951,0.10199760287654815,0.1099335343042894,0.0819126139541641,0.09002288163294955,0.07214251988522864,0.07215704790614898,0.07647550212472307,4.124003152207035,0.165382147756952,0.5218800194412075,0.043478260869565216,0.4802213952956713,0.22117683750529624,0.0008811205457264072,1592.6635970390416,404.92925257691144,0.009237604307034774,Kristian,REC_20260311_143603.csv
right,17,loose,19.952,1.1359999999999992,1.0,17128.0,1.0949136516920843,32880.693256073544,1139.8809523809523,0.27139135655097274,0.21789176090468498,0.5113085621970921,0.15598627727565612,0.44140501192901793,0.3533858317418732,4952.0,3987.7083333333335,-10.199999999999989,607.1736111111111,0.15226128903052782,0.2676056338028169,0.0,0.2676056338028169,0.5646408601276808,-0.8011997189090292,9180424.0819198,8283332.0,2182010.0,3302337.0,4175565.9997617938,1296614.1900712189,1256779.0707803753,0.07870365532974592,0.0924507601483726,0.06480330181286244,0.09311948174076588,0.06603974017379795,0.10119638472389113,0.11135259390836424,0.08256970203576965,0.0885986451421904,0.0735976873378263,0.07341657523988646,0.074151472406527,4.341746417729795,0.184667864758504,0.5306780751893739,0.08450704225352113,0.5241772737274747,0.25028164581682394,0.000676934066896819,1166.5373261637799,411.96542491829166,0.01847520861406792,Kristian,REC_20260311_143603.csv
right,18,loose,21.104,1.120000000000001,0.0,18875.0,1.2654763829647373,32555.209245219114,1014.8809523809523,0.24163042450099662,0.21957618567103934,0.5087790110998991,0.1544880212954747,0.4420124223602484,0.34951058721484524,4955.0,3968.3098591549297,-17.5,597.8098591549295,0.15064596273291925,0.0,-0.15714285714285714,-0.15714285714285714,0.5786985024159282,-0.9610661249554,9131365.186119817,8418944.0,1672549.0,3115412.0,4185055.648144845,1146090.1511941834,1276120.2972661273,0.0782715173025732,0.08943034605146406,0.0628039041703638,0.09304347826086956,0.06568944099378882,0.10305590062111801,0.11325998225377107,0.08272582076308783,0.09079325643300798,0.07344099378881988,0.07176220053238687,0.07572315882874889,4.208632784412916,0.18269941332524064,0.5192332715820959,0.08571428571428572,0.47356322430101583,0.24299100304942053,0.0006994928972143649,1206.898642526928,386.21061051774956,0.015999999999999896,Kristian,REC_20260311_143603.csv
right,19,loose,22.24,1.1360000000000028,0.0,17200.0,1.1019431403306825,28542.752179844185,1317.7083333333335,0.313729825360165,0.2219730941704036,0.5006114961271912,0.16015496381608907,0.44019671717702447,0.3638258932121732,4906.0,3965.0833333333335,-19.100000000000023,620.2430555555555,0.15642623456141455,0.0,-0.6901408450704225,-0.6901408450704225,0.4202879659733043,-1.0197496352522961,8653404.999053609,7771427.0,1299921.0,3577226.0,3835875.190670619,1242232.8792841323,1311917.6957132805,0.07798280826380277,0.09293275326986261,0.06545329718445037,0.08953854129449429,0.06621690730893984,0.1017492976888534,0.10919975060072998,0.08496738894376607,0.08975921761487428,0.07183189368305276,0.07518757487232298,0.0751805692748506,4.497059286568479,0.19699330082969996,0.5626829396295038,0.08450704225352113,0.5222685191543491,0.2332061626897814,0.0005881580352458931,988.5020654168304,152.17971835457283,0.009237604307033786,Kristian,REC_20260311_143603.csv
left,0,loose,1.296,1.0879999999999999,0.058823529411764705,20033.0,1.3785339919021913,30497.96365333266,1312.5,0.31248978652474935,0.16881443298969073,0.501840942562592,0.1321068127262841,0.49171120512446453,0.268667484794826,5432.0,4371.188405797101,6.600000000000023,564.268115942029,0.1290880336326141,0.25,-0.1875,0.0625,0.537962791974021,-1.215773451881495,9718268.790091628,8899084.0,2367713.0,3105638.0,4407624.725163112,1294877.4619630119,1168779.620059126,0.08785459464477541,0.11505841942628278,0.06293516173096561,0.09618980677161386,0.098885322865138,0.10537379149370717,0.10347068419028421,0.08922390355821387,0.07620386456772278,0.04624815988753763,0.04288290916807024,0.0756733816956885,4.264778632183803,0.14138985270681423,0.49576429691363993,0.08823529411764706,0.5152426060569054,0.19079473434885671,0.0008296874854322552,0.0,0.0,0.0,Kristian,REC_20260311_143603.csv
left,1,loose,2.4,1.12,1.0,19238.0,1.3009167215176698,33398.646394726835,489.5833333333333,0.11656365052907315,0.17117952522255192,0.5135385756676558,0.1347171657485593,0.49199118108635287,0.2738202856625033,5392.0,4433.492957746479,9.5,584.3661971830986,0.13180717839239084,0.2,0.0,0.2,0.48362050821402525,-1.1617119565368559,9633356.319353707,8765916.0,2045176.0,3431840.0,4282406.6364044,1154507.6033471315,1125430.1486360843,0.08473908595899331,0.11302886478724689,0.06266321026247068,0.09634409012065645,0.0991873637928953,0.10615100165831157,0.10310123325010007,0.08868154699502506,0.07727986072724269,0.04649308401476596,0.046035618753534235,0.07629503967875773,4.000753775330244,0.14301852012492058,0.48945876260468657,0.08571428571428572,0.5223023587807019,0.20062635151740874,0.0004411203133141996,562.1498910433053,581.8899553514298,0.022627416997969618,Kristian,REC_20260311_143603.csv
left,2,loose,3.536,1.1199999999999997,0.0,20282.0,1.4028443067773433,33324.26851410245,1202.34375,0.28626296515570787,0.17275437942601565,0.5085724934774506,0.1293119926598958,0.4940043072139462,0.2617628850022018,5366.0,4421.014084507042,-4.600000000000023,558.7887323943662,0.12639379149516394,0.0,-0.3142857142857143,-0.3142857142857143,0.6221507971770834,-1.086331089816092,10198349.3493284,9202073.0,2706133.0,3464827.0,4412830.170998323,1396700.474605842,1136412.6682083625,0.08621436672486078,0.11355179488486486,0.06344538885986263,0.09703337453646478,0.09936220101181299,0.10650478508531598,0.10417914441909958,0.08668586647636768,0.07755215169548763,0.046213347265938606,0.0426261261835281,0.07663145285639647,3.746382019653655,0.12923674575079552,0.4746766677400248,0.05714285714285714,0.5173917209331748,0.16683957615637296,0.0007156551447386608,545.2769938297415,446.7202053595144,0.01847520861406796,Kristian,REC_20260311_143603.csv
left,3,loose,4.672,1.1360000000000001,0.0,19272.0,1.3042362022636744,31998.383662303946,1286.830357142857,0.30637816655020067,0.16463081130355514,0.4986326344576117,0.13196930785503902,0.4911057533626507,0.26871871679647613,5485.0,4418.430555555556,-2.1999999999999886,570.6041666666666,0.12914182071939823,0.0,-0.09859154929577464,-0.09859154929577464,0.47450901501303916,-1.3563862893825034,9689493.111308713,8895419.0,2151467.0,3182607.0,4267906.498606882,1355595.6443205208,1211071.0480071718,0.08598452819157129,0.1135804254275808,0.06450254143785343,0.09706500862862945,0.0986398513801092,0.1059451099718037,0.10435140682809067,0.09008980690101752,0.07587535795452759,0.04581503613336812,0.0418795009540215,0.0762714261914267,3.6272776003540956,0.12585591489196826,0.4659920930798685,0.08450704225352113,0.5024132840097857,0.17152405676145643,0.00046946010082926003,593.1823778007342,437.9437207614876,0.009237604307033636,Kristian,REC_20260311_143603.csv
left,4,loose,5.824,1.104,0.014492753623188406,18597.0,1.2383347462768166,32203.474051723053,1106.25,0.2633842486422887,0.16716196136701336,0.5113298662704309,0.13259419768801478,0.493105827252145,0.2688960266943936,5384.0,4410.557142857143,-7.800000000000011,571.9857142857143,0.12968559203728716,3.0,-0.014705882352941176,2.985294117647059,0.46450713234235247,-1.347057100616168,9748160.447033789,8795237.0,2590068.0,3310889.0,4224947.77453195,1238529.7610525114,1209873.5154047643,0.0853957549904612,0.11366882706752306,0.06186131327755807,0.09728605715507273,0.0997217714639226,0.10591794363523882,0.10360207165275523,0.08969712281247266,0.0765112279303878,0.04582511441703187,0.04289707487554212,0.07761572072203382,3.7912242502502878,0.1323179932696446,0.4751085856878423,0.057971014492753624,0.5133171160432739,0.17147247993468603,0.0006378327573775006,848.0320355584063,90.35232976281908,0.015999999999999782,Kristian,REC_20260311_143603.csv
left,5,loose,6.944,1.12,0.014285714285714285,17090.0,1.091203643799491,31501.675939543282,673.6111111111112,0.16037835604709358,0.17601760176017603,0.49284928492849284,0.13388174643584524,0.49076502036659875,0.2728021372341791,5454.0,4425.915492957746,-15.600000000000023,579.5915492957746,0.13095404786150713,48.0,-0.463768115942029,47.53623188405797,0.509488206788694,-1.2471999186775584,9866309.94031117,9042027.0,2466673.0,3082425.0,4201939.977681484,1361358.5296455699,1086507.207430476,0.08408859470468433,0.11368062627291244,0.064667133401222,0.09622899694501019,0.09945901221995927,0.10533350305498983,0.10374872708757639,0.08939345723014258,0.07606288187372709,0.04692273421588595,0.04448828920570265,0.07592604378818738,3.7785105050118055,0.1241476120747049,0.47177265794942,0.05714285714285714,0.5442557594555063,0.21348038663054683,0.0005895236814698237,1117.1241351494184,315.1252442200818,0.015999999999999782,Kristian,REC_20260311_143603.csv
left,6,loose,8.08,1.0559999999999992,1.0,18626.0,1.2411660680895853,34209.47319091599,1228.125,0.29240115739101546,0.17750826901874311,0.5067989709665565,0.12662897483409608,0.49710874963160695,0.25473093146696646,5442.0,4405.985074626866,-5.600000000000023,543.9104477611941,0.12344809130050373,0.8181818181818182,0.0,0.8181818181818182,0.7341768263408529,-0.8379722659604174,10101241.55540585,9160535.0,2278527.0,3595552.0,4491980.427103662,1397253.2158885668,1286499.946827299,0.08609726931819336,0.11315002320452844,0.06376672165744696,0.09838042554056388,0.10009451187495977,0.10760803655814173,0.1030823066317526,0.08618534490059315,0.07787575245341309,0.04494225968069214,0.04044362993350293,0.07837371824621191,3.9931640381407663,0.13703759569702792,0.4869525649949909,0.09090909090909091,0.49118387857838286,0.1986416186799465,0.0005393000465914158,878.5580990084476,291.40909868393254,0.03330665599145891,Kristian,REC_20260311_143603.csv
left,7,loose,9.152,1.184000000000001,0.04054054054054054,17961.0,1.1762409299691994,32208.940823938934,1102.6785714285713,0.26253393629800365,0.17139198829339675,0.5006402048655569,0.1309405985136132,0.49217217613503444,0.2660463245643288,5467.0,4445.68,4.600000000000023,569.8933333333333,0.128190363079064,1.3333333333333333,-0.5070422535211268,0.8262910798122065,0.5377133593094208,-1.2183337145624462,9509223.00348609,8753698.0,2240653.0,2962696.0,4152112.0910441456,1116167.9284639936,1009261.3166483209,0.08516432431783964,0.11332649523432485,0.06446107981981009,0.09757187501874477,0.09922441561245973,0.10599653296383606,0.10563063468355798,0.08869134380642181,0.07605285730566902,0.045464360907667666,0.042249254707191396,0.07616682562247695,3.675278921052741,0.1422798854266217,0.47211788076905714,0.08108108108108109,0.4884685152704454,0.19208379939641912,0.00035750237804101255,770.2988597507702,290.78094415879485,0.06400000000000093,Kristian,REC_20260311_143603.csv
left,8,loose,10.352,1.1199999999999992,1.0,17492.0,1.130451622031664,30718.81356758428,848.9583333333334,0.20212633017275453,0.18007380073800738,0.5033210332103321,0.13044486886553514,0.4939382287234212,0.26409146180608273,5420.0,4432.070422535211,-10.5,564.887323943662,0.12745450096448105,1.0,0.0,1.0,0.6528851646296085,-1.0671541313663344,9908097.145728588,8787907.0,2750115.0,3657861.0,4191306.1121170605,1183843.0635947178,1104294.7305653335,0.08622492269851308,0.11478436619136448,0.06349367764406041,0.09766204711497822,0.10029649450071026,0.106064313565974,0.1015517498895693,0.08690816297346168,0.07513100735039423,0.045913746476545794,0.043536705892073466,0.07843280570235511,3.7717177726732873,0.1296568770812071,0.47586101187170143,0.08571428571428572,0.5339455935844323,0.2037883486095139,0.0005790624706772943,569.8160521899476,193.16578664088098,0.06400000000000093,Kristian,REC_20260311_143603.csv
left,9,loose,11.488,1.120000000000001,0.02857142857142857,20382.0,1.412607485442063,32686.12419666792,1063.8020833333335,0.253277932133651,0.18020164986251147,0.5066911090742439,0.13474829418608308,0.4901141401754551,0.2749324762141802,5455.0,4479.295774647887,3.1999999999999886,590.2957746478874,0.13178316511020974,3.0,-1.088235294117647,1.911764705882353,0.5785295569959343,-0.9262601615487385,9912616.998339742,8912523.0,2681698.0,3411071.0,4392093.122039648,1193442.5836575353,1141721.4641828737,0.08545734679118323,0.1126843379555388,0.06133069207307488,0.09674873439612615,0.09961324403358175,0.10532654152124014,0.10265383768826841,0.08743200327013176,0.07574128226896834,0.0463195296041254,0.047316290915951326,0.0793761594818099,4.196945980804053,0.14424036654244504,0.4924306316788131,0.05714285714285714,0.5234810230446446,0.1875453418674028,0.000383261708189275,1550.983666365747,136.65234322895606,0.036950417228136294,Kristian,REC_20260311_143603.csv
left,10,loose,12.624,1.0399999999999991,1.0,18473.0,1.2262284047325642,32989.71744347017,984.375,0.23436733989356198,0.17407476287892876,0.5114376046122373,0.12646355583264252,0.49586881606982597,0.25503429885935164,5377.0,4423.121212121212,-10.5,545.4015151515151,0.12330693394901447,0.4461538461538462,0.0,0.4461538461538462,0.6944026209203666,-0.8890652264437806,9717804.974565296,8883202.0,2124589.0,3318219.0,4415627.963254804,1311107.4204320344,1145754.4432182515,0.0868884580338853,0.11375143015695759,0.0621047799784877,0.09836054342538862,0.10008015730013771,0.10700314463254387,0.10309804539506587,0.08628899104567597,0.07667354055479814,0.045316278782979245,0.04017456478696656,0.08026006590711345,4.035782552006879,0.19047229052493939,0.5515286605129407,0.046153846153846156,0.4702210751105495,0.23392325977985667,0.0007961764520505808,1469.6225138903303,108.63100546652922,0.04618802153517084,Kristian,REC_20260311_143603.csv
left,11,loose,13.68,1.168000000000001,1.0,17252.0,1.1070199932363367,33744.18041677705,2406.25,0.5728979419620405,0.17405122452794916,0.5083193120209385,0.13005075432900104,0.49319782646332533,0.2636888229243088,5349.0,4449.094594594595,-5.0,566.3581081081081,0.12729738513453998,0.6712328767123288,0.0,0.6712328767123288,0.5968191359005479,-1.3048238906991392,10243808.79146785,9263160.0,2149023.0,3809355.0,4212322.861047169,1157117.0139137942,1238456.6622301387,0.0867683373173406,0.11473029738817189,0.06283392005054171,0.09826475474815706,0.10043039428003875,0.10532662278690168,0.10373504478591149,0.08833865378014961,0.07444575726005594,0.04542679500536094,0.04171210054885142,0.07798732204851883,3.82938460846824,0.1530327474047042,0.482535374603931,0.0821917808219178,0.5076544881017485,0.22118585207818053,0.0006203821541623447,1577.5520065384005,798.978888556566,0.06466323014923919,Kristian,REC_20260311_143603.csv
left,12,loose,14.864,1.1679999999999993,0.0,20612.0,1.4350627963709182,33778.628465347734,984.375,0.23436733989356198,0.1742677048572488,0.5120504263997033,0.1316642727707981,0.4925061968570268,0.26733526118242923,5394.0,4459.540540540541,2.0,574.5,0.1288249304558099,0.0,-0.0821917808219178,-0.0821917808219178,0.4812467240298271,-1.2509749417303417,10117910.783607058,8956506.0,3152064.0,3495370.0,4262462.810380299,1395997.8972340575,1248492.0799207434,0.08482573044126471,0.11258583177275565,0.06219280861560093,0.0984073016854239,0.09955273540481081,0.10624958334090895,0.10431628515845166,0.08960140118664509,0.07571074465312752,0.0456022011720999,0.04206287158415301,0.07889250498475785,3.335083611940624,0.11805193029520476,0.4520048166060769,0.0821917808219178,0.5037326397331291,0.11821814943678419,0.00040649910520314936,1700.7724715552044,820.919914003999,0.07390083445627264,Kristian,REC_20260311_143603.csv
left,13,loose,16.048,1.1360000000000028,1.0,16817.0,1.0645501660448062,33017.9152279486,1005.2083333333334,0.2393274952352247,0.20029080334423846,0.5043620501635769,0.13453937414405728,0.49489164038396144,0.2718562270310606,5502.0,4452.125,-12.300000000000011,584.8611111111111,0.1313667318664932,2.3943661971830985,0.0,2.3943661971830985,0.5295186337341438,-1.1920077500695436,9685424.093264787,9023701.0,2434908.0,2539977.0,4249516.293876959,1126389.7095562376,996211.494930772,0.08296911899124326,0.11282377641138906,0.06139702326916298,0.09898207160750327,0.0990725402663522,0.1068653233630632,0.10417310086007618,0.09053417063636902,0.0771479287356537,0.046248202325356494,0.04400520350768827,0.07578154002614233,3.2704608861420454,0.11064779764596164,0.4447058156888314,0.08450704225352113,0.5212401090210831,0.14433873758697072,0.0004689650393377654,2076.8907048759206,814.9724223492564,0.01847520861406547,Kristian,REC_20260311_143603.csv
left,14,loose,17.2,0.9920000000000009,0.0,17956.0,1.1757527710359634,32542.67859288783,1041.6666666666665,0.24800776708313435,0.19822912902059991,0.49602457535236716,0.12634912171995905,0.4970027522803579,0.25422217712112016,5534.0,4406.158730158731,13.0,539.563492063492,0.12245666239174603,0.0,-0.532258064516129,-0.532258064516129,1.0813266198415608,0.14850682171510643,9879414.111126935,9042027.0,2362826.0,3203377.0,4462565.771720845,1479975.359127711,1326734.5194126004,0.08668602389152268,0.1142700693113535,0.06281251350922949,0.09775638716371024,0.1003537616899866,0.10726328227444988,0.10072481519374035,0.08487758836837327,0.07735925184085767,0.04668069224894447,0.0414715333515858,0.07974408115624593,3.940381162830772,0.1686248211968694,0.5286318477462526,0.04838709677419355,0.48673428522021,0.14113994435815036,0.0010568038225051391,1947.377809602783,28.99877272307564,0.09375144443331693,Kristian,REC_20260311_143603.csv
left,15,loose,18.208,1.2000000000000028,0.0,20775.0,1.4509767775944113,34383.47009828996,1212.5,0.2886810408847684,0.2018881626724764,0.5034495279593318,0.13179481634525747,0.4915617301448606,0.2681144773136808,5508.0,4502.513157894737,7.600000000000023,579.75,0.12876142271421517,0.0,-1.9733333333333334,-1.9733333333333334,0.5541422474883266,-1.1172556033504581,10485738.473393517,9375559.0,3241250.0,3397632.0,4303330.225117584,1229096.3057142003,1123261.9533475693,0.08462233080355708,0.11255994459234754,0.062283929150679006,0.09790438673138686,0.09860574942064519,0.10644055512856855,0.10496769348112604,0.08852366076255659,0.07605109427191248,0.046304549213743204,0.043271155582700886,0.07846495086077658,4.437177486177795,0.16245833097820367,0.5534028723740768,0.06666666666666667,0.4904204975248954,0.19867257756813397,0.0011165210314344272,2037.5576065476043,110.66697257738896,0.10653324989567146,Kristian,REC_20260311_143603.csv
left,16,loose,19.424,1.1039999999999992,1.0,19813.0,1.357054998839808,31559.39780794304,2468.75,0.5877784079870285,0.19719608928242022,0.5058107360265633,0.13253437975041538,0.4913950192346629,0.2697104662492797,5421.0,4445.1,16.100000000000023,574.0785714285714,0.12914862914862912,0.4492753623188406,0.0,0.4492753623188406,0.6520836229124453,-1.0063280429670176,9756876.087102214,9078679.0,2204001.0,2813645.0,4260252.632998687,1373616.6083012468,1172640.0925605157,0.08606587671175643,0.11443740619687168,0.06354027066721943,0.09673251766792969,0.09889862673827038,0.10607185440147578,0.10239846765459237,0.08929575744720511,0.07525461423011534,0.04654242070723139,0.043238622303210274,0.07752356527412206,4.162169751024061,0.13962733306789432,0.5016801094276921,0.07246376811594203,0.5620874849242586,0.1936575064539607,0.0011625362702155117,1432.983717051012,779.3068427086936,0.10410251357836443,Kristian,REC_20260311_143603.csv
left,17,loose,20.544,1.1359999999999992,1.0,20406.0,1.4149506483215957,33570.136267224174,1309.0277777777778,0.31166309396780556,0.2083938953488372,0.5067223837209303,0.13162908566249237,0.49067719798005954,0.26826004184482616,5504.0,4505.083333333333,-10.0,577.6875,0.12823014742605576,1.2535211267605635,0.0,1.2535211267605635,0.8624084920718371,-0.4155021602080451,9790712.127887225,8786685.0,2586403.0,3458718.0,4233585.682215548,1250204.4975640306,1199396.6456544634,0.08617734287810683,0.1123453136271989,0.06263295166571096,0.0972389214652584,0.09945247035755907,0.10633358613418177,0.10229493843374461,0.08829223778077852,0.07530690639586148,0.04689764031988556,0.04333684788171387,0.07969084306000014,3.4794514758038133,0.10637396461138109,0.4464035191832114,0.08450704225352113,0.5118675174956699,0.15684672858102766,0.0013322185769539027,485.32703750495256,699.0990996869666,0.04888080741286407,Kristian,REC_20260311_143603.csv
left,18,loose,21.696,1.1199999999999974,0.0,18621.0,1.2406779091563493,30759.284403249694,1564.2361111111113,0.37242499690317354,0.20373391335870944,0.4897589269530542,0.13772623807669537,0.48792710994608596,0.28226805862836796,5517.0,4448.915492957746,0.5,598.6619718309859,0.13456357460118465,0.0,-3.5714285714285716,-3.5714285714285716,0.5752295916771698,-0.8958433704463067,9395268.751381038,8570439.0,1628566.0,3488040.0,4083974.9126593405,1261447.3021634936,1158082.9180865788,0.08374884842959038,0.11359628711539133,0.06441512886508186,0.09667492948115224,0.09869789440692937,0.10464965349998259,0.10437739217976845,0.09276196446040022,0.07430834544263043,0.04746844459640425,0.04496427361629516,0.07433683790637377,3.760819835479147,0.1284234975189261,0.47150158368801404,0.08571428571428572,0.4777689713336235,0.17219283718925193,0.0005331271327009417,909.0964378619753,609.4030277399522,0.016000000000000125,Kristian,REC_20260311_143603.csv
left,19,loose,22.832,1.1359999999999992,1.0,19171.0,1.2943753918123075,29659.819891563737,911.4583333333334,0.2170067961977426,0.16974100987516302,0.5112725917644867,0.12822520285230224,0.4954011793774917,0.25883104076047686,5367.0,4435.013888888889,2.0,556.2361111111111,0.1254192489689059,0.4225352112676056,0.0,0.4225352112676056,0.5511673155498252,-1.2386668925603983,9483070.376902515,8715825.0,2552194.0,2729345.0,4103647.7907631285,1119199.9818670016,1029209.7974766673,0.08495839609671774,0.11467457511407017,0.06437096213528079,0.09833678336219666,0.1006635955668434,0.10585586290911027,0.10397061264370336,0.08763282089182986,0.07587036242527112,0.045283586109275624,0.04059238196047238,0.07779006078522865,4.338933376674395,0.16743630959144107,0.5103210277346193,0.056338028169014086,0.5101598307676192,0.16111288334321455,0.0009335895667291274,914.1434971235818,328.9659515611343,0.00923760430703468,Kristian,REC_20260311_143603.csv
right,0,loose,0.688,1.1360000000000001,0.014084507042253521,17812.0,1.3593567031075235,30573.283320572555,1468.75,0.3513447969836531,0.21175298804780876,0.49701195219123506,0.1510930506226958,0.44388627580641143,0.3403868487443474,5020.0,3906.625,-36.30000000000001,575.5972222222222,0.1473387443694294,12.0,-0.02857142857142857,11.971428571428572,0.7310073425849121,-0.52247485710526,8989896.707866559,8104959.0,2017077.0,3325550.0,4043809.2004031152,925022.6377141315,1243669.5867032562,0.08023052009229335,0.09148632842358244,0.06682736235099208,0.092158263917775,0.0654479392200571,0.10400423781539195,0.11017608976204951,0.08061803844608696,0.09078950642960498,0.0703434692491743,0.07047501217660883,0.0774432321163835,4.328211092905512,0.15598525036395808,0.4952625539106786,0.056338028169014086,0.48482503194208837,0.2053101972318395,0.0006995831439568978,0.0,0.0,0.0,Kristian,REC_20260311_143916.csv
right,1,loose,1.84,1.152,0.013888888888888888,17228.0,1.2966949118984532,28983.92399244795,1437.5,0.343869375771235,0.22341968911917098,0.5015544041450777,0.15712205352601397,0.4374055003170312,0.3592137122465096,4825.0,3932.027397260274,-0.5,603.1095890410959,0.15338387251862123,6.0,-0.056338028169014086,5.943661971830986,0.4809382094496084,-0.9138314819458735,8633676.314736903,7799527.0,2081828.0,3061656.0,3992610.222387449,1099637.8910175525,1206672.8901242018,0.07953999122067462,0.08851441272584118,0.06479281488862101,0.09456936015440463,0.06520739414293578,0.10133153101679916,0.11306865293097082,0.08348023606630481,0.08778280227705042,0.07410168688466336,0.07364181745970917,0.07396930023202503,3.8770283365600173,0.1690286730419951,0.496826898255333,0.05555555555555555,0.4362340166290019,0.23190867185639463,0.0007735776068409876,412.95036021294374,22.09708691207961,0.011313708498984535,Kristian,REC_20260311_143916.csv
right,2,loose,3.008,1.1520000000000001,0.0,17568.0,1.333176091711953,28473.076423175633,1421.875,0.3401316651650259,0.2217175887696119,0.5066061106523534,0.1602604443163161,0.43624071411243964,0.3673670043436505,4844.0,3896.3972602739727,12.399999999999977,609.7671232876712,0.15649511139549355,0.0,-0.08333333333333333,-0.08333333333333333,0.4237447116760852,-1.034867141911151,8679513.636110436,7881383.0,1463633.0,3327993.0,3989789.2254290683,1136265.814652059,1245414.024056206,0.08020756793244198,0.0908777690666123,0.06539585215706817,0.0920836600020391,0.06602516550237839,0.09965651444783906,0.11240802005364983,0.0856112249812788,0.08759760509357081,0.07451562208854685,0.07464921933503728,0.0709717793395374,3.9881154239732943,0.15234470058859462,0.4953124578627485,0.05555555555555555,0.4950986580732946,0.19347352948530888,0.0008739068273835426,293.31212044509857,23.86758174456164,0.009237604307033893,Kristian,REC_20260311_143916.csv
right,3,loose,4.176,1.1520000000000001,0.0,17152.0,1.2885402952342593,29175.16760877305,1378.125,0.3296660754676405,0.21980725856059052,0.4853393479598114,0.15654456002348524,0.44174498021087183,0.35437767724868197,4877.0,3873.027397260274,0.0,591.7328767123288,0.15278303405003343,0.0,-0.2361111111111111,-0.2361111111111111,0.4970133782325197,-0.822561293306407,8565998.575255428,7694458.0,1740965.0,3337767.0,3917762.16582028,1310425.3372279701,1329255.5726669354,0.07925554679182685,0.08949849857284839,0.06313775284634511,0.09449264495226911,0.06589302198909917,0.1017009100523112,0.1139846709416371,0.08429921020333815,0.09015990464434391,0.07107816263515497,0.07224534982014706,0.07425432655067891,4.138995856210096,0.1895221099957346,0.5137985495129828,0.05555555555555555,0.4401243095733502,0.2287333231864629,0.0009481681139714177,221.52200793600622,30.77768063061278,0.0,Kristian,REC_20260311_143916.csv
right,4,loose,5.344,1.2159999999999993,0.013157894736842105,15257.0,1.0852113665678413,27495.514215958938,1257.638888888889,0.30084417368198385,0.22491058278981696,0.508100147275405,0.16796405185086197,0.43303821996525454,0.3878735042468977,4753.0,3887.2727272727275,-4.300000000000011,639.0649350649351,0.16439930509154083,2.0,-0.02666666666666667,1.9733333333333334,0.22245481799322514,-1.2862302410153197,8354005.839420332,7475768.0,1549154.0,3391523.0,3671896.1428087065,810647.4495821428,1039140.6887172705,0.07738206601630361,0.08920219163437124,0.06577575838567419,0.09127355338767873,0.06391821461980489,0.10102231725243886,0.11393491915007349,0.0902545770412936,0.08762194307096084,0.07354670586663103,0.07770947480956836,0.06835827876520112,3.5582998232768217,0.12718009132280314,0.49107504560681375,0.05263157894736842,0.4545609224613321,0.17031897626042586,0.00033349540555061127,1231.8551051158574,85.05338094747735,0.03695041722813558,Kristian,REC_20260311_143916.csv
right,5,loose,6.576,1.1520000000000001,0.0,15649.0,1.127272020941053,29118.295983796856,1107.6388888888891,0.26496215186237676,0.22467694872863694,0.5025010421008753,0.1631931424326001,0.4346782361248857,0.37543435320653523,4798.0,3908.890410958904,3.6999999999999886,623.3356164383562,0.1594661274439371,0.0,-0.4027777777777778,-0.4027777777777778,0.3901513509545898,-1.046377870617732,8799587.468435893,7976678.0,2013411.0,3122743.0,3848000.645274114,1308261.925073576,1254403.9910934072,0.08103410209953427,0.09210125144997881,0.06517632793526525,0.09050671283235617,0.06655008428275551,0.09911021240656179,0.11138290304153861,0.08788536143459413,0.08640997515323341,0.07239205324006744,0.07530778099800596,0.07214323512610873,4.078378589318478,0.15946614070800433,0.4990533113262859,0.05555555555555555,0.4860853413086421,0.23409647304213232,0.0006085352217350292,1000.3081191979467,135.51115530630125,0.03695041722813558,Kristian,REC_20260311_143916.csv
right,6,loose,7.744,1.120000000000001,0.0,17042.0,1.2767375605887152,28729.887260481897,1625.0,0.3887219030457439,0.22145545796737767,0.5010455876202425,0.15939660003736222,0.43762663639368293,0.3642296578444058,4782.0,3920.507042253521,18.19999999999999,610.1549295774648,0.15563163718403772,0.0,-0.3142857142857143,-0.3142857142857143,0.3817121259161211,-1.1294370218010779,8813895.999457335,7962017.0,1415985.0,3505144.0,3966989.85525932,1340149.8378951994,1281057.1657010778,0.0810041816953829,0.09233858799522913,0.06483783356564975,0.09114946327724209,0.06745318944085991,0.09990803144175085,0.11184238888330053,0.0858864188305623,0.08677736423860093,0.07171751282530286,0.07351018120679993,0.07357484659931887,4.297058991996949,0.19936469049922384,0.5371063958812118,0.05714285714285714,0.45475497103191753,0.2594233371999223,0.0007789216059008378,938.1131772517293,266.1818630331881,0.04888080741286146,Kristian,REC_20260311_143916.csv
right,7,loose,8.88,1.1199999999999992,1.0,17965.0,1.3757732340235984,28694.015630441132,878.4722222222223,0.2101423963046436,0.21904761904761905,0.5008281573498965,0.15965095734323728,0.4385533479969711,0.3640399921066085,4830.0,3906.056338028169,-21.899999999999977,608.8450704225352,0.15587206577002125,0.2857142857142857,0.0,0.2857142857142857,0.4548400265417622,-0.9193091985909381,8882587.458027588,7931474.0,2067167.0,3423288.0,3916143.104252241,1457667.1888115425,1401068.3512357743,0.08110914794648974,0.0930732340532939,0.06511736919914902,0.09067176288176541,0.06793350881621173,0.0999026430606137,0.11094364114953303,0.08454188151299895,0.08697219918508636,0.07153571557350448,0.07510907583023835,0.07308982079111527,4.2023801527018465,0.17776267739168772,0.5157008973250183,0.05714285714285714,0.45332533942046943,0.25274630343352916,0.0007822484290519111,1165.9212380488382,382.4228905707792,0.018475208614067942,Kristian,REC_20260311_143916.csv
right,8,loose,10.016,1.1039999999999992,0.0,18927.0,1.4789935133782655,30818.893977558637,1010.4166666666666,0.2417052858681869,0.21616656460502143,0.5019391712594407,0.15280680314414016,0.44502816565308884,0.3433643417148797,4899.0,3951.114285714286,-7.899999999999977,588.6857142857143,0.14899232766163614,0.0,-0.11594202898550725,-0.11594202898550725,0.5474457997727971,-0.8171836121859868,9038355.091990743,8223467.0,1543045.0,3418401.0,4178995.7581784246,1090575.0035585281,1217556.275003045,0.08162254409244409,0.09111353759156549,0.061863199531416085,0.09637064408593596,0.06854124333822646,0.10117579850891972,0.1116213147828099,0.08186479040270737,0.08782694212844117,0.07200138839676329,0.0709420127414328,0.07505658439933763,4.338532348493499,0.20190591777017627,0.5267297972606038,0.057971014492753624,0.42387627734419,0.2610375425444189,0.0005571094524522337,942.567238980861,398.41890287834207,0.009237604307034273,Kristian,REC_20260311_143916.csv
right,9,loose,11.136,1.136000000000001,0.0,16793.0,1.250020461254711,29761.834234468817,1336.8055555555557,0.31978190742010987,0.21741815935762818,0.49413218035824585,0.15604104342388564,0.43853079322669813,0.3558268788279351,4857.0,3909.1388888888887,15.199999999999989,595.3958333333334,0.15230869259356639,0.0,-0.15492957746478872,-0.15492957746478872,0.45174883101588503,-0.8691597869316765,8886077.76991407,8059755.0,1546710.0,3407406.0,4000848.097941919,1114054.8949913557,1329329.6461380937,0.08084332298246985,0.09165132986093841,0.06445366626637013,0.09280247852255044,0.06609511898755766,0.10098842456068045,0.1132495789780358,0.08292533877168175,0.08699344129497119,0.0730695165886207,0.07311570465220389,0.07381207853391981,4.081202222054769,0.16140004933061833,0.4970233006721308,0.056338028169014086,0.4755341525557826,0.2189836963109564,0.0007456682360341694,1068.7207305933591,235.94084274605785,0.016000000000000722,Kristian,REC_20260311_143916.csv
right,10,loose,12.288,1.1519999999999992,0.0,16668.0,1.2366082627938655,28043.511299407568,1322.9166666666665,0.3164594979923684,0.2164271047227926,0.497741273100616,0.15722027280900921,0.4424487739687449,0.35534118763322575,4870.0,3915.6301369863013,-35.60000000000002,601.4931506849315,0.15361337246930987,0.0,-0.6388888888888888,-0.6388888888888888,0.4023162545207744,-1.1067854975812725,8651691.387194876,7858170.0,1328021.0,3367089.0,3971270.867303075,1209557.577212314,1225744.4563276942,0.08165728499410511,0.09341557019461869,0.06413005831913546,0.0925479549819655,0.06948268442945554,0.10023054775207195,0.11071889616954882,0.08312663333811454,0.08677201661063318,0.07130187761727674,0.07409363947089466,0.07252283612217982,4.148474950588191,0.19616839399778777,0.5284806665570323,0.05555555555555555,0.45963077767718274,0.24348977675525485,0.0007738620769508564,1269.689069549446,184.56203023405206,0.024440403706431246,Kristian,REC_20260311_143916.csv
right,11,loose,13.456,1.152000000000001,1.0,16908.0,1.2623596838386888,28473.32739600344,965.2777777777778,0.23090745522802736,0.21873684210526315,0.5031578947368421,0.15928609158932774,0.44029132836358675,0.3617743101624273,4750.0,3915.931506849315,-29.899999999999977,609.7123287671233,0.155700457911657,0.3888888888888889,0.0,0.3888888888888889,0.2977025522269838,-1.2051835161914348,8765850.17580417,8005999.0,2006081.0,2952922.0,3886187.7436308376,1062088.3097802538,1168360.9576278334,0.07993339466807527,0.09283118137009685,0.06422657007027842,0.09230995266963546,0.06706009522043775,0.1011918296526658,0.11214113054155311,0.08528910701979618,0.08689826945075088,0.07161472453587907,0.07399698456953155,0.0725067602312996,4.100456225567791,0.18919772391169742,0.5136695449869576,0.05555555555555555,0.438404824046004,0.22562293475922524,0.0004764207204405557,120.03471720022843,210.60680811278792,0.009237604307033184,Kristian,REC_20260311_143916.csv
right,12,loose,14.624,1.1359999999999992,1.0,16735.0,1.2437972011688787,27232.24166314628,1309.8214285714284,0.3133269405319265,0.22266030296742062,0.502386387217265,0.15899750438060853,0.43697410573638473,0.36386024318895205,4819.0,3923.5416666666665,-32.30000000000001,609.2152777777778,0.1552717747216765,0.5774647887323944,0.0,0.5774647887323944,0.4510726640438135,-1.0479882391184412,8668231.820809882,7938804.0,1653001.0,3062878.0,3893674.5182973756,1126941.3706199483,1197366.4379112683,0.08236251969061399,0.09298571656135507,0.06648613249792032,0.09296447724738491,0.0667020655232836,0.10018938388290059,0.11119134851944283,0.08500681427989876,0.08413246252146056,0.07197295527354468,0.07399069010070974,0.07201543390148499,4.0151122664564465,0.1726062715343325,0.5114255585975513,0.056338028169014086,0.4830198593444241,0.2297898468319926,0.0010837587210120489,123.83995047374165,202.8083608601423,0.009237604307034178,Kristian,REC_20260311_143916.csv
right,13,loose,15.776,1.1679999999999993,1.0,15927.0,1.1571007503179733,29124.87158769975,1548.9583333333335,0.37053171142885977,0.21938361719383617,0.4959448499594485,0.157946827753319,0.439933790655609,0.359024087506097,4932.0,3959.5945945945946,-21.5,610.8108108108108,0.15426094672536775,0.0547945205479452,0.0,0.0547945205479452,0.4713634813579075,-0.8757498843543998,8678626.688455898,7806857.0,1815491.0,3327993.0,3965652.2095070076,904920.9821372231,1147553.9111604276,0.08175488891164123,0.09300365175249992,0.06404218286065322,0.09182963038804137,0.06738336575543498,0.10019453260980854,0.10830347087130131,0.08282993754479369,0.08752261014982424,0.07270400327633869,0.07511689020852531,0.0753148356711375,3.594666201633036,0.14046795024580128,0.4605587232432023,0.0547945205479452,0.42244774150962766,0.19986178046157876,0.0005653875208953129,523.633777876617,293.42227177879187,0.015999999999999782,Kristian,REC_20260311_143916.csv
right,14,loose,16.96,1.1359999999999992,0.0,16487.0,1.217187399422561,29333.80945257537,1255.2083333333335,0.3002627520321291,0.22065727699530516,0.5068381302306593,0.1569652861848588,0.4427524705087418,0.35452153661482466,4899.0,3946.5555555555557,-33.0,604.6319444444445,0.15320497480221854,0.0,-0.352112676056338,-0.352112676056338,0.5327646870899767,-0.8609975124148614,8884946.57468946,8126951.0,1690874.0,3167947.0,4042346.8302561883,1087152.6197847063,1216200.7001044562,0.08110447929277287,0.09458318083279371,0.06422266955713843,0.09286930938371013,0.06879768574565726,0.09999577690813367,0.1091915594470565,0.08392339311354485,0.08650651763844702,0.07118021340690898,0.07304189307131395,0.0745833216025226,4.099490369277075,0.1817619491958364,0.5090776988653952,0.056338028169014086,0.4730227849113014,0.22296396538600075,0.0007264117683419199,413.9178662488544,156.2359923804316,0.018475208614067824,Kristian,REC_20260311_143916.csv
right,15,loose,18.112,1.152000000000001,0.0,19200.0,1.5082857548167519,27816.19535450526,1437.5,0.343869375771235,0.22000411607326611,0.49907388351512655,0.15942688433483848,0.43835359499826326,0.36369471165253675,4859.0,3943.8356164383563,-17.899999999999977,614.3767123287671,0.15578152136158388,0.0,-0.5416666666666666,-0.5416666666666666,0.39890632088642897,-0.9516535643788475,8695257.765634209,7932695.0,1393994.0,3276681.0,3886178.1200652807,1322412.361243302,1240304.1611276546,0.08184439041333796,0.09319555401180965,0.06373393539423411,0.09213268496005557,0.0674609239319208,0.09919763806877388,0.11086141021187912,0.08361236540465439,0.08636679402570337,0.07192427926363319,0.0758145189301841,0.07385550538381382,4.100864628738765,0.18499325634409172,0.5083355520290285,0.05555555555555555,0.45580595163140647,0.24331457965696418,0.0007294280187409426,1750.5474381842223,148.29153398264492,0.015999999999999782,Kristian,REC_20260311_143916.csv
right,16,loose,19.28,1.1519999999999975,1.0,17817.0,1.3598931910459573,27368.490641611934,1384.8214285714284,0.33126795144173005,0.2171310629514964,0.49287925696594426,0.16477387529872428,0.4339044221644708,0.37974693707124846,4845.0,3932.246575342466,2.5,633.5958904109589,0.16112821977746347,0.1527777777777778,0.0,0.1527777777777778,0.30682344856358923,-1.2287068653742168,8701648.65531136,7888713.0,1731192.0,3238807.0,3857447.938543472,1177551.0364716274,1285937.968429362,0.08062942860925122,0.09342144683578699,0.06463243849589276,0.09009454667066126,0.06719989967044528,0.09830554529809722,0.11160617862841138,0.0878998376612066,0.08488298368948002,0.07364119642994,0.07687403763751768,0.07081246037330956,4.197456955572254,0.18313787548313767,0.5205247862939543,0.05555555555555555,0.47404124511821144,0.20991836017701063,0.000628012294134172,1356.5862793546705,93.81261294114064,0.009237604307033681,Kristian,REC_20260311_143916.csv
right,17,loose,20.448,1.184000000000001,0.0,16549.0,1.2238398498591405,26789.59919446351,1244.7916666666667,0.29777094496132306,0.2148810733889002,0.4885139255946331,0.1683055810497793,0.4281012462473063,0.3931443379925437,4919.0,3966.04,-0.30000000000001137,653.5266666666666,0.16478065442271553,0.0,-0.22972972972972974,-0.22972972972972974,0.2682734802834963,-1.3005219308628304,8548806.355033081,7806857.0,1374446.0,3200933.0,3714416.6269897954,1351566.4447674768,1197721.6309528246,0.08046649386625786,0.09196747049113642,0.06482032455547598,0.08987638383206759,0.06542882404951371,0.09723889152235815,0.11232698947396731,0.08953011063932789,0.08358967635223043,0.07513455907319812,0.07877547041045141,0.07084480573401512,3.9057427528469644,0.16982295630404487,0.48952018819522836,0.05405405405405406,0.4708304961304537,0.2033457055396754,0.0003491587121263636,1325.9156584539417,99.5990862098062,0.018475208614068914,Kristian,REC_20260311_143916.csv
right,18,loose,21.648,1.152000000000001,0.0,17544.0,1.3306009496074707,26785.678430833144,1679.1666666666665,0.4016792998139353,0.21312143439282805,0.48940505297473513,0.1626951088971756,0.4384816662352291,0.37104198744264255,4908.0,3915.972602739726,-19.19999999999999,622.9794520547945,0.15908677492251613,0.0,-0.4027777777777778,-0.4027777777777778,0.3216676060998845,-1.111416383122397,8473754.566397708,7794640.0,1171639.0,3110525.0,3833871.308340775,1193728.266410635,1162169.4410084593,0.08003750008745357,0.09097619164223798,0.06264823378785865,0.0920081436757082,0.06742319828171241,0.100613574192104,0.11288505803418385,0.08865692317379473,0.08746055844346652,0.0699908348666858,0.07403818572338088,0.07326159809141346,4.345357887038003,0.21101841658258563,0.5570922604234692,0.05555555555555555,0.48626446611713653,0.2515265700829248,0.000638394635736391,667.3802014843927,221.70892856530241,0.018475208614068914,Kristian,REC_20260311_143916.csv
left,0,loose,1.216,1.136,0.0,18080.0,1.3881124566075762,29481.327802526128,1036.4583333333335,0.24793480354520206,0.1926282644934247,0.5006482681978144,0.13354879685627663,0.4927711258021219,0.2710158730157491,5399.0,4439.180555555556,14.600000000000023,578.9722222222222,0.1304232200011889,0.0,-1.1549295774647887,-1.1549295774647887,0.6466063786207382,-0.9912828612837901,9450652.561924282,8456818.0,2103819.0,3656639.0,4124653.7662308654,1342637.9626730124,1173327.2757940572,0.08570150271728078,0.11334674505116998,0.060759461987791794,0.0983164435378151,0.10061917083045233,0.1057127034831879,0.10279362119510295,0.08922755388413152,0.07477606289949659,0.04708076127663702,0.04432124297214513,0.07734473016478892,3.9821309018673494,0.21816842335305964,0.5355873976579767,0.08450704225352113,0.4662901497457004,0.2048305662117739,0.0009038484058346588,0.0,0.0,0.0,Kristian,REC_20260311_143916.csv
left,1,loose,2.368,1.2160000000000002,1.0,20435.0,1.6407982756099055,31501.729746158384,1182.2916666666665,0.2828201025364867,0.17711627906976743,0.5043720930232558,0.13546685556719923,0.48862498755949496,0.2772409496365396,5375.0,4436.701298701299,32.39999999999998,589.0714285714286,0.13277238851843828,0.8289473684210527,0.0,0.8289473684210527,0.38905365222685845,-1.4829888151017965,9916078.382796044,8896641.0,1987755.0,3902207.0,4110236.562434004,1261055.283205779,1251226.0771664637,0.0847300849466961,0.11295393207776927,0.06326216388682361,0.09770333639711264,0.0989210423094261,0.10488663040869255,0.10510616873422983,0.09069567304596254,0.07416004636649436,0.048447717679567716,0.04477118252123667,0.07436202162598865,3.5241230972210653,0.13430575085344307,0.46963580549487893,0.07894736842105263,0.45326434124548265,0.17353938395923468,0.001086819532049527,1665.2364696943193,103.11973892303797,0.05656854249492393,Kristian,REC_20260311_143916.csv
left,2,loose,3.6,1.1359999999999997,0.014084507042253521,18578.0,1.4415466552755847,29469.064796833984,937.5,0.22426263637254454,0.17797552836484984,0.5027808676307007,0.13187250744212212,0.4928422902143205,0.2675754700042367,5394.0,4395.027777777777,15.199999999999989,566.2847222222222,0.12884667648415823,1.0,-0.05714285714285714,0.9428571428571428,0.6064047923972156,-1.1149216278465113,9409270.419008585,8443379.0,1705535.0,3786142.0,4072350.470370315,1314966.7964308811,1330352.8133048012,0.08529525157848833,0.1134331093849742,0.06250434518805974,0.0990955688562201,0.09978447867223694,0.10616163467554876,0.10581401963076963,0.08931178541407273,0.07436749862534052,0.046615177504882414,0.04256072202804938,0.07505640844135734,3.8754691212211028,0.16157998088869577,0.4859587964327027,0.056338028169014086,0.4935172077844905,0.16863100412974855,0.000603065043190562,1241.1337558861253,123.14156684934248,0.04618802153517029,Kristian,REC_20260311_143916.csv
left,3,loose,4.752,1.1680000000000001,0.0,18870.0,1.4728775508801197,30644.793244530138,837.0535714285714,0.2002344967612005,0.18442239281033515,0.5118891593334581,0.12973081877735923,0.4935284169653161,0.2628639290418347,5341.0,4426.8378378378375,3.6000000000000227,561.5337837837837,0.12684760643006723,0.0,-1.1095890410958904,-1.1095890410958904,0.5999263141237833,-1.1319888921775987,9683281.014031814,8735372.0,2751337.0,3144734.0,4238960.963482189,1092948.0962688336,1071850.6282318742,0.08630405450782391,0.11349386115401758,0.06361077701733285,0.0992411153101781,0.09908237836781793,0.10628964607767122,0.1058714352872223,0.08793721343402955,0.0754214160556312,0.045441502384106776,0.041793605343329696,0.075512995060839,3.559081890120087,0.13314600370784366,0.4703728341523867,0.0547945205479452,0.43413986592515996,0.15853661286061116,0.0004423379691743143,998.5771544218969,177.57711352434433,0.040265783654777516,Kristian,REC_20260311_143916.csv
left,4,loose,5.936,1.2160000000000002,1.0,16956.0,1.2675099680476534,25589.973446645075,1369.7916666666665,0.3276726298109956,0.17988032909498877,0.512341062079282,0.1329465238297064,0.4944857723280184,0.2688581376239385,5348.0,4443.051948051948,-10.0,578.5519480519481,0.13021498618885463,0.7236842105263158,0.0,0.7236842105263158,0.5135938248134845,-1.3290971170870913,8557425.08730804,7876496.0,1986533.0,2691472.0,3891983.374241068,1005887.1316664369,963243.8759941596,0.08694737149788814,0.11476842582172661,0.06278590532423309,0.09943732370694065,0.0998377738479751,0.10624789909825644,0.10161787702965377,0.08791780541630738,0.07419434985311957,0.045701006971340045,0.045028718413399005,0.07551554301916022,3.427480214418895,0.12725690988235666,0.4661685490154903,0.07894736842105263,0.4332564607651008,0.17501817955927573,0.0006038940576371663,1031.1437015922334,283.0710888923231,0.040265783654777516,Kristian,REC_20260311_143916.csv
left,5,loose,7.168,1.1360000000000001,0.028169014084507043,19329.0,1.5221271436283446,30450.54185067977,1571.4285714285716,0.37590689525302706,0.18929431376180775,0.5049083163548805,0.1264076154806492,0.4960205992509363,0.2548434796286403,5399.0,4450.0,-5.0,549.6875,0.1235252808988764,38.5,-1.7391304347826086,36.76086956521739,0.7452133284779973,-0.8383790610515702,9510160.55946933,8587543.0,1981646.0,3573561.0,4248743.449739748,1070223.6623507196,1218614.8409918642,0.08825842696629213,0.11467852684144819,0.06260611735330837,0.09916354556803995,0.09980337078651685,0.10687578027465668,0.10225343320848938,0.08599875156054931,0.07549937578027466,0.04497815230961298,0.04040886392009988,0.07947565543071161,3.786329919121388,0.1471674517232318,0.48044035746276265,0.056338028169014086,0.46482003380384684,0.16557259628206372,0.0008819149048142447,1258.6504677629925,379.4236770210129,0.04026578365477734,Kristian,REC_20260311_143916.csv
left,6,loose,8.32,1.1039999999999992,0.014492753623188406,19296.0,1.5185863232346812,31298.026055967173,1266.6666666666667,0.30300373981001577,0.17075913776944704,0.5075913776944705,0.12564526053304834,0.49780757148871396,0.25239724690655835,5335.0,4411.285714285715,8.800000000000011,541.4142857142857,0.12273389682308364,4.0,-0.29411764705882354,3.7058823529411766,0.7011584645332062,-1.01915351568427,9633423.652698869,8767137.0,2249205.0,3298672.0,4251404.9044556655,1190300.0064623414,1283381.006975465,0.08716927361637357,0.11453738786877812,0.06192558049159623,0.09923896499238964,0.10051491304770231,0.10742252015933157,0.1031056705204184,0.0855079503869944,0.07609378542051232,0.04520871789889568,0.04013731014605395,0.07913792545095372,3.954688683966349,0.1377393708512842,0.47872462422281087,0.057971014492753624,0.482315256099389,0.19629344799551882,0.0007398264104525161,1360.6259588880407,155.0118412579428,0.057688820407424395,Kristian,REC_20260311_143916.csv
left,7,loose,9.44,1.104000000000001,0.9565217391304348,20100.0,1.6048535837348397,32370.87545927666,1265.625,0.30275455910293514,0.17105758374106134,0.5193827625141136,0.12420655399303315,0.498538898206683,0.2491411491455651,5314.0,4429.142857142857,15.699999999999989,537.2214285714285,0.12129241388207973,0.13636363636363635,-0.6666666666666666,-0.5303030303030303,0.7313917068262284,-0.900356921280868,9927616.323051874,9132435.0,2365270.0,3092199.0,4320240.877254125,1314372.9397789144,1094621.070161085,0.0865146432718359,0.1136788801444975,0.061746871371435946,0.09951619145916656,0.10024190427041672,0.10805057411946846,0.10458973035737325,0.08464714230421881,0.0770513482131338,0.044574893562121014,0.03955941168881435,0.07982840923751774,4.192646938934654,0.18122978370957957,0.5045470688217492,0.057971014492753624,0.456226390844489,0.20858651055338437,0.0007078789931029943,454.96263582848206,176.25584054720866,0.01847520861406941,Kristian,REC_20260311_143916.csv
left,8,loose,10.56,1.1039999999999992,0.028985507246376812,20397.0,1.6367209672778085,31553.753897119754,1532.986111111111,0.3667109405869571,0.17195419560728364,0.5160503097428196,0.12609584565317256,0.49806548870672424,0.25317121646098273,5327.0,4416.028571428571,8.300000000000011,543.8714285714286,0.12315849405736248,4.0,-0.11940298507462686,3.8805970149253732,0.7738664513665227,-0.8559142637229638,9727832.87656074,8809898.0,1565036.0,3816686.0,4194137.5362426266,1388464.8313848185,1391494.2850454764,0.08768059212867411,0.11549161819605205,0.06240578153609255,0.09928442491961104,0.10186592995645734,0.10637547634914371,0.10171065145800041,0.08543875880720235,0.07504803928546011,0.04486254617917845,0.040657086845970206,0.07917909433815776,4.0282237141254225,0.1471118807996186,0.48398951537267565,0.057971014492753624,0.4660705960164288,0.22192834420766588,0.0004858738943606469,569.6235599060137,154.0611865965434,7.83017450980857e-09,Kristian,REC_20260311_143916.csv
left,9,loose,11.68,1.168000000000001,0.0410958904109589,19444.0,1.5344663662123224,30380.32662760557,951.8229166666666,0.22768887109490285,0.16911627906976745,0.5077209302325582,0.13413504321431619,0.49198188533882714,0.272642239910675,5375.0,4434.216216216216,16.600000000000023,582.5675675675676,0.13138005436836397,0.3333333333333333,-0.12857142857142856,0.20476190476190476,0.40050352561656327,-1.440541832089241,9446579.74930022,8643743.0,1573588.0,3470936.0,4127977.8658406413,1196516.4603316074,1199780.3043829214,0.08502980507844404,0.11367986054392745,0.06356588202308827,0.0979697195031268,0.0995940658027867,0.10589640754330575,0.10418672973071814,0.09039045262272502,0.07484183194568039,0.045250082283958895,0.04374459059159119,0.07585057233064742,3.8254520213388847,0.17291391649037624,0.4900097675199289,0.0547945205479452,0.4639084112808314,0.18410412386000327,0.0007167742428851281,487.6395526752653,290.89069247622314,0.0369504172281372,Kristian,REC_20260311_143916.csv
left,10,loose,12.864,1.1679999999999993,0.0273972602739726,18755.0,1.460538328296142,30239.372645608903,947.9166666666666,0.22675444344335058,0.16976571216065453,0.5052063964298996,0.13331233910368906,0.4934785400245815,0.270148199548834,5378.0,4419.918918918919,15.399999999999977,577.0337837837837,0.1305530246977748,5.5,-0.14084507042253522,5.359154929577465,0.43645685855972843,-1.4346725948368508,9503619.375747168,8593652.0,2173458.0,3426953.0,4128034.170200184,1238377.8093328774,1162842.2674152912,0.08495325216923387,0.11447256584136922,0.06373481230547215,0.09818573166928585,0.10017610693604505,0.1056244152699389,0.10473165094137718,0.09043519203605299,0.07501972030794254,0.044647388664338955,0.04287714706763607,0.07514201679130716,3.8677656094859856,0.17709018623534953,0.49253390485401305,0.0547945205479452,0.44700827470418364,0.17810354927747585,0.000521007182000672,824.5295628417451,336.66802941682903,0.036950417228136974,Kristian,REC_20260311_143916.csv
left,11,loose,14.048,1.1199999999999992,0.014285714285714285,19784.0,1.5709475460258222,30266.992070570872,989.5833333333333,0.23672167172657477,0.1706401351605031,0.5104186221137601,0.12968682340355075,0.49372755291780224,0.26266879909187923,5327.0,4423.549295774648,1.6999999999999886,560.9929577464789,0.1268196464504954,7.0,-0.14492753623188406,6.855072463768116,0.5450367460908008,-1.2420757422092394,9840647.824981138,8897863.0,1720196.0,3835011.0,4259930.271218971,1340798.0841593551,1203510.3086492966,0.08615858783973102,0.11381466670062915,0.06343449909574873,0.09853473088973227,0.09984334802210958,0.10611261112101683,0.10440599607733259,0.08894457321887975,0.07542219618431442,0.04512341119233806,0.04074225018467103,0.07746312947349651,3.934262510105636,0.15843719539268186,0.4920469839181587,0.05714285714285714,0.4734213597623883,0.2087514728704688,0.0002613771107420273,524.2712402309822,23.011659968426795,0.02771281292110304,Kristian,REC_20260311_143916.csv
left,12,loose,15.184,1.0879999999999992,0.9852941176470589,19224.0,1.5108608969212343,30968.242636610816,1739.5833333333333,0.41613178082461044,0.17544186046511628,0.5105116279069768,0.12383932407744509,0.4997359677519868,0.24780950755749692,5375.0,4418.652173913043,14.100000000000023,534.3478260869565,0.12093004949374687,0.6716417910447762,-67.0,-66.32835820895522,0.8147332957383858,-0.5910505740325571,9643657.214735964,8720712.0,2720793.0,3089756.0,4215142.435748604,1260129.8343828742,1198198.0765824926,0.08737335471830548,0.1147343114006173,0.06189834266465938,0.09927940515666461,0.10216572041444863,0.10699373866383284,0.10251339020686354,0.08438864234946063,0.07656279211642346,0.04484612331781939,0.03945068172798447,0.07979349726292037,3.87923481584861,0.17204655858747878,0.5065028055502708,0.058823529411764705,0.48047262112005373,0.14685463170237362,0.0009159275447258503,515.1701984134296,445.52819256515113,0.04026578365477799,Kristian,REC_20260311_143916.csv
left,13,loose,16.288,1.1679999999999993,1.0,17597.0,1.3362877217548692,29343.54595136723,931.25,0.22276755213006091,0.19923371647509577,0.49680715197956576,0.13359242977242597,0.4912334992885467,0.2719530120927151,5481.0,4454.148648648648,14.300000000000011,581.6486486486486,0.13058581886913811,2.767123287671233,0.0,2.767123287671233,0.4711106379922775,-1.2690235896511786,9290653.677944573,8510574.0,1698205.0,3316998.0,4007571.2374460995,1295426.8488765112,1218213.1944632146,0.0850983140527962,0.11377185557345568,0.06389124017390409,0.09742814928081019,0.0995731279978884,0.10556814630757236,0.10440615642264879,0.09062914319174048,0.07489222012882009,0.04616406811748537,0.04296328658068549,0.07561429217219295,4.438279670839348,0.27576891823748967,0.609635792317147,0.0547945205479452,0.4393671914797749,0.25894040080398534,0.0008709301095550622,1136.0529623804216,450.79661998798593,0.04026578365477799,Kristian,REC_20260311_143916.csv
left,14,loose,17.472,1.1999999999999993,0.04,18683.0,1.452812901982695,30194.560851252663,1630.580357142857,0.3900567996908185,0.16736861380699505,0.5006409082585607,0.13009923147139363,0.4929095138541268,0.26394140874675137,5461.0,4468.5526315789475,10.300000000000011,569.4671052631579,0.12743882688966757,6.0,-0.041666666666666664,5.958333333333333,0.45027159092142055,-1.3855963461965866,9714643.624776052,8684060.0,1715309.0,4002389.0,4204333.180586533,1166548.9564303923,1297893.5995380348,0.08550984953328818,0.1139571861841524,0.06337563675981273,0.09842466358470009,0.09973793468979122,0.10560643090603927,0.10522363887989164,0.08907864903860309,0.07518329848944377,0.045575807543947466,0.04102058243279055,0.07730632195753953,3.731794836097093,0.14079722771181202,0.4730386331452132,0.05333333333333334,0.4387927754709543,0.19222507843013795,0.0003446131133634658,828.5736740527851,438.6242459892284,0.05768882040742413,Kristian,REC_20260311_143916.csv
left,15,loose,18.688,1.184000000000001,0.9864864864864865,19511.0,1.5416553045873356,29923.24150221697,973.9583333333334,0.23298396112036573,0.17970204841713222,0.5048417132216015,0.12917308985721174,0.49218503550362774,0.26244822686446967,5370.0,4480.293333333333,2.8999999999999773,566.1933333333334,0.1263741659772277,0.6438356164383562,-2.0,-1.356164383561644,0.5799135307748804,-1.1826177792109838,9416179.869592233,8560665.0,1799608.0,3484375.0,4088548.412700402,1193297.0109061296,1175931.8256058847,0.0866133765051098,0.11387349637821334,0.0629869472832136,0.09818702346870146,0.09912446208879182,0.10582342822791366,0.10420448661099571,0.08716988768592533,0.0751766253400075,0.046913594943188246,0.042003202171286405,0.0779234692966532,3.3778871053878885,0.14813107145593646,0.47480802042329184,0.05405405405405406,0.47825772466980737,0.1503330694469912,0.00048382036622132273,959.8937441196275,392.0117839022577,0.01600000000000014,Kristian,REC_20260311_143916.csv
left,16,loose,19.888,1.1519999999999975,0.0,20454.0,1.642836929775954,30152.30752363739,1537.6984126984128,0.36783818664279794,0.1768281451464358,0.501197273899429,0.1326523097317434,0.4911808568745742,0.27006815895831304,5429.0,4464.13698630137,-8.399999999999977,579.0479452054794,0.1297110610589109,0.0,-0.041666666666666664,-0.041666666666666664,0.4981260980207688,-1.3153243866231425,9556736.51619699,8714603.0,1631010.0,3567452.0,4220851.227585806,1072791.7306175125,1121264.8452180158,0.08664792777753912,0.11445247052614137,0.06328977973622354,0.09779920339263906,0.09934577546473877,0.10540318274712934,0.10387809084269767,0.08972266034945164,0.07418022474392573,0.04552568107474485,0.042929649382291754,0.07682535396247721,3.563723840112811,0.16370530613998047,0.4892383495225047,0.05555555555555555,0.4519863588744272,0.13901289962235294,0.0005274727725396161,886.1220758638908,355.3360885223176,0.02444040370643254,Kristian,REC_20260311_143916.csv
left,17,loose,21.056,1.1199999999999974,0.9857142857142858,18506.0,1.4338212289621377,28436.665539405283,572.9166666666667,0.1370493888943328,0.17883480825958703,0.49889380530973454,0.13212520069308664,0.4928386348101166,0.268090184820701,5424.0,4430.070422535211,6.100000000000023,572.3732394366198,0.12920183763333176,0.2028985507246377,-87.0,-86.79710144927536,0.5298062743648263,-1.3313316220869564,9076051.335653463,8123285.0,1584584.0,3725056.0,4108321.4588936013,1159347.1109624817,1297552.784853981,0.08718266647590889,0.11461681529877438,0.06280700081072059,0.09891744956841052,0.09948336433147345,0.10557171697903255,0.10350199500850463,0.08930961578202745,0.07424928863242565,0.04481218306388796,0.04281558491105918,0.07673231913777481,4.24122624916752,0.19359280440283372,0.5260732680585594,0.05714285714285714,0.44840887461671464,0.19423422824989525,0.0005710821690486214,974.1644282837118,484.671901558396,0.03200000000000238,Kristian,REC_20260311_143916.csv
right,55,loose,61.824,1.1360000000000028,1.0,19569.0,1.3612700187219118,30659.085977895687,1406.25,0.5876296180160585,0.3247907949790795,0.4932008368200837,0.232133111803728,0.36129133972858585,0.6425094827289071,3824.0,2290.472222222222,-5.099999999999994,514.6388888888889,0.22468680645669867,0.39436619718309857,0.0,0.39436619718309857,0.731166351649771,-1.024412256766814,9224413.104996003,8399397.0,1893682.0,3309667.0,4113679.923916413,1146845.8727699223,1326858.6148905116,0.05042628278981772,0.07684004996543653,0.041197230071431175,0.06371199534302727,0.04853438762021418,0.08201244284900008,0.14532422959845737,0.12007470560413307,0.09019246395090776,0.11612719356755641,0.11205840619959495,0.0535006124404235,3.9132245543622473,0.15354043436034728,0.4991596086337917,0.056338028169014086,0.4192675196773269,0.1932407286727299,0.0015926860669554775,860.4663464269295,504.55687163961005,0.03695041722813835,Kristian,REC_20260514_174713.csv
right,81,loose,91.712,1.1039999999999992,0.0,16238.0,1.0326509169707028,34557.38015243632,824.21875,0.3444162483371898,0.32710476590384213,0.4165441948351879,0.22651135156133956,0.35099576101735586,0.6453392796099354,4763.0,2500.6,15.299999999999997,545.8,0.21826761577221465,0.0,-3.3333333333333335,-3.3333333333333335,0.987597987505491,-0.47671681973063507,9836965.131118743,8317541.0,3260798.0,4117231.0,4120628.2146223346,1162075.3076737893,1533929.560475852,0.05279304395516504,0.07908387701237418,0.04905679779710013,0.0662012545560494,0.05494109985032163,0.07438214828441174,0.14148033043498132,0.11252727916728558,0.07638738131419888,0.12416448623758869,0.11398407239405399,0.054998228996469424,3.7696446717065037,0.1302632175677916,0.4742079872625231,0.057971014492753624,0.41210770267087526,0.16167258859601866,0.002032032406848765,1524.1204020680161,313.8286553375584,0.04233202097703102,Kristian,REC_20260514_174713.csv
right,82,loose,92.832,1.152000000000001,0.0,16300.0,1.0387675138811125,30114.87011428075,1218.75,0.509279002280584,0.3032155797101449,0.5210597826086957,0.2047739279659479,0.36899953857559836,0.5549435881578617,4416.0,2642.205479452055,4.900000000000006,523.7739726027397,0.1982336259144239,0.0,-2.1527777777777777,-2.1527777777777777,0.7809240146940115,-0.9499681749373869,9446189.17888849,8467813.0,2535090.0,3331659.0,4047429.243881179,1248332.507028463,1368412.6369811743,0.06242709235227938,0.09067767172505327,0.07282210274728977,0.06571409314551459,0.06076803832414805,0.07579803091025035,0.1277730828853023,0.10110378938309111,0.07604170447063215,0.11403922625867763,0.10367013858285679,0.049165029214904524,3.762452414803066,0.14666682432672012,0.4880587010127531,0.05555555555555555,0.41770368859658147,0.17828407717635053,0.0011458300246638365,577.0288843145586,287.81463998009707,0.03330665599145516,Kristian,REC_20260514_174713.csv
right,83,loose,94.0,1.1200000000000045,0.0,17463.0,1.1535030333457348,31148.51882513838,1016.6666666666666,0.42483444976568374,0.31524008350730687,0.5289665970772442,0.222720685072374,0.36115437581559817,0.6166910883168412,3832.0,2342.0985915492956,0.5999999999999943,504.66901408450707,0.2154772714972127,0.0,-0.1,-0.1,0.825598715024104,-0.869640596538888,9511896.01345121,8458040.0,2324953.0,3678630.0,4142890.2483044392,1275616.3396446134,1438324.9169684586,0.05149468696065284,0.07687820601482961,0.04353865860038848,0.06884400050514466,0.051645027632615505,0.07889878464600786,0.13817510478744835,0.1137838341682252,0.08488835701700054,0.11582846730691748,0.1089368509041488,0.06708802145662071,4.349330388249166,0.16212569880432956,0.5069904242016527,0.05714285714285714,0.4997697963090974,0.20687984837218434,0.0018417494630215772,690.0528965231366,197.28523405930733,0.02444040370643126,Kristian,REC_20260514_174713.csv
right,84,loose,95.136,1.13600000000001,1.0,16755.0,1.0836554428204102,31135.157651760815,937.5,0.3917530786773723,0.2961265184506074,0.48590419436167775,0.1994202768290491,0.3898188926838037,0.5115716056137875,4363.0,2472.4444444444443,20.400000000000006,475.6041666666667,0.1923619225238181,1.0,0.0,1.0,1.019749458134964,-0.5617397757347544,9017799.09885849,8191702.0,1629788.0,3400075.0,3966337.3473866237,1377528.594826412,1310337.1806763583,0.056770177961531554,0.08486315836778717,0.05177062735933849,0.0808747528312062,0.05746112708969981,0.07981305051231351,0.13898188926838037,0.10369854395110553,0.08680680388279706,0.11261347294625203,0.09572173287794356,0.0506246629516448,3.807253532197322,0.14563128454573543,0.48603339689101727,0.056338028169014086,0.4592710752421353,0.20925278474513545,0.0014639795481623064,586.0685397914683,145.03252349169964,0.01599999999999745,Kristian,REC_20260514_174713.csv
right,85,loose,96.288,1.13600000000001,0.0,16472.0,1.0557361375680558,30622.858700650402,746.5277777777778,0.3119515256134632,0.3392525841505433,0.5507553670818977,0.23121496990006227,0.3653450372171643,0.6328674166781025,3773.0,2341.7361111111113,14.599999999999994,524.2708333333334,0.2238812609353222,0.0,-1.2253521126760563,-1.2253521126760563,0.6292431955285165,-1.2274390518073441,9484941.021366078,8272337.0,2817310.0,3687182.0,3955143.974035455,1224316.080412788,1333611.762553943,0.051671065508140324,0.08058479879007147,0.03907357433053586,0.07395984697962693,0.051937961507665845,0.07526467186619613,0.15018534444411494,0.12324664155867261,0.08359775807360398,0.11691230983660032,0.10796832834138963,0.045597698763381864,3.8550882996807774,0.15198506430757178,0.4823974799230618,0.056338028169014086,0.4580173919509917,0.19192498470334704,0.0009908679544099427,510.4628618551057,138.872105467422,0.009237604307035973,Kristian,REC_20260514_174713.csv
right,86,loose,97.44,1.1039999999999992,1.0,17549.0,1.1619873451892062,32015.02028735887,854.1666666666667,0.3569305827949392,0.3374485596707819,0.5659807956104252,0.21803763686827096,0.37513648702229535,0.5812221535653082,3645.0,2341.9285714285716,0.5,493.25,0.21061701284045506,0.391304347826087,0.0,0.391304347826087,0.8377163313163254,-0.9041078915222576,9320521.858235676,8332201.0,2229658.0,3532022.0,4133822.386785829,1065102.3918245689,1298635.0466814656,0.056412602555891055,0.07709763015829443,0.04002195992314027,0.0764815323146369,0.05222801720193979,0.08330740842407051,0.1456491902278342,0.11708299020953425,0.08602189892335377,0.11175160886936895,0.10095464665873669,0.052990514533199126,4.0552183225875575,0.17351076626618495,0.5059593496668547,0.057971014492753624,0.440976451956903,0.18070684984720964,0.0015983013034377917,558.3389054448076,95.7435502668223,0.018475208614073747,Kristian,REC_20260514_174713.csv
