foot,step_id,surface,contact_time_sec,stance_duration,time_to_peak_frac,impact_mag,impact_mag_norm,accel_mag_strike,loading_rate,loading_rate_norm,heel_pmax_ratio,fore_pmax_ratio,heel_mean_ratio,fore_mean_ratio,heel_fore_ratio,total_pmax,total_p_mean,midstance_diff,heel_impulse,heel_impulse_norm,rise_slope,fall_slope,slope_asym,heel_skew,heel_kurt,gyro_mag_strike,gyro_x_strike,gyro_y_strike,gyro_z_strike,gyro_x_std,gyro_y_std,gyro_z_std,pressure_01_mean_ratio,pressure_02_mean_ratio,pressure_03_mean_ratio,pressure_04_mean_ratio,pressure_05_mean_ratio,pressure_06_mean_ratio,pressure_07_mean_ratio,pressure_08_mean_ratio,pressure_09_mean_ratio,pressure_10_mean_ratio,pressure_11_mean_ratio,pressure_12_mean_ratio,accel_spec_centroid,accel_hf_frac,accel_spec_entropy,accel_zcr,accel_jerk_ratio,gyro_hf_frac,heel_ripple_frac,impact_mag_roll3_std,loading_rate_roll3_std,stance_duration_roll3_std,source_user,source_recording
right,0,brick,0.656,1.088,0.0,19248.0,1.4251705335708549,33038.522818068,1484.375,0.35124410967289665,0.22064128256513027,0.5066132264529059,0.1597468047330753,0.440301717007973,0.3628121321409486,4990.0,3942.6521739130435,-7.699999999999989,613.8985507246376,0.1557070022018578,0.0,-0.058823529411764705,-0.058823529411764705,0.7225099301186351,-0.32332727371515446,9675889.429721177,8611978.0,2411695.0,3693291.0,4174479.2950850376,1229731.7107210876,1372787.083240803,0.07805751296670012,0.09828593273857442,0.06847814499913617,0.0899784225287914,0.06797454814128649,0.10014960870156556,0.10395783019596166,0.08097249331907087,0.08391320489775514,0.07640336270369022,0.07877431141400441,0.07305462739346354,3.8646970899805413,0.1307990720599432,0.4743765725996617,0.058823529411764705,0.43603133873930683,0.19783097673578454,0.0012531390197017783,0.0,0.0,0.0,Kristian,REC_20260311_135256.csv
right,1,brick,1.76,1.0879999999999999,1.0,17463.0,1.2440625465595618,31315.053329030114,1437.5,0.34015219042006833,0.22271805273833672,0.5172413793103449,0.1571937617546654,0.44410668281939975,0.35395495685098355,4930.0,3876.0434782608695,19.69999999999999,593.4057971014493,0.1530957535511709,0.058823529411764705,0.0,0.058823529411764705,0.59521235475203,-0.7949176172719024,9315071.935390623,8388401.0,1789835.0,3633426.0,4295413.107915106,1286928.302262732,1285207.7195198296,0.07639270584452247,0.09549181707029804,0.06769191652925625,0.08949436710824948,0.06665993636122297,0.10385983017195931,0.1060845700269586,0.08103287754209246,0.08860073210766993,0.0755588957812202,0.07616088421257296,0.07297146724397731,3.6567008423945913,0.13005193541661747,0.45791719763396704,0.058823529411764705,0.4102490242211753,0.20255785574799146,0.0008035372300322781,1262.1856044179874,33.14563036811941,2.220446049250313e-16,Kristian,REC_20260311_135256.csv
right,2,brick,2.864,1.056,1.0,19684.0,1.469407554487899,31965.111074419874,1650.0,0.3904355576995567,0.2287554539788074,0.538125908996468,0.15998889608587025,0.44384041207859104,0.360464914261678,4813.0,3871.1641791044776,-16.19999999999999,602.9701492537314,0.15575938434964992,0.12121212121212122,0.0,0.12121212121212122,0.5883276699616535,-0.9662749496663179,9450377.403288452,8509352.0,1578475.0,3795916.0,4335905.79459101,1297852.9309542938,1431755.5027745957,0.07757317787853552,0.09764118935258012,0.06472656611455538,0.09065112118688505,0.06773002066561797,0.10230637549736282,0.10551031738687887,0.08196076617007494,0.0855117053761451,0.0750747971993461,0.07802812991579532,0.07328583325622282,3.922656762327235,0.14531047177539025,0.49034339766361573,0.06060606060606061,0.42219713032797246,0.22937411317159023,0.0006464304183268049,1176.800889417294,111.64314895385807,0.018475208614068074,Kristian,REC_20260311_135256.csv
right,3,brick,3.936,1.072,1.0,18367.0,1.335783342222424,32283.628916216963,1396.5773809523807,0.3304687688501388,0.22867104183757178,0.5387612797374898,0.155677317485859,0.4486458172390273,0.34699380113206113,4876.0,3902.3970588235293,-12.100000000000023,591.2279411764706,0.15150378914920318,0.22388059701492538,0.0,0.22388059701492538,0.7557358064883766,-0.5474381475162122,9397904.262269275,8344419.0,1400103.0,4090353.0,4344236.435141643,1217411.8350953886,1436479.9546410535,0.07840203796309206,0.09704065751442364,0.06460584180914446,0.09289162392647053,0.0698364127628946,0.10296838670048199,0.10597935657947792,0.08013928090954656,0.08590873633475654,0.07296420375108814,0.07553803657631245,0.07372542517231113,3.795875448369016,0.12289986726613805,0.4634848122547175,0.05970149253731343,0.4299880725826653,0.2537841419874144,0.0007641489018964174,1116.881521618714,136.04774565979363,0.01600000000000007,Kristian,REC_20260311_135256.csv
right,4,brick,5.024,1.056,0.015151515151515152,18870.0,1.3868182539684635,30235.15627543539,1277.529761904762,0.3022988151921622,0.23086344151867727,0.5315370483772198,0.1630383043864025,0.4418960652229377,0.3689516997714273,4899.0,3919.507462686567,-18.0,622.3805970149253,0.1587905120579421,3.0,-0.4307692307692308,2.569230769230769,0.5890009415437734,-0.8829200691171573,9392559.84831425,8476366.0,1605353.0,3714060.0,4295992.117798175,1192302.5280059841,1406245.3787037234,0.07745033453030574,0.09723274703263812,0.0647012455875129,0.08975008282338248,0.06800275697144403,0.10142151580117818,0.104985777226045,0.08361924853488294,0.08548896259429489,0.07478475440487115,0.07941905585151957,0.073143518641925,4.1598681451640624,0.1527722230940808,0.5064412982059013,0.06060606060606061,0.42832078799750956,0.2732814402882235,0.0007529516283557508,664.5918546998098,190.23206779816115,0.009237604307034374,Kristian,REC_20260311_135256.csv
right,5,brick,6.096,1.072,1.0,17654.0,1.263441608475056,31903.938267869064,1347.2222222222222,0.31878997556276933,0.2259498787388844,0.5175828617623283,0.1589931217246308,0.4424688839923773,0.35933175750111934,4948.0,3951.0588235294117,-14.5,611.8529411764706,0.15485796808003813,0.208955223880597,0.0,0.208955223880597,0.623647566359931,-0.6158266750475483,9548138.603494348,8488583.0,2206445.0,3773925.0,4281459.1738863485,1315586.2234904708,1336392.638159495,0.0783483206288709,0.09685415674130539,0.06736838970938543,0.091453519533111,0.06768476060028586,0.10122379704621248,0.10441356002858504,0.08070807527393997,0.0852526500714626,0.07376652572653644,0.0782850464506908,0.07464119818961411,4.344154125170891,0.18228648109126028,0.5200923946951013,0.05970149253731343,0.43281030751831673,0.2407983027770412,0.0010347682406228924,611.0147297733504,59.81263288983739,0.009237604307034374,Kristian,REC_20260311_135256.csv
right,6,brick,7.184,1.056,0.0,20406.0,1.5426624377496096,32319.89241937541,1479.1666666666665,0.3500116742003601,0.2276225192385581,0.5297691373025516,0.16528339389893257,0.44171288112705115,0.3741873985587858,4938.0,3934.716417910448,0.39999999999997726,633.723880597015,0.16105960717076465,0.0,-0.3181818181818182,-0.3181818181818182,0.555211456306358,-0.7538966566724112,9485581.574982105,8572882.0,1776396.0,3650530.0,4302689.6091846535,1263759.67104434,1297819.1939272801,0.07709406507704096,0.09629930280017904,0.06327145273986633,0.09032493001449023,0.06960239126641529,0.09914803547449795,0.10505033646150227,0.08515852002458027,0.08633822157146867,0.07524295782661801,0.0801248738743523,0.07234491286898864,4.549666630398572,0.19846276897165643,0.5422754979833291,0.06060606060606061,0.43886253333165454,0.24347015361293922,0.0007676497432931651,1379.0972892922864,102.40753293159574,0.009237604307034374,Kristian,REC_20260311_135256.csv
right,7,brick,8.256,1.0719999999999992,0.0,21287.0,1.6320496290980406,32129.69508103057,1671.5277777777778,0.39552962431937416,0.22848423194303152,0.5273652085452696,0.15992855438219677,0.4415085615416741,0.36223205689072285,4915.0,3943.764705882353,-5.800000000000011,614.4411764705883,0.15580066821788677,0.0,-0.47761194029850745,-0.47761194029850745,0.5028671882142132,-0.7173774493915199,9570425.578171171,8681616.0,1722639.0,3640756.0,4370535.962240231,1219047.4485992717,1286592.6296870534,0.07985427480460593,0.09483324383986635,0.0638237575323668,0.09258472048207148,0.06778011455163772,0.10018047849173675,0.10648231012469422,0.08218856273492034,0.0861300041763618,0.07379482131137759,0.07773999164727641,0.07460772030308455,4.1133128471525255,0.16041679379331109,0.4971289282693721,0.05970149253731343,0.4240864826028305,0.2705680751384039,0.000675458252907812,1895.096919245381,163.08802676870172,0.009237604307034101,Kristian,REC_20260311_135256.csv
right,8,brick,9.344,1.072000000000001,1.0,20057.0,1.5072525288045446,31439.042129174355,1113.095238095238,0.2633890667020819,0.22846595570139458,0.5324036095159967,0.1573484913817346,0.4417006310437531,0.3562333406901052,4876.0,3922.073529411765,1.6999999999999886,600.9117647058823,0.1532127738553661,0.3283582089552239,0.0,0.3283582089552239,0.6086685712117849,-0.8419899028257278,9519650.645844573,8619308.0,1898569.0,3567452.0,4415825.984987908,1211796.8149140521,1317435.898440116,0.07896108376046583,0.09641883607485537,0.06565779655869307,0.09188192020277389,0.06578902966243096,0.10106448794717679,0.10647129182117801,0.08008593893536207,0.0865463571565161,0.0743229309226437,0.07726255244637252,0.07553777451153164,4.103395884667649,0.16943825179612423,0.5103272885755683,0.05970149253731343,0.43822052730521033,0.23130577206353406,0.0012064245379962014,633.8851105155691,283.6835059417799,0.009237604307034374,Kristian,REC_20260311_135256.csv
right,9,brick,10.432,1.0559999999999992,1.0,20200.0,1.5217614599768778,32790.49481175909,1294.642857142857,0.3063482460304963,0.23120567375886525,0.5219858156028369,0.15782917268256258,0.4479178968300831,0.3523618363977648,4935.0,3917.89552238806,-27.30000000000001,601.4626865671642,0.15351677530200114,0.2727272727272727,0.0,0.2727272727272727,0.6259584969670574,-0.772336419617154,9620473.387979046,8558221.0,1882686.0,3970624.0,4421317.220032344,1104432.439709309,1348744.102823079,0.07776029622969992,0.09688417860639469,0.06348976567529781,0.09157368218545595,0.06878502394294835,0.10287277284865846,0.1033108697556943,0.08022506752406676,0.0878022392466257,0.07331837454618874,0.07760410515849583,0.07637362428047344,3.847160464527802,0.13815035303745787,0.49058745999273257,0.06060606060606061,0.4514558624595134,0.21156148492388013,0.0010672477372563735,672.6710439236518,284.8533782960809,0.00923760430703492,Kristian,REC_20260311_135256.csv
right,10,brick,11.504,1.056000000000001,0.0,20765.0,1.5790869572661668,31265.20490897189,1146.09375,0.2711974257316523,0.23331304524244267,0.5372286467843376,0.15948362220500123,0.4375262252631977,0.3645121434925876,4929.0,3948.283582089552,15.0,612.9626865671642,0.15524788780312623,0.0,-0.8939393939393939,-0.8939393939393939,0.6298631416131721,-1.0040901632982435,9460065.529738788,8647408.0,1794722.0,3390302.0,4322731.057097171,1237220.987340627,1321094.1107949521,0.07899143780596142,0.09181015744608464,0.06508779556580416,0.09182905853667757,0.06627100383692139,0.09974861549511407,0.10682140359498743,0.08088154686525413,0.08786738994840003,0.07945640463454742,0.07860207533974711,0.0726331109305007,4.37403527401485,0.1695773349191705,0.5204141134820868,0.06060606060606061,0.45024575886276835,0.22679521666215252,0.0010608812401301994,374.37458959354586,96.70856304961418,0.00923760430703492,Kristian,REC_20260311_135256.csv
right,11,brick,12.576,1.1199999999999992,0.0,18908.0,1.3906737741401325,30047.8367607387,1254.1666666666667,0.2967704617867843,0.2190988835725678,0.5165470494417863,0.16581917092190018,0.43522694184238,0.3809947293700777,5016.0,3966.394366197183,-15.800000000000011,642.3028169014085,0.16193619635387446,0.0,-0.15714285714285714,-0.15714285714285714,0.3333847524157814,-1.0479773008074782,9267894.598358842,8365188.0,996932.0,3863111.0,4168856.9109128937,1233917.2095840187,1379337.4349786912,0.07666167164984695,0.09380925664207035,0.06826010070522062,0.08895509456206012,0.06474109951920004,0.10065905814341618,0.10629088042497888,0.08323804924471084,0.08706243297563332,0.07437840448273168,0.08258112167718934,0.07336282997294169,3.7992287033061567,0.14805003798539995,0.4853612733288413,0.05714285714285714,0.45505177674803315,0.19961312133990042,0.000760709972917127,951.92244081823,76.79508941033102,0.0369504172281357,Kristian,REC_20260311_135256.csv
right,12,brick,13.712,1.056000000000001,0.9848484848484849,18449.0,1.344103148908657,30182.57028485149,1464.5833333333335,0.3465608548772581,0.22283384301732925,0.5137614678899083,0.16392002676928225,0.4378640850533104,0.374362804268885,4905.0,3925.194029850746,-25.0,627.1492537313433,0.15977535096658402,0.09230769230769231,0.0,0.09230769230769231,0.47017488331801144,-1.1181234200558738,9400610.59257158,8389623.0,1692096.0,3888768.0,4211627.349737065,1113148.87458755,1399891.485726015,0.07922794956423868,0.09714511688746255,0.06720838973641383,0.08778727546504024,0.06533377948803748,0.09920984987908193,0.10531278993718345,0.0834981063774773,0.08838806333368823,0.07534184069235098,0.08042192039180494,0.0711249182472204,4.273088224979372,0.1654183506188372,0.5214593244366577,0.06060606060606061,0.4477692716572093,0.23625887726874883,0.0006866266302106321,1226.3078732520653,161.9622093883793,0.036950417228135204,Kristian,REC_20260311_135256.csv
right,13,brick,14.784,1.0879999999999992,0.014705882352941176,17932.0,1.291647782362529,31920.16148142111,1489.2857142857142,0.35240612026128815,0.22607993540573273,0.5329027048849415,0.15926779840225563,0.44170729558270677,0.3605731668797906,4954.0,3947.5942028985505,19.100000000000023,612.5869565217391,0.15517981966635339,2.0,-0.16417910447761194,1.835820895522388,0.5210880719120045,-1.0288918497110506,9589944.153484315,8494692.0,2280970.0,3821572.0,4413096.500286299,1315527.4274709371,1333527.2704661235,0.07869404957706767,0.09429702185150377,0.06618964403195489,0.09081664121240603,0.06532322015977444,0.10199204064849625,0.10601210056390978,0.08028738839285715,0.08927837171052631,0.07535684915413533,0.0789804100093985,0.07277226268796992,4.368100659428218,0.17971183562885162,0.5234359837170759,0.058823529411764705,0.44839223652316224,0.24974578610373352,0.0009239860660765973,488.28714229778495,129.20677729200577,0.03199999999999931,Kristian,REC_20260311_135256.csv
right,14,brick,15.888,1.072000000000001,0.014925373134328358,19626.0,1.4635228131732463,31906.522891095483,1182.8125,0.2798860958130345,0.22295409181636727,0.5263473053892216,0.1563945105597765,0.4439214983153664,0.3523021776444418,5010.0,3936.970588235294,-1.8000000000000114,599.6102941176471,0.15230245709974077,1.0,-0.6363636363636364,0.36363636363636365,0.7028413026362821,-0.8130784366192643,9458165.088036526,8548448.0,1762957.0,3643200.0,4327897.666042189,1106570.836817047,1283062.7004623422,0.07922633855532397,0.09537790328484876,0.06640668773392501,0.09005132342723951,0.06720604824551574,0.10197449517021898,0.10514205458063455,0.07969325474200079,0.08931172818754342,0.07280904248563765,0.07670125581777569,0.07609986776933594,4.124914034220865,0.14373126896953478,0.5050206587658016,0.05970149253731343,0.454037624840856,0.2188524519463899,0.0006660086810230358,868.1641549845308,170.26001743250197,0.015999999999999518,Kristian,REC_20260311_135256.csv
right,15,brick,16.976,1.088000000000001,1.0,20808.0,1.5834497827235816,30855.758571132228,1552.34375,0.3673273925894977,0.2252644679527069,0.5417963078199544,0.16178497968933156,0.44230074533886743,0.36578048170659855,4821.0,3931.68115942029,-22.30000000000001,620.3840579710145,0.1577910397145448,0.07352941176470588,0.0,0.07352941176470588,0.3578194610514729,-1.0181520036789193,9452233.78061382,8458040.0,1722639.0,3852116.0,4312364.474621461,1141052.452786138,1336603.6296478398,0.07620002506579772,0.09313786925974801,0.06699940284423081,0.090575997286996,0.06401362399828962,0.103624956687776,0.10550489151670193,0.08378611502252235,0.09094829810605781,0.07298570512300671,0.0779988646668092,0.0742242504220638,4.0681241655972356,0.16174157054249869,0.5024092842552274,0.058823529411764705,0.42892332264824773,0.2194122875610932,0.0009269426606647672,1445.5757791735925,197.67628911485747,0.009237604307034217,Kristian,REC_20260311_135256.csv
right,16,brick,18.08,1.1040000000000028,1.0,18415.0,1.3406534729655848,29007.62634205012,1522.5694444444443,0.3602819698048308,0.21953675730110775,0.5202416918429003,0.16702215396866024,0.4387779768506669,0.38065300170115335,4965.0,4018.6285714285714,-21.5,655.6571428571428,0.16315445212297017,0.057971014492753624,0.0,0.057971014492753624,0.3150158589576659,-1.2833665058252375,9126408.399514783,8315097.0,1841147.0,3280346.0,4088094.3792385054,1292511.2639780596,1198799.6644530746,0.07692389727838922,0.0954590052043341,0.06463825612149135,0.09027955521428775,0.06719420982282512,0.10062068082928077,0.10236967835508916,0.08502900776384267,0.08522452577993914,0.07732559792964196,0.08199314620481757,0.0729424394960612,3.7496754544838775,0.1323376844879741,0.4874449181085161,0.057971014492753624,0.415123146863332,0.20014501899121878,0.00064589409107351,1196.5292864503315,205.2943558633569,0.016000000000001294,Kristian,REC_20260311_135256.csv
right,17,brick,19.2,1.0719999999999992,0.014925373134328358,21316.0,1.634991999755367,29935.368395929254,1607.2916666666665,0.38032958682475754,0.2248062015503876,0.5232558139534884,0.16863837042221017,0.43717846586805836,0.3857426282130923,4902.0,3950.5,-4.399999999999977,650.0661764705883,0.16455288608292326,4.0,-0.07575757575757576,3.9242424242424243,0.42125991851108524,-1.1512743229093707,9331995.407537393,8368853.0,1833817.0,3699399.0,4121245.9217498,1207513.6754236284,1384811.854823065,0.07833334574178993,0.09629830922370214,0.06594474266101834,0.08842514350380071,0.06719923762442581,0.1000543490399577,0.10319617025395147,0.08537266317740866,0.08520142647617203,0.07551910778233581,0.08326570724480148,0.07118979727063589,4.138967023328523,0.16369234108263256,0.5087368627887299,0.05970149253731343,0.4393360768400336,0.21990688476122724,0.0005924315929468118,1549.210228901597,42.97991343948803,0.016000000000002155,Kristian,REC_20260311_135256.csv
right,18,brick,20.288,1.120000000000001,0.0,20177.0,1.5194278556624468,29001.712121873083,1817.7083333333335,0.4301199799152314,0.2282765737874097,0.5259029927760578,0.1694660253157319,0.437832796094716,0.3870564901195142,4845.0,3941.211267605634,6.0,652.5422535211268,0.16556896071129917,0.0,-0.44285714285714284,-0.44285714285714284,0.1830700630373382,-1.1520439651140997,8967455.58623359,8173376.0,1821600.0,3208264.0,4077670.0012443606,1250005.8812484674,1191800.5980046326,0.07597578495207737,0.09390835733634473,0.06459013815728346,0.08924474494864665,0.06433283540485872,0.10103064046943458,0.10584077248004116,0.08598557675126685,0.08931621793543129,0.07487867460493307,0.08348044856446506,0.07141580839521702,3.8250851467400726,0.1524525783191812,0.4882873957288657,0.05714285714285714,0.4500720350304592,0.2005532924661388,0.0004926415650695082,1461.6067642609414,151.96490399867156,0.024440403706432596,Kristian,REC_20260311_135256.csv
right,19,brick,21.424,1.120000000000001,1.0,19956.0,1.497004962032477,28647.98174392046,961.8055555555557,0.2275897505950699,0.22110449599671525,0.5317183329911722,0.15997704991643177,0.4428831577034237,0.3612172807516625,4871.0,3952.239436619718,0.19999999999998863,617.1619718309859,0.1561550057197025,0.12857142857142856,0.0,0.12857142857142856,0.3999668008153304,-1.019182522395131,9047814.583975956,8247902.0,1737300.0,3288898.0,4099705.9198140586,997828.7256625462,1195108.0856349347,0.07550007305539025,0.0936356282229009,0.06419608779476069,0.0902643892391192,0.06678331771254664,0.10376359988453684,0.10682123524192026,0.08182560074694682,0.08843622264432004,0.07355430510069172,0.07815144916948494,0.07706809118738174,3.77936580221485,0.14774671411239723,0.4841348238079559,0.05714285714285714,0.41126543685667344,0.1988078406264183,0.0005919615746035468,729.8129897446381,446.0001977309302,0.02771281292110333,Kristian,REC_20260311_135256.csv
right,20,brick,22.56,1.088000000000001,0.0,19885.0,1.489801226974885,30181.188677717782,1656.25,0.3919144802666005,0.22025264873675632,0.5299511002444988,0.15972557376318858,0.4424269199070396,0.3610213722904944,4908.0,3903.7971014492755,-20.30000000000001,607.963768115942,0.15573651814287093,0.0,-0.19117647058823528,-0.19117647058823528,0.5379693153989566,-0.9158751463858992,9283772.901251623,8295549.0,2173458.0,3556457.0,4184437.0390625265,1198023.3301030544,1346114.3370520566,0.07767613843081057,0.09391822157542638,0.0643966112517727,0.0894484002940281,0.06515395638583023,0.10463242773665178,0.10625849228918705,0.081886086381895,0.0892739139151031,0.0731246426741708,0.07783948738129358,0.07639162168383068,3.995764852894313,0.16042228940267375,0.493042979881283,0.058823529411764705,0.4402546300690774,0.21741900523280086,0.0007494685566520845,152.285915304099,454.7694369733318,0.018475208614068483,Kristian,REC_20260311_135256.csv
right,21,brick,23.664,1.1039999999999992,0.028985507246376812,20976.0,1.6004952403246444,30530.52854111766,2006.25,0.47473414402105185,0.22327302631578946,0.5224095394736842,0.1630067691048115,0.43923156771297833,0.37111806410789555,4864.0,3908.5142857142855,-17.100000000000023,622.1428571428571,0.1591763037471308,6.0,-0.9552238805970149,5.044776119402985,0.348057481819122,-1.1069332944040273,9319253.318526544,8563108.0,1666440.0,3277902.0,4265044.944388343,1186779.5351752127,1211245.6655581985,0.07658006696004327,0.09239170163306482,0.06412008947499233,0.09338221319025132,0.06445635170104826,0.10189841956753753,0.10852132341116098,0.08476366613546982,0.08710288162107634,0.07498282138627757,0.07824310296934166,0.07355736194973611,4.16499592227647,0.17133765176784466,0.49653475161232524,0.057971014492753624,0.44628559832259346,0.2434341223976351,0.0007782320432945117,610.4263537342905,531.6040638091814,0.016000000000000545,Kristian,REC_20260311_135256.csv
right,22,brick,24.784,1.088000000000001,1.0,19736.0,1.4746835294596565,30168.789849776873,1652.0833333333335,0.3909285318885713,0.22540650406504065,0.5298780487804878,0.16227670349051374,0.44036806483179974,0.36850243341873884,4920.0,3895.0289855072465,-22.5,616.1739130434783,0.15819494934085437,0.35294117647058826,0.0,0.35294117647058826,0.47853426284452505,-1.011825392037378,9542574.585292693,8569217.0,2106263.0,3632204.0,4293409.86474274,1221963.1021383198,1287616.943255109,0.07593848718358964,0.09325896627808763,0.06511086222870474,0.09385802044225826,0.06524481222814661,0.1030112704041197,0.10802695371655437,0.08399409131669128,0.08499499547918751,0.07588639551714002,0.07828261217382244,0.07239253303169778,4.456713103806376,0.18693919873805068,0.5270684566934389,0.058823529411764705,0.48131264936953094,0.25472418237723116,0.0008158510437601833,677.013293813355,203.2860828524223,0.009237604307033867,Kristian,REC_20260311_135256.csv
right,23,brick,25.888,1.0719999999999992,0.0,21540.0,1.657719276556784,30701.01519494103,1371.875,0.3246235034661087,0.22794419368075503,0.5250307755437013,0.16203496274430812,0.43960210393942706,0.3685946024647339,4874.0,3905.8382352941176,-27.600000000000023,616.5955882352941,0.15786511142821644,0.0,-0.1044776119402985,-0.1044776119402985,0.5150308271991366,-1.0138070681498652,9561666.459828904,8664512.0,1802052.0,3619987.0,4366160.846966201,1247790.6743214992,1349405.7455689649,0.07646923722783014,0.09253493074093458,0.0632160754827803,0.09262905831014658,0.06485389518706913,0.10336713140585173,0.10923316151914367,0.08361163717963682,0.08621708829542503,0.07544889437757203,0.07842332556467128,0.07399556470893873,4.195431585553992,0.1733619591143103,0.5116138417447161,0.05970149253731343,0.4363962653513029,0.2441400040331711,0.0007992639812356274,922.8679934494103,317.9052213244864,0.016000000000000545,Kristian,REC_20260311_135256.csv
right,24,brick,26.976,1.0719999999999992,1.0,18344.0,1.3334497379079928,31695.16141306114,1208.3333333333335,0.2859250296284633,0.2269301283357099,0.5035648808311265,0.15968026943756417,0.43948982057633057,0.36333098506825967,4909.0,3894.823529411765,-5.199999999999989,605.6102941176471,0.15549107412553614,0.13432835820895522,0.0,0.13432835820895522,0.6258367887863681,-0.7557222604176603,9439882.83901204,8504465.0,2155132.0,3484375.0,4275346.525330401,1330004.4292783886,1367685.89240043,0.07764831148432308,0.09416344469280492,0.0661926841056002,0.09153552226182564,0.06484096538391831,0.10246632030447651,0.10777124992448499,0.08188092792847218,0.08648356793330512,0.07372153084033105,0.077799341509092,0.07549613363136591,4.317303151610581,0.17245872856391892,0.5118457151146069,0.05970149253731343,0.4503910154368754,0.23180933024516437,0.000783396476954528,1602.4198367885176,224.41652096995705,0.009237604307035999,Kristian,REC_20260311_135256.csv
right,25,brick,28.064,1.056000000000001,0.0,18836.0,1.3833685780253913,32274.61245313412,1466.9642857142858,0.34712425395041757,0.2275582573454914,0.5146909827760892,0.15631143869983377,0.44772159681790236,0.3491264209962159,4935.0,3932.4477611940297,22.30000000000001,598.1492537313433,0.15210609016449442,0.0,-0.45454545454545453,-0.45454545454545453,0.664351315906914,-0.743634242634208,9383568.098720977,8451931.0,1128878.0,3916867.0,4434312.301269385,1027097.804872822,1394673.695731386,0.07801908347692751,0.09584626946112329,0.06483751717437014,0.09197112428550824,0.06921745599186259,0.10439360240479137,0.1061319143444894,0.07950689631614505,0.08629314467461685,0.0715516521554309,0.07680454238368872,0.07542679733104596,4.2658743460235735,0.16838451018280648,0.508207681393137,0.06060606060606061,0.4222293325019282,0.21883508652977346,0.0010605377109876707,1720.8571507633453,130.8165499998894,0.009237604307033916,Kristian,REC_20260311_135256.csv
right,26,brick,29.136,1.0719999999999992,1.0,21947.0,1.699013926816502,30559.465931197163,1177.0833333333335,0.27853041679324436,0.2282696994313566,0.5211210398050365,0.15861411079064847,0.44546545338013577,0.3560637746137536,4924.0,3946.5,-21.69999999999999,609.5735294117648,0.15445927515818186,0.26865671641791045,0.0,0.26865671641791045,0.5864921119082993,-0.8451445167963123,9482058.048685474,8658403.0,1238834.0,3661526.0,4297851.010419402,943537.0897303876,1293247.3330848159,0.0772128691841617,0.09888508805270493,0.065955686721667,0.09023259626921845,0.06955530216647662,0.10248097718753027,0.10453417398886579,0.0814086942264553,0.08431148970420552,0.07485038865413135,0.07720541656419314,0.07336731728038992,4.348897448431285,0.1703618307874255,0.5139248084662599,0.05970149253731343,0.43835048027707113,0.26190958627040195,0.0007653511821419454,1953.7141551414331,159.1108097012711,0.009237604307033916,Kristian,REC_20260311_135256.csv
right,27,brick,30.224,1.088000000000001,0.0,18789.0,1.3785999083393796,31356.74090207718,1609.375,0.38082256101377215,0.2265093962415034,0.5329868052778889,0.1580075141705094,0.4485988750461492,0.3522244993462513,5002.0,4004.0289855072465,-6.399999999999977,616.427536231884,0.1539518166484483,0.0,-0.36764705882352944,-0.36764705882352944,0.5990580537618296,-1.0350554821575415,9263412.102272574,8450709.0,2183232.0,3103195.0,4375906.097151207,1189853.3506646648,1136731.5791035055,0.07885897537987101,0.09833935383924887,0.06371842853936976,0.09175902532955935,0.07169590050601206,0.10249820832639586,0.10164037672199741,0.08040452008484207,0.08430638704493301,0.07545298576071927,0.07760299408566734,0.07372284438138396,4.119503390103208,0.173901343281825,0.513384589914514,0.058823529411764705,0.4459752494034924,0.229644428010765,0.0007733274294795448,1809.8569925088932,220.29823087733388,0.016000000000000573,Kristian,REC_20260311_135256.csv
right,28,brick,31.328,1.0879999999999974,0.0,17506.0,1.2484253720169767,27080.904342359026,1422.2222222222222,0.33653704636729465,0.22435897435897437,0.5234375,0.15401696852823768,0.45377482185967183,0.3394127684232364,4992.0,3968.1304347826085,19.30000000000001,595.572463768116,0.1500889332033119,0.0,-1.3088235294117647,-1.3088235294117647,0.5830968787993228,-0.8284669993158715,8550894.585424673,7795862.0,1260825.0,3279124.0,3908601.438763181,1315069.5933201688,1318660.143422514,0.07778276923751193,0.09971110405002175,0.06550377829153291,0.09184042424972881,0.07250886592817411,0.10464169232398714,0.10103688445257687,0.07980613657364291,0.08507273530776002,0.07050010774248451,0.07421083195459476,0.07738466988798434,4.605744738155744,0.1961173919980358,0.554172736627156,0.058823529411764705,0.4488508488054328,0.2684307892787952,0.0006498350188038763,2285.5172281127097,216.79303576801095,0.009237604307035052,Kristian,REC_20260311_135256.csv
left,0,brick,1.152,1.1199999999999999,0.02857142857142857,20703.0,1.5727963717229174,33222.8085056035,1222.2222222222224,0.2892115242218939,0.21157914983650702,0.5260627043662243,0.1403434781329384,0.49239058295817517,0.285024699883006,5199.0,4308.042253521126,-33.5,590.7253521126761,0.13712153162607768,53.0,-1.8088235294117647,51.19117647058823,0.6208846751599892,-1.091714320919571,10023850.509729333,9154426.0,2583959.0,3161838.0,4420084.452530218,1380314.3841860904,1054414.4292873421,0.08031163464336273,0.1124101336838079,0.05753405847563189,0.09863308388176716,0.10003890529013866,0.10471407881100203,0.10559026517714985,0.08936773999496521,0.07659438129145948,0.051809422926658626,0.0509757381379732,0.07202055768608336,4.106378902584306,0.1447980930509617,0.4931930906749726,0.05714285714285714,0.4455301717236725,0.21927478365408182,0.0012902599872001155,0.0,0.0,0.0,Kristian,REC_20260311_135256.csv
left,1,brick,2.288,1.104,0.9855072463768116,21406.0,1.6441234948987935,31560.246085859344,848.2142857142857,0.20071091981308378,0.20951839211224876,0.5091012514220705,0.14443559361412595,0.4867602641972851,0.296728398428835,5274.0,4304.142857142857,-10.199999999999989,606.8071428571428,0.1409821102592187,1.7647058823529411,-9.0,-7.235294117647059,0.6259894249172119,-1.2210322965716873,10288547.28008352,9452528.0,2342057.0,3319441.0,4618765.949184184,1353644.2108325905,1128041.8566674388,0.08059344817285673,0.11224401739188158,0.05722393707059644,0.09794882007368316,0.09886820007301936,0.10320953234425306,0.10508480201798932,0.09070662816555479,0.07448969431444788,0.05486408443692124,0.05372896544857115,0.07103787049022538,3.6706816599246173,0.13492045652506046,0.47085365937160295,0.057971014492753624,0.4599135490684325,0.20205219001495897,0.0005889750774978282,497.0960671741429,264.4635481223497,0.011313708498984693,Kristian,REC_20260311_135256.csv
left,2,brick,3.408,1.0560000000000005,0.0,20411.0,1.5431697430353557,32674.619385694456,1882.8125,0.44552542332193734,0.2032854209445585,0.5030800821355236,0.13564731558271495,0.4932204277608031,0.27502371748567445,5357.0,4274.253731343284,-37.0,564.5223880597015,0.1320750763858577,0.0,-2.0,-2.0,0.8603976437364637,-0.6876722877606594,10340254.118750323,9254608.0,2246762.0,4028045.0,4610317.348652665,1413135.8743751836,1344164.0800224445,0.08380619816673941,0.11482496726320383,0.05937319947621125,0.09887036228721081,0.1013601047577477,0.1037590571802706,0.10237625491051941,0.08647752073330423,0.07440593627237013,0.05136970755128764,0.04916979484941074,0.07420689655172413,3.7444338344714625,0.12639866697639945,0.4737079250236629,0.06060606060606061,0.4530842571235193,0.19492092654529883,0.001644686360791095,511.45185501667703,523.8725857605447,0.03330665599145786,Kristian,REC_20260311_135256.csv
left,3,brick,4.48,1.0559999999999992,0.0,21349.0,1.63834021464129,33130.435825687535,1802.0833333333333,0.42642267349762186,0.18609604957397366,0.512006196746708,0.13591119256300668,0.4949042046432244,0.2746212121210821,5164.0,4267.492537313433,-24.399999999999977,565.8059701492538,0.13258511062457595,0.0,-0.30303030303030304,-0.30303030303030304,0.6317531871612466,-1.1260669199901254,10391731.426184474,9431759.0,2498438.0,3576005.0,4607130.229990168,1394049.77590267,1261809.7615507918,0.08381656535698548,0.11479004763536908,0.05878176565636782,0.09975098103678626,0.10107301991452215,0.1043991018529529,0.1034757731129469,0.08885989885353347,0.07489105420359399,0.048380327501906115,0.04705129370947321,0.07473017116556263,3.9252637592323145,0.13551057672892342,0.4849906864056971,0.06060606060606061,0.45593956712694655,0.22634597511480653,0.0007139257330170407,558.7363719441697,575.4385028479807,0.027712812921102226,Kristian,REC_20260311_135256.csv
left,4,brick,5.552,1.056,1.0,20392.0,1.5412419829495212,33376.189731603576,1164.5833333333333,0.2755725716591568,0.18612167300380228,0.5074144486692015,0.13506804132338018,0.4963965817210636,0.27209704155298636,5260.0,4280.761194029851,-1.0,563.7388059701492,0.13169125312488011,0.3181818181818182,0.0,0.3181818181818182,0.722963164167302,-1.0334785334018162,10341309.041317254,9224065.0,2068389.0,4192978.0,4592972.709625669,1369981.4753742274,1360068.038781622,0.08299193545575309,0.11364626879722185,0.05787434931017289,0.09982532050723299,0.10125483332229238,0.10565494349937762,0.10255534132233421,0.08732928653364061,0.07601521559493883,0.04984118461286352,0.04773875478973958,0.07527256625443235,4.127974925995573,0.15409849831679878,0.5032585039301225,0.06060606060606061,0.47105899463937007,0.22929858302843456,0.0012918787030809684,547.1218633296726,393.44135187712317,0.0,Kristian,REC_20260311_135256.csv
left,5,brick,6.624,1.104,1.0,20727.0,1.5752314370944978,33668.07992743275,1350.6944444444443,0.319611599211127,0.20153299682183587,0.4974761637689288,0.1424057811868135,0.48696898661555305,0.2924329579517374,5349.0,4345.128571428571,-14.800000000000011,603.7785714285715,0.1389552832564547,0.8260869565217391,0.0,0.8260869565217391,0.6434669823889165,-1.1170321620144732,9843748.912123317,9140987.0,1936442.0,3097086.0,4352318.135230339,1446383.5297554738,1289386.082450255,0.0803757245388103,0.1118987108716165,0.059219026890540795,0.09794548246147575,0.09890550665934594,0.10378453374715198,0.10448811312504316,0.09030145417363944,0.0744347528759629,0.053541075555877025,0.05210432701317403,0.0730012920873622,3.923513097369198,0.15961586894943006,0.4952904129483755,0.057971014492753624,0.505057716557868,0.23343540240822128,0.0012157191004844923,485.6195355762918,327.8199517751978,0.027712812921102226,Kristian,REC_20260311_135256.csv
left,6,brick,7.744,0.9760000000000009,0.0,21301.0,1.6334700838981293,32930.05223196586,1512.5,0.35789926122459365,0.20535714285714285,0.5083586626139818,0.13191018558513498,0.4973401232182235,0.2652313365177516,5264.0,4256.806451612903,13.0,544.8387096774194,0.1279923613794985,0.0,-1.540983606557377,-1.540983606557377,1.1226538590140664,-0.04418889976507101,10250335.587782577,9325468.0,2080607.0,3711617.0,4694223.019719952,1615629.3809311362,1343781.2748894307,0.08347920976652193,0.11536741916172202,0.05817627935526406,0.09957487439470752,0.1025795500185661,0.10526216078993035,0.10197331029622388,0.08456286327020861,0.07455611885329756,0.05162131235743894,0.04734732231492638,0.07549957942119262,3.891867115307021,0.2804514507860359,0.5237723039404052,0.04918032786885246,0.4856752557698856,0.18363945661161205,0.001030766222900609,459.7067906104209,174.09977524018558,0.06466323014923762,Kristian,REC_20260311_135256.csv
left,7,brick,8.736,1.0559999999999992,1.0,20473.0,1.549460328578605,33527.015569537354,2197.2222222222226,0.5199234446807229,0.19413919413919414,0.5126277231540389,0.1345639649099627,0.49415339895620003,0.272312130593736,5187.0,4292.582089552238,11.5,562.955223880597,0.1311460589771317,0.7272727272727273,0.0,0.7272727272727273,0.7425679725035899,-1.0471523796162785,10016995.619160568,9118996.0,1868025.0,3700621.0,4404610.109394959,1550793.7224333922,1361601.4671827147,0.08385865237845225,0.11467891503217979,0.05902233286857231,0.09886544994315082,0.10117418803002752,0.10449126052231723,0.10292312667114044,0.08776681745322547,0.07494358542852474,0.04990212202237112,0.04679714745673724,0.0755764021933012,4.473260000080106,0.28043396442062285,0.6163639563550068,0.045454545454545456,0.463474771335802,0.2343990730083297,0.0011921763802895512,424.18077907106226,449.37638974527164,0.06466323014923754,Kristian,REC_20260311_135256.csv
left,8,brick,9.808,1.072000000000001,1.0,22124.0,1.7169725339319075,34572.94537640668,1236.1111111111113,0.2924980188153245,0.21205660011630162,0.5173483233184726,0.1370404935255649,0.4913845752674521,0.2788864372694464,5159.0,4286.088235294118,13.0,572.1691176470588,0.13349447940326772,1.8059701492537314,0.0,1.8059701492537314,0.7111522986024539,-1.0355445928112663,10346655.67376435,9370672.0,2525316.0,3587000.0,4525664.429163261,1567296.9709900538,1341845.5653401106,0.08269572556904348,0.11371262703548415,0.059035044981369265,0.0978988107900389,0.10050642640004939,0.10398553459551077,0.10420169220528797,0.08849767030131683,0.07528117644636889,0.050296101614663025,0.04854282322424808,0.07534636683661915,4.502721654142549,0.27454322567548434,0.6049456062718669,0.05970149253731343,0.4776264785117166,0.26455247092772405,0.0010674607308196746,825.501261860534,494.80129132939305,0.05143280405862871,Kristian,REC_20260311_135256.csv
left,9,brick,10.896,1.1199999999999992,0.0,21899.0,1.6941437960733412,33110.850578020494,1262.5,0.2987423585428426,0.21939953810623555,0.516743648960739,0.13768715131271467,0.4946220041899669,0.2783684311379105,5196.0,4309.422535211268,-10.5,578.8732394366198,0.1343273338148636,0.0,-3.2,-3.2,0.7113175624813982,-0.9110575894983888,10322947.857973032,9249721.0,2379930.0,3916867.0,4374400.677628871,1490190.6815377611,1356826.5481847834,0.08220767463370471,0.11364550003431718,0.057299922541172464,0.0988400785700512,0.10091872052397464,0.10535707865829544,0.10412165938379378,0.08972150773444368,0.07586062640332844,0.04895920828580673,0.047965643578270996,0.07510237965284064,4.325119874352382,0.18909494097626098,0.531570072992684,0.05714285714285714,0.49374936554415727,0.24604444670227707,0.0007685855003696397,895.3492800764031,547.4389728657852,0.03330665599145772,Kristian,REC_20260311_135256.csv
left,10,brick,12.032,1.0879999999999992,1.0,24005.0,1.9078207824295224,33816.31584013847,1219.7916666666667,0.2886363876680435,0.1839863713798978,0.5108839674427409,0.13608308943580047,0.4943895186082921,0.2752548027693044,5283.0,4322.913043478261,-10.100000000000023,574.572463768116,0.13291325964442927,0.7794117647058824,0.0,0.7794117647058824,0.5889565386903243,-1.1052167126581594,10588716.767646823,9535606.0,2850297.0,3615100.0,4539306.577816554,1401214.2314674994,1258389.880590907,0.08119189623207647,0.11288348905897459,0.058840489337235694,0.09890338305155207,0.10090485146556434,0.10501506968261472,0.10419369654788604,0.08850714594627214,0.07668272534958645,0.049929428961281476,0.04757594348952833,0.07537188087742766,3.6649331245900654,0.129313078436248,0.4668455502617011,0.058823529411764705,0.4457510615955795,0.18922259460067853,0.0007532898554297158,1156.4328774295545,21.55109997144279,0.024440403706430188,Kristian,REC_20260311_135256.csv
left,11,brick,13.136,1.104000000000001,1.0,20449.0,1.5470252632070247,31583.330999120408,1034.8214285714287,0.24486732217196225,0.19017463058913836,0.510650546919977,0.14265512104160571,0.4868270030815374,0.2930304197149173,5211.0,4343.842857142857,-23.399999999999977,605.6571428571428,0.13942887962929468,0.2898550724637681,0.0,0.2898550724637681,0.36451974422611627,-1.5296025848652492,10153738.602230117,9254608.0,2205223.0,3547905.0,4422952.877992148,1156373.3772599814,1113947.5775326681,0.08166567456728573,0.11230674616616625,0.060397475572978504,0.09759298054060099,0.09879665470666198,0.10334825319253198,0.10454534990413361,0.09204489770413952,0.07478236847557627,0.05070888515435642,0.050610223337466176,0.07320049067810268,3.7589123563542577,0.1172078111503556,0.47899890442572896,0.057971014492753624,0.4828427691961398,0.14734376493311876,0.000830001033609562,1788.0563003813202,121.0203306645025,0.015999999999999737,Kristian,REC_20260311_135256.csv
left,12,brick,14.256,1.0719999999999992,0.0,20880.0,1.5907549788383228,32787.89364994342,1200.0,0.28395313287240487,0.19080459770114944,0.5147509578544062,0.13325377883850437,0.4962143033495185,0.26854078558187344,5220.0,4288.588235294118,-25.0,557.0955882352941,0.12990185992922393,0.0,-0.5522388059701493,-0.5522388059701493,0.8320402771873723,-0.8629182143311676,10112430.94389277,9192300.0,2072054.0,3670078.0,4480104.982610879,1483457.700619391,1267428.1938422695,0.0849347104490714,0.11454132718843442,0.058726305105203956,0.09947055112062106,0.10194977093792006,0.10485076674073464,0.10147312978355691,0.08659438180671,0.07540188736180835,0.04965297780703919,0.04665939703179436,0.07574479466710557,4.1394857428375795,0.1413950420946438,0.4853184426384431,0.05970149253731343,0.4997162873834543,0.20864072872695774,0.0009781777333965308,1940.640873526063,101.56250908482832,0.01600000000000068,Kristian,REC_20260311_135256.csv
left,13,brick,15.344,1.0559999999999992,0.9848484848484849,21454.0,1.6489936256419544,34390.89053804801,1539.0625,0.36418468213452965,0.18850086822303685,0.5242137758055181,0.13349837729882666,0.49638012815178495,0.2689438390610644,5183.0,4304.5970149253735,-23.19999999999999,560.3507462686567,0.13017496047266372,0.2923076923076923,-18.0,-17.70769230769231,0.7537714839648602,-0.9622943817776508,10833021.377658589,9762848.0,2506990.0,3969402.0,4651606.693501703,1496515.8389799246,1192958.2903663486,0.08209550359213336,0.11291295664475325,0.060275720507059434,0.09932803528334858,0.10167540428836924,0.1055067820587501,0.10329463815150758,0.08664461457379823,0.07695694987656375,0.049076308562869264,0.046853762725028426,0.0753793237358187,4.045594089574703,0.14897295561600335,0.48976195028615965,0.06060606060606061,0.46922151228582987,0.2044027547197547,0.0010551892066566445,504.19275414600446,257.06886155297826,0.024440403706431968,Kristian,REC_20260311_135256.csv
left,14,brick,16.416,1.120000000000001,0.014285714285714285,21043.0,1.6072931311536398,32260.486636131205,1537.5,0.3638149514927687,0.18938961779806046,0.5097927362616467,0.1404274962105463,0.4912310568237995,0.2858685220728014,5259.0,4302.154929577465,25.0,590.5704225352113,0.13727316477494084,35.0,-0.43478260869565216,34.56521739130435,0.4932964523732263,-1.3745145066295394,9898179.142424833,9060353.0,1960877.0,3469714.0,4323291.023080128,1439391.6389443777,1305045.2102087194,0.08144624541255119,0.11304848863818656,0.06070983097235909,0.098990679417128,0.0997960406347294,0.10402582394018065,0.10478862541864051,0.09089123367588467,0.07537002419357479,0.04963775114338376,0.04953626253466163,0.07175899401871974,3.488544861605739,0.13518963759575356,0.470478939780253,0.05714285714285714,0.4783319717216754,0.16547617077874283,0.00089022944219433,295.7944105850091,195.30833328888775,0.033306655991459,Kristian,REC_20260311_135256.csv
left,15,brick,17.552,1.0719999999999992,1.0,21330.0,1.6364124545554557,32112.06580087927,1687.5,0.39930909310181933,0.18846964183106685,0.5180999808465812,0.13760476913190314,0.49229869970056195,0.2795147929814471,5221.0,4302.176470588235,-19.399999999999977,577.8897058823529,0.13432496547575098,0.7313432835820896,0.0,0.7313432835820896,0.5301016362656645,-1.2590479296983497,10072828.629326371,9250943.0,1912008.0,3496592.0,4472284.89029831,1167850.4117002655,1211082.0380640468,0.08298467260073561,0.11349248670303677,0.05846903755964833,0.098862408903838,0.1003903632908104,0.10436577929091978,0.10461872923417695,0.09068597290017365,0.07518766151195702,0.04851853371070731,0.046918796231729495,0.0755055580622667,3.6303159936489653,0.10696015637356136,0.45876071242937844,0.05970149253731343,0.4477008928242272,0.1569847019980253,0.0005003233361377504,210.8182471545873,86.15502772376897,0.033306655991459,Kristian,REC_20260311_135256.csv
left,16,brick,18.64,1.088000000000001,0.014705882352941176,19157.0,1.4159375773702791,32140.43481348689,1440.9722222222222,0.340973814068426,0.18713003628031316,0.5172808860034371,0.13412512065516172,0.49459765469745204,0.2711802601189936,5237.0,4339.231884057971,13.600000000000023,568.0072463768116,0.13090041314999315,15.0,-0.208955223880597,14.791044776119403,0.652635033421725,-1.053032352007663,9772967.219826791,9048135.0,1666440.0,3296228.0,4350957.825623213,1195204.6660449319,1136288.4856293832,0.0833146853613977,0.11362125802001957,0.05840878803768783,0.09987408444024354,0.10073912767570564,0.10470363084363425,0.10362817168603274,0.08784029765503144,0.07565955371784894,0.049935372252485746,0.04628482300013026,0.07599020730978234,3.6065499388458075,0.11599083608731495,0.4694363146909816,0.058823529411764705,0.43323551372901786,0.17612044375345556,0.001010714712104397,1180.4867640088132,124.2266457587137,0.024440403706431742,Kristian,REC_20260311_135256.csv
left,17,brick,19.744,1.120000000000001,0.0,20282.0,1.530081266663111,30605.432164895174,2072.916666666667,0.49050931806951886,0.17811799850634802,0.5009335324869305,0.14115573403270798,0.49034817215342197,0.2878683801608539,5356.0,4307.0,-22.69999999999999,594.5633802816901,0.13804582778771537,0.0,-0.08571428571428572,-0.08571428571428572,0.424357369484692,-1.4903918540731462,9849926.039139684,9033475.0,1398881.0,3668856.0,4308618.41871264,1416707.643608494,1343235.1278744836,0.08303874792754672,0.11479837931699788,0.05846035114798379,0.09834301840763643,0.1009166211571729,0.10282638482391913,0.10310107685817715,0.09053718643413768,0.0734637684476957,0.051086178085461925,0.05061854759857029,0.0728097397947004,3.328510962505963,0.12087931670492728,0.4602734786814845,0.05714285714285714,0.4650081986855513,0.14284666578218166,0.0008361643572752612,1086.727350043852,318.50581706479966,0.024440403706431742,Kristian,REC_20260311_135256.csv
left,18,brick,20.88,1.120000000000001,0.0,20813.0,1.5839570880093277,29353.55278326629,963.5416666666666,0.22800056241924868,0.18218085106382978,0.5077887537993921,0.14103189597870325,0.4923395295989836,0.28645251396634513,5264.0,4301.394366197183,11.399999999999977,593.1549295774648,0.13789829043317103,0.0,-0.05714285714285714,-0.05714285714285714,0.44641516579457313,-1.4766557004338454,9468982.283822533,8745146.0,2119702.0,2948035.0,4250878.919772795,1420585.0186777837,1170530.5348675654,0.08166693407640496,0.11322564906892293,0.05799626062953709,0.09948297145701197,0.10049803699422721,0.10392961339100651,0.10452882949845937,0.09140501442375384,0.07520325868781495,0.049400947612795065,0.049626881554949424,0.07303560260511657,3.33942876883114,0.12811780497668354,0.46737505600669477,0.05714285714285714,0.44094739493483415,0.14428242108892095,0.00048063756249564166,845.5690391682979,556.4780029895289,0.01847520861406776,Kristian,REC_20260311_135256.csv
left,19,brick,22.016,1.0720000000000027,0.9104477611940298,21339.0,1.6373256040697983,30617.009145244738,1887.8968253968255,0.44672851509274675,0.19024947629023042,0.5119024947629023,0.13729226390437813,0.49498833462188446,0.27736464538945044,5251.0,4298.794117647059,-5.100000000000023,576.2132352941177,0.1340406680396007,0.6065573770491803,-10.0,-9.39344262295082,0.651516810540819,-1.1730507288545575,9703429.236585332,8950397.0,1469741.0,3447723.0,4331083.821519328,1478623.1901170013,1277704.5317962728,0.08295075910481052,0.11407097749710932,0.057461394782394516,0.09985358411045506,0.10188561771769102,0.10429053291278677,0.1039005466649334,0.09043575831799616,0.07488762238384226,0.04902195554156775,0.04685650558638196,0.07438474538003134,3.7747519438166646,0.13597193462398804,0.4803543268999622,0.05970149253731343,0.4720682406975624,0.19939922116278547,0.0012334612176963852,528.5019709833941,594.3312336511206,0.027712812921100855,Kristian,REC_20260311_135256.csv
left,20,brick,23.104,1.1359999999999992,0.0,21875.0,1.6917087307017609,31807.62839320153,841.5178571428571,0.1991263599198226,0.18127528414563668,0.5187825081872471,0.13453683854225434,0.49633307006656896,0.27106160491008013,5191.0,4308.402777777777,14.600000000000023,566.7152777777778,0.13153720926484103,0.0,-0.29577464788732394,-0.29577464788732394,0.6209056263796734,-1.1670090138690046,9835791.662105344,9043248.0,1839926.0,3402519.0,4307572.9003446,1283895.9871244526,1156672.5025606016,0.08228429586886093,0.1132509147176867,0.05838074821489016,0.10052384713334732,0.10093003014135815,0.10533679341080898,0.10458245353878887,0.08940216953305073,0.07629148466336778,0.04813913379861705,0.0451346690092036,0.07574345997001983,3.5115266254033632,0.13078534741478784,0.4629540630137685,0.056338028169014086,0.4845454316091799,0.1703445101264954,0.00048504076174476823,531.0078467719034,572.164197698236,0.03330665599145629,Kristian,REC_20260311_135256.csv
left,21,brick,24.256,1.0719999999999992,0.029850746268656716,21057.0,1.6087135859537285,32573.148404782736,1939.5833333333335,0.45895896997258495,0.18212862834376778,0.5139442231075697,0.133464922483272,0.49671939354962297,0.2686927956032708,5271.0,4298.882352941177,11.600000000000023,560.0294117647059,0.13027325843926602,22.5,-0.13846153846153847,22.361538461538462,0.6449688462255583,-1.0638904371757525,10017060.979193898,9243612.0,2021963.0,3287676.0,4478899.276099582,1445439.0970639375,1237557.0930485798,0.08282932636389759,0.11328183796061904,0.05830174737619901,0.10083332193046073,0.10139776412473829,0.10543096016748539,0.10381631340567316,0.08801877368946785,0.07577550936631956,0.04877806817093362,0.04544614879380413,0.07609022865040162,3.8001103243072416,0.13301696759556203,0.4716128028294934,0.05970149253731343,0.49676195706153,0.19363911283208135,0.0007479249151340986,415.5205570526374,619.586990167419,0.03695041722813492,Kristian,REC_20260311_135256.csv
left,22,brick,25.344,1.0719999999999992,1.0,20885.0,1.591262284124069,34147.79738138318,3589.84375,0.8494561494457684,0.1895789271293982,0.5223995385502788,0.13317145104877243,0.49676973323479623,0.26807480838565373,5201.0,4318.073529411765,-12.0,560.7647058823529,0.1298645569749582,0.44776119402985076,0.0,0.44776119402985076,0.7852746520108126,-0.9081436733404162,10223127.851640906,9397550.0,2488664.0,3163060.0,4503085.314874388,1569404.4940172702,1242117.4503970963,0.08337051176825178,0.11319045462130783,0.05670420837178888,0.10034090638186281,0.10106971722820293,0.10527229939822019,0.10449921499579401,0.08818951806531371,0.07689635560520248,0.049106185015785224,0.04498193298345872,0.07637869556481137,3.8277269269600347,0.1478201796422539,0.4852672359566152,0.05970149253731343,0.45686072389981647,0.20889770747051217,0.000732624523459347,528.9625065478021,1383.377656689553,0.03695041722813596,Kristian,REC_20260311_135256.csv
left,23,brick,26.432,1.024000000000001,1.0,22311.0,1.7359457516188048,32364.028225794144,1693.142361111111,0.4006442315304005,0.21088957055214724,0.5138036809815951,0.13745299913668244,0.4945239980878587,0.2779501089291882,5216.0,4312.523076923077,-12.5,576.6307692307693,0.13371076721105618,1.59375,0.0,1.59375,0.8570740813867695,-0.4963962623274494,10138719.804388028,9323025.0,1632231.0,3634648.0,4467031.0313471295,1422475.6847623081,1275598.5339899564,0.08252531090134635,0.11420407114878316,0.056729239353011274,0.09931362686130554,0.1023031314882596,0.1043294305671497,0.1012222008176545,0.08790142483072555,0.07437373802236065,0.051317451144074155,0.04955157430595689,0.07622880055937271,4.099232496697387,0.1606039755278844,0.5170525364862523,0.0625,0.4550551936146025,0.20755357902903773,0.0009517111201528552,778.4146281599109,1031.307321980191,0.02771281292110095,Kristian,REC_20260311_135256.csv
left,24,brick,27.472,1.0719999999999992,0.014925373134328358,23976.0,1.904878411772196,34528.97173389326,1278.125,0.30243966496045205,0.21756373937677054,0.5072710103871577,0.14069874359157059,0.490515015488805,0.2868388105332436,5295.0,4334.25,4.199999999999989,593.6911764705883,0.13697668027238583,8.0,-1.5454545454545454,6.454545454545455,0.7971831388192354,-0.7135829070871047,10579756.195982354,9683435.0,2759889.0,3247359.0,4612383.501513154,1527012.66743913,1160960.077941508,0.08056892942330073,0.1107152672455035,0.0562381034781104,0.09958300676214421,0.09992908739893258,0.10407187619813456,0.10579210053981793,0.09055098073145161,0.07621577788409012,0.05267890163506136,0.050147762860118954,0.07350820584333405,4.350396246400426,0.20220156224552635,0.5317212731217636,0.05970149253731343,0.4682955400417722,0.23073796228917975,0.001060572197767694,1547.0392151892372,1232.4608951023042,0.02771281292110095,Kristian,REC_20260311_135256.csv
left,25,brick,28.56,1.1040000000000028,0.028985507246376812,21493.0,1.6529506068707724,34378.11948027408,1490.0173611111113,0.3525792481014779,0.20565894417014813,0.5091150778579567,0.14047828951033825,0.48993376571876157,0.2867291445083042,5266.0,4358.9857142857145,5.300000000000011,597.9928571428571,0.13718623926273804,6.5,-2.1492537313432836,4.350746268656716,0.6565450699792307,-0.9976088827153649,10218432.173297966,9457415.0,1761735.0,3445279.0,4393656.842513152,1354254.0717936403,1227432.5409550492,0.08195550078819122,0.11264088303635511,0.05766413549678988,0.09868612947310809,0.09976108465599795,0.1038183850109298,0.1042378797164478,0.09093530932818578,0.0750272835423706,0.05154213463813666,0.04954298018215247,0.07418829413133461,4.004814534476277,0.16155962633349985,0.49444447005804004,0.057971014492753624,0.45633716611030956,0.2517688843467353,0.0008788102076192786,1265.3483051450016,207.52411440033822,0.04026578365477805,Kristian,REC_20260311_135256.csv
left,26,brick,29.68,1.088000000000001,1.0,20598.0,1.562142960722253,32051.595124112,1837.5,0.43480323471086996,0.17985477564699312,0.5026996834853845,0.1374767190893382,0.4931552441722082,0.2787696586701349,5371.0,4310.927536231884,19.5,578.768115942029,0.13425605303677207,0.23529411764705882,0.0,0.23529411764705882,0.6515317483131028,-1.210589209555987,10465788.01756934,9536828.0,2284635.0,3655417.0,4354167.112802536,1404271.1694127147,1232556.670638686,0.08239929535323108,0.11481775333328852,0.05997902196642171,0.09922206458813801,0.10142408574098852,0.10391186536405629,0.10260073826541247,0.0899735757461658,0.07377947514573682,0.04896219247345808,0.04750314334317239,0.07542678867993034,3.979116904642558,0.1322176527971096,0.4807837195551098,0.058823529411764705,0.49155215599996943,0.20071784639498697,0.0005872004197440474,1750.1046635368205,282.4130980353143,0.016000000000001808,Kristian,REC_20260311_135256.csv
left,27,brick,30.784,1.1040000000000028,0.0,21923.0,1.6965788614449215,32388.509258686172,1125.0,0.26620606206787956,0.18820385569765222,0.5107845008589426,0.13621640695479648,0.49656288178643593,0.27431854444029335,5239.0,4291.385714285714,14.600000000000023,570.6928571428572,0.13298568228044888,0.0,-0.4492753623188406,-0.4492753623188406,0.782669906181319,-0.865167260800837,9965922.081142617,9244834.0,1606575.0,3357315.0,4215702.671061394,1255890.9400601806,1165583.2200536223,0.08226114108995763,0.11493456991914035,0.05917502505018359,0.09976464478673223,0.1023578797391452,0.10487122041831311,0.10270741718459239,0.08945495461006601,0.07463456692310509,0.048219522831453046,0.046761452344730475,0.07485760510258092,3.5283446869949815,0.12051011687117454,0.4488964311529109,0.057971014492753624,0.45220166889921487,0.16861979178955347,0.0007339680727510869,675.9622770539733,356.2859591773865,0.009237604307035059,Kristian,REC_20260311_135256.csv
left,28,brick,31.904,1.0400000000000027,0.9846153846153847,20894.0,1.5921754336384115,26926.51670751343,1243.75,0.29430559084171126,0.18884615384615386,0.5169230769230769,0.1313557703990419,0.4957665804592714,0.2649548710550336,5200.0,4364.621212121212,-7.699999999999989,558.780303030303,0.12802492493013728,0.421875,-18.0,-17.578125,0.8137037251530224,-0.7024112803438265,9021864.196480958,7902152.0,3081204.0,3075095.0,3590937.2043154757,1222549.9167648107,1066983.1676363135,0.08221755506569699,0.11236700050335861,0.05616440733862149,0.09944283408258553,0.09994272126082655,0.10613229653029699,0.10542412302778886,0.08667488240501277,0.07788172808220367,0.048850085918108764,0.044680887994029125,0.08022147779147068,4.377415067920211,0.16395320862702525,0.5093946245137876,0.06153846153846154,0.425805007591258,0.0998651540959555,0.0006049581338858887,695.4713030264626,381.72784262263684,0.03330665599145788,Kristian,REC_20260311_135256.csv
right,0,brick,0.752,1.12,1.0,18004.0,1.2129063088778467,27684.07332745671,1306.547619047619,0.3152352766089708,0.22129478827361562,0.509771986970684,0.1673653777974335,0.43197526306748196,0.3874420414929815,4912.0,3853.507042253521,-5.800000000000011,629.887323943662,0.163458199774122,0.5142857142857142,0.0,0.5142857142857142,0.3296493294427,-1.1789574480068186,8669027.963457668,7710341.0,2322509.0,3210707.0,3913081.554510719,1215366.817104717,1306286.395134893,0.07713843983347893,0.09329346963987442,0.07224076111389297,0.09223717922945626,0.06282552202310682,0.0986005065807989,0.11214222274204219,0.08718599117686834,0.08501858559424559,0.07537673748807562,0.08017938662056515,0.06376119795759487,3.812212710549311,0.1487013155228844,0.48850236289905596,0.05714285714285714,0.45426227293706145,0.20843791884368693,0.000798592322300452,0.0,0.0,0.0,Kristian,REC_20260311_140050.csv
right,1,brick,1.888,1.1520000000000001,0.0,18114.0,1.2236839434567002,28461.609230681246,1762.5,0.4252444893116914,0.22343655130540377,0.5049585104229913,0.17227893179226342,0.4299067382163422,0.4007355932752677,4941.0,3915.917808219178,-21.399999999999977,659.554794520548,0.168429172118015,0.0,-0.09722222222222222,-0.09722222222222222,0.23367782826502748,-1.2933438268664241,9036772.899554022,8150164.0,1869247.0,3426953.0,3964793.1821695445,1440707.2967831634,1383557.9709772395,0.0777962793235897,0.09175056495791677,0.06513632452022304,0.0928140151541653,0.06616829099355634,0.09657457094682051,0.11167976156327179,0.0897635922228208,0.08259929616388328,0.07776479560067445,0.08251533956944261,0.06543716898363545,3.7785089454546603,0.15407937156051793,0.49814655887494746,0.05555555555555555,0.4528555739008342,0.16330361722790207,0.0007574165542333564,77.78174593052023,322.4070204695805,0.02262741699796954,Kristian,REC_20260311_140050.csv
right,2,brick,3.056,1.12,0.014285714285714285,17937.0,1.2063417496343631,29994.77039418705,1677.0833333333335,0.4046357138249546,0.22746157041960946,0.5238886580805983,0.16864242107858063,0.4343215730630356,0.3882893034512118,4814.0,3885.1267605633802,-11.199999999999989,639.8169014084507,0.16468366177984659,2.0,-0.057971014492753624,1.9420289855072463,0.37959510280146175,-1.199571723805925,9330256.22579407,8393288.0,1750739.0,3679852.0,4092701.4713319237,1401180.2838691054,1392539.7425444385,0.07711605110134714,0.09161337567610679,0.06568205217441742,0.09174750946186976,0.06522889749278578,0.09935325763837531,0.1110845260364554,0.08758211162831166,0.086378532793898,0.07589434607966822,0.081060309450269,0.06725903046649556,3.8018729835929297,0.14727100434100493,0.47661206889520524,0.05714285714285714,0.4707049328377827,0.1899134685501495,0.0006951355009622628,89.36628745412477,242.37893754814795,0.018475208614068026,Kristian,REC_20260311_140050.csv
right,3,brick,4.192,1.056,0.0,18583.0,1.269635858161085,31485.297187735105,1473.9583333333335,0.35562704041137316,0.22600041467965995,0.5249844495127514,0.16235435592847977,0.4433746641947805,0.3661786949943101,4823.0,3872.402985074627,-13.300000000000011,612.544776119403,0.15818208447837934,0.0,-0.22727272727272727,-0.22727272727272727,0.46323218184453396,-0.8380985502337817,9144185.283871986,8222246.0,1678657.0,3632204.0,4288411.9258219935,1255475.0453946267,1408307.87069436,0.0782267171835915,0.0945303737507275,0.06343008891852411,0.09351284057490623,0.06864494644460804,0.10045827535835282,0.10926533333847238,0.08492547725774809,0.0862282280661859,0.07140461975478993,0.07742887867073166,0.07194422068136179,4.3298048718154885,0.17755764976109628,0.524869419047081,0.06060606060606061,0.4440699797675283,0.2571890510166847,0.0006642735977344704,333.81781458354436,148.21834455301746,0.04888080741286237,Kristian,REC_20260311_140050.csv
right,4,brick,5.264,1.12,1.0,17415.0,1.1551969746328945,31141.169197703544,954.8611111111112,0.23038265279888723,0.22033898305084745,0.5035736164998978,0.15532419839461192,0.4451831100402073,0.34889957613282707,4897.0,3881.2957746478874,-30.0,587.6830985915493,0.1514141494781763,0.04285714285714286,0.0,0.04285714285714286,0.6347489489905481,-0.7504765767708563,9206506.949587015,8212472.0,2006081.0,3645643.0,4164038.7714157025,1420449.8840512373,1325979.0330541471,0.07828444108980594,0.09266180889204999,0.06388892920906333,0.09357989926407617,0.06662505624664335,0.10326157955089776,0.11019624635304023,0.0815721481137416,0.08905476608654,0.07206102216480628,0.07375205028087034,0.075062052748465,3.8306160047409823,0.1488497932805304,0.4891796601116941,0.05714285714285714,0.4896104799776617,0.22188927084650528,0.0006812969603773342,585.0960035185108,372.4528225192716,0.03695041722813617,Kristian,REC_20260311_140050.csv
right,5,brick,6.4,1.072,0.0,18257.0,1.23769486840921,30574.46028959465,833.3333333333334,0.20106122426084702,0.22665552538124087,0.5084604136202214,0.15984572123423013,0.4379160966712266,0.3650144912442962,4787.0,3870.0,-7.800000000000011,602.6838235294117,0.15573225414196684,0.0,-0.07462686567164178,-0.07462686567164178,0.5203160913346668,-0.8887052917611111,9655973.01220074,8498357.0,2609616.0,3769038.0,4271268.883192034,1551389.4526323483,1416225.2601650094,0.07800577595379236,0.09156026751785985,0.06573947408420733,0.09404164766681866,0.06353929168566652,0.10146298829609364,0.11233850129198966,0.08414272685818514,0.08731190150478796,0.07300501595987231,0.075702994376045,0.07314941480468155,4.366673064389196,0.1938581360002514,0.5274869095735094,0.05970149253731343,0.4491560560371208,0.24084133013757633,0.0005807270818831628,602.697270609383,340.2526800079199,0.033306655991458226,Kristian,REC_20260311_140050.csv
right,6,brick,7.488,1.088,1.0,18214.0,1.2334817930738398,30924.63648937526,1079.861111111111,0.26054183643801426,0.2316872427983539,0.511522633744856,0.16314819825997992,0.43668795664406695,0.37360361278033194,4860.0,3909.6666666666665,-22.600000000000023,621.7971014492754,0.15904095015328043,0.5294117647058824,0.0,0.5294117647058824,0.5047019060369936,-0.9737167924640358,9510068.055985298,8585100.0,886976.0,3993836.0,4254301.7207851,1340201.72894218,1426674.9947103704,0.07805995544303047,0.09270222080536167,0.06463355414116627,0.09258730682403704,0.06725433429589238,0.09930050747496914,0.11111069923304184,0.08588893378359845,0.0848435872438067,0.07392305211534399,0.07725926447638147,0.07243658416337061,4.231805684207431,0.18796412020755793,0.5270074962101715,0.058823529411764705,0.4660321859974496,0.27310188529101276,0.0007441164692488691,474.20354279570694,123.26796419971474,0.024440403706431302,Kristian,REC_20260311_140050.csv
right,7,brick,8.592,1.1199999999999992,0.014285714285714285,16458.0,1.0614315537968684,30582.048410791584,1629.4642857142858,0.39314650101004905,0.2230661603038177,0.501698980611633,0.1647709202142676,0.43965236905770144,0.3747754630944509,5003.0,3941.3661971830984,-2.6000000000000227,633.7605633802817,0.16079717835740093,1.0,-0.10144927536231885,0.8985507246376812,0.44031230315256703,-0.8774804178142177,9013728.909369197,8278445.0,1442863.0,3260798.0,4083550.6623908905,1448748.8328292936,1254219.2623755687,0.07709130672498633,0.09056343514260087,0.06125708894820914,0.09280759870924861,0.06729631892851912,0.10165203314786823,0.11063226092332323,0.0868755739948613,0.08733298312946465,0.07210268835071847,0.0778953462194063,0.07449336578079382,4.022477688619383,0.1752612865071811,0.5042952888444809,0.05714285714285714,0.4732441324501958,0.21226657308585867,0.0005146650170479622,1026.4652941039944,407.5667814581513,0.02444040370643088,Kristian,REC_20260311_140050.csv
right,8,brick,9.728,1.056000000000001,0.015151515151515152,18755.0,1.286488159502565,31164.812176555788,1182.2916666666665,0.28525561192007665,0.23302180685358256,0.5013499480789201,0.16695438486359862,0.4328327929845245,0.38572489785788705,4815.0,3899.268656716418,6.5,634.6865671641791,0.16277066882040644,2.0,-0.8615384615384616,1.1384615384615384,0.34333380529543917,-0.9798166339454482,9342171.309037048,8326093.0,2185675.0,3629761.0,4257841.307887766,1603075.873899285,1340957.9223377607,0.07696812643779354,0.09051831380549741,0.06870404323811201,0.09337763300427558,0.062388277939605975,0.10080726963724541,0.11039957741788549,0.08826760471730252,0.08574129859790011,0.07539109898143931,0.0786867801462961,0.0687499760766466,4.749783359386015,0.2170180512510315,0.5584289646047895,0.06060606060606061,0.43530047377436765,0.2921237133122649,0.0005949008444894083,1200.8626066290847,292.26672164058596,0.03199999999999931,Kristian,REC_20260311_140050.csv
right,9,brick,10.8,1.0719999999999992,0.014925373134328358,20287.0,1.4365912156371439,32193.97648629321,1491.9642857142858,0.3599713990070093,0.22486062358042536,0.5174478628948999,0.15245779886020536,0.44582989665712486,0.3419640540108721,4843.0,3940.3382352941176,-40.30000000000001,584.7794117647059,0.14840843015118887,5.0,-0.045454545454545456,4.954545454545454,0.5931215720929596,-0.7353276298469558,9708999.526208507,8498357.0,1547932.0,4432438.0,4463227.881502327,1343419.760257381,1395029.531166567,0.07640057773481673,0.08997062808134566,0.06678286053377024,0.0925532669261746,0.06323733032771896,0.10656370944566568,0.11228134342005576,0.08113292752563045,0.09350496187621994,0.07071653299395766,0.0713248713345749,0.07553098980006942,4.749988366641426,0.22060743331864774,0.557122965839127,0.05970149253731343,0.4578288274699083,0.25930966480599815,0.0008129769916988597,1927.1945931846114,229.04393036188483,0.0333066559914576,Kristian,REC_20260311_140050.csv
right,10,brick,11.888,1.088000000000001,0.014705882352941176,19372.0,1.3469408916403165,31487.89181574403,1329.8611111111113,0.3208602037162684,0.2238017871649066,0.5069049553208773,0.15938689163452752,0.4403312869477787,0.3619703990130923,4924.0,3949.463768115942,-8.199999999999989,613.6739130434783,0.1553815781265481,2.0,-0.2835820895522388,1.7164179104477613,0.5267823194715905,-0.7099964704290587,9688115.373178728,8381071.0,2587625.0,4113566.0,4170208.904541808,1510734.0540322117,1448411.3219581346,0.0772843864329408,0.09123601442866945,0.06468682228003801,0.09202863716593336,0.06546109726875415,0.10262262717741906,0.11142587693064183,0.08505282316806904,0.0889829109070026,0.07205527809682474,0.07433406846645849,0.07482945767724843,4.162687686274734,0.18265695061498033,0.5159925590165119,0.058823529411764705,0.46719921789354846,0.2619669417449234,0.0005240751211460326,770.8153691600429,154.89314119626752,0.016000000000000375,Kristian,REC_20260311_140050.csv
right,11,brick,12.992,1.1039999999999992,0.014492753623188406,17836.0,1.1964459215210521,29602.968702479826,1258.9285714285713,0.30374606379406527,0.22168480451430875,0.5078597339782346,0.16451138257527828,0.4362254028278387,0.37712471925920626,4962.0,3951.5285714285715,13.699999999999989,634.6857142857143,0.1606177717845174,6.0,-0.5882352941176471,5.411764705882353,0.423227741248434,-1.0479235358184942,9073962.179033037,8206363.0,1547932.0,3549127.0,3955661.4416612685,1539824.2956338879,1432212.4375610193,0.07743477207735161,0.0926296153025773,0.06299912872776177,0.09121967267639647,0.06697227474358929,0.10006977408380843,0.1095706182417654,0.08595950210949109,0.08533406602146727,0.07457150397495363,0.07855188046578719,0.07468719157505052,4.209500133374337,0.18522611320575968,0.5128068202293988,0.057971014492753624,0.46079219164182267,0.229657756248325,0.0005808543261261477,1238.5422883373826,119.45327436205311,0.016000000000000375,Kristian,REC_20260311_140050.csv
right,12,brick,14.112,1.1039999999999992,1.0,19090.0,1.3193109557199827,30284.21537699136,1241.0714285714284,0.2994376089884757,0.22272447092664885,0.4865420176700226,0.16448864148156156,0.4302113170837161,0.3823438272067975,4867.0,3964.9285714285716,-19.69999999999999,636.8357142857143,0.16061719721126302,0.2753623188405797,0.0,0.2753623188405797,0.263253365896993,-1.1346334545944643,9377781.806555856,8478809.0,1797165.0,3580892.0,4101472.031704817,1342310.1174398186,1387831.294456722,0.07680556306184581,0.09126087661460304,0.06709902898629051,0.09229134014303987,0.06271055144210848,0.09968113278927741,0.11249707254679421,0.08624187068763624,0.08426741609468734,0.07543641571637032,0.07824677079392531,0.07346196112342142,4.295790200222063,0.20133989092132862,0.5325832881702125,0.057971014492753624,0.4675830175633801,0.2249181494814176,0.0007508629908736324,817.6527380251352,46.964366744609144,0.00923760430703357,Kristian,REC_20260311_140050.csv
right,13,brick,15.232,1.1039999999999992,0.0,18267.0,1.2386746533709239,29799.539274961953,1668.75,0.4026251015823461,0.22321428571428573,0.5101461038961039,0.1636263028838851,0.4359136642772928,0.3753640142367833,4928.0,3950.0285714285715,-5.5,630.95,0.15973302182262697,0.0,-0.6811594202898551,-0.6811594202898551,0.37891762681095287,-1.0629427148546915,9341765.345029172,8412836.0,1683544.0,3695734.0,3960819.1846459955,1411392.6399204105,1385905.1997859117,0.07593796789896637,0.09302283527786417,0.06655648060411859,0.09314218342001143,0.06438289777289133,0.10059240077829455,0.11067551048455346,0.08640443830424373,0.08477334702823125,0.07537016007117489,0.07722186457964138,0.07191991378000882,4.13560809893454,0.16617637270906155,0.49893017138604356,0.057971014492753624,0.4683557918147267,0.24490805936292323,0.0007924071527107361,637.129761770186,241.93023833553443,0.0,Kristian,REC_20260311_140050.csv
right,14,brick,16.352,1.1039999999999992,1.0,17942.0,1.20683164211522,31144.463793746716,1333.59375,0.3217607904499367,0.23008849557522124,0.5003087054949578,0.15994900102655527,0.44145895057556506,0.3623190804443412,4859.0,3910.442857142857,-11.699999999999989,609.8928571428571,0.15596516287888473,0.7971014492753623,0.0,0.7971014492753623,0.5305321975371626,-0.9266286126964269,9130687.539750936,8280889.0,1441641.0,3566231.0,4177818.900456364,1274855.150519794,1314756.8599749987,0.07727294314491234,0.09400835126456265,0.06622560104628267,0.09335807782092638,0.06518443289214594,0.10208562420770756,0.1107693319353672,0.08408254819512588,0.08682246439022252,0.07287446434638387,0.0758664528314294,0.0714497079249336,4.096372311557477,0.16426761278681676,0.504621600158652,0.057971014492753624,0.47903978762071564,0.2370984490020911,0.0008017284265872825,591.7288230262237,225.01816679836412,0.0,Kristian,REC_20260311_140050.csv
right,15,brick,17.472,1.0879999999999974,0.0,17779.0,1.1908611472392825,30869.080922502373,1241.3194444444446,0.2994974486385534,0.23073770491803278,0.5110655737704918,0.16311341127410828,0.4407401891428997,0.3700897156468014,4880.0,3892.463768115942,-3.5,618.7463768115942,0.1589600863802219,0.0,-0.3088235294117647,-0.3088235294117647,0.44850067636799906,-0.9652533560982746,9284017.069165535,8400618.0,1788613.0,3524692.0,4188993.2005211944,1354600.4731158647,1305591.6846988106,0.07688956735423337,0.09072157271576439,0.06273363616054807,0.09428103358403456,0.06518728125698116,0.10337701988234417,0.11073050860078934,0.08576587981234642,0.0871732817037754,0.07242162484176037,0.07734753146176186,0.07337106262566088,4.225876928698442,0.1500696679603858,0.5076783551085184,0.058823529411764705,0.505671758506826,0.2514732442083977,0.0008240252983264715,248.44113991044247,224.92263084682898,0.009237604307035654,Kristian,REC_20260311_140050.csv
right,16,brick,18.576,1.1039999999999992,0.0,19061.0,1.3164695793310124,30952.780715147386,1363.095238095238,0.3288787168266712,0.22945768282662285,0.5145850451930978,0.15931302883879572,0.4405769216753759,0.3616009395882244,4868.0,3920.3142857142857,-25.899999999999977,608.8857142857142,0.1553155359264199,0.0,-0.5797101449275363,-0.5797101449275363,0.4708020052210061,-0.9655597678325614,9528432.18458997,8554556.0,1760513.0,3809355.0,4259699.851013614,1166940.8218049435,1390334.6885692615,0.07773429244011049,0.09117709221563869,0.06215245133407671,0.09435103599565633,0.06446276173193112,0.10237152997937483,0.1137445248558789,0.08437005779420018,0.08821450175277493,0.07294604659976242,0.07494297104459555,0.07353273425599988,3.8983779564747465,0.1667453186575094,0.4970033853128086,0.057971014492753624,0.4358697702533551,0.21861061176960878,0.0007395064900651998,697.8841833236605,63.527197830107376,0.009237604307035654,Kristian,REC_20260311_140050.csv
right,17,brick,19.696,1.1039999999999992,0.014492753623188406,19325.0,1.3423359023202608,30684.20240123572,1263.392857142857,0.30482317749546267,0.22481572481572482,0.5135135135135135,0.16248469017244557,0.44175400945867344,0.3678171260323403,4884.0,3954.042857142857,-7.800000000000011,626.9214285714286,0.15855200644548256,4.0,-0.22058823529411764,3.7794117647058822,0.3906609851437196,-1.0757219792590835,9791523.628045332,8822115.0,2014633.0,3739716.0,4269810.289938565,990686.1818868335,1381038.6861288024,0.07680746288608765,0.09296091161668166,0.06480166773248358,0.09276219999060636,0.06694775329409683,0.10197880650184442,0.10909990859265202,0.08649736436125052,0.08710433805544415,0.07324871831001181,0.07598732581119505,0.07180354284764599,3.8026805834140878,0.13669034597046326,0.4797176147961103,0.057971014492753624,0.4051611458706877,0.2225421482419705,0.0006469183297699495,826.9760173870412,64.88084493259937,0.009237604307035654,Kristian,REC_20260311_140050.csv
right,18,brick,20.816,1.120000000000001,0.0,18746.0,1.2856063530370225,29827.379988862584,1189.2361111111113,0.28693112212225047,0.2287554539788074,0.5260752129648868,0.16297251866619758,0.438898187930673,0.3713219219119823,4813.0,3963.2535211267605,-25.80000000000001,630.6901408450705,0.15913444282155437,0.0,-0.6,-0.6,0.35270450447100465,-1.109114313332257,9079660.24438299,8376184.0,1209513.0,3288898.0,4169212.5833061524,1190535.184420475,1209701.0816158443,0.07598324040214506,0.09239456841192505,0.06850965382688146,0.09153455512081055,0.0651868752021209,0.10262943733097363,0.10911507475363463,0.08542561773475342,0.08715275186484286,0.07291988727429094,0.07754690093144415,0.0716014371461774,3.992987101545497,0.16627545686044287,0.5057011840571547,0.05714285714285714,0.4359508063642783,0.17637688852603123,0.0005932942918353156,289.87411060665227,87.2417940604085,0.009237604307035654,Kristian,REC_20260311_140050.csv
right,19,brick,21.952,1.1039999999999992,0.0,19100.0,1.3202907406816968,29447.698789548904,1424.107142857143,0.3435992707457689,0.2237442922374429,0.5193026151930261,0.16312785054379605,0.4355448193193779,0.37453746045841785,4818.0,3909.0285714285715,12.699999999999989,622.3642857142858,0.15921200736755936,0.0,-0.18840579710144928,-0.18840579710144928,0.33231649419008324,-1.156542282773475,9072332.419302711,8225911.0,1644449.0,3455053.0,4133594.718689695,1000902.633378003,1349373.5546234641,0.07750555490585896,0.09142936498655127,0.06738977897321952,0.09181309203601917,0.0639179628113671,0.10062054145713951,0.11254897088059876,0.08591100456087007,0.08776385802830078,0.07471348380306397,0.07721684598292598,0.0691695415740849,4.134106475436682,0.18482640995079838,0.5083219219134223,0.057971014492753624,0.4371089457664905,0.20585410838101187,0.0006233406150198769,291.8852514259631,120.06436202312113,0.009237604307035654,Kristian,REC_20260311_140050.csv
right,20,brick,23.072,1.184000000000001,0.0,19057.0,1.3160776653463266,27445.854240668115,1700.0,0.41016489749212787,0.21985670419651995,0.5121801432958035,0.16740785535439465,0.43509871002592176,0.3847583352851655,4885.0,3924.6266666666666,-18.600000000000023,642.7066666666667,0.16376249800405646,0.0,-0.02702702702702703,-0.02702702702702703,0.3673909533252221,-1.236623524811172,8940837.34807104,8155050.0,1554041.0,3319441.0,3844593.7220927277,1294011.9845110222,1276004.2816809518,0.07684467652124873,0.0932233044671765,0.06421332644803582,0.09200705290014846,0.06640122032838792,0.09874399942924508,0.11176604483823514,0.08754293402005116,0.08472313290096382,0.07574393487958091,0.07986492133434347,0.06892545193258297,3.708483853580823,0.1463282610739509,0.4790224855591542,0.05405405405405406,0.5034887166049542,0.16667477801284183,0.0006717463657925214,193.16918318751294,255.65635149838542,0.042332020977034326,Kristian,REC_20260311_140050.csv
left,0,brick,1.28,1.184,0.02702702702702703,18411.0,1.2527835568196048,30266.164755383197,1895.8333333333335,0.457414285193427,0.20850009529254812,0.5107680579378693,0.13861673228947288,0.48837713274120204,0.2838313323790754,5247.0,4368.4,5.800000000000011,592.2733333333333,0.13558129597411714,12.5,-2.4166666666666665,10.083333333333334,0.5723245387633834,-0.988994792834732,9690862.661438042,8913745.0,2619390.0,2756223.0,4154754.8028314495,1237924.0803406434,1127993.9496446636,0.08358208955223881,0.112575161004792,0.05968928364313403,0.0979153313188658,0.09925830967860087,0.10452644751701616,0.10492628880139182,0.09021457131520312,0.07410188322192718,0.05045630741995544,0.04840216097426976,0.07435216555260508,3.5856717054140264,0.14665048587594742,0.4836319368714784,0.05405405405405406,0.4574590454894669,0.1472673036755914,0.0009439203504990536,0.0,0.0,0.0,Kristian,REC_20260311_140050.csv
left,1,brick,2.48,1.104,0.028985507246376812,18004.0,1.2129063088778467,29456.089642041763,901.7857142857142,0.21757696768227372,0.198100912306833,0.502885868553342,0.13302372692847497,0.49557437173953345,0.2684233376747902,5371.0,4315.771428571428,-12.600000000000023,560.95,0.12997676296904379,77.0,-1.9850746268656716,75.01492537313433,0.6319460055429106,-1.0039188377793036,10518379.898954496,9254608.0,3654195.0,3411071.0,4412154.633967177,1413069.6787986543,1112155.480479893,0.08432857558986309,0.11337155416677701,0.05893665757487488,0.09912811482138602,0.10024362471201971,0.10641368535338824,0.10465932261737682,0.0884331223684559,0.07641739268596245,0.04735124328045971,0.04459060456001907,0.07612610226941716,3.776303658719945,0.13793835175982203,0.47697019959620063,0.057971014492753624,0.44590737177816286,0.15998910204968747,0.0015754898236020806,287.79245994292484,702.8978122509135,0.056568542494923775,Kristian,REC_20260311_140050.csv
left,2,brick,3.6,1.1039999999999996,0.9855072463768116,20890.0,1.4956722488284957,31786.65130207962,1066.9642857142858,0.2574301746339773,0.19105846388995032,0.515475735575086,0.13645193799477545,0.49352896715420425,0.27648212582439274,5234.0,4309.314285714286,1.0,574.55,0.13332747669499953,1.1470588235294117,-37.0,-35.85294117647059,0.5591605887885713,-1.2631651148127496,10363970.462497614,9258273.0,3059213.0,3512475.0,4366623.495539443,1401042.0250136426,1128222.584734282,0.08396430323684245,0.11378343256467717,0.05999960219060375,0.09892193653614098,0.10011536472491481,0.10548579157439698,0.10427247291581028,0.08989166324108576,0.07522244175407423,0.04777690849057854,0.04656027475368968,0.07400580801718537,4.081106874108334,0.15940748199783072,0.4955432928467713,0.057971014492753624,0.4849857679018821,0.20425136522381648,0.0007925518113132737,1562.05452316279,532.6722769042788,0.046188021535170196,Kristian,REC_20260311_140050.csv
left,3,brick,4.72,1.088,0.0,20952.0,1.5017469155911223,31791.97920859914,1718.75,0.41468877503799695,0.18705588630689457,0.5096984828115998,0.1369265908025114,0.4950996433957362,0.2765637031432898,5207.0,4295.753623188406,-14.399999999999977,574.2028985507246,0.13366755845847095,0.0,-0.23529411764705882,-0.23529411764705882,0.604563986559337,-1.2200766805337369,10079467.325347854,9031031.0,2078163.0,3964515.0,4454771.043749585,1397222.978019831,1326215.0345136968,0.08368223422523759,0.1150411427530389,0.05861197610042948,0.09886406191486706,0.10126616442931509,0.10530790433424311,0.10356030728019243,0.08993714723336492,0.0746203699642721,0.047623706592624326,0.04698944356914648,0.07449554160326848,3.8705162334266454,0.15127898006802853,0.48611859848448086,0.058823529411764705,0.4510560179964381,0.20804075060974592,0.0006734711109907043,1684.4160214547148,431.96049625298986,0.009237604307035114,Kristian,REC_20260311_140050.csv
left,4,brick,5.824,1.088,0.0,21110.0,1.5172275179862027,33270.663173432535,953.125,0.22996377524834377,0.18299904489016236,0.5100286532951289,0.13563445805037164,0.49442877386236034,0.2743255757361453,5235.0,4336.463768115942,13.0,574.427536231884,0.13246450724560183,0.0,-0.27941176470588236,-0.27941176470588236,0.5329131350217643,-1.3263965686457673,10625617.260176182,9540493.0,2923601.0,3651752.0,4535747.710112157,1459877.9638083999,1250903.4977045914,0.08331105288487246,0.113790706379338,0.05886383081118657,0.09887506015721084,0.10113429763114272,0.10544890647558954,0.10386810865729106,0.08907277685685257,0.07517980321907919,0.04874405112026095,0.04656168119351906,0.07514972461365703,3.9174508685672667,0.14740694771982918,0.4818015579250992,0.058823529411764705,0.4744139383964576,0.18961215279063345,0.0009098046556290371,113.43720729987733,413.11129270126827,0.009237604307035114,Kristian,REC_20260311_140050.csv
left,5,brick,6.928,1.072,1.0,20689.0,1.475978571098045,32840.797082287754,640.625,0.15456581615052614,0.2057920981971615,0.5118910625239739,0.13628262210204592,0.4927961995378182,0.27654966136061604,5214.0,4340.029411764706,22.80000000000001,576.5955882352941,0.1328552259743428,1.835820895522388,0.0,1.835820895522388,0.5957984742723523,-1.1452051097333709,10117812.769647697,9343794.0,1913229.0,3376863.0,4447051.966753461,1304143.692812129,1249588.4764984674,0.08347056471560912,0.11277708879717539,0.058463957278684746,0.0984541986026118,0.10036188423770508,0.10559700733933762,0.10412642907001173,0.08878023325946557,0.07560602056098832,0.050426603235272184,0.04750238884258035,0.074433624060558,4.175850456110548,0.1668671307079282,0.5105143390130832,0.05970149253731343,0.48990977664705976,0.22772602932284894,0.0015002318593384635,212.67110758162553,554.7058388987207,0.009237604307035885,Kristian,REC_20260311_140050.csv
left,6,brick,8.016,1.0879999999999992,1.0,22167.0,1.6207907884393684,32528.31033115615,0.0,0.0,0.19888761028001534,0.5116992711929421,0.13302281387769477,0.49333058694157167,0.26964234004283966,5214.0,4362.333333333333,20.0,565.3840579710145,0.1296058817080342,0.25,0.0,0.25,0.8315745429274697,-0.765654358296195,9966483.52808843,9079900.0,1841147.0,3673743.0,4368106.588214617,1493248.2235192338,1369181.3303013851,0.08481699396347521,0.11359098474755899,0.058926714529187615,0.09840831093584407,0.10022890289401032,0.10558768907744494,0.1033950053322082,0.08663094142544378,0.07551469928671334,0.04977724326497254,0.046391872452250994,0.07673064209089007,4.215123583689035,0.1809834603915162,0.5155303920642622,0.058823529411764705,0.47518471074244617,0.266355521383103,0.000700427208861811,761.4650353102205,485.8847439208198,0.00923760430703566,Kristian,REC_20260311_140050.csv
left,7,brick,9.12,1.072000000000001,0.029850746268656716,21933.0,1.5978638203352618,33192.39988310577,1431.25,0.3453226526680047,0.2109166983643971,0.5104602510460251,0.13566017756780974,0.49304593956178216,0.27514713474432145,5258.0,4333.058823529412,24.0,572.7867647058823,0.13218993510901142,14.0,-2.230769230769231,11.76923076923077,0.8146569446906432,-0.6003269027987481,10564798.832648637,9722531.0,2243097.0,3472158.0,4504076.001502206,1378442.7278516719,1162733.7814068312,0.08306182292090902,0.11227294941761017,0.05758396459504222,0.09890784936602319,0.09951535391382259,0.10643886943064267,0.10506434796774457,0.08864814965653933,0.07591091743368358,0.04943525834215742,0.0470120279112704,0.07614848904455486,4.192951245020631,0.20465876059088836,0.542636792251001,0.05970149253731343,0.5105421971812705,0.1782730663146893,0.0011799493791631243,794.436487916642,716.9338467564497,0.009237604307035388,Kristian,REC_20260311_140050.csv
left,8,brick,10.208,1.1199999999999992,1.0,20736.0,1.4805835604181006,33401.39938685204,1100.0,0.26540081602431803,0.1789291217257319,0.5179121725731896,0.1305234843513459,0.4958190122863213,0.2632482440506166,5192.0,4335.521126760564,5.699999999999989,552.887323943662,0.1275249982132531,0.17142857142857143,0.0,0.17142857142857143,0.7126366849871061,-1.0667994355185537,10543808.797588326,9586919.0,2580294.0,3550348.0,4401046.602776173,1575466.2951748178,1243453.994261738,0.08531553950010069,0.11390348967910024,0.05942395280389316,0.09879735691406072,0.10026573799143661,0.10672726445803093,0.10438825035247642,0.08681315825379603,0.07612516324369278,0.04699144310673051,0.04371032609754988,0.07753831759913196,4.404461741521344,0.19587910764880256,0.5316578986625812,0.05714285714285714,0.4760395234960991,0.2486907599091713,0.0004082128941474482,767.6073214867067,749.2444110568996,0.02444040370643088,Kristian,REC_20260311_140050.csv
left,9,brick,11.344,1.072000000000001,0.014925373134328358,20468.0,1.4543253234441664,34632.18003533708,2153.645833333333,0.5196176014491264,0.1983534367221903,0.517710128278767,0.13370911756534665,0.491593389857173,0.2719912845128622,5223.0,4393.426470588235,11.899999999999977,573.6544117647059,0.130571073763276,105.0,-1.393939393939394,103.60606060606061,0.7361019034681099,-0.5442037959287571,10415435.465392938,9538049.0,2210110.0,3552792.0,4445617.808307751,1511302.370415344,1357992.4369000832,0.08508366443182161,0.112956187887653,0.05747222622032248,0.09881407048632147,0.09940988040287461,0.10578638540868208,0.10086258548031317,0.08329288743543999,0.0746268656716418,0.05236098047550987,0.05041623012990665,0.07891803596951329,3.9139267776644053,0.1371970424821415,0.47262116054415654,0.05970149253731343,0.458103906251264,0.21695187930789248,0.0009547658605368964,780.0489300892158,538.7875036626303,0.027712812921101563,Kristian,REC_20260311_140050.csv
left,10,brick,12.432,1.0879999999999992,0.014705882352941176,21818.0,1.586596293275551,32596.851749823938,1119.7916666666667,0.27017602010051317,0.20197135949414172,0.4976752836153989,0.13320472869367364,0.49048820299747736,0.2715758052478521,5377.0,4395.0,21.19999999999999,572.0434782608696,0.13015778800019787,148.0,-2.626865671641791,145.37313432835822,0.7372513418390112,-0.6168716559150402,10167244.932429139,9255830.0,2234545.0,3565009.0,4358258.124705184,1374340.075794772,1378044.916877293,0.08520881766170384,0.11336004352772419,0.05866679856886119,0.09744274620368996,0.09958615686468485,0.10500733705957034,0.10231982984616907,0.08541986117294026,0.07509191934180805,0.05104614928030865,0.047784867520733375,0.07906547295180623,4.010622458206597,0.1567855439634788,0.4896401235583858,0.058823529411764705,0.46578734102574404,0.20916638413809038,0.0015767436239162598,714.7316512743309,602.6905908927848,0.02444040370643088,Kristian,REC_20260311_140050.csv
left,11,brick,13.536,1.024000000000001,0.03125,20866.0,1.4933207649203821,31789.300354049945,703.125,0.16964540797008967,0.17543859649122806,0.5074370709382151,0.12809764165739868,0.4991516240339921,0.2566307219880263,5244.0,4315.9384615384615,13.0,538.7307692307693,0.12482355205748996,1.0,-0.016129032258064516,0.9838709677419355,0.8160090088679646,-0.6766241973389171,9784282.65489632,8892976.0,2090380.0,3503923.0,4272721.6183152925,1326747.9414119613,1398121.5029820933,0.08535802891607494,0.11486582827159438,0.05801038012946645,0.09934197393560898,0.10204750905409644,0.10657812188097071,0.10318461801693901,0.08632403684375624,0.07631819089172155,0.0473343884563835,0.04177360481364246,0.07886331878974535,4.230845401094506,0.21383913197271914,0.5829547561197224,0.046875,0.5000573207052115,0.1823064053954333,0.0010074165808708908,693.6867688902046,746.8239682124079,0.03330665599145822,Kristian,REC_20260311_140050.csv
left,12,brick,14.576,1.1839999999999993,0.0,21134.0,1.5195790018943163,31601.436676201924,1380.2083333333333,0.3330076526820278,0.1745105421686747,0.5028237951807228,0.13244264515601184,0.4913138206159264,0.2695683280187729,5312.0,4400.093333333333,18.5,570.5866666666667,0.12967603717496903,0.0,-0.3783783783783784,-0.3783783783783784,0.5775233886958955,-1.21790748373267,9845414.62182147,9054244.0,1549154.0,3543018.0,4136475.4101101095,1287823.3580633267,1254459.1871674326,0.08435275615365735,0.1129521494998591,0.05958055435187739,0.0980857981800386,0.09980697379146504,0.10522504068095526,0.10441293669528223,0.08764359543888463,0.07524385846360834,0.04922925877329875,0.04479904971712721,0.07866802825394613,4.711855584298275,0.25809658484129316,0.5906444761207736,0.06756756756756757,0.48143020830484434,0.332702647797051,0.000616111473256517,490.9147923350159,341.533256474063,0.08053156730955405,Kristian,REC_20260311_140050.csv
left,13,brick,15.776,1.152000000000001,1.0,19583.0,1.367614354332481,31564.94083631395,1397.9166666666667,0.3372802036975709,0.18138561096307576,0.5156071564522269,0.14216161789805865,0.48255135745772904,0.29460411974998085,5254.0,4462.41095890411,-26.80000000000001,621.5753424657535,0.13929137145593634,0.5,0.0,0.5,0.14070389862146537,-0.8991771503992072,9927056.226820266,9122661.0,2061059.0,3327993.0,4213451.696210654,1374400.8083745912,1299415.908344896,0.08336607767777109,0.11217291469688968,0.05948317145348051,0.09597674332936308,0.09671042129692162,0.10343938407888112,0.10227286680828594,0.08655558147816156,0.07425189405567358,0.05447942631908544,0.055606036419897094,0.0756854823855892,3.6236590154038333,0.14842598493390827,0.4884968146760343,0.05555555555555555,0.4819026502923148,0.15358199924311108,0.0005846418822811917,829.0068355166518,396.1251665439154,0.08466404195406631,Kristian,REC_20260311_140050.csv
left,14,brick,16.944,1.1039999999999992,1.0,19741.0,1.3830949567275617,32715.52944703784,1616.9642857142858,0.39013058264613637,0.20959735245449532,0.4997242140099283,0.14280352244839037,0.48201722727491464,0.29626227937051924,5439.0,4453.071428571428,31.30000000000001,620.6642857142857,0.1393789198466548,2.101449275362319,0.0,2.101449275362319,0.5819795902950604,-0.48021828135516564,10135922.233363623,9305921.0,2531425.0,3119077.0,4475188.7799411,1323061.4486215778,1174527.1426105788,0.08246956354362157,0.11172385031198372,0.0594838233642911,0.09615514171599057,0.09754102304990135,0.10323532714178016,0.10182378133872289,0.08430457308759605,0.07336188505525881,0.05764239770303002,0.05849894936079432,0.0737596843270295,3.298058531326684,0.12356411257756028,0.46205487366637743,0.057971014492753624,0.45858868548194803,0.1256561526574507,0.0007453726136173967,853.5234814188382,131.87672619261204,0.04026578365477713,Kristian,REC_20260311_140050.csv
left,15,brick,18.064,1.056000000000001,0.0,21942.0,1.5987456268008042,32603.424666743216,1778.6458333333335,0.42914005053174537,0.20260727865290604,0.48832156436719176,0.14506731029595138,0.4822205210321693,0.3008318890813161,5523.0,4464.731343283582,-13.199999999999989,632.0895522388059,0.14157392766525037,0.0,-2.242424242424242,-2.242424242424242,0.603596687907133,-0.6124952170544011,10231222.51382473,9103113.0,2631607.0,3858224.0,4567362.071007748,1428413.4594906727,1360158.925935968,0.08203933314835678,0.11279112914818296,0.057381734790413766,0.09526738584661879,0.09860699278257119,0.10282913848838493,0.09763085141590644,0.08189558630326574,0.07272587476641137,0.061861287637437035,0.06317172399268563,0.07379896167976546,3.707997088165384,0.13794627194256354,0.47587958867514646,0.06060606060606061,0.46279097525783475,0.17327635927212223,0.0007768260919552187,1318.727037714781,191.0835247571138,0.04800000000000014,Kristian,REC_20260311_140050.csv
left,16,brick,19.136,1.120000000000001,1.0,20066.0,1.4149379679832652,32267.64593210977,1629.6875,0.39320035669511894,0.18503426560474162,0.49898129283200593,0.15010286663475528,0.4825538821455856,0.31105928723913884,5399.0,4443.056338028169,-23.399999999999977,653.0845070422536,0.14698992255679855,0.4857142857142857,0.0,0.4857142857142857,0.2028627450607377,-1.1539499013997259,10000012.777159987,9242391.0,1962099.0,3275459.0,4380092.8009844255,1258132.1630838441,1062543.3855530422,0.07986508462326086,0.11329594841769243,0.05777015567890394,0.0958609255778125,0.09819721863835641,0.10295539487156728,0.10067933188992477,0.08955578731808139,0.07224439464015697,0.056968144628269456,0.0605470793166739,0.07206053439930006,3.567504007598301,0.13072892434503658,0.4751223582482473,0.05714285714285714,0.43767580231487796,0.13768364266322677,0.0005265527470081645,1188.0938515117405,89.89937716848972,0.03330665599145821,Kristian,REC_20260311_140050.csv
left,17,brick,20.272,1.1040000000000028,0.0,19746.0,1.3835848492084186,30731.90711622043,2256.25,0.5443732646862433,0.1872412495295446,0.511290929619872,0.1465037188956243,0.48581887096146104,0.30156037085512394,5314.0,4402.228571428572,24.80000000000001,630.7642857142857,0.14328294759796986,0.0,-0.07246376811594203,-0.07246376811594203,0.26877715172571637,-0.9683007633774174,9846557.895469563,9024923.0,2098932.0,3331659.0,4362802.083511591,1292714.2166819111,1073812.9587473848,0.08150092810135126,0.1141402406573294,0.058249717675463074,0.09674320798556575,0.09946260984696062,0.1029575929074884,0.10004997468814496,0.0872415270187827,0.07251521956411687,0.056584976440504156,0.0592621918768416,0.07129181323745117,3.520158543163573,0.12717794640548086,0.46460132881604754,0.057971014492753624,0.47458028054151674,0.16414936509874342,0.00042347796508823964,1186.3242951795835,327.33135390433097,0.03330665599145877,Kristian,REC_20260311_140050.csv
left,18,brick,21.392,1.088000000000001,0.08823529411764706,21387.0,1.5443675614256795,32561.93578397943,1505.5555555555557,0.3632506118312636,0.1909964211715954,0.511584102467508,0.14658835414953994,0.48604604326997675,0.30159355513577957,5309.0,4389.695652173913,-4.300000000000011,629.2028985507246,0.1433363377342855,3.3333333333333335,-0.6129032258064516,2.720430107526882,0.31604731821100085,-1.1207556083575745,10028752.466768537,9226508.0,1501506.0,3632204.0,4431153.717563073,1177964.2652209774,1193778.9259180075,0.08122447497267976,0.11339137439788173,0.05787268603349742,0.09703224613637339,0.09886129902373476,0.10329526658280756,0.10102710894089914,0.08903261590879828,0.07346585712917933,0.0551720267160577,0.05755573824074166,0.07206930591734925,3.8529725200727127,0.14822004784780862,0.48052573281867733,0.058823529411764705,0.48924638232659723,0.180836569207881,0.001294727542062364,869.8967371667374,402.3952151300924,0.01600000000000034,Kristian,REC_20260311_140050.csv
left,19,brick,22.496,1.1360000000000028,0.0,19722.0,1.381233365300305,30419.547185978954,2031.25,0.49008673413581455,0.1866010598031794,0.50889477668433,0.1410354951299724,0.48755087383289436,0.2892733921716773,5284.0,4409.055555555556,-3.3000000000000114,608.5902777777778,0.1380318914355556,0.0,-0.9154929577464789,-0.9154929577464789,0.43869752898329856,-1.0163845952718644,9592784.743470948,8690168.0,1831373.0,3626096.0,4062628.3690789267,1386777.7271245762,1215013.3953201608,0.08291017224651286,0.11398573642629437,0.0595334097753361,0.09659728084875824,0.09919294885526,0.10402202537706488,0.10192092032811259,0.08752189307359853,0.07375288232551692,0.05225356904350894,0.05351360205637388,0.07479555964366266,3.6047972294095643,0.14719305421003723,0.48158452425342896,0.056338028169014086,0.47475589692786657,0.18437256135987756,0.0005912089863403221,954.43543521812,385.2535524040206,0.02444040370643209,Kristian,REC_20260311_140050.csv
right,0,brick,1.024,1.1360000000000001,1.0,20947.0,1.4971415753316997,29592.78403597742,1750.0,0.42612983062900517,0.22413070800167575,0.5002094679514034,0.16466749935394953,0.4310592356505011,0.38200666111550785,4774.0,3869.6666666666665,-23.69999999999999,622.3611111111111,0.16083067734803458,0.028169014084507043,0.0,0.028169014084507043,0.3430373937569104,-1.1136148942613373,9203206.526109528,8262563.0,1984090.0,3534466.0,4082968.227324934,1362497.0527543123,1367537.1759813814,0.07851307893301175,0.08916932265196544,0.06580024119217849,0.09164943865391793,0.06255922129382377,0.1017852528210871,0.11305165532489161,0.08729936543486376,0.08589600022970685,0.07610115714818962,0.07736813391908577,0.07080713239727798,3.9060413894398973,0.17514483950689794,0.49849660229954956,0.056338028169014086,0.41610309801103074,0.20517084705727773,0.00064554233332271,0.0,0.0,0.0,Kristian,REC_20260311_140545.csv
right,1,brick,2.176,1.0879999999999996,1.0,17836.0,1.192735276498094,31346.136827366783,1204.861111111111,0.2933870064052873,0.22364085667215816,0.5063838550247117,0.1620410971331801,0.44058455304221605,0.367786605350092,4856.0,3833.9710144927535,-21.0,605.5942028985507,0.15795482037014638,0.14705882352941177,0.0,0.14705882352941177,0.5404624405720168,-0.967517509514026,9270811.281508269,8286997.0,2128254.0,3569896.0,4140719.1451677294,1361446.8087547375,1400222.2955529708,0.07898119027458571,0.09378024071610017,0.06194432684165961,0.09279741744284506,0.06663919801620903,0.10154076448530301,0.11070748155316318,0.0865564896576751,0.0858269323817588,0.07248699649207693,0.07548460747550502,0.07325435466311843,4.053468193004718,0.15011457429103695,0.49367197018918535,0.058823529411764705,0.4933161135797449,0.2419708953012609,0.0009525417530384844,2199.8091962713493,385.4714050218333,0.033941125496954626,Kristian,REC_20260311_140545.csv
right,2,brick,3.28,1.0720000000000005,0.0,20315.0,1.435301401476721,32243.656647470987,1392.1130952380952,0.3389833814229884,0.22800083211982525,0.5038485541918036,0.16128354583164634,0.43572339824144596,0.3701512163048419,4807.0,3850.0882352941176,-6.5,604.9191176470588,0.1571182478629214,0.0,-0.16417910447761194,-0.16417910447761194,0.522664490918416,-0.8285238723943409,9708793.12478652,8519126.0,2223549.0,4091575.0,4328491.59217622,1244072.9588056046,1420238.7936056978,0.07855434940375698,0.09012016531324722,0.06231331596678456,0.09403145840813426,0.06397485160767898,0.1011932499637136,0.113828560078837,0.08590330244532211,0.08640367294867192,0.0747729234624111,0.07538024338632424,0.07352390701511806,4.406235967636228,0.17962223164527372,0.5239056643764255,0.05970149253731343,0.4734018205184895,0.23484696548696418,0.0006243430347206341,1644.343131263464,276.98458150185957,0.033306655991458024,Kristian,REC_20260311_140545.csv
right,3,brick,4.368,1.104,1.0,20157.0,1.4198413580129763,32638.876788271988,1173.3630952380952,0.28571715259436276,0.22195560887822435,0.494501099780044,0.1597190881371977,0.44287648463900847,0.36064025451090087,5001.0,3893.442857142857,10.699999999999989,606.0285714285715,0.15565364477271312,0.057971014492753624,0.0,0.057971014492753624,0.6689456142872442,-0.8506528240962812,9795355.648432884,8764694.0,2269975.0,3738495.0,4331158.382012767,1347055.46321159,1388319.909193684,0.07792955922228215,0.094345437934109,0.060930282049306346,0.09359692670093674,0.06895109359692671,0.10036288118118009,0.1100531663125915,0.08343331828972522,0.08562014522585593,0.07627476232933761,0.0762857698474725,0.07221665731027625,3.9017454322555825,0.13814028842276432,0.4736112861589028,0.057971014492753624,0.4946959070319153,0.2119342972039135,0.0009149350706861291,1387.890845852079,118.25607317979473,0.01599999999999968,Kristian,REC_20260311_140545.csv
right,4,brick,5.488,1.0879999999999992,0.0,18214.0,1.229721962759458,32684.23376798055,1713.5416666666665,0.4172521258242342,0.22828987887497434,0.5074933278587559,0.16105688384027328,0.4391577579007433,0.3667403818847693,4871.0,3835.1739130434785,-16.80000000000001,601.7463768115942,0.15690197901196778,0.0,-0.36764705882352944,-0.36764705882352944,0.5717887173754134,-0.856000279930492,9496774.178392313,8416501.0,2197893.0,3810577.0,4217908.839323765,1537076.9799164303,1486389.9583311863,0.07981045018082054,0.09484292985976488,0.06309257936642897,0.09308951845427715,0.0666485279279892,0.0996534745131827,0.11086548235818718,0.08547502711363542,0.08492330714552937,0.07448597459820805,0.07558185672663786,0.07153087175533863,3.862573045819673,0.12749231298077804,0.4760412043291004,0.058823529411764705,0.4774475424837264,0.19409480929321826,0.0008790280293239933,1170.0722199932786,271.71086901987826,0.01599999999999968,Kristian,REC_20260311_140545.csv
right,5,brick,6.592,1.072,0.0,17764.0,1.1856901934006914,32217.318619028494,949.6527777777778,0.2312430727718907,0.22543950361944157,0.5228541882109617,0.15744588711699323,0.44482727182939147,0.3539483684743331,4835.0,3871.264705882353,23.0,593.6176470588235,0.15333946194813974,0.0,-0.26865671641791045,-0.26865671641791045,0.6246813495235936,-0.7349016771520707,9324870.430565618,8383514.0,2079385.0,3513696.0,4203478.787118167,1265263.5968416778,1288911.3234060332,0.0810610607568586,0.09677639926152723,0.06119751107329266,0.09406410733686361,0.06721089779141942,0.10100058500414061,0.10841950115101465,0.08239061562188978,0.08577528243544061,0.07340282473427896,0.07505527149510344,0.07364594333817039,4.124642485570224,0.16678037353688405,0.49967046265683385,0.05970149253731343,0.44801000154880904,0.2619785800718694,0.0009523271052751469,1271.7571833228753,392.7181834633902,0.01599999999999996,Kristian,REC_20260311_140545.csv
right,6,brick,7.68,1.104000000000001,0.014492753623188406,20181.0,1.422189719045444,31877.165416642678,1375.0,0.3348162954942184,0.22894349926486032,0.5143877336693972,0.16447219111469935,0.44157139083491764,0.3724702155264642,4761.0,3839.7285714285713,-14.100000000000023,616.2357142857143,0.16048939471167978,8.0,-0.45588235294117646,7.544117647058823,0.3597382180497519,-1.022352491816138,9409717.470993165,8308988.0,2032959.0,3920533.0,4114920.8641813933,1377921.9480425143,1464229.1423697462,0.0791759834214472,0.09320227248205788,0.06002656437769039,0.09352595607576428,0.06544361394592624,0.10175942495935354,0.1123740145322772,0.08709320971348422,0.08764012337181573,0.07343525025950495,0.07737898140121512,0.06894460545946329,3.969809135746483,0.14893926803549482,0.48210572614968483,0.057971014492753624,0.43210734891501323,0.21683458004453954,0.0007194934776134548,1285.397344533329,382.76558406974243,0.016000000000000427,Kristian,REC_20260311_140545.csv
right,7,brick,8.8,1.1359999999999992,1.0,19262.0,1.3322670611772074,30796.67399249471,1781.25,0.4337392918902374,0.22723422278695468,0.5313426514188903,0.1631004461385195,0.441373933382423,0.3695289499507147,4722.0,3847.8333333333335,-0.8000000000000114,612.7013888888889,0.15923282944225467,0.04225352112676056,0.0,0.04225352112676056,0.36580796983027003,-1.1683770085206622,9353434.162602631,8288219.0,2122145.0,3780034.0,4139025.685499582,1382330.8706961419,1369101.492624948,0.07834134650091683,0.09209006511601045,0.06277703180722195,0.09324872583416352,0.06487417161172954,0.10250718297454556,0.11223127012315733,0.08820259597753426,0.08865378784597393,0.07246863314130607,0.07489785016098525,0.0697073389064553,4.018868487193004,0.16236909671929586,0.4950193888790981,0.056338028169014086,0.46031727140080486,0.2208912130327056,0.0009146303581156374,1220.0036885190143,415.83515603338884,0.03199999999999957,Kristian,REC_20260311_140545.csv
right,8,brick,9.952,1.1199999999999992,0.014285714285714285,20311.0,1.4349100079713097,31028.574346882262,1575.0,0.38351684756610466,0.22722491058278982,0.5255628024405639,0.16460998776977892,0.4380762667799366,0.37575646126561674,4753.0,3846.394366197183,5.399999999999977,617.9788732394367,0.16066445985631322,3.0,-0.028985507246376812,2.971014492753623,0.3404316831255551,-1.1985452069250313,9344115.259782758,8483696.0,1781283.0,3488040.0,4259306.741060452,1194524.914123554,1327339.8151323479,0.0786505745274521,0.09363076449867079,0.06153925022153544,0.09201593590485328,0.06363742887064527,0.10089932404227116,0.11196877265703384,0.08821870857653409,0.08789281346349609,0.07509136048393593,0.07639127919324482,0.0700637875603272,3.768639644599096,0.14078669013722564,0.48134880671691793,0.05714285714285714,0.46068004198017165,0.18996490527174154,0.0007236128630199281,571.8190273154611,203.13301266247547,0.0159999999999991,Kristian,REC_20260311_140545.csv
right,9,brick,11.088,1.104000000000001,0.0,19210.0,1.327178945606861,30172.138803870035,1580.2083333333333,0.3847850911096434,0.22745427790624342,0.5284843388690351,0.16758448013787544,0.44042841979518405,0.3805033294983782,4757.0,3862.7,4.100000000000023,631.95,0.1636031791234111,0.0,-0.15942028985507245,-0.15942028985507245,0.26327433461451655,-1.236401922493166,9219309.21516493,8273558.0,1955990.0,3566231.0,4251230.891516945,1247316.3213539352,1308861.8756911862,0.07766218300300677,0.09399420834427435,0.05966588877506111,0.0925370484746051,0.06623790168978769,0.10085099615738807,0.11017829867339278,0.08556561102707581,0.08680826512912877,0.07633076789366432,0.08201886911079963,0.0681499617218156,4.30464467080469,0.20436592883564875,0.525537342814458,0.057971014492753624,0.4385136838456785,0.22445858505028768,0.0006299138136904835,621.1958896622972,117.60381298539521,0.0159999999999991,Kristian,REC_20260311_140545.csv
right,10,brick,12.208,1.1359999999999992,0.0,19430.0,1.3487055884044803,30217.156997308666,1144.345238095238,0.2786512242803614,0.22787471095228085,0.5188143788101744,0.16445383982081674,0.43873291845076956,0.37483815985686786,4757.0,3863.2083333333335,-23.0,620.4236111111111,0.16059802049965666,0.0,-0.323943661971831,-0.323943661971831,0.30778611301764003,-1.1563539662383078,9179609.678062843,8183150.0,1977981.0,3659082.0,4143426.70071728,1246211.2345552098,1347360.7056984524,0.07789653821125934,0.09248573616488885,0.060459965989696246,0.09269785116717177,0.06664365758167326,0.10040589463996175,0.11345276486512722,0.08735542924526606,0.08649977889707389,0.07533677750574329,0.07709841057555068,0.06966719515658762,3.8682044745861335,0.16606426667025265,0.49790510995491827,0.056338028169014086,0.45344689854133496,0.19032476614482174,0.0008656765201515676,582.632245360084,250.15571433205736,0.0159999999999991,Kristian,REC_20260311_140545.csv
right,11,brick,13.36,1.120000000000001,1.0,20756.0,1.4784525354483122,29812.706871399652,1464.5833333333335,0.35663008444308414,0.2381354144695212,0.528369542290656,0.16328336056794213,0.4369052710848879,0.37372714721979217,4741.0,3852.8028169014083,3.3000000000000114,613.6056338028169,0.15926214316265094,0.8285714285714286,0.0,0.8285714285714286,0.4715209409542045,-1.008806537637298,9577178.084820759,8514239.0,2276083.0,3748269.0,4263652.722834501,1333070.5735147651,1344532.549340798,0.07894015331805271,0.09343115858584752,0.06341825413362871,0.09327762119400912,0.06549832022782025,0.0999784316520989,0.11195069256330677,0.08499391333910927,0.08471973942511214,0.07588768374221803,0.07828944722883287,0.06961458458996378,4.206485120944726,0.18589871559431925,0.5131580857600825,0.05714285714285714,0.46984589689735307,0.22842334078331572,0.0006998026950062233,836.340441048579,225.7942337827579,0.0159999999999991,Kristian,REC_20260311_140545.csv
right,12,brick,14.496,1.0879999999999992,0.0,17741.0,1.1834396807445766,29737.944599450715,1189.484126984127,0.2896426683243635,0.23164191419141913,0.5,0.16622820274571706,0.43684813475582224,0.38051713975735046,4848.0,3883.782608695652,-7.800000000000011,629.5217391304348,0.16208984965352022,0.0,-0.4117647058823529,-0.4117647058823529,0.3871721200346771,-0.9208944962365582,9302639.0142652,8429940.0,1615127.0,3587000.0,4239602.838519434,1272548.5426471601,1514665.2141737933,0.07791597165470687,0.09342826543672873,0.060216955679693714,0.09375664692646121,0.06470234830081238,0.09945481209488732,0.11051902933416921,0.08753605666073341,0.08550606199693261,0.07716218687145732,0.07869214608498365,0.07110951895843362,4.39750585740893,0.19528218558498134,0.5280656800066977,0.058823529411764705,0.43755987095775783,0.22734999477827,0.0007482016412882964,1511.1376509107295,173.33471005822315,0.02444040370643136,Kristian,REC_20260311_140545.csv
right,13,brick,15.6,1.104000000000001,0.0,18841.0,1.2910728947326726,30788.61252151516,1364.5833333333333,0.33227980840714094,0.22940563086548488,0.5159541188738269,0.16141413844321242,0.4397417609082487,0.3670657481102795,4795.0,3885.657142857143,-2.8999999999999773,611.5285714285715,0.15738099089692498,0.0,-0.08695652173913043,-0.08695652173913043,0.5202859534456906,-0.9151032436618709,9370798.37365691,8414057.0,1687209.0,3764151.0,4108288.5115075964,1472527.9025772475,1359110.9052046898,0.07843497698495565,0.09448668362770041,0.06233179899704407,0.09356387593935206,0.06555978764393594,0.1007036868189238,0.11136560831776939,0.08532846071265754,0.08542772687833644,0.07448638950572803,0.07608567773055487,0.07222532684304181,4.34439261077882,0.20859771114313594,0.5323925021116704,0.057971014492753624,0.45734089402138284,0.2617752125801034,0.000696058935618125,1525.748450214953,139.2475645496688,0.016000000000000902,Kristian,REC_20260311_140545.csv
right,14,brick,16.72,1.1040000000000028,0.014492753623188406,20330.0,1.4367691271220133,31069.736352276952,1317.7083333333335,0.3208656165152926,0.22773300268650548,0.5261417648274437,0.1681862609228435,0.43601292506090533,0.38573686983992866,4839.0,3917.0857142857144,-6.199999999999989,643.0785714285714,0.16417270857342922,1.0,-0.029411764705882353,0.9705882352941176,0.38816352288745565,-0.9086778895854466,9530183.51772357,8713381.0,1353677.0,3615100.0,4249262.546993484,1484295.6007743794,1248760.5393465126,0.07828341770120643,0.09410421742111481,0.06188638783935579,0.09394374826766254,0.06531094545507593,0.09935593517046201,0.11123429955214519,0.09025660476447504,0.08329807874659002,0.07535850267691725,0.07792965615836847,0.0690382062466265,4.010180633450464,0.17575844350460046,0.512182758192101,0.057971014492753624,0.4481044379081967,0.24194377187285948,0.0006695293204127932,1299.3615098706484,90.64440117202065,0.009237604307035525,Kristian,REC_20260311_140545.csv
right,15,brick,17.84,1.0719999999999992,0.0,19382.0,1.344008866339545,31213.062986512556,1417.96875,0.3452793047284127,0.2302865509307676,0.5118176113783727,0.16337666689513888,0.4418233605215259,0.3697782450936823,4781.0,3861.970588235294,-29.100000000000023,615.0882352941177,0.15926797505083506,0.0,-0.6567164179104478,-0.6567164179104478,0.4370643754563448,-1.0517185397579265,9608754.07281532,8702386.0,1638340.0,3729943.0,4333500.351180922,1308684.9725912092,1337272.7859238216,0.07914277228175191,0.09555469243833153,0.061420944808730685,0.09271021346919814,0.06708324765625595,0.10114464575384405,0.11031780483904133,0.08720784116612214,0.08533056120389622,0.07285978660695926,0.07616882572901673,0.07105866404685203,4.607375768869133,0.19532733638191604,0.534693820198335,0.05970149253731343,0.4761813675064522,0.22955310655568847,0.0010473204355967063,753.7136945374752,50.16542549048272,0.01847520861406961,Kristian,REC_20260311_140545.csv
right,16,brick,18.928,1.1199999999999974,1.0,17362.0,1.14635514610686,31724.97494088845,1166.6666666666667,0.2840865537526701,0.2261954261954262,0.5037422037422037,0.16293292249519226,0.44365107141439686,0.3672546579807738,4810.0,3903.6197183098593,-26.80000000000001,620.7816901408451,0.15902719397309106,0.15714285714285714,0.0,0.15714285714285714,0.39436335715426885,-1.0270704250588814,9348381.64496615,8548448.0,1277930.0,3561344.0,4194072.8665502905,1345201.1270298578,1322701.5931522765,0.07716564979415998,0.09509050826787704,0.05984694595481983,0.09303030412365554,0.06794704806301122,0.10131080939684005,0.1112257673448623,0.08683886750109143,0.08627240156301302,0.07226589983294666,0.07609405499410082,0.07291174316362206,4.091864514677757,0.1739852278303995,0.5088739039969217,0.05714285714285714,0.4833532590682272,0.2477132403746943,0.0008253722322668535,1515.922601366353,126.50327618108759,0.024440403706430816,Kristian,REC_20260311_140545.csv
right,17,brick,20.064,1.088000000000001,0.0,18832.0,1.2901922593454973,31006.78983706633,1625.0,0.39569198558407626,0.22487644151565075,0.5086490939044481,0.16083918712204068,0.4440460485516806,0.36221285528054276,4856.0,3856.0434782608695,11.199999999999989,604.572463768116,0.15678569683575944,0.0,-0.39705882352941174,-0.39705882352941174,0.4675403009260754,-0.756090796255739,9539143.838500287,8495913.0,2074498.0,3809355.0,4295153.871139095,1201350.0238223616,1436712.5904414207,0.0787921839235982,0.09417928566864738,0.059999924830963634,0.0943221068377514,0.06668621061612301,0.1024929810912289,0.11053606798287649,0.08579042120969531,0.08636546433792992,0.07209838123480176,0.07504876591234538,0.07368820635403864,4.109038551966293,0.14431196253596448,0.49312022358017876,0.058823529411764705,0.4680107671775129,0.2279507922710731,0.0008921649525023333,1044.333918501804,229.5227367127566,0.02444040370643005,Kristian,REC_20260311_140545.csv
right,18,brick,21.168,1.1039999999999992,1.0,19387.0,1.3444981082213092,30385.29446952917,1175.0,0.28611574342233204,0.22841167943673638,0.5065230896665976,0.15436234215571765,0.444751746479494,0.3470752917273716,4829.0,3889.457142857143,-11.199999999999989,584.8285714285714,0.15036251845648677,0.4057971014492754,0.0,0.4057971014492754,0.6102092035657336,-0.7350606475463906,9332406.080407934,8588765.0,899193.0,3538131.0,4296634.914928452,1367897.7980270234,1312185.678839389,0.07920679345630312,0.09153682849608097,0.06062909991111503,0.0957680469547715,0.06478685971600884,0.10330857776700383,0.11298675540472045,0.08210473734858335,0.08935143354562883,0.07241554091279723,0.0722576048071343,0.0756477216798525,4.246427909642736,0.1899073311738919,0.5192066130501174,0.057971014492753624,0.45147113768103825,0.26981335632325143,0.0011934558413725263,1046.3866398229666,262.24635011406366,0.015999999999998266,Kristian,REC_20260311_140545.csv
right,19,brick,22.288,1.088000000000001,0.0,18042.0,1.212892042026774,32193.888301974337,1333.3333333333333,0.3246703471459087,0.22495928338762214,0.500814332247557,0.15878199930068368,0.44177075816302996,0.35942170541309326,4912.0,3896.144927536232,20.100000000000023,602.9347826086956,0.15475163111808773,0.0,-0.6323529411764706,-0.6323529411764706,0.5423190136691127,-0.9162416924622034,9571911.584412228,8532565.0,2191784.0,3743382.0,4144473.7799889776,1431047.81936117,1435853.442595698,0.08041765550488404,0.09381253859258874,0.0615658733642322,0.09416219674594731,0.06611514912548265,0.10148641912853285,0.10965874852139237,0.08526079290565924,0.08619445457047843,0.07267309938475043,0.07352120639502444,0.07513186576102725,4.080590690324758,0.14289078414212064,0.48745856032712187,0.058823529411764705,0.4665099879231705,0.22742443026214593,0.0009044341832422909,675.9129628386577,228.2684417116861,0.009237604307033041,Kristian,REC_20260311_140545.csv
left,0,brick,0.432,1.1360000000000001,1.0,20512.0,1.4545775316182254,30060.074201505224,1171.875,0.28535479729620883,0.18089123867069487,0.50547583081571,0.13793324672408536,0.4916454153234213,0.2805543231462523,5296.0,4329.791666666667,37.30000000000001,584.3333333333334,0.1349564547947842,0.8450704225352113,0.0,0.8450704225352113,0.41892922551883294,-1.4621689588563243,9720298.181739539,8869763.0,2310292.0,3236364.0,4167424.1378555475,1250550.148183773,1194497.5439694556,0.08404625575390141,0.11408041829059005,0.05958395483488106,0.09807053842082471,0.10093185135286853,0.10459830951579015,0.10511475725352451,0.09219714831031772,0.07396429774334792,0.04766395611798104,0.045736098413767655,0.07401241399220516,3.7795446230581815,0.15243100200099047,0.4768547855977028,0.056338028169014086,0.4674899979604889,0.19210991482582765,0.000919104733374819,0.0,0.0,0.0,Kristian,REC_20260311_140545.csv
left,1,brick,1.584,1.088,0.014705882352941176,20047.0,1.4090780366141669,31118.501522406248,1506.25,0.36677603279139376,0.18811121764141897,0.5091083413231065,0.1362473153445968,0.493855215733345,0.27588514002472087,5215.0,4298.449275362319,-35.19999999999999,571.8405797101449,0.13303415792011272,6.0,-0.746268656716418,5.253731343283582,0.6110278836401547,-1.133315930543616,9634532.521935562,8850215.0,1841147.0,3332880.0,4282418.199975034,1381700.3804645133,1274580.2497430167,0.08364661337253408,0.11434861915149717,0.05947544277848769,0.09807716298091998,0.10035638062934728,0.10590944492958364,0.10526883641893098,0.09110801670976726,0.07516360804199694,0.04754326636164711,0.045139298634829544,0.0739633099904583,4.22467960273357,0.18213029013348836,0.5262613349952023,0.058823529411764705,0.4658397790811172,0.24480701543043254,0.0012493325005245143,328.8046532517446,236.43882995925182,0.033941125496954314,Kristian,REC_20260311_140545.csv
left,2,brick,2.688,1.1039999999999996,0.9710144927536232,20784.0,1.481192289986191,32593.94656987705,1268.75,0.30894412720602876,0.18352198923733531,0.4947114492484691,0.13237499506689293,0.49162358419827146,0.2692608721827393,5389.0,4343.828571428571,32.10000000000002,561.5142857142857,0.12926713761395478,0.7761194029850746,-18.0,-17.223880597014926,0.7032847990041641,-1.023567396397428,10350752.625206487,9175195.0,2741563.0,3929085.0,4418034.166104868,1419182.3883391141,1406130.6181740009,0.08528684373232304,0.11475064788139495,0.060410829156636016,0.09806359103884658,0.10059263059578778,0.10435823565781338,0.103933988449952,0.08703974111054107,0.07385847902442876,0.05020587500164437,0.04533525395635187,0.07616388439428023,4.267798542682336,0.16378924227622,0.49937725494782687,0.057971014492753624,0.4725185557167196,0.2059597954605674,0.001059298793622327,372.6879838864315,172.04537010626007,0.024440403706431215,Kristian,REC_20260311_140545.csv
left,3,brick,3.808,1.056,0.9848484848484849,20976.0,1.4999791782459313,33353.77822676166,1153.125,0.2807891205394695,0.19943181818181818,0.5077651515151516,0.13165854855827236,0.4952587711868801,0.2658378936786785,5280.0,4317.477611940299,-7.300000000000011,553.4850746268656,0.12819639715007725,1.3076923076923077,-18.0,-16.692307692307693,1.0141994103565066,-0.3183517367738782,10245182.300061721,9249721.0,1866804.0,3990171.0,4630625.976186555,1321276.3588239884,1385107.1923763156,0.0861061081131534,0.11555945808601623,0.05871310985200729,0.09924949269024548,0.10219482768753176,0.10473569766758507,0.1010160022954254,0.08618907529617555,0.07351929505550159,0.05039910671999613,0.045469473262096785,0.07684835327426531,4.139512032725144,0.15496614747624604,0.5113546147184016,0.06060606060606061,0.4897698128509777,0.20289436015181694,0.0009977027036780887,490.42056781229456,180.03363401042594,0.024440403706431007,Kristian,REC_20260311_140545.csv
left,4,brick,4.88,1.1360000000000001,0.028169014084507043,20909.0,1.4934233370302927,33348.03496459724,1265.625,0.30818318107990555,0.21099887766554434,0.4992517770295548,0.1376350287247965,0.49018793907111013,0.2807801207543911,5346.0,4383.069444444444,31.80000000000001,589.0972222222222,0.13440289497783453,31.5,-2.217391304347826,29.282608695652172,0.6670404841194885,-0.9877315669024274,10443836.43721377,9338907.0,2880840.0,3682295.0,4485917.326848437,1359777.612783214,1143842.6343827143,0.0835696699104192,0.11305179969643293,0.05868857757596306,0.09835826618205785,0.10015495229433964,0.10429968851103204,0.10452150161131374,0.08857313970105932,0.07432323238724765,0.0509504691347071,0.04906188902373717,0.07444681397169031,3.8727797074333385,0.16501596211919264,0.4938160242111559,0.056338028169014086,0.47024878217785016,0.19355319762056344,0.001094090630565314,97.44913202965908,65.87254897400989,0.040265783654777294,Kristian,REC_20260311_140545.csv
left,5,brick,6.032,1.008,0.9682539682539683,19947.0,1.3992931989788853,31974.90736499482,1142.361111111111,0.2781680838828228,0.1979108375303115,0.49990673381831746,0.13363960430368502,0.49538245948591264,0.2697705616026621,5361.0,4326.234375,-11.699999999999989,563.3203125,0.13021030847409878,1.4262295081967213,-68.0,-66.57377049180327,0.6896632258027786,-0.7109270406482535,9960917.717979904,8995601.0,2124589.0,3712838.0,4709507.55109478,1310624.4539901998,1256622.897040448,0.08511660328157787,0.11472159318691559,0.05793144297689604,0.09886629177366286,0.10162200816963367,0.10529509280227103,0.1017917574102767,0.08618205064306068,0.07487747355342948,0.04925978496021728,0.04745755366062432,0.07687834758143448,4.520086576889963,0.2131747629767219,0.5788418077071084,0.06349206349206349,0.4593439409978143,0.22813319677333638,0.001454621759818671,575.7276555224132,68.27163589664535,0.06466323014923808,Kristian,REC_20260311_140545.csv
