foot,step_id,surface,contact_time_sec,stance_duration,time_to_peak_frac,impact_mag,impact_mag_norm,accel_mag_strike,loading_rate,loading_rate_norm,heel_pmax_ratio,fore_pmax_ratio,heel_mean_ratio,fore_mean_ratio,heel_fore_ratio,total_pmax,total_p_mean,midstance_diff,heel_impulse,heel_impulse_norm,rise_slope,fall_slope,slope_asym,heel_skew,heel_kurt,gyro_mag_strike,gyro_x_strike,gyro_y_strike,gyro_z_strike,gyro_x_std,gyro_y_std,gyro_z_std,pressure_01_mean_ratio,pressure_02_mean_ratio,pressure_03_mean_ratio,pressure_04_mean_ratio,pressure_05_mean_ratio,pressure_06_mean_ratio,pressure_07_mean_ratio,pressure_08_mean_ratio,pressure_09_mean_ratio,pressure_10_mean_ratio,pressure_11_mean_ratio,pressure_12_mean_ratio,accel_spec_centroid,accel_hf_frac,accel_spec_entropy,accel_zcr,accel_jerk_ratio,gyro_hf_frac,heel_ripple_frac,impact_mag_roll3_std,loading_rate_roll3_std,stance_duration_roll3_std,source_user,source_recording
right,0,grass,1.152,1.152,0.0,16252.0,1.153983606479932,29208.118837063095,843.75,0.20121474607102963,0.22363455809334656,0.5086395233366435,0.1590614583982981,0.4380392075338337,0.3631215098158092,5035.0,3953.671232876712,18.0,613.7945205479452,0.15524672750833282,0.0,-0.6944444444444444,-0.6944444444444444,0.6075807060423681,-0.9911775370314637,8750434.852192089,7811744.0,1623679.0,3593109.0,4014311.803916305,920891.2572037496,1352511.3300884655,0.07973168686637702,0.09026810524638104,0.06508256588293178,0.09225689319446466,0.06410896063308595,0.10243297368840475,0.10966052013387939,0.08388596691821022,0.08897227477149727,0.0723724785009944,0.07517549148008787,0.0760520826836857,3.761107113468849,0.14971475461691688,0.48296067506321605,0.05555555555555555,0.4341699509666838,0.21229591967867584,0.0005573370661672196,0.0,0.0,0.0,Kristian,REC_20260311_142453.csv
right,1,grass,2.32,1.12,0.014285714285714285,17080.0,1.2418165215596808,30212.525101354902,1019.4444444444445,0.2431137837302646,0.22441353539547437,0.5179572347934399,0.16081787646340537,0.434323853280818,0.3702718035137046,4817.0,3887.0845070422533,-1.6999999999999886,610.0140845070423,0.15693357924219972,3.0,-0.21739130434782608,2.782608695652174,0.5093029201338154,-1.0823151086408913,8829177.528944017,7893600.0,1806939.0,3518583.0,3966953.0127085224,1290099.5168938527,1366262.1287094215,0.07900124283017432,0.0884039958982981,0.06647873238569042,0.09266150451295914,0.06213426189294269,0.10284691448386314,0.11308305221698438,0.08585311414108841,0.08827717649275499,0.0728921708945841,0.07496476232231696,0.07340307192834342,4.312596742678737,0.19339031987398633,0.53416227725671,0.05714285714285714,0.45045148533954993,0.239202700666167,0.0006856368682417666,585.4844148224613,124.23473308346985,0.02262741699796946,Kristian,REC_20260311_142453.csv
right,2,grass,3.456,1.1679999999999997,0.0273972602739726,12620.0,0.7687068582074114,29557.57772551736,1036.4583333333333,0.24717120042058577,0.21988136633258334,0.5172836980977705,0.16539012648571752,0.4373498819672807,0.37816433319169074,4889.0,3932.7162162162163,2.6000000000000227,636.0472972972973,0.1617323148501311,4.0,-0.18309859154929578,3.816901408450704,0.3517341525117614,-0.976297873649639,8470675.106241945,7391469.0,2068389.0,3583335.0,3629713.1236159797,1028747.5059890556,1245634.9736832287,0.07943413018304521,0.09528865614508918,0.06315008195284877,0.09222358523955315,0.06747279405953523,0.09818191814336422,0.10912614553588917,0.08726861635414626,0.08418292837973891,0.07463035313602798,0.07812151013157126,0.07091928073919064,3.4852453334094653,0.11727136217883108,0.45432789220096287,0.0821917808219178,0.4883051086259996,0.21872676354781473,0.000681988886032023,2372.361973505168,106.68841858411544,0.024440403706430913,Kristian,REC_20260311_142453.csv
right,3,grass,4.64,1.12,0.014285714285714285,17616.0,1.298674543881837,29292.941590082755,1126.1160714285716,0.2685524851662287,0.22635983263598328,0.5089958158995815,0.1601338380081072,0.4374739164673734,0.3660420244047981,4780.0,3881.0845070422533,-18.899999999999977,606.4295774647887,0.15625260835326268,4.0,-0.30434782608695654,3.6956521739130435,0.5556326193206215,-0.7953758775535844,8919537.253501272,8131838.0,1480737.0,3352428.0,4096101.891166321,1158771.8869601456,1273460.7007098792,0.07914514964236076,0.09349063896036029,0.06548191481254333,0.0919773404413606,0.0655399790243035,0.10055632772892724,0.11184255888981227,0.08517294062571446,0.08590963031242174,0.07203954172820869,0.07496089738239275,0.0738830804515944,4.599619034427178,0.19335183053930774,0.548079592174791,0.05714285714285714,0.48777653259404236,0.24758316508533043,0.000548516135760438,2742.8364880174686,57.31029346013207,0.027712812921101858,Kristian,REC_20260311_142453.csv
right,4,grass,5.776,1.1680000000000001,1.0,16501.0,1.1803971280437695,29621.217631961048,1031.6840277777778,0.24603263961462832,0.22432599300267544,0.518419427865816,0.16125891941714393,0.43403514949409167,0.37153424003795843,4859.0,3914.554054054054,5.0,616.6283783783783,0.15752199863986438,0.2054794520547945,0.0,0.2054794520547945,0.5062798459593728,-0.9983936423773963,8749334.61668686,8052425.0,1478293.0,3086091.0,3982875.941116961,1158715.4345708196,1168072.6712938223,0.0828060218795417,0.09379757453991859,0.06634976197627013,0.09237875288683603,0.06456846763809346,0.09887564425204624,0.10950127210651864,0.08450446531826827,0.08441471017719736,0.07316079633522854,0.07675445409887564,0.07288807879120537,4.0829037363449485,0.1547105483499127,0.5010531940664048,0.0821917808219178,0.5201029081806325,0.22234333366547326,0.0006625525191652502,2622.511582433908,53.195731128787884,0.027712812921101858,Kristian,REC_20260311_142453.csv
right,5,grass,6.96,1.1520000000000001,0.0,14989.0,1.0200065874633588,28538.844843476058,1003.4722222222223,0.2393047803066978,0.22192946899067695,0.5176327523307661,0.16221049192730275,0.4388383569181038,0.3696360843805678,4934.0,3983.4931506849316,11.899999999999977,631.2808219178082,0.15847418284358397,0.0,-0.2361111111111111,-0.2361111111111111,0.39787471493534343,-0.9567138039426992,9034517.35605843,8283332.0,1866804.0,3086091.0,3889709.8594880686,1099601.9209539788,1126527.7362415914,0.08044842586701971,0.09719905775546346,0.06769373613714127,0.09033855465190255,0.06624598084561288,0.09979194965525541,0.10562423700545058,0.08358121700854554,0.0852628140098695,0.07276603793050086,0.0786292749187572,0.072418714214481,3.802752710273134,0.14904185339478918,0.48729318858502235,0.05555555555555555,0.48075928460775,0.20238284783817562,0.0006423778294061901,1318.4901718758979,64.23243026815423,0.024440403706431132,Kristian,REC_20260311_142453.csv
right,6,grass,8.128,1.1519999999999992,0.013888888888888888,16458.0,1.1758357568500144,27885.17573909119,1625.0,0.3875246961367978,0.22190319934372438,0.5102543068088597,0.1635198791409777,0.4354736617556032,0.3754988958038352,4876.0,3917.1643835616437,-19.399999999999977,625.931506849315,0.15979199378918912,5.0,-0.38028169014084506,4.619718309859155,0.3686157728261639,-1.2196892740521919,8503659.210505793,7676132.0,1948660.0,3097086.0,3896493.049484898,1093627.2859758,1103183.2040920514,0.07984528926082259,0.0917633317363343,0.06648994764873949,0.09423226893930123,0.06302084608309758,0.10136980552748179,0.11099026763139397,0.08703178494367955,0.08508740946938832,0.07086479246589475,0.07648809419729816,0.07281616209656833,4.56868044430415,0.17784079315370732,0.5473637090138826,0.08333333333333333,0.5177675367773004,0.19927780588428212,0.0006958941831822801,860.8091155031609,350.97875705330284,0.00923760430703392,Kristian,REC_20260311_142453.csv
right,7,grass,9.296,1.152000000000001,1.0,16846.0,1.2169941759936649,29470.927572779245,1316.9642857142858,0.3140653443965806,0.2189634391321816,0.51727601446364,0.15905095746783304,0.43706161564678925,0.36390969093080405,4978.0,3950.917808219178,-1.8000000000000114,613.6849315068494,0.15532718251698063,0.4444444444444444,0.0,0.4444444444444444,0.4430512767660721,-0.8118268086877549,8703344.635372886,8124507.0,1226617.0,2869844.0,3997888.9213825436,1039949.2683107835,1070108.145842487,0.0814480422443892,0.09371153572778304,0.07098055939837111,0.09443271374433547,0.06598432131254399,0.09806634144311882,0.11044078539059765,0.08417326301847673,0.0848667034190079,0.07212473605924755,0.07487769444935632,0.06889330379277227,4.065757450512374,0.16762895355834548,0.5120360744056229,0.08333333333333333,0.4849235670418468,0.23520166517834554,0.0006235110655509345,979.5367952932315,310.76788060582174,0.0,Kristian,REC_20260311_142453.csv
right,8,grass,10.464,1.1839999999999993,1.0,16238.0,1.1524985088819653,30435.27207041199,1059.0277777777778,0.2525534878669302,0.22228879568603954,0.5162772119033353,0.1585578412447769,0.43749184545335934,0.36242467806543305,5007.0,3985.5066666666667,-21.69999999999999,617.2066666666667,0.1548627861618598,0.22972972972972974,0.0,0.22972972972972974,0.4674694088722218,-0.8525372856796749,9048281.335189408,8093964.0,2140471.0,3431840.0,4089586.4904715475,1164859.0848848464,1110272.8658093403,0.07979244796981061,0.08976859487543197,0.06322240919598679,0.09517485020725094,0.06529659131586783,0.10087885103692379,0.11153412531405459,0.08441586682412608,0.0863729580178848,0.07320524701167229,0.07414197442065083,0.07619608381033946,3.840476214926153,0.16442681933255446,0.4952861553057415,0.08108108108108109,0.4841594003687902,0.20930163855150874,0.0007783131748653471,307.84411639659675,283.3554304312141,0.01847520861406719,Kristian,REC_20260311_142453.csv
right,9,grass,11.664,1.152000000000001,0.013888888888888888,17123.0,1.246377892753436,29261.668612709018,1505.2083333333335,0.3589571704600467,0.22521808088818399,0.510904044409199,0.1665278704046055,0.43252601134097923,0.38501238315867936,5044.0,3964.2876712328766,-17.899999999999977,644.9589041095891,0.16269225585967872,11.0,-0.5774647887323944,10.422535211267606,0.36907480826094125,-1.1823792128073565,8807902.036744675,7971791.0,2261423.0,2985909.0,4011993.3502587136,1360413.1815999355,1235734.6153150047,0.08143251564481518,0.09340239743186601,0.06465947690510827,0.09214459230181796,0.06617990068868286,0.09863749295940123,0.10695835766587306,0.08732761331476574,0.08216162795921117,0.07406882682027555,0.07920025708983977,0.07382694121834323,4.054106093574909,0.1656798358974433,0.5176152364620783,0.08333333333333333,0.507890286032084,0.20939062140163495,0.0006014604802908528,452.6989433755444,223.99559212417086,0.018475208614066693,Kristian,REC_20260311_142453.csv
right,10,grass,12.832,1.1839999999999993,1.0,15233.0,1.0458897170279224,29762.6879666471,1164.9305555555557,0.2778088366536232,0.22729132569558103,0.5102291325695582,0.17155397581926382,0.42650860327974793,0.4022286408760661,4888.0,3961.28,-14.800000000000011,664.8133333333334,0.16782790747771764,0.10810810810810811,0.0,0.10810810810810811,0.22192243462956432,-1.369693164415316,8887554.0646283,8070751.0,1588249.0,3365867.0,4026497.6249689106,1185409.0338889812,1220220.9777162177,0.07873885882004471,0.08971510892102215,0.0665710746694671,0.09111869564046637,0.06325901392142606,0.09753076446670436,0.11158682715351266,0.0910278159248189,0.08488502033012897,0.07532245469477879,0.0805261598944449,0.06971820556318496,3.910499154255868,0.17059258368787125,0.5035951281901329,0.08108108108108109,0.46387529151995804,0.1979958611944787,0.00045384384728769546,945.6347074848729,233.12423459974335,0.01847520861406642,Kristian,REC_20260311_142453.csv
right,11,grass,14.032,1.1519999999999992,0.9861111111111112,18415.0,1.3834311853657972,28717.60947572064,1266.1830357142858,0.3019551976423057,0.23171987641606592,0.5093717816683832,0.16944193794683138,0.4284132713264385,0.3955104785202168,4855.0,3947.123287671233,-14.0,653.5753424657535,0.1655827028527799,0.2676056338028169,-7.0,-6.732394366197183,0.23023817516498124,-1.2279102442453182,9068195.186235683,8158716.0,1727526.0,3561344.0,4110023.4028482954,1072457.4388829933,1271711.0093742681,0.07994030679530784,0.0892621642257236,0.06570417158325814,0.09270840563614909,0.06340320677448462,0.09817102797251336,0.11070313042271117,0.08928645797181926,0.08486846671756784,0.07376622475185673,0.08015547997501214,0.07203095717359617,3.9574049046650375,0.17272277572393885,0.5074470808496294,0.05555555555555555,0.47893720848820964,0.21086446906634707,0.00037794051904732677,1600.3378809905528,174.72555799002416,0.01847520861406719,Kristian,REC_20260311_142453.csv
right,12,grass,15.2,1.1039999999999992,0.014492753623188406,16089.0,1.1366928273036048,30419.885223320616,1879.6875,0.4482617398582382,0.22401289282836423,0.5169218372280419,0.16250461044455533,0.4381477222595879,0.37089000396122773,4964.0,3950.657142857143,-13.5,626.3142857142857,0.15853420407454816,1.0,-0.39705882352941174,0.6029411764705883,0.5069265112181262,-0.8467331402874647,9111681.661685564,8212472.0,2250427.0,3242472.0,4183235.649043466,1167311.3402423863,1264143.889879203,0.08005178162041758,0.09507640681839549,0.06646272229574826,0.09172795845899055,0.06774641470135168,0.09886962747607994,0.1075517273798934,0.08526972004657453,0.08472731480477028,0.0718325341896104,0.0772348903979808,0.0734489018101871,4.085881102127504,0.15258901193404795,0.49842076245272304,0.057971014492753624,0.4806228000455058,0.21398205637886436,0.0008375108189603034,1646.619567477564,386.7637698622496,0.040265783654777426,Kristian,REC_20260311_142453.csv
right,13,grass,16.32,1.152000000000001,0.013888888888888888,16740.0,1.2057498656090593,29964.97038209783,1039.0625,0.24779223358747166,0.22444399102224036,0.5211181391552744,0.16649134386645215,0.4291042723760021,0.3879974043242966,4901.0,3984.821917808219,0.10000000000002274,648.5958904109589,0.162766593787385,4.0,-0.4084507042253521,3.591549295774648,0.1640396706785371,-0.690704212600854,8943961.781393299,8156272.0,1703092.0,3251024.0,4082844.675250401,1172050.4603754953,1203021.8606100285,0.07904651898299024,0.0916216327709253,0.07232237393946894,0.09055594516177826,0.06362498796804313,0.09882705608954527,0.10973832212642494,0.0879845440919654,0.08447465038571017,0.07381089889030981,0.07850679977448675,0.06948626981835183,4.07488121411573,0.18690536398072388,0.5085158522463167,0.05555555555555555,0.44045274778522747,0.2182808543445772,0.000506863760882664,1199.9793053771107,434.8604864525799,0.027712812921102867,Kristian,REC_20260311_142453.csv
right,14,grass,17.488,1.1679999999999993,1.0,16975.0,1.23067828957493,29660.003809844664,1340.2777777777778,0.31962506989060674,0.21483986473045555,0.5094489755321265,0.16384032772829038,0.4322223053943151,0.3790649526491325,5027.0,3971.6486486486488,-22.899999999999977,636.1554054054054,0.1601741396792128,0.0684931506849315,0.0,0.0684931506849315,0.2971535256413835,-1.0207404139625076,8759139.674154364,7870387.0,1747074.0,3424510.0,3933340.396849999,1063571.008590782,1268341.3066188237,0.08003688304264688,0.09303781532619716,0.07113255438887792,0.09186735714625963,0.06442623731720097,0.09995168457513048,0.10803941449871045,0.08632809575981108,0.08293921102952685,0.07352450816938978,0.07751223196847928,0.07120400677776946,3.6151131202484965,0.14028983725596483,0.47778835734891406,0.0821917808219178,0.45299758164672815,0.1887720293885702,0.000640379242185144,458.9883803903232,425.8998087617165,0.03330665599145859,Kristian,REC_20260311_142453.csv
right,15,grass,18.672,1.184000000000001,1.0,16621.0,1.1931265360263419,27919.548384599635,1867.1875,0.4452807806571859,0.22260205107580938,0.509350492660366,0.1686767884302372,0.4263848493742829,0.3955975187150068,4973.0,3997.5466666666666,-14.300000000000011,659.6533333333333,0.16501454225258158,0.24324324324324326,0.0,0.24324324324324326,0.26434111271735916,-1.3674719230191836,9033336.71261146,8268671.0,1484402.0,3320663.0,3932635.2772754254,1369666.8466443543,1228507.7566597653,0.07895175707767431,0.09117925661072125,0.06688769111721855,0.09260346345758733,0.06314206046375109,0.0980668143127785,0.10921031566027163,0.08852763027990501,0.08139325452944472,0.07671371774688476,0.0801491581503322,0.07317488059343064,3.9033057678225664,0.15849915640696752,0.503663453095338,0.05405405405405406,0.4916331469963431,0.1666938719079961,0.0005446975255967107,180.13976055644304,419.1569941688604,0.0159999999999995,Kristian,REC_20260311_142453.csv
right,16,grass,19.872,1.120000000000001,1.0,16740.0,1.2057498656090593,29427.306230778242,1625.0,0.3875246961367978,0.22109654350417163,0.4958283671036949,0.1720541640853173,0.43102575449154795,0.3991737437782057,5034.0,3978.521126760563,-12.600000000000023,668.8802816901408,0.16812284272944508,0.07142857142857142,0.0,0.07142857142857142,0.39110155462773033,-1.229273407392043,9127954.773952652,8064642.0,2241875.0,3640756.0,3942851.903712181,1182278.0165777493,1409459.7898118214,0.07991857686520931,0.09612532082485177,0.06654748207806001,0.09216390831046996,0.0666890875298699,0.09716966103194974,0.10722364811045226,0.09041862111691301,0.07887777679440658,0.07404195061509869,0.08163554296840429,0.06918842375431454,3.989539720564415,0.16679150976807225,0.49978415734597326,0.08571428571428572,0.45143121180979345,0.18542208621404382,0.0005890413959956361,180.13976055644304,263.74084007971146,0.03330665599145772,Kristian,REC_20260311_142453.csv
right,17,grass,21.008,1.184000000000001,0.013513513513513514,14821.0,1.0021854162877577,28117.830463960054,1626.7857142857142,0.3879505474512338,0.22665056360708535,0.5050322061191627,0.16409114853268533,0.4373294363540587,0.37521176232862297,4968.0,3923.266666666667,-14.600000000000023,629.0866666666667,0.1603476694591242,3.0,-0.6301369863013698,2.3698630136986303,0.4083708039627848,-0.9251125999919103,8640706.942338688,7687128.0,1927890.0,3442836.0,3796100.5746662994,1241019.246487602,1224467.5778947799,0.07884925827116859,0.09219188091556356,0.0667063161651005,0.09425138914849869,0.06508861662899965,0.10019541538513822,0.10918792162993424,0.08578225628302945,0.08560213427585854,0.07209638226647862,0.0783088922496559,0.071739536780574,4.060047303210774,0.16478412524485658,0.5024815746562821,0.05405405405405406,0.4961142533213917,0.18581012842418276,0.0007102078039129052,1075.2303629145395,139.31438816957595,0.03695041722813586,Kristian,REC_20260311_142453.csv
right,18,grass,22.208,1.2000000000000028,0.9866666666666667,18482.0,1.3905384381560668,29120.837505126805,1416.6666666666665,0.3378420427859262,0.22752750674693792,0.5104837035499273,0.1713312572340122,0.42663509403801314,0.40158735094268966,4817.0,3967.4605263157896,-21.69999999999999,665.4078947368421,0.16771632391129151,0.16216216216216217,0.0,0.16216216216216217,0.2614780597550769,-1.3525223854344637,9048496.520142006,8137946.0,2015855.0,3403741.0,3858978.267053237,1118436.1909515795,1282478.445682362,0.07812567365443228,0.08882454970864963,0.06501905302012755,0.09136495239232308,0.06330776348386712,0.09893973010708824,0.11224533789677209,0.08975647288634185,0.08419809834608509,0.07557532161298988,0.08157478434767035,0.07106826254365281,3.704108754308587,0.14080512798075306,0.48914008818774346,0.05333333333333334,0.48107412283465556,0.1441232734985617,0.0005098401335603171,1831.2129859740508,120.80009707889687,0.042332020977033924,Kristian,REC_20260311_142453.csv
right,19,grass,23.424,1.152000000000001,0.013888888888888888,16707.0,1.2022492784138519,27072.461690803073,1318.4523809523807,0.31442022049194396,0.22197535851343164,0.4873762876186629,0.17339164243907035,0.4296050174683006,0.40360711674360655,4951.0,3924.917808219178,4.199999999999989,665.7534246575342,0.1696222589077862,4.0,-0.4788732394366197,3.5211267605633805,0.302171254740177,-1.3761298771330395,8394974.373063803,7804414.0,1434311.0,2740341.0,3782569.9752873327,1076150.8619806254,1133723.6617447992,0.07879058631364762,0.0930653813534181,0.06468680960075947,0.09075488885553838,0.06400971663310287,0.09805283419249683,0.10960529668189545,0.08960662294647127,0.08372219643374436,0.07410328808909705,0.08378501949259909,0.06981735940722954,4.0947893675246085,0.16953122290844494,0.5034904329631382,0.06944444444444445,0.4632010690068768,0.20900713842413546,0.000457510635906571,1830.7804346780633,157.5148165174466,0.024440403706431316,Kristian,REC_20260311_142453.csv
left,0,grass,0.56,1.184,0.972972972972973,20727.0,1.6286844458300231,30314.617150806967,960.4166666666667,0.22903703194751768,0.20720221606648198,0.5120960295475531,0.13738665850745216,0.4881642355737831,0.28143532134407023,5415.0,4532.026666666667,-1.8000000000000114,608.5933333333334,0.13428723573265236,1.5694444444444444,-12.0,-10.430555555555555,0.8870515924597476,-0.5424451423602741,9454696.820736242,8599760.0,2425134.0,3090978.0,4101504.866923476,1326673.5156672366,1049679.4894270957,0.08566881042182747,0.11180869780113092,0.05810792522550618,0.09735158957581891,0.10122329377291102,0.10405057928461733,0.1021853357732523,0.08799595177433496,0.07373007513930485,0.052718136404022335,0.04939070673311719,0.07576889809415654,3.458763851102103,0.1466463100328397,0.4734831064641738,0.08108108108108109,0.4790368093922488,0.1791117780103478,0.0012641009144994083,0.0,0.0,0.0,Kristian,REC_20260311_142453.csv
left,1,grass,1.76,1.136,0.014084507042253521,19253.0,1.4723248844440937,30784.388007559937,1875.0,0.4471438801578436,0.20437556973564266,0.5013673655423884,0.1415585303828242,0.48991177074071546,0.2889469876764382,5485.0,4467.527777777777,11.100000000000023,617.7152777777778,0.13826780906666006,11.0,-1.6285714285714286,9.371428571428572,0.6215347236596265,-1.040883132020191,9682328.553215904,8655960.0,2797762.0,3315776.0,4400766.547138205,1099360.8169421873,1048066.2227607028,0.08320224334860817,0.11250007772133483,0.057261970639988564,0.09858174108225405,0.10127711697371776,0.10442638546051446,0.10294035353880783,0.09018161921520107,0.07312644950289435,0.05179349752224385,0.05137691116762316,0.073331633826812,3.6101918459643576,0.13698714985530458,0.46957364285320397,0.08450704225352113,0.48675272775960704,0.1532090927837851,0.0009209100990163124,1042.275395468971,646.7080769601964,0.033941125496954314,Kristian,REC_20260311_142453.csv
left,2,grass,2.912,1.1360000000000001,0.0,19808.0,1.5311983963634905,32896.01059399149,1067.7083333333335,0.2546235984232165,0.18559195830230826,0.5141474311243485,0.13602364807434408,0.4936755882112209,0.275532457594568,5372.0,4411.916666666667,12.100000000000023,586.7430555555555,0.13299051180829696,0.0,-0.9436619718309859,-0.9436619718309859,0.5115297710233857,-1.2626079278424576,9785810.34642211,8996823.0,2063502.0,3249803.0,4229673.489912866,1090661.3629324855,1100447.1017760024,0.08400229177291299,0.11335461408181124,0.06056198805004124,0.09778126160839644,0.10063653363050827,0.10653596005767207,0.10437010873329178,0.09183776262521327,0.0753672188328328,0.04462661100932449,0.044185885449130824,0.0767397641488645,3.560428559288398,0.13900041334199176,0.47225120949212807,0.11267605633802817,0.47134864992444025,0.1553610871756978,0.00036873705162157334,744.4530430680858,499.9489991350228,0.02771281292110198,Kristian,REC_20260311_142453.csv
left,3,grass,4.064,1.1360000000000001,1.0,20258.0,1.5789336762981365,29125.316496134423,989.5833333333334,0.2359926034166397,0.1761791154340246,0.5059643971370894,0.13276614693744435,0.4941797017097126,0.2686596525070797,5449.0,4428.944444444444,4.5,574.8611111111111,0.1297964149973031,0.36619718309859156,0.0,0.36619718309859156,0.5678282896651035,-1.0247067700967478,9753638.444496391,8685281.0,3017674.0,3254689.0,4204245.921393833,1208807.891266808,998909.8469923465,0.08627275121987933,0.11452440385845637,0.06047967285909609,0.09775341503493434,0.10109945936453382,0.10615772506616827,0.10099910939401162,0.088370692791109,0.07464469838561985,0.04691674715570552,0.04439545414633535,0.07838587072415049,4.0954448407512665,0.14164262668631908,0.488758227889585,0.08450704225352113,0.5422203470933503,0.18801312488174313,0.0008556029574160522,503.41334904827386,490.2016633158159,0.0,Kristian,REC_20260311_142453.csv
left,4,grass,5.216,1.1360000000000001,0.9859154929577465,19329.0,1.480386842833056,31737.074991246438,1343.75,0.3204531141131213,0.1872324585892425,0.5112600037223153,0.13369437846397464,0.495021377672209,0.27007798954582163,5373.0,4385.416666666667,15.800000000000011,572.7430555555555,0.1306017418844022,0.7857142857142857,-4.0,-3.2142857142857144,0.6932148658162878,-0.9768115526600507,9152656.55822636,8329758.0,2136806.0,3133738.0,4134896.391827714,1183575.0725068918,987846.737769265,0.0859224069675376,0.11455265241488519,0.0627458432304038,0.09823911322248614,0.10187173396674584,0.10558036421219319,0.10306254948535233,0.08995091053048297,0.07477751385589865,0.04516547901821061,0.04374346793349169,0.07438796516231196,3.7388748464176706,0.14663067456290602,0.4716263347424278,0.08450704225352113,0.4975761154480481,0.2115193595998498,0.0005211596024390469,464.5754334156425,186.07191492309656,0.0,Kristian,REC_20260311_142453.csv
left,5,grass,6.368,1.1519999999999992,0.0,17688.0,1.3063121886713802,31839.846026637755,953.125,0.22729813908023716,0.1872903466269102,0.5119269474468878,0.13706141374535158,0.4923275607213431,0.2783947612936196,5366.0,4401.986301369863,12.600000000000023,589.917808219178,0.13401173193919305,0.0,-0.6944444444444444,-0.6944444444444444,0.49177978084324064,-1.337688842052407,9521983.588699415,8685281.0,2266310.0,3177720.0,4148277.165178443,1134482.0938527954,1012549.6172521475,0.08366086293547433,0.11324277645521168,0.06197389098943503,0.0980254866265229,0.09966858049759603,0.1056776984238124,0.10573993682801971,0.09104856151488275,0.07571301871820006,0.04708646470304501,0.04601285223046881,0.07214987007733122,3.7132101668311237,0.1215102398710013,0.46692350898980617,0.05555555555555555,0.5271248196525912,0.15081522479489273,0.0008917309896394641,1301.334059084497,215.77423713695984,0.009237604307033524,Kristian,REC_20260311_142453.csv
left,6,grass,7.536,1.200000000000001,0.9066666666666666,19502.0,1.4987384060079312,28782.314118221973,934.8958333333334,0.22295090691203592,0.1779911373707533,0.5110782865583456,0.13984448843471903,0.48854172239758886,0.2862488136086871,5416.0,4426.815789473684,3.1000000000000227,606.6315789473684,0.13703564995630696,0.029411764705882353,-5.142857142857143,-5.113445378151261,0.32012510871323685,-1.5009034927618838,9369595.299223868,8383514.0,2930931.0,2985909.0,4044439.5195112815,1209853.7180161653,977586.2489823799,0.08214589315118982,0.11180366070420107,0.0642406624697567,0.09806264452885821,0.0993793804504842,0.10489302635255233,0.10727087903268953,0.09325343748328073,0.07440301036149305,0.047771060343956395,0.046591050951438305,0.0701852941700997,3.8498637369110207,0.14110282479506955,0.5007870313096644,0.08,0.495989970957269,0.09995963283620915,0.0011599995318216005,1001.1165433321606,230.96966710770167,0.033306655991459086,Kristian,REC_20260311_142453.csv
left,7,grass,8.752,1.1359999999999992,1.0,16937.0,1.2266473103804487,31045.89612170987,789.9305555555557,0.1883800606220545,0.1944954128440367,0.5055045871559632,0.13707738188667398,0.49139852456443256,0.27895358865416625,5450.0,4424.305555555556,-10.100000000000023,592.6388888888889,0.13395071417359913,1.8028169014084507,0.0,1.8028169014084507,0.5226729147996981,-1.222249977934259,9253342.9475569,8450709.0,2008524.0,3189938.0,4064268.90952684,1268748.0846099253,1137431.7659210006,0.08293517501177208,0.113184743368388,0.06357871605713389,0.09784021346727358,0.09987443101553915,0.10521425207973631,0.10554700988855753,0.09185685135771464,0.07528488463349552,0.04720452048344059,0.04522053052895935,0.07225867210798932,3.532217319157812,0.12833152770235948,0.47140067939045205,0.056338028169014086,0.4928084100526477,0.172557424523099,0.0008936012834836452,1318.7002439270775,89.42376732547065,0.03330665599145946,Kristian,REC_20260311_142453.csv
left,8,grass,9.904,1.2639999999999993,0.0,17128.0,1.2469082847527098,29810.00826903609,1709.375,0.40764617074390075,0.18710147567862997,0.49189287666241577,0.14114836584347748,0.48456943331941926,0.29128615248492024,5489.0,4431.95,-23.5,613.33125,0.13838857613465855,0.0,-1.2278481012658229,-1.2278481012658229,0.39998908009408857,-1.484538659874023,9028896.709941365,8159937.0,2234545.0,3153286.0,3876589.8242447847,1244345.7359679313,1192083.8784131801,0.08312650187840567,0.11292715396157449,0.06573855751982763,0.09720890353004885,0.09848655783571567,0.10346461489863379,0.10841164724331277,0.0939569489727998,0.07248220309344645,0.04814190142036801,0.047191416870677697,0.06886359277518925,3.1454443530576026,0.08949348631379678,0.44689321483890837,0.0759493670886076,0.5663254673943084,0.07956495999136323,0.0006304839525489935,1428.9612777585453,494.33642353186207,0.0640000000000005,Kristian,REC_20260311_142453.csv
left,9,grass,11.184,1.040000000000001,1.0,17554.0,1.2920976830908413,31686.557496831367,1052.0833333333335,0.2508973994219012,0.19248565611697205,0.5004627059041273,0.13268064943209532,0.49647062922444424,0.26724773153106635,5403.0,4348.787878787879,11.600000000000023,562.2424242424242,0.1292871576893596,2.0307692307692307,0.0,2.0307692307692307,0.9075792848061084,-0.5695473491576069,9612542.396121642,8638856.0,2039068.0,3689626.0,4239705.125880562,1232076.3710185455,1096724.6685482825,0.08331475158525538,0.11472371263326597,0.060114277750679394,0.09790606926346596,0.10150163751654936,0.1070343530067591,0.10513901470280816,0.08823426938889276,0.07530485680440388,0.04770050867535363,0.04444638004320256,0.0745801686293638,3.599898678053763,0.10738923119012604,0.4521686751531896,0.06153846153846154,0.506884831895876,0.21052284677496907,0.0017217921566159348,315.8707541595711,473.66206314660695,0.1123803066970952,Kristian,REC_20260311_142453.csv
left,10,grass,12.24,1.1839999999999993,0.9864864864864865,16917.0,1.2245257423833533,30469.534998092768,1208.3333333333335,0.2881593894350548,0.19977965479250825,0.506426735218509,0.1344152143264241,0.49044305126436094,0.27406895455005503,5446.0,4444.933333333333,8.800000000000011,583.26,0.1312190659027507,0.1232876712328767,-36.0,-35.87671232876713,0.8010807791190453,-0.6935175299753467,9742664.849859612,8666956.0,2813645.0,3447723.0,4244407.024842314,1311679.4220215583,1069745.4752127242,0.08474067852536221,0.1129225785163632,0.059468458469568344,0.09821519632840388,0.10021297657257701,0.10478147403785583,0.10439151693313735,0.08848126706062333,0.074310825809161,0.05106938236793952,0.045933947265800766,0.07547169811320754,3.445614518159037,0.11981928164415477,0.4376263699706488,0.08108108108108109,0.5130681851737563,0.1833271872284443,0.001671861091631899,324.4908832823146,343.38732972780537,0.11351358215356067,Kristian,REC_20260311_142453.csv
left,11,grass,13.44,1.168000000000001,0.0136986301369863,17760.0,1.3139498334609236,30062.923310948987,968.75,0.23102433808155254,0.20048219584569732,0.5083456973293768,0.1366688279815541,0.488983353835526,0.2794958701752887,5392.0,4460.081081081081,-8.600000000000023,595.1216216216217,0.13343291541179111,8.0,-0.25,7.75,0.6869462804487012,-1.0505699294202206,9507555.228397835,8724377.0,1698205.0,3375641.0,4258604.31569699,1232795.814716236,1100180.880547942,0.08423977263775352,0.11316907340188943,0.06097634875138618,0.09719554243953873,0.09965883543506059,0.10415517836907583,0.10364009865291506,0.08863915938990323,0.07480472418996141,0.05121407318979779,0.048029668591650865,0.07427752495106743,3.6954345408204916,0.15483123112706798,0.48798412066520624,0.0821917808219178,0.494222524978295,0.17383348560698741,0.001022148631413041,439.479616516326,121.62694366761794,0.07892612579705947,Kristian,REC_20260311_142453.csv
left,12,grass,14.624,1.1359999999999992,0.0,19325.0,1.4799625292336371,32458.132139727328,684.0277777777778,0.16312471183536148,0.1975263060734724,0.5002769060365516,0.14087831930254052,0.48662911243786067,0.2894983380602094,5417.0,4447.888888888889,1.3999999999999773,612.7986111111111,0.13777291349204368,0.0,-2.1267605633802815,-2.1267605633802815,0.585793501654023,-1.1738973983354606,9728512.66014821,8784242.0,2316400.0,3480710.0,4306930.740187049,1130550.6290925108,1092950.3059270154,0.08380067947340811,0.1128531637980565,0.06004409082960706,0.09643151557542905,0.09976018585596164,0.10361969473657916,0.10431915265669107,0.0919912068147186,0.07396455247183432,0.050554570208088734,0.048887112487821946,0.07377407509180386,3.581631516116545,0.1206278586032008,0.45262490026282154,0.08450704225352113,0.5310987654562626,0.16561450038672837,0.0018886746182837984,1221.906843148583,262.47642212355345,0.024440403706432214,Kristian,REC_20260311_142453.csv
left,13,grass,15.776,1.216000000000001,0.8289473684210527,17721.0,1.3098127758665876,33047.64846399816,1088.5416666666665,0.2595918637583036,0.18298109010011124,0.5129773822766036,0.13628840234624542,0.48890179452929894,0.27876437327745496,5394.0,4472.467532467533,3.6000000000000227,597.7662337662338,0.13365468377954584,0.9682539682539683,-7.615384615384615,-6.647130647130647,0.39342196416934805,-1.4309887094585456,9734593.182638656,8794015.0,2432465.0,3392745.0,4135304.00480168,1297286.5634216259,1107995.37615312,0.0835646669376851,0.11153667460363552,0.062111620883907315,0.09711074975317961,0.09874557175213426,0.10558394796445786,0.10516580521516929,0.09120448341947848,0.07592485045589174,0.04755502642429874,0.04508391892676694,0.07641268366339508,3.096264479930551,0.09318637199393032,0.4538092367601763,0.07894736842105263,0.5251129510105954,0.08708560034772689,0.0009990922202505455,915.0193076287162,207.78525514496516,0.04026578365477881,Kristian,REC_20260311_142453.csv
left,14,grass,17.008,1.0719999999999992,0.014925373134328358,18320.0,1.3733537373795943,32711.568412413366,758.6805555555557,0.18092766261942378,0.19056395134537413,0.5042388499815702,0.13355200874701653,0.49478645812499167,0.269918480091502,5426.0,4411.588235294118,4.800000000000011,574.3529411764706,0.1301918743416403,9.0,-0.6515151515151515,8.348484848484848,0.7257435686432161,-0.8969798305017886,10167476.63018588,9020036.0,2816088.0,3753156.0,4378330.0302863335,1220037.412144706,1133817.2445452288,0.08380335213408535,0.11351787404829526,0.061809139032227955,0.09838060189074228,0.10146739202901449,0.1064842593703748,0.10301745403149459,0.08879688520874168,0.07493633078656478,0.047701908076323046,0.04475512353827486,0.07532967985386081,3.5603130558292433,0.11418546143025675,0.465461558657892,0.08955223880597014,0.5156377278081352,0.13074671590759743,0.0010759876308070351,810.5185582905148,215.25677540920213,0.07214799604516745,Kristian,REC_20260311_142453.csv
left,15,grass,18.096,1.120000000000001,0.014285714285714285,19215.0,1.4682939052496125,30013.14966810381,1312.5,0.3130007161104905,0.18288652221814175,0.4988982739625413,0.13477393595732623,0.49391495342962255,0.2728687095246409,5446.0,4398.915492957746,-15.5,579.4859154929577,0.1317338140322679,13.0,-1.1594202898550725,11.840579710144928,0.577155209779726,-1.1563036183634696,9882906.608396742,8746368.0,3408628.0,3090978.0,4256709.049331741,1199486.5835838357,989525.0476487995,0.08347127813193393,0.11401337717683296,0.06256983955712517,0.09840773814288413,0.10160634983654743,0.1053588752669512,0.10395648095081055,0.09026552639414966,0.07452861300640684,0.047329207262993764,0.04450840956317659,0.07398430471018785,4.130227734130426,0.1580255421498925,0.49823078192038217,0.05714285714285714,0.5257091261957311,0.17402187436429165,0.0009105214288617688,751.8712212429286,278.5921944161554,0.07332121111929439,Kristian,REC_20260311_142453.csv
left,16,grass,19.232,1.1039999999999992,1.0,18042.0,1.3438639422199685,31327.96890958621,858.0729166666666,0.20463042848890203,0.17706794682422453,0.5088626292466765,0.13266241782311028,0.4941564900707312,0.2684623605855318,5416.0,4409.042857142857,17.0,571.3357142857143,0.12958270826515633,0.2463768115942029,0.0,0.2463768115942029,0.5273061507014525,-1.2353091504024711,9536335.607467733,8664512.0,1908343.0,3496592.0,4376194.598738855,962232.6062482067,1188804.9642135333,0.08599534074450885,0.11409991802561617,0.0619182005812729,0.09813273369989599,0.10106177887652973,0.1057534353098988,0.1051702183499496,0.09015562172547976,0.07510862415879054,0.044972507800526834,0.042506796097630514,0.07512482462990024,3.996279327916505,0.21523031235487147,0.5496286565466835,0.057971014492753624,0.46014134103631327,0.18248629199607966,0.0003545704639146202,612.9488831324622,295.2678988531247,0.024440403706431593,Kristian,REC_20260311_142453.csv
left,17,grass,20.352,1.2319999999999993,0.0,18444.0,1.3865074589615856,30903.072112655726,1137.5,0.27126728729575844,0.18309080862037208,0.5002762939767913,0.13654415378109963,0.486437297859453,0.28070247569808876,5429.0,4487.2307692307695,9.600000000000023,600.6089743589744,0.13384847030319652,0.0,-1.3116883116883118,-1.3116883116883118,0.2959146336235436,-1.5281383476831198,9527056.808420373,8785463.0,1964542.0,3117856.0,4010260.0335740442,1181726.3077420467,1165627.3049183963,0.08489617261517012,0.11295870904332521,0.0638135564164981,0.09639318407789625,0.09861030159655318,0.10454737660141027,0.10474166009531319,0.09237608713043279,0.07392772654026811,0.046413755271368325,0.044168066650666846,0.07715340396109759,3.893622158663651,0.1429406088804962,0.49648799744299094,0.05194805194805195,0.5126050666327376,0.1656437618766372,0.0005882530967867337,596.0947911196669,229.20459163776704,0.06974238309665066,Kristian,REC_20260311_142453.csv
left,18,grass,21.6,1.1839999999999975,1.0,17803.0,1.3185112046546787,28606.220634680143,2012.5,0.4799344313694188,0.17283268912203203,0.49972390944229705,0.1307433047642077,0.48952913185084357,0.26707972265067276,5433.0,4466.36,3.3999999999999773,571.7,0.12800132546413637,0.5540540540540541,0.0,0.5540540540540541,0.45370374764896104,-1.3322159411241352,8978184.25026486,8068308.0,1863138.0,3469714.0,4060729.3681662194,1082871.0952983378,1098101.1495249728,0.08568647996728133,0.113049552655854,0.0634730145651791,0.0969081459324073,0.09851721162945516,0.10556844201243668,0.10419222812312488,0.08810754171181902,0.07548577962069038,0.046456920922929044,0.04263576305238868,0.07991891980643448,3.6791335861059364,0.15861594205938143,0.4856963382362067,0.05405405405405406,0.4627268436313717,0.16134616843739316,0.000614413877579682,323.93569320674186,602.274354099204,0.0646632301492384,Kristian,REC_20260311_142453.csv
left,19,grass,22.8,1.1999999999999993,0.013333333333333334,17875.0,1.3261488494442222,28808.866829502338,1515.625,0.36144130312759026,0.17091177556293835,0.5018456995201181,0.13431970515330965,0.49111732934209673,0.27349819916390145,5418.0,4448.3421052631575,11.5,585.4144736842105,0.1316028443476872,2.0,-0.17567567567567569,1.8243243243243243,0.4561763049711924,-1.354950778641658,9215877.262592856,8517904.0,2246762.0,2707354.0,3906743.4096070696,1102625.8523216725,968271.8241410148,0.08437797641936381,0.11342487147784214,0.06185923791832558,0.09728639291989329,0.09967640220780066,0.10642344575447979,0.10344776587374363,0.09072569910729604,0.07430621698208086,0.046540106603879625,0.0435940060460136,0.07833787868928105,3.6599668793957,0.1303143182976088,0.46983905462602593,0.05333333333333334,0.520502432430694,0.12894668535002082,0.0004986692510109309,351.14716762823616,438.8409509245156,0.02444040370643353,Kristian,REC_20260311_142453.csv
right,0,grass,0.768,1.216,1.0,15879.0,1.0230868894211778,27439.567507524604,1345.3125,0.3206208874932581,0.22511897372232567,0.5104489964825161,0.16499296352568563,0.4329194941648348,0.38111696458456906,4833.0,3940.5064935064934,20.30000000000001,636.1363636363636,0.16143517709833596,0.2236842105263158,0.0,0.2236842105263158,0.3243620375095649,-1.251164887884256,8162301.333633426,7116580.0,1841147.0,3547905.0,3733581.42315216,1085440.8729296837,1301579.1011378032,0.07863383637807783,0.08743354898671475,0.06521674647929102,0.09189602496877255,0.06596488683965078,0.09909728790879939,0.11454457367534664,0.08806304153662098,0.08852774546089731,0.07258609381746035,0.07692992198906463,0.0711062919593038,3.736958151229397,0.1117429499264715,0.47745804533197556,0.07894736842105263,0.49623320011505373,0.18965951052032343,0.0006861615377963536,0.0,0.0,0.0,Kristian,REC_20260311_142945.csv
right,1,grass,2.0,1.1360000000000001,0.9859154929577465,15482.0,0.9835083744869262,29565.98723195287,1390.625,0.33141996500464543,0.22900608519269777,0.5077079107505071,0.17384382964003584,0.4242479862763231,0.4097693690093392,4930.0,3934.8055555555557,5.600000000000023,668.625,0.1699258046070327,0.4714285714285714,-5.0,-4.5285714285714285,0.4512836664946121,-1.1404725677704457,9105137.779215699,7953465.0,2419026.0,3714060.0,3918619.7589457775,1360225.4662256907,1380887.4788869175,0.08230676371132273,0.0934078346381651,0.06798302895102822,0.08689544167790304,0.0636767311670067,0.09464677768914177,0.11074597784727468,0.09146647088307343,0.08562120110410651,0.07532491369755671,0.08237735875696243,0.06554749987645868,3.672559303326535,0.1372516393520413,0.4674804592559747,0.08450704225352113,0.4552979732237216,0.23189188014881928,0.0006773275559699177,280.72139213105936,32.04077602251544,0.056568542494923775,Kristian,REC_20260311_142945.csv
right,2,grass,3.152,1.12,0.014285714285714285,18616.0,1.2959493462852751,32781.54471650169,986.1111111111112,0.23501440714436783,0.2289596430744271,0.5412695193672683,0.1614101531608007,0.44541424518787776,0.3623821081263888,4931.0,3882.507042253521,-1.0,611.3239436619718,0.1574559780597697,19.0,-0.855072463768116,18.144927536231883,0.5232900392838199,-0.7991163360286664,8973365.86183072,8213694.0,1650557.0,3214372.0,4135300.177692881,1277674.0150715464,1306419.943998633,0.07786822802167905,0.09074287704329279,0.0590985931843081,0.09370669452727655,0.06804808857352226,0.10176377975607455,0.11408339319011239,0.08712607651510205,0.0911528052877116,0.06890784958172809,0.07428407664569865,0.07321753767349397,3.9975894228826303,0.127200095270447,0.4642756265960753,0.05714285714285714,0.49443586688768354,0.1756159698980679,0.0006537704340622174,1706.3964955425806,221.62669316516946,0.051432804058629114,Kristian,REC_20260311_142945.csv
right,3,grass,4.288,1.1360000000000001,1.0,17066.0,1.1414236582548218,31251.043950562675,1276.0416666666665,0.30411195290688436,0.2278719397363465,0.5423728813559322,0.15834596928126726,0.4382289455375778,0.36133160735635705,4779.0,3892.847222222222,11.800000000000011,601.4166666666666,0.15449274845246802,0.2535211267605634,0.0,0.2535211267605634,0.4789472380117901,-0.8859695061140451,8797299.76782666,7882605.0,1615127.0,3556457.0,4131634.273368632,1312316.7149689859,1193114.2363332284,0.07930856092905435,0.08971582496387606,0.06664288135290865,0.093440605098382,0.06317498260698931,0.10165724173609005,0.1158963198173288,0.08535240915496728,0.0902402911322404,0.07185543286297875,0.07299356012630001,0.06972189021888435,4.170067083535322,0.1765864598992381,0.5100906848278188,0.08450704225352113,0.49514181979533467,0.22797008834461469,0.0006805193480190988,1567.0307378393486,208.49482552593605,0.009237604307035232,Kristian,REC_20260311_142945.csv
right,4,grass,5.44,1.1199999999999992,0.0,18980.0,1.3322379594743623,32381.95599404088,1159.7222222222222,0.27639018305006635,0.22860103626943004,0.5204145077720207,0.16356469382156316,0.4349488138383124,0.3760550405415526,4825.0,3901.8028169014083,-19.30000000000001,622.7816901408451,0.15961382964898854,0.0,-0.24285714285714285,-0.24285714285714285,0.523332273193041,-0.8796609312337118,9320012.004034437,8450709.0,1573588.0,3601661.0,4179293.9984917594,1350801.0823428826,1396127.0719780936,0.08187259049626754,0.09130485005125837,0.06544464819440635,0.0930014294583941,0.06424982312257245,0.09960365017254574,0.11100321989113014,0.08639198925740359,0.08678906103354175,0.0712346766391845,0.07717270456415959,0.07193135711913598,3.8902404258188716,0.15197015893829696,0.4904661325488846,0.05714285714285714,0.4856373570336283,0.20479649837635922,0.0005441171179188482,1016.398215923922,145.90565336422696,0.009237604307035616,Kristian,REC_20260311_142945.csv
right,5,grass,6.576,1.088,0.0,16865.0,1.1213851658070018,31020.121614848642,944.4444444444446,0.2250842209270002,0.21902654867256638,0.4905470635559131,0.16624953857511998,0.4325138427464009,0.3843796941142076,4972.0,3926.086956521739,-13.100000000000023,637.0072463768116,0.162249907715024,0.0,-0.16176470588235295,-0.16176470588235295,0.37338106825683726,-1.1048452894016223,9745286.57089739,8600982.0,2538755.0,3814242.0,4198100.976401116,1302540.297326711,1375223.476764743,0.07956441491325211,0.09194167589516428,0.06789590254706535,0.09140273163528978,0.06471022517534146,0.0989110372831303,0.11008490217792544,0.08834256183093393,0.08554817275747509,0.07215208564045773,0.07790697674418605,0.07153931339977852,4.006122276931077,0.1467056970351236,0.5045815353691082,0.058823529411764705,0.49137277316096717,0.19256515735792612,0.0005880529039081138,1167.4060990075384,168.24161818958277,0.024440403706431708,Kristian,REC_20260311_142945.csv
right,6,grass,7.68,1.104000000000001,1.0,16841.0,1.1189925099923366,33434.674501182155,1339.2857142857142,0.3191845569868174,0.22668609492089925,0.5129059117402165,0.1609160327795323,0.43720381324931346,0.368057249051659,4804.0,3885.7,8.600000000000023,609.8071428571428,0.15693623873617182,0.18840579710144928,0.0,0.18840579710144928,0.511430537861112,-0.8837281469311793,9375074.222272484,8344419.0,2294409.0,3605326.0,4337383.3312704675,1286552.6379086259,1468214.8172548374,0.08068412016220648,0.09406652230339083,0.06907745984360236,0.09080548090250333,0.06523921043827367,0.10021728021058901,0.10936804914723952,0.08526869584079354,0.0868753193945566,0.07142305670241435,0.07564733693873875,0.0713274681156916,4.477202772170338,0.14937341427770848,0.5106658974619932,0.08695652173913043,0.541557758310118,0.19267408227459418,0.0007502661827491114,1228.0826519416348,197.68965478616568,0.0160000000000008,Kristian,REC_20260311_142945.csv
right,7,grass,8.8,1.0879999999999992,0.0,18449.0,1.2793004495748974,31936.7929510776,1868.75,0.44536885184893926,0.21718281718281718,0.5152847152847153,0.1517799233490566,0.4451282429245283,0.3409802135936458,5005.0,3932.753623188406,-5.199999999999989,581.3768115942029,0.14782945165094338,0.0,-0.4411764705882353,-0.4411764705882353,0.616548799670355,-0.4144395149809905,9342751.656955728,8288219.0,2010968.0,3814242.0,4280715.285505376,1439107.9574437381,1383473.6933865573,0.08125,0.09172317216981132,0.06456367924528301,0.0927955483490566,0.06488060141509433,0.1045806308962264,0.11163030660377359,0.0822044516509434,0.09114829009433961,0.06853994693396227,0.0695754716981132,0.07710790094339622,4.490850416230315,0.1832519683141739,0.5366209987602752,0.08823529411764706,0.48961523888756886,0.24384211997492913,0.0009040902262434763,921.529163944364,463.7838609826184,0.009237604307037382,Kristian,REC_20260311_142945.csv
right,8,grass,9.904,1.1039999999999992,1.0,17233.0,1.1580725549651996,31371.20311687137,1062.5,0.25321974854287516,0.22340204039142203,0.5184259837601499,0.161831939293082,0.4367714825409601,0.3705185566409123,4803.0,3940.2428571428572,0.10000000000002274,622.3714285714286,0.15795255549875462,0.08695652173913043,0.0,0.08695652173913043,0.4689246748102976,-0.7663580219516413,9308111.889600705,8355414.0,1844813.0,3663969.0,4119354.6614592574,1448772.9600168595,1419285.4944929199,0.0813474151339475,0.09381220156843124,0.06529329229162814,0.09037876563083493,0.06568485626339203,0.09912369433356173,0.10946025806966213,0.08643049558221574,0.08777196474474017,0.07110511679845695,0.07540144371086627,0.07419049587226313,4.013509931638235,0.1560779479506358,0.5015325572720937,0.057971014492753624,0.46915127194987577,0.23794993966450576,0.0006218164069531538,838.44936241453,409.6709704099114,0.009237604307036885,Kristian,REC_20260311_142945.csv
right,9,grass,11.024,1.072000000000001,1.0,16922.0,1.1270677233668314,33684.656655516024,1137.5,0.27109408373413696,0.22431648715824357,0.5408036454018227,0.1574993552920247,0.442056637128452,0.3562877289096516,4828.0,3934.75,-15.600000000000023,603.8676470588235,0.15347039762597967,0.14925373134328357,0.0,0.14925373134328357,0.516190731853481,-0.8934662777918883,9125554.223855887,8092742.0,1859473.0,3784921.0,4275342.258159912,1299145.7165341421,1460679.173185365,0.08219372633734859,0.09230723231537992,0.06629466705037693,0.09204934912525274,0.06463898222100964,0.10302620317457944,0.10893882935981432,0.08436144010943217,0.09003487029223024,0.0684324813221559,0.07313791518259251,0.0745843035098276,4.719891754400959,0.21222992321266246,0.5557334914085118,0.08955223880597014,0.459051625203821,0.24580377529889605,0.0005746998187683889,806.9599329169521,445.41939506492065,0.01600000000000077,Kristian,REC_20260311_142945.csv
right,10,grass,12.112,1.1199999999999992,0.0,20042.0,1.4381129792732923,31323.96042967747,1581.25,0.37685056694910246,0.22213230831478858,0.503742666396925,0.1609589527843316,0.4407672190795645,0.3651790464825474,4943.0,3963.830985915493,-5.899999999999977,622.7042253521126,0.1570965632905995,0.0,-0.3142857142857143,-0.3142857142857143,0.4621420132547089,-0.8956143847525744,9409814.287982628,8442157.0,1855808.0,3718947.0,4231919.994149066,1246369.3469841245,1297794.4916333957,0.08069089513630291,0.09410443730634753,0.06096676994798033,0.09043747690383468,0.06998138093749112,0.0984962619744734,0.10991642741408227,0.08558017567298672,0.08774766195741777,0.07213110094090225,0.07537877711134484,0.07456863469683618,4.394903728736514,0.17678946366617188,0.5242623716279707,0.05714285714285714,0.4997763280793047,0.20480447666080934,0.000823521617094201,1718.6041816931934,280.36899049883027,0.024440403706431107,Kristian,REC_20260311_142945.csv
right,11,grass,13.248,1.120000000000001,1.0,17286.0,1.1633563365559183,33548.62839223088,1509.8214285714284,0.3598273905764722,0.22827203616190672,0.5072940209574687,0.16403361344537815,0.4363776148757375,0.37589832258465594,4867.0,3938.7323943661972,-24.5,630.6197183098592,0.16010727695333454,0.37142857142857144,0.0,0.37142857142857144,0.4396402690592636,-1.012841357293867,9080394.805799415,8245458.0,1726305.0,3389080.0,4172900.243842868,1322159.3705875878,1376590.9469005584,0.08016091543000178,0.09432862506704809,0.06462363668871804,0.08981226533166457,0.06535311997139281,0.09976756660110853,0.1100804577150009,0.08569283032361881,0.0871160379045235,0.07184695154657608,0.07834078312175934,0.07287681029858753,4.247259617651635,0.19358874189768432,0.5317857746019492,0.08571428571428572,0.47506137680960264,0.2387236714641011,0.0006130664559668304,1705.99101209043,238.27132625426376,0.02771281292110224,Kristian,REC_20260311_142945.csv
right,12,grass,14.384,1.1359999999999992,0.0,17056.0,1.1404267183320447,32408.21653531709,709.8214285714286,0.16916781520301324,0.22875816993464052,0.5210375816993464,0.15873144418467086,0.4383397650770401,0.36211965427476406,4896.0,3944.5555555555557,0.30000000000001137,610.7152777777778,0.15482486408833554,0.0,-0.29577464788732394,-0.29577464788732394,0.4977775398301159,-1.0112943699756076,9298836.857669244,8411614.0,2072054.0,3379306.0,4187440.547425556,1338899.6249662107,1239340.2498437,0.07880763922143037,0.08806089969296639,0.061853891439677754,0.09289527055575898,0.06134686346863469,0.10340201684459592,0.1149545083237092,0.08459268752992873,0.09263471451508408,0.0718289625644348,0.07413875665474212,0.07548378918903692,3.8487783912168316,0.16026555173670087,0.4905223056689699,0.056338028169014086,0.48509682082525873,0.21538081887451097,0.0006178964353151618,1661.5571010350493,483.81983491074556,0.009237604307034429,Kristian,REC_20260311_142945.csv
right,13,grass,15.536,1.104000000000001,0.0,16405.0,1.0755259293592543,29600.49041823463,1656.25,0.39472490214036426,0.225137278828554,0.4970510473866179,0.1653327853604724,0.4360746396717931,0.37913873066503634,4917.0,3962.657142857143,2.3999999999999773,639.6071428571429,0.16140865076103336,0.0,-0.5362318840579711,-0.5362318840579711,0.28915962066688256,-1.188139215737846,9034032.448824722,8164824.0,1406211.0,3601661.0,4127034.2948783985,1066748.7732432524,1273839.3736011,0.07833127843510487,0.09059577628286936,0.05959565370999257,0.09346181854888133,0.06561614501092342,0.10027542846430605,0.10988658403812737,0.08760355605546062,0.08612547136481292,0.07400157181689054,0.07772922930501179,0.07677748696761913,4.124884023630709,0.16465310306769973,0.5148978556128296,0.057971014492753624,0.46441871252705125,0.17914268604644693,0.0005724656250434825,456.9576931547723,509.4389671241194,0.015999999999999827,Kristian,REC_20260311_142945.csv
right,14,grass,16.656,1.1040000000000028,0.0,16123.0,1.0474122235369394,30439.240529290477,1427.951388888889,0.34031575682437065,0.2224737600329286,0.5206832681621733,0.15832314802091543,0.43690650968026556,0.362373058109587,4859.0,3950.6,-23.899999999999977,610.1928571428572,0.15445574270816007,0.0,-0.3333333333333333,-0.3333333333333333,0.6042877917313872,-0.7921914705717876,9222698.695988826,8354193.0,1743409.0,3496592.0,4103667.4854469933,1403204.1992742924,1324549.3943371207,0.08251187884661282,0.09465831591584642,0.06792458288433584,0.09015628729089976,0.06481474785023614,0.10140231863514404,0.10594774030707814,0.08317000672592229,0.08587483998813923,0.0715081253480484,0.07515314129499316,0.07687801491274382,4.165142580380969,0.16017250523699486,0.5059566652250768,0.057971014492753624,0.4959241892815234,0.2328449851525031,0.000602465962937225,478.5070532395505,493.88897817173876,0.018475208614067252,Kristian,REC_20260311_142945.csv
right,15,grass,17.776,1.1359999999999992,1.0,16539.0,1.0888849243244676,30314.674614780215,1862.5,0.4438793239163341,0.22552842191668376,0.4990765442232711,0.17076538524178073,0.42593982566579097,0.400914342712033,4873.0,3922.8611111111113,4.5,654.7986111111111,0.16691863223412615,0.352112676056338,0.0,0.352112676056338,0.2995231659596586,-1.1884839894231112,9164933.695031133,8136724.0,2309070.0,3529579.0,3918719.333409542,1547870.7410471854,1376469.615723207,0.08073401641375695,0.0949597445175361,0.06695085078209641,0.09065803728854366,0.06153742662314212,0.09552268398207091,0.11145847347811616,0.0899534778329309,0.0832619332544982,0.07654914567740383,0.08081190740884983,0.06760230274105493,3.978865021910561,0.17547764595385243,0.508953718472296,0.056338028169014086,0.46960991929652146,0.1868795770499325,0.000803184182335428,212.34249064502242,217.3675128110054,0.018475208614067252,Kristian,REC_20260311_142945.csv
right,16,grass,18.928,1.1519999999999975,0.0,17573.0,1.1919685123396218,29406.08527158962,1706.25,0.4066411256012054,0.22569444444444445,0.5020424836601307,0.16614495210764577,0.42979088568718665,0.3865716040997493,4896.0,3942.917808219178,-6.300000000000011,640.3287671232877,0.16239972484044568,0.0,-0.75,-0.75,0.32817458332347454,-1.0820051156970807,8839524.854079261,8090299.0,1277930.0,3324328.0,3947246.2113985843,1216843.4316949802,1236879.472965378,0.08082811908294046,0.09154961383858001,0.06587847814531343,0.09144538673466907,0.061167413048538566,0.0989775321106336,0.10968512991908504,0.08723113749986972,0.08665093995476543,0.07430697661491212,0.07891381460777605,0.07336545844291656,3.9600271762064416,0.16881614232877212,0.5041433603700213,0.05555555555555555,0.4990577775458951,0.20792615541732784,0.0005082553655681916,746.627082284053,220.11234815618087,0.024440403706428745,Kristian,REC_20260311_142945.csv
right,17,grass,20.096,1.152000000000001,1.0,18372.0,1.2716240121695135,28738.24874622669,1800.0,0.42898404459028266,0.22003687768899816,0.5076828518746158,0.1638850946104297,0.4314603079952573,0.37983817183974894,4881.0,3951.3150684931506,3.3000000000000114,633.013698630137,0.16020329628422653,0.3333333333333333,0.0,0.3333333333333333,0.32816476956934526,-1.0838413532239362,9102303.940890405,8255232.0,1772730.0,3400075.0,4065312.602897608,1373069.863900201,1256241.6556352493,0.08095449408208122,0.09219749970531746,0.06521151272681888,0.09209349410288234,0.06236175922009665,0.09843436899801003,0.11128252775216158,0.08645639045089897,0.08637318596895087,0.07479389556450775,0.07742870415953072,0.07241216726874355,3.8745142382789397,0.15186047545220221,0.49282181493950317,0.05555555555555555,0.4891153810378725,0.21600679691392027,0.0006525759666162749,919.0072542332464,78.64410870073405,0.009237604307034077,Kristian,REC_20260311_142945.csv
right,18,grass,21.264,1.1039999999999992,0.0,19253.0,1.3594544193661777,30969.541262343555,1248.263888888889,0.29749182876197267,0.22417355371900827,0.5113636363636364,0.16209525695613425,0.4373590344478551,0.37062286174258785,4840.0,3895.3285714285716,-22.0,616.1642857142857,0.15818031121526516,0.0,-0.5072463768115942,-0.5072463768115942,0.4253467406392109,-1.0582272501406094,9275853.643491093,8506909.0,1314581.0,3456275.0,4161647.9428033307,1386274.8033143017,1214199.0038087126,0.08228904218606169,0.09406138488225822,0.0635633157665042,0.09354061458230187,0.0638750444671823,0.09940844894800732,0.11040330359074789,0.08594543647519189,0.08647354156810538,0.07308754442133984,0.07614982048094238,0.07120250263135697,4.3326255343565565,0.1725249152685294,0.5238456508216831,0.07246376811594203,0.5250884323522675,0.26057894141139165,0.0008333687913437478,840.3334655559843,295.226770685036,0.027712812921102208,Kristian,REC_20260311_142945.csv
right,19,grass,22.384,1.152000000000001,1.0,16860.0,1.1208866958456132,30824.921686842936,2781.25,0.6628399300092909,0.2278946293649173,0.5078619562997754,0.16536589940501623,0.43332048196118883,0.38162493186678115,4897.0,3943.931506849315,-7.699999999999989,637.2260273972603,0.1615712712785726,0.6527777777777778,0.0,0.6527777777777778,0.4367821280028979,-1.034127326933678,8786636.510279574,7672467.0,1703092.0,3929085.0,3940389.987209748,1528861.3405606826,1409830.5281421484,0.08023424230741176,0.09138367597870145,0.061481659007943536,0.09146008954280374,0.06553157790536528,0.09858739106725435,0.11348456272337942,0.08877519476775488,0.08635774746706402,0.07221776476431625,0.07659070463726134,0.07389538983074395,3.8127585963271433,0.15298170365683042,0.48775757616948784,0.08333333333333333,0.4537555924676847,0.19970802283135217,0.0005878957468110935,1210.286054341424,776.4567723172121,0.027712812921103204,Kristian,REC_20260311_142945.csv
left,0,grass,1.408,1.1360000000000001,0.0,17788.0,1.2134027206793299,29333.93345598234,915.1785714285714,0.21810944727432527,0.16992259491338002,0.5033173608551419,0.13243598838681048,0.4909322741037749,0.2697642737555181,5426.0,4444.180555555556,10.399999999999977,575.9027777777778,0.1295858191580125,0.0,-0.28169014084507044,-0.28169014084507044,0.43319946218209726,-1.342620133201921,9323019.605926236,8203920.0,2152689.0,3870442.0,4289611.032983999,1088367.0720567838,1044495.0051417834,0.08681452961269576,0.11465368256240215,0.06424443951359612,0.09665886412005713,0.09844021988805585,0.10573440298017694,0.10254671371112659,0.08906153802882046,0.07544510455308284,0.046702772977145514,0.04337445035799,0.07632328169485063,3.6683569367145163,0.13820539708456414,0.4792906612364276,0.08450704225352113,0.45757958455672065,0.1953029395584654,0.0007814164535330233,0.0,0.0,0.0,Kristian,REC_20260311_142945.csv
left,1,grass,2.56,1.04,0.9692307692307692,19167.0,1.3508807360302946,32301.87240702929,1825.0,0.43494215632070327,0.17905218513737783,0.49953900055319933,0.12584518675335424,0.49351040216696135,0.2550000693009132,5423.0,4430.166666666667,6.899999999999977,543.7727272727273,0.1227431760895513,1.126984126984127,-28.5,-27.373015873015873,0.7919843468878922,-0.4725416005015002,9699795.593075866,8714603.0,2367713.0,3540574.0,4472917.263639202,1380251.2678163268,1332132.8001815255,0.08738641066243488,0.11339952324113943,0.06425642376133328,0.09798181202567793,0.09996203713520593,0.10649780602002112,0.10221928855539329,0.08455116607556319,0.07566922374491691,0.04768272621250312,0.04129402067779104,0.07909956188801981,4.550742902368801,0.2365692600291436,0.59011948888102,0.07692307692307693,0.4606408120808358,0.21103254579202146,0.0016623689449934778,975.1002512562491,643.3409018116892,0.06788225099390863,Kristian,REC_20260311_142945.csv
left,2,grass,3.616,1.1999999999999997,0.013333333333333334,18592.0,1.2935566904706102,29304.904743063064,973.9583333333334,0.23211810283096893,0.1896646509070918,0.4909290819131391,0.14089098473685918,0.4824351338662194,0.2920413022320698,5457.0,4456.039473684211,8.399999999999977,615.3618421052631,0.13809613800312406,55.0,-1.6486486486486487,53.351351351351354,0.33116754671774673,-1.5128806538831647,9491521.766070917,8543561.0,2326174.0,3418401.0,4170319.7622283306,1219732.5847605306,1131749.9778939462,0.08658266870214582,0.11311673394181165,0.06112933658931255,0.0956124006744247,0.09843234640154254,0.10295902367868563,0.10483701894826358,0.09387614089689038,0.07231462916975483,0.04808081285304687,0.04701484383996882,0.07604404430415256,4.586701404782214,0.16117763024674145,0.5842603539119233,0.08,0.5100936198966441,0.2356324166789537,0.0004863971643877407,692.6617741245241,509.16631380786134,0.08053156730955453,Kristian,REC_20260311_142945.csv
left,3,grass,4.832,1.12,0.9857142857142858,19114.0,1.3455969544395758,31966.024244500597,1075.6944444444443,0.25636430751170824,0.19813258636788048,0.5064425770308123,0.13322883013770206,0.4903143379658835,0.2717212608759379,5355.0,4420.647887323944,9.300000000000011,575.9295774647887,0.13028171257797913,2.130434782608696,-125.0,-122.8695652173913,0.5777753653344545,-1.152362291013803,9720951.400037395,8693834.0,2371378.0,3645643.0,4403182.214985658,1128516.942985356,1117440.6962013687,0.08632983502513812,0.11342738620940146,0.06290901212619397,0.0976977436230748,0.09871091484901198,0.10587639311043566,0.10375765454047267,0.08919411468588505,0.07460190017395958,0.04679066862928765,0.044034715451817016,0.07666966157532194,4.112285778826345,0.18320037286560964,0.5250447700294324,0.08571428571428572,0.5099732238620313,0.22373065492420843,0.001076890839061127,317.7834692575,464.77251967910956,0.07999999999999985,Kristian,REC_20260311_142945.csv
left,4,grass,5.968,1.088,1.0,19200.0,1.354170637775459,32267.09223032035,1005.2083333333334,0.23956574249399468,0.18443536404160477,0.5048291233283804,0.13215446446469475,0.49291331337515576,0.26810893696444216,5384.0,4410.188405797101,-15.0,568.7536231884058,0.1289635659194947,0.6470588235294118,0.0,0.6470588235294118,0.7465569023185892,-0.9087882577938999,9940860.793145934,8958949.0,2092824.0,3765373.0,4567714.353604593,1095711.7741052036,1304867.0843672475,0.08815226928423316,0.1153159843971305,0.06160964564923778,0.09796157119712919,0.10070883297239923,0.10506633191260027,0.1017111234526114,0.08804711093876827,0.07386059289589654,0.04723252810521093,0.044107353525926464,0.07622665566885638,4.344562577255493,0.16184287701178152,0.5280279884249043,0.058823529411764705,0.5374130236160798,0.1786787346859846,0.0007098568852361983,329.0248217586819,52.11380281585605,0.05768882040742369,Kristian,REC_20260311_142945.csv
left,5,grass,7.072,1.1520000000000001,0.027777777777777776,18521.0,1.2864784170188925,31649.07982864589,1697.9166666666667,0.4046550883577319,0.1845781337306761,0.5071707953063885,0.1299199174292481,0.49004881135593586,0.26511627906964613,5369.0,4459.438356164384,5.5,566.1780821917808,0.12696174651885028,5.5,-0.6428571428571429,4.857142857142857,0.703588633128805,-1.031454226680358,10221064.331741288,9004153.0,2542421.0,4114788.0,4305213.6854017805,1143183.9758170014,1300864.089088837,0.08791266177017194,0.11455770276372416,0.06492924042895014,0.09673188158715239,0.0991279078697176,0.10515483551893935,0.10169595655205675,0.08618322228673062,0.07447648361640234,0.047687066680182716,0.04373669514251748,0.07780634578345452,3.9464253441661676,0.15008354662165874,0.4931756652751579,0.08333333333333333,0.5207748721284425,0.18985924768962692,0.0004620299971720518,369.70393560252876,381.22032578640864,0.03200000000000006,Kristian,REC_20260311_142945.csv
left,6,grass,8.24,1.0879999999999992,0.9705882352941176,20411.0,1.474900062423768,31558.59382165181,1166.6666666666665,0.2780452140862943,0.18883878241262683,0.5112739571589628,0.13309239574816026,0.4914439901880621,0.27081905243600257,5322.0,4431.159420289855,-3.1000000000000227,575.6884057971015,0.12991823385118562,0.7424242424242424,-10.0,-9.257575757575758,0.6692372247922531,-0.9827943192382369,9933590.40715516,8965058.0,2482556.0,3484375.0,4410646.95954822,1398524.1613604785,1234093.8399756607,0.08502371218315617,0.11341946034341784,0.06205069501226492,0.09689615699100572,0.10015372035977106,0.1056255110384301,0.10322812755519215,0.08877187244480785,0.07534914145543745,0.04718887980376124,0.04432052330335241,0.07797219950940311,3.9390286280029962,0.1314720862532677,0.47909445838435727,0.058823529411764705,0.493604107592066,0.19903817070167085,0.000617913081480345,957.3976881804829,362.43164665267636,0.03695041722813635,Kristian,REC_20260311_142945.csv
left,7,grass,9.344,1.024000000000001,0.03125,19229.0,1.3570617635515125,34076.20696321702,901.0416666666666,0.21474027695057551,0.19096965210954847,0.500740192450037,0.12873935531058986,0.49369764728418936,0.26076558399401084,5404.0,4417.153846153846,-2.0,554.1538461538462,0.12545495707294987,18.0,-2.2903225806451615,15.709677419354838,0.9068585170163727,-0.45307141059053,10251499.17898192,9296147.0,1861917.0,3899763.0,4514859.700197084,1233296.6790846286,1275668.7883296784,0.08635564146770458,0.11437577277397559,0.06243142991484249,0.09739651359211467,0.10073315570416036,0.10605506504362364,0.10195566236525436,0.0862198073942497,0.07513714017031503,0.04814795465231703,0.04251954791634014,0.0786723090051025,3.9746840146505296,0.18533911856692842,0.5402707838946404,0.0625,0.49025369268339697,0.1394542400646107,0.0018195635779740592,954.8549628084885,405.74888965754843,0.06399999999999963,Kristian,REC_20260311_142945.csv
left,8,grass,10.384,1.1519999999999992,1.0,19267.0,1.3608501352580658,32452.04161528208,1236.4583333333333,0.2946782760003851,0.1917069542580885,0.5085533655634065,0.13402414133857904,0.4898795395844685,0.2735859134925315,5378.0,4449.821917808219,-24.399999999999977,583.082191780822,0.1310349498363795,1.6666666666666667,0.0,1.6666666666666667,0.5096152145469371,-1.2546302571069037,10273301.806774197,9307142.0,2531425.0,3536909.0,4414882.335777342,1157791.6471471314,1146785.556576252,0.08334641681828117,0.11239483186952226,0.06267143213365473,0.0976212685131312,0.0985602009623288,0.10567453830690471,0.10428614966891087,0.08953413558184567,0.07562869993258158,0.04755308046805013,0.044490005756733376,0.07823923998805556,5.005989102924908,0.27363780865267157,0.6256779457519573,0.09722222222222222,0.5108423584803674,0.28056089807892237,0.0005658101549956523,671.7271271381956,176.98015785151782,0.06399999999999917,Kristian,REC_20260311_142945.csv
left,9,grass,11.552,1.136000000000001,0.014084507042253521,21325.0,1.5660203713655967,33647.813079010055,1932.2916666666665,0.4605123858304249,0.20080763582966227,0.5007342143906021,0.13216724318511683,0.488346868308268,0.27064214344797627,5448.0,4468.875,14.5,576.9791666666666,0.12911060762869103,46.0,-2.5,43.5,0.6855161733279007,-0.848625129081316,10583172.449586371,9426872.0,2745228.0,3949854.0,4503416.675008486,1303279.580293478,1274144.6518336856,0.08495799651291806,0.11282357292259114,0.06386767736100622,0.09693901336093162,0.09879443931638276,0.10553550949623787,0.10249285956259188,0.08783903480555323,0.0742543332121246,0.04796757821848029,0.04432820837956359,0.08019977685161876,3.846053166723116,0.1253778428612438,0.4668930041549759,0.08450704225352113,0.5405207730402012,0.17154335984055322,0.0009954165280818916,1199.3070221312537,526.0172574094814,0.06974238309665023,Kristian,REC_20260311_142945.csv
left,10,grass,12.704,1.1519999999999992,1.0,19081.0,1.3423070526944112,31024.754858016204,2018.75,0.48111752223146287,0.21452513966480447,0.5013035381750466,0.13609970215728917,0.48639156347485213,0.27981509626711126,5370.0,4465.904109589041,10.699999999999989,593.554794520548,0.13290809205824344,3.0972222222222223,0.0,3.0972222222222223,0.6363120518922419,-0.9844740576855977,9734850.677792547,8730485.0,1865582.0,3881437.0,4114609.2079780432,1354537.094759538,1305615.9411231114,0.0866381809202757,0.11444092377251075,0.06567876544042993,0.09591394155411935,0.09961320323547367,0.10352411421700496,0.10248733938425392,0.08994481781289589,0.07289938069574341,0.04877136047556678,0.04615488434439329,0.07393308814733246,3.4165137406040356,0.10346383377645395,0.457679046456713,0.08333333333333333,0.5343503967665219,0.12874558268411995,0.0006980812956597107,1245.3577799170819,428.8821366678475,0.009237604307033326,Kristian,REC_20260311_142945.csv
left,11,grass,13.872,1.072000000000001,0.0,19904.0,1.4243552083389681,32541.993946284238,1770.8333333333335,0.42203291423812533,0.20636331318876644,0.48666903661571276,0.13325785695788153,0.4868890231674845,0.27369246505272005,5626.0,4429.382352941177,15.5,574.8897058823529,0.1297900384464704,0.0,-3.4776119402985075,-3.4776119402985075,0.8407850832802104,-0.5249055459907548,9809688.964910865,8830667.0,2419026.0,3521027.0,4441382.473353384,1513550.44559932,1388051.6926595785,0.08523628974959993,0.11374245512918413,0.06838690827960345,0.09638842223387938,0.09919388574957337,0.10417067842415953,0.10378222962967881,0.0866606019960292,0.07339358163068811,0.05001693238334916,0.04659725496185234,0.0724307598324026,3.834707678286352,0.14925737826483726,0.47830697680223616,0.08955223880597014,0.48392145662589386,0.17360067441217858,0.0010225197445016343,1135.2023314516828,125.83488547608067,0.042332020977032855,Kristian,REC_20260311_142945.csv
left,12,grass,14.96,1.1199999999999974,0.02857142857142857,19731.0,1.407108147674924,33216.49168711229,1243.75,0.29641605858842446,0.17317207256734468,0.5019241341396372,0.13517917378682098,0.49082055940590913,0.2754146524554314,5457.0,4434.281690140845,9.100000000000023,586.5633802816901,0.1322792328655736,6.5,-0.75,5.75,0.39212478581148846,-1.4304804228173633,9989297.765951969,8929628.0,2087937.0,3960850.0,4315876.59036825,1361769.325991771,1383793.9224337928,0.08528621432246836,0.11458419357502683,0.062639359154348,0.09719090060158687,0.09943335217924366,0.10442645965810554,0.10382614330091414,0.09098763157727564,0.07518565339194623,0.04705019152950444,0.04419154220954535,0.07519835850003494,3.7122411374098623,0.14232747265892723,0.48215882715258573,0.05714285714285714,0.46544741585843635,0.16116421628083463,0.0006940778171718976,433.92741328475853,395.79129893772944,0.040265783654776344,Kristian,REC_20260311_142945.csv
left,13,grass,16.096,1.120000000000001,0.9857142857142858,19765.0,1.4104977434123662,32289.32834544565,1000.0,0.2383244692168237,0.16863468634686346,0.5042435424354244,0.13334053531938692,0.48949886886454336,0.2724021316507355,5420.0,4432.788732394366,10.100000000000023,578.2746478873239,0.13045391576218193,0.11594202898550725,-3.0,-2.8840579710144927,0.42023319486463767,-1.401243943715064,9936150.392785529,9100670.0,2129476.0,3371976.0,4389294.283804367,1294548.5709107274,1222440.3112986963,0.08449836048905722,0.11322475280241988,0.06458592816654381,0.09666124399481457,0.09923807224015659,0.1052718537912102,0.10506850359675657,0.09045588571719072,0.07510294603594216,0.04586182354286877,0.042884649602196186,0.0771459800208434,3.6186179225672457,0.12417480173132915,0.4751048917220817,0.05714285714285714,0.48374558252589894,0.17968045569788352,0.0004227697643841082,91.65696918402675,393.99977380610153,0.027712812921101032,Kristian,REC_20260311_142945.csv
left,14,grass,17.232,1.1039999999999992,0.028985507246376812,22397.0,1.6728923310873036,33036.70446639616,2859.375,0.6814590291668553,0.173721015826279,0.5073610599926389,0.13239422111199814,0.4912923952512169,0.269481519338884,5434.0,4437.828571428571,5.199999999999989,574.4714285714285,0.12944876516185522,16.5,-0.373134328358209,16.12686567164179,0.4816764630365472,-1.2642869683713878,10249134.599892324,9292482.0,2820975.0,3276681.0,4424488.654696678,1082272.140399732,1188898.2231670434,0.0846424248667302,0.11297352630630167,0.06325165460585615,0.09734168576652674,0.0995853828127012,0.10609757667842704,0.10484857459246479,0.09006657052355077,0.07529422368726019,0.046238829800932246,0.04232765058844738,0.0773318997708017,3.704241926828881,0.11796489217819833,0.4542111425399894,0.057971014492753624,0.49480439789818453,0.18223407966320704,0.0007945717856421918,1529.4953416078133,1010.522438621891,0.009237604307033883,Kristian,REC_20260311_142945.csv
left,15,grass,18.352,1.152000000000001,0.013888888888888888,18487.0,1.2830888212814504,31584.458678280367,1354.1666666666667,0.3227310520644488,0.17148646159513722,0.498802726100571,0.13458773771282467,0.48860864376543917,0.2754509962729446,5429.0,4430.780821917808,6.899999999999977,583.8219178082192,0.13176501868930615,13.0,-0.323943661971831,12.676056338028168,0.35816270324779187,-1.4552127701918367,9627357.256020263,8806233.0,2239431.0,3181386.0,4168773.6451165807,1374064.2113697098,1239851.3324382058,0.08477741330109725,0.11335396525551328,0.06461027618126,0.09658151103581113,0.09839015356457163,0.10532482910646877,0.10507440167940962,0.09153895383169423,0.0749581848030744,0.04561180038769876,0.043048783881130454,0.07672972697227058,3.7071675519839986,0.14282104921028785,0.4808403808003196,0.05555555555555555,0.4750419330135854,0.14307659073105836,0.00039232864028839555,1993.6903805088025,987.2825959115328,0.024440403706431885,Kristian,REC_20260311_142945.csv
left,16,grass,19.52,1.152000000000001,0.0,19358.0,1.3699222885553375,31424.841765711408,1083.3333333333333,0.25818484165155897,0.1694915254237288,0.5118271558949525,0.13423592062668346,0.49296031334173523,0.2723057353575756,5369.0,4434.739726027397,-0.10000000000002274,582.9109589041096,0.13144197741369512,0.0,-0.1527777777777778,-0.1527777777777778,0.319828675622478,-1.5437516091349028,9772054.815732922,8985827.0,2101376.0,3214372.0,4385801.426104478,1240944.6913028695,1223615.8786082724,0.08366076061976425,0.1143061012676996,0.0615655966590061,0.09761039859638718,0.10010008154792793,0.10565398967059579,0.10535436281414486,0.09170435169397285,0.07528974225912471,0.04544443620728001,0.0425315689327106,0.07677860973138606,3.873521150314106,0.1444519548100331,0.4959538101816825,0.05555555555555555,0.49650986750629106,0.13745324890544863,0.00036340195524157785,2052.7324066554156,956.8461059575418,0.02771281292110305,Kristian,REC_20260311_142945.csv
left,17,grass,20.688,1.1040000000000028,0.10144927536231885,19081.0,1.3423070526944112,32341.59621911077,1100.0,0.26215691613850606,0.17409805735430156,0.5154486586493987,0.13141882030671126,0.4935479007823351,0.2662736891360215,5405.0,4453.7,25.5,572.2928571428571,0.1284982951574774,6.142857142857143,-0.2903225806451613,5.852534562211982,0.47066709970782444,-1.3742270045117215,10138982.833795559,8979719.0,3005456.0,3623652.0,4242525.7519426085,1234453.374824403,1192055.0087203516,0.08575213546361132,0.11387642377605779,0.06084507584384091,0.09728989379616948,0.10051353770059565,0.10616533925243538,0.10264338800162948,0.08876407738028413,0.07570270625707679,0.04632745165336045,0.042654742926427146,0.07946522794851152,3.874143647169574,0.14481965231003002,0.4800708636498359,0.057971014492753624,0.4896597745094528,0.16322513640576033,0.0008261129184433775,445.0104867678257,151.7833800007236,0.027712812921101063,Kristian,REC_20260311_142945.csv
left,18,grass,21.808,1.088000000000001,0.014705882352941176,20813.0,1.5149770473194082,32430.29239769509,942.7083333333334,0.22467046316794317,0.17476270240089337,0.5015819839940443,0.12732627583160167,0.49162753407398924,0.2589893100095992,5373.0,4428.768115942029,12.199999999999989,550.4782608695652,0.12429602238329762,2.0,-0.3582089552238806,1.6417910447761195,0.8721511535678029,-0.5592086230410835,9873194.039210057,8853880.0,2532647.0,3560122.0,4347848.567024102,1131408.1688196736,1206416.5638757115,0.08966408691526088,0.11603645466891371,0.06530752491123583,0.09663105191681529,0.1003550566945367,0.10484480586416217,0.09996891208665347,0.08397663497881114,0.07376016492956133,0.04753505571281313,0.04334964085279055,0.07857061046844577,4.448347292452824,0.16230920082052797,0.5275347289753947,0.08823529411764706,0.5303697138918972,0.16491383573795648,0.000981955897399457,930.3742974380455,86.40393201464866,0.033306655991457906,Kristian,REC_20260311_142945.csv
left,19,grass,22.912,1.1999999999999993,0.02666666666666667,17693.0,1.203931791412947,31179.122197393564,1529.513888888889,0.3645205857292043,0.17018542316871674,0.4958692858454195,0.13165562291461064,0.4876638939799802,0.2699720535799092,5447.0,4479.789473684211,1.6000000000000227,577.8092105263158,0.12898133135955636,3.0,-0.3698630136986301,2.6301369863013697,0.38173649458203057,-1.3056996656337416,9313613.346423289,8470257.0,2234545.0,3163060.0,4001380.753826201,1120728.341525206,1165560.7886208566,0.08516906339583627,0.1123789886742798,0.06332828140420133,0.09643897739555429,0.09759622162695615,0.1056910569105691,0.10614631796606983,0.0898773438601438,0.0755586493726209,0.04559953475257295,0.04177827905446684,0.0804372855867287,3.941181581112285,0.12917603097094837,0.48919365252836877,0.08,0.45012777914837815,0.18918095511144054,0.0004693697466701102,1563.1574883335772,303.74430287718883,0.06057502235520162,Kristian,REC_20260311_142945.csv
right,0,grass,0.688,1.1840000000000002,0.013513513513513514,18387.0,1.383244413585528,28711.048657267816,1606.25,0.37975257607738017,0.2167887547020392,0.4850524648584439,0.16510777137364774,0.4311704955227394,0.3829291964269997,5051.0,4078.3866666666668,-34.89999999999998,659.0533333333333,0.16159657903942407,12.0,-0.410958904109589,11.58904109589041,0.26987195637508754,-1.2627564437530772,8930452.339630116,8086634.0,2146580.0,3122743.0,3910593.512290354,1138376.07876281,1196667.523597441,0.07841662879766181,0.09170619754870389,0.0658659142994452,0.0872992261645945,0.06626149555870131,0.1002716760549106,0.1089385018258854,0.08673364304185642,0.08563190019582907,0.07448370107133866,0.07837412833179132,0.07601698710928177,4.513917270098767,0.22639418516972776,0.5516747444601848,0.06756756756756757,0.5043463762463327,0.234555437505893,0.0008331709244609233,0.0,0.0,0.0,Kristian,REC_20260311_144053.csv
right,1,grass,1.888,1.2160000000000002,1.0,16601.0,1.1928245258337962,28386.38737141449,1828.125,0.43220867121647355,0.22219950940310712,0.5228945216680294,0.15972919652752723,0.43812179655937883,0.36457715133510327,4892.0,3995.805194805195,-28.899999999999977,624.1688311688312,0.15620602124955715,0.07894736842105263,0.0,0.07894736842105263,0.48981269530152044,-1.0627940960034723,8854880.60725321,8043873.0,2028072.0,3097086.0,3951292.9983558664,995138.6326512316,1190609.1452836727,0.08080877023631926,0.09555800401069954,0.06672581960952557,0.09024398963848451,0.06743760502084979,0.09788511978470929,0.10956620091849568,0.08459845877332396,0.0869970781046357,0.07282962327375787,0.07513073775420326,0.07221859287499553,3.578032382051274,0.13582780851425819,0.47423275864000886,0.07894736842105263,0.459156936757929,0.1443127531335076,0.0006160264607849013,1262.8927111991738,156.88931707576523,0.02262741699796954,Kristian,REC_20260311_144053.csv
right,2,grass,3.12,1.1680000000000001,1.0,18760.0,1.4230129567721999,28272.559912395624,2101.5625,0.49685526733859564,0.2276570048309179,0.5344202898550725,0.1686745768885711,0.43627527032587504,0.38662419889736915,4968.0,4006.675675675676,-1.8000000000000114,660.7837837837837,0.1649207066584821,0.4931506849315068,0.0,0.4931506849315068,0.3312780613129107,-1.0736185421883115,8964735.903302506,8236906.0,1571145.0,3170390.0,4008147.8598428266,1100961.6556416384,1182863.5776418445,0.07961712547302811,0.09443361417094442,0.06449708931715312,0.08898325092581974,0.06863882574352262,0.09760737148137905,0.10787739380898095,0.08851781149028311,0.08661220800420918,0.07315493736804117,0.08015676539828799,0.06990360681835045,3.589628518594107,0.1396204025542302,0.46417483041091845,0.0821917808219178,0.43512116108931126,0.21550959265768907,0.0005555148034076423,1153.99350084825,248.1031555245721,0.02444040370643119,Kristian,REC_20260311_144053.csv
right,3,grass,4.304,1.1360000000000001,0.014084507042253521,15683.0,1.094949130001719,28777.184243772008,562.5,0.13298728345122263,0.2306134845110346,0.5191334278193966,0.1657924322743901,0.43737360728718166,0.37906364150005734,4939.0,3990.2638888888887,3.0,646.0625,0.16190971775049687,3.0,-0.6285714285714286,2.3714285714285714,0.41120596601796344,-1.0964686220621005,8710410.766320266,8047538.0,1187522.0,3114190.0,3941185.3751645233,1042039.1330358611,1232154.4227818784,0.07944684805725047,0.09230801360255343,0.06489754576242869,0.09039015102732693,0.06773779233481496,0.09972189252312053,0.10757433892912958,0.0863908332434154,0.08721575779936583,0.0713020233276134,0.0794015990309747,0.07361320436200613,4.3291238111153545,0.17799242632184897,0.526752482378662,0.08450704225352113,0.4997481703935334,0.20682048234175723,0.0006680579758998933,1579.6589294317096,821.10576723683,0.040265783654777405,Kristian,REC_20260311_144053.csv
right,4,grass,5.456,1.1679999999999993,0.0136986301369863,17190.0,1.2556225739221332,32042.758152194077,1857.8125,0.4392274445097325,0.22768222768222768,0.5126945126945127,0.1578341999774068,0.4372884024879931,0.3609384540712788,4884.0,3947.608108108108,-10.300000000000011,608.081081081081,0.15403785391769906,6.0,0.0,6.0,0.59174059011666,-0.8476699220434738,8950815.23093232,8026769.0,1802052.0,3527135.0,4005112.928416116,988803.9497638954,1321774.2976747882,0.08029152103737125,0.09173190744994403,0.06955974024640306,0.09126635013333426,0.06564700485754289,0.10001951232871086,0.11169267739958853,0.08385851165433739,0.08862362771846106,0.07114811226777762,0.0739756883230694,0.07218534658345972,3.7212343504935785,0.11903500971949096,0.455464245477079,0.0547945205479452,0.4970350996305624,0.18900233151258108,0.0007306369838248644,1538.6074873079233,827.2405851244747,0.018475208614067946,Kristian,REC_20260311_144053.csv
right,5,grass,6.64,1.1360000000000001,1.0,19736.0,1.5270722011426872,30984.13955558553,1389.1369047619048,0.3284222992108897,0.22971360381861575,0.5137231503579952,0.16590132605572322,0.43664285861592506,0.3799474164801524,5028.0,4040.8055555555557,-19.0,654.7430555555555,0.16203280424007863,0.8309859154929577,0.0,0.8309859154929577,0.30420340506065485,-1.1502197876857567,8950175.580269976,8003556.0,1910786.0,3521027.0,4089825.6998168128,867640.1776932373,1195380.9199249456,0.07929180787659226,0.09305419023984492,0.06505853480810345,0.09012573125545649,0.06536100475015294,0.09912421203142938,0.10915727749554888,0.08745162199506423,0.0889777203390413,0.0740638899009411,0.07844970406065897,0.06988430524716607,3.7901974933450573,0.14532581339702833,0.48493576533166416,0.08450704225352113,0.46677089063115296,0.21136160113965158,0.0004726492618616166,2048.5756840627923,655.8480335339856,0.01847520861406767,Kristian,REC_20260311_144053.csv
right,6,grass,7.792,1.136000000000001,0.0,16310.0,1.161798665063497,28223.197444655347,1572.9166666666667,0.3718718481691596,0.22821576763485477,0.4987156688401502,0.16983468410857316,0.43786829686975226,0.38786704888798385,5061.0,4094.0138888888887,-16.80000000000001,679.4583333333334,0.16596385644352019,0.0,-0.39436619718309857,-0.39436619718309857,0.2648769760628201,-1.1440126130195167,8648545.160728075,8030434.0,1560149.0,2806314.0,3906471.202856557,1239524.9093200262,1051209.7299721984,0.07853946649749466,0.09337481214103248,0.0621333993737469,0.08886280443330201,0.06632651330363777,0.0996509130878756,0.10509924720713508,0.08900868137422864,0.08965325390390443,0.07350840827902527,0.08082600273434452,0.0730164976642727,4.139516556055099,0.16292265028294853,0.5134027697608124,0.056338028169014086,0.5034501989934981,0.19423961027032996,0.0006692617678956612,1779.2316693824155,236.1487703081289,0.0184752086140674,Kristian,REC_20260311_144053.csv
right,7,grass,8.944,1.1199999999999992,0.0,16520.0,1.1841884614956717,29687.761468322264,1074.6527777777778,0.2540713841244037,0.22567862096294827,0.5157519318406975,0.1674833539402388,0.4424121637951265,0.3785686010606692,5047.0,4021.169014084507,-4.899999999999977,657.8028169014085,0.1635849710861182,0.0,-0.7428571428571429,-0.7428571428571429,0.4596789217461031,-1.1395723732538434,9012687.567985145,8240572.0,1833817.0,3155729.0,3998275.3946476625,1212124.8469561632,1265092.7655333267,0.07833893163994773,0.0964298098443799,0.06283646756776635,0.09189745817031694,0.06993271524292213,0.09917233794390952,0.10717225388174555,0.09030377964504752,0.08497984259359796,0.07166299478464325,0.07717957429519129,0.0700938343905318,4.051741109243981,0.14008913866894546,0.48968519702242985,0.05714285714285714,0.46030932128887764,0.22764353331664286,0.0005282198104419636,1920.2531083167146,251.9729383556294,0.009237604307034951,Kristian,REC_20260311_144053.csv
right,8,grass,10.08,1.1839999999999993,1.0,16702.0,1.2035929517368895,31885.798374825117,1383.3333333333335,0.32705020819115493,0.22468483123220823,0.5404636030906873,0.16315807099799062,0.44157736101808437,0.36948921163378173,4918.0,3981.3333333333335,-25.19999999999999,634.9466666666667,0.15948091091761554,0.1891891891891892,0.0,0.1891891891891892,0.3919882821268119,-1.0516902285065661,9105488.394634139,8142833.0,2166128.0,3451388.0,4142501.736133544,1203604.505367674,1292962.5549661631,0.07756530475552578,0.09003348961821835,0.06474882786336236,0.09153382451440054,0.06507032819825853,0.10291359678499665,0.11441728064300068,0.08797052913596785,0.09202612190221031,0.0711888814467515,0.07518754186202278,0.06734427327528467,4.211981947792981,0.1958573809982546,0.5158783457741632,0.08108108108108109,0.4916781919783641,0.21871782449597804,0.0006096857262447967,196.16659586519145,251.49301800333134,0.033306655991457906,Kristian,REC_20260311_144053.csv
right,9,grass,11.28,1.152000000000001,0.013888888888888888,15391.0,1.0638166511531715,29552.670437711717,1162.326388888889,0.2747993403413381,0.22273272073511785,0.5011985617259289,0.171243415889596,0.4317976977460667,0.39658251255939375,5006.0,3997.27397260274,-9.899999999999977,669.2671232876712,0.16743088611759382,5.0,0.0,5.0,0.23513756130863966,-1.1985891256429846,8769760.898193633,7971791.0,1788613.0,3187494.0,4028889.2354062195,1034657.9558017317,1134158.6568565385,0.0788311212093173,0.09091812570895919,0.06542815137713716,0.08911895435587952,0.06523966675919547,0.09937937155801385,0.10974602554480621,0.08941024876542575,0.08714157936401862,0.07590446914164105,0.08183316712417024,0.06704911909143561,4.10939733770448,0.1456376556559322,0.4954008240501597,0.05555555555555555,0.5246104791302948,0.16723209521108817,0.0006826336791416794,710.2213270054185,159.06729024536494,0.03200000000000007,Kristian,REC_20260311_144053.csv
right,10,grass,12.448,1.1999999999999993,0.013333333333333334,15276.0,1.0515555721545997,29614.893516607484,1281.25,0.3029154789722293,0.22477064220183487,0.5360989230155564,0.16186570955419055,0.434533902498565,0.37250421341895573,5014.0,3988.6052631578946,-31.69999999999999,631.1052631578947,0.158227054701881,16.0,-0.43243243243243246,15.567567567567568,0.3960256337825846,-1.109524083830886,8854123.838208104,7648032.0,2665815.0,3577226.0,3917544.3506069547,1227085.18163502,1237244.4397459216,0.08171303779846537,0.09137873019852606,0.07062223307184282,0.08784234035113184,0.06240144622510177,0.10192192231818273,0.10984251189243041,0.085341796037396,0.0909894634056226,0.07361760805452375,0.07652391351679455,0.06780499712998213,3.4043255709418068,0.1174553206621215,0.46510574827151474,0.08,0.47178883806004035,0.129435424763334,0.0007950601647154542,792.193368650191,110.61035343102785,0.024440403706430216,Kristian,REC_20260311_144053.csv
right,11,grass,13.664,1.152000000000001,0.0,13682.0,0.8816063554265702,30531.09958714229,1537.5,0.3634985747666752,0.22685089709218395,0.5196947824293668,0.16006823685554564,0.44306357076099384,0.3612760051125964,4849.0,3942.753424657534,-4.0,616.0890410958904,0.15625857737969084,0.0,-0.09722222222222222,-0.09722222222222222,0.4684082241420152,-1.0751942827539238,8800047.77763405,7772649.0,2090380.0,3557679.0,4024041.2874178207,1114300.6395092725,1290706.5949118875,0.08053269219410675,0.09177926558520748,0.0642656373231974,0.09219966576448556,0.06742385024025349,0.10253595116409157,0.1118229733063258,0.08635228145270846,0.08912483800695571,0.07041529283825711,0.07371595540283718,0.06983159672157348,4.098230613823782,0.1372806239013779,0.4943085950365263,0.08333333333333333,0.5361338683492818,0.19346979026024863,0.000489216164598753,955.2261512333107,191.72989953484844,0.027712812921101036,Kristian,REC_20260311_144053.csv
right,12,grass,14.832,1.1519999999999992,1.0,16032.0,1.132158839310428,30582.790013339203,1020.8333333333335,0.2413472921892559,0.21591574019894674,0.49853715623171446,0.15930602060912633,0.4428299832410053,0.3597453348644104,5127.0,4013.3835616438355,-26.100000000000023,624.2465753424658,0.15554121995924597,0.1111111111111111,0.0,0.1111111111111111,0.5432795338311407,-0.8504763380531521,8722649.099863756,7805636.0,2050063.0,3309667.0,3992729.8795304564,1262083.0301915016,1229886.394297131,0.08015987603122429,0.09464565477836144,0.06680046556555636,0.08946777392081973,0.06870505193240424,0.10221280168750448,0.10720295449813466,0.08442983578915751,0.08779870092191538,0.07143905494287947,0.07487618481996881,0.07226164511207366,4.067013245085875,0.14226056804103696,0.48948314983645996,0.08333333333333333,0.5248696274212551,0.1864638895102984,0.000695548294119718,1199.6438360335694,258.3361334973689,0.02771281292110158,Kristian,REC_20260311_144053.csv
right,13,grass,16.0,1.120000000000001,0.0,17343.0,1.271935139894146,28494.137853249744,1614.5833333333335,0.38172275805443534,0.21943015433320143,0.5043529877324892,0.1631100461608936,0.4381408788188449,0.3722776258643523,5054.0,3997.042253521127,-8.199999999999989,636.4788732394367,0.1592374643222101,0.0,-0.2857142857142857,-0.2857142857142857,0.42934974733811093,-1.050720884970857,8793446.86342739,7966904.0,1562593.0,3378084.0,3969107.994407392,1348118.71192122,1123780.180485592,0.0810705098840692,0.09610275203495543,0.06800451037739173,0.08812149829098981,0.06625673913809506,0.09875964621727333,0.10794954015292997,0.08625744388456254,0.08890024313753127,0.07223651291447901,0.07685260227633109,0.06948800169139152,4.261575554983858,0.1660148319495918,0.5166916321369585,0.08571428571428572,0.5028098374828402,0.2449541779437467,0.0008032595408934664,1854.9097911578715,322.85841768547783,0.018475208614067623,Kristian,REC_20260311_144053.csv
right,14,grass,17.136,1.152000000000001,0.0,14285.0,0.9458970566103856,30125.235218998707,1100.0,0.2600640209712798,0.22975206611570248,0.5371900826446281,0.15850626740947074,0.444025069637883,0.35697594178330305,4840.0,3934.246575342466,1.1000000000000227,608.6438356164383,0.15470403899721447,0.0,-0.5555555555555556,-0.5555555555555556,0.45750897586567896,-0.7281382856918608,8388843.781120852,7671245.0,1849699.0,2846632.0,3953504.9168921304,1250853.9927294147,1023593.488322344,0.07818941504178273,0.09081128133704736,0.0638300835654596,0.09300139275766017,0.06652158774373258,0.1018175487465181,0.11509401114206128,0.08624651810584959,0.09187325905292479,0.07013579387186629,0.07225974930362117,0.07021935933147633,4.093333577788806,0.18328752304824225,0.5271633267934623,0.08333333333333333,0.4943270192254591,0.2711088893700967,0.0005984749548953916,1534.1715462533316,322.38755935353026,0.018475208614067623,Kristian,REC_20260311_144053.csv
right,15,grass,18.304,1.1680000000000028,1.0,16209.0,1.1510302391604037,31724.263096248585,1343.75,0.3176918438001429,0.22053462940461727,0.5204536249493722,0.15864954290829,0.4427973275136692,0.3582892963673174,4938.0,4031.0675675675675,-14.5,624.9932432432432,0.155044100047268,0.3698630136986301,0.0,0.3698630136986301,0.4330884730819427,-0.8589119039102311,9285935.421367252,8513017.0,2042733.0,3095865.0,4104971.0392114883,1288153.175493562,1208548.849594059,0.08375824256869786,0.09428794598708008,0.06251445697102571,0.09165300587665397,0.06792178317728186,0.09983607051984754,0.10870301274895322,0.08594732131183813,0.08909852195280575,0.07018796576589262,0.07270222159645189,0.07338945152347141,3.7886239970001454,0.1470614180639867,0.4757660662854906,0.0821917808219178,0.4775344707124842,0.20604654317256996,0.00081515657751656,1545.9137535235718,257.410425808309,0.024440403706432013,Kristian,REC_20260311_144053.csv
right,16,grass,19.488,1.1359999999999992,1.0,15941.0,1.122456594189819,27330.889594010656,1425.0,0.33690111807643064,0.22732793522267206,0.5080971659919028,0.16481611667080198,0.4406824635403744,0.37400198625241887,4940.0,4030.3333333333335,6.199999999999989,648.8263888888889,0.16098578832740607,0.323943661971831,0.0,0.323943661971831,0.40862391982061597,-1.2312278731552009,8617111.176418465,7984008.0,1584584.0,2828306.0,3825431.9060445204,1018565.2660268656,1056201.8832088464,0.08049720177542524,0.09589777520469771,0.06248104650842224,0.09003942326248174,0.06886320403605987,0.09814117938962864,0.10684255506850825,0.08724119868772916,0.0877408816475064,0.07316392357952195,0.07757491798307281,0.07151669285694592,4.298324297986785,0.15155631972298084,0.5042794813895067,0.056338028169014086,0.5248301644365988,0.21729309040321484,0.0005987035051867544,1042.1081197905223,169.13536245662348,0.016000000000001895,Kristian,REC_20260311_144053.csv
right,17,grass,20.64,1.152000000000001,0.0,17142.0,1.2505049061662077,29583.106817912143,1311.1111111111113,0.30997529772334365,0.22555488902219556,0.5106978604279144,0.16487102281128602,0.4369631551355638,0.3773110406987146,5001.0,4076.328767123288,12.199999999999989,656.7534246575342,0.16111394889304098,0.0,-0.2777777777777778,-0.2777777777777778,0.3813290483949408,-1.174601501743533,8921731.070064655,8172155.0,1330464.0,3323106.0,4036168.2125777532,1156919.7651933443,1241447.117285284,0.07959418224832981,0.09485771510760421,0.06483136854273923,0.08961528638447165,0.06663933434597341,0.09780826152998266,0.10830656110117887,0.08658744774373932,0.08804255776753189,0.07553129998790209,0.07828357506754667,0.06990241017300014,3.7982477072774206,0.15554633442365592,0.4880348269676998,0.05555555555555555,0.4574728308747106,0.20879424603296903,0.0005619132992839165,630.4382073870019,58.64801585198434,0.016000000000001895,Kristian,REC_20260311_144053.csv
right,18,grass,21.808,1.1679999999999993,1.0,14108.0,0.9270256567604099,28861.276842856416,1179.3154761904761,0.27881593157432255,0.22062018566067548,0.4935808809006518,0.16493703930683984,0.4346505588417535,0.3794704411430301,5063.0,3991.1216216216217,25.69999999999999,643.2162162162163,0.16116176784281327,0.0547945205479452,0.0,0.0547945205479452,0.502118318136397,-1.0441298700407755,8710894.97164815,7941248.0,1715309.0,3142290.0,3740847.93662084,993540.6929782655,1186792.8833489076,0.08119711657293384,0.09484903992984428,0.06734542548833052,0.08874088771360757,0.0654967275337489,0.09776768029037425,0.10977067342039595,0.08842599960046454,0.0877962233741785,0.07284411684041944,0.0765110397063753,0.06925506952932692,4.6284412681350275,0.17029645746836136,0.5262232242698123,0.0547945205479452,0.5904320536351472,0.25627887021214213,0.0007146398534394065,1527.9313902572121,122.95097507813969,0.01600000000000009,Kristian,REC_20260311_144053.csv
right,19,grass,22.992,1.1679999999999993,0.0136986301369863,15367.0,1.0612578172752087,27290.71164334122,1272.9166666666667,0.3009452969951742,0.22121092204194698,0.5073209339137317,0.1596937140544096,0.4384476564740011,0.36422526542524275,5054.0,4006.1486486486488,15.5,624.7094594594595,0.15593766338904724,2.0,-0.09722222222222222,1.9027777777777777,0.5255283815655006,-0.910841155099479,8334604.300929169,7579615.0,1998751.0,2831971.0,3803333.6352621377,1248073.0633385086,1066411.5208212219,0.07926329459783103,0.0899563171476278,0.061311160209812615,0.09086033293417213,0.06577052166433354,0.10252483513518072,0.11323809684437773,0.08590848526757856,0.08933564959268692,0.07286097384088647,0.07378522878683105,0.07518510397868142,4.270786970684356,0.16312811421341758,0.5084615182125007,0.0547945205479452,0.49415988447290987,0.24200741720481,0.0006583420370246954,1524.2955750116196,67.81111982203882,0.009237604307033081,Kristian,REC_20260311_144053.csv
left,0,grass,1.28,1.168,0.9863013698630136,19162.0,1.4658734242280769,31177.129614510697,2075.0,0.49057531228673235,0.1890118132383274,0.5201575098443653,0.12875039445586536,0.49895679827450456,0.25803916271118515,5333.0,4410.7972972972975,13.199999999999989,555.418918918919,0.12592256716472783,1.5555555555555556,-58.0,-56.44444444444444,0.6660451780267855,-1.0500060777062967,9830365.856019856,8691390.0,2856405.0,3596774.0,4261445.656707259,1212585.942865956,1128113.2955115878,0.08545369317920704,0.1146909151069703,0.06147077656487918,0.09904135735709974,0.10111856960346079,0.10729812284964108,0.10477666904616742,0.0871203649520985,0.07680783335733259,0.04515026087702474,0.04163002950376686,0.07544140760235173,4.043918341235216,0.162233596695446,0.49393620912210573,0.0547945205479452,0.5045918713884793,0.18501905682346734,0.0009369245324118939,0.0,0.0,0.0,Kristian,REC_20260311_144053.csv
left,1,grass,2.464,1.1360000000000001,0.15492957746478872,16199.0,1.1499640583779192,27633.88226435077,1250.0,0.2955272965582725,0.18268700606506158,0.5013784230839919,0.1344465403681166,0.4917465171806554,0.273406187274861,5441.0,4432.472222222223,13.899999999999977,583.1041666666666,0.13155280787621654,5.181818181818182,-1.4,3.7818181818181817,0.4872674160450884,-1.4232239527892228,9611426.709457343,8553335.0,2935818.0,3255911.0,4163178.962248002,1209463.3703121254,997405.5776372385,0.08427388778522144,0.11319867894139839,0.06370911643238975,0.09749074068271406,0.0984339063351904,0.10668425571382911,0.10487626042652394,0.09029322738125825,0.07593893550752338,0.046171248801458925,0.044153312986858345,0.07477642900563393,4.098097335811292,0.22539976579663928,0.5694863813148718,0.04225352112676056,0.5277400979118614,0.15088650869852022,0.000917244897633751,2095.1573926557403,583.3630944789018,0.02262741699796946,Kristian,REC_20260311_144053.csv
left,2,grass,3.616,1.2159999999999997,1.0,17133.0,1.2495453434619714,31184.296785401464,701.3888888888889,0.16582364973547514,0.17423827768655356,0.4973544973544973,0.13796518991018625,0.4886164267373093,0.2823588859493996,5481.0,4471.012987012987,12.899999999999977,604.7662337662338,0.13526380610454647,0.6578947368421053,0.0,0.6578947368421053,0.2116491427406395,-1.5168718943189865,9860058.847657504,8957727.0,2399478.0,3349984.0,4111992.879557818,1081573.013557989,1039042.0908226249,0.08400722692785853,0.11379797134790338,0.06202435312024354,0.09653235270196475,0.09910011967420732,0.10515354316985605,0.10434893745570313,0.09213752076870346,0.07403243984337783,0.047375881580629046,0.045827669141482806,0.07566198426807022,4.2715583174385054,0.1314354802533091,0.5200235332000239,0.07894736842105263,0.5168052884315797,0.2315809735769384,0.0007788847391667739,1514.8468569462723,691.4244518627793,0.04026578365477711,Kristian,REC_20260311_144053.csv
left,3,grass,4.848,1.1680000000000001,1.0,19607.0,1.5133184690486372,34929.57139731319,994.7916666666666,0.23519047351095854,0.17086364484238015,0.5144562581607909,0.12846454170746152,0.49546723719041225,0.2592795891729841,5361.0,4471.945945945946,2.1999999999999886,562.2432432432432,0.12572675297047056,0.273972602739726,0.0,0.273972602739726,0.5107755144156889,-1.2326268005230945,10116791.772749007,8877093.0,3199712.0,3648087.0,4340125.160488541,1159835.4487591356,1107156.2079819303,0.08648209256506026,0.1132314368253738,0.06295403174142704,0.09904993291511043,0.09949716551232307,0.10719379676300299,0.10490928430697079,0.08770291668177588,0.07649490517460203,0.044134000556018904,0.04076162502568566,0.07758881193264919,4.033420861482154,0.19723844763230225,0.5089241292719028,0.0547945205479452,0.49378010405603695,0.1757214020052285,0.0003519380028435468,1761.036437253169,274.52705836433836,0.0402657836547771,Kristian,REC_20260311_144053.csv
left,4,grass,6.032,1.072,0.0,17956.0,1.337292021860446,29479.792299132638,929.6875,0.21979842681521516,0.18066679083628237,0.5088470851182716,0.12525673483066285,0.5002803760024687,0.2503730724588491,5369.0,4432.073529411765,-24.5,541.0882352941177,0.12208467023468633,0.0,-0.417910447761194,-0.417910447761194,0.83899982431496,-0.635079922788738,9284778.153214755,8567995.0,1833817.0,3071430.0,4251704.697595494,1190077.249675015,1117681.554130678,0.08831014562961832,0.11538882676744719,0.059529300121772766,0.09943891618914265,0.10179142016251853,0.10739230409348964,0.10146293230163812,0.08572537751218556,0.07626890878987062,0.04485352427658014,0.039531357318477275,0.08030698683725915,3.519034729310134,0.1654401382984264,0.5095517546461054,0.07462686567164178,0.4875783651672512,0.13591934692274127,0.000979016569259911,1259.881343619312,154.08006487988564,0.07332121111929335,Kristian,REC_20260311_144053.csv
left,5,grass,7.12,1.088,0.014705882352941176,13318.0,0.8427973749441344,30748.825440982295,675.3472222222223,0.1596668310571778,0.17727863374791164,0.5090031557453127,0.12595578579919248,0.49620632857091396,0.25383752392254,5387.0,4425.753623188406,-8.600000000000023,544.2101449275362,0.12296440137927872,24.0,-0.8805970149253731,23.119402985074625,0.7470218875502623,-0.8480591951521705,8916991.01775711,7800749.0,2861292.0,3236364.0,3977212.699660023,1092320.780895494,1077969.846196584,0.08665027163145882,0.11496609109395926,0.0657285912167583,0.09877299207209449,0.0998830953215206,0.10667470045222789,0.10396002318445724,0.08638175108145013,0.07590944963111171,0.04470212229473732,0.039574034717742325,0.07679687730248184,4.065252493400924,0.19022628906040576,0.5615430512955392,0.07352941176470588,0.4970025740135204,0.2678157179367124,0.0005087484784033162,3260.5819010313685,168.80574758375232,0.05143280405862936,Kristian,REC_20260311_144053.csv
left,6,grass,8.224,1.2639999999999993,0.0,17650.0,1.3046668899164202,29140.68844416686,813.5416666666666,0.192339015510009,0.18690719732192673,0.517388878556816,0.13166088177885998,0.4927691229402682,0.26718573800485423,5377.0,4476.4625,6.100000000000023,577.50625,0.12900951365056673,0.0,-1.4050632911392404,-1.4050632911392404,0.3733151093041045,-1.5043058982900919,9472692.53129658,8494692.0,2278527.0,3518583.0,3987160.1199513827,1183674.7126660936,1139270.7027370315,0.08523750617814849,0.11387339891711369,0.06387298005958947,0.09807130072015571,0.09916033028311977,0.10551579511723823,0.10522259485028636,0.08965784925038467,0.07614829790264076,0.04545162614452819,0.042003032528475336,0.07578528804831941,4.369249324034648,0.200970189356431,0.5911660363646797,0.0759493670886076,0.4953565146511438,0.31010047351311426,0.0008080517005375815,2593.93215023061,127.32932103805939,0.10653324989567002,Kristian,REC_20260311_144053.csv
left,7,grass,9.504,1.152000000000001,0.9861111111111112,17803.0,1.3209794558884331,30329.319230737772,859.375,0.20317501638381236,0.16875,0.5119485294117647,0.12822700033069703,0.4965184093163843,0.2582522579720338,5440.0,4432.315068493151,14.300000000000011,556.0068493150685,0.12544389122231187,0.19718309859154928,-21.0,-20.802816901408452,0.5562357923906213,-1.2741604429797933,9991697.43267399,8908858.0,3009122.0,3378084.0,4191472.7339286776,1268962.8237462325,1239593.7614767947,0.08615739324203622,0.11446753142394432,0.06161472868935805,0.09863734280301274,0.10011775286732869,0.10755070945329909,0.10344326691577116,0.08833319425514358,0.0757450727687995,0.04432267376274497,0.039893806075553456,0.07971652774300823,3.8892211307494065,0.146803765215307,0.48361844742802595,0.08333333333333333,0.5191304996363217,0.1804755913954771,0.000701992115305235,2546.39804429708,95.79894042000946,0.08908422980528008,Kristian,REC_20260311_144053.csv
left,8,grass,10.672,1.2159999999999993,0.9736842105263158,18578.0,1.403608466530982,33137.33616330679,1057.2916666666665,0.24996683833887212,0.1678113978095415,0.5190272879153518,0.13183635947092617,0.49433487322701974,0.26669443450395963,5387.0,4478.298701298701,4.0,578.7467532467532,0.1292336201421574,0.06756756756756757,-4.0,-3.9324324324324325,0.3616466575746709,-1.2852441541765585,9806290.940349873,8820894.0,2996904.0,3061656.0,4160745.1687433375,1312571.6639808747,1028567.1489368118,0.08300635967392533,0.11186704134513048,0.061529047730904306,0.09888379457644224,0.09851549608646605,0.1070965609041003,0.10681526205742556,0.0889774351925157,0.07797198031488072,0.045558813208865845,0.042858924278410454,0.076919284630933,3.4780758713022033,0.11274085828871466,0.4627219755697199,0.07894736842105263,0.5245215843118113,0.11507550772406645,0.00026753243127395775,497.53023358720577,129.54134725309896,0.05619015334854739,Kristian,REC_20260311_144053.csv
left,9,grass,11.904,1.024000000000001,1.0,19808.0,1.5347487027765756,31878.72169645452,2025.0,0.47875422042440147,0.2016730314602655,0.49427168576104746,0.12826223657077415,0.4983857879076369,0.25735532529768995,5499.0,4379.369230769231,7.199999999999989,546.4384615384615,0.12477560871077324,3.640625,0.0,3.640625,0.8994984904067943,-0.33921074328010814,9458242.54853395,8726820.0,2158797.0,2939483.0,4345326.00502612,1216580.7074015462,995402.8612001739,0.08640865035006796,0.11441408843563702,0.06090445058824769,0.1001022275775577,0.10086454319027327,0.10748298841772085,0.10348170969475758,0.08711475836000267,0.075521940286448,0.04698955592480828,0.04114747821077148,0.07556760896370746,3.7416342169796826,0.14711639475054986,0.49704143957293767,0.046875,0.5246391412838048,0.1737975127181467,0.0013297761746372404,1011.0679172703182,623.7403394004353,0.09776161482572411,Kristian,REC_20260311_144053.csv
left,10,grass,12.944,1.2639999999999993,0.012658227848101266,16611.0,1.1938907066162805,29166.728133268563,2546.875,0.6021368667374802,0.20120834859026,0.5113511534236543,0.1386266904405779,0.48979327401122785,0.2830310210371249,5462.0,4437.6375,17.80000000000001,602.78125,0.13583381923377022,56.0,-2.0384615384615383,53.96153846153846,0.40592670625895816,-1.3890440011101268,9076991.146054622,8249124.0,2678033.0,2678033.0,3863588.702098979,1049488.310627296,780960.4150667782,0.08385092292914868,0.1122387756999079,0.0632797293604987,0.09758289179771895,0.09800541391675188,0.10602488373599692,0.10703048637929528,0.09353231308325657,0.07594130886085221,0.04554225080349623,0.04509437735732133,0.07187664607575539,3.9918834823439697,0.13519082699887558,0.5384223702660867,0.11392405063291139,0.5419223242909605,0.27408408450445204,0.0006704617883460339,1612.596147004369,755.8297251996445,0.1269960629310996,Kristian,REC_20260311_144053.csv
left,11,grass,14.224,1.1679999999999993,0.9178082191780822,18568.0,1.4025422857484975,31275.923343684037,1875.0,0.4432909448374088,0.1762536873156342,0.5051622418879056,0.13504797908124136,0.49089937376579923,0.27510318060745637,5424.0,4475.486486486487,-0.5,591.7162162162163,0.1322127143055564,0.16417910447761194,-3.8333333333333335,-3.6691542288557217,0.4049034630175906,-1.4550864899407032,9615662.170200033,8829446.0,2163684.0,3133738.0,4110929.0409008884,1259811.418771748,1052372.3417292766,0.0850337876601064,0.11312978205600478,0.062052743775401126,0.09754035496669544,0.09883871902797824,0.10590121563109552,0.1053154420778656,0.09209628426322368,0.0754893020840253,0.04550011171969829,0.04295169481801767,0.07615056191988792,3.4574882331810937,0.12734997939550524,0.4637653091936093,0.0821917808219178,0.4903175107875436,0.19058801874567355,0.0005116558983927739,1611.844595486799,352.6730145734614,0.12079735096433132,Kristian,REC_20260311_144053.csv
left,12,grass,15.408,1.136000000000001,1.0,20574.0,1.6164181507148883,30608.9977784311,1128.5714285714287,0.2668189306068975,0.1727556453093446,0.5087203965485588,0.13181648173544447,0.49460478743298836,0.26650870570726903,5447.0,4456.111111111111,13.699999999999989,574.375,0.12889602293978306,0.11267605633802817,0.0,0.11267605633802817,0.49110510447521927,-1.3349386209788692,9561069.671288773,8581434.0,3065321.0,2894279.0,4184110.1421794924,1374758.6573810459,1088444.013424275,0.0844969455180152,0.11238623613015833,0.06050056102730333,0.09863171674354819,0.09974442089515023,0.10718738311931181,0.10448198478992643,0.09010098491459917,0.07665503054481984,0.045471262934796156,0.04171549682084528,0.078627976561526,3.7398615721884716,0.11777130230314062,0.46416122784703184,0.056338028169014086,0.5030136552450217,0.17658345693037444,0.0005040968860012851,1981.5504872027202,709.4782882039609,0.0666133119829158,Kristian,REC_20260311_144053.csv
left,13,grass,16.56,1.152000000000001,0.0,19128.0,1.4622484095676296,30426.693445065634,1729.1666666666667,0.40881276023894364,0.18092410465763592,0.5071441825941733,0.1287162287137625,0.4954159833286065,0.25981444492138506,5389.0,4443.671232876713,4.800000000000011,559.1575342465753,0.12583233658458387,0.0,-1.0972222222222223,-1.0972222222222223,0.5908038602527618,-1.1593409987063847,9395742.064216375,8665734.0,2665815.0,2465452.0,4011608.6887484128,1366184.379290898,1119306.2092661723,0.0862269874348003,0.11430755761618802,0.06156516270638864,0.0987243671159229,0.10005610565125714,0.1067641219773851,0.10493298149130054,0.08791940515678755,0.07556383096785331,0.045242117464271175,0.040796823556974976,0.07790053886087031,3.7309347522375234,0.1350550024105438,0.47930296845062564,0.08333333333333333,0.5026113187644986,0.15394343731677473,0.0009113441756284264,1035.0967748637513,395.6297961012463,0.01599999999999987,Kristian,REC_20260311_144053.csv
left,14,grass,17.728,1.0879999999999974,0.9852941176470589,21205.0,1.6836941580896603,31053.14499370394,2200.0,0.5201280419425596,0.19427402862985685,0.5127347090537274,0.1309004001706179,0.4969474373125727,0.2634089449750483,5379.0,4451.0,-17.5,568.731884057971,0.12777620401212558,2.1492537313432836,-27.0,-24.850746268656717,0.737795855580685,-0.6698721616597267,10165835.432167934,9579588.0,1736079.0,2926044.0,4269708.669971357,1324840.6184208586,1110811.951209419,0.08574852093162585,0.11338601649523475,0.06208993907898892,0.09963890218449525,0.0997170477892934,0.1081046760376271,0.1031163815980125,0.08755563804258285,0.07610079480592213,0.04597566415623911,0.043344762128035064,0.07522165675194306,4.0720617729513,0.2043331703456659,0.5697673961628735,0.04411764705882353,0.5194096704761346,0.17281977670772364,0.0010952878110607083,1064.8165726233515,537.0223228559995,0.03330665599146046,Kristian,REC_20260311_144053.csv
left,15,grass,18.832,1.2159999999999975,0.07894736842105263,19770.0,1.5306972158031344,30431.800817565825,1143.75,0.27040747635081935,0.18028581898131182,0.5075119091242213,0.1353905651094406,0.48900445085184036,0.27686980123295557,5458.0,4540.207792207792,-2.8999999999999773,602.5194805194806,0.13270746804883352,1.1666666666666667,-1.2142857142857142,-0.04761904761904745,0.3678542883297145,-1.344461908875277,9478605.552599443,8643743.0,2094046.0,3277902.0,4052317.9439916587,1104482.364103885,994764.2668663888,0.0841027929381343,0.1111540177805238,0.060867401228847005,0.09768132358493804,0.09811325072369248,0.10635419169555715,0.10612249568072861,0.09211489833979793,0.07570166706712891,0.04617615762194075,0.04327566676964267,0.0783361365690683,4.209143206625502,0.13641934028460972,0.5404541746987694,0.05263157894736842,0.5026551681014033,0.16147222467254,0.0002285613862318815,1063.4313956872538,529.1598315394078,0.06400000000000024,Kristian,REC_20260311_144053.csv
left,16,grass,20.064,1.120000000000001,1.0,19435.0,1.4949801595899037,30465.70440675876,1231.25,0.29109438710989843,0.17240103588605254,0.5051794302626711,0.12915444924052702,0.4956237494179681,0.2605897102230076,5406.0,4476.788732394366,-2.0,565.2887323943662,0.12627103180096397,0.44285714285714284,0.0,0.44285714285714284,0.5227938296970589,-1.3144065141651453,9678176.94765605,8976053.0,2156354.0,2906496.0,4228940.653424585,1285408.3795462993,1143241.8193630236,0.08861986081572557,0.11515107660168884,0.05873802901979538,0.09889193712797152,0.10130500987881152,0.10628216905981401,0.10102500534840114,0.08832097957539987,0.07399355674968225,0.046162994097882035,0.040833469665127166,0.08067591205970075,3.997535937063395,0.14772356549999496,0.48827074511460367,0.05714285714285714,0.4750374717102795,0.2001957666770848,0.0007016492667646305,940.2437627197227,586.2020236232554,0.06661331198291591,Kristian,REC_20260311_144053.csv
left,17,grass,21.2,1.184000000000001,1.0,19042.0,1.4530792548382627,31015.307978480563,2088.5416666666665,0.4937768579994469,0.1837037037037037,0.5127777777777778,0.13035240171300613,0.4911706531875337,0.26539126649160205,5400.0,4489.573333333334,13.300000000000011,572.3,0.12747313775919314,0.6081081081081081,0.0,0.6081081081081081,0.6706961330067077,-1.0152118593930537,9452117.951119369,8654738.0,2177123.0,3114190.0,4093389.54249793,1341481.627411154,1163227.7127056555,0.08780641367553857,0.11408953486300108,0.0621172613284707,0.09714657369074417,0.09907697242202673,0.10612738255751102,0.10211809288484724,0.08817467435658324,0.07473018965425073,0.04665328256879644,0.04217772735642288,0.07978189464180709,3.4791854125293593,0.12498129728889668,0.46364414828786676,0.08108108108108109,0.5089410045837502,0.15445495872213005,0.0007419921851401514,364.3848697920146,522.0530856051082,0.04888080741286103,Kristian,REC_20260311_144053.csv
left,18,grass,22.4,1.184000000000001,0.0,16381.0,1.169368548619137,32504.565956185295,1554.6875,0.3675620750943514,0.18592964824120603,0.5077238042062162,0.13139804798479976,0.4943730936184578,0.2657872155278524,5373.0,4463.08,7.5,573.6466666666666,0.12853156713898622,0.0,-1.0675675675675675,-1.0675675675675675,0.5809533622140493,-1.20085310887672,9451526.310904974,8582656.0,2678033.0,2915048.0,4008277.2213762957,1419620.154415152,1115616.362416464,0.08466499965644055,0.11291753676833038,0.06016771676361019,0.09844621502041938,0.09947689338603237,0.10678425362455225,0.10462729774057378,0.08865327681033427,0.07674819481912343,0.04688839695158202,0.04274477117446547,0.07788044728453594,3.4232187018381395,0.1299702201792625,0.4666791506795409,0.08108108108108109,0.5080063276226922,0.17489601055350396,0.0005839934014991812,1661.4394361516793,432.9282252694473,0.03695041722813639,Kristian,REC_20260311_144053.csv
right,0,grass,1.344,1.1199999999999999,1.0,17094.0,1.3226527908120973,29334.60763330575,2164.583333333333,0.5571163937925738,0.2218393280206763,0.5037691147964678,0.17268805045288446,0.4298361116065161,0.40175323987403755,4643.0,3711.7323943661972,-0.19999999999998863,626.5915492957746,0.1688137728481822,0.2571428571428571,0.0,0.2571428571428571,0.44483665496551966,-0.6589783020774047,8673395.086511914,7585724.0,2085493.0,3651752.0,3846469.428952743,1222779.687476988,1347935.6654294904,0.08241472604948906,0.08864165019181658,0.06084626972713095,0.09083492389947369,0.06690623185711088,0.09527080100025423,0.10607400211738188,0.08988248151085443,0.08818250465786069,0.0753226351159058,0.08280556894203002,0.07281820493069179,4.274899237927057,0.17053883800112654,0.5541792520997649,0.07142857142857142,0.5508657797656978,0.16681978455552404,0.0009705175564339087,0.0,0.0,0.0,Kristian,REC_20260406_180141.csv
right,1,grass,2.48,1.1680000000000001,0.0,15793.0,1.1783838332186556,30070.68288216947,1265.625,0.32574418597592747,0.22296137339055794,0.5081545064377683,0.16175560458123092,0.44047020962116745,0.3672339264901755,4660.0,3711.972972972973,-1.1000000000000227,586.7702702702703,0.15807503840749074,0.0,-0.7671232876712328,-0.7671232876712328,0.7771845346657069,-0.34863894119677585,9092603.396807648,8016995.0,2328618.0,3602883.0,4014413.9571267045,1214624.2384981,1266502.6592116095,0.0814530045215264,0.09116227255848496,0.060356188520710924,0.09177752051433273,0.06990891417837095,0.09758051010972528,0.10813437889080622,0.0840414145606256,0.09004099226025353,0.07485638146829471,0.07771419002060534,0.07297423239626337,5.272209196678983,0.23724237261333236,0.5973231545163229,0.0821917808219178,0.5258200399538385,0.22281024878548308,0.0005658684894428226,919.9459223236984,635.6595335041566,0.03394112549695439,Kristian,REC_20260406_180141.csv
right,2,grass,3.664,1.1679999999999997,1.0,18975.0,1.5312384243503478,30995.969705753683,770.8333333333334,0.19839563590303402,0.2234982332155477,0.5143551236749117,0.16597539439387404,0.4314165735753339,0.38472187801748065,4528.0,3665.391891891892,-3.1000000000000227,594.8108108108108,0.16227754858261534,0.2465753424657534,0.0,0.2465753424657534,0.6450322545579252,-0.6887509254158872,9355218.173192648,8316319.0,2476447.0,3496592.0,4013069.6479319357,1236563.1674603475,1214969.1898879677,0.08206047065503118,0.08865244304838167,0.06462934902429222,0.09035942471399762,0.06592341071896003,0.09473195226350192,0.11039341687589174,0.085927908597215,0.09174934283049266,0.07805662165101626,0.08004748579665903,0.06746817382456062,4.126058054984561,0.15964527664225228,0.4902493063415766,0.0547945205479452,0.5126926113319373,0.22498204673980365,0.0006436430914420389,1599.7857148172486,706.5743580794382,0.027712812921101997,Kristian,REC_20260406_180141.csv
right,3,grass,4.848,1.1520000000000001,0.013888888888888888,18980.0,1.5317928784533204,31174.73861959391,1119.357638888889,0.288098167226309,0.22990317496059445,0.5034902049088044,0.1699402030727332,0.4360994345934105,0.38968223664648555,4441.0,3702.027397260274,-0.19999999999998863,615.3904109589041,0.1662306474053462,5.0,-0.4507042253521127,4.549295774647887,0.31785052954376813,-0.7479715407212333,9083510.535446193,8068308.0,1478293.0,3902207.0,4087866.333662798,1121493.905032861,1377162.1085023258,0.08025961339214352,0.08712367899114887,0.05900876232201533,0.09308857049820905,0.06678680323258636,0.09746603120097096,0.10934030964151446,0.08895903022409046,0.09163435067049526,0.07492007341404931,0.08098117284864272,0.07043160356413368,4.197268937163714,0.1898262999597695,0.5182027921051443,0.05555555555555555,0.48143360705169636,0.24286265357284353,0.0005114136441310428,1838.5736319223122,254.19222578335217,0.009237604307033737,Kristian,REC_20260406_180141.csv
right,4,grass,6.016,1.1840000000000002,1.0,16630.0,1.2711994500562505,29270.78478619936,1316.9642857142858,0.33895779493085926,0.2201354007425202,0.49661498143699495,0.17412193212135815,0.43316480004535163,0.40197618112787803,4579.0,3763.1866666666665,3.1000000000000227,641.9466666666667,0.17058592186055083,0.2702702702702703,0.0,0.2702702702702703,0.10320200018756967,-0.8938705196365588,8905908.045961231,7964460.0,1648114.0,3628539.0,3809054.617074409,1158063.6613724015,1309980.3631339623,0.08075071127661308,0.08943484068466796,0.05923348651320335,0.08935689256268624,0.06740032383901587,0.09537661343754762,0.10619723000719249,0.0901895202293092,0.09159612952143396,0.07639978883145136,0.08393241189204895,0.07013205120482996,3.9622474636894482,0.16608483572167212,0.49506269908488376,0.08108108108108109,0.48626912134754063,0.2256248186542131,0.0003465455073460867,1355.3320626326235,276.5190154947412,0.01599999999999984,Kristian,REC_20260406_180141.csv
right,5,grass,7.216,1.1680000000000001,0.0,18023.0,1.4256703631443859,28966.557959136255,1061.0119047619048,0.27308125173525727,0.2192257503262288,0.4873858199217051,0.16736865200830153,0.42956467317217045,0.38962387379819785,4598.0,3757.0405405405404,0.0,615.3445945945946,0.16378439038777645,0.0,-0.3150684931506849,-0.3150684931506849,0.37872374414456406,-0.9956216598935157,9102968.509754825,8238128.0,1546710.0,3550348.0,3940473.4178914647,1320199.5468612837,1222305.6217676683,0.08140392272526176,0.08908319875117347,0.05952787739055683,0.08887817826710932,0.06512817377104607,0.09576614716154536,0.10950611644444125,0.08663374349419649,0.09070897522129623,0.07799770520931872,0.08073490851410506,0.07463105304994946,4.043280123862886,0.16222636909660174,0.5097238479853746,0.0547945205479452,0.49847035990041927,0.2170757563024305,0.00042656476513600945,1181.7217664633818,134.14186077655933,0.01599999999999984,Kristian,REC_20260406_180141.csv
