sole_id,timestamp,accel_x,accel_y,accel_z,gyro_x,gyro_y,gyro_z,magn_x,magn_y,magn_z,pressure_01,pressure_02,pressure_03,pressure_04,pressure_05,pressure_06,pressure_07,pressure_08,pressure_09,pressure_10,pressure_11,pressure_12,corrupt,concrete,transition,uneven modular paved,brick,asphalt
1,1788964827184,411,76,13496,992045,241902,-13439,0,0,0,310,309,338,266,228,286,583,521,317,509,530,312,0,,,,,
2,1788964827184,0,0,0,0,0,0,0,0,0,263,202,253,206,133,277,226,118,228,169,161,231,0,,,,,
1,1788964827200,550,363,10969,645073,14660,-54977,0,0,0,310,313,349,280,245,292,582,516,317,515,524,326,0,,,,,
2,1788964827200,-3804,923,11031,69638,-511905,459370,0,0,0,263,196,244,207,129,272,227,115,224,172,159,228,0,,,,,
1,1788964827216,248,258,10681,486248,-216246,-48869,0,0,0,317,315,333,295,257,294,593,515,311,523,523,326,0,,,,,
2,1788964827216,-2861,11189,20334,-183259,-1929112,1604132,0,0,0,266,197,244,213,135,272,228,119,218,174,166,223,0,,,,,
1,1788964827232,4,631,10605,334754,-332310,-53756,0,0,0,319,319,327,292,258,298,598,512,316,520,525,336,0,,,,,
2,1788964827232,3172,18540,17166,-1392772,-3152064,2514321,0,0,0,271,204,248,214,137,276,229,119,217,174,167,225,0,,,,,
1,1788964827248,-4,1057,10495,322536,-367740,-54977,0,0,0,323,323,329,295,262,303,593,500,318,522,507,337,0,,,,,
2,1788964827248,9131,14855,7619,-2528982,-2399478,2604729,0,0,0,271,209,251,213,140,277,226,118,219,173,168,226,0,,,,,
1,1788964827264,52,1186,10538,460592,-411723,-42760,0,0,0,327,324,326,301,266,308,592,494,338,515,490,346,0,,,,,
2,1788964827264,9437,10715,3838,-3014009,-361632,2233323,0,0,0,270,209,252,212,142,278,228,121,220,173,170,224,0,,,,,
1,1788964827280,-4,1100,10471,621860,-486248,-32986,0,0,0,326,326,315,305,268,305,589,475,333,492,474,358,0,,,,,
2,1788964827280,2995,9906,7422,-3425732,863763,1717753,0,0,0,269,207,248,212,142,275,233,124,222,176,172,224,0,,,,,
1,1788964827296,-215,990,10275,750142,-536339,-20769,0,0,0,338,328,315,319,270,309,583,453,326,471,458,359,0,,,,,
2,1788964827296,-358,8829,9983,-4141666,474031,1287703,0,0,0,272,207,248,222,142,275,244,124,223,184,175,225,0,,,,,
1,1788964827312,-430,861,10088,802676,-485026,0,0,0,0,340,327,311,324,271,314,578,433,329,457,439,369,0,,,,,
2,1788964827312,985,6168,9925,-5011538,-191811,638965,0,0,0,280,209,251,236,139,279,261,123,220,194,174,224,0,,,,,
1,1788964827328,-521,727,9959,823446,-388510,19547,0,0,0,343,332,305,329,278,313,577,414,345,449,427,380,0,,,,,
2,1788964827328,1617,3752,9916,-5613851,125838,-199142,0,0,0,283,208,244,235,141,270,260,123,213,193,177,217,0,,,,,
1,1788964827344,-473,607,9844,821002,-280998,34208,0,0,0,350,337,305,337,286,317,574,395,346,437,409,387,0,x,,,,
2,1788964827344,-626,2708,11462,-5915618,541226,-757472,0,0,0,283,205,241,234,143,270,256,123,217,191,179,216,0,x,,,,
1,1788964827360,-425,488,9772,813672,-194255,39095,0,0,0,352,346,310,344,300,328,569,371,338,424,395,394,0,,,,,
2,1788964827360,-1531,2474,12830,-6051231,543670,-731816,0,0,0,275,208,241,226,143,274,242,125,219,183,181,216,0,,,,,
1,1788964827376,-478,325,9767,790459,-116064,43982,0,0,0,359,362,315,353,319,335,569,353,350,421,391,403,0,,,,,
2,1788964827376,-693,2091,14079,-6183177,631634,-259006,0,0,0,274,208,248,219,141,279,234,125,222,179,178,224,0,,,,,
1,1788964827392,-540,162,9767,746477,-35430,54977,0,0,0,372,376,319,361,331,338,572,344,364,421,377,419,0,,,,,
2,1788964827392,186,1186,15534,-6346889,894306,357967,0,0,0,271,205,248,220,141,281,236,127,225,179,178,227,0,,,,,
1,1788964827408,-564,-52,9853,679282,48869,70860,0,0,0,383,386,318,366,348,349,575,306,359,419,352,445,0,,,,,
2,1788964827408,646,382,16970,-6450736,1095892,946841,0,0,0,274,209,245,214,139,270,233,126,216,180,178,221,0,,,,,
1,1788964827424,-564,-186,10054,623082,120951,83077,0,0,0,401,398,323,377,349,345,570,276,348,411,336,453,0,,,,,
2,1788964827424,1359,57,18841,-6500827,1121548,1506393,0,0,0,273,204,249,219,138,278,225,121,222,179,178,227,0,,,,,
1,1788964827440,-674,-148,10299,619417,212581,111177,0,0,0,415,427,347,383,351,347,571,243,353,408,312,477,0,,,,,
2,1788964827440,2321,-516,21167,-6565579,1155757,1798387,0,0,0,270,202,252,224,142,288,231,117,220,176,174,225,0,,,,,
1,1788964827456,-818,-67,10547,686612,318871,172263,0,0,0,433,453,351,393,368,352,562,224,351,392,292,492,0,,,,,
2,1788964827456,2096,-2392,23957,-6699969,1302364,1524719,0,0,0,268,203,243,221,143,275,228,116,215,170,169,212,0,,,,,
1,1788964827472,-780,-191,10787,813672,383623,263893,0,0,0,450,447,327,407,379,368,554,199,357,388,268,515,0,,,,,
2,1788964827472,-100,-6834,26800,-6918659,1304808,910189,0,0,0,263,201,235,219,142,272,227,114,212,172,172,211,0,,,,,
1,1788964827488,-703,-387,11074,972497,403171,353080,0,0,0,448,456,308,398,384,371,527,192,353,372,244,525,0,,,,,
2,1788964827488,-2364,-14199,28676,-6980967,1194852,398284,0,0,0,268,206,242,224,143,278,232,117,217,173,170,214,0,,,,,
1,1788964827504,-464,-607,11605,1186300,389732,432492,0,0,0,479,478,295,411,392,367,524,182,347,364,230,545,0,,,,,
2,1788964827504,-4101,-25474,28944,-6482501,906524,-163711,0,0,0,269,209,248,228,147,289,237,116,221,173,169,221,0,,,,,
1,1788964827520,-4,-837,12203,1475850,366519,470366,0,0,0,486,491,256,416,415,365,502,187,341,355,226,555,0,,,,,
2,1788964827520,-3551,-37128,25833,-5418374,158824,-913854,0,0,0,266,209,250,228,151,296,236,112,221,174,169,224,0,,,,,
1,1788964827536,368,-952,12672,1803274,335975,434936,0,0,0,511,481,223,429,417,361,479,174,336,349,213,555,0,,,,,
2,1788964827536,-1344,-45718,18545,-3771481,-316428,-1495398,0,0,0,267,209,252,228,149,292,238,114,223,175,171,221,0,,,,,
1,1788964827552,167,-899,13596,2222327,321315,377514,0,0,0,528,478,218,445,415,347,458,168,335,358,205,548,0,,,,,
2,1788964827552,-4508,-49801,13309,-1594358,229685,-1014036,0,0,0,264,198,239,230,148,281,241,164,220,193,226,207,0,,,,,
1,1788964827568,-205,-823,14644,2747671,367740,364075,0,0,0,522,488,220,446,410,338,432,171,335,359,207,535,0,,,,,
2,1788964827568,-8791,-47374,14577,772133,470366,619417,0,0,0,256,177,209,237,149,259,262,286,195,233,325,179,0,,,,,
1,1788964827584,-507,-1019,15080,3310889,436157,406836,0,0,0,511,480,212,439,407,347,383,166,336,341,202,522,0,,,,,
2,1788964827584,-6116,-24206,20401,2796541,-345749,2090380,0,0,0,257,176,180,239,149,237,302,408,170,270,401,159,0,,,,,
1,1788964827600,-564,-1210,15391,4009719,449596,483805,0,0,0,498,464,209,428,405,356,334,166,338,321,194,504,0,,,,,
2,1788964827600,-2675,7695,16573,3910759,-1794722,1539380,0,0,0,263,190,173,241,157,244,301,459,171,290,479,160,0,,,,,
1,1788964827616,-603,-1177,16104,4681671,445931,571769,0,0,0,478,462,220,422,403,358,309,175,332,304,191,474,0,,,,,
2,1788964827616,-3340,11280,13591,4852713,-2103819,36651,0,0,0,264,186,176,250,151,240,329,480,171,331,519,148,0,,,,,
1,1788964827632,-1076,-1387,18138,5406157,505796,690277,0,0,0,458,452,223,423,398,357,297,175,323,287,188,444,0,,,,,
2,1788964827632,-3316,-2632,18736,5358509,-741590,-866206,0,0,0,278,189,186,255,138,234,368,503,176,365,552,140,0,,,,,
1,1788964827648,-2995,-2254,23469,6343224,773355,882089,0,0,0,438,418,202,393,372,342,286,172,319,274,183,429,0,,,,,
2,1788964827648,268,-5183,22904,4459316,412944,-824668,0,0,0,290,194,199,258,129,235,422,515,195,417,552,131,0,,,,,
1,1788964827664,-5470,-2206,28609,7231422,1131322,1134987,0,0,0,399,379,192,346,344,322,280,170,319,258,181,408,0,,,,,
2,1788964827664,3283,-1655,19607,2921157,489913,-510683,0,0,0,303,201,211,276,129,239,464,519,191,438,538,129,0,,,,,
1,1788964827680,-6781,-1048,31787,8091520,1176526,1524719,0,0,0,348,333,175,290,288,282,312,183,295,243,182,357,0,,,,,
2,1788964827680,2316,-4,13199,1799608,128281,-223576,0,0,0,338,220,225,312,177,255,483,520,187,474,542,132,0,,,,,
1,1788964827696,-7236,2062,35663,8814785,609643,1974316,0,0,0,327,239,207,226,164,224,351,191,279,280,227,330,0,,,,,
2,1788964827696,1392,-291,10169,1114218,36651,-113620,0,0,0,323,204,254,293,153,284,479,517,188,461,539,150,0,,,,,
1,1788964827712,-9274,9763,32529,8866098,803898,2377487,0,0,0,330,248,210,228,172,226,351,188,280,287,228,321,0,,,,,
2,1788964827712,1550,-808,10198,636521,9773,-84299,0,0,0,314,225,257,289,153,288,492,513,205,475,539,180,0,,,,,
1,1788964827728,-11950,18143,20579,6203947,1681101,2294409,0,0,0,338,258,212,230,177,222,351,185,285,294,223,320,0,,,,,
2,1788964827728,1622,14,10586,365297,-127059,-62308,0,0,0,311,242,267,280,169,297,484,492,207,460,532,189,0,,,,,
1,1788964827744,-10954,19554,15754,1459967,1127657,1247386,0,0,0,337,247,214,228,171,222,357,185,282,296,226,326,0,,,,,
2,1788964827744,1263,804,10480,364075,-162490,-63529,0,0,0,308,243,272,277,186,305,487,482,216,446,517,207,0,,,,,
1,1788964827760,-5781,14649,15175,-2538755,404392,-576656,0,0,0,337,244,213,229,171,223,358,185,277,298,232,328,0,,,,,
2,1788964827760,976,1038,10212,544891,-68416,-86742,0,0,0,310,251,273,285,199,303,484,459,209,457,479,206,0,,,,,
1,1788964827776,-3335,9557,11734,-3446501,1171639,-2255314,0,0,0,337,245,210,230,173,221,357,187,277,303,236,329,0,,,,,
2,1788964827776,914,756,9973,696386,61086,-92851,0,0,0,314,247,272,289,188,305,482,415,204,444,441,208,0,,,,,
1,1788964827792,-5977,8944,7762,-2915048,1177748,-2792875,0,0,0,337,246,210,230,173,221,357,189,279,302,237,327,0,,,,,
2,1788964827792,976,579,9882,762359,166155,-79412,0,0,0,318,239,271,294,173,311,489,375,212,427,407,218,0,,,,,
1,1788964827808,-5575,8939,6953,-3279124,-62308,-2820975,0,0,0,336,248,211,231,174,222,357,190,278,301,237,323,0,,,,,
2,1788964827808,1201,612,9983,806342,208915,-68416,0,0,0,315,244,270,301,176,311,478,362,217,415,382,223,0,,,,,
1,1788964827824,-2014,7891,8619,-4268726,-791681,-2670702,0,0,0,331,250,209,229,177,222,357,191,277,300,238,320,0,,,,,
2,1788964827824,1435,473,9949,867428,160046,-74525,0,0,0,314,245,266,304,175,320,441,336,215,389,371,228,0,,,,,
1,1788964827840,-1378,6020,9825,-5127602,-259006,-2337170,0,0,0,328,252,207,229,180,223,358,192,278,300,239,321,0,,,,,
2,1788964827840,1512,186,9719,879645,61086,-91629,0,0,0,330,257,265,318,187,332,424,289,213,392,344,228,0,,,,,
1,1788964827856,-2938,4292,10552,-5915618,-17104,-1672549,0,0,0,330,252,212,232,179,226,362,189,280,302,240,323,0,,,,,
2,1788964827856,1397,-33,9447,807563,-25656,-114842,0,0,0,334,285,256,328,229,334,425,267,211,381,319,227,0,,,,,
1,1788964827872,-3895,2962,11519,-6558249,-471587,-858876,0,0,0,327,252,211,230,176,224,364,190,279,303,243,322,0,,,,,
2,1788964827872,1330,-220,9399,708603,-53756,-139277,0,0,0,340,293,253,329,250,337,429,252,217,377,288,222,0,,,,,
1,1788964827888,-3053,1478,13323,-6934542,-891863,-354301,0,0,0,324,249,210,229,172,223,365,191,278,299,236,318,0,,,,,
2,1788964827888,1335,-406,9485,615752,-59864,-153938,0,0,0,341,315,261,352,282,355,434,242,228,342,292,243,0,,,,,
1,1788964827904,-2742,-19,15242,-7031058,-922406,-364075,0,0,0,323,252,214,232,173,226,365,191,280,297,233,312,0,,,,,
2,1788964827904,1359,-425,9538,566882,-75747,-161268,0,0,0,334,299,246,349,328,354,424,191,231,337,270,243,0,,,,,
1,1788964827920,-3589,-928,16616,-6984633,-883311,-767246,0,0,0,318,248,214,234,172,229,369,188,281,299,233,312,0,,,,,
2,1788964827920,1378,-421,9624,549778,-85521,-179594,0,0,0,348,315,271,346,316,372,424,185,247,325,254,273,0,,,,,
1,1788964827936,-4938,-1507,18377,-6984633,-1037249,-1387885,0,0,0,316,248,214,232,175,229,371,186,280,302,233,313,0,,,,,
2,1788964827936,1450,-440,9758,575435,-83077,-216246,0,0,0,357,322,265,362,285,374,433,160,269,328,233,290,0,,,,,
1,1788964827952,-6561,-2091,20909,-7026171,-1321912,-1943773,0,0,0,316,248,216,232,173,231,377,186,284,302,230,313,0,,,,,
2,1788964827952,1574,-512,9887,634078,-76969,-270002,0,0,0,372,331,280,379,306,417,421,153,272,315,226,317,0,,,,,
1,1788964827968,-8011,-3565,24953,-7117801,-1914451,-1973094,0,0,0,320,249,214,252,176,236,385,182,285,312,226,313,0,,,,,
2,1788964827968,1775,-631,10155,713490,-65973,-334754,0,0,0,388,331,289,385,318,428,408,129,299,306,204,349,0,,,,,
1,1788964827984,-7796,-7647,29504,-7305948,-2605951,-1480737,0,0,0,316,249,211,250,180,240,388,183,285,308,224,311,0,,,,,
2,1788964827984,1655,-770,10763,869872,-79412,-409279,0,0,0,389,338,275,382,317,437,397,114,315,300,183,371,0,,,,,
1,1788964828000,-5288,-15663,32012,-7401243,-2764776,-726929,0,0,0,316,255,212,249,183,241,389,184,284,304,221,306,0,,,,,
2,1788964828000,1277,-818,11404,1114218,-84299,-448375,0,0,0,403,342,255,390,330,451,389,110,318,285,170,366,0,,,,,
1,1788964828016,-2522,-26240,29691,-6819699,-2135584,-171042,0,0,0,318,262,214,254,185,246,393,181,286,304,217,306,0,,,,,
2,1788964828016,1100,-732,12299,1451415,-15882,-436157,0,0,0,417,355,238,385,362,441,377,107,326,280,167,383,0,,,,,
1,1788964828032,995,-34725,24005,-5512447,-1776396,85521,0,0,0,319,264,213,260,185,249,400,178,288,307,219,307,0,,,,,
2,1788964828032,1349,-832,13572,1968207,85521,-430049,0,0,0,433,363,234,382,371,440,334,112,327,270,170,397,0,,,,,
1,1788964828048,7202,-41004,17683,-3651752,-2072054,-8552,0,0,0,318,264,216,268,190,263,409,181,299,308,225,313,0,,,,,
2,1788964828048,1651,-909,14788,2613281,109955,-439822,0,0,0,441,363,231,387,367,439,279,123,309,250,169,393,0,,,,,
1,1788964828064,10232,-48044,12964,-1822821,-1204626,-195476,0,0,0,313,247,204,276,192,260,432,231,303,320,276,308,0,,,,,
2,1788964828064,2249,-861,15582,3387858,20769,-488692,0,0,0,439,359,230,384,359,426,231,116,296,231,161,389,0,,,,,
1,1788964828080,6470,-50686,9590,-295658,135612,-232128,0,0,0,302,223,175,269,177,237,464,340,283,347,363,285,0,,,,,
2,1788964828080,2885,-899,16400,4320038,-50090,-654847,0,0,0,429,350,230,372,340,411,186,91,290,218,148,387,0,,,,,
1,1788964828096,3962,-40655,13342,1949881,1599245,-518013,0,0,0,294,223,162,248,163,238,485,455,268,376,434,267,0,,,,,
2,1788964828096,3397,-698,18320,5358509,-72082,-877202,0,0,0,408,342,214,358,327,392,151,82,272,205,129,355,0,,,,,
1,1788964828112,6815,-10638,16678,3797138,3605326,-1640784,0,0,0,306,241,167,252,174,245,502,502,274,420,481,251,0,,,,,
2,1788964828112,4781,-823,22589,6579018,-160046,-1166752,0,0,0,383,330,202,339,316,363,153,81,270,172,110,271,0,,,,,
1,1788964828128,9150,8351,17506,4438546,4203974,-2070833,0,0,0,303,236,183,256,167,260,539,539,286,464,512,240,0,,,,,
2,1788964828128,6460,-1550,29959,7830070,-366519,-1470963,0,0,0,313,285,176,292,274,312,154,83,234,156,109,210,0,,,,,
1,1788964828144,9509,5479,19956,4257730,2817310,-910189,0,0,0,307,242,246,274,181,274,565,565,305,506,536,257,0,,,,,
2,1788964828144,7470,-1158,36640,8725599,-245567,-1693318,0,0,0,270,249,172,239,229,256,162,107,200,155,155,185,0,,,,,
1,1788964828160,4039,-3460,23397,3442836,1094670,398284,0,0,0,297,283,301,285,219,279,581,565,298,505,551,241,0,,,,,
2,1788964828160,7671,2469,38047,9264382,563217,-1916895,0,0,0,270,184,220,187,125,242,229,148,213,177,210,220,0,,,,,
1,1788964828176,153,-4895,21493,2190562,524122,454483,0,0,0,312,308,328,283,247,289,582,561,316,517,560,278,0,,,,,
2,1788964828176,9356,10782,30500,9005375,1645670,-2269975,0,0,0,283,186,213,225,141,275,233,132,226,181,202,220,0,,,,,
1,1788964828192,296,-1119,15137,1089783,470366,-35430,0,0,0,332,322,340,292,268,303,580,553,323,529,558,308,0,,,,,
2,1788964828192,7877,24020,18980,6706078,2453234,-2630385,0,0,0,285,186,208,223,139,252,232,120,210,179,181,212,0,,,,,
1,1788964828208,971,1000,10892,692721,131946,-158824,0,0,0,347,341,348,302,274,309,584,543,317,530,550,320,0,,,,,
2,1788964828208,1253,29059,19822,1039692,273667,-1269377,0,0,0,289,185,214,219,139,259,239,125,215,188,187,221,0,,,,,
1,1788964828224,593,866,10203,604756,-184481,-75747,0,0,0,350,354,369,301,273,315,592,525,330,524,527,334,0,,,,,
2,1788964828224,2081,22163,16822,-3566231,-3229033,554665,0,0,0,304,187,214,228,135,255,242,126,210,190,190,214,0,,,,,
1,1788964828240,138,636,10820,577878,-266337,-26878,0,0,0,346,360,368,305,278,319,591,506,331,513,507,343,0,,,,,
2,1788964828240,9188,13213,6968,-3900985,-3303559,698829,0,0,0,299,191,212,226,138,251,245,130,210,192,192,207,0,,,,,
1,1788964828256,354,1110,10973,636521,-291993,-37873,0,0,0,352,365,353,313,281,317,583,479,328,497,487,348,0,,,,,
2,1788964828256,8379,11643,3354,-3518583,-990823,125838,0,0,0,305,195,212,232,143,251,248,138,210,192,200,203,0,,,,,
1,1788964828272,598,1383,10758,819781,-437379,-48869,0,0,0,356,364,354,321,282,322,574,440,335,472,467,356,0,,,,,
2,1788964828272,1411,12002,6623,-4262617,267558,157603,0,0,0,290,201,212,227,144,251,246,139,209,187,204,201,0,,,,,
1,1788964828288,363,1191,10500,970053,-577878,-56199,0,0,0,354,364,360,327,287,330,568,405,343,451,447,369,0,,,,,
2,1788964828288,961,8174,8289,-5246110,-689055,792903,0,0,0,276,202,212,222,145,254,242,139,207,184,200,202,0,,,,,
1,1788964828304,-14,976,10270,1064127,-627969,-61086,0,0,0,358,369,347,330,289,330,565,373,345,443,418,381,0,,,,,
2,1788964828304,3354,4603,8341,-5606521,-879645,957836,0,0,0,277,198,215,223,144,258,245,136,212,183,196,204,0,,,,,
1,1788964828320,-263,804,10074,1081231,-542448,-52534,0,0,0,360,370,319,336,300,332,561,346,344,432,392,392,0,,,,,
2,1788964828320,3622,3015,9571,-5718920,-145385,647517,0,0,0,285,195,215,227,142,257,249,132,213,184,195,202,0,,,,,
1,1788964828336,-339,626,9839,1081231,-393397,-24434,0,0,0,362,374,309,350,316,350,557,323,353,408,366,404,0,,,,,
2,1788964828336,1742,2383,12634,-6142860,139277,444709,0,0,0,289,195,212,231,142,256,248,130,209,186,194,199,0,,,,,
1,1788964828352,-339,277,9686,1033583,-256563,8552,0,0,0,368,387,305,374,333,345,549,296,336,403,345,405,0,,,,,
2,1788964828352,1785,1536,14912,-6594901,-53756,538783,0,0,0,284,197,214,232,142,259,248,130,208,185,194,199,0,,,,,
1,1788964828368,-411,-81,9609,921184,-133168,50090,0,0,0,384,402,305,380,339,343,547,265,348,404,329,429,0,,,,,
2,1788964828368,2885,588,16377,-6874677,-25656,759916,0,0,0,282,197,218,229,142,260,249,129,211,187,195,204,0,,,,,
1,1788964828384,-540,-196,9595,797790,-12217,106290,0,0,0,416,405,305,399,346,340,546,249,340,404,310,440,0,,,,,
2,1788964828384,3517,-358,17980,-6978524,221133,1089783,0,0,0,286,195,225,228,140,265,247,126,216,186,191,209,0,,,,,
1,1788964828400,-536,-220,9696,700051,75747,185703,0,0,0,433,421,310,411,347,340,546,228,340,403,290,466,0,,,,,
2,1788964828400,4446,-1287,19952,-6966307,475253,1462411,0,0,0,296,193,217,237,138,262,248,121,211,190,188,200,0,,,,,
1,1788964828416,-382,-349,9877,645073,114842,243124,0,0,0,445,435,308,409,362,346,553,212,343,403,286,475,0,,,,,
2,1788964828416,5427,-2488,22340,-6879564,875980,1578475,0,0,0,297,193,218,246,143,272,255,120,218,190,185,207,0,,,,,
1,1788964828432,-201,-473,10031,631634,150272,262672,0,0,0,453,442,311,416,371,348,550,197,345,397,266,487,0,,,,,
2,1788964828432,4833,-4589,26417,-6893003,1442863,1154535,0,0,0,302,198,210,256,138,259,268,111,207,199,181,198,0,,,,,
1,1788964828448,-100,-497,10208,662177,160046,265115,0,0,0,468,448,300,428,375,354,549,186,342,390,243,497,0,,,,,
2,1788964828448,3335,-7733,30342,-7136127,1501506,521678,0,0,0,292,189,200,244,142,257,258,125,210,189,190,200,0,,,,,
1,1788964828464,4,-540,10557,739146,144164,271224,0,0,0,469,455,286,419,384,353,538,184,353,386,227,504,0,,,,,
2,1788964828464,3809,-13902,31059,-7187440,967610,7330,0,0,0,302,193,210,253,149,261,266,124,209,207,196,190,0,,,,,
1,1788964828480,224,-617,11050,906524,102625,261450,0,0,0,481,463,267,414,392,352,530,179,362,370,214,521,0,,,,,
2,1788964828480,6111,-22187,28274,-6660874,536339,-355523,0,0,0,300,192,188,254,146,248,260,114,201,193,185,175,0,,,,,
1,1788964828496,402,-717,11438,1109331,21991,239459,0,0,0,494,471,250,417,405,357,522,172,356,350,205,537,0,,,,,
2,1788964828496,6125,-30279,21703,-5452583,907745,-388510,0,0,0,298,211,188,250,169,253,259,159,205,202,233,167,0,,,,,
1,1788964828512,473,-890,11844,1376890,-117286,200363,0,0,0,501,481,233,419,415,362,510,172,347,340,199,551,0,,,,,
2,1788964828512,-1387,-36984,16750,-3693291,2184454,160046,0,0,0,305,217,183,256,177,246,265,167,206,197,242,165,0,,,,,
1,1788964828528,301,-976,12591,1667662,-237015,167377,0,0,0,509,477,214,424,412,362,494,174,343,334,194,565,0,,,,,
2,1788964828528,-8781,-44412,14419,-1620014,1868025,1288925,0,0,0,303,211,187,254,165,244,270,150,210,196,224,169,0,,,,,
1,1788964828544,124,-961,13534,2008524,-260228,140499,0,0,0,516,460,199,426,408,363,467,167,353,325,190,562,0,,,,,
2,1788964828544,-5527,-48934,10882,131946,197920,1640784,0,0,0,286,197,187,248,150,244,282,187,204,222,251,169,0,,,,,
1,1788964828560,-378,-933,14108,2445904,-157603,138055,0,0,0,521,460,199,421,403,358,438,169,369,326,189,546,0,,,,,
2,1788964828560,-4039,-37549,13802,1742187,-235793,877202,0,0,0,269,176,167,245,140,230,296,281,189,247,335,153,0,,,,,
1,1788964828576,-1143,-1225,14472,3031113,-6108,233350,0,0,0,510,449,200,428,397,361,415,175,344,327,185,535,0,,,,,
2,1788964828576,-6049,-10318,19760,3265685,-678060,630412,0,0,0,259,171,147,244,145,218,299,372,174,279,422,141,0,,,,,
1,1788964828592,-1507,-1483,15008,3646865,83077,387288,0,0,0,502,445,200,427,392,369,360,228,323,303,177,535,0,,,,,
2,1788964828592,-5216,15486,16908,4214970,-1761735,488692,0,0,0,259,178,149,247,149,223,310,428,174,312,483,139,0,,,,,
1,1788964828608,-1421,-1469,15668,4278500,140499,561996,0,0,0,476,445,203,421,406,377,322,170,350,295,187,498,0,,,,,
2,1788964828608,-2928,6690,13706,4897917,-1855808,-353080,0,0,0,266,181,165,250,141,233,349,468,180,340,534,138,0,,,,,
1,1788964828624,-1770,-1871,17468,4982216,188146,724486,0,0,0,457,448,212,437,400,383,315,170,385,277,174,458,0,,,,,
2,1788964828624,-641,-5613,18669,5218010,-410501,-904080,0,0,0,277,189,182,257,142,239,394,500,178,381,569,138,0,,,,,
1,1788964828640,-3101,-2536,21162,5880188,221133,922406,0,0,0,411,422,194,413,395,368,307,174,361,256,169,418,0,,,,,
2,1788964828640,1497,-3737,21904,4327369,665843,-799011,0,0,0,297,197,192,273,140,242,440,519,180,413,577,127,0,,,,,
1,1788964828656,-4532,-2502,26173,6830695,174707,1182635,0,0,0,366,388,183,371,378,326,291,175,338,228,169,393,0,,,,,
2,1788964828656,3541,-717,19071,2928487,643851,-520457,0,0,0,315,194,213,285,126,249,475,516,180,423,572,132,0,,,,,
1,1788964828672,-4919,-1541,29959,7709119,-163711,1492954,0,0,0,339,337,172,311,309,287,317,177,315,231,177,357,0,,,,,
2,1788964828672,3206,-593,13505,1731192,8552,-191811,0,0,0,324,216,246,292,147,278,499,528,193,434,588,164,0,,,,,
1,1788964828688,-4795,890,32840,8423831,-819781,1825265,0,0,0,316,255,194,242,190,244,348,187,295,258,217,332,0,,,,,
2,1788964828688,1809,-971,10906,945619,-199142,-52534,0,0,0,321,235,257,286,153,294,499,526,206,435,588,216,0,,,,,
1,1788964828704,-5675,6326,32921,8751255,-1213178,2250427,0,0,0,317,230,206,224,154,231,362,189,289,274,230,323,0,,,,,
2,1788964828704,1421,-521,10418,503352,-201585,-34208,0,0,0,321,223,273,299,177,324,516,513,206,446,564,203,0,,,,,
1,1788964828720,-8207,15319,20909,7439116,-681725,2817310,0,0,0,332,238,208,230,164,233,365,187,289,278,225,324,0,,,,,
2,1788964828720,1488,459,10538,365297,-210137,-59864,0,0,0,342,238,270,310,181,317,513,495,207,458,549,200,0,,,,,
1,1788964828736,-8475,18827,14783,3307224,-345749,2772106,0,0,0,344,236,212,228,162,232,368,189,288,279,226,326,0,,,,,
2,1788964828736,1340,1038,10500,549778,-215024,-103847,0,0,0,318,269,270,300,216,317,509,480,213,460,520,213,0,,,,,
1,1788964828752,-5580,15735,14917,-1722639,-116064,1606575,0,0,0,348,235,213,229,161,233,371,192,288,279,228,326,0,,,,,
2,1788964828752,1000,961,10418,783129,-118507,-142942,0,0,0,327,249,271,303,193,321,487,432,209,432,475,214,0,,,,,
1,1788964828768,-4268,10198,12534,-3445279,703716,91629,0,0,0,348,234,217,229,159,230,370,190,286,281,226,326,0,,,,,
2,1788964828768,732,612,10222,919963,127059,-134390,0,0,0,311,262,263,311,208,332,464,382,206,406,433,212,0,,,,,
1,1788964828784,-6451,8193,7226,-2653598,634078,-1050688,0,0,0,346,234,219,229,158,230,365,187,283,279,222,322,0,,,,,
2,1788964828784,875,473,10131,981049,350636,-111177,0,0,0,312,256,256,312,197,333,450,343,211,395,386,217,0,,,,,
1,1788964828800,-5776,8628,5398,-2510656,-833220,-1681101,0,0,0,338,238,215,230,161,233,371,192,288,279,228,321,0,,,,,
2,1788964828800,1249,435,10117,1033583,470366,-103847,0,0,0,317,257,257,318,178,331,458,309,229,415,347,225,0,,,,,
1,1788964828816,-1536,7839,7106,-3346319,-1604132,-2180788,0,0,0,333,239,212,231,167,237,375,197,291,277,234,321,0,,,,,
2,1788964828816,1564,320,9906,1039692,415388,-127059,0,0,0,309,267,254,320,204,340,452,280,238,395,319,228,0,,,,,
1,1788964828832,559,6106,8638,-4118453,-1236391,-2463008,0,0,0,330,241,208,228,167,236,374,195,292,277,233,320,0,,,,,
2,1788964828832,1646,14,9562,974940,267558,-151494,0,0,0,317,268,248,333,225,348,458,246,244,372,296,232,0,,,,,
1,1788964828848,-38,4307,9246,-4731762,-912632,-2004859,0,0,0,328,252,212,226,173,234,374,202,292,275,236,318,0,,,,,
2,1788964828848,1502,-330,9289,849102,96516,-156381,0,0,0,332,270,248,345,224,354,460,209,253,360,265,239,0,,,,,
1,1788964828864,186,2847,10102,-5261993,-1103222,-1152091,0,0,0,328,251,211,228,172,234,377,198,292,276,234,317,0,,,,,
2,1788964828864,1387,-440,9270,730594,24434,-146607,0,0,0,330,278,262,336,231,365,435,190,263,330,256,254,0,,,,,
1,1788964828880,1598,1866,11691,-5683490,-1391551,-201585,0,0,0,332,253,213,229,173,235,379,200,292,276,235,317,0,,,,,
2,1788964828880,1435,-536,9361,642630,8552,-146607,0,0,0,332,285,272,339,237,376,429,179,275,324,267,270,0,,,,,
1,1788964828896,2857,1143,13625,-6057339,-1409876,491135,0,0,0,329,254,213,229,174,235,379,202,293,278,238,316,0,,,,,
2,1788964828896,1617,-646,9447,576656,-7330,-163711,0,0,0,347,294,256,353,236,377,436,158,271,330,238,262,0,,,,,
1,1788964828912,3522,134,15333,-6367659,-1350012,851546,0,0,0,324,254,214,231,175,236,381,201,291,282,238,315,0,,,,,
2,1788964828912,1751,-722,9542,526565,-58643,-201585,0,0,0,352,302,257,351,268,378,431,152,273,315,231,276,0,,,,,
1,1788964828928,3297,-957,16243,-6439741,-1340238,692721,0,0,0,318,255,215,229,174,235,381,203,291,282,241,315,0,,,,,
2,1788964828928,1770,-737,9696,503352,-117286,-244346,0,0,0,360,304,261,360,282,401,421,126,283,327,210,314,0,,,,,
1,1788964828944,2613,-1588,17051,-6305350,-1485624,138055,0,0,0,315,258,213,227,177,235,381,203,289,281,244,316,0,,,,,
2,1788964828944,1718,-727,9892,529009,-168598,-285884,0,0,0,354,368,251,361,309,395,413,129,294,309,196,307,0,,,,,
1,1788964828960,1842,-1799,18497,-6164851,-1609019,-470366,0,0,0,316,266,211,248,195,233,385,203,288,281,245,316,0,,,,,
2,1788964828960,1675,-727,10145,596204,-207694,-321315,0,0,0,362,354,255,370,306,435,403,121,292,301,197,325,0,,,,,
1,1788964828976,564,-1885,20832,-6150191,-1593136,-814894,0,0,0,318,270,212,265,204,234,390,203,291,281,241,316,0,,,,,
2,1788964828976,1608,-737,10461,708603,-245567,-351858,0,0,0,375,351,263,358,333,417,392,111,309,311,200,349,0,,,,,
1,1788964828992,19,-3211,23397,-6321233,-1725083,-508239,0,0,0,318,263,216,247,185,240,389,195,294,280,231,319,0,,,,,
2,1788964828992,1584,-885,10768,866206,-266337,-382401,0,0,0,388,352,279,369,326,431,383,109,310,348,171,349,0,,,,,
1,1788964829008,1531,-6786,25178,-6478836,-1892460,0,0,0,0,316,263,219,271,202,239,389,194,297,279,233,318,0,,,,,
2,1788964829008,1383,-1177,11155,1087340,-233350,-411723,0,0,0,401,371,265,370,329,435,357,107,313,299,167,370,0,,,,,
1,1788964829024,4848,-13577,25197,-6351776,-1806939,376292,0,0,0,315,273,221,240,180,248,390,193,299,279,231,315,0,,,,,
2,1788964829024,1215,-1325,11849,1374446,-177150,-410501,0,0,0,416,365,251,374,335,443,339,102,318,274,158,385,0,,,,,
1,1788964829040,6436,-21507,23852,-5657833,-1293812,466701,0,0,0,308,287,210,246,204,251,395,197,298,281,239,315,0,,,,,
2,1788964829040,1296,-1196,12830,1805717,-147829,-398284,0,0,0,417,378,246,371,338,450,304,101,329,264,157,392,0,,,,,
1,1788964829056,5250,-28949,20861,-4625471,-593761,574213,0,0,0,316,277,220,251,188,254,396,192,296,284,229,315,0,,,,,
2,1788964829056,1402,-1052,13658,2345722,-158824,-389732,0,0,0,413,378,234,380,355,447,248,93,319,238,151,399,0,,,,,
1,1788964829072,4053,-35151,15544,-3251024,-439822,662177,0,0,0,323,280,220,259,189,254,396,189,293,287,230,312,0,,,,,
2,1788964829072,1722,-1191,14127,2939483,-166155,-405614,0,0,0,414,381,226,370,369,433,200,91,310,214,152,387,0,,,,,
1,1788964829088,7016,-40684,11227,-1609019,-614530,315206,0,0,0,301,248,189,250,180,251,416,241,288,308,291,298,0,,,,,
2,1788964829088,2024,-1430,14922,3715282,-175929,-496022,0,0,0,421,391,216,371,371,412,171,94,299,207,150,354,0,,,,,
1,1788964829104,6800,-43555,9298,196698,40317,-676838,0,0,0,297,233,173,249,166,247,461,370,281,341,388,283,0,,,,,
2,1788964829104,2656,-1411,16089,4665788,-235793,-641408,0,0,0,408,382,203,380,367,395,168,95,288,209,139,340,0,,,,,
1,1788964829120,3814,-35850,13003,2448347,1780061,-1754404,0,0,0,290,238,163,246,175,246,487,451,282,369,453,264,0,,,,,
2,1788964829120,4029,-1507,18119,5564982,-362853,-879645,0,0,0,379,360,191,366,350,374,169,91,271,199,130,307,0,,,,,
1,1788964829136,3541,-7346,15903,4146553,3865555,-2157576,0,0,0,286,243,159,253,181,255,500,495,282,401,488,243,0,,,,,
2,1788964829136,5202,-2105,22402,6497162,-675616,-1193630,0,0,0,347,338,174,336,317,333,150,87,235,168,117,228,0,,,,,
1,1788964829152,5843,9442,17908,4436103,4113566,-1760513,0,0,0,296,252,188,272,189,264,526,533,276,457,526,238,0,,,,,
2,1788964829152,6149,-3536,29595,7337713,-1258382,-1467298,0,0,0,285,298,161,275,261,285,150,92,208,147,110,189,0,,,,,
1,1788964829168,7461,4489,20191,4238183,2607172,-821002,0,0,0,306,275,259,285,205,271,554,552,278,502,553,247,0,,,,,
2,1788964829168,7068,-4000,34137,7908261,-1467298,-1631010,0,0,0,273,240,166,240,195,236,173,88,182,163,137,174,0,,,,,
1,1788964829184,5001,-2814,21904,3580892,1054353,-9773,0,0,0,319,307,330,293,234,280,567,538,289,531,565,262,0,,,,,
2,1788964829184,7858,-148,34673,8207585,-1023810,-1751961,0,0,0,282,214,190,232,149,231,253,113,193,184,169,182,0,,,,,
1,1788964829200,1363,-4154,20076,2345722,507018,291993,0,0,0,344,334,376,301,264,292,571,517,302,557,569,275,0,,,,,
2,1788964829200,8992,10863,25910,7414682,-1053131,-1885130,0,0,0,288,213,204,228,156,245,228,120,204,177,176,190,0,,,,,
1,1788964829216,473,-1545,14922,1231504,522900,100181,0,0,0,361,352,401,309,281,306,577,510,311,568,561,286,0,,,,,
2,1788964829216,8705,19617,18037,4988325,-1595580,-1781283,0,0,0,304,213,189,231,152,229,236,118,196,184,173,180,0,,,,,
1,1788964829232,631,14,11127,674395,246789,-51312,0,0,0,368,367,390,316,291,312,582,501,313,569,549,309,0,,,,,
2,1788964829232,5896,20861,16922,762359,-2351831,-812450,0,0,0,302,218,206,225,152,241,242,125,203,183,180,199,0,,,,,
1,1788964829248,598,248,9978,518013,-103847,-74525,0,0,0,375,367,388,311,284,307,585,493,313,570,542,319,0,,,,,
2,1788964829248,5407,14725,13850,-1905899,-3415958,425162,0,0,0,302,217,211,270,177,249,234,125,211,182,181,212,0,,,,,
1,1788964829264,282,258,10433,410501,-239459,-30543,0,0,0,390,371,383,312,285,305,586,485,315,565,539,317,0,,,,,
2,1788964829264,7360,10739,8432,-2627942,-3622430,1016479,0,0,0,291,220,217,226,160,252,232,126,211,181,181,214,0,,,,,
1,1788964829280,358,708,10815,386066,-268780,-15882,0,0,0,391,375,392,323,296,317,577,478,324,565,540,322,0,,,,,
2,1788964829280,7863,10533,5297,-2800206,-2646268,1148426,0,0,0,302,218,220,225,159,257,232,126,209,181,184,213,0,,,,,
1,1788964829296,502,966,10691,492357,-376292,-29321,0,0,0,392,374,411,320,297,323,566,454,333,559,518,327,0,,,,,
2,1788964829296,5608,10126,6231,-3747047,-1850921,1488067,0,0,0,299,221,222,224,154,259,230,126,211,179,185,213,0,,,,,
1,1788964829312,445,918,10433,646295,-514348,-52534,0,0,0,384,383,390,329,293,328,559,427,328,521,471,330,0,,,,,
2,1788964829312,5039,7748,7284,-4685336,-1727526,1860695,0,0,0,295,220,223,223,153,260,231,131,215,175,187,211,0,,,,,
1,1788964829328,110,770,10327,752585,-565661,-65973,0,0,0,378,394,366,329,307,322,547,399,325,482,462,336,0,,,,,
2,1788964829328,6470,4522,7614,-5176472,-1562593,1832595,0,0,0,300,220,227,224,155,261,237,132,216,181,191,213,0,,,,,
1,1788964829344,-167,670,10260,822224,-524122,-67195,0,0,0,393,404,353,327,306,312,534,384,323,467,443,342,0,,,,,
2,1788964829344,6537,2407,8829,-5398826,-1094670,1363451,0,0,0,306,220,230,228,154,263,238,128,217,186,192,216,0,,,,,
1,1788964829360,-339,492,10035,861319,-405614,-46425,0,0,0,404,409,352,334,313,315,531,357,327,489,421,349,0,,,,,
2,1788964829360,6082,1330,10552,-5689598,-921184,1037249,0,0,0,307,220,229,230,154,263,238,127,216,184,190,214,0,,,,,
1,1788964829376,-373,248,9786,856433,-280998,-21991,0,0,0,414,418,351,345,315,323,529,333,332,476,400,358,0,,,,,
2,1788964829376,6523,737,12108,-6126978,-963945,1049466,0,0,0,307,219,228,229,154,261,239,129,216,183,190,211,0,,,,,
1,1788964829392,-344,-52,9624,790459,-149051,1221,0,0,0,412,436,354,342,319,327,523,313,336,454,387,363,0,,,,,
2,1788964829392,7872,-315,12878,-6481280,-701273,1346346,0,0,0,308,220,229,230,155,262,241,132,217,184,191,210,0,,,,,
1,1788964829408,-378,-186,9686,695164,-51312,30543,0,0,0,413,439,357,348,324,328,522,296,337,449,371,370,0,,,,,
2,1788964829408,8758,-1612,13720,-6638883,-156381,1761735,0,0,0,309,221,230,232,158,262,244,132,215,185,191,209,0,,,,,
1,1788964829424,-387,-239,9796,620639,52534,69638,0,0,0,417,438,360,356,334,328,522,283,335,446,360,389,0,,,,,
2,1788964829424,8906,-2258,14745,-6515488,310319,2254092,0,0,0,309,221,229,234,161,263,242,131,213,188,194,209,0,,,,,
1,1788964829440,-244,-301,9849,582765,138055,105068,0,0,0,422,446,359,354,346,331,516,275,332,436,356,409,0,,,,,
2,1788964829440,9724,-2412,16305,-6310237,757472,2779436,0,0,0,310,222,220,236,161,257,245,128,210,189,192,202,0,,,,,
1,1788964829456,-143,-378,9959,560774,153938,120951,0,0,0,442,448,352,363,351,337,517,262,335,431,338,416,0,,,,,
2,1788964829456,10418,-2995,18300,-6240599,1407433,2904053,0,0,0,308,216,208,232,153,243,245,126,205,186,184,190,0,,,,,
1,1788964829472,-277,-402,10136,554665,134390,146607,0,0,0,455,454,349,379,364,345,518,236,337,431,322,425,0,,,,,
2,1788964829472,9016,-4618,21426,-6257703,2128254,2368935,0,0,0,310,216,187,239,155,225,252,131,195,186,183,165,0,,,,,
1,1788964829488,-392,-430,10361,585208,118507,199142,0,0,0,455,458,343,404,388,338,516,226,338,426,322,443,0,,,,,
2,1788964829488,6331,-6690,24780,-6252816,2309070,1617571,0,0,0,310,216,192,244,154,243,252,122,200,191,183,181,0,,,,,
1,1788964829504,-416,-555,10490,660956,125838,266337,0,0,0,469,461,335,390,371,339,522,210,342,420,307,463,0,,,,,
2,1788964829504,3814,-10074,27403,-6296798,1815491,937067,0,0,0,306,216,178,240,150,226,254,124,191,187,183,161,0,,,,,
1,1788964829520,-335,-732,10509,747699,113620,334754,0,0,0,470,467,332,387,386,340,502,210,333,396,299,471,0,,,,,
2,1788964829520,3220,-16668,26728,-6243042,976162,397062,0,0,0,315,213,176,244,150,220,260,120,186,191,181,156,0,,,,,
1,1788964829536,-134,-899,10638,839328,67195,389732,0,0,0,478,472,326,392,388,345,493,197,338,385,277,491,0,,,,,
2,1788964829536,2230,-23795,23914,-5659055,678060,28099,0,0,0,316,210,176,259,152,232,284,118,195,203,176,167,0,,,,,
1,1788964829552,43,-918,11146,992045,64751,394618,0,0,0,471,478,300,378,402,347,475,196,333,371,268,510,0,,,,,
2,1788964829552,-2038,-29920,20272,-4238183,886976,305432,0,0,0,316,208,170,263,147,224,292,114,191,207,172,161,0,,,,,
1,1788964829568,-43,-938,11864,1222952,94073,390953,0,0,0,495,474,294,405,420,352,478,184,329,363,247,522,0,,,,,
2,1788964829568,-4340,-36104,15376,-2465452,651182,1247386,0,0,0,317,209,171,262,144,221,296,113,192,207,172,156,0,,,,,
1,1788964829584,-167,-1009,12696,1536936,127059,403171,0,0,0,512,479,254,409,417,343,472,177,323,353,237,521,0,,,,,
2,1788964829584,-832,-42239,10294,-963945,141720,1816713,0,0,0,311,204,168,252,141,219,288,125,191,205,181,152,0,,,,,
1,1788964829600,-354,-1167,13371,1954768,138055,445931,0,0,0,517,473,224,408,419,335,462,173,324,354,228,523,0,,,,,
2,1788964829600,-430,-42464,9700,524122,212581,1078788,0,0,0,302,193,164,241,137,206,288,221,181,229,244,143,0,,,,,
1,1788964829616,-110,-1263,13811,2403143,157603,491135,0,0,0,518,465,221,406,419,345,442,166,337,337,212,527,0,,,,,
2,1788964829616,-2680,-31012,15395,2085493,239459,91629,0,0,0,277,171,153,226,127,196,291,354,165,257,347,131,0,,,,,
1,1788964829632,119,-1402,14032,2922379,169820,493579,0,0,0,511,462,219,393,410,343,419,169,337,310,197,524,0,,,,,
2,1788964829632,-1450,-3508,19392,3378084,-67195,-598647,0,0,0,252,154,144,217,119,194,297,432,153,282,421,127,0,,,,,
1,1788964829648,-382,-1646,14247,3484375,57421,525344,0,0,0,495,455,215,399,411,344,412,174,341,298,189,503,0,,,,,
2,1788964829648,2890,10519,14515,4006054,-976162,-1153313,0,0,0,258,155,154,230,122,200,332,472,160,326,469,133,0,,,,,
1,1788964829664,-320,-1694,15027,4098905,-136833,624304,0,0,0,477,448,214,409,416,353,397,184,356,291,194,483,0,,,,,
2,1788964829664,4264,3206,14022,4807509,-1003040,-1137431,0,0,0,264,160,168,242,120,215,376,504,177,357,511,132,0,,,,,
1,1788964829680,52,-1823,17525,4875926,-333532,714712,0,0,0,458,440,208,400,410,352,366,200,362,274,205,463,0,,,,,
2,1788964829680,1387,-5867,20617,4902804,335975,-497244,0,0,0,280,176,182,255,119,222,417,547,169,380,522,123,0,,,,,
1,1788964829696,-1560,-2153,21842,5822767,-487470,780685,0,0,0,428,415,199,390,390,345,346,191,358,255,194,429,0,,,,,
2,1788964829696,1450,-3977,21890,3437949,767246,-377514,0,0,0,287,184,190,262,124,232,446,550,167,398,533,123,0,,,,,
1,1788964829712,-2536,-1871,27513,6829473,-604756,926071,0,0,0,397,381,195,360,346,329,328,174,337,246,169,402,0,,,,,
2,1788964829712,3364,-1186,16597,1814269,197920,-342084,0,0,0,297,193,239,270,128,277,471,540,188,442,537,153,0,,,,,
1,1788964829728,-4029,-550,32060,7911926,-729373,1134987,0,0,0,381,341,177,307,301,284,337,193,303,242,185,355,0,,,,,
2,1788964829728,2282,-454,11246,937067,-211359,-141720,0,0,0,318,199,258,294,129,307,494,527,201,477,534,176,0,,,,,
1,1788964829744,-4685,2345,34754,8906415,-1295034,1585806,0,0,0,313,279,191,238,203,231,374,213,276,280,241,308,0,,,,,
2,1788964829744,1115,-492,9719,514348,-111177,-19547,0,0,0,307,213,278,298,153,326,496,537,199,452,538,195,0,,,,,
1,1788964829760,-4608,8030,33692,9547823,-1644449,2157576,0,0,0,296,250,207,212,171,215,360,213,271,280,255,329,0,,,,,
2,1788964829760,1249,-315,10624,331088,125838,-10995,0,0,0,312,217,287,293,145,330,517,525,202,453,535,202,0,,,,,
1,1788964829776,-7499,16099,21899,8750033,-1827708,2814867,0,0,0,327,246,214,218,160,215,363,196,271,280,234,326,0,,,,,
2,1788964829776,1689,344,10777,305432,92851,-52534,0,0,0,308,218,296,298,149,344,510,519,209,438,535,222,0,,,,,
1,1788964829792,-5522,20502,16506,3651752,-2602285,3556457,0,0,0,334,233,211,220,153,212,373,201,268,286,237,333,0,,,,,
2,1788964829792,1698,794,10567,412944,7330,-96516,0,0,0,312,227,284,300,154,334,510,507,206,426,516,218,0,,,,,
1,1788964829808,1033,17898,17161,-1991420,-1403768,2946813,0,0,0,333,231,211,220,152,213,379,209,272,299,236,331,0,,,,,
2,1788964829808,1378,818,10356,604756,-4886,-138055,0,0,0,308,236,275,302,164,328,499,480,206,419,490,226,0,,,,,
1,1788964829824,-502,11045,12754,-4236961,1567480,1066570,0,0,0,333,238,215,219,157,216,373,214,276,292,240,328,0,,,,,
2,1788964829824,1158,626,10193,758694,84299,-156381,0,0,0,305,235,281,300,167,341,469,473,219,398,456,237,0,,,,,
1,1788964829840,-9188,8480,5264,-3243694,792903,-507018,0,0,0,330,239,217,220,160,220,372,213,278,285,244,323,0,,,,,
2,1788964829840,1206,521,10078,844215,164933,-152716,0,0,0,306,235,286,300,158,348,460,433,225,391,408,239,0,,,,,
1,1788964829856,-6877,8963,4632,-2921157,-2591290,-1280373,0,0,0,327,237,218,221,157,221,375,211,281,285,245,321,0,,,,,
2,1788964829856,1392,478,9968,882089,152716,-153938,0,0,0,305,232,284,302,156,354,450,371,232,382,359,242,0,,,,,
1,1788964829872,866,8418,8212,-3745825,-3197268,-1969429,0,0,0,327,240,220,225,157,221,375,209,283,286,247,321,0,,,,,
2,1788964829872,1483,306,9734,875980,78190,-163711,0,0,0,313,234,283,306,161,360,435,321,239,370,333,249,0,,,,,
1,1788964829888,2967,6800,10107,-4579045,-2315179,-2422691,0,0,0,327,244,218,228,160,221,374,208,281,286,248,321,0,,,,,
2,1788964829888,1430,-14,9361,800233,-32986,-169820,0,0,0,322,244,280,311,172,365,422,287,241,357,322,254,0,,,,,
1,1788964829904,1172,4235,10634,-5315749,-1533271,-2120924,0,0,0,327,244,215,224,158,221,374,210,281,287,248,321,0,,,,,
2,1788964829904,1292,-248,9155,674395,-123394,-160046,0,0,0,329,249,273,319,190,372,412,261,243,348,308,256,0,,,,,
1,1788964829920,2225,2388,11859,-5677381,-1732413,-945619,0,0,0,330,244,215,224,157,221,375,213,281,290,249,324,0,,,,,
2,1788964829920,1292,-358,9222,546113,-172263,-146607,0,0,0,342,257,272,329,202,371,416,237,246,350,293,255,0,,,,,
1,1788964829936,4407,1488,13677,-5997474,-1642005,326202,0,0,0,333,245,217,223,158,222,377,213,281,290,247,325,0,,,,,
2,1788964829936,1301,-445,9341,452040,-202807,-145385,0,0,0,351,277,271,332,206,360,419,216,250,350,291,255,0,,,,,
1,1788964829952,5876,1378,15175,-6340781,-1412320,1225395,0,0,0,331,244,218,222,156,222,378,213,280,290,246,325,0,,,,,
2,1788964829952,1330,-469,9504,399505,-218689,-157603,0,0,0,366,291,266,352,232,372,415,193,252,356,284,263,0,,,,,
1,1788964829968,6408,1105,16219,-6588792,-1365894,1472185,0,0,0,329,240,220,222,155,225,381,213,284,290,246,325,0,,,,,
2,1788964829968,1397,-492,9657,377514,-250454,-173485,0,0,0,376,307,269,352,252,383,424,172,264,348,250,265,0,,,,,
1,1788964829984,5393,253,17262,-6632774,-1379333,883311,0,0,0,328,241,222,223,157,226,381,214,284,290,251,320,0,,,,,
2,1788964829984,1383,-512,9743,383623,-289550,-197920,0,0,0,374,319,284,352,262,387,416,152,268,348,242,290,0,,,,,
1,1788964830000,3685,-550,18655,-6624222,-1483180,144164,0,0,0,328,246,224,224,158,231,370,210,283,285,249,310,0,,,,,
2,1788964830000,1306,-521,9834,421497,-290771,-227241,0,0,0,388,313,283,359,261,383,398,136,263,345,225,290,0,,,,,
1,1788964830016,2177,-2000,21191,-6612005,-1710422,-122173,0,0,0,318,254,218,241,172,233,381,210,283,287,252,309,0,,,,,
2,1788964830016,1359,-531,10098,493579,-268780,-267558,0,0,0,390,340,303,354,289,429,413,123,295,335,216,327,0,,,,,
1,1788964830032,1679,-4613,24110,-6575353,-1835039,384845,0,0,0,311,255,220,231,168,238,385,206,285,301,245,306,0,,,,,
2,1788964830032,1550,-583,10562,620639,-241902,-328645,0,0,0,398,367,294,367,314,435,391,111,292,330,207,359,0,,,,,
1,1788964830048,2881,-9619,26570,-6506936,-1847256,1392772,0,0,0,305,255,219,231,172,239,386,199,285,294,243,309,0,,,,,
2,1788964830048,1387,-617,11237,842994,-228463,-386066,0,0,0,419,385,292,361,325,443,370,110,310,316,200,370,0,,,,,
1,1788964830064,6575,-18119,26288,-6273586,-1842369,1880243,0,0,0,300,263,216,233,179,240,387,200,286,289,245,310,0,,,,,
2,1788964830064,938,-631,12069,1177748,-200363,-394618,0,0,0,434,385,291,360,331,449,343,101,325,305,190,379,0,,,,,
1,1788964830080,10131,-27197,24417,-5693264,-1727526,1817934,0,0,0,302,269,218,236,180,242,390,200,288,290,248,307,0,,,,,
2,1788964830080,923,-636,13357,1689653,-84299,-355523,0,0,0,448,406,271,364,341,457,309,100,329,285,181,382,0,,,,,
1,1788964830096,12175,-35271,20923,-4539950,-1363451,1481959,0,0,0,302,267,219,241,183,244,395,200,290,291,248,307,0,,,,,
2,1788964830096,1186,-717,14505,2304183,9773,-351858,0,0,0,448,427,257,366,366,452,270,104,314,261,175,385,0,,,,,
1,1788964830112,12883,-39774,14859,-2707354,-772133,882089,0,0,0,300,265,216,246,186,248,399,203,290,292,249,309,0,,,,,
2,1788964830112,1282,-631,15419,3087312,23212,-371406,0,0,0,441,423,241,360,385,425,217,100,297,237,172,386,0,,,,,
1,1788964830128,12936,-42483,10519,-1111774,-230907,-32986,0,0,0,299,251,205,248,173,244,422,256,285,307,294,297,0,,,,,
2,1788964830128,1957,-665,16037,4018271,-45204,-436157,0,0,0,447,408,220,370,373,403,173,95,283,227,165,360,0,,,,,
1,1788964830144,9370,-42866,9782,362853,455705,-1381777,0,0,0,295,224,180,247,154,239,473,384,280,345,398,270,0,,,,,
2,1788964830144,2790,-708,16860,4961447,-123394,-591317,0,0,0,435,404,211,378,358,395,151,91,268,212,147,331,0,,,,,
1,1788964830160,1861,-22818,14443,2056172,1914451,-2279749,0,0,0,300,228,167,246,165,243,495,472,279,377,459,248,0,,,,,
2,1788964830160,4168,-641,19167,6129421,-259006,-894306,0,0,0,398,386,197,373,351,376,143,84,252,189,123,286,0,,,,,
1,1788964830176,43,4905,15826,2996904,3527135,-2210110,0,0,0,287,244,171,250,171,253,516,499,279,407,497,248,0,,,,,
2,1788964830176,5891,-1206,23976,7128797,-681725,-1247386,0,0,0,351,342,163,352,321,335,142,80,229,174,112,213,0,,,,,
1,1788964830192,4809,13730,15328,3348763,3926641,-1188743,0,0,0,286,239,184,259,165,259,541,532,290,489,529,234,0,,,,,
2,1788964830192,8078,-2230,30657,8029212,-1257160,-1623679,0,0,0,282,294,153,275,265,284,140,84,202,159,128,190,0,,,,,
1,1788964830208,5623,914,18243,3434284,2750115,-57421,0,0,0,296,255,227,265,185,264,564,540,293,516,551,225,0,,,,,
2,1788964830208,7729,-1665,35831,8522791,-1331686,-1925447,0,0,0,251,227,165,233,196,242,177,101,195,155,152,166,0,,,,,
1,1788964830224,2412,-5120,20143,2758667,1677435,323758,0,0,0,311,285,286,290,217,276,573,541,313,554,566,244,0,,,,,
2,1788964830224,6920,2952,34448,8470257,-1292590,-1943773,0,0,0,270,204,182,218,149,230,213,116,197,165,172,172,0,,,,,
1,1788964830240,1474,-2321,17540,1671327,1183856,15882,0,0,0,320,317,334,291,249,296,583,535,325,570,554,280,0,,,,,
2,1788964830240,8872,15032,21095,7302283,-1370781,-1799608,0,0,0,266,203,182,218,144,227,216,117,191,177,178,173,0,,,,,
1,1788964830256,2450,497,13376,970053,698829,-87964,0,0,0,328,331,330,289,256,297,601,531,327,581,559,301,0,,,,,
2,1788964830256,7532,24465,15702,3799581,-1529606,-1095892,0,0,0,260,201,190,218,157,235,217,114,194,174,182,182,0,,,,,
1,1788964830272,1966,641,11351,676838,139277,-20769,0,0,0,340,328,341,301,249,299,607,531,331,585,548,315,0,,,,,
2,1788964830272,4134,24345,16616,-917519,-2519208,367740,0,0,0,262,201,182,214,151,221,219,118,188,176,184,173,0,,,,,
1,1788964830288,703,-23,10839,541226,-310319,2443,0,0,0,347,346,339,300,251,302,612,522,336,582,533,318,0,,,,,
2,1788964830288,5216,15802,13759,-3237585,-4023158,1415985,0,0,0,269,199,180,219,149,215,224,119,184,177,181,164,0,,,,,
1,1788964830304,258,373,10772,433714,-420275,-56199,0,0,0,350,347,330,299,255,302,609,492,343,579,523,328,0,,,,,
2,1788964830304,8738,11988,7623,-3259576,-3601661,1350012,0,0,0,264,201,185,216,152,221,226,126,187,180,181,167,0,,,,,
1,1788964830320,272,1048,10734,444709,-441044,-92851,0,0,0,352,337,320,304,259,302,599,460,349,561,507,334,0,,,,,
2,1788964830320,8265,11519,5513,-3593109,-2223549,1174082,0,0,0,266,200,190,210,142,219,225,124,188,178,185,171,0,,,,,
1,1788964830336,416,1253,10648,619417,-472809,-83077,0,0,0,352,334,321,309,264,304,589,440,344,536,485,341,0,,,,,
2,1788964830336,5412,10830,7470,-4594928,-1525941,1363451,0,0,0,266,201,187,211,141,218,225,123,186,178,183,169,0,,,,,
1,1788964830352,378,985,10394,795346,-579100,-78190,0,0,0,354,336,331,313,266,307,582,424,333,513,463,354,0,,,,,
2,1788964830352,6106,7465,8853,-5679824,-1712866,1683544,0,0,0,269,198,184,222,148,222,228,121,184,182,183,166,0,,,,,
1,1788964830368,172,799,10189,869872,-658512,-91629,0,0,0,355,338,324,314,266,307,578,405,335,486,440,358,0,,,,,
2,1788964830368,8164,3838,9279,-6337115,-1479515,1568701,0,0,0,268,198,188,220,147,224,230,121,187,182,184,169,0,,,,,
1,1788964830384,-138,708,10088,890641,-654847,-98960,0,0,0,352,343,312,306,268,309,579,389,338,471,421,365,0,,,,,
2,1788964830384,8600,1167,10284,-6544810,-913854,1103222,0,0,0,266,197,189,217,143,222,234,126,190,182,188,169,0,,,,,
1,1788964830400,-478,555,9940,894306,-535117,-73303,0,0,0,362,345,310,312,279,322,575,359,352,463,397,372,0,,,,,
2,1788964830400,8365,-315,12146,-6531371,-752585,784350,0,0,0,267,193,187,216,143,220,236,127,188,181,188,169,0,,,,,
1,1788964830416,-674,335,9700,868650,-366519,-28099,0,0,0,355,359,310,328,289,329,575,345,352,503,365,367,0,,,,,
2,1788964830416,9442,-1167,13625,-6608340,-703716,748920,0,0,0,269,194,189,215,142,221,236,124,188,180,184,170,0,,,,,
1,1788964830432,-626,67,9485,783129,-163711,24434,0,0,0,357,367,316,356,313,333,575,320,355,442,391,392,0,,,,,
2,1788964830432,10839,-1966,14582,-6846577,-230907,1011592,0,0,0,269,194,192,218,139,225,239,124,191,181,183,166,0,,,,,
1,1788964830448,-488,-124,9518,678060,6108,67195,0,0,0,366,383,317,349,328,334,566,309,361,434,386,404,0,,,,,
2,1788964830448,11423,-3268,15788,-6910107,487470,1426981,0,0,0,269,196,194,217,137,222,238,121,190,184,184,169,0,,,,,
1,1788964830464,-358,-177,9763,608421,122173,94073,0,0,0,390,383,322,360,318,355,571,301,363,432,371,428,0,,,,,
2,1788964830464,11237,-5163,17544,-6646213,1262047,1795943,0,0,0,270,195,191,220,143,223,237,121,187,184,181,167,0,,,,,
1,1788964830480,-229,-239,9954,583987,195476,109955,0,0,0,417,407,335,362,318,362,576,271,368,436,350,441,0,,,,,
2,1788964830480,9404,-8097,20928,-6222273,2120924,1953547,0,0,0,268,194,188,220,138,225,242,122,193,184,181,168,0,,,,,
1,1788964830496,-114,-287,10045,585208,219911,113620,0,0,0,420,421,330,372,352,356,564,264,368,425,343,463,0,,,,,
2,1788964830496,6609,-11524,24661,-5974262,2475225,2017077,0,0,0,276,194,187,225,138,224,244,115,193,186,181,169,0,,,,,
1,1788964830512,-148,-282,10284,623082,215024,116064,0,0,0,442,439,331,376,361,353,554,241,365,413,319,479,0,,,,,
2,1788964830512,5369,-16472,26656,-5898514,2139250,2094046,0,0,0,275,196,182,224,138,219,245,116,188,184,178,164,0,,,,,
1,1788964830528,-402,-282,10729,740368,180816,158824,0,0,0,458,453,318,398,387,352,555,213,363,398,285,494,0,,,,,
2,1788964830528,5527,-23464,25096,-5566204,1912008,2004859,0,0,0,272,195,182,224,142,228,243,113,191,182,173,162,0,,,,,
1,1788964830544,-612,-378,11050,897971,98960,255341,0,0,0,470,459,293,417,409,346,556,194,364,383,253,519,0,,,,,
2,1788964830544,2881,-30346,22321,-4757418,2042733,1859473,0,0,0,273,191,179,230,144,228,250,113,187,187,170,162,0,,,,,
1,1788964830560,-536,-579,11280,1080009,-10995,383623,0,0,0,476,466,265,410,421,345,541,187,365,367,226,540,0,,,,,
2,1788964830560,-2402,-35553,19061,-3364645,1976759,1949881,0,0,0,270,178,179,235,135,232,263,129,195,201,204,172,0,,,,,
1,1788964830576,-47,-741,12170,1314581,-68416,434936,0,0,0,467,472,237,393,434,348,518,187,360,347,212,545,0,,,,,
2,1788964830576,-2167,-40411,14745,-1541823,1003040,2394591,0,0,0,267,179,165,237,143,221,276,225,182,232,271,149,0,,,,,
1,1788964830592,43,-885,13539,1684766,-48869,416610,0,0,0,468,466,213,414,435,335,506,178,356,334,204,545,0,,,,,
2,1788964830592,780,-49246,11950,671951,762359,2548529,0,0,0,264,174,156,231,140,208,294,323,165,242,336,134,0,,,,,
1,1788964830608,-215,-938,14716,2249205,14660,401949,0,0,0,490,458,200,449,429,329,491,171,357,329,198,546,0,,,,,
2,1788964830608,-3077,-40085,13496,3473379,1198517,2499660,0,0,0,263,166,157,232,126,205,318,385,160,279,419,133,0,,,,,
1,1788964830624,-4,-914,15190,2879618,39095,423940,0,0,0,492,456,192,411,401,345,466,170,352,317,192,539,0,,,,,
2,1788964830624,-6882,-10308,18262,4638910,657290,1795943,0,0,0,268,165,166,245,122,217,353,441,163,319,466,135,0,,,,,
1,1788964830640,-287,-1009,16089,3562566,-59864,448375,0,0,0,476,450,194,416,398,357,435,173,368,296,182,512,0,,,,,
2,1788964830640,-6987,10772,20765,3751934,-202807,-128281,0,0,0,281,180,178,257,130,227,392,493,173,356,489,132,0,,,,,
1,1788964830656,-995,-899,18559,4367686,-262672,533896,0,0,0,453,446,206,451,416,344,411,175,373,279,179,469,0,,,,,
2,1788964830656,636,3034,19042,3103195,378736,-1307251,0,0,0,296,194,190,270,133,232,426,522,183,413,527,124,0,,,,,
1,1788964830672,-2239,-607,23273,5505117,-338419,692721,0,0,0,416,398,204,398,381,366,384,181,371,252,169,434,0,,,,,
2,1788964830672,5900,-4446,17061,2399478,868650,-930958,0,0,0,307,191,211,292,134,257,460,537,184,452,544,128,0,,,,,
1,1788964830688,-4398,-478,29078,6901555,-467922,960280,0,0,0,373,359,178,356,346,341,357,181,358,239,169,384,0,,,,,
2,1788964830688,4513,-2952,13740,1392772,423940,-95294,0,0,0,309,197,247,305,141,306,483,523,191,466,534,160,0,,,,,
1,1788964830704,-5747,1148,34017,8188037,-795346,1337794,0,0,0,356,302,181,292,253,299,381,191,329,254,208,344,0,,,,,
2,1788964830704,1919,406,10906,763581,-102625,138055,0,0,0,305,203,263,290,132,323,483,511,197,486,531,187,0,,,,,
1,1788964830720,-6556,4082,36917,9094561,-1466076,1805717,0,0,0,333,242,192,235,169,235,393,203,292,288,236,332,0,,,,,
2,1788964830720,1459,1162,10011,579100,-327423,-9773,0,0,0,315,216,274,309,137,329,497,478,218,510,520,186,0,,,,,
1,1788964830736,-7738,11442,31524,9176417,-2310292,2484999,0,0,0,341,219,202,222,135,217,388,195,283,294,232,326,0,,,,,
2,1788964830736,2311,220,10500,554665,-482583,-135612,0,0,0,336,235,324,319,147,355,452,402,256,502,482,202,0,,,,,
1,1788964830752,-8159,23072,18219,6979746,-3117856,3415958,0,0,0,350,213,207,223,126,217,394,195,284,296,231,327,0,,,,,
2,1788964830752,1756,311,10839,613308,-596204,-167377,0,0,0,347,252,285,316,168,347,487,429,232,487,456,205,0,,,,,
1,1788964830768,-2234,26326,15281,1644449,-3039665,3514918,0,0,0,349,212,221,222,127,222,400,202,291,299,237,333,0,,,,,
2,1788964830768,856,823,10835,785572,-452040,-186924,0,0,0,344,261,282,313,173,341,471,369,223,463,421,194,0,,,,,
1,1788964830784,775,20870,12955,-1729970,-1312138,2013411,0,0,0,347,213,219,221,128,220,396,203,290,298,239,332,0,,,,,
2,1788964830784,555,851,10571,1001818,-107512,-183259,0,0,0,341,266,298,332,185,366,445,313,228,447,366,213,0,,,,,
1,1788964830800,-3086,15228,8068,-2087937,-381179,-248011,0,0,0,346,217,205,220,128,215,392,203,284,298,238,327,0,,,,,
2,1788964830800,1005,354,10241,1104444,156381,-157603,0,0,0,344,259,272,338,196,357,453,275,243,407,344,214,0,,,,,
1,1788964830816,-1220,15261,7437,-2291966,-2141693,-1417207,0,0,0,340,223,204,221,135,218,393,206,286,316,235,320,0,,,,,
2,1788964830816,1316,71,9949,1058018,158824,-144164,0,0,0,348,285,264,347,223,363,435,238,253,380,313,223,0,,,,,
1,1788964830832,4225,14118,9136,-3473379,-2592512,-1887573,0,0,0,336,229,206,224,146,220,394,206,286,331,234,315,0,,,,,
2,1788964830832,1287,23,9743,962723,53756,-134390,0,0,0,354,292,265,357,231,368,413,209,257,369,283,231,0,,,,,
1,1788964830848,4838,10122,9571,-4794070,-1552819,-1309695,0,0,0,332,232,208,226,152,223,392,203,284,301,245,323,0,,,,,
2,1788964830848,1162,-33,9571,830776,-74525,-119729,0,0,0,366,301,273,354,239,379,407,190,279,357,271,251,0,,,,,
1,1788964830864,4249,6446,9801,-5582086,-1295034,10995,0,0,0,331,237,208,225,157,221,393,203,284,301,245,323,0,,,,,
2,1788964830864,1296,-368,9437,712268,-161268,-112399,0,0,0,370,302,275,351,252,388,400,172,297,353,263,262,0,,,,,
1,1788964830880,5422,3799,11031,-6040235,-1530828,1692096,0,0,0,329,242,211,228,162,226,394,204,286,304,248,323,0,,,,,
2,1788964830880,1550,-670,9461,634078,-254119,-144164,0,0,0,369,304,269,355,265,397,389,157,300,342,252,275,0,,,,,
1,1788964830896,6542,2330,12596,-6243042,-1555262,2679254,0,0,0,331,242,211,231,163,227,401,203,286,309,245,323,0,,,,,
2,1788964830896,1612,-722,9605,605978,-340862,-206472,0,0,0,383,318,268,358,271,398,383,145,302,325,242,290,0,,,,,
1,1788964830912,6781,1277,13998,-6321233,-1607797,2889392,0,0,0,331,254,211,234,173,229,405,202,286,321,245,323,0,,,,,
2,1788964830912,1426,-626,9820,629191,-370184,-287106,0,0,0,403,330,272,359,269,385,376,132,302,325,224,294,0,,,,,
1,1788964830928,6092,421,15386,-6340781,-1684766,2279749,0,0,0,338,253,212,235,174,230,408,202,286,323,245,318,0,,,,,
2,1788964830928,1167,-612,10011,691499,-329867,-342084,0,0,0,403,340,277,359,279,401,359,116,301,320,201,316,0,,,,,
1,1788964830944,4565,-1052,17233,-6327342,-1827708,1049466,0,0,0,331,254,210,246,172,230,416,201,288,317,244,313,0,,,,,
2,1788964830944,1062,-722,10208,775798,-293215,-371406,0,0,0,407,344,280,359,286,423,332,108,296,307,190,340,0,,,,,
1,1788964830960,3594,-3718,19425,-6267477,-1954768,-1221,0,0,0,323,252,212,235,166,231,406,198,291,306,243,312,0,,,,,
2,1788964830960,966,-837,10428,893084,-279776,-379958,0,0,0,422,360,280,360,319,424,324,121,305,310,194,366,0,,,,,
1,1788964830976,3235,-7571,21612,-6157521,-1915673,-570548,0,0,0,321,252,210,233,167,233,400,194,292,304,240,313,0,,,,,
2,1788964830976,746,-923,10744,1055575,-270002,-370184,0,0,0,442,368,284,378,320,438,333,102,320,326,174,350,0,,,,,
1,1788964830992,4905,-13275,23115,-6036570,-1828930,-447153,0,0,0,319,256,210,232,173,235,397,193,290,294,239,312,0,,,,,
2,1788964830992,416,-966,11246,1280373,-246789,-323758,0,0,0,456,399,278,376,342,423,302,98,312,307,180,365,0,,,,,
1,1788964831008,9212,-21339,23120,-5787337,-1672549,-108734,0,0,0,320,259,214,234,174,237,397,194,294,290,242,314,0,,,,,
2,1788964831008,445,-1000,12275,1605353,-196698,-240680,0,0,0,483,411,274,369,352,446,269,109,333,285,181,377,0,,,,,
1,1788964831024,15041,-32505,20885,-4950451,-1170417,119729,0,0,0,321,256,215,238,172,240,401,196,298,291,243,316,0,,,,,
2,1788964831024,1172,-1110,13673,2083050,-173485,-199142,0,0,0,460,424,249,364,371,423,237,113,297,263,192,371,0,,,,,
1,1788964831040,12572,-39277,17324,-3557679,-168598,205250,0,0,0,322,254,214,240,170,240,404,198,298,291,243,315,0,,,,,
2,1788964831040,1966,-1191,14826,2786767,-228463,-291993,0,0,0,474,428,269,360,378,427,200,102,274,261,194,371,0,,,,,
1,1788964831056,5240,-41971,12557,-2043955,557109,557109,0,0,0,315,242,207,240,163,238,423,242,292,313,281,306,0,,,,,
2,1788964831056,2249,-1249,15711,3583335,-340862,-441044,0,0,0,486,438,252,343,388,398,151,97,254,228,191,362,0,,,,,
1,1788964831072,2469,-40631,9538,-529009,271224,759916,0,0,0,293,217,179,240,149,233,471,363,277,371,384,278,0,,,,,
2,1788964831072,2445,-1210,17157,4547280,-482583,-632856,0,0,0,453,420,229,348,379,389,135,93,246,202,163,326,0,,,,,
1,1788964831088,6743,-31361,12945,1386664,1077566,-61086,0,0,0,291,218,170,237,148,235,498,443,271,396,446,251,0,,,,,
2,1788964831088,3374,-861,20086,5670051,-630412,-869872,0,0,0,402,402,193,349,373,369,127,91,226,179,139,258,0,,,,,
1,1788964831104,5733,-8470,15008,2896722,2851518,-795346,0,0,0,288,228,178,251,159,246,523,487,285,418,485,233,0,,,,,
2,1788964831104,4541,-1359,24479,6839247,-938289,-1154535,0,0,0,341,359,171,329,340,331,120,82,202,156,116,207,0,,,,,
1,1788964831120,1904,8375,17190,2926044,3573561,-610865,0,0,0,297,246,213,273,178,254,539,479,293,476,510,227,0,,,,,
2,1788964831120,5900,-2239,30203,7750658,-1445307,-1397659,0,0,0,282,298,169,275,270,282,137,87,191,150,118,184,0,,,,,
1,1788964831136,818,2857,20392,2174680,2791654,87964,0,0,0,285,296,277,270,214,267,565,498,313,494,539,275,0,,,,,
2,1788964831136,5350,-1440,36573,8304102,-1674992,-1566258,0,0,0,257,240,183,225,192,247,181,112,197,163,157,180,0,,,,,
1,1788964831152,1435,-4627,19454,1048244,1973094,260228,0,0,0,300,318,338,283,239,287,583,492,328,524,553,300,0,,,,,
2,1788964831152,5393,2412,39157,8411614,-2062281,-1474628,0,0,0,262,208,196,217,155,241,212,123,200,172,177,182,0,,,,,
1,1788964831168,3153,-2182,14108,340862,1396437,-20769,0,0,0,314,325,335,287,249,294,599,492,329,539,554,315,0,,,,,
2,1788964831168,9212,14874,26896,7453777,-2798984,-1081231,0,0,0,266,213,189,225,164,240,218,118,197,175,171,174,0,,,,,
1,1788964831184,2976,1804,11036,410501,493579,-28099,0,0,0,337,340,331,307,272,299,596,492,339,553,548,333,0,,,,,
2,1788964831184,11672,26747,15314,3766595,-3032335,-14660,0,0,0,276,215,193,223,165,237,218,123,198,181,176,182,0,,,,,
1,1788964831200,1646,1703,11031,559552,-277332,32986,0,0,0,340,338,342,297,270,305,608,479,341,549,536,343,0,,,,,
2,1788964831200,8968,26259,15032,-691499,-2783102,1480737,0,0,0,294,212,200,238,161,240,221,125,191,186,182,179,0,,,,,
1,1788964831216,521,603,11213,592539,-697608,-1221,0,0,0,340,346,349,292,269,307,615,459,351,540,511,349,0,,,,,
2,1788964831216,7221,17942,14170,-3341432,-3324328,2448347,0,0,0,274,212,204,223,157,238,221,130,191,182,191,181,0,,,,,
1,1788964831232,-67,703,10859,631634,-711047,-75747,0,0,0,348,355,356,297,268,308,613,428,347,519,485,356,0,,,,,
2,1788964831232,10390,13117,8523,-3591887,-3154508,1965764,0,0,0,287,215,203,226,156,235,223,128,194,190,192,180,0,,,,,
1,1788964831248,-387,1081,10653,750142,-559552,-83077,0,0,0,361,363,367,300,268,308,607,396,339,494,462,365,0,,,,,
2,1788964831248,10122,12203,6135,-3990171,-1723861,1034805,0,0,0,289,212,197,230,159,231,227,127,189,189,189,173,0,,,,,
1,1788964831264,-191,1048,10514,868650,-415388,-34208,0,0,0,369,372,375,303,280,310,600,373,339,471,435,372,0,,,,,
2,1788964831264,6288,10514,8025,-5103168,-963945,443488,0,0,0,291,220,199,229,155,228,228,134,189,195,192,173,0,,,,,
1,1788964831280,181,875,10366,941954,-395840,-9773,0,0,0,368,374,367,318,293,317,589,348,342,450,410,382,0,,,,,
2,1788964831280,5072,6695,9504,-6155078,-1006705,20769,0,0,0,291,221,195,224,154,222,229,135,187,188,192,167,0,,,,,
1,1788964831296,301,765,10332,994488,-496022,-24434,0,0,0,368,373,353,338,297,329,577,324,344,436,390,405,0,,,,,
2,1788964831296,6020,3441,10007,-6612005,-829554,-382401,0,0,0,291,224,198,234,161,225,235,139,187,194,196,168,0,,,,,
1,1788964831312,-95,660,10279,1082453,-576656,-35430,0,0,0,374,384,345,355,313,340,568,315,352,437,366,421,0,,,,,
2,1788964831312,5680,1770,11385,-6725626,-267558,-542448,0,0,0,294,223,200,229,155,223,238,138,189,192,197,169,0,,,,,
1,1788964831328,-550,397,10112,1159422,-537561,-9773,0,0,0,390,393,325,378,323,338,561,275,355,426,338,431,0,,,,,
2,1788964831328,5843,636,13275,-6725626,119729,-248011,0,0,0,287,218,200,225,153,226,229,133,186,188,195,170,0,,,,,
1,1788964831344,-823,28,9959,1175304,-359188,52534,0,0,0,412,407,321,393,329,351,562,243,363,423,303,444,0,,,,,
2,1788964831344,7154,-124,15151,-6728069,470366,411723,0,0,0,280,217,201,225,156,230,230,135,191,182,193,169,0,,,,,
1,1788964831360,-894,-205,9873,1110553,-90408,130725,0,0,0,418,413,319,382,337,345,554,218,362,491,253,435,0,,,,,
2,1788964831360,8284,-708,16898,-6860016,932180,1257160,0,0,0,276,217,204,223,156,233,230,131,195,182,193,173,0,,,,,
1,1788964831376,-1038,-339,9834,1015258,102625,223576,0,0,0,437,429,312,405,342,349,548,212,358,384,269,473,0,,,,,
2,1788964831376,8968,-1301,18540,-6954089,1345125,2098932,0,0,0,272,215,206,221,154,238,229,127,195,181,191,176,0,,,,,
1,1788964831392,-1028,-488,9940,921184,142942,359188,0,0,0,438,449,309,419,360,353,545,193,356,368,243,478,0,,,,,
2,1788964831392,9294,-2124,20990,-6877120,1831373,2632829,0,0,0,271,213,209,218,149,241,230,131,196,175,184,176,0,,,,,
1,1788964831408,-464,-636,10332,919963,155159,433714,0,0,0,465,455,294,410,375,344,549,182,359,376,227,499,0,,,,,
2,1788964831408,8868,-4230,24512,-6830695,2433687,2706133,0,0,0,267,209,206,217,146,240,229,134,196,171,176,171,0,,,,,
1,1788964831424,33,-756,10734,1007927,206472,427605,0,0,0,473,467,276,416,394,355,540,176,353,372,212,508,0,,,,,
2,1788964831424,6637,-8250,28231,-6950424,2850297,2288301,0,0,0,265,207,197,223,150,240,228,125,195,172,174,169,0,,,,,
1,1788964831440,210,-914,11036,1169196,221133,367740,0,0,0,486,480,263,414,407,357,526,171,354,352,200,531,0,,,,,
2,1788964831440,2225,-14970,29715,-6982189,2641381,1723861,0,0,0,275,211,198,227,153,239,229,112,194,178,174,173,0,,,,,
1,1788964831456,354,-1043,11337,1352455,120951,320093,0,0,0,498,479,244,429,411,360,522,169,350,341,187,545,0,,,,,
2,1788964831456,-3168,-24843,29150,-6482501,2305405,1047023,0,0,0,275,209,194,229,151,236,234,111,193,183,173,171,0,,,,,
1,1788964831472,507,-1148,11591,1549154,17104,267558,0,0,0,502,474,224,429,410,362,511,169,345,332,182,554,0,,,,,
2,1788964831472,-7686,-33998,27666,-5386609,1696983,271224,0,0,0,274,206,192,232,148,238,238,117,195,184,176,170,0,,,,,
1,1788964831488,693,-1268,11825,1793500,-65973,195476,0,0,0,507,478,213,418,419,359,492,171,341,318,180,555,0,,,,,
2,1788964831488,-4288,-42545,20957,-3951076,133168,-256563,0,0,0,273,206,189,233,148,236,238,118,194,183,179,168,0,,,,,
1,1788964831504,531,-1301,12476,2053728,-125838,114842,0,0,0,511,486,212,425,425,361,472,173,337,309,176,553,0,,,,,
2,1788964831504,1292,-49935,12859,-2289522,-354301,-454483,0,0,0,271,205,189,239,155,243,237,124,189,184,185,165,0,,,,,
1,1788964831520,-512,-1397,13711,2433687,-136833,76969,0,0,0,513,485,214,425,416,368,444,175,337,299,178,549,0,,,,,
2,1788964831520,492,-51308,9624,-223576,535117,-39095,0,0,0,271,205,188,233,168,229,251,223,178,217,288,144,0,,,,,
1,1788964831536,-1407,-1655,14568,2904053,-54977,168598,0,0,0,511,477,213,413,408,369,409,176,340,295,189,540,0,,x,,,
2,1788964831536,-6695,-34577,16726,2062281,1042136,1269377,0,0,0,255,187,147,219,145,195,261,348,147,260,344,123,0,,x,,,
1,1788964831552,-1210,-1742,15017,3590665,24434,339641,0,0,0,500,462,219,424,407,365,378,172,346,312,196,524,0,,,,,
2,1788964831552,-9270,449,19990,3517362,500909,2173458,0,0,0,263,186,146,231,163,213,257,418,157,280,448,132,0,,,,,
1,1788964831568,-799,-1689,15276,4263839,54977,478918,0,0,0,483,438,235,409,397,380,346,172,356,285,183,489,0,,,,,
2,1788964831568,-6073,15683,11619,4142888,13439,1145983,0,0,0,254,174,143,234,156,217,275,489,158,316,491,142,0,,,,,
1,1788964831584,-861,-2115,16262,4836830,17104,565661,0,0,0,466,439,230,417,394,370,335,175,362,270,176,460,0,,,,,
2,1788964831584,-1689,5537,10595,5286427,477696,-365297,0,0,0,262,189,190,246,144,250,361,541,165,370,574,145,0,,,,,
1,1788964831600,-2182,-2866,21024,5699372,-40317,679282,0,0,0,441,409,212,416,378,356,328,177,354,255,169,434,0,,,,,
2,1788964831600,1512,-6752,21426,5640729,1541823,-995710,0,0,0,285,204,205,272,141,252,469,569,173,418,633,135,0,,,,,
1,1788964831616,-4867,-2756,26489,6659652,-47647,895528,0,0,0,399,382,201,368,362,354,308,176,346,239,167,415,0,,,,,
2,1788964831616,4737,-5623,26283,3555235,1673770,-829554,0,0,0,298,205,226,284,138,254,505,570,183,446,633,125,0,,,,,
1,1788964831632,-7398,-1847,29772,7676132,-249233,1343903,0,0,0,368,341,184,322,303,315,326,172,314,241,174,368,0,,,,,
2,1788964831632,6384,-1713,19846,1472185,917519,-443488,0,0,0,310,209,254,284,138,264,514,571,182,477,624,130,0,,,,,
1,1788964831648,-6834,62,33701,8552113,-1097113,1918116,0,0,0,305,250,197,232,180,236,359,186,282,265,206,331,0,,,,,
2,1788964831648,3646,856,10088,752585,161268,-128281,0,0,0,322,218,271,280,140,267,547,575,188,508,634,138,0,,,,,
1,1788964831664,-6264,5068,37554,9057909,-1824043,2471560,0,0,0,301,238,207,223,162,229,369,181,280,267,207,322,0,,,,,
2,1788964831664,2100,521,8542,741590,90408,-147829,0,0,0,327,213,285,277,134,271,571,571,201,517,643,151,0,,,,,
1,1788964831680,-6542,14989,29193,8297993,-1502728,2970026,0,0,0,315,244,210,227,170,234,369,182,280,269,206,322,0,,,,,
2,1788964831680,2837,143,10203,542448,-37873,-169820,0,0,0,327,201,312,277,124,283,568,560,200,513,629,181,0,,,,,
1,1788964831696,-6154,20363,17946,3369532,-53756,2557081,0,0,0,323,239,212,226,171,235,369,188,286,273,213,328,0,,,,,
2,1788964831696,3182,583,11136,375071,-298102,-150272,0,0,0,328,197,339,273,113,285,558,538,210,494,592,186,0,,,,,
1,1788964831712,-5178,16793,15750,-1565036,976162,956614,0,0,0,328,236,214,224,164,233,369,189,285,274,217,329,0,,,,,
2,1788964831712,2464,1134,10648,530231,-382401,-156381,0,0,0,323,201,330,264,111,286,539,505,218,457,561,193,0,,,,,
1,1788964831728,-5508,10868,13534,-3452610,1514945,-891863,0,0,0,328,235,213,223,159,232,368,188,281,274,218,328,0,,,,,
2,1788964831728,1866,1177,10160,758694,-289550,-173485,0,0,0,306,194,350,267,120,321,524,458,242,439,511,219,0,,,,,
1,1788964831744,-6197,9413,9562,-3108082,681725,-1857030,0,0,0,324,235,212,223,162,233,368,191,283,274,221,327,0,,,,,
2,1788964831744,1837,985,9882,862541,-156381,-175929,0,0,0,305,209,352,274,131,328,481,434,240,410,469,211,0,,,,,
1,1788964831760,-4010,9629,8064,-3381749,-718377,-2222327,0,0,0,323,242,212,223,166,233,369,193,283,273,222,322,0,,,,,
2,1788964831760,2129,880,9700,882089,-125838,-168598,0,0,0,335,217,330,292,144,324,473,396,254,426,439,226,0,,,,,
1,1788964831776,-473,8265,9236,-4477642,-1244943,-2084272,0,0,0,321,250,213,222,170,231,369,196,284,273,226,318,0,,,,,
2,1788964831776,2311,765,9609,858876,-276111,-174707,0,0,0,346,245,325,295,154,326,438,363,236,419,407,241,0,,,,,
1,1788964831792,1081,5575,10203,-5420818,-1117883,-1418429,0,0,0,318,246,213,222,166,232,369,192,283,272,223,314,0,,,,,
2,1788964831792,2129,603,9490,797790,-452040,-174707,0,0,0,359,254,315,321,178,319,445,323,235,408,370,244,0,,,,,
1,1788964831808,1426,2703,10715,-5968153,-1005484,-51312,0,0,0,316,248,215,221,166,232,371,195,285,274,226,315,0,,,,,
2,1788964831808,1603,311,9294,664621,-574213,-150272,0,0,0,360,275,309,302,170,318,419,293,228,383,351,251,0,,,,,
1,1788964831824,3144,1598,11710,-6093991,-1224173,1276708,0,0,0,312,252,218,222,170,238,373,196,288,274,226,317,0,,,,,
2,1788964831824,1277,-4,9198,533896,-532674,-123394,0,0,0,365,264,317,292,160,322,402,268,232,369,343,260,0,,,,,
1,1788964831840,4824,1617,13189,-6180734,-1246165,1739744,0,0,0,311,250,214,222,168,236,378,197,288,305,215,307,0,,,,,
2,1788964831840,1234,-124,9188,433714,-400727,-109955,0,0,0,378,268,328,298,167,331,403,251,239,363,332,267,0,,,,,
1,1788964831856,4781,1698,14467,-6381098,-1125213,1263269,0,0,0,312,257,219,223,169,237,376,198,287,281,229,315,0,,,,,
2,1788964831856,1306,-95,9217,360410,-284663,-103847,0,0,0,386,275,326,304,173,339,402,230,240,358,322,279,0,,,,,
1,1788964831872,3369,1129,15348,-6582683,-1196074,298102,0,0,0,305,254,215,221,170,238,375,198,289,274,230,313,0,,,,,
2,1788964831872,1512,38,9399,353080,-237015,-111177,0,0,0,398,298,330,316,211,363,413,215,257,368,326,298,0,,,,,
1,1788964831888,1732,157,16152,-6582683,-1551597,-707381,0,0,0,298,253,213,222,174,240,376,197,290,273,230,312,0,,,,,
2,1788964831888,1670,114,9753,436157,-248011,-150272,0,0,0,413,325,370,323,249,381,417,202,263,366,323,325,0,,,,,
1,1788964831904,612,-784,17697,-6537479,-1883908,-1376890,0,0,0,293,254,211,223,176,241,379,197,291,274,231,315,0,,,,,
2,1788964831904,1742,57,10169,579100,-260228,-207694,0,0,0,420,330,405,326,247,387,408,184,259,346,297,344,0,,,,,
1,1788964831920,516,-2239,20200,-6613227,-1958433,-1284038,0,0,0,292,255,211,223,177,241,380,195,290,275,230,315,0,,,,,
2,1788964831920,1818,-71,10457,735481,-270002,-256563,0,0,0,433,328,403,337,238,399,414,163,279,344,262,351,0,,,,,
1,1788964831936,650,-5226,23072,-6735400,-1848478,-963945,0,0,0,293,260,214,223,179,239,382,192,290,274,223,312,0,,,,,
2,1788964831936,1976,-248,10763,911410,-299323,-316428,0,0,0,460,348,388,352,247,407,421,137,295,356,231,357,0,,,,,
1,1788964831952,1411,-11098,25517,-6786712,-1766622,-594982,0,0,0,294,265,216,227,181,241,387,190,294,273,216,311,0,,,,,
2,1788964831952,1871,-397,11189,1137431,-338419,-381179,0,0,0,477,379,366,376,258,414,399,121,285,340,214,364,0,,,,,
1,1788964831968,3977,-20535,26331,-6541144,-1692096,-344527,0,0,0,294,267,217,234,185,246,388,186,295,275,214,312,0,,,,,
2,1788964831968,1588,-382,11835,1502728,-353080,-419053,0,0,0,496,375,340,380,280,437,365,116,311,328,203,393,0,,,,,
1,1788964831984,5714,-31648,25096,-5820323,-1243721,-184481,0,0,0,297,270,219,239,187,250,388,185,294,276,215,313,0,,,,,
2,1788964831984,1641,-368,12859,1938886,-335975,-438601,0,0,0,502,396,300,369,308,454,316,116,328,312,218,390,0,,,,,
1,1788964832000,4747,-40803,21138,-4472755,-593761,54977,0,0,0,295,271,216,239,189,250,390,189,296,280,220,319,0,,,,,
2,1788964832000,2086,-464,14304,2619390,-371406,-505796,0,0,0,530,452,287,368,385,450,226,115,316,285,214,398,0,,,,,
1,1788964832016,3158,-44019,15448,-2709798,-113620,521678,0,0,0,300,274,216,242,192,250,391,192,295,281,224,319,0,,,,,
2,1788964832016,2297,-670,15314,3494149,-471587,-632856,0,0,0,550,441,260,377,349,432,166,92,323,259,192,395,0,,,,,
1,1788964832032,3838,-42928,10978,-1053131,1221,563217,0,0,0,299,271,215,242,190,252,395,203,296,279,232,314,0,,,,,
2,1788964832032,1957,-1172,15640,4428772,-558330,-757472,0,0,0,572,443,241,358,366,410,139,91,259,231,184,366,0,,,,,
1,1788964832048,5211,-39459,9284,337197,-217468,-226020,0,0,0,299,245,210,242,169,247,437,285,284,313,334,294,0,,,x,,
2,1788964832048,1665,-1497,16324,5308418,-615752,-829554,0,0,0,524,447,259,351,397,406,116,90,259,227,178,356,0,,,x,,
1,1788964832064,3393,-28652,13290,1766622,-39095,-1132544,0,0,0,295,217,165,232,155,236,476,420,265,352,424,262,0,,,,,
2,1788964832064,1995,-1579,19181,5948605,-552222,-895528,0,0,0,462,447,248,369,402,397,109,85,255,188,150,303,0,,,,,
1,1788964832080,622,-5072,16353,2998126,1665218,-1406211,0,0,0,287,240,168,230,164,237,496,458,265,386,474,254,0,,,,,
2,1788964832080,3192,-1938,22775,6451958,-581543,-959058,0,0,0,411,376,206,344,344,352,127,80,237,175,129,257,0,,,,,
1,1788964832096,851,13716,14410,3561344,4091575,-992045,0,0,0,287,241,173,243,167,247,522,491,279,427,496,238,0,,,,,
2,1788964832096,5991,-2694,26551,7068932,-784350,-1128878,0,0,0,328,330,186,289,284,298,148,79,200,152,123,219,0,,,,,
1,1788964832112,3924,4455,17176,3695734,4083023,-233350,0,0,0,288,243,189,262,171,254,548,510,285,474,524,234,0,,,,,
2,1788964832112,8480,-3201,31227,7848396,-729373,-1475850,0,0,0,276,267,185,237,221,254,150,92,183,141,139,188,0,,,,,
1,1788964832128,3675,-4680,21502,3116634,2838079,219911,0,0,0,289,264,232,273,192,264,563,523,299,494,541,233,0,,,,,
2,1788964832128,8054,-1593,35654,8459261,-200363,-1893682,0,0,0,255,240,197,206,190,240,175,126,192,144,175,188,0,,,,,
1,1788964832144,2120,-4446,20990,1871691,1594358,101403,0,0,0,295,291,280,283,218,278,576,529,314,506,548,261,0,,,,,
2,1788964832144,7518,7882,32667,8272337,-335975,-2202780,0,0,0,247,244,211,202,187,252,197,142,203,152,191,197,0,,,,,
1,1788964832160,2981,0,15199,1000597,1001818,-141720,0,0,0,304,308,311,296,241,294,585,525,326,522,553,295,0,,,,,
2,1788964832160,8700,20124,22450,6472728,-1248608,-2381152,0,0,0,248,246,212,201,183,251,196,134,200,159,187,195,0,,,,,
1,1788964832176,3125,1689,11380,702495,364075,-131946,0,0,0,313,314,329,300,255,303,587,521,327,535,547,310,0,,,,,
2,1788964832176,8724,26058,18391,2254092,-1726305,-1795943,0,0,0,254,245,208,193,175,236,197,132,195,164,191,193,0,,,,,
1,1788964832192,2000,799,10686,708603,-243124,-20769,0,0,0,320,318,349,297,261,307,591,516,323,534,533,320,0,,,,,
2,1788964832192,6135,22100,17549,-2323731,-2388483,-133168,0,0,0,260,243,213,193,171,236,203,133,198,165,190,194,0,,,,,
1,1788964832208,851,363,10801,591317,-558330,-28099,0,0,0,320,323,355,298,264,309,598,503,328,516,526,323,0,,,,,
2,1788964832208,7264,15874,12447,-4222300,-3108082,1026253,0,0,0,263,243,213,196,171,234,204,132,198,165,189,189,0,,,,,
1,1788964832224,287,818,10715,496022,-596204,-72082,0,0,0,324,325,335,303,267,307,597,488,334,496,516,328,0,,,,,
2,1788964832224,9188,12385,7145,-4100127,-2204001,1089783,0,0,0,265,243,215,198,173,237,206,136,199,168,192,192,0,,,,,
1,1788964832240,253,1354,10591,569326,-472809,-81855,0,0,0,327,326,330,310,269,308,589,465,328,498,483,340,0,,,,,
2,1788964832240,6891,11060,6312,-4202752,-669508,831998,0,0,0,262,243,218,201,171,239,217,143,204,167,195,197,0,,,,,
1,1788964832256,315,1397,10452,773355,-366519,-59864,0,0,0,346,335,325,321,269,317,588,439,343,494,470,358,0,,,,,
2,1788964832256,4000,9131,8059,-4822170,-147829,786794,0,0,0,262,242,222,199,171,247,210,139,207,164,191,198,0,,,,,
1,1788964832272,445,1177,10270,921184,-321315,-46425,0,0,0,348,342,325,332,275,315,577,423,337,462,454,359,0,,,,,
2,1788964832272,4130,6159,9332,-5440365,-75747,629191,0,0,0,262,240,218,206,174,246,208,136,200,172,194,196,0,,,,,
1,1788964832288,536,985,10193,976162,-346971,-47647,0,0,0,350,344,330,337,281,339,551,388,352,432,413,375,0,,,,,
2,1788964832288,3910,3421,10863,-6013357,65973,237015,0,0,0,263,240,214,210,179,243,210,137,198,165,193,183,0,,,,,
1,1788964832304,478,890,10212,1018923,-384845,-52534,0,0,0,343,354,331,331,289,350,569,355,357,428,400,386,0,,,,,
2,1788964832304,3086,1560,12467,-6422637,-12217,-108734,0,0,0,271,243,210,210,175,239,214,138,197,168,193,185,0,,,,,
1,1788964832320,229,717,10126,1066570,-376292,-40317,0,0,0,346,356,324,334,294,358,571,324,365,431,377,387,0,,,,,
2,1788964832320,3546,717,13620,-6604674,-112399,41538,0,0,0,266,239,206,211,178,238,217,138,194,170,194,181,0,,,,,
1,1788964832336,-38,411,9849,1077566,-293215,9773,0,0,0,348,361,345,342,301,364,563,305,368,430,362,403,0,,,,,
2,1788964832336,4446,86,14816,-6724404,152716,527787,0,0,0,268,242,208,214,175,239,218,140,195,176,199,182,0,,,,,
1,1788964832352,-224,138,9633,1028697,-191811,89186,0,0,0,349,372,355,349,303,362,570,282,369,421,341,412,0,,,,,
2,1788964832352,5049,-536,16027,-6789156,629191,1275486,0,0,0,271,245,209,211,174,236,217,136,194,178,198,188,0,,,,,
1,1788964832368,-287,0,9652,946841,-79412,186924,0,0,0,353,372,355,360,315,366,578,252,378,409,319,417,0,,,,,
2,1788964832368,5580,-995,17343,-6808703,1007927,2003637,0,0,0,270,244,224,211,173,253,218,135,206,173,193,201,0,,,,,
1,1788964832384,-421,-57,9983,918741,35430,277332,0,0,0,367,391,355,376,329,377,579,224,397,400,300,434,0,,,,,
2,1788964832384,6010,-1392,19344,-6800151,1293812,2549751,0,0,0,267,241,221,213,173,254,218,133,205,174,193,196,0,,,,,
1,1788964832400,-512,-330,10366,937067,134390,389732,0,0,0,390,430,362,386,351,382,578,209,401,390,280,450,0,,,,,
2,1788964832400,5910,-2426,22163,-6754947,1513724,2546086,0,0,0,266,239,220,214,172,260,217,133,205,172,191,193,0,,,,,
1,1788964832416,-335,-636,10662,1011592,212581,487470,0,0,0,409,447,362,406,366,388,580,196,395,379,256,464,0,,,,,
2,1788964832416,4723,-5608,26015,-6729291,1654223,1810604,0,0,0,267,238,222,216,171,263,219,134,206,170,186,191,0,,,,,
1,1788964832432,4,-655,10954,1171639,296880,527787,0,0,0,426,448,336,435,369,404,579,184,395,369,233,486,0,,,,,
2,1788964832432,3278,-10126,28667,-6850242,1665218,1025031,0,0,0,272,239,205,216,169,238,219,131,192,173,186,176,0,,,,,
1,1788964832448,449,-612,11490,1409876,387288,516791,0,0,0,456,468,295,437,400,411,572,185,399,366,225,509,0,,,,,
2,1788964832448,2072,-18363,28786,-6822142,1633453,508239,0,0,0,276,240,204,229,178,240,222,127,201,171,186,180,0,,,,,
1,1788964832464,617,-727,12007,1689653,436157,476474,0,0,0,478,469,271,438,428,408,575,178,427,360,214,534,0,,,,,
2,1788964832464,402,-29839,26786,-6035348,1743409,19547,0,0,0,275,243,214,259,196,262,240,126,218,178,188,195,0,,,,,
1,1788964832480,1215,-1062,12098,2015855,383623,425162,0,0,0,479,466,213,466,447,394,557,178,398,347,200,536,0,,,,,
2,1788964832480,-3249,-38985,22656,-4344473,1666440,-405614,0,0,0,282,235,227,249,168,277,262,125,217,193,189,201,0,,,,,
1,1788964832496,1794,-1306,12079,2285857,272445,322536,0,0,0,486,462,185,485,445,394,536,167,383,331,180,548,0,,,,,
2,1788964832496,-5786,-46125,17506,-2670702,1186300,-503352,0,0,0,280,233,218,246,166,271,259,127,212,194,193,201,0,,,,,
1,1788964832512,1765,-1435,12959,2557081,116064,185703,0,0,0,475,478,178,454,430,381,536,172,372,320,181,561,0,,,,,
2,1788964832512,-6221,-50935,12921,-1066570,509461,-155159,0,0,0,276,235,216,234,170,271,237,135,212,175,197,202,0,,,,,
1,1788964832528,1253,-1402,14457,2993239,-29321,97738,0,0,0,480,463,169,446,420,405,498,167,389,326,178,560,0,,,,,
2,1788964832528,-5139,-48604,11562,823446,92851,654847,0,0,0,270,212,222,229,153,266,257,256,196,225,298,167,0,,,,,
1,1788964832544,607,-1392,15175,3534466,-114842,81855,0,0,0,493,440,176,446,424,384,466,169,368,299,165,549,0,,,,,
2,1788964832544,-5987,-21899,17133,2847853,210137,1666440,0,0,0,254,182,159,220,138,210,246,351,156,241,394,136,0,,,,,
1,1788964832560,-148,-1474,15549,4243069,-150272,172263,0,0,0,482,431,189,436,413,368,419,167,384,281,164,531,0,,,,,
2,1788964832560,-4532,9523,14486,3933972,116064,1673770,0,0,0,252,179,159,232,145,217,299,453,155,315,483,133,0,,,,,
1,1788964832576,-526,-1464,16310,4988325,-173485,321315,0,0,0,460,420,191,426,410,389,364,167,388,255,163,495,0,,,,,
2,1788964832576,-3082,16372,13323,4736649,-98960,588874,0,0,0,270,189,191,249,140,218,390,527,156,387,565,124,0,,,,,
1,1788964832592,-933,-1689,19042,5878967,-289550,504574,0,0,0,419,397,186,410,391,379,343,168,368,245,165,444,0,,,,,
2,1788964832592,-1713,-856,21842,4954117,425162,-773355,0,0,0,287,197,228,259,129,229,454,554,160,487,599,128,0,,,,,
1,1788964832608,-1871,-1957,24704,6850242,-623082,681725,0,0,0,386,365,181,381,359,349,339,168,347,241,165,394,0,,,,,
2,1788964832608,3211,-9897,29317,3848451,1100779,-1280373,0,0,0,307,208,244,266,139,244,464,562,184,535,601,132,0,,,,,
1,1788964832624,-2847,-832,29504,7830070,-1042136,910189,0,0,0,354,329,181,323,293,305,350,168,325,239,166,347,0,,,,,
2,1788964832624,6915,-3752,22904,2003637,428827,-598647,0,0,0,312,215,258,273,142,264,479,566,205,550,602,149,0,,,,,
1,1788964832640,-3187,-354,33740,8704829,-1773952,1198517,0,0,0,318,282,195,255,205,256,366,171,302,256,184,326,0,,,,,
2,1788964832640,3718,1679,12763,1023810,-217468,6108,0,0,0,317,216,271,277,136,273,507,568,219,548,590,159,0,,,,,
1,1788964832656,-4125,617,37975,9209404,-2989574,1541823,0,0,0,322,249,208,230,164,238,370,172,295,277,199,334,0,,,,,
2,1788964832656,114,2373,7437,845437,-95294,78190,0,0,0,319,222,285,277,141,285,524,560,235,546,573,178,0,,,,,
1,1788964832672,-2435,9743,28260,7654141,-3015230,1981646,0,0,0,340,245,209,234,165,234,376,174,292,280,201,330,0,,,,,
2,1788964832672,1368,1014,9284,839328,150272,-51312,0,0,0,326,223,292,280,142,296,527,533,240,547,541,193,0,,,,,
1,1788964832688,636,15668,20430,2895501,-73303,1385442,0,0,0,329,236,212,228,160,230,376,185,288,279,217,328,0,,,,,
2,1788964832688,2713,928,10954,803898,7330,-83077,0,0,0,333,220,291,287,145,308,523,494,240,542,503,199,0,,,,,
1,1788964832704,-2919,12323,17602,-1453859,3521027,-410501,0,0,0,327,233,215,222,156,229,360,189,289,277,223,339,0,,,,,
2,1788964832704,2201,1359,10662,862541,-194255,-91629,0,0,0,327,218,298,288,156,314,515,457,250,511,473,208,0,,,,,
1,1788964832720,-8250,8944,13117,-2750115,4197865,-1423316,0,0,0,325,234,219,219,150,228,358,189,286,280,228,340,0,,,,,
2,1788964832720,1531,1387,10145,945619,-173485,-133168,0,0,0,329,220,305,285,150,309,500,422,259,447,430,214,0,,,,,
1,1788964832736,-9011,9222,8131,-2197893,1852143,-1126435,0,0,0,325,236,222,219,153,229,362,191,288,286,234,342,0,,,,,
2,1788964832736,1325,1234,9916,1007927,0,-175929,0,0,0,333,238,311,293,150,332,479,388,267,402,405,237,0,,,,,
1,1788964832752,-4297,10772,7035,-2614503,551000,-520457,0,0,0,321,238,222,223,157,231,362,192,288,289,226,333,0,,,,,
2,1788964832752,1426,1220,9944,1039692,117286,-179594,0,0,0,338,249,305,298,152,339,470,365,268,397,385,254,0,,,,,
1,1788964832768,-1995,10614,6743,-3585778,453262,-237015,0,0,0,326,249,226,219,158,231,345,198,286,281,234,332,0,,,,,
2,1788964832768,1679,861,9882,1069014,129503,-157603,0,0,0,340,234,307,297,154,340,433,326,271,374,360,246,0,,,,,
1,1788964832784,-2852,8571,6724,-4712214,499687,-64751,0,0,0,326,250,228,221,159,234,357,196,288,281,235,332,0,,,,,
2,1788964832784,1832,497,9772,1048244,64751,-167377,0,0,0,334,248,305,297,161,346,436,304,284,341,319,245,0,,,,,
1,1788964832800,-3335,6073,7087,-5433035,-195476,305432,0,0,0,323,250,226,222,160,232,362,196,289,282,236,333,0,,,,,
2,1788964832800,1823,311,9614,973719,-37873,-186924,0,0,0,340,266,302,302,185,346,430,259,281,351,311,260,0,,,,,
1,1788964832816,-1871,4039,8088,-5760459,-845437,750142,0,0,0,321,249,227,222,160,231,364,194,287,282,237,329,0,,,,,
2,1788964832816,1698,224,9437,895528,-116064,-196698,0,0,0,363,260,301,341,196,344,432,222,287,340,292,257,0,,,,,
1,1788964832832,-813,2904,9399,-5907066,-1083674,924849,0,0,0,320,249,225,223,160,232,365,194,286,285,237,328,0,,,,,
2,1788964832832,1555,124,9294,825889,-150272,-183259,0,0,0,340,260,296,315,181,353,419,192,322,342,276,264,0,,,,,
1,1788964832848,-775,2526,11414,-6117204,-1192408,691499,0,0,0,321,249,224,225,160,234,368,195,286,285,236,327,0,,,,,
2,1788964832848,1588,-129,9265,753807,-142942,-171042,0,0,0,344,268,300,315,194,363,425,174,311,347,252,258,0,,,,,
1,1788964832864,-1158,1928,13448,-6417750,-1359786,328645,0,0,0,322,250,226,223,160,234,372,197,288,285,236,327,0,,,,,
2,1788964832864,1737,-296,9361,697608,-123394,-195476,0,0,0,350,318,303,327,229,386,431,155,320,345,241,278,0,,,,,
1,1788964832880,-1474,804,15348,-6676757,-1644449,7330,0,0,0,321,250,225,222,158,233,375,196,290,288,236,325,0,,,,,
2,1788964832880,1861,-258,9676,711047,-144164,-249233,0,0,0,366,313,309,332,231,402,425,132,347,340,228,305,0,,,,,
1,1788964832896,-1076,-43,17492,-6769608,-1986533,-178372,0,0,0,320,249,223,223,156,234,376,191,289,289,232,322,0,,,,,
2,1788964832896,1957,-191,9992,772133,-212581,-304210,0,0,0,387,308,309,343,247,402,429,120,376,345,220,323,0,,,,,
1,1788964832912,-550,-947,20301,-6841690,-2313957,-302989,0,0,0,318,250,221,227,161,236,380,184,289,286,228,316,0,,,,,
2,1788964832912,2000,-268,10356,872315,-318871,-355523,0,0,0,398,320,310,351,268,424,416,119,415,332,214,349,0,,,,,
1,1788964832928,244,-3038,23775,-6875899,-2640159,-211359,0,0,0,312,255,219,223,161,234,380,185,288,282,232,314,0,,,,,
2,1788964832928,2163,-344,10954,1038470,-465479,-398284,0,0,0,424,348,302,371,292,452,387,118,432,315,204,368,0,,,,,
1,1788964832944,2359,-7240,27216,-6811147,-2638937,35430,0,0,0,308,263,219,224,173,238,384,197,292,276,246,314,0,,,,,
2,1788964832944,2282,-459,11485,1293812,-648738,-463035,0,0,0,457,373,285,384,310,455,369,111,438,309,194,373,0,,,,,
1,1788964832960,4560,-13472,29193,-6717074,-2230879,151494,0,0,0,309,263,222,226,171,238,386,181,294,278,223,314,0,,,,,
2,1788964832960,1809,-670,11806,1606575,-770911,-524122,0,0,0,462,372,273,376,312,449,346,103,444,294,183,385,0,,,,,
1,1788964832976,6154,-23220,28370,-6385985,-1642005,202807,0,0,0,309,269,222,227,178,241,393,188,298,280,224,316,0,,,,,
2,1788964832976,942,-789,12610,2007303,-731816,-494800,0,0,0,460,378,254,381,339,438,310,104,409,272,174,390,0,,,,,
1,1788964832992,6345,-33266,24541,-5387831,-1196074,234572,0,0,0,310,266,220,233,177,243,398,184,297,281,223,312,0,,,,,
2,1788964832992,818,-847,14055,2522873,-630412,-415388,0,0,0,467,394,243,373,377,436,264,109,394,256,175,381,0,,,,,
1,1788964833008,6034,-41167,18779,-3777590,-812450,21991,0,0,0,313,264,222,235,172,247,404,189,304,282,224,315,0,,,,,
2,1788964833008,1119,-789,15352,3244916,-541226,-373849,0,0,0,460,401,248,364,396,428,211,107,411,236,179,370,0,,,,,
1,1788964833024,6010,-44359,13400,-2085493,-663399,-676838,0,0,0,314,261,220,239,171,247,406,193,300,286,229,314,0,,,,,
2,1788964833024,1416,-655,15778,4086688,-403171,-415388,0,0,0,453,409,237,377,397,459,175,104,363,207,169,374,0,,,,,
1,1788964833040,5805,-46307,10390,-553443,-608421,-1602910,0,0,0,302,238,201,239,159,239,440,277,282,327,326,295,0,,,,,
2,1788964833040,2043,-832,16420,5021312,-260228,-529009,0,0,0,438,383,213,405,376,427,145,87,322,211,149,356,0,,,,,
1,1788964833056,4857,-41454,12012,1335351,-458148,-2252871,0,0,0,287,226,184,235,154,249,474,404,275,374,427,264,0,,,,,
2,1788964833056,3062,-1229,18310,5964488,-190589,-746477,0,0,0,411,379,199,374,361,407,138,86,317,190,123,292,0,,,,,
1,1788964833072,6178,-15879,16042,3490483,267558,-2353052,0,0,0,276,228,179,234,157,253,504,479,275,405,480,237,0,,,,,
2,1788964833072,3843,-1990,22828,7056715,-168598,-1017701,0,0,0,353,335,212,343,325,386,130,81,270,163,108,245,0,,,,,
1,1788964833088,6350,8801,16544,4024380,1762957,-1315803,0,0,0,276,241,215,244,169,255,536,512,282,435,512,225,0,,,,,
2,1788964833088,5407,-3685,29935,7916813,-47647,-1170417,0,0,0,318,283,176,296,283,313,139,84,240,145,108,206,0,,,,,
1,1788964833104,4134,7556,20435,3758042,2775771,311541,0,0,0,293,271,288,259,194,270,559,536,298,482,537,239,0,,,,,
2,1788964833104,5881,-3689,37137,8564330,447153,-1359786,0,0,0,281,222,169,228,185,242,174,104,204,143,144,160,0,,,,,
1,1788964833120,406,-5096,24761,2678033,2245540,1020144,0,0,0,314,306,336,268,218,284,570,540,305,529,551,272,0,,,,,
2,1788964833120,5226,-1521,41158,8889310,697608,-1527163,0,0,0,294,204,180,217,151,227,207,110,196,165,159,163,0,,,,,
1,1788964833136,-196,-4268,20167,1210734,1120326,353080,0,0,0,329,329,365,266,233,291,577,535,300,535,563,300,0,,,,,
2,1788964833136,7642,8700,32103,8308988,1144761,-1653001,0,0,0,282,203,188,214,145,223,211,109,193,166,161,163,0,,,,,
1,1788964833152,1670,1330,12902,703716,311541,-75747,0,0,0,343,329,382,261,236,282,583,535,298,542,558,313,0,,,,,
2,1788964833152,4871,22110,22038,5068959,962723,-1714087,0,0,0,282,213,188,217,156,221,213,131,190,167,188,163,0,,,,,
1,1788964833168,1899,3120,9585,807563,-375071,-35430,0,0,0,352,334,394,269,240,292,589,523,298,562,536,312,0,,,,,
2,1788964833168,306,25235,19928,278554,-1313360,-805120,0,0,0,285,209,193,216,151,221,217,126,190,171,185,166,0,,,,,
1,1788964833184,244,1320,10648,786794,-807563,45204,0,0,0,353,335,400,273,244,291,604,509,330,567,546,324,0,,,,,
2,1788964833184,3900,17123,14702,-2790432,-3725056,423940,0,0,0,281,205,198,215,143,223,218,114,193,173,172,169,0,,,,,
1,1788964833200,-880,765,11418,679282,-940732,-12217,0,0,0,355,333,389,290,257,305,602,491,315,548,512,332,0,,,,,
2,1788964833200,7863,12165,8064,-3452610,-3315776,587652,0,0,0,278,207,200,215,144,225,218,116,195,171,174,171,0,,,,,
1,1788964833216,-1033,1478,11103,719599,-824668,-74525,0,0,0,355,334,381,298,261,314,590,463,321,536,484,352,0,,,,,
2,1788964833216,5781,12093,5393,-3555235,-1396437,67195,0,0,0,278,207,200,213,146,226,218,116,195,172,177,173,0,,,,,
1,1788964833232,-847,1866,10552,913854,-630412,-25656,0,0,0,360,344,382,299,261,323,584,424,332,516,453,365,0,,,,,
2,1788964833232,1952,11380,6623,-4488637,-1076344,-109955,0,0,0,278,207,198,211,146,225,216,115,197,175,181,173,0,,,,,
1,1788964833248,-746,1765,10351,1060462,-492357,39095,0,0,0,353,350,374,299,271,323,580,383,328,477,439,377,0,,,,,
2,1788964833248,2000,8289,6810,-5307197,-1238834,-199142,0,0,0,276,206,200,215,145,227,217,117,197,175,180,173,0,,,,,
1,1788964833264,-622,1541,10313,1134987,-453262,63529,0,0,0,354,352,374,303,271,322,571,345,327,449,410,385,0,,,,,
2,1788964833264,3378,4800,6623,-5643173,-814894,-549778,0,0,0,281,207,200,217,144,228,217,117,197,177,178,173,0,,,,,
1,1788964833280,-559,1402,10227,1213178,-486248,62308,0,0,0,357,353,370,308,271,324,564,313,334,437,378,392,0,,,,,
2,1788964833280,2230,3924,8327,-5754350,-78190,-918741,0,0,0,291,205,199,225,148,233,226,121,202,181,181,172,0,,,,,
1,1788964833296,-713,1186,10088,1287703,-496022,72082,0,0,0,364,359,370,318,277,333,561,291,342,429,356,397,0,,,,,
2,1788964833296,1143,3924,10562,-6074443,180816,-853989,0,0,0,305,206,199,231,148,228,231,124,202,187,184,170,0,,,,,
1,1788964833312,-1062,760,9825,1291369,-420275,124616,0,0,0,375,378,373,328,285,342,562,268,345,424,341,405,0,,,,,
2,1788964833312,1526,3551,12356,-6472728,178372,-318871,0,0,0,309,204,200,235,149,231,231,123,202,187,184,172,0,,,,,
1,1788964833328,-1258,363,9533,1232726,-276111,200363,0,0,0,385,393,375,335,294,344,559,241,342,415,323,413,0,,,,,
2,1788964833328,2770,2383,13697,-6647435,420275,476474,0,0,0,307,208,207,231,144,239,221,123,210,184,182,178,0,,,,,
1,1788964833344,-1143,71,9399,1117883,-96516,252898,0,0,0,389,392,374,349,313,345,559,227,342,401,302,415,0,,,,,
2,1788964833344,3388,1387,15104,-6647435,790459,1198517,0,0,0,283,209,209,223,146,243,224,118,211,178,184,183,0,,,,,
1,1788964833360,-1115,-105,9566,1000597,40317,259006,0,0,0,389,406,366,374,341,351,563,220,347,403,293,432,0,,,,,
2,1788964833360,3823,540,17042,-6599788,1027475,1745852,0,0,0,282,210,212,221,145,246,226,117,214,173,184,183,0,,,,,
1,1788964833376,-1086,-277,9940,927293,175929,261450,0,0,0,408,408,381,394,342,362,560,194,351,407,267,466,0,,,,,
2,1788964833376,4627,-827,19392,-6530149,1216843,1892460,0,0,0,282,212,210,221,148,243,231,118,211,178,182,178,0,,,,,
1,1788964833392,-1038,-512,10394,950506,287106,254119,0,0,0,435,430,382,403,349,363,555,183,355,388,251,470,0,,,,,
2,1788964833392,4709,-3168,22981,-6543588,1510058,1477072,0,0,0,277,211,207,222,151,242,232,116,207,181,181,179,0,,,,,
1,1788964833408,-990,-636,10806,1033583,310319,257785,0,0,0,478,440,398,413,349,363,555,170,364,396,246,486,0,,,,,
2,1788964833408,3575,-6728,26944,-6950424,1547932,855211,0,0,0,279,206,207,224,146,240,235,115,205,183,174,178,0,,,,,
1,1788964833424,-799,-693,11256,1183856,204028,299323,0,0,0,475,454,366,411,367,374,546,169,355,376,224,478,0,,,,,
2,1788964833424,3685,-13256,29212,-7362147,1304808,505796,0,0,0,280,203,206,225,142,240,236,114,205,180,170,178,0,,,,,
1,1788964833440,-253,-650,11753,1406211,58643,320093,0,0,0,484,457,318,439,391,383,537,164,357,372,211,496,0,,,,,
2,1788964833440,5326,-25264,27944,-6956533,1295034,405614,0,0,0,277,203,212,224,143,251,228,107,205,175,168,188,0,,,,,
1,1788964833456,162,-713,12050,1670105,-46425,268780,0,0,0,486,463,290,436,419,393,518,154,369,362,196,505,0,,,,,
2,1788964833456,3656,-37985,25092,-5651725,1924225,163711,0,0,0,279,202,218,226,142,261,227,102,212,178,168,196,0,,,,,
1,1788964833472,177,-904,12175,1943773,-164933,172263,0,0,0,508,465,259,432,412,396,502,156,363,344,178,524,0,,,,,
2,1788964833472,-4551,-47489,22053,-3534466,2590068,-169820,0,0,0,282,202,215,228,142,261,234,106,221,181,172,193,0,,,,,
1,1788964833488,-349,-1134,12601,2265088,-321315,83077,0,0,0,512,471,247,430,427,395,463,151,359,322,178,529,0,,,,,
2,1788964833488,-8982,-51571,18152,-1672549,1215621,45204,0,0,0,281,199,208,231,144,252,238,119,211,182,185,185,0,,,,,
1,1788964833504,-1349,-1249,13888,2662150,-326202,113620,0,0,0,521,475,235,428,424,385,428,155,370,301,170,529,0,,,,,
2,1788964833504,-4766,-53830,13275,-84299,-432492,443488,0,0,0,283,185,192,244,142,235,262,174,193,204,239,167,0,,,,,
1,1788964833520,-2139,-1210,15180,3240029,-142942,238237,0,0,0,514,463,218,415,408,386,381,157,355,284,167,524,0,,,,,
2,1788964833520,-469,-42703,14778,1577254,-715934,717155,0,0,0,294,174,162,265,143,213,308,334,173,260,381,147,0,,,,,
1,1788964833536,-2359,-1196,15606,3921754,141720,399505,0,0,0,500,450,209,408,403,401,333,156,352,270,167,508,0,,,,,
2,1788964833536,-1459,3464,19023,2946813,-1082453,1242499,0,0,0,270,176,160,233,144,206,316,429,168,282,471,129,0,,,,,
1,1788964833552,-2507,-1383,15663,4662123,321315,575435,0,0,0,490,448,207,410,407,411,295,160,366,259,164,473,0,,,,,
2,1788964833552,-4216,24977,13093,3612657,-1821600,1105666,0,0,0,272,164,158,240,127,210,352,497,177,318,521,127,0,,,,,
1,1788964833568,-2172,-1521,16611,5415931,355523,772133,0,0,0,464,437,199,408,406,406,271,164,354,246,164,424,0,,,,,
2,1788964833568,-6068,8150,12079,4735427,-1473406,32986,0,0,0,291,183,186,251,126,216,390,517,165,364,575,117,0,,,,,
1,1788964833584,-2718,-1938,19913,6208834,284663,917519,0,0,0,429,416,190,399,393,385,272,163,349,237,162,379,0,,,,,
2,1788964833584,-2603,-7164,21320,4685336,107512,-766025,0,0,0,305,210,195,264,142,219,424,556,155,414,601,124,0,,,,,
1,1788964833600,-4158,-3038,27733,7165449,204028,1109331,0,0,0,399,383,178,366,349,336,302,166,337,242,158,349,0,,,,,
2,1788964833600,2120,-6020,24359,3418401,794124,-908967,0,0,0,312,232,213,271,141,230,460,556,160,446,612,142,0,,,,,
1,1788964833616,-4326,-2804,34084,7808079,210137,1280373,0,0,0,364,307,181,305,260,278,365,168,325,265,165,339,0,,,,,
2,1788964833616,2699,-397,17157,1813048,447153,-476474,0,0,0,309,248,245,262,139,265,462,551,191,455,603,161,0,,,,,
1,1788964833632,-5321,617,35989,8240572,-211359,1415985,0,0,0,319,229,205,219,146,232,360,177,289,281,215,319,0,,,,,
2,1788964833632,1325,1062,10882,1011592,339641,-168598,0,0,0,307,260,255,260,145,273,462,539,196,450,589,181,0,,,,,
1,1788964833648,-8609,9830,30653,8506909,-1198517,1896125,0,0,0,321,246,206,234,172,239,367,177,287,285,209,319,0,,,,,
2,1788964833648,1038,-19,9188,796568,499687,-84299,0,0,0,327,276,263,275,157,281,474,540,193,456,599,191,0,,,,,
1,1788964833664,-8547,17669,20449,6699969,-1579697,2563190,0,0,0,332,251,212,226,166,230,368,180,283,285,208,317,0,,,,,
2,1788964833664,1751,81,10160,586430,340862,-90408,0,0,0,336,272,273,277,161,290,481,536,205,458,589,194,0,,,,,
1,1788964833680,-3780,17310,18741,1159422,-354301,1957212,0,0,0,329,234,213,227,161,231,371,181,285,292,218,330,0,,,,,
2,1788964833680,1742,851,10562,431270,81855,-97738,0,0,0,338,268,275,281,164,296,472,526,218,455,563,201,0,,,,,
1,1788964833696,-2244,12758,17544,-2916270,1738522,486248,0,0,0,331,238,213,228,165,232,369,186,285,289,222,327,0,,,,,
2,1788964833696,1253,1363,10366,509461,-43982,-117286,0,0,0,335,274,275,290,175,308,462,493,226,441,525,216,0,,,,,
1,1788964833712,-5872,9049,12112,-3905872,2768441,-531452,0,0,0,330,237,214,224,163,230,366,184,281,290,221,324,0,,,,,
2,1788964833712,961,1105,10078,674395,9773,-133168,0,0,0,329,283,287,286,176,317,466,446,233,423,490,216,0,,,,,
1,1788964833728,-7853,8624,7020,-3513696,1395216,-515570,0,0,0,327,244,214,224,166,230,366,186,280,288,221,323,0,,,,,
2,1788964833728,832,885,9916,757472,102625,-133168,0,0,0,327,287,303,278,172,327,468,400,250,426,453,223,0,,,,,
1,1788964833744,-3297,9064,6523,-3771481,-283441,-340862,0,0,0,330,251,215,226,171,232,370,191,283,289,227,323,0,,,,,
2,1788964833744,995,899,9968,792903,188146,-125838,0,0,0,330,278,307,282,180,340,455,354,265,421,416,241,0,,,,,
1,1788964833760,186,8188,7183,-4416555,-478918,-579100,0,0,0,325,254,217,227,174,235,370,191,285,289,231,321,0,,,,,
2,1788964833760,1244,871,10007,847880,208915,-134390,0,0,0,330,277,301,292,193,346,445,317,260,383,393,244,0,,,,,
1,1788964833776,-727,6293,7269,-4864930,-211359,-797790,0,0,0,317,253,218,227,173,238,369,188,285,288,233,321,0,,,,,
2,1788964833776,1402,622,9825,888198,156381,-152716,0,0,0,329,305,304,299,202,353,439,295,262,379,362,253,0,,,,,
1,1788964833792,-1464,4608,7695,-5148372,-508239,-709825,0,0,0,315,253,218,226,173,240,369,187,287,288,234,321,0,,,,,
2,1788964833792,1378,335,9475,856433,64751,-164933,0,0,0,325,304,286,295,214,340,430,262,256,355,320,242,0,,,,,
1,1788964833808,-272,4005,9179,-5403713,-923628,-458148,0,0,0,316,259,219,225,176,239,371,189,288,288,234,319,0,,,,,
2,1788964833808,1292,191,9346,757472,0,-172263,0,0,0,328,297,292,301,231,349,428,244,269,352,304,247,0,,,,,
1,1788964833824,435,3694,11174,-5859419,-866206,-398284,0,0,0,316,261,218,224,176,239,372,190,287,287,234,317,0,,,,,
2,1788964833824,1311,62,9428,656069,-31764,-188146,0,0,0,344,282,261,317,226,338,413,216,295,346,297,243,0,,,,,
1,1788964833840,28,2962,13079,-6312681,-839328,-450818,0,0,0,315,260,216,224,173,239,376,192,291,285,233,314,0,,,,,
2,1788964833840,1368,-119,9523,583987,-52534,-204028,0,0,0,348,302,261,331,227,349,409,183,280,336,288,252,0,,,,,
1,1788964833856,-387,1655,14984,-6612005,-1067792,-494800,0,0,0,317,263,218,224,179,240,376,191,288,285,232,313,0,,,,,
2,1788964833856,1378,-229,9595,538783,-72082,-215024,0,0,0,358,323,271,337,245,374,417,175,299,325,259,268,0,,,,,
1,1788964833872,119,296,16841,-6710965,-1265712,-454483,0,0,0,317,263,216,232,180,240,378,189,289,285,230,310,0,,,,,
2,1788964833872,1407,-244,9652,527787,-74525,-229685,0,0,0,374,329,284,349,258,385,428,147,309,324,241,281,0,,,,,
1,1788964833888,306,-957,19014,-6718295,-1310916,-436157,0,0,0,311,262,213,227,181,239,379,189,286,284,231,305,0,,,,,
2,1788964833888,1598,-244,9858,564439,-45204,-289550,0,0,0,388,347,273,369,301,395,421,140,318,325,232,293,0,,,,,
1,1788964833904,-564,-2100,21469,-6621779,-1368338,-405614,0,0,0,310,268,215,224,179,238,382,191,290,289,233,306,0,,,,,
2,1788964833904,1933,-248,10318,670730,-21991,-389732,0,0,0,401,372,279,370,337,400,423,126,314,327,228,314,0,,,,,
1,1788964833920,-947,-5025,24747,-6564357,-1639562,-124616,0,0,0,308,271,215,226,183,241,386,190,289,283,227,302,0,,,,,
2,1788964833920,1990,-306,11050,871093,-43982,-505796,0,0,0,414,388,284,376,348,414,404,115,357,318,210,341,0,,,,,
1,1788964833936,14,-10126,27183,-6599788,-1773952,251676,0,0,0,309,277,215,229,188,242,387,190,287,285,226,301,0,,,,,
2,1788964833936,1253,-440,11624,1186300,-114842,-551000,0,0,0,433,390,279,388,341,439,380,111,367,308,195,354,0,,,,,
1,1788964833952,2230,-18095,27489,-6524040,-1721418,588874,0,0,0,312,273,216,233,186,245,391,187,288,286,222,303,0,,,,,
2,1788964833952,626,-626,11964,1500285,-91629,-497244,0,0,0,458,404,272,390,353,446,351,112,351,295,191,366,0,,,,,
1,1788964833968,5738,-27939,25115,-5794667,-1584584,715934,0,0,0,314,274,217,237,185,248,396,187,290,291,220,298,0,,,,,
2,1788964833968,813,-756,12849,1870469,48869,-415388,0,0,0,473,431,253,385,388,461,318,122,353,271,195,377,0,,,,,
1,1788964833984,9102,-35884,21316,-4461759,-1211956,561996,0,0,0,316,274,219,240,183,249,401,187,292,291,221,298,0,,,,,
2,1788964833984,1373,-545,14122,2459343,168598,-395840,0,0,0,473,426,229,378,392,464,281,123,358,258,190,373,0,,,,,
1,1788964834000,9767,-40756,16042,-2724458,-465479,-4886,0,0,0,307,260,197,239,175,246,417,231,290,309,273,295,0,,,,,
2,1788964834000,1804,-626,14792,3128851,183259,-420275,0,0,0,474,406,219,382,377,422,231,108,351,254,183,365,0,,,,,
1,1788964834016,6882,-45790,12763,-1007927,280998,-692721,0,0,0,294,246,170,234,166,240,448,335,282,335,366,281,0,,,,,
2,1788964834016,2067,-765,15242,3853337,135612,-480140,0,0,0,464,418,211,402,402,413,186,106,346,228,189,365,0,,,,,
1,1788964834032,4474,-48623,13275,1318247,1855808,-1122770,0,0,0,292,250,178,226,168,237,478,434,273,344,434,262,0,,,,,
2,1788964834032,2412,-703,16300,4773300,57421,-571769,0,0,0,434,392,212,355,367,431,136,90,328,203,161,339,0,,,,,
1,1788964834048,2948,-28523,14472,3847229,4079358,-1102000,0,0,0,286,254,180,228,173,243,495,469,275,387,476,242,0,,,,,
2,1788964834048,3646,-598,18315,5772676,-48869,-735481,0,0,0,387,397,194,356,384,412,140,97,303,192,150,293,0,,,,,
1,1788964834064,3220,3967,17932,4235739,4299269,-972497,0,0,0,287,251,183,245,169,253,522,484,285,456,506,235,0,,,,,
2,1788964834064,6599,-1139,22072,7007846,-419053,-1159422,0,0,0,344,365,175,344,363,374,137,92,247,168,126,248,0,,,,,
1,1788964834080,5776,9609,19602,3758042,2899166,-601091,0,0,0,287,274,212,270,200,260,548,498,285,488,547,220,0,,,,,
2,1788964834080,9035,-2512,27441,7953465,-883311,-1649336,0,0,0,293,310,159,299,312,318,121,79,232,148,114,221,0,,,,,
1,1788964834096,6724,-775,19765,3098308,1127657,-17104,0,0,0,297,314,282,289,239,277,563,510,288,544,554,220,0,,,,,
2,1788964834096,9380,-2407,33845,8483696,-830776,-2087937,0,0,0,259,255,157,239,218,247,158,100,201,155,162,175,0,,,,,
1,1788964834112,3665,-3761,17985,2062281,210137,311541,0,0,0,312,340,323,291,274,284,574,507,301,565,557,238,0,,,,,
2,1788964834112,7891,-603,37812,8643743,-505796,-2364048,0,0,0,285,192,197,223,141,244,209,116,201,170,171,195,0,,,,,
1,1788964834128,1277,-1024,14917,1314581,-40317,272445,0,0,0,336,355,357,291,275,294,586,499,319,575,546,280,0,,,,,
2,1788964834128,8982,7489,31347,8185594,-111177,-2463008,0,0,0,272,193,206,217,135,255,213,113,214,169,173,205,0,,,,,
1,1788964834144,981,947,12098,978606,-146607,103847,0,0,0,360,366,381,309,275,293,586,495,321,574,538,300,0,,,,,
2,1788964834144,9935,21344,18334,6260146,483805,-2423913,0,0,0,273,201,199,215,143,246,206,113,209,185,161,196,0,,,,,
1,1788964834160,957,526,11045,726929,-324980,29321,0,0,0,368,368,380,303,278,296,588,487,317,572,533,313,0,,,,,
2,1788964834160,3551,27370,18147,1315803,-111177,-1022588,0,0,0,271,203,200,209,142,240,210,119,213,171,171,187,0,,,,,
1,1788964834176,631,90,10806,453262,-444709,6108,0,0,0,362,398,385,298,283,302,583,484,321,569,529,326,0,,,,,
2,1788964834176,885,22694,17391,-2624277,-2186897,890641,0,0,0,272,203,196,211,142,234,211,119,202,169,177,178,0,,,,,
1,1788964834192,488,971,10634,382401,-405614,-4886,0,0,0,370,390,375,304,284,307,579,475,324,562,511,335,0,,,,,
2,1788964834192,6130,15041,9782,-3618765,-3011565,1740965,0,0,0,270,201,196,214,144,235,211,121,196,170,179,177,0,,,,,
1,1788964834208,555,1531,10696,504574,-367740,-6108,0,0,0,375,375,364,307,285,306,578,459,333,549,489,345,0,,,,,
2,1788964834208,7719,12543,5795,-3738495,-1512502,1490511,0,0,0,270,204,199,215,145,236,215,126,198,173,181,181,0,,,,,
1,1788964834224,722,1426,10725,706160,-403171,-1221,0,0,0,371,373,366,307,297,307,578,438,342,533,470,360,0,,,,,
2,1788964834224,3273,12361,7695,-4521624,4886,1103222,0,0,0,272,206,197,216,145,233,216,126,195,176,182,179,0,,,,,
1,1788964834240,708,1139,10485,801455,-498466,-13439,0,0,0,370,376,370,311,309,311,575,409,334,518,448,367,0,,,,,
2,1788964834240,536,9552,10265,-5900958,-343306,1051909,0,0,0,274,205,195,218,146,233,215,124,195,176,182,178,0,,,,,
1,1788964834256,521,990,10270,842994,-561996,-29321,0,0,0,369,382,359,311,308,312,575,383,328,498,423,372,0,,,,,
2,1788964834256,1785,5317,10480,-6696304,-786794,730594,0,0,0,275,204,197,216,146,237,215,126,199,175,182,179,0,,,,,
1,1788964834272,248,885,10117,872315,-560774,-30543,0,0,0,362,385,341,314,306,317,575,367,331,472,406,390,0,,,,,
2,1788964834272,2517,2249,10528,-6651100,-348193,-74525,0,0,0,273,205,202,210,143,237,212,121,198,172,180,179,0,,,,,
1,1788964834288,114,703,9983,896750,-492357,-8552,0,0,0,366,391,332,328,313,328,567,342,327,449,393,405,0,,,,,
2,1788964834288,1512,1426,11969,-6477614,78190,-621860,0,0,0,270,200,197,213,145,236,216,121,196,175,184,179,0,,,,,
1,1788964834304,23,492,9849,900415,-395840,9773,0,0,0,375,397,332,337,322,335,566,311,332,442,371,408,0,,,,,
2,1788964834304,780,1708,14156,-6508158,174707,-608421,0,0,0,267,200,195,209,141,231,217,126,198,175,183,177,0,,,,,
1,1788964834320,-38,335,9777,866206,-298102,30543,0,0,0,389,397,338,338,344,340,554,302,346,442,357,416,0,,,,,
2,1788964834320,1636,1229,15793,-6762278,224798,-63529,0,0,0,271,206,203,219,149,234,221,121,200,177,184,180,0,,,,,
1,1788964834336,-86,258,9786,797790,-226020,68416,0,0,0,410,412,333,376,356,334,550,270,341,439,327,432,0,,,,,
2,1788964834336,2943,129,16970,-6899112,454483,625526,0,0,0,273,205,197,250,168,229,222,120,200,180,186,181,0,,,,,
1,1788964834352,-162,153,9825,729373,-189368,124616,0,0,0,405,413,327,364,367,341,563,242,333,421,303,449,0,,,,,
2,1788964834352,4259,-784,18324,-6791599,791681,1249830,0,0,0,270,196,195,217,142,237,221,121,197,180,181,180,0,,,,,
1,1788964834368,-205,-19,9877,702495,-163711,175929,0,0,0,414,426,334,380,367,346,558,219,336,418,287,461,0,,,,,
2,1788964834368,5206,-1947,20966,-6581462,1183856,1516167,0,0,0,268,198,195,217,142,237,219,119,197,177,181,177,0,,,,,
1,1788964834384,-253,-186,10007,708603,-129503,219911,0,0,0,425,434,338,384,373,348,554,198,334,420,274,476,0,,,,,
2,1788964834384,4900,-4235,24364,-6494719,1448972,1391551,0,0,0,271,199,197,219,143,239,222,116,196,178,181,177,0,,,,,
1,1788964834400,-306,-301,10256,742812,-92851,267558,0,0,0,452,442,339,392,376,350,494,249,339,409,256,494,0,,,,,
2,1788964834400,3598,-8829,27714,-6671870,1396437,1022588,0,0,0,273,201,196,222,144,234,236,125,203,182,186,178,0,,,,,
1,1788964834416,-421,-382,10653,835663,-74525,322536,0,0,0,469,459,324,403,391,356,517,209,342,399,241,502,0,,,,,
2,1788964834416,2407,-16444,28121,-6741508,1337794,795346,0,0,0,271,205,194,226,148,238,225,117,199,182,181,183,0,,,,,
1,1788964834432,-536,-531,11131,1012814,-85521,406836,0,0,0,478,465,309,409,410,361,535,167,347,387,224,517,0,,,,,
2,1788964834432,464,-25919,26881,-6228381,1462411,548556,0,0,0,271,204,190,229,149,239,227,114,200,177,176,177,0,,,,,
1,1788964834448,-71,-679,11552,1235169,-52534,469144,0,0,0,493,470,286,412,413,364,521,162,343,371,210,536,0,,,,,
2,1788964834448,-3082,-35793,24134,-4929682,1420872,105068,0,0,0,273,206,192,228,152,240,229,116,198,174,178,173,0,,,,,
1,1788964834464,784,-765,11921,1483180,0,423940,0,0,0,509,477,259,418,415,360,502,161,334,360,203,550,0,,,,,
2,1788964834464,-4661,-42813,18300,-3186273,535117,-305432,0,0,0,273,210,195,228,154,243,233,123,202,176,187,177,0,,,,,
1,1788964834480,713,-722,12940,1780061,-40317,305432,0,0,0,517,480,236,422,432,357,482,163,329,352,203,559,0,,,,,
2,1788964834480,-3340,-47599,12706,-1591914,-130725,-417831,0,0,0,271,212,194,230,154,245,234,124,202,178,190,177,0,,,,,
1,1788964834496,-28,-713,14218,2185675,-42760,248011,0,0,0,522,480,217,417,439,357,456,166,325,337,202,561,0,,,,,
2,1788964834496,-2646,-47006,10428,145385,-79412,92851,0,0,0,268,207,199,231,149,242,252,175,194,197,236,170,0,,,,,
1,1788964834512,-449,-789,15190,2775771,51312,276111,0,0,0,524,475,213,406,418,357,418,159,327,316,188,550,0,,,,,
2,1788964834512,-3350,-36472,13400,1932777,306654,1012814,0,0,0,262,189,180,230,143,222,286,301,175,248,332,144,0,,,,,
1,1788964834528,-555,-880,15558,3459940,180816,316428,0,0,0,519,467,207,403,428,368,382,162,340,305,182,525,0,,,,,
2,1788964834528,-5599,-5412,20454,3225368,464257,1709200,0,0,0,257,170,149,227,135,203,300,412,156,309,434,126,0,,,,,
1,1788964834544,-1464,-1086,15721,4156327,256563,409279,0,0,0,506,466,214,409,418,359,342,166,335,291,178,504,0,,,,,
2,1788964834544,-5943,18506,14663,3848451,-262672,834441,0,0,0,259,175,160,229,133,213,308,461,157,348,525,139,0,,,,,
1,1788964834560,-2072,-1196,16865,4971221,279776,670730,0,0,0,483,461,209,417,425,374,305,165,338,275,177,475,0,,,,,
2,1788964834560,-3163,9035,12189,5164254,-315206,-906524,0,0,0,272,195,171,253,149,227,352,509,165,379,583,125,0,,,,,
1,1788964834576,-2388,-1287,19908,5826432,334754,933402,0,0,0,442,438,195,413,424,367,285,166,345,255,168,438,0,,,,,
2,1788964834576,1785,-8006,20445,5885075,1086118,-1577254,0,0,0,283,212,184,266,144,237,398,538,175,404,611,131,0,,,,,
1,1788964834592,-4029,-1531,25192,6899112,467922,1191187,0,0,0,369,414,194,390,392,361,282,168,340,245,171,410,0,,,,,
2,1788964834592,4867,-6245,23517,4897917,1687209,-1093448,0,0,0,303,188,197,270,124,241,444,551,188,436,596,127,0,,,,,
1,1788964834608,-5886,-1253,29949,7936361,653625,1486845,0,0,0,327,378,176,341,351,328,286,172,313,225,167,369,0,,,,,
2,1788964834608,5388,-1335,18616,3435506,1098335,-516791,0,0,0,305,200,233,268,121,252,478,548,209,470,593,137,0,,,,,
1,1788964834624,-6350,229,33491,8781798,255341,1882686,0,0,0,296,297,185,261,228,258,345,167,286,248,179,327,0,,,,,
2,1788964834624,3699,-1296,12940,2111150,400727,-171042,0,0,0,301,218,290,271,134,302,489,560,212,461,581,176,0,,,,,
1,1788964834640,-5934,3374,37583,9173974,-245567,2277305,0,0,0,297,255,199,228,174,234,362,182,275,266,209,319,0,,,,,
2,1788964834640,2881,-1962,10543,1119105,153938,-34208,0,0,0,306,211,283,269,135,319,498,558,241,458,571,199,0,,,,,
1,1788964834656,-8097,13366,28729,8483696,157603,2610838,0,0,0,305,247,202,226,168,232,362,187,272,275,214,317,0,,,,,
2,1788964834656,2938,-1177,10093,574213,17104,-34208,0,0,0,301,225,272,280,145,316,504,549,240,465,559,205,0,,,,,
1,1788964834672,-9877,21923,15333,5221676,560774,2480112,0,0,0,309,254,203,225,173,230,367,191,270,276,216,317,0,,,,,
2,1788964834672,2938,-239,10208,510683,-285884,-76969,0,0,0,305,239,275,282,154,318,500,521,233,470,544,209,0,,,,,
1,1788964834688,-6767,20382,13524,-287106,255341,1121548,0,0,0,310,257,206,232,178,230,375,196,269,276,225,319,0,,,,,
2,1788964834688,2550,172,10356,535117,-547335,-123394,0,0,0,328,241,284,279,154,318,481,465,246,469,510,214,0,,,,,
1,1788964834704,-3819,12998,13673,-3258355,1194852,-1001818,0,0,0,311,256,207,235,180,232,373,198,272,279,230,323,0,,,,,
2,1788964834704,1866,210,10289,631634,-570548,-144164,0,0,0,333,246,300,287,154,335,457,418,252,427,478,228,0,,,,,
1,1788964834720,-6001,8954,9480,-3462384,2034181,-2438574,0,0,0,308,263,207,223,182,235,362,205,276,278,237,326,0,,,,,
2,1788964834720,1608,57,10064,729373,-367740,-120951,0,0,0,330,254,303,297,172,350,436,396,252,381,444,237,0,,,,,
1,1788964834736,-8150,9523,5518,-3044552,767246,-2739119,0,0,0,304,272,210,222,191,235,364,215,279,277,243,324,0,,,,,
2,1788964834736,1655,-90,9964,785572,-185703,-101403,0,0,0,334,264,287,303,188,355,421,379,252,368,411,234,0,,,,,
1,1788964834752,-3709,9380,6867,-3943745,-879645,-2602285,0,0,0,298,280,210,215,191,233,364,221,281,276,247,324,0,,,,,
2,1788964834752,1794,-167,9834,791681,-109955,-108734,0,0,0,343,277,279,303,196,345,408,327,251,365,381,227,0,,,,,
1,1788964834768,-598,7542,8796,-4884478,-989601,-2381152,0,0,0,294,284,209,219,197,237,367,220,281,276,251,323,0,,,,,
2,1788964834768,1895,-315,9600,767246,-105068,-124616,0,0,0,350,284,283,302,203,337,394,266,256,352,351,234,0,,,,,
1,1788964834784,-909,5106,9724,-5550321,-518013,-1731192,0,0,0,295,281,209,221,194,236,366,221,279,277,250,320,0,,,,,
2,1788964834784,1876,-612,9327,703716,-157603,-139277,0,0,0,358,283,293,306,212,351,382,227,266,342,329,249,0,,,,,
1,1788964834800,-1268,3259,10351,-5982814,-665843,-647517,0,0,0,295,284,209,220,195,234,367,221,277,280,253,320,0,,,,,
2,1788964834800,1804,-880,9207,623082,-194255,-144164,0,0,0,370,295,300,314,222,366,374,199,268,342,311,256,0,,,,,
1,1788964834816,574,2234,12079,-6250373,-957836,329867,0,0,0,296,282,209,219,193,234,350,225,275,280,255,320,0,,,,,
2,1788964834816,1842,-942,9370,564439,-197920,-161268,0,0,0,378,319,288,315,232,361,371,199,262,337,290,268,0,,,,,
1,1788964834832,1698,1775,14161,-6422637,-915076,704938,0,0,0,295,285,212,221,198,240,368,223,277,278,256,322,0,,,,,
2,1788964834832,1981,-918,9609,566882,-221133,-197920,0,0,0,388,321,288,329,249,363,360,178,267,338,267,272,0,,,,,
1,1788964834848,1344,1450,15979,-6608340,-965167,470366,0,0,0,292,287,213,225,203,239,376,225,279,280,258,323,0,,,,,
2,1788964834848,1966,-933,9710,601091,-266337,-245567,0,0,0,387,326,289,330,254,372,356,164,277,330,251,291,0,,,,,
1,1788964834864,789,784,17764,-6805038,-1196074,-56199,0,0,0,285,300,211,221,204,238,376,226,280,282,259,321,0,,,,,
2,1788964834864,1837,-1009,9724,631634,-293215,-287106,0,0,0,399,344,288,338,263,391,345,136,291,328,240,306,0,,,,,
1,1788964834880,253,-129,19325,-6864903,-1437976,-682947,0,0,0,282,309,207,219,204,237,377,226,279,281,261,317,0,,,,,
2,1788964834880,1789,-1129,9748,658512,-288328,-312763,0,0,0,405,355,292,338,289,401,345,128,298,320,231,330,0,,,,,
1,1788964834896,-703,-923,21641,-6789156,-1560149,-1116661,0,0,0,281,312,207,219,205,237,380,223,279,281,260,315,0,,,,,
2,1788964834896,1794,-1244,9978,734260,-260228,-348193,0,0,0,413,360,288,353,295,417,323,105,315,311,215,335,0,,,,,
1,1788964834912,-1813,-2225,25092,-6739065,-1736079,-1119105,0,0,0,279,313,224,221,207,247,383,219,284,281,255,321,0,,,,,
2,1788964834912,1890,-1320,10390,874759,-240680,-388510,0,0,0,429,375,286,362,300,424,309,99,313,307,195,358,0,,,,,
1,1788964834928,-1296,-5489,28930,-6839247,-1977981,-588874,0,0,0,280,313,238,225,206,257,383,218,289,280,252,324,0,,,,,
2,1788964834928,1880,-1483,10921,1086118,-239459,-444709,0,0,0,433,385,275,367,327,421,301,99,323,303,193,362,0,,,,,
1,1788964834944,1976,-13840,30404,-6956533,-1951103,-169820,0,0,0,286,317,215,232,205,245,388,216,281,280,247,315,0,,,,,
2,1788964834944,1421,-1550,11600,1363451,-239459,-471587,0,0,0,452,401,266,370,342,419,269,91,326,293,186,376,0,,,,,
1,1788964834960,5331,-24283,28824,-6563136,-1718974,-215024,0,0,0,288,318,211,237,207,248,392,210,280,284,246,314,0,,,,,
2,1788964834960,1210,-1497,12529,1743409,-213802,-439822,0,0,0,455,424,252,357,365,425,247,102,321,273,183,365,0,,,,,
1,1788964834976,6556,-34611,24039,-5249775,-988379,-482583,0,0,0,295,304,215,241,201,249,395,203,284,285,242,311,0,,,,,
2,1788964834976,1541,-1421,13807,2327396,-207694,-414166,0,0,0,468,442,247,361,397,419,212,102,300,254,184,349,0,,,,,
1,1788964834992,5273,-42766,17358,-3587000,-361632,-594982,0,0,0,288,305,209,250,204,253,399,200,282,290,241,310,0,,,,,
2,1788964834992,1890,-1464,14553,3039665,-239459,-425162,0,0,0,485,437,240,370,389,425,169,88,307,240,179,347,0,,,,,
1,1788964835008,5082,-49619,11265,-1682322,-272445,-587652,0,0,0,288,281,199,245,189,250,401,209,280,295,256,308,0,,,,,
2,1788964835008,2206,-1631,14625,3780034,-256563,-486248,0,0,0,484,427,229,369,373,417,142,81,296,223,167,336,0,,,,,
1,1788964835024,4991,-51447,9346,117286,-21991,-910189,0,0,0,279,249,171,238,167,239,452,360,263,348,391,281,0,,,,,
2,1788964835024,2723,-1813,15257,4581489,-266337,-623082,0,0,0,454,427,211,365,398,401,125,87,276,202,154,308,0,,,,,
1,1788964835040,2469,-36228,13706,2550973,932180,-1439198,0,0,0,279,237,161,243,175,244,483,452,265,367,450,258,0,,,,,
2,1788964835040,4053,-2067,17272,5555208,-357967,-861319,0,0,0,409,421,195,357,413,399,121,89,282,176,135,269,0,,,,,
1,1788964835056,1660,-2651,16199,4564385,2546086,-1485624,0,0,0,282,252,168,241,181,252,490,494,270,396,483,246,0,,,,,
2,1788964835056,6197,-3048,21220,6553362,-671951,-1222952,0,0,0,358,377,197,334,359,361,130,76,243,155,108,230,0,,,,,
1,1788964835072,3785,8389,16951,4652349,3065321,-801455,0,0,0,287,255,185,247,171,257,517,512,272,443,514,238,0,,,,,
2,1788964835072,8265,-5881,28815,7346265,-1191187,-1629788,0,0,0,301,310,175,288,289,303,119,78,212,148,111,208,0,,,,,
1,1788964835088,5250,2775,19454,4525289,2346944,-70860,0,0,0,292,271,229,263,189,266,547,527,279,475,534,234,0,,,,,
2,1788964835088,9877,-7360,34850,7864279,-1036027,-1992642,0,0,0,267,262,165,240,224,250,142,97,196,152,143,180,0,,,,,
1,1788964835104,4197,-4977,22086,4001167,784350,379958,0,0,0,313,313,293,280,229,286,558,528,297,517,552,276,0,,,,,
2,1788964835104,9289,-4455,37721,8196589,-109955,-2342057,0,0,0,256,216,178,202,158,220,200,124,199,158,181,180,0,,,,,
1,1788964835120,1316,-3709,20186,2819753,135612,397062,0,0,0,346,351,318,298,257,304,574,523,307,545,556,316,0,,,,,
2,1788964835120,8954,6432,32151,7937582,305432,-2690250,0,0,0,256,224,204,213,164,252,213,126,205,168,183,192,0,,,,,
1,1788964835136,-291,-1852,16233,1554041,190589,205250,0,0,0,364,368,325,310,279,314,587,522,311,559,551,342,0,,,,,
2,1788964835136,8992,20990,20890,5986479,34208,-2764776,0,0,0,264,227,201,208,164,244,206,125,205,168,183,198,0,,,,,
1,1788964835152,483,-469,11696,563217,245567,-61086,0,0,0,367,379,333,316,296,323,588,520,320,565,544,367,0,,,,,
2,1788964835152,5920,26063,18583,1010371,-632856,-1424537,0,0,0,257,222,210,207,161,251,211,126,205,169,183,195,0,,,,,
1,1788964835168,918,272,10313,375071,-108734,-103847,0,0,0,373,392,330,322,305,331,587,513,329,560,540,379,0,,,,,
2,1788964835168,4168,21225,16697,-2845410,-1927890,353080,0,0,0,275,221,200,215,158,235,215,127,196,174,184,183,0,,,,,
1,1788964835184,550,741,10256,359188,-329867,-75747,0,0,0,379,402,327,330,310,332,585,492,328,554,537,387,0,,,,,
2,1788964835184,7202,14218,10122,-3991393,-2558303,1370781,0,0,0,264,224,198,205,158,235,218,132,202,167,189,183,0,,,,,
1,1788964835200,220,904,10801,434936,-323758,-41538,0,0,0,382,410,323,335,307,329,581,458,319,540,510,396,0,,,,,
2,1788964835200,8150,12462,5594,-3843564,-943175,1238834,0,0,0,260,223,192,208,159,235,219,129,199,172,191,181,0,,,,,
1,1788964835216,349,918,10940,568104,-321315,-35430,0,0,0,388,411,305,328,307,330,577,441,317,514,478,403,0,,,,,
2,1788964835216,4422,11950,5738,-4223522,769690,1051909,0,0,0,278,222,193,222,160,237,221,126,197,176,190,178,0,,,,,
1,1788964835232,497,789,10586,715934,-436157,-41538,0,0,0,377,423,277,323,331,327,566,428,321,492,454,410,0,,,,,
2,1788964835232,966,9169,8547,-5237558,676838,1136209,0,0,0,290,225,197,228,160,237,221,127,196,175,189,175,0,,,,,
1,1788964835248,411,698,10356,799011,-540004,-50090,0,0,0,385,433,257,342,320,341,486,384,350,486,434,425,0,,,,,
2,1788964835248,1143,5695,9595,-5920505,202807,917519,0,0,0,291,227,197,228,161,237,218,128,196,178,189,175,0,,,,,
1,1788964835264,205,655,10337,860098,-574213,-59864,0,0,0,384,426,237,342,324,355,558,356,345,459,415,441,0,,,,,
2,1788964835264,1502,2603,10275,-6287025,139277,217468,0,0,0,291,224,195,230,162,239,219,129,195,184,191,177,0,,,,,
1,1788964835280,-14,516,10241,928515,-544891,-59864,0,0,0,391,440,221,356,340,339,553,341,335,445,392,438,0,,,,,
2,1788964835280,177,1689,11763,-6344446,290771,-362853,0,0,0,294,218,191,234,162,237,226,128,193,188,193,176,0,,,,,
1,1788964835296,-162,244,9964,959058,-459370,-42760,0,0,0,390,435,219,354,329,334,553,316,344,433,371,446,0,,,,,
2,1788964835296,-559,1871,13634,-6394537,331088,-403171,0,0,0,303,220,190,240,162,235,227,128,192,190,193,174,0,,,,,
1,1788964835312,-229,-47,9595,908967,-349414,-20769,0,0,0,388,433,217,367,333,344,546,292,343,421,354,457,0,,,,,
2,1788964835312,157,1861,15491,-6596122,432492,224798,0,0,0,307,218,193,241,160,238,223,131,194,189,191,171,0,,,,,
1,1788964835328,-277,-258,9298,761138,-224798,4886,0,0,0,395,436,223,376,338,355,544,272,343,419,342,470,0,,,,,
2,1788964835328,1158,1095,16841,-6784269,646295,960280,0,0,0,306,220,195,242,162,244,228,130,200,189,192,180,0,,,,,
1,1788964835344,-301,-344,9356,623082,-131946,31764,0,0,0,408,441,227,385,352,354,544,246,352,416,322,490,0,,,,,
2,1788964835344,2062,105,18090,-6842912,901637,1584584,0,0,0,304,225,194,235,162,237,225,128,194,188,195,176,0,,,,,
1,1788964835360,-402,-335,9724,544891,-63529,63529,0,0,0,418,456,232,395,373,358,535,226,363,408,304,508,0,,,,,
2,1788964835360,2909,-784,20129,-6756169,1110553,1942551,0,0,0,302,219,197,239,160,242,229,129,200,187,194,176,0,,,,,
1,1788964835376,-756,-306,10112,510683,-6108,122173,0,0,0,426,467,237,401,384,362,520,209,358,400,285,525,0,,,,,
2,1788964835376,3005,-2354,23335,-6615670,1226617,1748296,0,0,0,275,219,194,227,164,242,222,124,196,174,185,171,0,,,,,
1,1788964835392,-1024,-411,10409,540004,46425,238237,0,0,0,442,469,243,404,398,365,512,196,348,421,258,528,0,,,,,
