sole_id,timestamp,accel_x,accel_y,accel_z,gyro_x,gyro_y,gyro_z,magn_x,magn_y,magn_z,pressure_01,pressure_02,pressure_03,pressure_04,pressure_05,pressure_06,pressure_07,pressure_08,pressure_09,pressure_10,pressure_11,pressure_12,corrupt,compact ground,transition,grass,concrete
1,1787151515936,1076,-42230,9456,-1359786,366519,-290771,0,0,0,316,224,217,246,166,268,419,266,289,306,312,293,0,,,,
2,1787151515936,1478,-181,13467,1659109,-127059,-488692,0,0,0,431,422,273,380,370,407,375,183,308,300,258,367,0,,,,
1,1787151515952,1215,-42306,10729,245567,63529,-744033,0,0,0,289,223,205,228,159,258,468,375,281,333,403,275,0,,,,
2,1787151515952,1426,-540,14491,2365270,-169820,-607200,0,0,0,442,435,265,371,415,418,317,167,309,291,264,410,0,,,,
1,1787151515968,2670,-35094,14199,2349387,864985,-1153313,0,0,0,290,216,197,236,159,264,486,452,283,389,460,261,0,,,,
2,1787151515968,1244,-837,15094,3189938,-50090,-726929,0,0,0,438,441,246,364,410,405,278,171,301,268,256,402,0,,,,
1,1787151515984,3441,-10433,16128,3905872,2178345,-1051909,0,0,0,288,216,213,240,160,279,495,487,287,412,477,256,0,,,,
2,1787151515984,564,-311,16343,3995058,36651,-763581,0,0,0,438,441,253,357,375,415,226,170,295,237,232,400,0,,,,
1,1787151516000,3058,8432,17319,3986506,2597398,-486248,0,0,0,289,214,233,247,154,285,520,521,289,466,504,245,0,,,,
2,1787151516000,1033,-110,17702,4846604,-2443,-741590,0,0,0,443,438,238,359,361,394,188,142,286,236,225,352,0,,,,
1,1787151516016,2689,4910,17774,3506366,1828930,218689,0,0,0,298,227,258,263,164,292,545,538,286,511,539,238,0,,,,
2,1787151516016,3445,-373,20023,5872858,-80634,-841772,0,0,0,383,423,237,328,364,357,150,120,272,202,206,309,0,,,,
1,1787151516032,1569,-2904,18406,2935818,690277,376292,0,0,0,320,256,299,282,189,304,563,552,296,522,555,254,0,,,,
2,1787151516032,7006,-1081,24311,7077484,-249233,-1321912,0,0,0,317,355,209,305,332,334,151,116,271,170,178,268,0,,,,
1,1787151516048,-239,-4498,17994,1903456,179594,228463,0,0,0,339,284,334,302,221,314,576,563,311,538,559,292,0,,,,
2,1787151516048,8805,-1727,28915,8023104,-463035,-1937664,0,0,0,286,307,229,268,284,312,166,133,217,156,172,222,0,,,,
1,1787151516064,-961,-1493,15032,904080,285884,9773,0,0,0,342,301,346,318,253,317,585,557,308,568,568,328,0,,,,
2,1787151516064,8202,272,33543,8522791,-37873,-2472782,0,0,0,277,239,171,230,179,210,249,157,173,166,196,139,0,,,,
1,1787151516080,-134,483,11390,522900,156381,-80634,0,0,0,339,311,355,318,267,324,592,554,301,570,569,349,0,,,,
2,1787151516080,7183,5072,36477,8400618,349414,-2796541,0,0,0,285,228,170,212,151,178,254,167,168,169,203,122,0,,,,
1,1787151516096,4,473,10189,406836,-113620,-86742,0,0,0,337,316,366,315,273,336,588,546,300,564,569,365,0,x,,,
2,1787151516096,9250,16061,27757,7098254,239459,-2842966,0,0,0,289,231,170,206,148,178,245,165,166,172,204,130,0,x,,,
1,1787151516112,-406,220,10457,301767,-255341,-73303,0,0,0,337,320,378,321,279,341,592,540,307,551,558,363,0,,,,
2,1787151516112,9188,24450,18114,3893655,101403,-2036624,0,0,0,291,234,178,211,146,185,250,165,174,179,203,133,0,,,,
1,1787151516128,-440,693,10591,280998,-223576,-58643,0,0,0,342,325,377,328,278,343,596,527,308,554,543,372,0,,,,
2,1787151516128,5077,25182,14295,195476,-891863,-61086,0,0,0,289,230,178,211,146,187,246,168,173,175,205,133,0,,,,
1,1787151516144,-311,1086,10643,410501,-234572,-34208,0,0,0,349,338,380,333,283,336,595,502,319,551,516,372,0,,,,
2,1787151516144,5087,19396,10375,-1804495,-2373822,2098932,0,0,0,292,231,177,210,146,185,240,169,171,171,207,131,0,,,,
1,1787151516160,-258,1028,10552,631634,-317649,-9773,0,0,0,357,343,366,344,289,347,596,466,323,551,510,382,0,,,,
2,1787151516160,8432,15520,5575,-2199114,-1605353,2742784,0,0,0,293,235,181,208,147,183,237,168,168,174,212,130,0,,,,
1,1787151516176,-411,804,10308,734260,-362853,6108,0,0,0,361,344,366,355,289,349,580,442,321,495,476,387,0,,,,
2,1787151516176,6149,14036,5135,-2825862,177150,2459343,0,0,0,293,237,182,211,152,186,236,170,168,175,215,133,0,,,,
1,1787151516192,-569,650,10107,766025,-346971,23212,0,0,0,364,348,367,364,291,353,575,426,331,494,457,392,0,,,,
2,1787151516192,674,11940,7891,-4017049,453262,1969429,0,0,0,297,236,183,218,153,188,243,174,169,175,215,131,0,,,,
1,1787151516208,-607,521,9978,756251,-283441,52534,0,0,0,381,354,364,386,304,349,576,406,326,484,434,392,0,,,,
2,1787151516208,-641,8963,9116,-4991990,-200363,1497841,0,0,0,297,230,183,221,152,186,248,173,168,175,217,124,0,,,,
1,1787151516224,-488,315,9849,745255,-230907,90408,0,0,0,374,350,352,381,315,358,574,379,333,474,426,400,0,,,,
2,1787151516224,516,6274,9523,-5632177,-476474,786794,0,0,0,298,230,183,223,152,187,249,174,171,174,217,123,0,,,,
1,1787151516240,-516,134,9758,713490,-195476,103847,0,0,0,377,347,361,378,321,363,576,353,330,453,401,404,0,,,,
2,1787151516240,382,5010,10839,-6007248,-146607,91629,0,0,0,306,233,188,221,148,185,252,177,171,174,215,121,0,,,,
1,1787151516256,-631,86,9686,654847,-147829,105068,0,0,0,390,353,365,391,331,369,578,329,330,439,376,410,0,,,,
2,1787151516256,43,4321,12725,-6294355,52534,-212581,0,0,0,307,232,189,222,148,188,253,177,172,176,218,123,0,,,,
1,1787151516272,-713,114,9786,635299,-94073,131946,0,0,0,396,363,362,400,342,378,574,303,331,429,359,423,0,,,,
2,1787151516272,770,3536,14582,-6555805,158824,-188146,0,0,0,310,233,192,225,152,191,256,180,174,176,216,123,0,,,,
1,1787151516288,-804,0,10026,654847,-41538,180816,0,0,0,400,373,358,412,348,397,571,279,332,421,342,439,0,,,,
2,1787151516288,2292,2546,16740,-6818477,316428,134390,0,0,0,310,231,192,223,152,191,255,179,174,178,216,125,0,,,,
1,1787151516304,-942,-210,10155,682947,-2443,226020,0,0,0,412,386,354,443,359,419,569,256,337,418,324,450,0,,,,
2,1787151516304,3737,1550,18990,-6984633,511905,529009,0,0,0,310,233,193,222,151,190,252,177,174,177,216,124,0,,,,
1,1787151516320,-1052,-373,10155,692721,46425,270002,0,0,0,427,408,351,454,375,419,566,230,335,409,305,467,0,,,,
2,1787151516320,4948,406,21947,-6980967,813672,934623,0,0,0,311,235,194,221,151,189,250,175,174,176,216,124,0,,,,
1,1787151516336,-1296,-421,10342,734260,120951,335975,0,0,0,455,435,343,430,392,410,571,211,336,407,290,490,0,,,,
2,1787151516336,5096,-1622,26173,-6861238,1216843,1167974,0,0,0,294,228,194,220,153,199,243,167,174,165,208,123,0,,,,
1,1787151516352,-1569,-478,10811,861319,204028,460592,0,0,0,467,470,314,446,455,422,557,204,338,384,282,507,0,,,,
2,1787151516352,4575,-5647,30500,-6910107,1486845,1335351,0,0,0,285,234,182,219,157,193,238,161,168,162,204,118,0,,,,
1,1787151516368,-1416,-655,11485,1108109,208915,601091,0,0,0,487,454,290,485,461,419,552,192,328,378,249,523,0,,,,
2,1787151516368,4034,-12318,32443,-7122688,1538158,1459967,0,0,0,294,240,182,250,181,190,245,160,170,166,208,123,0,,,,
1,1787151516384,-899,-885,11859,1378111,182037,693942,0,0,0,498,451,229,499,469,439,531,176,328,376,217,550,0,,,,
2,1787151516384,1679,-24402,31457,-6939429,1665218,1393994,0,0,0,297,239,189,236,171,197,250,158,177,168,205,129,0,,,,
1,1787151516400,315,-957,12275,1667662,116064,670730,0,0,0,515,462,212,496,465,439,515,176,328,356,207,568,0,,,,
2,1787151516400,-3450,-37204,28312,-5905845,1539380,981049,0,0,0,297,237,196,227,163,205,257,163,183,172,206,133,0,,,,
1,1787151516416,942,-938,13457,2032959,31764,518013,0,0,0,523,454,216,503,481,440,495,177,362,343,197,601,0,,,,
2,1787151516416,-4905,-47834,20153,-4090353,414166,302989,0,0,0,294,234,195,225,160,205,259,164,181,177,210,138,0,,,,
1,1787151516432,244,-1014,14678,2526538,-13439,360410,0,0,0,519,450,212,489,472,452,467,170,343,328,188,586,0,,,,
2,1787151516432,-3594,-56692,11083,-2133141,-233350,-433714,0,0,0,291,230,191,222,158,204,256,172,179,176,219,138,0,,,,
1,1787151516448,-574,-1000,15324,3127630,2443,327423,0,0,0,524,454,206,480,447,471,436,163,341,318,181,579,0,,,,
2,1787151516448,-5364,-57798,7877,-91629,-39095,-675616,0,0,0,285,222,196,220,150,204,269,230,180,180,264,128,0,,,,
1,1787151516464,-1038,-1038,15730,3824016,51312,395840,0,0,0,518,452,205,467,426,477,383,161,345,286,168,561,0,,,,
2,1787151516464,-6575,-41282,15276,2160019,-541226,81855,0,0,0,271,202,181,218,147,194,291,361,170,205,373,113,0,,,,
1,1787151516480,-1603,-1239,16137,4459316,96516,505796,0,0,0,506,434,203,454,411,476,333,162,346,258,153,529,0,,,,
2,1787151516480,-1588,1478,22177,3819129,-2200336,988379,0,0,0,261,185,138,225,157,185,303,480,155,244,496,105,0,,,,
1,1787151516496,-2239,-1584,17233,5178915,191811,667064,0,0,0,482,419,207,432,400,445,296,169,354,247,152,487,0,,,,
2,1787151516496,2249,31036,15922,3859446,-3120299,1040914,0,0,0,268,196,153,232,146,194,342,511,163,310,561,109,0,,,,
1,1787151516512,-3924,-1746,20861,6168517,417831,879645,0,0,0,449,411,218,406,387,399,278,175,358,240,155,434,0,,,,
2,1787151516512,-3082,9212,12720,4703662,-1726305,370184,0,0,0,275,202,161,240,140,200,391,570,161,409,620,107,0,,,,
1,1787151516528,-7738,-2459,25446,7221648,461814,1208291,0,0,0,410,383,213,375,358,363,288,180,342,229,156,392,0,,,,
2,1787151516528,-5599,-11777,20531,5076290,26878,-156381,0,0,0,298,212,189,253,145,199,430,594,152,460,643,110,0,,,,
1,1787151516544,-7949,-2842,30839,8014551,-251676,1853365,0,0,0,351,319,213,311,283,318,324,187,321,228,180,353,0,,,,
2,1787151516544,-789,-7628,24273,3401297,188146,-445931,0,0,0,313,213,194,269,146,210,469,581,162,480,633,121,0,,,,
1,1787151516560,-5374,-43,36951,8428718,-626747,2398256,0,0,0,304,254,245,251,196,285,366,194,308,256,221,309,0,,,,
2,1787151516560,2239,-248,18568,1634675,-173485,-322536,0,0,0,315,242,231,273,162,241,508,543,164,467,633,126,0,,,,
1,1787151516576,-6432,9504,35424,8282110,119729,2638937,0,0,0,315,239,255,252,180,281,380,204,306,280,234,315,0,,,,
2,1787151516576,708,1675,10882,938289,-95294,-35430,0,0,0,319,247,263,272,182,253,497,549,184,487,613,148,0,,,,
1,1787151516592,-9959,21603,21837,6532592,1426981,2405587,0,0,0,319,233,250,246,178,272,376,203,299,280,233,321,0,,,,
2,1787151516592,57,-62,9313,835663,302989,-8552,0,0,0,322,248,265,268,156,253,505,553,188,499,604,145,0,,,,
1,1787151516608,-9533,23455,16625,1748296,1545489,855211,0,0,0,330,229,249,249,171,268,377,203,299,284,238,322,0,,,,
2,1787151516608,885,-804,10145,572991,357967,-29321,0,0,0,337,268,260,266,145,239,508,547,183,515,594,149,0,,,,
1,1787151516624,-5819,17554,15362,-2500882,1412320,-1280373,0,0,0,331,232,246,244,174,265,377,219,291,279,251,320,0,,,,
2,1787151516624,1301,57,10705,259006,111177,-15882,0,0,0,333,264,257,270,154,244,510,529,178,523,587,156,0,,,,
1,1787151516640,-5738,12356,11136,-2971248,1646892,-2268753,0,0,0,331,240,229,240,178,252,377,224,286,284,254,313,0,,,,
2,1787151516640,765,856,10428,177150,-15882,1221,0,0,0,328,271,258,279,168,272,511,527,219,509,572,163,0,,,,
1,1787151516656,-6465,10983,7767,-3011565,918741,-2361605,0,0,0,332,242,228,241,179,252,382,220,286,285,252,315,0,,,,
2,1787151516656,416,880,10117,310319,68416,-13439,0,0,0,322,269,251,273,166,261,478,515,208,461,560,172,0,,,,
1,1787151516672,-3881,10811,7762,-3861890,-399505,-2073276,0,0,0,333,242,229,243,176,254,384,215,285,289,247,312,0,,,,
2,1787151516672,464,847,9944,422718,130725,-48869,0,0,0,321,296,264,272,182,262,460,492,218,446,551,180,0,,,,
1,1787151516688,-660,9150,9394,-5110498,-557109,-1881464,0,0,0,332,240,227,246,180,254,387,219,287,290,252,314,0,,,,
2,1787151516688,603,938,9830,497244,113620,-78190,0,0,0,323,276,267,278,176,268,456,464,230,460,510,175,0,,,,
1,1787151516704,-871,5661,9600,-5949827,-52534,-1380555,0,0,0,330,245,226,244,183,254,385,223,286,290,257,314,0,,,,
2,1787151516704,727,961,9791,577878,64751,-94073,0,0,0,322,256,266,278,170,273,443,435,232,423,488,176,0,,,,
1,1787151516720,-1713,2488,9327,-6144082,-139277,-494800,0,0,0,330,246,226,244,185,254,387,225,284,291,259,313,0,,,,
2,1787151516720,770,780,9777,647517,9773,-97738,0,0,0,313,267,255,274,184,271,426,410,236,370,469,181,0,,,,
1,1787151516736,-746,1847,10643,-5948605,-588874,98960,0,0,0,331,247,227,243,185,252,389,226,286,291,259,310,0,,,,
2,1787151516736,775,593,9691,691499,-45204,-103847,0,0,0,305,272,243,276,194,264,416,384,240,350,417,181,0,,,,
1,1787151516752,-224,1986,12696,-5954714,-703716,124616,0,0,0,331,248,227,244,186,252,393,225,289,293,259,306,0,,,,
2,1787151516752,760,373,9528,697608,-101403,-122173,0,0,0,307,273,250,284,198,270,416,353,240,329,378,184,0,,,,
1,1787151516768,-914,1737,14582,-6131865,-669508,-295658,0,0,0,331,251,224,247,188,252,397,223,289,295,259,302,0,,,,
2,1787151516768,689,114,9408,667064,-142942,-151494,0,0,0,318,295,238,296,216,279,426,334,249,329,363,192,0,,,,
1,1787151516784,-1871,756,16104,-6227160,-805120,-786794,0,0,0,330,254,222,248,189,252,396,220,291,297,259,299,0,,,,
2,1787151516784,641,-14,9562,626747,-155159,-174707,0,0,0,328,325,252,306,239,298,430,306,250,327,346,200,0,,,,
1,1787151516800,-2517,-71,17879,-6285803,-967610,-1143539,0,0,0,327,255,223,246,192,254,386,218,292,301,259,298,0,,,,
2,1787151516800,703,-47,9906,618195,-145385,-180816,0,0,0,322,321,269,316,247,333,430,275,255,324,314,211,0,,,,
1,1787151516816,-3259,-698,20019,-6388428,-1062905,-1252273,0,0,0,326,254,224,244,192,253,371,218,292,296,256,291,0,,,,
2,1787151516816,885,-28,10059,658512,-128281,-210137,0,0,0,331,363,261,327,279,325,434,243,243,322,310,214,0,,,,
1,1787151516832,-3843,-2345,23235,-6443406,-1330464,-943175,0,0,0,326,256,224,248,193,261,402,216,294,293,255,287,0,,,,
2,1787151516832,1201,-33,10083,722042,-100181,-290771,0,0,0,351,356,259,349,284,354,415,220,266,297,299,248,0,,,,
1,1787151516848,-2488,-5862,26542,-6460510,-1682322,-503352,0,0,0,326,265,225,252,201,267,401,215,298,291,250,285,0,,,,
2,1787151516848,1421,-277,10208,795346,-101403,-420275,0,0,0,376,392,251,360,310,360,405,196,274,296,265,267,0,,,,
1,1787151516864,1115,-12993,28509,-6480058,-1899790,-310319,0,0,0,333,262,228,255,192,266,409,204,299,298,236,287,0,,,,
2,1787151516864,1454,-593,10409,884532,-151494,-535117,0,0,0,380,414,273,369,360,403,390,176,282,289,255,284,0,,,,
1,1787151516880,4737,-23311,27145,-6048787,-1765400,-383623,0,0,0,336,262,231,262,192,270,415,205,298,288,239,291,0,,,,
2,1787151516880,1153,-804,10820,1043357,-249233,-635299,0,0,0,398,419,258,385,360,407,385,160,280,283,240,292,0,,,,
1,1787151516896,6025,-32701,24015,-5076290,-1103222,-260228,0,0,0,337,265,236,258,193,275,410,205,301,287,241,302,0,,,,
2,1787151516896,526,-674,11725,1324355,-241902,-663399,0,0,0,420,421,238,395,370,408,349,148,280,271,224,325,0,,,,
1,1787151516912,3823,-39368,17621,-3734830,-215024,-45204,0,0,0,334,266,233,256,197,275,410,211,304,287,246,307,0,,,,
2,1787151516912,335,-531,13218,1771509,-134390,-642630,0,0,0,430,426,226,378,371,404,340,162,309,263,225,354,0,,,,
1,1787151516928,3019,-44441,11462,-2212553,-53756,-62308,0,0,0,337,256,235,258,190,275,417,212,301,293,245,307,0,,,,
2,1787151516928,890,-598,14754,2389704,-53756,-623082,0,0,0,448,435,221,405,385,418,312,161,292,256,228,362,0,,,,
1,1787151516944,3464,-46226,8437,-518013,-194255,-507018,0,0,0,318,226,206,249,166,263,447,303,286,323,324,286,0,,,,
2,1787151516944,1129,-593,15730,3161838,-141720,-662177,0,0,0,451,440,221,392,390,408,272,160,291,244,224,353,0,,,,
1,1787151516960,693,-42411,9920,1200961,-208915,-1056796,0,0,0,299,218,185,240,161,260,477,414,281,365,423,252,0,,,,
2,1787151516960,1330,-583,16415,3954741,-266337,-720820,0,0,0,448,461,221,372,386,396,223,151,281,223,212,349,0,,,,
1,1787151516976,23,-22282,15147,3038443,410501,-1055575,0,0,0,289,226,175,243,168,263,502,488,274,413,482,230,0,,,,
2,1787151516976,2502,-804,17276,4966334,-296880,-871093,0,0,0,444,459,213,368,385,385,184,142,263,207,200,336,0,,,,
1,1787151516992,1292,2794,16233,4098905,1720196,-816115,0,0,0,287,225,177,252,167,266,533,533,277,463,513,226,0,,,,
2,1787151516992,4173,-1005,19779,6129421,-193033,-1204626,0,0,0,413,426,204,360,400,363,166,137,252,197,187,295,0,,,,
1,1787151517008,3086,7183,19425,4315152,2138028,-261450,0,0,0,297,221,233,260,160,283,566,566,300,513,543,233,0,,,,
2,1787151517008,6762,-1943,24221,7389025,-74525,-1663996,0,0,0,363,378,198,337,376,329,159,128,231,184,174,239,0,,,,
1,1787151517024,2593,-1976,24962,3916867,1551597,403171,0,0,0,320,239,325,269,166,303,586,579,308,562,570,256,0,,,,
2,1787151517024,10050,-3359,30155,8460483,422718,-2318844,0,0,0,327,301,182,288,274,270,172,133,204,176,180,188,0,,,,
1,1787151517040,-775,-7317,24292,2582738,1119105,529009,0,0,0,335,272,383,282,192,314,599,570,314,589,592,296,0,,,,
2,1787151517040,10897,-3517,36711,9166643,1478293,-3148399,0,0,0,279,258,172,226,198,209,213,156,187,160,198,142,0,,,,
1,1787151517056,-425,-2737,16678,1395216,1078788,100181,0,0,0,339,300,404,293,226,322,609,561,313,593,600,331,0,,,,
2,1787151517056,7973,2852,41689,9088453,2048842,-3988950,0,0,0,274,217,189,194,141,196,247,162,202,163,198,141,0,,,,
1,1787151517072,1249,957,11160,833220,630412,-114842,0,0,0,344,323,443,305,242,336,606,555,316,598,591,355,0,,,,
2,1787151517072,6810,20239,29882,6692639,-239459,-3626096,0,0,0,282,220,192,196,145,198,254,168,205,168,204,147,0,,,,
1,1787151517088,1143,933,10562,724486,-92851,-54977,0,0,0,348,321,428,309,257,350,614,553,346,585,573,361,0,,,,
2,1787151517088,9399,28365,18037,3021339,-2509434,-1750739,0,0,0,281,218,189,200,147,205,244,167,200,169,209,147,0,,,,
1,1787151517104,90,459,11079,702495,-406836,-26878,0,0,0,365,336,444,317,265,343,621,540,357,589,557,359,0,,,,
2,1787151517104,11294,24326,11261,-378736,-2904053,1116661,0,0,0,295,228,203,203,142,206,243,165,206,169,205,140,0,,,,
1,1787151517120,-363,665,10978,731816,-496022,-42760,0,0,0,365,342,431,336,266,362,613,483,334,554,524,385,0,,,,
2,1787151517120,10969,18052,7705,-1266934,-2002416,2842966,0,0,0,288,226,196,203,145,207,237,165,203,169,208,141,0,,,,
1,1787151517136,-268,1005,10562,830776,-489913,-48869,0,0,0,367,340,431,335,270,356,602,448,341,539,501,379,0,,,,
2,1787151517136,8959,16640,5608,-1705535,-725707,3330437,0,0,0,290,231,202,206,149,212,237,168,207,174,215,149,0,,,,
1,1787151517152,-315,875,10394,912632,-514348,-28099,0,0,0,370,340,437,330,271,359,604,432,338,518,471,387,0,,,,
2,1787151517152,5431,15673,6202,-3031113,-65973,3197268,0,0,0,293,230,204,210,150,214,241,169,208,174,216,145,0,,,,
1,1787151517168,-512,670,10323,951728,-503352,-2443,0,0,0,380,344,408,357,272,360,592,401,352,511,443,395,0,,,,
2,1787151517168,3531,12055,7461,-4465424,-201585,2607172,0,0,0,294,228,206,209,149,212,239,169,204,171,214,144,0,,,,
1,1787151517184,-626,555,10174,959058,-438601,29321,0,0,0,373,350,384,361,284,374,585,369,349,471,409,404,0,,,,
2,1787151517184,2340,7413,8892,-5777563,-250454,1430646,0,0,0,294,229,204,232,164,216,240,172,207,171,216,149,0,,,,
1,1787151517200,-564,478,9954,966388,-361632,67195,0,0,0,370,352,365,370,290,380,581,332,341,447,379,418,0,,,,
2,1787151517200,842,4742,10528,-6421415,-72082,147829,0,0,0,294,231,205,225,161,214,242,173,204,174,219,148,0,,,,
1,1787151517216,-540,239,9834,965167,-331088,98960,0,0,0,374,375,352,373,300,377,572,308,339,435,362,429,0,,,,
2,1787151517216,-593,3651,12232,-6675535,1221,-647517,0,0,0,293,233,203,211,153,211,243,174,201,171,217,144,0,,,,
1,1787151517232,-631,-129,9691,917519,-334754,139277,0,0,0,384,386,341,374,309,373,572,293,346,423,340,445,0,,,,
2,1787151517232,-574,3062,13749,-6720739,119729,-818559,0,0,0,292,233,202,206,150,208,242,174,200,168,217,143,0,,,,
1,1787151517248,-665,-373,9566,807563,-344527,180816,0,0,0,399,372,336,378,312,376,578,269,349,419,312,459,0,,,,
2,1787151517248,210,2555,15486,-6702413,422718,-438601,0,0,0,290,235,203,205,151,206,240,171,197,170,220,143,0,,,,
1,1787151517264,-770,-478,9648,728151,-313984,205250,0,0,0,413,366,335,384,324,381,578,244,344,422,297,467,0,,,,
2,1787151517264,631,1923,17755,-6801373,725707,289550,0,0,0,287,235,202,209,157,213,240,170,201,170,220,141,0,,,,
1,1787151517280,-947,-550,9758,698829,-207694,217468,0,0,0,425,382,329,394,341,384,574,234,349,414,289,486,0,,,,
2,1787151517280,1177,1363,19765,-6895446,894306,1070235,0,0,0,287,235,205,211,160,218,241,168,209,170,220,144,0,,,,
1,1787151517296,-1000,-607,9767,669508,-86742,251676,0,0,0,447,397,330,396,334,389,570,213,352,399,267,500,0,,,,
2,1787151517296,1579,732,22139,-6844134,1075122,1701870,0,0,0,291,234,203,212,159,214,237,165,204,168,221,144,0,,,,
1,1787151517312,-1033,-612,9983,662177,-20769,306654,0,0,0,456,407,317,413,349,392,576,202,356,393,259,511,0,,,,
2,1787151517312,1521,-291,25570,-6752504,1209513,2188119,0,0,0,286,234,200,210,156,214,239,164,204,167,218,144,0,,,,
1,1787151517328,-918,-751,10466,729373,31764,365297,0,0,0,475,408,298,431,365,387,575,185,363,391,238,523,0,,,,
2,1787151517328,1086,-2335,29868,-6773273,1194852,2344500,0,0,0,286,235,206,216,154,218,249,164,210,174,217,150,0,,,,
1,1787151517344,-765,-880,10911,899193,70860,381179,0,0,0,482,416,291,438,392,416,567,186,368,377,224,545,0,,,,
2,1787151517344,421,-6805,33424,-7053050,966388,2041511,0,0,0,287,233,202,218,162,216,246,157,199,175,217,144,0,,,,
1,1787151517360,-799,-909,11361,1111774,72082,392175,0,0,0,501,425,270,442,401,405,576,187,374,356,221,551,0,,,,
2,1787151517360,607,-14367,34462,-7244861,527787,1474628,0,0,0,302,240,196,227,162,206,256,169,184,176,226,137,0,,,,
1,1787151517376,-890,-985,11945,1439198,54977,420275,0,0,0,538,437,242,444,408,417,542,178,361,340,191,578,0,,,,
2,1787151517376,2919,-26542,30576,-6759834,47647,460592,0,0,0,305,237,198,225,162,208,233,160,177,169,217,135,0,,,,
1,1787151517392,-732,-1206,12601,1787391,20769,452040,0,0,0,542,445,218,448,418,432,522,167,367,331,181,585,0,,,,
2,1787151517392,4455,-40531,22354,-5413487,111177,-725707,0,0,0,297,240,202,232,170,222,255,170,193,178,224,142,0,,,,
1,1787151517408,-90,-1292,13783,2218662,-53756,445931,0,0,0,544,456,216,439,410,438,491,166,367,331,182,583,0,,,,
2,1787151517408,-196,-51734,14285,-3397632,860098,-1242499,0,0,0,298,236,200,230,168,223,262,172,194,177,223,139,0,,,,
1,1787151517424,57,-1201,15190,2781880,-151494,357967,0,0,0,542,457,217,427,402,424,458,172,371,314,178,575,0,,,,
2,1787151517424,-7245,-56922,10284,-891863,746477,-447153,0,0,0,298,240,206,225,163,219,259,170,193,176,225,139,0,,,,
1,1787151517440,-837,-1320,16238,3467271,-206472,300545,0,0,0,536,458,220,427,404,423,408,167,385,297,172,558,0,,,,
2,1787151517440,-5915,-52897,9777,1282817,0,597426,0,0,0,294,233,204,221,158,213,258,182,190,179,235,138,0,,,,
1,1787151517456,-1966,-1306,16606,4293160,-206472,381179,0,0,0,519,464,224,425,409,422,340,163,377,277,162,525,0,,,,
2,1787151517456,258,-40449,12256,2852740,-205250,1023810,0,0,0,283,209,178,212,151,190,266,320,160,203,341,117,0,,,,
1,1787151517472,-2723,-1383,17219,5094616,-112399,564439,0,0,0,495,454,231,424,407,425,297,167,375,255,153,484,0,,,,
2,1787151517472,2043,-7638,19837,3976732,-3665,1017701,0,0,0,269,193,149,220,144,178,292,423,143,248,449,103,0,,,,
1,1787151517488,-3843,-1938,19363,6013357,84299,827111,0,0,0,462,427,231,417,397,418,284,174,381,241,154,443,0,,,,
2,1787151517488,177,28001,18899,4245513,-682947,1341460,0,0,0,269,196,145,230,140,173,335,480,147,301,534,96,0,,,,
1,1787151517504,-5369,-2498,24048,6911329,262672,1117883,0,0,0,423,392,213,387,374,385,287,182,367,226,155,404,0,,,,
2,1787151517504,-4168,21861,13242,4592484,-1351233,1197295,0,0,0,287,209,181,237,140,184,384,530,155,373,603,91,0,,,,
1,1787151517520,-7930,-2952,29896,7757988,240680,1506393,0,0,0,380,346,199,338,318,344,307,187,348,213,158,364,0,,,,
2,1787151517520,-4627,-7556,21397,5156924,-334754,53756,0,0,0,306,219,220,244,139,203,424,560,166,455,634,102,0,,,,
1,1787151517536,-9475,-1852,34433,8373740,-152716,2010968,0,0,0,326,284,210,270,238,286,345,189,318,246,202,329,0,,,,
2,1787151517536,631,-12447,27609,4261395,201585,-784350,0,0,0,318,234,236,255,150,219,447,568,174,512,632,114,0,,,,
1,1787151517552,-8662,3579,36132,8608312,-693942,2604729,0,0,0,304,246,221,243,187,265,367,216,299,261,253,306,0,,,,
2,1787151517552,4087,-2230,22153,2467895,-290771,-680503,0,0,0,332,257,262,276,175,244,472,562,176,534,625,117,0,,,,
1,1787151517568,-7164,15941,26245,7404908,131946,3011565,0,0,0,320,243,221,249,189,267,372,216,298,276,251,311,0,,,,
2,1787151517568,1253,746,12916,1237612,-212581,-207694,0,0,0,344,263,290,294,181,264,507,548,198,538,621,143,0,,,,
1,1787151517584,-7475,23225,18037,3759264,1403768,2533869,0,0,0,324,238,222,242,183,260,375,216,293,276,254,315,0,,,,
2,1787151517584,-134,-28,8729,811229,483805,8552,0,0,0,340,273,271,297,195,274,493,546,214,542,600,159,0,,,,
1,1787151517600,-7221,20722,16635,-838107,1883908,966388,0,0,0,329,234,224,235,178,254,378,217,289,277,257,319,0,,,,
2,1787151517600,1679,-507,9595,739146,574213,-14660,0,0,0,340,292,278,289,190,273,502,529,202,539,576,155,0,,,,
1,1787151517616,-6958,14156,13352,-2939483,2078163,-572991,0,0,0,332,230,227,233,170,250,375,216,285,278,254,318,0,,,,
2,1787151517616,2397,71,10256,563217,185703,-34208,0,0,0,351,304,271,296,189,280,494,515,205,535,559,168,0,,,,
1,1787151517632,-7518,11418,9059,-3198490,1589471,-1181413,0,0,0,333,228,231,231,165,252,375,223,291,274,255,318,0,,,,
2,1787151517632,1813,650,10437,474031,-190589,-47647,0,0,0,345,312,264,294,193,272,488,508,203,528,526,177,0,,,,
1,1787151517648,-6154,11270,7087,-3430619,434936,-1282817,0,0,0,331,224,234,223,159,248,379,217,290,274,249,321,0,,,,
2,1787151517648,1229,540,10279,570548,-196698,-73303,0,0,0,345,312,264,293,191,269,472,453,202,460,494,181,0,,,,
1,1787151517664,-3843,10098,7887,-4334699,-153938,-1431868,0,0,0,328,225,238,222,158,253,382,216,292,278,250,329,0,,,,
2,1787151517664,1028,449,10098,656069,-119729,-97738,0,0,0,329,303,275,294,197,285,445,397,208,434,493,185,0,,,,
1,1787151517680,-3316,7877,9026,-5297423,-328645,-1450194,0,0,0,328,225,237,222,155,252,384,218,292,278,253,330,0,,,,
2,1787151517680,957,507,10011,718377,-18325,-112399,0,0,0,328,310,261,289,198,283,428,372,212,400,459,201,0,,,,
1,1787151517696,-3172,5221,10016,-6087882,-577878,-1121548,0,0,0,330,226,237,221,150,247,387,215,292,279,254,331,0,,,,
2,1787151517696,890,516,10021,780685,79412,-116064,0,0,0,329,317,263,287,213,295,417,373,227,361,416,235,0,,,,
1,1787151517712,-1976,3101,11040,-6412863,-698829,-718377,0,0,0,330,226,238,221,150,247,388,211,291,307,247,327,0,,,,
2,1787151517712,1019,301,9954,839328,169820,-116064,0,0,0,323,313,269,281,206,295,416,333,226,334,358,215,0,,,,
1,1787151517728,-1694,1986,12385,-6453180,-711047,-577878,0,0,0,330,230,237,221,157,246,387,213,289,318,243,322,0,,,,
2,1787151517728,1325,-110,9662,842994,190589,-128281,0,0,0,318,313,253,296,213,301,405,289,226,332,336,215,0,,,,
1,1787151517744,-2167,1646,14280,-6399424,-894306,-790459,0,0,0,332,239,239,220,165,245,387,214,289,277,256,326,0,,,,
2,1787151517744,1464,-368,9294,751364,100181,-155159,0,0,0,317,314,247,303,221,304,398,282,230,319,338,207,0,,,,
1,1787151517760,-2392,1196,16286,-6399424,-1193630,-1303586,0,0,0,331,238,237,224,165,248,390,211,290,278,256,318,0,,,,
2,1787151517760,1435,-492,9078,627969,-1221,-177150,0,0,0,322,324,245,307,237,303,398,278,231,310,337,204,0,,,,
1,1787151517776,-2646,397,18095,-6394537,-1389107,-1788613,0,0,0,329,241,234,226,169,247,393,209,294,283,260,314,0,,,,
2,1787151517776,1387,-574,9140,509461,-70860,-191811,0,0,0,319,327,242,311,255,329,394,272,231,298,329,220,0,,,,
1,1787151517792,-3512,-660,20411,-6404311,-1534493,-1977981,0,0,0,328,242,233,233,173,251,400,200,294,285,248,309,0,,,,
2,1787151517792,1493,-626,9327,442266,-108734,-221133,0,0,0,329,331,263,314,264,349,397,255,245,296,314,258,0,,,,
1,1787151517808,-4359,-2287,23115,-6511823,-1810604,-1613905,0,0,0,326,240,232,234,174,254,404,192,294,289,236,304,0,,,,
2,1787151517808,1665,-660,9490,426383,-130725,-290771,0,0,0,347,340,264,335,278,345,409,218,250,308,296,269,0,,,,
1,1787151517824,-3517,-5431,26408,-6764721,-2190562,-624304,0,0,0,326,248,232,234,178,252,412,200,297,293,232,300,0,,,,
2,1787151517824,1828,-713,9705,458148,-142942,-397062,0,0,0,360,348,243,356,288,352,404,192,246,315,283,261,0,,,,
1,1787151517840,-985,-10385,28968,-6945537,-2173458,271224,0,0,0,325,251,235,231,177,255,416,195,300,282,236,300,0,,,,
2,1787151517840,1928,-770,10145,552222,-174707,-520457,0,0,0,379,354,253,349,290,367,394,185,262,314,274,285,0,,,,
1,1787151517856,1081,-18329,28777,-6690196,-1832595,494800,0,0,0,325,253,238,239,179,264,416,193,301,281,232,299,0,,,,
2,1787151517856,1526,-727,10720,735481,-235793,-609643,0,0,0,401,367,246,357,312,357,401,170,282,317,267,300,0,,,,
1,1787151517872,2517,-26695,26408,-5971818,-1514945,410501,0,0,0,326,251,235,245,180,267,418,193,301,285,231,299,0,,,,
2,1787151517872,923,-650,11150,1016479,-246789,-596204,0,0,0,426,383,241,376,326,377,378,172,302,316,269,310,0,,,,
1,1787151517888,4331,-33534,21292,-4577824,-1088561,216246,0,0,0,326,250,232,247,179,268,420,196,302,283,231,296,0,,,,
2,1787151517888,636,-727,11878,1378111,-131946,-530231,0,0,0,440,400,228,375,379,398,351,187,339,306,282,327,0,,,,
1,1787151517904,7102,-38784,15228,-2776993,-825889,-184481,0,0,0,331,251,234,251,175,271,423,198,304,285,229,299,0,,,,
2,1787151517904,1005,-818,13227,1863138,32986,-466701,0,0,0,442,428,215,369,406,416,319,159,336,281,258,353,0,,,,
1,1787151517920,7642,-42560,11270,-1246165,-378736,-827111,0,0,0,333,248,235,254,174,273,425,203,306,286,231,302,0,,,,
2,1787151517920,1655,-971,14381,2459343,128281,-460592,0,0,0,437,462,209,372,393,412,284,150,329,262,240,370,0,,,,
1,1787151517936,1732,-44364,8466,34208,357967,-1292590,0,0,0,310,233,209,249,169,267,450,292,298,313,312,277,0,,,,
2,1787151517936,2091,-1062,15482,3198490,118507,-513126,0,0,0,468,449,236,386,375,419,247,162,327,243,229,383,0,,,,
1,1787151517952,-2890,-37382,11098,1607797,0,-1037249,0,0,0,283,221,175,244,164,259,493,440,283,370,438,242,0,,,,
2,1787151517952,2713,-1196,16434,4028045,35430,-624304,0,0,0,477,460,224,376,398,409,205,148,293,219,222,359,0,,,,
1,1787151517968,1100,-16415,16850,3481931,836885,-895528,0,0,0,283,225,175,248,165,265,526,522,279,424,499,234,0,,,,
2,1787151517968,3704,-1296,17319,5028642,1221,-853989,0,0,0,441,457,228,359,379,404,176,136,312,204,207,345,0,,,,
1,1787151517984,5795,6341,17697,4451985,2899166,-1012814,0,0,0,289,224,184,260,163,277,558,561,282,480,533,225,0,,,,
2,1787151517984,5431,-1426,19143,6225938,116064,-1266934,0,0,0,388,433,220,353,407,422,176,138,312,195,191,302,0,,,,
1,1787151518000,5436,5637,21899,4423886,3307224,-426383,0,0,0,296,223,216,276,162,280,583,582,292,544,555,215,0,,,,
2,1787151518000,7465,-2163,24101,7369478,326202,-1753183,0,0,0,343,351,192,343,345,362,165,123,256,181,165,233,0,,,,
1,1787151518016,1675,-3455,25943,3819129,2627942,317649,0,0,0,300,235,304,277,178,299,602,598,314,573,573,239,0,,,,
2,1787151518016,10394,-3737,32361,8483696,755029,-2342057,0,0,0,301,276,170,276,253,270,173,131,211,164,169,185,0,,,,
1,1787151518032,143,-5163,21904,2646268,1949881,218689,0,0,0,335,266,356,292,199,312,608,595,324,593,593,289,0,,,,
2,1787151518032,11347,-2881,38602,8916189,1709200,-2945592,0,0,0,278,247,164,216,184,205,206,151,184,161,195,150,0,,,,
1,1787151518048,1560,-1947,15343,1512502,1295034,-133168,0,0,0,361,293,370,332,246,327,620,575,315,612,617,332,0,,,,
2,1787151518048,8959,5570,38683,8465370,2320066,-3623652,0,0,0,276,243,162,205,156,183,232,161,171,168,209,130,0,,,,
1,1787151518064,2301,349,11696,827111,596204,-207694,0,0,0,363,311,372,323,256,333,625,563,335,616,615,353,0,,,,
2,1787151518064,7427,19167,26977,6740287,1362229,-3824016,0,0,0,283,244,161,210,157,184,239,161,172,173,208,131,0,,,,
1,1787151518080,1378,583,11021,627969,-41538,-114842,0,0,0,368,324,387,323,261,336,633,539,353,601,580,353,0,,,,
2,1787151518080,6049,26049,19444,2784323,-888198,-2525316,0,0,0,288,244,159,228,172,183,241,162,169,173,209,132,0,,,,
1,1787151518096,301,550,10993,703716,-366519,-89186,0,0,0,370,333,396,327,263,349,623,516,345,591,552,368,0,,,,
2,1787151518096,5829,23790,14749,-989601,-2746450,-491135,0,0,0,291,247,159,241,180,177,237,164,163,171,212,128,0,,,,
1,1787151518112,-28,770,10839,803898,-465479,-96516,0,0,0,368,343,397,331,271,349,615,480,333,577,518,382,0,,,,
2,1787151518112,7829,18009,8987,-2329840,-3067765,867428,0,0,0,297,248,167,203,156,173,230,168,163,169,218,127,0,,,,
1,1787151518128,33,804,10619,897971,-461814,-76969,0,0,0,371,348,383,345,281,359,601,457,338,545,492,385,0,,,,
2,1787151518128,8135,16525,5278,-2524095,-1789835,1225395,0,0,0,291,245,169,204,155,174,232,168,167,170,222,128,0,,,,
1,1787151518144,-81,646,10471,970053,-459370,-50090,0,0,0,370,350,362,350,287,366,590,434,350,509,469,395,0,,,,
2,1787151518144,5685,15534,5393,-3376863,-697608,1466076,0,0,0,291,243,168,213,159,180,233,164,167,166,218,126,0,,,,
1,1787151518160,-268,536,10318,1010371,-419053,-23212,0,0,0,373,352,346,353,292,363,582,408,349,485,443,404,0,,,,
2,1787151518160,3541,12471,7121,-4591263,-559552,1626123,0,0,0,290,249,181,213,164,193,243,172,175,162,220,131,0,,,,
1,1787151518176,-191,449,10136,1012814,-340862,-4886,0,0,0,385,365,348,364,312,359,571,382,347,476,418,404,0,,,,
2,1787151518176,2924,9126,8537,-5497787,-470366,1450194,0,0,0,297,258,183,220,169,196,244,172,174,164,224,132,0,,,,
1,1787151518192,-134,287,10026,1012814,-304210,8552,0,0,0,390,373,341,365,333,362,566,348,364,463,387,415,0,,,,
2,1787151518192,2249,6144,10547,-6162408,-46425,821002,0,0,0,294,252,179,218,166,197,244,170,174,163,221,130,0,,,,
1,1787151518208,-311,9,9940,1006705,-298102,40317,0,0,0,395,367,317,363,327,367,569,313,371,437,351,435,0,,,,
2,1787151518208,684,4446,12869,-6494719,207694,320093,0,0,0,296,251,186,217,166,199,236,172,177,162,221,132,0,,,,
1,1787151518224,-492,-363,9758,948062,-237015,96516,0,0,0,414,378,314,366,331,373,555,291,358,416,334,459,0,,,,
2,1787151518224,62,3278,14903,-6680422,216246,120951,0,0,0,298,250,183,222,170,202,233,172,179,163,227,133,0,,,,
1,1787151518240,-531,-646,9538,850324,-108734,149051,0,0,0,429,383,305,384,343,370,530,304,353,414,334,463,0,,,,
2,1787151518240,832,2531,16798,-6844134,196698,245567,0,0,0,300,255,189,215,165,203,233,172,183,166,227,134,0,,,,
1,1787151518256,-507,-732,9461,755029,18325,186924,0,0,0,432,389,310,387,331,364,565,259,355,401,311,466,0,,,,
2,1787151518256,1952,1775,18573,-7086036,329867,533896,0,0,0,299,256,188,212,161,199,237,169,183,163,223,132,0,,,,
1,1787151518272,-473,-732,9652,681725,108734,233350,0,0,0,453,399,323,394,350,384,563,225,360,400,272,494,0,,,,
2,1787151518272,3292,741,20550,-7233866,544891,932180,0,0,0,290,253,186,219,170,201,238,168,182,165,222,132,0,,,,
1,1787151518288,-382,-751,10026,679282,178372,267558,0,0,0,452,414,309,413,364,385,565,201,348,389,260,501,0,,,,
2,1787151518288,4690,-430,22904,-7183775,877202,1263269,0,0,0,285,257,191,215,174,204,235,167,182,162,222,133,0,,,,
1,1787151518304,-406,-780,10471,766025,243124,288328,0,0,0,479,431,299,411,371,389,559,198,361,372,241,526,0,,,,
2,1787151518304,4996,-2388,26455,-7070154,1299921,1373225,0,0,0,292,260,191,214,171,202,236,166,183,163,219,134,0,,,,
1,1787151518320,-454,-861,10978,955393,262672,346971,0,0,0,506,437,271,425,391,395,553,190,362,364,229,541,0,,,,
2,1787151518320,4551,-5498,30653,-7155675,1488067,1393994,0,0,0,292,256,185,217,170,202,240,162,183,165,214,133,0,,,,
1,1787151518336,-177,-1033,11280,1172861,240680,403171,0,0,0,515,443,253,442,395,400,549,176,365,356,209,553,0,,,,
2,1787151518336,4666,-12055,33309,-7448890,1292590,1319468,0,0,0,288,254,186,218,171,204,242,158,182,161,212,133,0,,,,
1,1787151518352,186,-1258,11476,1412320,183259,416610,0,0,0,527,452,241,448,402,404,515,209,388,348,195,576,0,,,,
2,1787151518352,4618,-22445,32912,-7374365,1123992,992045,0,0,0,291,253,187,222,171,204,245,158,182,162,214,136,0,,,,
1,1787151518368,387,-1421,11911,1635897,85521,393397,0,0,0,533,459,230,451,409,416,503,191,396,334,185,575,0,,,,
2,1787151518368,1454,-33907,29289,-6455623,1284038,467922,0,0,0,287,249,181,225,170,204,248,158,182,170,219,137,0,,,,
1,1787151518384,540,-1474,13204,1968207,-61086,345749,0,0,0,532,460,217,446,420,425,496,165,389,326,177,572,0,,,,
2,1787151518384,-4230,-44613,22579,-4557054,1150870,202807,0,0,0,291,247,182,228,166,202,249,153,177,177,219,143,0,,,,
1,1787151518400,531,-1378,14601,2465452,-138055,289550,0,0,0,531,456,212,442,417,428,464,157,382,315,172,572,0,,,,
2,1787151518400,-5565,-54563,14175,-2345722,430049,246789,0,0,0,289,241,172,227,162,201,265,162,180,185,227,142,0,,,,
1,1787151518416,143,-1373,15458,3132516,-107512,241902,0,0,0,532,447,212,444,417,432,416,158,367,294,166,562,0,,,,
2,1787151518416,-2608,-58209,8738,-415388,18325,355523,0,0,0,292,227,167,236,148,194,296,208,178,198,258,122,0,,,,
1,1787151518432,-325,-1450,16094,3833790,-45204,255341,0,0,0,528,441,213,441,427,438,374,162,353,276,158,543,0,,,,
2,1787151518432,-3445,-44804,14022,1802052,306654,684169,0,0,0,271,183,151,224,135,189,297,351,168,217,385,107,0,,,,
1,1787151518448,-1014,-1574,17262,4656014,3665,355523,0,0,0,509,443,219,431,423,441,329,165,359,263,158,513,0,,,,
2,1787151518448,-5053,-11749,20789,3789807,-172263,1279151,0,0,0,276,187,150,241,148,190,325,457,159,256,490,109,0,,,,
1,1787151518464,-2187,-1981,19444,5597969,0,536339,0,0,0,473,437,214,417,420,427,282,175,368,249,166,471,0,,,,
2,1787151518464,-4398,16903,17994,4844161,-1359786,1326799,0,0,0,279,196,150,242,157,204,341,507,162,271,565,109,0,,,,
1,1787151518480,-4005,-2148,23440,6636439,-152716,791681,0,0,0,411,416,217,391,387,389,281,178,378,245,167,432,0,,,,
2,1787151518480,-3876,6762,17506,5584530,-1317025,193033,0,0,0,309,201,168,259,143,203,409,525,165,423,615,99,0,,,,
1,1787151518496,-5786,-2526,29863,7751879,-399505,1165530,0,0,0,376,366,195,350,338,359,295,182,346,218,158,376,0,,,,
2,1787151518496,-952,-7609,23756,5446474,-637743,-615752,0,0,0,309,197,199,254,127,205,448,548,166,443,625,113,0,,,,
1,1787151518512,-7054,-1684,35797,8726820,-957836,1661553,0,0,0,328,294,200,273,242,277,343,186,314,234,187,319,0,,,,
2,1787151518512,2646,-6949,24412,3742160,-714712,-522900,0,0,0,313,230,246,260,156,241,464,547,187,450,629,136,0,,,,
1,1787151518528,-6546,3354,40114,9268047,-1802052,2284635,0,0,0,305,247,216,244,181,261,376,198,300,268,233,307,0,,,,
2,1787151518528,2359,-1842,17654,1918116,-913854,-146607,0,0,0,318,260,246,272,166,245,495,528,197,469,623,153,0,,,,
1,1787151518544,-6312,15439,30619,8409170,-1288925,2726902,0,0,0,331,245,226,249,176,263,378,198,295,281,222,304,0,,,,
2,1787151518544,-105,646,10088,916297,-555887,17104,0,0,0,327,267,251,273,168,255,499,516,199,479,615,158,0,,,,
1,1787151518560,-6441,22785,19674,5136154,34208,2377487,0,0,0,334,240,224,246,175,261,381,201,293,286,229,314,0,,,,
2,1787151518560,402,-153,9361,647517,-106290,-53756,0,0,0,333,278,257,285,180,261,500,511,199,488,609,159,0,,,,
1,1787151518576,-5738,21134,16463,-24434,1133765,753807,0,0,0,334,236,225,245,175,257,384,215,294,285,238,316,0,,,,
2,1787151518576,1249,-416,10394,438601,-92851,-75747,0,0,0,334,286,264,288,184,271,500,508,205,486,588,171,0,,,,
1,1787151518592,-5484,14295,14769,-3101973,1819156,-1142317,0,0,0,334,236,227,243,173,252,383,211,288,286,240,315,0,,,,
2,1787151518592,985,344,10859,284663,-211359,-50090,0,0,0,328,285,263,274,178,271,459,465,214,459,559,181,0,,,,
1,1787151518608,-6748,10538,10581,-3617543,1621236,-1933999,0,0,0,333,240,229,236,177,250,384,216,288,286,243,317,0,,,,
2,1787151518608,397,947,10524,381179,-59864,-47647,0,0,0,323,289,251,273,181,258,443,439,212,433,527,180,0,,,,
1,1787151518624,-5900,10107,7011,-3544240,145385,-1782504,0,0,0,334,244,230,235,179,251,386,223,291,285,245,317,0,,,,
2,1787151518624,363,995,10246,541226,130725,-56199,0,0,0,316,290,242,276,187,254,468,450,204,412,491,180,0,,,,
1,1787151518640,-1756,9289,7901,-4443433,-616973,-1616349,0,0,0,335,244,231,237,179,252,387,226,288,287,245,315,0,,,,
2,1787151518640,684,851,10069,659734,224798,-65973,0,0,0,311,291,236,275,192,252,456,417,202,394,460,180,0,,,,
1,1787151518656,-239,7312,8997,-5335296,-449596,-1497841,0,0,0,334,242,232,256,186,251,391,225,287,291,245,316,0,,,,
2,1787151518656,971,770,9992,715934,166155,-87964,0,0,0,321,300,235,288,203,259,443,382,207,403,437,186,0,,,,
1,1787151518672,-976,4986,9389,-5892406,-337197,-1128878,0,0,0,335,239,235,277,189,249,397,225,290,293,246,317,0,,,,
2,1787151518672,1038,612,9887,740368,59864,-118507,0,0,0,314,305,234,281,201,262,429,357,208,383,419,189,0,,,,
1,1787151518688,-191,3383,10088,-6046344,-764803,-568104,0,0,0,335,242,233,238,174,252,396,226,289,290,248,316,0,,,,
2,1787151518688,966,392,9681,723264,-24434,-149051,0,0,0,320,312,246,271,197,255,417,340,204,369,395,187,0,,,,
1,1787151518704,1392,2751,11725,-6064670,-984714,-246789,0,0,0,337,243,232,239,177,252,394,227,287,288,249,307,0,,,,
2,1787151518704,866,157,9475,663399,-78190,-174707,0,0,0,316,303,236,277,186,256,437,305,211,376,378,192,0,,,,
1,1787151518720,1608,2861,13716,-6186843,-822224,-366519,0,0,0,337,246,233,242,180,259,398,236,289,290,253,303,0,,,,
2,1787151518720,780,0,9341,585208,-118507,-191811,0,0,0,313,313,236,261,206,256,410,303,216,389,375,189,0,,,,
1,1787151518736,574,2234,15424,-6495940,-769690,-624304,0,0,0,335,248,232,244,182,259,399,237,292,291,254,300,0,,,,
2,1787151518736,727,-119,9274,503352,-142942,-205250,0,0,0,313,302,243,279,215,268,415,290,218,374,379,210,0,,,,
1,1787151518752,-90,961,16932,-6710965,-880867,-779464,0,0,0,330,245,230,246,180,259,407,215,297,296,247,299,0,,,,
2,1787151518752,674,-205,9313,434936,-169820,-218689,0,0,0,313,327,241,281,225,278,415,290,225,372,364,200,0,,,,
1,1787151518768,-440,-344,18578,-6695083,-1010371,-780685,0,0,0,327,251,230,246,183,260,406,215,297,294,248,293,0,,,,
2,1787151518768,794,-201,9480,410501,-219911,-233350,0,0,0,319,321,262,302,231,305,420,250,225,382,337,197,0,,,,
1,1787151518784,-1076,-2234,21507,-6596122,-1193630,-483805,0,0,0,325,256,232,247,189,265,401,243,300,289,269,293,0,,,,
2,1787151518784,914,-248,9729,439822,-296880,-268780,0,0,0,334,330,250,323,279,307,411,231,222,378,335,212,0,,,,
1,1787151518800,-1028,-5580,25302,-6651100,-1348790,-21991,0,0,0,327,258,229,251,189,267,406,222,301,294,249,289,0,,,,
2,1787151518800,961,-301,9997,504574,-357967,-326202,0,0,0,367,360,267,327,280,313,418,207,231,380,324,232,0,,,,
1,1787151518816,-248,-11184,28020,-6811147,-1291369,219911,0,0,0,327,254,231,254,183,270,408,204,301,296,236,291,0,,,,
2,1787151518816,957,-320,10222,598647,-359188,-395840,0,0,0,383,371,274,329,289,328,420,195,250,372,301,260,0,,,,
1,1787151518832,770,-20540,27662,-6569244,-1199739,26878,0,0,0,328,255,234,255,182,276,409,200,303,294,232,291,0,,,,
2,1787151518832,569,-363,10447,742812,-283441,-443488,0,0,0,404,389,277,345,319,346,411,189,268,340,278,279,0,,,,
1,1787151518848,1698,-31179,25029,-5733581,-1164309,-193033,0,0,0,328,261,235,256,184,278,409,200,303,292,236,292,0,,,,
2,1787151518848,90,-363,10763,930958,-147829,-432492,0,0,0,428,416,263,371,331,362,396,175,269,318,260,298,0,,,,
1,1787151518864,2775,-39262,20526,-4371351,-1073901,-142942,0,0,0,326,265,235,255,185,277,414,199,306,290,242,294,0,,,,
2,1787151518864,19,-406,11744,1178969,28099,-370184,0,0,0,457,441,246,390,333,374,373,158,271,318,249,315,0,,,,
1,1787151518880,5130,-42263,14357,-2607172,-647517,-131946,0,0,0,324,266,236,254,189,277,413,196,307,285,239,292,0,,,,
2,1787151518880,1067,-397,13807,1682322,174707,-350636,0,0,0,467,479,236,390,358,382,339,162,280,305,252,341,0,,,,
1,1787151518896,5384,-42675,9916,-1077566,-81855,-502131,0,0,0,326,264,239,257,191,277,407,196,301,283,239,288,0,,,,
2,1787151518896,2191,-641,15400,2384817,194255,-475253,0,0,0,451,512,220,391,386,386,303,168,280,288,261,365,0,,,,
1,1787151518912,2335,-42469,8102,241902,204028,-864985,0,0,0,319,253,229,256,179,271,426,249,295,298,282,279,0,,,,
2,1787151518912,1880,-732,16037,3216816,85521,-647517,0,0,0,463,510,226,392,393,393,266,153,283,275,245,357,0,,,,
1,1787151518928,-990,-37477,9222,1523497,-180816,-574213,0,0,0,295,231,194,252,168,263,477,398,284,341,395,256,0,,,,
2,1787151518928,1675,-603,16515,4135557,-50090,-773355,0,0,0,463,500,221,356,376,394,211,145,284,248,228,368,0,,,,
1,1787151518944,-105,-19219,15654,2806314,35430,-153938,0,0,0,295,229,172,257,168,267,503,490,297,392,464,227,0,,,,
2,1787151518944,2536,-684,17023,5138598,-152716,-922406,0,0,0,470,492,199,354,373,361,172,137,262,235,210,327,0,,,,
1,1787151518960,847,11562,16137,3411071,2549751,-430049,0,0,0,294,238,178,282,171,271,544,543,314,433,503,226,0,,,,
2,1787151518960,3924,-717,18698,6210056,-140499,-1238834,0,0,0,448,466,195,362,392,365,173,136,256,216,182,280,0,,,,
1,1787151518976,2053,17697,15663,3838677,3775147,-685390,0,0,0,301,229,206,290,165,286,560,559,298,534,545,214,0,,,,
2,1787151518976,5388,-1186,22670,7376808,-142942,-1656666,0,0,0,327,418,195,330,375,343,145,121,251,178,181,235,0,,,,
1,1787151518992,4479,-2617,22163,4310265,2559525,-323758,0,0,0,299,248,280,287,182,297,600,576,313,585,585,244,0,,,,
2,1787151518992,7523,-2727,28638,8250345,-101403,-2012190,0,0,0,290,316,176,280,304,301,149,117,224,169,169,203,0,,,,
1,1787151519008,2646,-8322,25163,3229033,1626123,175929,0,0,0,332,286,328,318,228,310,616,582,333,603,603,272,0,,,,
2,1787151519008,9322,-2431,34764,8813563,379958,-2453234,0,0,0,266,255,166,224,219,221,202,165,183,157,213,147,0,,,,
1,1787151519024,1617,-4120,20138,1748296,1358564,169820,0,0,0,351,307,376,325,251,340,627,584,347,612,608,308,0,,,,
2,1787151519024,8920,2287,38549,8713381,908967,-2919935,0,0,0,281,233,192,213,171,206,228,154,180,163,191,146,0,,,,
1,1787151519040,2440,679,12955,836885,926071,-73303,0,0,0,363,327,411,337,264,347,623,570,329,617,613,332,0,,,,
2,1787151519040,8274,13467,31514,7495316,334754,-3210707,0,0,0,287,230,192,219,164,205,238,148,181,178,195,151,0,,,,
1,1787151519056,2134,650,10806,718377,-7330,-130725,0,0,0,367,337,424,354,276,349,620,562,332,605,583,347,0,,,,
2,1787151519056,8207,22646,20880,4212526,-1324355,-2585181,0,0,0,289,230,192,210,161,197,233,152,182,177,198,152,0,,,,
1,1787151519072,957,-57,10629,736703,-616973,-127059,0,0,0,370,348,427,372,287,364,620,536,332,600,550,367,0,,,,
2,1787151519072,7676,23594,15702,238237,-2480112,-825889,0,0,0,287,228,188,211,161,199,231,154,178,171,197,150,0,,,,
1,1787151519088,-71,0,10854,703716,-697608,-122173,0,0,0,376,355,418,372,283,364,617,502,335,595,519,377,0,,,,
2,1787151519088,8403,18143,10921,-1621236,-2720793,1038470,0,0,0,285,229,190,208,158,198,222,153,171,166,200,147,0,,,,
1,1787151519104,-14,626,10705,734260,-553443,-108734,0,0,0,379,357,394,373,286,356,612,476,347,567,496,383,0,,,,
2,1787151519104,9672,15132,6240,-2125811,-2057394,2078163,0,0,0,287,232,192,209,160,198,226,156,176,166,204,144,0,,,,
1,1787151519120,28,765,10571,836885,-503352,-73303,0,0,0,381,360,362,386,294,356,602,445,357,530,472,389,0,,,,
2,1787151519120,8212,14840,5120,-2773328,-768468,2339613,0,0,0,292,232,191,212,162,201,233,157,181,169,206,144,0,,,,
1,1787151519136,-28,555,10433,938289,-493579,-20769,0,0,0,387,362,337,395,291,354,593,413,360,501,447,394,0,,,,
2,1787151519136,4666,12806,6838,-4201531,-299323,2360383,0,0,0,294,230,189,214,162,201,233,154,177,173,207,144,0,,,,
1,1787151519152,-23,402,10208,970053,-460592,24434,0,0,0,390,360,318,396,293,351,590,397,356,476,423,404,0,,,,
2,1787151519152,3417,9739,7915,-5270545,-318871,2113593,0,0,0,295,232,191,217,164,203,235,154,175,175,208,142,0,,,,
1,1787151519168,28,291,10031,993266,-456927,61086,0,0,0,380,358,301,389,309,361,586,366,355,466,375,415,0,,,,
2,1787151519168,2814,6843,9303,-5935166,-76969,1395216,0,0,0,297,234,194,219,166,208,237,155,179,170,206,137,0,,,,
1,1787151519184,-129,100,9968,1010371,-478918,87964,0,0,0,377,363,298,374,315,366,581,342,356,451,356,429,0,,,,
2,1787151519184,1325,4661,11395,-6372546,149051,629191,0,0,0,295,234,195,216,164,208,234,156,181,169,207,137,0,,,,
1,1787151519200,-569,-186,9815,963945,-410501,141720,0,0,0,380,372,286,379,309,379,564,318,359,438,346,443,0,,,,
2,1787151519200,416,3565,13342,-6572909,103847,205250,0,0,0,291,236,195,216,165,208,234,156,176,170,211,135,0,,,,
1,1787151519216,-650,-631,9480,852767,-234572,202807,0,0,0,396,359,268,393,322,374,574,294,349,445,360,458,0,,,,
2,1787151519216,1454,2986,15218,-6774495,130725,205250,0,0,0,290,229,194,218,166,210,235,155,178,170,212,141,0,,,,
1,1787151519232,-344,-818,9188,709825,-20769,213802,0,0,0,412,377,276,388,326,389,570,267,349,423,328,463,0,,,,
2,1787151519232,2718,2153,16932,-7020063,379958,403171,0,0,0,290,233,201,218,167,211,237,155,178,168,209,137,0,,,,
1,1787151519248,-315,-670,9313,593761,113620,200363,0,0,0,411,388,275,403,361,377,565,262,351,412,325,480,0,,,,
2,1787151519248,3742,789,18607,-7167892,665843,673173,0,0,0,291,239,209,220,169,213,240,157,180,167,207,134,0,,,,
1,1787151519264,-411,-636,9700,542448,191811,215024,0,0,0,435,415,289,419,379,384,560,249,361,401,309,502,0,,,,
2,1787151519264,4560,-1100,20502,-7037167,993266,818559,0,0,0,291,238,196,222,168,211,238,159,179,164,204,135,0,,,,
1,1787151519280,-526,-775,10122,563217,228463,261450,0,0,0,457,424,299,424,369,397,559,224,357,390,287,522,0,,,,
2,1787151519280,4493,-3364,23268,-6834360,1404990,763581,0,0,0,288,238,200,216,166,211,239,153,183,163,197,136,0,,,,
1,1787151519296,-823,-976,10346,635299,193033,357967,0,0,0,479,456,302,426,369,407,567,204,359,373,253,543,0,,,,
2,1787151519296,3407,-6264,26843,-6797708,1690874,631634,0,0,0,287,241,199,218,167,212,236,150,182,159,195,133,0,,,,
1,1787151519312,-890,-1052,10394,742812,67195,499687,0,0,0,488,459,290,438,383,416,560,183,362,353,223,552,0,,,,
2,1787151519312,2292,-11797,30442,-7004180,1665218,660956,0,0,0,282,248,196,218,174,209,239,154,183,163,199,136,0,,,,
1,1787151519328,129,-995,10739,895528,-83077,608421,0,0,0,488,451,265,445,395,417,560,171,357,340,205,560,0,,,,
2,1787151519328,1631,-19942,31461,-7059158,1502728,724486,0,0,0,281,249,193,221,177,208,241,152,183,187,195,136,0,,,,
1,1787151519344,1225,-1019,11610,1139874,-63529,471587,0,0,0,499,456,238,450,409,421,550,173,352,331,198,575,0,,,,
2,1787151519344,-1301,-31677,28317,-6235712,1539380,552222,0,0,0,290,253,193,241,186,211,259,153,185,205,200,133,0,,,,
1,1787151519360,1028,-1124,12816,1444085,-61086,302989,0,0,0,514,460,222,466,421,432,528,175,357,322,190,579,0,,,,
2,1787151519360,-7068,-42153,22924,-4533841,1436755,364075,0,0,0,293,250,195,241,181,212,268,154,188,205,204,138,0,,,,
1,1787151519376,105,-1282,14338,1951103,-138055,233350,0,0,0,527,459,219,467,427,436,507,179,361,316,178,575,0,,,,
2,1787151519376,-8490,-49858,16032,-2566855,531452,378736,0,0,0,281,232,184,227,181,211,258,199,184,195,255,140,0,,,,
1,1787151519392,-239,-1316,15539,2634050,-224798,265115,0,0,0,537,458,217,444,427,432,471,182,358,309,169,571,0,,,,
2,1787151519392,-3436,-54649,10442,-813672,-102625,116064,0,0,0,268,202,167,220,161,199,268,292,173,217,325,129,0,,,,
1,1787151519408,-57,-1182,16065,3337767,-226020,294437,0,0,0,527,450,208,430,419,439,419,164,370,302,170,552,0,,,,
2,1787151519408,-4446,-47269,14122,1354899,-244346,-130725,0,0,0,261,185,163,222,141,194,292,392,164,251,406,116,0,,,,
1,1787151519424,-464,-1162,16846,4120896,-239459,327423,0,0,0,508,440,219,424,417,437,349,163,394,281,165,515,0,,,,
2,1787151519424,-7537,-13898,20095,3904650,-1330464,459370,0,0,0,262,196,165,232,161,208,304,474,164,265,511,111,0,,,,
1,1787151519440,-1124,-1196,18817,5033529,-219911,408057,0,0,0,474,432,214,430,419,427,298,169,379,260,164,500,0,,,,
2,1787151519440,-4120,10141,18741,5115385,-2063502,867428,0,0,0,275,201,151,234,154,196,340,518,163,319,537,103,0,,,,
1,1787151519456,-3058,-1435,22732,6167295,-161268,572991,0,0,0,418,429,216,416,411,431,284,176,387,230,164,445,0,,,,
2,1787151519456,-3321,5379,19655,5834984,-1196074,343306,0,0,0,295,208,182,235,149,200,382,533,159,368,571,106,0,,,,
1,1787151519472,-5168,-1430,28317,7296174,-263893,924849,0,0,0,374,389,197,400,379,383,291,181,376,214,159,396,0,,,,
2,1787151519472,-3278,-7465,23512,5374392,497244,-414166,0,0,0,303,218,209,242,151,207,422,543,160,417,577,125,0,,,,
1,1787151519488,-5623,-1268,34534,8431162,-282219,1411098,0,0,0,340,325,194,323,286,316,325,184,324,223,180,340,0,,,,
2,1787151519488,1363,-5690,21354,3547905,891863,-679282,0,0,0,319,243,235,263,168,233,437,552,186,405,576,139,0,,,,
1,1787151519504,-6164,-746,38387,9296147,-428827,1933999,0,0,0,305,258,212,255,200,272,354,212,298,256,237,317,0,,,,
2,1787151519504,3924,-1823,15529,2040289,387288,-384845,0,0,0,325,256,252,264,176,252,447,554,178,418,581,147,0,,,,
1,1787151519520,-8432,9676,33060,9490402,-1036027,2905275,0,0,0,305,242,219,248,183,272,373,207,299,271,240,307,0,,,,
2,1787151519520,2512,-918,10662,1087340,47647,-13439,0,0,0,315,261,255,253,161,242,477,569,186,449,586,174,0,,,,
1,1787151519536,-7566,21780,21957,7247305,-829554,3541796,0,0,0,316,241,223,246,180,270,377,198,298,270,232,313,0,,,,
2,1787151519536,1512,-1081,9270,596204,-34208,43982,0,0,0,329,287,271,268,184,264,465,560,182,452,581,191,0,,,,
1,1787151519552,-4302,23962,16276,1577254,554665,2605951,0,0,0,331,240,231,240,178,266,376,209,293,265,239,319,0,,,,
2,1787151519552,1631,-938,9978,312763,-180816,-47647,0,0,0,332,307,272,276,191,264,476,546,190,454,573,168,0,,,,
1,1787151519568,-4029,15242,14161,-2494773,1931555,461814,0,0,0,338,239,233,241,178,266,378,212,291,267,245,320,0,,,,
2,1787151519568,1521,-129,10662,246789,-326202,-91629,0,0,0,328,300,251,288,195,262,477,511,182,453,560,174,0,,,,
1,1787151519584,-6494,9002,9246,-3189938,2212553,-1018923,0,0,0,338,239,234,244,179,267,379,209,290,273,249,321,0,,,,
2,1787151519584,914,363,10653,360410,-257785,-92851,0,0,0,334,304,248,293,194,257,478,475,192,448,554,185,0,,,,
1,1787151519600,-7236,9121,5302,-2532647,990823,-1517389,0,0,0,338,242,236,246,184,270,378,214,292,273,253,323,0,,,,
2,1787151519600,497,339,10260,513126,0,-79412,0,0,0,332,306,263,290,194,273,457,442,208,417,541,195,0,,,,
1,1787151519616,-3957,9662,5484,-3226590,18325,-1970651,0,0,0,332,246,236,246,189,274,379,219,296,271,255,323,0,,,,
2,1787151519616,689,315,10131,612086,245567,-65973,0,0,0,323,302,254,282,193,276,428,415,205,387,500,198,0,,,,
1,1787151519632,-2148,7796,6322,-4233296,58643,-2459343,0,0,0,325,246,234,245,186,274,382,217,297,272,257,320,0,,,,
2,1787151519632,1196,315,10126,691499,357967,-63529,0,0,0,314,296,244,274,190,266,407,374,197,378,454,198,0,,,,
1,1787151519648,-3163,5455,6470,-4671897,240680,-2465452,0,0,0,325,246,234,245,186,275,378,215,296,270,255,318,0,,,,
2,1787151519648,1593,124,9964,714712,254119,-87964,0,0,0,314,297,251,270,194,264,398,336,199,397,425,200,0,,,,
1,1787151519664,-2818,4383,7260,-4897917,-156381,-1984090,0,0,0,325,249,235,245,186,271,383,216,293,271,257,314,0,,,,
2,1787151519664,1636,-157,9667,685390,94073,-117286,0,0,0,317,304,243,270,201,262,395,326,204,398,397,199,0,,,,
1,1787151519680,-1555,3833,8638,-5208237,-339641,-1547932,0,0,0,324,251,235,244,188,272,386,221,298,272,259,311,0,,,,
2,1787151519680,1383,-507,9298,593761,-73303,-145385,0,0,0,312,302,241,272,205,265,381,310,208,355,374,199,0,,,,
1,1787151519696,-1052,3412,10246,-5580864,-224798,-1260825,0,0,0,323,259,232,243,190,268,386,219,293,272,259,310,0,,,,
2,1787151519696,1263,-588,9222,497244,-128281,-157603,0,0,0,309,305,245,274,209,270,376,290,209,356,365,202,0,,,,
1,1787151519712,-1722,2876,11931,-5966931,-257785,-1093448,0,0,0,322,249,234,244,182,269,389,216,294,272,255,310,0,,,,
2,1787151519712,1215,-579,9227,405614,-161268,-175929,0,0,0,315,307,242,283,216,268,376,275,206,361,345,197,0,,,,
1,1787151519728,-2234,1995,13515,-6357885,-447153,-946841,0,0,0,322,249,239,249,185,277,394,210,299,273,253,313,0,,,,
2,1787151519728,1072,-579,9284,321315,-182037,-197920,0,0,0,320,325,247,283,223,275,378,249,213,347,355,200,0,,,,
1,1787151519744,-2598,741,14836,-6609561,-670730,-808785,0,0,0,317,246,233,250,186,273,396,209,300,276,253,307,0,,,,
2,1787151519744,1014,-550,9375,298102,-185703,-194255,0,0,0,322,321,254,291,227,281,380,236,225,351,342,219,0,,,,
1,1787151519760,-3230,-502,16702,-6580240,-978606,-598647,0,0,0,314,251,230,249,187,272,399,210,300,276,256,303,0,,,,
2,1787151519760,1162,-574,9547,316428,-190589,-195476,0,0,0,346,408,272,308,259,287,387,220,213,342,333,218,0,,,,
1,1787151519776,-3670,-1608,19550,-6524040,-1415985,-254119,0,0,0,314,255,230,249,188,270,404,216,297,303,241,294,0,,,,
2,1787151519776,1316,-636,9739,359188,-199142,-232128,0,0,0,355,424,257,311,281,303,386,210,237,352,326,236,0,,,,
1,1787151519792,-3168,-4101,23981,-6670648,-1811826,262672,0,0,0,313,253,231,251,186,272,406,205,300,294,230,292,0,,,,
2,1787151519792,1373,-713,9873,410501,-196698,-282219,0,0,0,367,420,266,316,280,342,379,183,269,355,314,278,0,,,,
1,1787151519808,-2268,-8973,27441,-6827029,-1849699,557109,0,0,0,315,257,234,256,189,278,407,195,304,277,224,293,0,,,,
2,1787151519808,1311,-765,10074,494800,-163711,-346971,0,0,0,398,399,305,321,274,353,372,178,275,328,304,302,0,,,,
1,1787151519824,-851,-17822,28279,-6684087,-1842369,430049,0,0,0,320,264,235,260,197,282,412,193,306,278,218,290,0,,,,
2,1787151519824,1210,-799,10394,626747,-98960,-387288,0,0,0,401,395,285,336,312,380,381,169,296,339,279,309,0,,,,
1,1787151519840,2474,-27987,26647,-6023131,-2193006,67195,0,0,0,323,268,232,261,199,281,419,193,306,280,218,293,0,,,,
2,1787151519840,990,-818,10859,834441,-25656,-408057,0,0,0,406,421,269,351,355,405,381,159,288,327,263,342,0,,,,
1,1787151519856,7939,-36420,22608,-4637688,-1931555,-376292,0,0,0,322,266,232,263,195,284,424,197,305,282,224,303,0,,,,
2,1787151519856,1005,-751,11787,1142317,62308,-395840,0,0,0,430,430,253,383,367,399,356,155,282,313,263,360,0,,,,
1,1787151519872,9078,-43847,15113,-2701246,-519235,-863763,0,0,0,320,256,231,264,188,286,424,200,304,282,237,303,0,,,,
2,1787151519872,1464,-732,13433,1605353,134390,-405614,0,0,0,435,439,225,382,365,383,323,149,298,306,258,353,0,,,,
1,1787151519888,3469,-47169,8738,-944397,485026,-976162,0,0,0,313,246,215,256,180,280,436,260,304,299,298,287,0,,,,
2,1787151519888,1933,-899,14998,2249205,123394,-460592,0,0,0,448,449,218,368,377,394,293,146,316,294,242,368,0,,,,
1,1787151519904,-1206,-45532,7973,701273,500909,-978606,0,0,0,286,227,182,242,167,263,483,430,303,363,442,247,0,,,,
2,1787151519904,2694,-1225,16022,3062878,3665,-577878,0,0,0,470,443,211,378,386,399,256,145,310,277,232,376,0,,,,
1,1787151519920,-1119,-29360,14577,3023782,897971,-1044579,0,0,0,277,229,170,244,177,267,510,508,283,397,480,238,0,,,,
2,1787151519920,3646,-1378,16855,4023158,-130725,-825889,0,0,0,459,441,189,380,378,374,214,139,277,252,224,353,0,,,,
1,1787151519936,1780,-1072,18583,4905247,2875953,-895528,0,0,0,294,240,189,274,173,281,535,535,298,470,509,228,0,,,,
2,1787151519936,4532,-1450,18286,5122715,-199142,-1164309,0,0,0,423,435,189,361,366,365,185,132,267,225,199,331,0,,,,
1,1787151519952,4206,7901,22440,5539325,3590665,-293215,0,0,0,311,231,248,291,171,296,581,581,302,548,550,211,0,,,,
2,1787151519952,6125,-1292,21526,6517932,-94073,-1638340,0,0,0,360,402,196,336,351,367,172,128,265,204,177,277,0,,,,
1,1787151519968,4206,-2804,25628,4867374,2434908,410501,0,0,0,321,267,319,302,216,322,603,598,318,583,583,252,0,,,,
2,1787151519968,7604,-665,27963,7954687,145385,-2172236,0,0,0,296,332,180,295,317,338,164,127,242,168,171,224,0,,,,
1,1787151519984,1210,-7824,23862,2868623,1354899,427605,0,0,0,347,304,361,324,245,338,621,580,326,605,605,307,0,,,,
2,1787151519984,8695,703,35395,9037140,342084,-2601064,0,0,0,274,260,155,244,231,223,181,137,176,162,190,158,0,,,,
1,1787151520000,679,-4532,17592,1231504,1050688,32986,0,0,0,362,327,383,344,266,368,629,564,340,620,614,357,0,,,,
2,1787151520000,8992,3082,39683,9291260,686612,-2884505,0,0,0,288,222,169,204,142,182,239,147,166,176,215,139,0,,,,
1,1787151520016,2220,-167,11682,636521,593761,-210137,0,0,0,359,337,381,341,287,367,635,551,328,621,599,376,0,,,,
2,1787151520016,8159,12337,33768,8166046,934623,-3207042,0,0,0,285,219,181,203,135,185,240,148,170,176,205,144,0,,,,
1,1787151520032,2187,469,10265,708603,-199142,-185703,0,0,0,364,363,391,348,318,369,639,545,330,611,572,386,0,,,,
2,1787151520032,6058,23273,20349,5150815,-320093,-3017674,0,0,0,289,222,179,208,143,186,240,151,173,176,202,141,0,,,,
1,1787151520048,473,-110,10643,792903,-751364,-130725,0,0,0,363,364,386,352,324,374,637,534,336,597,542,395,0,,,,
2,1787151520048,5556,23129,13840,768468,-2416582,-1160643,0,0,0,289,229,174,204,141,181,239,154,169,174,205,140,0,,,,
1,1787151520064,-497,-95,10653,751364,-714712,-107512,0,0,0,356,356,373,352,322,380,635,506,342,573,507,410,0,,,,
2,1787151520064,7212,17209,8585,-1539380,-3186273,691499,0,0,0,289,227,176,208,145,183,235,152,166,172,203,140,0,,,,
1,1787151520080,-277,81,10351,724486,-487470,-72082,0,0,0,355,361,363,358,333,386,628,464,348,547,470,421,0,,,,
2,1787151520080,9466,13137,3340,-1737300,-2312735,1663996,0,0,0,292,225,181,204,142,184,231,149,163,170,200,135,0,,,,
1,1787151520096,4,19,10308,729373,-388510,-41538,0,0,0,363,364,347,375,339,383,610,424,346,528,448,424,0,,,,
2,1787151520096,7604,13232,2435,-2004859,-678060,1908343,0,0,0,291,226,180,203,144,182,234,151,167,171,203,136,0,,,,
1,1787151520112,38,-43,10442,759916,-392175,-23212,0,0,0,369,364,327,389,340,378,596,392,337,502,436,438,0,,,,
2,1787151520112,3852,12419,4206,-2998126,48869,2119702,0,0,0,292,225,180,203,144,180,236,153,168,172,205,137,0,,,,
1,1787151520128,-62,-47,10337,791681,-392175,-19547,0,0,0,378,379,311,377,349,374,596,370,343,476,399,452,0,,,,
2,1787151520128,1947,9997,6073,-4083023,-129503,2144136,0,0,0,290,224,182,204,146,183,235,151,168,170,206,135,0,,,,
1,1787151520144,-95,-86,10141,806342,-379958,-14660,0,0,0,381,369,315,381,339,374,582,355,353,459,369,459,0,,,,
2,1787151520144,1502,7260,7719,-4952895,-133168,1577254,0,0,0,288,226,182,205,151,186,234,152,168,170,208,135,0,,,,
1,1787151520160,-153,-287,9973,786794,-365297,0,0,0,0,381,381,285,373,338,386,566,326,350,437,358,466,0,,,,
2,1787151520160,306,5417,9480,-5540547,24434,789237,0,0,0,291,228,184,204,152,185,235,155,168,169,210,134,0,,,,
1,1787151520176,-397,-612,9801,728151,-320093,25656,0,0,0,381,388,282,369,356,388,554,312,343,437,347,473,0,,,,
2,1787151520176,-995,4398,11265,-5887519,85521,80634,0,0,0,292,228,185,205,153,188,236,154,171,164,210,129,0,,,,
1,1787151520192,-770,-914,9566,623082,-190589,72082,0,0,0,413,378,274,396,352,388,545,290,341,442,340,473,0,,,,
2,1787151520192,-1483,3823,13160,-6173404,134390,-375071,0,0,0,288,228,184,207,155,192,233,151,173,164,212,130,0,,,,
1,1787151520208,-918,-985,9384,504574,1221,136833,0,0,0,411,393,281,387,338,385,548,271,346,430,336,474,0,,,,
2,1787151520208,-1076,3374,14936,-6492275,221133,-430049,0,0,0,290,231,186,205,152,190,237,157,179,164,213,130,0,,,,
1,1787151520224,-737,-995,9451,426383,196698,208915,0,0,0,416,412,290,387,344,403,547,264,349,425,325,481,0,,,,
2,1787151520224,-134,2464,16544,-6811147,321315,-144164,0,0,0,287,228,187,207,152,193,235,156,177,168,214,135,0,,,,
1,1787151520240,-402,-1048,9595,401949,315206,271224,0,0,0,421,412,314,400,357,421,547,252,356,415,317,498,0,,,,
2,1787151520240,976,1569,18214,-6918659,524122,238237,0,0,0,290,230,191,206,154,196,231,153,180,167,217,137,0,,,,
1,1787151520256,-52,-1129,9734,412944,332310,309097,0,0,0,435,428,306,416,385,428,547,228,363,405,298,510,0,,,,
2,1787151520256,1689,631,20961,-6864903,910189,565661,0,0,0,287,233,185,208,155,193,231,151,175,163,209,129,0,,,,
1,1787151520272,-76,-1153,9916,448375,262672,322536,0,0,0,453,437,300,429,387,423,546,210,363,405,280,533,0,,,,
2,1787151520272,1153,-1383,25206,-6935763,1188743,588874,0,0,0,285,235,188,243,175,193,237,157,178,165,209,130,0,,,,
1,1787151520288,-282,-1191,10284,519235,195476,351858,0,0,0,472,445,297,449,376,405,546,197,350,401,263,543,0,,,,
2,1787151520288,272,-5340,29389,-7191105,1102000,499687,0,0,0,279,225,180,213,159,195,233,149,177,160,208,130,0,,,,
1,1787151520304,-291,-1239,10557,643851,160046,404392,0,0,0,493,461,288,461,390,398,548,186,348,391,241,545,0,,,,
2,1787151520304,425,-11854,31390,-7397578,689055,406836,0,0,0,280,228,179,211,156,195,237,144,177,167,205,126,0,,,,
1,1787151520320,181,-1277,10835,794124,95294,447153,0,0,0,509,475,273,455,420,411,541,185,356,373,229,556,0,,,,
2,1787151520320,1660,-21904,30064,-7084815,552222,217468,0,0,0,285,234,180,220,161,201,234,153,173,164,212,125,0,,,,
1,1787151520336,976,-1234,11730,1021366,-1221,406836,0,0,0,516,487,244,455,437,423,526,178,349,352,223,563,0,,,,
2,1787151520336,119,-32486,26925,-6144082,861319,13439,0,0,0,284,231,180,222,163,210,239,149,182,169,207,131,0,,,,
1,1787151520352,536,-1268,13304,1424537,-79412,298102,0,0,0,531,489,218,465,431,434,514,166,350,346,203,580,0,,,,
2,1787151520352,-4350,-42727,20612,-4256508,890641,197920,0,0,0,287,232,183,220,157,213,243,146,185,173,204,137,0,,,,
1,1787151520368,-148,-1354,14687,1981646,-139277,270002,0,0,0,544,478,204,477,428,434,477,180,360,328,188,590,0,,,,
2,1787151520368,-5034,-51777,12624,-2015855,416610,671951,0,0,0,288,231,184,216,155,206,242,150,182,179,211,140,0,,,,
1,1787151520384,-110,-1392,15587,2674368,-167377,322536,0,0,0,528,471,200,456,456,436,425,228,344,298,181,582,0,,,,
2,1787151520384,-2541,-54658,8183,-123394,227241,855211,0,0,0,287,213,183,212,143,194,259,228,171,200,264,127,0,,,,
1,1787151520400,-244,-1421,16405,3417180,-184481,361632,0,0,0,530,471,203,456,453,439,406,164,350,290,173,558,0,,,,
2,1787151520400,-4144,-41277,13797,1858252,416610,856433,0,0,0,285,187,163,217,133,180,290,375,153,245,382,108,0,,,,
1,1787151520416,-1660,-1507,18104,4387234,-167377,467922,0,0,0,513,452,226,430,434,433,319,165,366,265,172,519,0,,,,
2,1787151520416,-5197,-6183,19631,3809355,-25656,1094670,0,0,0,279,180,137,223,136,168,323,481,151,290,501,103,0,,,,
1,1787151520432,-4034,-1340,20784,5502674,-61086,762359,0,0,0,457,446,222,427,437,427,292,177,383,248,168,485,0,,,,
2,1787151520432,-2608,20354,16549,4917465,-797790,922406,0,0,0,282,190,151,223,126,171,370,528,164,329,572,99,0,,,,
1,1787151520448,-5580,-1182,25072,6768386,162490,1248608,0,0,0,386,422,219,402,439,410,272,178,366,221,160,422,0,,,,
2,1787151520448,-923,5049,18899,6151412,-95294,141720,0,0,0,307,193,182,236,115,194,419,576,164,384,626,100,0,,,,
1,1787151520464,-7528,-1311,30212,8114733,324980,1765400,0,0,0,345,387,200,352,364,360,305,191,346,225,167,379,0,,,,
2,1787151520464,210,-10284,26647,6186843,901637,-249233,0,0,0,316,203,229,237,123,224,470,598,185,423,643,126,0,,,,
1,1787151520480,-8743,-871,36487,9172752,-241902,2312735,0,0,0,312,282,203,282,231,299,358,210,313,263,221,334,0,,,,
2,1787151520480,3163,-9045,25398,4012162,417831,-346971,0,0,0,318,222,255,249,142,248,468,575,186,464,645,152,0,,,,
1,1787151520496,-6159,5034,40674,9272934,-540004,2850297,0,0,0,312,241,209,262,183,280,387,204,302,285,234,316,0,,,,
2,1787151520496,3838,-3728,17042,1700648,-375071,-146607,0,0,0,322,235,294,250,153,265,489,545,207,471,623,161,0,,,,
1,1787151520512,-5814,16960,29284,7880161,730594,2895501,0,0,0,328,240,219,259,177,278,393,196,299,289,233,321,0,,,,
2,1787151520512,1450,19,9609,725707,-383623,73303,0,0,0,329,247,265,264,161,253,487,535,206,481,622,166,0,,,,
1,1787151520528,-8954,23756,13673,3907094,2162462,2046398,0,0,0,333,242,225,256,179,278,396,202,299,288,242,324,0,,,,
2,1787151520528,1215,-19,8585,713490,-57421,72082,0,0,0,329,293,266,286,191,270,487,528,203,528,623,177,0,,,,
1,1787151520544,-10054,16759,11112,-26878,1632231,410501,0,0,0,333,244,226,254,181,277,398,213,299,286,250,322,0,,,,
2,1787151520544,2292,-1033,9825,590095,-206472,-3665,0,0,0,340,301,300,273,177,271,479,504,203,528,620,175,0,,,,
1,1787151520560,-9136,11318,9528,-1241278,923628,-933402,0,0,0,333,248,225,246,177,271,365,220,292,279,253,317,0,,,,
2,1787151520560,2201,-957,10624,346971,-568104,-78190,0,0,0,333,309,288,290,208,273,466,494,204,528,616,188,0,,,,
1,1787151520576,-7374,12194,6905,-1271821,168598,-1931555,0,0,0,331,251,224,244,180,266,341,228,288,273,252,312,0,,,,
2,1787151520576,1162,-282,10404,313984,-546113,-123394,0,0,0,330,315,280,291,211,278,459,454,195,515,579,194,0,,,,
1,1787151520592,-5278,13448,5723,-2405587,-317649,-2577851,0,0,0,328,250,224,254,188,269,389,238,299,280,251,314,0,,,,
2,1787151520592,516,38,10222,412944,-295658,-152716,0,0,0,322,310,267,288,212,284,452,420,208,459,528,192,0,,,,
1,1787151520608,-3603,11801,5671,-3824016,-547335,-2860071,0,0,0,326,249,224,246,185,271,390,239,300,283,254,313,0,,,,
2,1787151520608,626,167,10313,549778,-10995,-151494,0,0,0,322,315,250,289,217,283,428,384,222,411,475,199,0,,,,
1,1787151520624,-2412,8533,6489,-4871039,-733038,-2427578,0,0,0,323,250,224,245,186,270,385,242,288,279,257,308,0,,,,
2,1787151520624,976,258,10327,660956,139277,-140499,0,0,0,323,323,265,282,217,283,392,351,226,376,427,208,0,,,,
1,1787151520640,-674,6719,8021,-5415931,-1067792,-1433089,0,0,0,323,249,226,248,186,271,391,238,292,281,256,306,0,,,,
2,1787151520640,1306,157,10045,739146,139277,-131946,0,0,0,320,320,258,274,218,277,367,305,220,351,397,210,0,,,,
1,1787151520656,1019,6317,10208,-6041457,-1271821,-603534,0,0,0,324,248,228,245,180,270,397,234,294,281,255,311,0,,,,
2,1787151520656,1392,-354,9576,731816,20769,-135612,0,0,0,334,319,240,286,222,277,382,262,221,371,377,208,0,,,,
1,1787151520672,1904,6087,12782,-6965085,-1227839,-244346,0,0,0,325,241,228,247,178,270,402,233,296,286,257,311,0,,,,
2,1787151520672,1407,-770,9222,664621,-112399,-158824,0,0,0,338,322,239,296,229,283,380,239,227,377,378,211,0,,,,
1,1787151520688,1249,4173,14390,-7512420,-1049466,-461814,0,0,0,328,244,230,243,182,268,402,226,297,283,257,306,0,,,,
2,1787151520688,1282,-823,9116,557109,-201585,-197920,0,0,0,322,324,239,288,236,283,350,242,229,336,385,211,0,,,,
1,1787151520704,186,2263,15587,-7430564,-1071457,-755029,0,0,0,326,244,227,243,187,269,402,227,297,284,263,307,0,,,,
2,1787151520704,1067,-804,9207,471587,-228463,-223576,0,0,0,320,327,237,283,238,282,352,249,232,322,364,210,0,,,,
1,1787151520720,-167,1497,17578,-7042054,-1385442,-974940,0,0,0,327,244,228,245,185,270,404,224,299,283,261,308,0,,,,
2,1787151520720,976,-909,9298,420275,-254119,-232128,0,0,0,323,327,237,284,237,289,359,226,233,329,346,218,0,,,,
1,1787151520736,67,966,19966,-6841690,-1605353,-1042136,0,0,0,326,245,225,244,184,268,361,218,297,281,256,302,0,,,,
2,1787151520736,995,-1028,9399,394618,-274889,-241902,0,0,0,345,336,245,302,250,306,365,211,242,337,331,231,0,,,,
1,1787151520752,153,-464,22837,-6719517,-1655444,-840550,0,0,0,320,253,224,245,188,269,373,219,297,278,249,295,0,,,,
2,1787151520752,1033,-1052,9528,393397,-290771,-265115,0,0,0,359,339,242,320,270,311,356,194,240,335,324,259,0,,,,
1,1787151520768,469,-3474,26594,-6550918,-1601688,-326202,0,0,0,314,267,228,247,199,274,402,232,299,280,254,295,0,,,,
2,1787151520768,1024,-1000,9739,427605,-284663,-306654,0,0,0,358,355,241,333,294,334,351,188,251,333,326,264,0,,,,
1,1787151520784,1842,-8198,29777,-6493497,-1392772,102625,0,0,0,311,273,229,249,205,279,402,234,299,282,258,296,0,,,,
2,1787151520784,1033,-995,9997,500909,-252898,-342084,0,0,0,386,371,256,340,292,328,361,202,255,332,309,269,0,,,,
1,1787151520800,4393,-17343,30930,-6415306,-950506,353080,0,0,0,311,269,228,253,202,281,406,221,302,281,250,296,0,,,,
2,1787151520800,918,-1052,10299,642630,-216246,-368962,0,0,0,391,388,259,351,308,344,364,163,261,320,278,287,0,,,,
1,1787151520816,5967,-28078,28375,-5822767,-503352,365297,0,0,0,316,270,230,255,202,283,410,221,302,284,254,301,0,,,,
2,1787151520816,765,-1091,10753,839328,-156381,-377514,0,0,0,418,399,289,352,315,369,338,154,293,310,288,303,0,,,,
1,1787151520832,5312,-38071,21627,-4258952,40317,48869,0,0,0,322,272,232,257,203,283,411,219,300,289,259,301,0,,,,
2,1787151520832,861,-1072,11864,1130100,-69638,-377514,0,0,0,445,405,255,376,338,394,323,140,273,311,260,306,0,,,,
1,1787151520848,4130,-44283,13831,-2553416,111177,-642630,0,0,0,323,266,231,255,195,281,416,218,300,296,259,297,0,,,,
2,1787151520848,1478,-1158,13634,1584584,-10995,-419053,0,0,0,428,425,229,368,372,402,295,143,282,292,249,331,0,,,,
1,1787151520864,4245,-47556,8466,-890641,-273667,-1538158,0,0,0,298,248,195,243,189,265,424,298,285,336,344,267,0,,,,
2,1787151520864,1933,-1402,15352,2293188,-6108,-535117,0,0,0,434,447,226,364,390,405,252,145,291,279,250,362,0,,,,
1,1787151520880,2790,-45915,10801,1119105,-228463,-2051285,0,0,0,282,223,179,238,174,257,482,457,269,405,454,239,0,,,,
2,1787151520880,1895,-1282,16156,3165503,-12217,-658512,0,0,0,437,465,227,348,392,411,204,145,289,246,238,365,0,,,,
1,1787151520896,1713,-30456,15673,3662747,527787,-1634675,0,0,0,287,226,172,241,175,257,502,500,272,424,492,231,0,,,,
2,1787151520896,2474,-1081,17248,4238183,-50090,-807563,0,0,0,425,486,214,344,380,402,171,141,271,221,225,334,0,,,,
1,1787151520912,1593,-2718,19487,5175250,2129476,-393397,0,0,0,292,225,190,259,166,275,542,542,290,497,530,221,0,,,,
2,1787151520912,4355,-1383,19564,5489235,-146607,-1100779,0,0,0,386,480,205,340,382,378,155,141,259,200,214,308,0,,,,
1,1787151520928,1852,6901,23618,5309640,2531425,548556,0,0,0,307,244,276,286,184,306,579,579,304,566,573,240,0,,,,
2,1787151520928,7054,-2402,23809,6947981,-155159,-1615127,0,0,0,338,425,197,321,369,341,148,139,244,175,192,255,0,,,,
1,1787151520944,1072,-2809,26652,4320038,1499063,645073,0,0,0,331,287,336,316,231,334,599,579,305,592,593,263,0,,,,
2,1787151520944,9485,-3029,31222,8428718,-24434,-2328618,0,0,0,328,334,176,286,299,281,159,139,211,163,184,179,0,,,,
1,1787151520960,-622,-7575,23369,2448347,1000597,90408,0,0,0,351,325,377,335,266,355,611,561,318,606,608,331,0,,,,
2,1787151520960,9959,-579,37458,9032253,226020,-2823419,0,0,0,319,257,175,234,208,222,196,154,187,165,205,149,0,,,,
1,1787151520976,402,-3685,15778,1071457,825889,-215024,0,0,0,370,359,392,350,284,369,620,544,326,600,607,374,0,,,,
2,1787151520976,7958,6058,40119,8649851,398284,-3159395,0,0,0,285,226,199,204,154,205,231,158,187,171,215,147,0,,,,
1,1787151520992,1751,737,10964,819781,206472,-139277,0,0,0,381,383,399,366,300,378,627,519,333,584,582,390,0,,,,
2,1787151520992,6767,17281,28552,6751282,-797790,-3073873,0,0,0,284,224,207,212,154,213,241,155,193,183,213,158,0,,,,
1,1787151521008,497,1081,10581,1081231,-533896,-74525,0,0,0,385,394,406,372,325,379,635,486,353,574,556,411,0,,,,
2,1787151521008,9892,23244,15218,3075095,-2054950,-2294409,0,0,0,284,226,186,211,151,195,242,155,182,187,211,147,0,,,,
1,1787151521024,-957,186,10260,1102000,-608421,-72082,0,0,0,390,404,401,372,336,376,640,458,362,561,539,429,0,,,,
2,1787151521024,9059,20569,9796,67195,-2146580,-932180,0,0,0,284,226,190,206,152,195,232,155,181,197,209,153,0,,,,
1,1787151521040,-1239,-574,9595,819781,-210137,-43982,0,0,0,396,410,404,370,329,376,639,432,361,544,517,438,0,,,,
2,1787151521040,7887,15276,6192,-1071457,-2028072,841772,0,0,0,282,226,187,205,159,197,227,157,179,177,217,147,0,,,,
1,1787151521056,-713,-660,9667,507018,73303,7330,0,0,0,402,421,395,372,334,381,633,408,360,523,499,437,0,,,,
2,1787151521056,9078,14625,3091,-1408655,-1161865,2239431,0,0,0,286,233,194,197,151,190,227,161,180,173,219,144,0,,,,
1,1787151521072,-253,-248,10337,382401,146607,46425,0,0,0,407,420,369,384,339,389,620,392,354,503,479,453,0,,,,
2,1787151521072,7762,14142,3144,-2375044,-210137,2891836,0,0,0,290,233,194,203,150,199,226,156,178,173,222,144,0,,,,
1,1787151521088,167,215,10940,478918,25656,54977,0,0,0,416,427,354,400,349,401,590,379,340,537,434,451,0,,,,
2,1787151521088,5508,11289,4915,-3795916,140499,2665815,0,0,0,293,236,198,204,153,203,228,159,180,174,222,141,0,,,,
1,1787151521104,186,196,10801,625526,-182037,25656,0,0,0,425,430,338,413,345,385,567,338,340,473,425,452,0,,,,
2,1787151521104,3771,7925,6690,-4883256,307876,1813048,0,0,0,290,237,195,205,154,204,224,155,178,174,222,141,0,,,,
1,1787151521120,4,-9,10457,739146,-388510,7330,0,0,0,429,434,308,408,354,379,549,321,340,452,406,467,0,,,,
2,1787151521120,1493,5369,8734,-5542991,471587,652404,0,0,0,287,235,202,203,153,208,232,158,180,167,218,139,0,,,,
1,1787151521136,-320,-224,10299,781907,-487470,18325,0,0,0,425,443,315,400,363,379,527,310,335,423,372,466,0,,,,
2,1787151521136,-770,4393,10801,-5897293,489913,-156381,0,0,0,296,239,199,208,151,199,236,160,180,165,218,136,0,,,,
1,1787151521152,-808,-358,10069,769690,-415388,64751,0,0,0,420,437,286,409,361,377,531,284,342,431,330,467,0,,,,
2,1787151521152,-1765,3857,12696,-6200282,425162,-384845,0,0,0,299,243,200,212,155,203,227,159,178,168,222,137,0,,,,
1,1787151521168,-1086,-583,9696,707381,-229685,134390,0,0,0,429,430,281,416,364,371,528,269,333,423,310,465,0,,,,
2,1787151521168,-1397,2742,14132,-6360328,535117,-189368,0,0,0,297,246,199,209,155,203,226,159,180,173,225,139,0,,,,
1,1787151521184,-914,-837,9356,592539,17104,205250,0,0,0,442,426,277,414,371,368,527,248,332,419,301,466,0,,,,
2,1787151521184,-598,1876,15338,-6243042,796568,207694,0,0,0,293,246,197,206,155,204,228,162,186,173,225,140,0,,,,
1,1787151521200,-502,-1005,9270,488692,158824,226020,0,0,0,446,430,278,416,375,372,525,229,340,423,304,470,0,,,,
2,1787151521200,52,1684,16812,-6104987,1037249,651182,0,0,0,288,243,197,208,158,208,226,163,187,170,222,138,0,,,,
1,1787151521216,-201,-1100,9337,417831,227241,227241,0,0,0,442,439,280,419,375,376,520,215,339,415,297,472,0,,,,
2,1787151521216,320,1713,18951,-6104987,1251052,1141096,0,0,0,287,241,195,208,159,206,225,160,184,171,221,137,0,,,,
1,1787151521232,-134,-1009,9533,400727,218689,222354,0,0,0,448,449,286,421,370,384,525,207,338,406,286,483,0,,,,
2,1787151521232,291,689,21579,-6288246,1350012,1440420,0,0,0,284,242,195,208,157,207,224,154,184,171,220,137,0,,,,
1,1787151521248,-263,-938,9839,416610,190589,224798,0,0,0,468,459,293,424,368,398,532,203,345,412,279,505,0,,,,
2,1787151521248,-124,-1617,24656,-6497162,1390329,1417207,0,0,0,281,248,197,210,161,211,220,151,185,164,218,135,0,,,,
1,1787151521264,-622,-918,10241,481361,180816,260228,0,0,0,485,462,290,428,383,400,528,192,349,414,270,523,0,,,,
2,1787151521264,-1105,-5714,27762,-6693861,1169196,1029918,0,0,0,286,258,196,224,173,211,226,157,182,169,220,135,0,,,,
1,1787151521280,-923,-976,10648,613308,213802,351858,0,0,0,483,464,280,441,408,390,530,180,349,395,253,538,0,,,,
2,1787151521280,-1541,-12012,29408,-6808703,744033,536339,0,0,0,290,261,194,258,201,210,238,156,188,177,216,136,0,,,,
1,1787151521296,-569,-1167,10825,789237,237015,464257,0,0,0,493,481,267,460,418,399,528,180,349,394,230,555,0,,,,
2,1787151521296,-1306,-21363,28489,-6582683,382401,-47647,0,0,0,290,260,197,217,163,205,236,155,185,169,214,134,0,,,,
1,1787151521312,492,-1206,11533,1009149,206472,502131,0,0,0,512,482,250,465,424,406,513,165,329,381,213,569,0,,,,
2,1787151521312,-2593,-31098,25336,-5732359,331088,-544891,0,0,0,292,263,200,216,163,210,236,153,184,175,214,139,0,,,,
1,1787151521328,684,-1182,13117,1354899,175929,390953,0,0,0,517,484,237,436,430,431,510,169,345,352,211,572,0,,,,
2,1787151521328,-4034,-40598,19492,-4311486,151494,-571769,0,0,0,297,263,197,229,168,212,238,153,181,175,215,133,0,,,,
1,1787151521344,201,-1287,14477,1828930,142942,309097,0,0,0,536,482,230,440,435,415,483,159,331,334,188,564,0,,,,
2,1787151521344,-3910,-48408,12232,-2153910,119729,169820,0,0,0,301,268,198,222,166,206,239,154,183,178,215,133,0,,,,
1,1787151521360,14,-1340,15194,2427578,70860,300545,0,0,0,538,479,213,430,430,430,440,157,338,321,184,568,0,,,,
2,1787151521360,-3651,-50504,9088,-48869,271224,919963,0,0,0,295,231,194,217,155,208,241,184,181,179,256,135,0,,,,
1,1787151521376,76,-1287,15702,3120299,-37873,320093,0,0,0,534,465,205,422,421,411,386,162,358,311,185,561,0,,,,
2,1787151521376,-3512,-43646,12175,1776396,305432,1301142,0,0,0,286,192,168,224,133,191,284,299,165,203,368,113,0,,,,
1,1787151521392,-564,-1158,17214,4007275,-134390,373849,0,0,0,515,459,207,420,412,395,333,166,347,296,173,535,0,,,,
2,1787151521392,-1780,-18707,19602,3461162,-408057,1241278,0,0,0,274,179,142,229,139,183,298,406,149,239,439,105,0,,,,
1,1787151521408,-2110,-880,19904,5138598,-98960,537561,0,0,0,484,448,212,410,415,405,293,171,353,265,168,487,0,,,,
2,1787151521408,804,15893,17831,4119675,-1932777,830776,0,0,0,272,240,136,238,180,184,349,484,161,289,518,96,0,,,,
1,1787151521424,-4694,-923,23618,6376211,230907,882089,0,0,0,430,444,220,393,413,398,283,184,352,242,172,439,0,,,,
2,1787151521424,-1091,17133,15582,4714657,-2657263,221133,0,0,0,281,232,154,249,164,193,396,545,167,340,598,92,0,,,,
1,1787151521440,-7901,-765,28183,7756766,527787,1382998,0,0,0,372,416,209,360,383,365,290,191,331,228,178,404,0,,,,
2,1787151521440,-3105,-4139,22220,5053077,-1685988,-212581,0,0,0,297,203,176,255,140,198,451,576,166,417,641,106,0,,,,
1,1787151521456,-9887,325,33352,9110444,426383,2081828,0,0,0,323,344,198,305,302,313,318,201,305,249,212,357,0,,,,
2,1787151521456,-1440,-9796,25297,4222300,-987158,-395840,0,0,0,314,222,205,257,158,216,490,592,174,469,644,124,0,,,,
1,1787151521472,-8858,3129,38119,9748187,-101403,2723237,0,0,0,299,272,208,256,214,273,358,210,292,274,247,315,0,,,,
2,1787151521472,215,-2962,19502,2517986,-840550,-337197,0,0,0,331,250,235,266,181,242,506,603,184,486,636,136,0,,,,
1,1787151521488,-7068,11251,34103,9341351,100181,3142290,0,0,0,305,253,217,244,187,266,377,210,290,273,246,311,0,,,,
2,1787151521488,-703,-358,12639,1359786,-400727,-244346,0,0,0,344,268,246,275,186,251,529,605,178,520,621,147,0,,,,
1,1787151521504,-5833,22885,17860,6374989,1918116,2702467,0,0,0,315,252,217,246,187,264,377,212,288,279,246,314,0,,,,
2,1787151521504,-387,-818,10461,833220,202807,-142942,0,0,0,345,290,257,275,192,255,536,602,174,540,587,155,0,,,,
1,1787151521520,-7901,21000,13682,1092227,2460565,871093,0,0,0,317,248,221,244,189,264,379,215,286,276,249,317,0,,,,
2,1787151521520,559,-847,10729,684169,392175,-36651,0,0,0,341,281,251,286,182,254,535,583,182,559,575,167,0,,,,
1,1787151521536,-8308,13869,12562,-2543642,1848478,-1034805,0,0,0,319,249,226,238,186,257,375,221,287,276,253,316,0,,,,
2,1787151521536,732,-191,10524,580321,283441,8552,0,0,0,337,306,254,289,200,264,533,569,189,546,562,170,0,,,,
1,1787151521552,-7212,9164,9648,-2819753,1242499,-2078163,0,0,0,321,251,225,238,188,255,373,225,283,279,257,318,0,,,,
2,1787151521552,516,205,10265,538783,147829,0,0,0,0,326,316,260,295,203,275,524,525,195,527,530,182,0,,,,
1,1787151521568,-5896,9863,6609,-2708576,781907,-2493551,0,0,0,322,252,225,237,188,252,373,230,283,279,263,318,0,,,,
2,1787151521568,478,47,10217,566882,125838,-18325,0,0,0,330,312,238,299,197,269,537,466,191,508,491,171,0,,,,
1,1787151521584,-4335,9691,5891,-3549127,383623,-2807536,0,0,0,323,252,222,241,188,254,374,227,280,281,263,318,0,,,,
2,1787151521584,473,-23,10117,580321,125838,-32986,0,0,0,320,308,236,297,197,271,499,453,185,437,464,171,0,,,,
1,1787151521600,-3991,7245,6609,-4405560,289550,-2780658,0,0,0,322,259,228,239,192,255,378,229,281,280,262,318,0,,,,
2,1787151521600,464,76,10026,586430,123394,-51312,0,0,0,316,303,238,276,195,268,445,427,202,368,443,179,0,,,,
1,1787151521616,-4120,5355,7451,-4806287,78190,-2225992,0,0,0,316,259,226,238,194,255,376,227,283,277,262,316,0,,,,
2,1787151521616,397,186,9978,621860,129503,-79412,0,0,0,320,305,239,299,192,286,451,398,201,345,426,183,0,,,,
1,1787151521632,-3441,4441,8729,-5307197,-164933,-1546710,0,0,0,318,263,227,238,197,257,376,229,284,277,263,316,0,,,,
2,1787151521632,392,57,9920,665843,158824,-95294,0,0,0,308,293,224,291,199,278,440,371,204,342,387,190,0,,,,
1,1787151521648,-2900,3608,9973,-5821545,-234572,-1062905,0,0,0,313,260,223,237,198,256,378,231,286,276,262,308,0,,,,
2,1787151521648,540,-134,9801,675616,156381,-102625,0,0,0,307,299,232,282,199,273,426,357,209,335,366,199,0,,,,
1,1787151521664,-3220,2574,11385,-6161186,-405614,-767246,0,0,0,315,260,222,241,199,258,379,230,285,277,262,303,0,,,,
2,1787151521664,784,-354,9504,621860,56199,-119729,0,0,0,302,305,228,277,197,273,418,339,208,317,358,201,0,,,,
1,1787151521680,-3455,1899,13491,-6451958,-817337,-658512,0,0,0,315,258,223,242,196,259,381,229,286,278,262,304,0,,,,
2,1787151521680,933,-574,9183,516791,-89186,-156381,0,0,0,302,317,224,280,197,274,420,316,209,306,343,197,0,,,,
1,1787151521696,-3283,1206,15754,-6808703,-1203404,-810007,0,0,0,310,259,222,242,199,261,383,233,289,276,270,302,0,,,,
2,1787151521696,856,-737,9121,410501,-200363,-213802,0,0,0,311,328,250,286,209,291,421,299,224,315,339,204,0,,,,
1,1787151521712,-3479,0,17846,-6985854,-1488067,-949284,0,0,0,313,261,221,248,201,263,388,232,291,279,272,298,0,,,,
2,1787151521712,545,-804,9270,354301,-239459,-254119,0,0,0,317,350,266,296,238,319,421,284,231,336,339,212,0,,,,
1,1787151521728,-3780,-2038,20559,-6866125,-1866804,-795346,0,0,0,320,260,219,255,197,264,393,224,290,286,264,295,0,,,,
2,1787151521728,469,-741,9504,360410,-221133,-283441,0,0,0,323,363,247,314,263,326,427,256,225,352,317,214,0,,,,
1,1787151521744,-2124,-4982,24374,-6811147,-2144136,-96516,0,0,0,316,260,220,255,197,264,392,221,289,286,259,293,0,,,,
2,1787151521744,894,-689,9877,421497,-172263,-338419,0,0,0,338,353,242,329,275,323,437,224,239,356,292,241,0,,,,
1,1787151521760,-110,-8734,27504,-7021285,-1918116,701273,0,0,0,305,262,223,251,201,268,393,221,293,282,257,293,0,,,,
2,1787151521760,985,-708,10313,529009,-131946,-458148,0,0,0,354,409,243,341,302,340,455,207,251,342,282,278,0,,,,
1,1787151521776,1052,-14491,28590,-7163005,-1521054,1347568,0,0,0,304,264,225,254,206,271,395,221,295,282,252,294,0,,,,
2,1787151521776,306,-832,10634,681725,-144164,-510683,0,0,0,365,449,266,348,353,364,423,199,271,304,274,276,0,,,,
1,1787151521792,3627,-23000,27681,-6668204,-1651779,1651779,0,0,0,309,260,225,259,219,274,396,217,293,280,249,298,0,,,,
2,1787151521792,14,-1005,10777,882089,-96516,-458148,0,0,0,377,419,267,348,321,378,407,179,280,290,242,294,0,,,,
1,1787151521808,9471,-31624,24469,-5420818,-1635897,1183856,0,0,0,320,265,228,264,203,273,409,221,293,299,251,302,0,,,,
2,1787151521808,23,-1062,11433,1111774,48869,-419053,0,0,0,404,433,220,363,353,378,394,181,288,284,235,324,0,,,,
1,1787151521824,12347,-39722,18095,-3791029,-807563,62308,0,0,0,325,265,228,271,204,275,409,227,293,302,265,307,0,,,,
2,1787151521824,349,-1033,12888,1496619,245567,-389732,0,0,0,413,433,214,371,342,387,366,154,296,273,217,331,0,,,,
1,1787151521840,8820,-45919,10524,-1979203,125838,-1176526,0,0,0,325,257,227,268,192,273,409,221,290,297,269,306,0,,,,
2,1787151521840,1517,-1234,14137,2125811,410501,-461814,0,0,0,432,435,197,400,388,417,334,160,300,278,234,366,0,,,,
1,1787151521856,2354,-46364,7063,-83077,152716,-1853365,0,0,0,289,232,185,244,177,257,459,371,276,354,403,270,0,,,,
2,1787151521856,2297,-1306,15295,2901609,447153,-649960,0,0,0,425,441,193,364,393,403,301,167,295,239,214,345,0,,,,
1,1787151521872,2670,-38798,12476,1827708,-70860,-1984090,0,0,0,283,230,170,241,179,262,490,474,276,402,468,247,0,,,,
2,1787151521872,2426,-1177,16702,3731164,246789,-852767,0,0,0,415,457,180,367,404,390,241,158,276,227,216,334,0,,,,
1,1787151521888,6910,-13414,17822,3981619,1544267,-1671327,0,0,0,288,232,180,251,172,271,530,529,283,478,516,235,0,,,,
2,1787151521888,3575,-1263,18621,4790405,-42760,-1092227,0,0,0,397,441,191,369,430,378,193,153,263,206,205,319,0,,,,
1,1787151521904,7485,6657,22316,5000542,3134960,-664621,0,0,0,295,227,232,266,167,282,560,557,297,533,547,236,0,,,,
2,1787151521904,4862,-947,21789,5976705,-109955,-1448972,0,0,0,361,420,182,360,409,357,175,145,256,189,184,287,0,,,,
1,1787151521920,4072,3996,25986,4817283,2789210,641408,0,0,0,321,255,310,284,187,298,579,566,308,566,569,252,0,,,,
2,1787151521920,6355,-612,26996,7453777,75747,-1913229,0,0,0,314,410,178,316,367,341,162,143,246,166,186,238,0,,,,
1,1787151521936,277,-5652,24843,3525914,1384220,640186,0,0,0,345,300,368,306,226,315,602,565,311,588,589,273,0,,,,
2,1787151521936,8753,-732,33041,8886867,764803,-2426356,0,0,0,293,306,173,263,255,270,192,152,216,173,204,181,0,,,,
1,1787151521952,-784,-6470,19550,1902234,697608,111177,0,0,0,353,328,396,321,257,327,622,549,305,603,594,306,0,,,,
2,1787151521952,8987,1191,40330,9551488,1974316,-3065321,0,0,0,306,234,172,247,172,210,256,161,189,191,215,147,0,,,,
1,1787151521968,856,-1086,12849,1015258,436157,-139277,0,0,0,362,346,409,330,268,337,627,528,304,611,579,345,0,,,,
2,1787151521968,5623,11442,38434,8477587,1287703,-3408628,0,0,0,309,226,174,228,149,193,269,164,182,193,218,146,0,,,,
1,1787151521984,1086,847,10447,847880,-29321,-86742,0,0,0,373,364,415,346,282,350,635,519,316,603,558,360,0,,,,
2,1787151521984,6140,23665,25230,5832541,-1257160,-2869844,0,0,0,299,229,179,205,147,193,243,166,185,185,220,156,0,,,,
1,1787151522000,19,67,10763,906524,-454483,-28099,0,0,0,389,369,430,348,290,353,637,491,323,587,526,372,0,,,,
2,1787151522000,9408,26738,14108,1927890,-3027448,-1121548,0,0,0,299,233,189,207,150,198,242,169,188,185,221,158,0,,,,
1,1787151522016,-684,-358,10997,862541,-551000,-46425,0,0,0,404,381,437,356,289,356,630,451,327,580,491,390,0,,,,
2,1787151522016,9236,20028,9600,-245567,-2674368,768468,0,0,0,299,235,191,210,152,201,241,165,189,188,224,162,0,,,,
1,1787151522032,-397,71,10614,827111,-477696,-45204,0,0,0,381,391,418,348,310,355,629,434,347,568,471,421,0,,,,
2,1787151522032,8887,16219,5896,-1017701,-1909564,1957212,0,0,0,296,236,190,209,152,203,233,162,186,184,227,159,0,,,,
1,1787151522048,-291,215,10409,849102,-475253,-25656,0,0,0,390,383,400,354,309,361,625,394,337,534,442,444,0,,,,
2,1787151522048,7336,15869,4508,-1798387,-1080009,2337170,0,0,0,300,241,184,209,154,197,230,165,180,182,229,149,0,,,,
1,1787151522064,-569,38,10457,877202,-483805,0,0,0,0,382,380,368,368,323,368,612,376,345,493,417,460,0,,,,
2,1787151522064,4704,13730,5226,-3249803,-801455,2223549,0,0,0,299,248,181,201,155,188,235,176,184,178,235,148,0,,,,
1,1787151522080,-665,-33,10418,874759,-430049,25656,0,0,0,408,396,368,376,322,366,597,346,333,480,379,456,0,,,,
2,1787151522080,3144,10490,6451,-4508185,-726929,1726305,0,0,0,299,239,180,203,151,189,231,165,181,178,237,147,0,,,,
1,1787151522096,-612,-47,10256,879645,-393397,41538,0,0,0,415,392,354,381,324,370,579,302,327,461,354,456,0,,,,
2,1787151522096,1890,7197,8293,-5499008,-555887,796568,0,0,0,306,246,183,211,156,193,237,168,181,181,234,147,0,,,,
1,1787151522112,-650,-258,10021,902858,-390953,58643,0,0,0,417,398,329,381,316,367,562,268,332,460,343,459,0,,,,
2,1787151522112,512,4996,10308,-6095213,-370184,-127059,0,0,0,308,250,183,210,153,190,242,169,173,184,235,147,0,,,,
1,1787151522128,-780,-588,9806,871093,-361632,90408,0,0,0,420,397,320,380,323,362,551,256,330,432,317,462,0,,,,
2,1787151522128,110,3895,12031,-6390872,-216246,-498466,0,0,0,318,241,183,221,153,190,253,176,181,192,231,143,0,,,,
1,1787151522144,-976,-808,9619,784350,-251676,128281,0,0,0,423,400,316,383,325,366,541,240,329,422,305,465,0,,,,
2,1787151522144,966,3216,13720,-6593679,31764,-168598,0,0,0,313,243,187,222,154,191,259,174,181,198,229,141,0,,,,
1,1787151522160,-1038,-985,9466,664621,-50090,172263,0,0,0,427,404,314,391,333,370,534,219,331,416,290,468,0,,,,
2,1787151522160,2029,2129,15180,-6800151,331088,321315,0,0,0,308,243,187,222,151,192,261,170,181,194,232,144,0,,,,
1,1787151522176,-976,-1143,9456,588874,113620,213802,0,0,0,437,411,317,397,342,380,532,206,338,398,270,486,0,,,,
2,1787151522176,3000,995,16463,-6861238,675616,866206,0,0,0,307,245,189,218,154,195,259,172,184,187,230,141,0,,,,
1,1787151522192,-1028,-1143,9652,576656,201585,273667,0,0,0,453,424,322,404,348,394,524,194,341,386,251,503,0,,,,
2,1787151522192,3431,239,18004,-6781825,985936,1285260,0,0,0,301,253,186,212,158,195,249,173,184,182,233,137,0,,,,
1,1787151522208,-1000,-1091,10031,623082,217468,361632,0,0,0,472,438,320,419,353,401,515,180,336,386,240,508,0,,,,
2,1787151522208,3082,-775,20354,-6660874,1216843,1463633,0,0,0,296,255,186,208,160,195,239,171,183,175,232,135,0,,,,
1,1787151522224,-885,-1124,10380,733038,232128,428827,0,0,0,488,446,309,436,362,399,518,176,336,389,240,520,0,,,,
2,1787151522224,2206,-2407,23426,-6674313,1285260,1233947,0,0,0,297,254,188,217,170,201,241,171,186,173,231,137,0,,,,
1,1787151522240,-789,-1229,10476,868650,243124,483805,0,0,0,490,448,300,429,378,402,516,175,338,391,228,537,0,,,,
2,1787151522240,1325,-5202,27437,-6969972,1224173,674395,0,0,0,299,249,186,223,171,206,242,167,186,176,228,135,0,,,,
1,1787151522256,-320,-1335,10610,985936,238237,502131,0,0,0,512,486,302,426,382,403,504,168,325,368,212,552,0,,,,
2,1787151522256,1316,-10122,30370,-7280291,1066570,222354,0,0,0,298,236,186,219,159,205,237,161,182,175,222,131,0,,,,
1,1787151522272,253,-1622,11165,1152091,185703,448375,0,0,0,515,487,257,446,409,396,505,168,331,367,213,563,0,,,,
2,1787151522272,2660,-21091,30102,-7099475,954171,-152716,0,0,0,294,235,188,218,156,204,237,162,180,174,220,134,0,,,,
1,1787151522288,550,-1622,12175,1389107,74525,354301,0,0,0,517,485,238,442,454,413,485,172,335,344,210,575,0,,,,
2,1787151522288,196,-33400,26819,-6013357,1389107,-309097,0,0,0,293,240,187,218,156,206,240,165,185,176,220,141,0,,,,
1,1787151522304,186,-1660,13472,1771509,-52534,261450,0,0,0,539,497,226,425,418,410,469,162,362,339,201,575,0,,,,
2,1787151522304,-8580,-43235,22057,-4036597,1734857,244346,0,0,0,294,235,190,221,155,209,242,162,188,177,218,141,0,,,,
1,1787151522320,-469,-1655,14582,2282192,-136833,233350,0,0,0,550,497,232,422,408,410,445,162,352,323,200,573,0,,,,
2,1787151522320,-8700,-51528,14998,-1948660,614530,1329242,0,0,0,298,237,186,224,152,209,241,176,182,178,235,137,0,,,,
1,1787151522336,-1119,-1684,15462,3020117,-129503,299323,0,0,0,547,484,228,419,414,410,402,164,341,299,182,560,0,,,,
2,1787151522336,-3259,-56046,9940,61086,-94073,1587027,0,0,0,281,204,176,215,135,196,262,303,166,208,334,121,0,,,,
1,1787151522352,-1196,-1665,16381,3797138,-45204,411723,0,0,0,535,463,227,411,414,422,334,158,342,267,164,542,0,,,,
2,1787151522352,-3598,-38171,15769,2663372,-206472,1050688,0,0,0,265,175,136,229,146,181,303,461,156,245,453,109,0,,,,
1,1787151522368,-2019,-1679,18152,4721988,3665,565661,0,0,0,503,448,218,410,406,416,289,161,355,246,156,493,0,,,,
2,1787151522368,-3278,-5264,19468,4831944,-963945,515570,0,0,0,278,193,149,246,140,198,352,509,162,310,547,103,0,,,,
1,1787151522384,-4125,-1837,21536,5811771,87964,827111,0,0,0,445,440,219,404,401,401,293,159,358,249,150,429,0,,,,
2,1787151522384,-1497,12869,21569,5844758,-1609019,-228463,0,0,0,312,209,179,252,132,201,416,557,163,427,608,96,0,,,,
1,1787151522400,-6877,-1737,27001,7094588,410501,1232726,0,0,0,388,415,209,372,370,365,308,167,349,246,154,390,0,,,,
2,1787151522400,-473,-713,25948,5761680,-856433,-681725,0,0,0,316,211,193,247,133,210,435,579,166,523,653,116,0,,,,
1,1787151522416,-9107,-1206,34137,8472700,537561,1799608,0,0,0,339,351,202,315,295,315,328,182,323,256,191,343,0,,,,
2,1787151522416,1000,-9150,26518,4645019,-243124,-580321,0,0,0,336,226,230,266,150,227,478,590,165,565,642,131,0,,,,
1,1787151522432,-9514,842,39320,9380446,-196698,2386039,0,0,0,307,282,213,262,217,283,355,202,299,269,234,309,0,,,,
2,1787151522432,1675,-5202,20004,2869844,-282219,-169820,0,0,0,340,235,255,278,151,246,500,574,191,553,632,144,0,,,,
1,1787151522448,-7800,11117,35099,9142209,-594982,2995683,0,0,0,303,253,222,245,184,271,375,212,291,269,246,313,0,,,,
2,1787151522448,469,-890,12012,1463633,-138055,45204,0,0,0,340,246,279,281,152,249,520,566,200,546,612,160,0,,,,
1,1787151522464,-5857,23838,20981,6745173,726929,3078760,0,0,0,316,250,217,246,185,259,376,207,283,276,243,317,0,,,,
2,1787151522464,349,43,8968,872315,217468,51312,0,0,0,341,257,272,287,157,251,534,548,190,548,601,166,0,,,,
1,1787151522480,-7748,25819,13548,1424537,2001194,1805717,0,0,0,321,248,220,244,184,257,378,221,281,279,250,321,0,,,,
2,1787151522480,1469,-598,9595,697608,287106,6108,0,0,0,339,267,260,287,169,255,532,535,192,551,579,166,0,,,,
1,1787151522496,-8016,17056,13113,-2383596,1329242,-13439,0,0,0,324,249,222,238,184,254,378,234,282,276,260,320,0,,,,
2,1787151522496,1641,-679,10495,520457,-45204,-8552,0,0,0,333,282,273,284,182,268,518,526,202,547,560,173,0,,,,
1,1787151522512,-6834,11385,10131,-3101973,885754,-1119105,0,0,0,320,249,222,238,187,252,375,245,282,275,263,319,0,,,,
2,1787151522512,1143,-277,10648,408057,-239459,-32986,0,0,0,333,293,278,295,191,278,508,509,200,536,545,182,0,,,,
1,1787151522528,-5853,11069,6838,-2863736,465479,-1651779,0,0,0,323,256,225,238,191,253,379,245,282,278,263,320,0,,,,
2,1787151522528,612,76,10323,415388,-208915,-62308,0,0,0,337,291,253,303,196,270,506,493,194,515,505,178,0,,,,
1,1787151522544,-4288,10581,6599,-3859446,-215024,-2114815,0,0,0,328,263,226,243,192,254,383,247,283,279,265,314,0,,,,
2,1787151522544,445,191,10098,492357,-51312,-69638,0,0,0,324,283,248,294,193,279,492,479,206,472,479,176,0,,,,
1,1787151522560,-3153,7963,7614,-4740314,-494800,-2295631,0,0,0,321,265,224,241,198,257,380,249,283,276,267,314,0,,,,
2,1787151522560,531,301,10098,588874,81855,-62308,0,0,0,329,292,249,288,192,281,474,433,212,463,451,188,0,,,,
1,1787151522576,-2459,5632,8705,-5166698,-582765,-2069611,0,0,0,315,265,224,241,197,259,381,248,282,276,266,312,0,,,,
2,1787151522576,670,311,10107,697608,146607,-56199,0,0,0,323,294,246,283,199,266,456,397,204,424,428,177,0,,,,
1,1787151522592,-1440,4608,10141,-5608964,-719599,-1571145,0,0,0,312,263,223,240,194,258,384,242,279,277,262,308,0,,,,
2,1787151522592,856,81,9882,778242,136833,-64751,0,0,0,318,299,238,283,201,264,413,372,208,369,411,186,0,,,,
1,1787151522608,-713,3795,11715,-6102543,-811229,-1176526,0,0,0,312,261,223,241,192,258,388,236,281,277,260,306,0,,,,
2,1787151522608,995,-196,9633,783129,78190,-84299,0,0,0,310,295,236,283,201,269,407,344,214,342,394,191,0,,,,
1,1787151522624,-765,2780,13644,-6427524,-856433,-995710,0,0,0,311,259,223,243,191,258,391,230,283,279,259,306,0,,,,
2,1787151522624,1033,-492,9471,719599,-9773,-116064,0,0,0,328,321,231,284,207,269,409,281,201,334,373,183,0,,,,
1,1787151522640,-1124,1861,15635,-6576575,-921184,-979827,0,0,0,310,258,222,245,191,258,392,228,284,280,257,304,0,,,,
2,1787151522640,928,-760,9332,621860,-85521,-147829,0,0,0,313,296,231,279,214,271,403,277,211,315,354,187,0,,,,
1,1787151522656,-1368,918,17741,-6713408,-1025031,-1042136,0,0,0,310,260,221,247,194,261,394,229,285,280,259,302,0,,,,
2,1787151522656,770,-914,9217,520457,-118507,-169820,0,0,0,307,306,234,302,225,293,399,275,217,316,352,189,0,,,,
1,1787151522672,-1651,-301,19774,-6806260,-1106887,-1033583,0,0,0,309,264,224,248,194,263,397,224,284,281,261,299,0,,,,
2,1787151522672,679,-861,9265,422718,-119729,-167377,0,0,0,320,323,250,294,225,308,411,266,231,320,353,216,0,,,,
1,1787151522688,-2191,-1938,21981,-6751282,-1263269,-839328,0,0,0,305,267,226,246,191,263,400,216,285,283,255,295,0,,,,
2,1787151522688,784,-808,9404,355523,-142942,-162490,0,0,0,328,343,259,307,245,315,422,238,228,336,342,223,0,,,,
1,1787151522704,-2167,-4709,24852,-6603453,-1527163,-338419,0,0,0,300,271,227,244,195,264,399,212,287,280,252,291,0,,,,
2,1787151522704,976,-789,9662,353080,-191811,-183259,0,0,0,338,352,248,318,263,313,422,232,232,331,327,227,0,,,,
1,1787151522720,-497,-9389,27283,-6630331,-1512502,216246,0,0,0,298,275,227,245,199,265,402,211,290,279,247,289,0,,,,
2,1787151522720,1229,-794,10054,436157,-250454,-252898,0,0,0,360,364,250,326,285,330,423,231,245,320,309,253,0,,,,
1,1787151522736,1895,-16161,27920,-6610783,-1302364,531452,0,0,0,297,276,229,248,204,269,406,211,293,283,241,291,0,,,,
2,1787151522736,1196,-890,10337,561996,-309097,-339641,0,0,0,395,384,261,343,301,357,418,210,254,313,287,278,0,,,,
1,1787151522752,4465,-24297,26183,-6092769,-1069014,436157,0,0,0,299,277,228,256,210,273,406,218,294,278,248,287,0,,,,
2,1787151522752,885,-1024,10571,736703,-309097,-399505,0,0,0,411,410,257,363,316,384,403,185,263,300,266,282,0,,,,
1,1787151522768,6278,-32433,22225,-4883256,-680503,-58643,0,0,0,296,273,222,256,213,274,411,218,295,280,248,290,0,,,,
2,1787151522768,732,-1052,11117,973719,-215024,-431270,0,0,0,404,447,251,377,342,414,391,179,273,284,253,290,0,,,,
1,1787151522784,5293,-40105,14984,-3134960,-248011,-845437,0,0,0,301,272,226,256,206,272,411,221,291,280,249,289,0,,,,
2,1787151522784,1143,-1038,12136,1312138,-85521,-459370,0,0,0,413,470,239,380,357,400,364,180,275,276,251,313,0,,,,
1,1787151522800,3058,-45881,8308,-1277930,-130725,-1466076,0,0,0,312,266,221,268,197,270,426,220,288,288,250,291,0,,,,
2,1787151522800,1957,-1268,13716,1852143,12217,-586430,0,0,0,419,480,221,378,381,402,325,152,277,281,234,328,0,,,,
1,1787151522816,875,-44938,7255,167377,-262672,-1497841,0,0,0,290,237,182,243,178,256,465,357,275,339,370,267,0,,,,
2,1787151522816,2033,-1421,15721,2542421,53756,-761138,0,0,0,456,473,222,379,365,409,287,157,291,262,214,354,0,,,,
1,1787151522832,1009,-38229,12021,1987755,-91629,-1258382,0,0,0,289,240,172,249,177,260,495,471,279,396,451,245,0,,,,
2,1787151522832,2254,-1306,17774,3518583,-83077,-926071,0,0,0,465,484,222,361,375,417,227,156,317,231,217,366,0,,,,
1,1787151522848,4053,-17295,17047,4258952,1800830,-888198,0,0,0,296,239,173,268,176,269,528,528,282,461,501,234,0,,,,
2,1787151522848,4163,-1392,19358,4823391,-259006,-1196074,0,0,0,432,439,199,355,368,369,165,129,259,217,201,330,0,,,,
1,1787151522864,4704,1770,22292,4835609,3286454,-375071,0,0,0,299,235,216,278,170,278,562,562,294,527,540,226,0,,,,
2,1787151522864,6752,-1545,21584,6339559,-199142,-1673770,0,0,0,384,438,224,355,383,384,146,115,242,184,170,266,0,,,,
1,1787151522880,3756,4134,26944,4434881,3329215,255341,0,0,0,307,254,296,283,183,292,594,571,315,577,578,241,0,,,,
2,1787151522880,9528,-1416,26427,8069529,240680,-2397035,0,0,0,322,378,206,325,337,347,145,120,236,168,165,255,0,,,,
1,1787151522896,1799,-4728,26149,3314554,2204001,497244,0,0,0,332,293,385,302,219,316,619,562,330,606,605,269,0,,,,
2,1787151522896,10102,-631,35204,9231395,929736,-3076317,0,0,0,304,271,160,262,239,249,170,134,189,167,190,167,0,,,,
1,1787151522912,1239,-5149,19320,2109928,1455080,85521,0,0,0,351,325,450,329,263,349,637,552,326,624,602,309,0,,,,
2,1787151522912,7901,1340,44067,9511171,1573588,-3720169,0,0,0,292,224,159,224,172,198,213,148,168,166,212,126,0,,,,
1,1787151522928,1995,-1804,13486,1258382,954171,-183259,0,0,0,349,339,459,343,291,365,646,541,319,632,578,352,0,,,,
2,1787151522928,5675,11801,38219,8123285,563217,-3828903,0,0,0,291,216,163,217,150,187,236,151,170,174,216,125,0,,,,
1,1787151522944,2440,224,11471,907745,252898,-186924,0,0,0,355,354,434,350,301,353,638,514,325,619,554,367,0,,,,
2,1787151522944,7030,22718,23010,5393940,-1442863,-3181386,0,0,0,292,217,164,215,146,185,244,157,176,180,214,132,0,,,,
1,1787151522960,1287,291,11136,917519,-404392,-147829,0,0,0,363,370,445,352,306,365,631,484,326,601,530,384,0,,,,
2,1787151522960,9030,24450,12132,1470963,-2656042,-1491732,0,0,0,296,217,164,220,148,186,249,157,176,187,216,136,0,,,,
1,1787151522976,354,186,10576,935845,-626747,-122173,0,0,0,376,380,464,353,307,381,626,475,349,584,495,414,0,,,,
2,1787151522976,8451,17530,8016,-525344,-2361605,609643,0,0,0,303,215,169,231,146,192,260,155,177,194,217,141,0,,,,
1,1787151522992,119,-57,10054,844215,-491135,-81855,0,0,0,372,387,440,375,324,373,621,454,343,564,475,411,0,,,,
2,1787151522992,8844,14457,4216,-995710,-1587027,2201558,0,0,0,306,217,168,237,146,193,269,156,174,195,215,134,0,,,,
1,1787151523008,67,-268,9987,730594,-345749,-34208,0,0,0,388,390,408,375,327,362,611,417,329,550,451,410,0,,,,
2,1787151523008,7566,15008,2569,-1541823,-422718,3202155,0,0,0,308,222,166,240,152,193,269,155,174,196,217,128,0,,,,
1,1787151523024,95,-181,10289,686612,-261450,10995,0,0,0,405,399,410,373,321,360,597,388,332,517,419,416,0,,,,
2,1787151523024,4714,13740,3661,-2819753,-80634,3429397,0,0,0,307,231,187,235,153,206,257,154,186,191,223,144,0,,,,
1,1787151523040,339,57,10509,726929,-240680,43982,0,0,0,403,395,378,383,331,367,583,352,328,505,405,429,0,,,,
2,1787151523040,3019,11021,5010,-4108679,-91629,3078760,0,0,0,304,238,201,228,151,215,244,162,189,183,226,157,0,,,,
1,1787151523056,588,52,10394,786794,-312763,43982,0,0,0,406,395,360,381,326,365,569,325,327,483,386,433,0,,,,
2,1787151523056,1938,8370,6613,-5128824,-59864,2079385,0,0,0,302,229,181,229,154,202,256,161,184,187,225,140,0,,,,
1,1787151523072,531,-134,10160,825889,-398284,32986,0,0,0,410,398,342,384,338,365,555,306,324,454,370,434,0,,,,
2,1787151523072,378,6963,8475,-5799554,30543,965167,0,0,0,302,233,185,234,154,206,241,157,183,185,225,139,0,,,,
1,1787151523088,229,-392,9916,838107,-441044,36651,0,0,0,405,394,329,383,335,366,545,300,329,443,346,440,0,,,,
2,1787151523088,-756,6039,10284,-6296798,76969,107512,0,0,0,304,236,185,238,154,205,245,157,182,189,226,138,0,,,,
1,1787151523104,-119,-622,9719,788016,-366519,69638,0,0,0,405,398,324,389,332,367,540,282,330,432,328,447,0,,,,
2,1787151523104,-961,5312,11940,-6618113,153938,-298102,0,0,0,293,245,184,213,156,203,233,161,177,170,224,130,0,,,,
1,1787151523120,-421,-832,9495,691499,-213802,128281,0,0,0,420,403,332,394,334,368,544,250,334,434,311,459,0,,,,
2,1787151523120,-660,4431,13591,-6840468,288328,-472809,0,0,0,298,247,189,212,158,198,234,161,179,173,225,132,0,,,,
1,1787151523136,-392,-981,9375,601091,-58643,199142,0,0,0,433,410,331,402,340,367,550,222,340,441,291,466,0,,,,
2,1787151523136,-71,3661,15439,-6944316,494800,-419053,0,0,0,295,241,190,210,152,204,236,161,181,171,222,133,0,,,,
1,1787151523152,-9,-1028,9495,564439,42760,255341,0,0,0,433,418,316,413,349,367,548,206,337,425,275,471,0,,,,
2,1787151523152,593,3010,17726,-6984633,769690,-169820,0,0,0,294,252,194,218,169,207,237,167,189,171,226,134,0,,,,
1,1787151523168,268,-1019,9820,596204,64751,287106,0,0,0,434,420,313,418,355,379,541,195,335,397,262,483,0,,,,
2,1787151523168,1024,1837,20598,-7023728,1111774,64751,0,0,0,290,242,191,219,165,212,233,156,184,171,222,134,0,,,,
1,1787151523184,143,-981,10165,684169,20769,311541,0,0,0,450,434,313,429,364,389,536,189,341,390,253,496,0,,,,
2,1787151523184,966,-33,24264,-7071376,1374446,163711,0,0,0,289,233,190,215,154,207,236,155,185,167,219,131,0,,,,
1,1787151523200,-186,-990,10552,810007,0,359188,0,0,0,473,457,312,436,380,389,540,179,334,387,244,525,0,,,,
2,1787151523200,1153,-3555,29145,-7187440,1364672,248011,0,0,0,289,232,191,216,155,206,232,152,182,165,213,128,0,,,,
1,1787151523216,-526,-1225,11021,1010371,18325,450818,0,0,0,485,458,277,451,393,398,542,171,341,385,228,531,0,,,,
2,1787151523216,2115,-9341,32711,-7270518,1209513,442266,0,0,0,289,235,190,220,165,212,231,150,183,167,211,128,0,,,,
1,1787151523232,-239,-1502,11289,1218065,19547,531452,0,0,0,501,452,244,455,434,383,537,167,332,374,215,562,0,,,,
2,1787151523232,3388,-19315,33342,-7060380,1155757,645073,0,0,0,290,236,187,222,167,211,239,151,187,173,216,134,0,,,,
1,1787151523248,708,-1526,11806,1464854,-20769,527787,0,0,0,508,463,226,457,410,410,525,153,338,348,187,574,0,,,,
2,1787151523248,-268,-32868,30045,-5933944,1666440,713490,0,0,0,293,238,187,227,167,209,251,151,187,193,216,140,0,,,,
1,1787151523264,1129,-1507,13093,1777617,-73303,436157,0,0,0,521,471,218,449,418,404,494,157,333,340,187,582,0,,,,
2,1787151523264,-6987,-44943,24139,-4053701,1722639,981049,0,0,0,294,241,185,233,172,212,256,153,184,199,216,143,0,,,,
1,1787151523280,397,-1536,14869,2280970,-32986,353080,0,0,0,532,462,202,442,424,405,469,162,331,322,187,580,0,,,,
2,1787151523280,-6207,-54658,15319,-1946216,725707,1164309,0,0,0,289,234,184,227,165,213,249,165,184,184,229,140,0,,,,
1,1787151523296,-349,-1531,16104,2959031,65973,361632,0,0,0,533,458,194,431,413,414,425,164,339,305,174,567,0,,,,
2,1787151523296,-3656,-58348,9681,73303,122173,674395,0,0,0,277,203,175,215,139,200,271,246,179,194,289,125,0,,,,
1,1787151523312,-626,-1531,16975,3754377,153938,456927,0,0,0,518,457,196,421,401,416,360,163,339,299,171,542,0,,,,
2,1787151523312,-4556,-43737,15367,2111150,-168598,35430,0,0,0,261,176,149,213,131,186,319,397,168,220,415,104,0,,,,
1,1787151523328,-1072,-1210,19210,4783074,243124,615752,0,0,0,488,450,210,413,398,410,305,166,352,276,170,500,0,,,,
2,1787151523328,-3029,-1239,20588,3683517,-1800830,323758,0,0,0,264,183,142,221,142,184,329,502,160,258,517,94,0,,,,
1,1787151523344,-2502,-1273,23326,6069557,370184,833220,0,0,0,448,439,217,403,391,396,285,176,360,244,167,449,0,,,,
2,1787151523344,-1478,20239,17559,4776966,-2863736,472809,0,0,0,285,195,158,234,138,196,376,579,155,350,589,97,0,,,,
1,1787151523360,-5857,-2038,29576,7663915,306654,1191187,0,0,0,401,407,203,368,358,363,292,182,339,229,168,396,0,,,,
2,1787151523360,-2790,2187,21832,5916840,-1887573,-51312,0,0,0,315,190,216,255,128,218,455,616,161,502,654,97,0,,,,
1,1787151523376,-8724,-2124,36242,9164200,-443488,1868025,0,0,0,342,327,196,293,268,304,325,195,302,251,203,347,0,,,,
2,1787151523376,-1335,-10078,27188,5744576,-943175,-485026,0,0,0,333,221,212,278,146,228,508,610,177,542,644,119,0,,,,
1,1787151523392,-8222,1775,41770,10004750,-1086118,2612059,0,0,0,295,249,211,238,181,260,363,216,285,278,249,317,0,,,,
2,1787151523392,1588,-6743,24082,3759264,-775798,-403171,0,0,0,349,256,236,300,168,246,535,585,177,540,634,144,0,,,,
1,1787151523408,-5967,16707,35113,9447641,-400727,3145955,0,0,0,300,249,221,249,188,269,375,209,288,275,240,319,0,,,,
2,1787151523408,287,-2301,15161,1874134,-483805,-144164,0,0,0,333,277,283,284,187,279,515,564,196,514,602,186,0,,,,
1,1787151523424,-5857,25838,20392,5506339,2120924,2309070,0,0,0,315,247,238,244,187,267,377,210,291,280,246,328,0,,,,
2,1787151523424,-473,-325,9882,930958,212581,-40317,0,0,0,323,288,294,291,206,286,514,543,216,499,564,189,0,,,,
1,1787151523440,-8365,23311,14414,227241,3158173,540004,0,0,0,316,245,235,238,188,263,373,237,290,277,269,327,0,,,,
2,1787151523440,607,-81,9509,945619,658512,-36651,0,0,0,316,276,267,300,230,290,513,527,209,502,537,187,0,,,,
1,1787151523456,-8920,14146,13031,-2985909,2229658,-1172861,0,0,0,320,252,225,235,189,255,370,233,283,280,272,326,0,,,,
2,1787151523456,1430,-392,10122,917519,372627,-17104,0,0,0,308,289,244,302,248,285,519,510,209,499,512,195,0,,,,
1,1787151523472,-7284,11615,9337,-2860071,1473406,-1749518,0,0,0,318,253,224,238,187,254,368,230,284,277,272,323,0,,,,
2,1787151523472,1450,-660,10251,735481,39095,-13439,0,0,0,306,305,243,300,267,286,511,496,212,477,491,202,0,,,,
1,1787151523488,-5833,11524,6417,-2992017,867428,-2051285,0,0,0,316,248,223,241,190,257,373,235,290,276,267,320,0,,,,
2,1787151523488,947,-670,10078,543670,-130725,-35430,0,0,0,305,324,241,302,275,295,500,479,210,444,474,200,0,,,,
1,1787151523504,-4819,10165,5881,-3806912,388510,-2214997,0,0,0,316,249,225,245,191,259,376,231,294,276,262,316,0,,,,
2,1787151523504,646,-397,10088,513126,-83077,-61086,0,0,0,304,324,241,304,278,299,480,444,207,415,438,192,0,,,,
1,1787151523520,-4465,7427,6944,-4418999,91629,-2129476,0,0,0,317,252,226,247,192,260,377,226,292,278,256,314,0,,,,
2,1787151523520,569,-57,10198,560774,-3665,-70860,0,0,0,304,311,230,307,279,297,460,408,203,386,410,189,0,,,,
1,1787151523536,-3876,5695,8542,-5020090,-116064,-1825265,0,0,0,317,256,228,249,195,260,377,222,288,290,251,308,0,,,,
2,1787151523536,598,38,10217,630412,37873,-65973,0,0,0,309,308,219,309,279,297,446,372,201,367,395,193,0,,,,
1,1787151523552,-3517,4627,9849,-5676159,-150272,-1502728,0,0,0,315,257,228,250,197,263,378,220,284,285,256,309,0,,,,
2,1787151523552,703,-215,10069,685390,65973,-65973,0,0,0,311,320,223,308,276,300,431,330,209,353,370,196,0,,,,
1,1787151523568,-3618,3374,11055,-6145304,-262672,-1241278,0,0,0,315,258,230,249,197,265,381,221,283,279,261,311,0,,,,
2,1787151523568,890,-574,9858,717155,65973,-87964,0,0,0,310,334,223,316,276,299,406,306,216,324,348,201,0,,,,
1,1787151523584,-3823,2325,12763,-6343224,-535117,-1099557,0,0,0,316,259,232,249,196,266,385,222,284,280,260,311,0,,,,
2,1787151523584,1091,-794,9528,703716,17104,-129503,0,0,0,317,341,228,323,287,295,383,286,209,324,353,209,0,,,,
1,1787151523600,-3862,1689,15056,-6470284,-807563,-1166752,0,0,0,313,258,231,248,193,265,388,221,287,282,262,312,0,,,,
2,1787151523600,1129,-947,9241,654847,-28099,-182037,0,0,0,315,362,217,301,293,290,372,279,214,311,359,206,0,,,,
1,1787151523616,-3900,942,17195,-6623000,-1016479,-1292590,0,0,0,308,259,229,244,190,264,391,218,289,284,261,312,0,,,,
2,1787151523616,899,-1110,9145,581543,-65973,-218689,0,0,0,342,365,223,320,325,308,382,259,222,315,327,214,0,,,,
1,1787151523632,-3953,-43,19865,-6776938,-1222952,-1401324,0,0,0,310,261,229,247,191,265,392,211,289,282,251,308,0,,,,
2,1787151523632,957,-1143,9308,535117,-120951,-237015,0,0,0,315,371,238,320,351,304,379,234,222,308,313,214,0,,,,
1,1787151523648,-4211,-1325,22914,-6869790,-1420872,-1324355,0,0,0,309,264,230,251,194,268,395,207,291,286,245,305,0,,,,
2,1787151523648,1239,-1129,9490,540004,-171042,-294437,0,0,0,321,347,226,336,299,333,377,209,227,302,298,242,0,,,,
1,1787151523664,-4335,-4560,26479,-6935763,-1650557,-867428,0,0,0,309,264,230,254,198,271,397,205,291,307,238,302,0,,,,
2,1787151523664,1148,-1162,9729,590095,-202807,-379958,0,0,0,336,355,229,352,296,348,398,204,254,299,277,270,0,,,,
1,1787151523680,-3933,-9203,28982,-6976081,-1706757,-298102,0,0,0,308,267,230,256,198,276,401,202,296,282,237,305,0,,,,
2,1787151523680,1196,-1325,10021,685390,-188146,-450818,0,0,0,348,386,277,373,349,385,396,190,266,303,272,283,0,,,,
1,1787151523696,-2967,-16266,29389,-6893003,-1635897,162490,0,0,0,307,267,231,256,197,276,403,201,293,282,235,308,0,,,,
2,1787151523696,1397,-1536,10260,797790,-124616,-548556,0,0,0,367,409,240,358,369,398,390,183,273,283,258,314,0,,,,
1,1787151523712,-100,-26738,26733,-6218608,-1721418,338419,0,0,0,309,268,232,260,201,275,406,209,293,287,244,308,0,,,,
2,1787151523712,957,-1574,10691,933402,-40317,-648738,0,0,0,406,416,228,368,365,408,371,165,281,277,239,328,0,,,,
1,1787151523728,3981,-35147,22225,-4954117,-1643227,221133,0,0,0,308,269,230,262,200,278,409,206,294,287,240,309,0,,,,
2,1787151523728,19,-1421,11816,1204626,6108,-624304,0,0,0,431,415,211,397,367,410,362,147,271,279,223,337,0,,,,
1,1787151523744,6317,-42076,15376,-3152064,-1152091,-204028,0,0,0,307,263,229,262,193,275,416,203,292,290,239,310,0,,,,
2,1787151523744,148,-1378,13505,1610240,95294,-525344,0,0,0,440,422,201,406,390,401,349,155,273,278,224,337,0,,,,
1,1787151523760,5484,-47039,9361,-1362229,-516791,-581543,0,0,0,304,247,223,256,180,269,424,242,289,323,289,295,0,,,,
2,1787151523760,851,-1407,15099,2252871,116064,-480140,0,0,0,436,430,204,392,412,395,306,161,284,266,224,347,0,,,,
1,1787151523776,2038,-46982,7657,208915,-123394,-715934,0,0,0,291,231,185,247,174,258,464,375,275,359,398,267,0,,,,
2,1787151523776,1785,-1521,15975,3131295,46425,-514348,0,0,0,437,436,208,370,412,389,246,155,283,248,221,357,0,,,,
1,1787151523792,4273,-37372,12897,2541199,472809,-877202,0,0,0,294,234,172,255,176,264,499,480,274,412,469,248,0,,,,
2,1787151523792,2517,-1608,16515,4090353,6108,-674395,0,0,0,452,439,201,370,410,381,202,151,274,231,216,343,0,,,,
1,1787151523808,7384,-15745,16836,4657236,2250427,-1304808,0,0,0,298,239,181,265,174,277,530,531,284,468,512,244,0,,,,
2,1787151523808,3579,-1584,18626,5340183,80634,-976162,0,0,0,438,426,187,392,413,371,178,140,259,217,198,305,0,,,,
1,1787151523824,7130,7016,22096,5354844,3462384,-1251052,0,0,0,310,233,205,277,168,296,570,571,300,538,560,258,0,,,,
2,1787151523824,5436,-1847,21923,6699969,177150,-1364672,0,0,0,373,387,177,372,389,354,162,127,242,201,169,251,0,,,,
1,1787151523840,6135,3642,26451,4883256,2232101,-116064,0,0,0,334,253,261,299,183,323,604,601,320,597,597,287,0,,,,
2,1787151523840,7264,-2727,29083,8233241,299323,-1916895,0,0,0,308,331,164,315,340,308,155,126,222,164,155,196,0,,,,
1,1787151523856,2134,-6164,26365,3685960,990823,612086,0,0,0,357,308,335,318,230,343,614,597,341,615,615,316,0,,,,
2,1787151523856,8006,-3043,37846,9283929,629191,-2366491,0,0,0,293,275,158,243,233,217,182,150,188,159,188,153,0,,,,
1,1787151523872,-2115,-8475,20301,1822821,735481,366519,0,0,0,379,347,388,335,277,349,615,573,347,631,627,339,0,,,,
2,1787151523872,7973,-382,43450,9413433,1406211,-2675589,0,0,0,287,218,165,209,150,185,237,155,174,169,203,128,0,,,,
1,1787151523888,86,-2407,12974,878424,686612,-89186,0,0,0,387,367,412,351,303,347,616,561,331,647,631,352,0,,,,
2,1787151523888,6690,11701,35687,8070751,1387885,-2995683,0,0,0,293,221,162,213,147,181,242,155,179,177,205,133,0,,,,
1,1787151523904,1531,689,10232,658512,117286,-185703,0,0,0,390,399,428,349,316,343,618,555,355,648,615,369,0,,,,
2,1787151523904,5350,22627,23373,5127602,-251676,-2752558,0,0,0,309,233,163,226,153,181,256,155,174,192,209,135,0,,,,
1,1787151523920,574,349,10758,709825,-340862,-90408,0,0,0,389,429,409,343,304,338,618,526,363,637,581,375,0,,,,
2,1787151523920,5240,23842,15448,940732,-2480112,-1242499,0,0,0,313,218,175,232,146,191,253,151,178,192,207,145,0,,,,
1,1787151523936,-220,-119,10835,658512,-301767,-46425,0,0,0,396,392,405,354,318,353,627,499,355,605,557,390,0,,,,
2,1787151523936,7810,17071,9538,-1132544,-3018896,625526,0,0,0,317,216,191,223,139,198,244,150,180,188,210,149,0,,,,
1,1787151523952,-105,-38,10524,613308,-200363,-26878,0,0,0,396,414,389,350,320,359,563,468,365,587,524,411,0,,,,
2,1787151523952,9274,14687,4757,-1613905,-1932777,1648114,0,0,0,319,217,188,220,136,193,239,156,180,184,210,147,0,,,,
1,1787151523968,320,124,10466,645073,-265115,-23212,0,0,0,403,430,371,362,332,363,582,437,356,560,495,416,0,,,,
2,1787151523968,6939,15419,3953,-2366491,-700051,2040289,0,0,0,319,222,188,217,138,191,237,155,175,180,207,143,0,,,,
1,1787151523984,277,181,10624,725707,-386066,-19547,0,0,0,408,437,340,362,328,348,562,397,373,533,460,430,0,,,,
2,1787151523984,4067,13390,4900,-3800803,-404392,2218662,0,0,0,315,223,189,224,140,192,243,154,175,180,210,138,0,,,,
1,1787151524000,47,220,10629,833220,-456927,-2443,0,0,0,407,425,316,356,334,341,543,364,372,489,428,427,0,,,,
2,1787151524000,2727,9767,5987,-5016425,-268780,1903456,0,0,0,310,227,190,223,145,194,244,155,179,177,213,136,0,,,,
1,1787151524016,67,277,10399,907745,-469144,14660,0,0,0,407,412,299,364,323,358,530,321,385,473,389,436,0,,,,
2,1787151524016,1416,7240,7882,-5671272,138055,1073901,0,0,0,307,229,192,221,148,196,245,155,181,175,212,137,0,,,,
1,1787151524032,-19,162,10260,941954,-463035,28099,0,0,0,406,410,290,367,333,358,521,295,364,433,357,444,0,,,,
2,1787151524032,-1282,5862,10619,-6191730,351858,221133,0,0,0,315,229,192,223,149,196,249,156,183,175,210,133,0,,,,
1,1787151524048,-421,-229,10117,939510,-381179,52534,0,0,0,416,418,282,369,341,355,512,267,357,414,331,455,0,,,,
2,1787151524048,-3038,4867,12763,-6575353,246789,-278554,0,0,0,321,233,194,223,151,195,249,154,183,175,209,128,0,,,,
1,1787151524064,-1000,-837,9853,906524,-160046,106290,0,0,0,433,428,283,373,339,354,507,236,353,409,300,468,0,,,,
2,1787151524064,-2847,4235,14309,-6798930,144164,-354301,0,0,0,316,235,200,221,148,197,243,149,177,173,209,132,0,,,,
1,1787151524080,-1249,-1191,9686,853989,194255,207694,0,0,0,454,435,283,379,344,358,505,211,356,396,275,477,0,,,,
2,1787151524080,-2029,3421,15884,-7002959,150272,-279776,0,0,0,313,235,199,221,150,199,240,151,179,171,210,132,0,,,,
1,1787151524096,-1081,-1172,9652,813672,430049,315206,0,0,0,463,440,278,379,355,364,502,197,361,382,262,487,0,,,,
2,1787151524096,-574,2402,17415,-7079928,235793,-58643,0,0,0,311,228,196,219,152,201,237,151,180,172,210,134,0,,,,
1,1787151524112,-612,-1153,9719,801455,498466,420275,0,0,0,468,452,274,379,359,362,501,184,351,381,247,503,0,,,,
2,1787151524112,952,1584,19114,-7016398,493579,175929,0,0,0,306,233,194,215,148,197,238,151,179,173,213,135,0,,,,
1,1787151524128,9,-1201,10102,866206,420275,483805,0,0,0,491,477,262,400,373,363,508,179,356,388,241,517,0,,,,
2,1787151524128,1660,507,21785,-6946759,941954,290771,0,0,0,298,232,188,218,156,203,237,154,183,163,211,128,0,,,,
1,1787151524144,402,-1335,10581,994488,371406,487470,0,0,0,499,508,251,408,384,376,506,187,371,381,246,538,0,,,,
2,1787151524144,1258,-1751,25809,-7070154,1230282,252898,0,0,0,293,227,186,221,158,206,235,146,182,170,215,136,0,,,,
1,1787151524160,545,-1488,10849,1159422,382401,450818,0,0,0,511,506,248,409,381,378,492,200,372,367,235,554,0,,,,
2,1787151524160,1292,-6556,29293,-7349930,1047023,240680,0,0,0,298,236,186,216,154,200,232,154,181,164,212,132,0,,,,
1,1787151524176,875,-1550,10940,1321912,349414,403171,0,0,0,523,505,243,418,399,389,506,168,390,356,215,563,0,,,,
2,1787151524176,2148,-14328,31045,-7419569,833220,265115,0,0,0,285,235,185,216,159,197,226,149,175,160,206,138,0,,,,
1,1787151524192,1488,-1679,11036,1506393,221133,315206,0,0,0,539,512,235,418,403,397,488,168,373,332,199,563,0,,,,
2,1787151524192,2053,-25929,29643,-6807482,1009149,193033,0,0,0,289,245,190,215,164,202,222,148,188,160,207,132,0,,,,
1,1787151524208,1708,-1904,11701,1715309,25656,186924,0,0,0,539,507,233,420,404,392,486,156,361,339,196,578,0,,,,
2,1787151524208,-2019,-37358,26656,-5600412,1475850,41538,0,0,0,294,247,201,215,163,220,228,151,212,165,210,143,0,,,,
1,1787151524224,660,-1943,13807,2111150,-113620,80634,0,0,0,539,484,226,421,417,402,448,157,378,317,183,568,0,,,,
