sole_id,timestamp,accel_x,accel_y,accel_z,gyro_x,gyro_y,gyro_z,magn_x,magn_y,magn_z,pressure_01,pressure_02,pressure_03,pressure_04,pressure_05,pressure_06,pressure_07,pressure_08,pressure_09,pressure_10,pressure_11,pressure_12,corrupt,asphalt,brick,concrete
1,1786544078960,57,492,10141,850324,-291993,-13439,0,0,0,328,256,313,312,220,297,603,367,297,449,434,329,0,,,
2,1786544078960,-4709,-4661,6733,-142942,-342084,263893,0,0,0,267,196,251,169,104,200,227,150,214,184,229,195,0,,,
1,1786544078976,-119,239,10040,896750,-350636,-28099,0,0,0,317,261,321,308,235,311,591,349,328,447,410,343,0,,,
2,1786544078976,-3886,-3670,12691,-1734857,-1396437,861319,0,0,0,273,192,256,174,104,207,224,149,218,187,230,201,0,,,
1,1786544078992,-382,43,9782,879645,-324980,-10995,0,0,0,318,262,322,322,239,315,584,351,330,430,417,341,0,,,
2,1786544078992,1186,1416,12945,-4613254,-1060462,372627,0,0,0,269,191,257,173,104,212,225,148,226,194,236,201,0,,,
1,1786544079008,-526,-143,9509,791681,-248011,19547,0,0,0,313,287,321,303,233,295,578,344,304,394,389,341,0,,,
2,1786544079008,3776,3287,11897,-6593679,529009,-345749,0,0,0,269,192,256,175,103,215,228,151,224,191,231,198,0,,,
1,1786544079024,-512,-335,9389,642630,-135612,53756,0,0,0,317,305,328,325,265,313,596,345,311,402,385,367,0,,,
2,1786544079024,2660,746,13381,-6588792,1437976,117286,0,0,0,261,187,262,173,103,214,224,150,221,187,229,198,0,,,
1,1786544079040,-435,-430,9576,514348,-41538,70860,0,0,0,329,297,319,337,266,348,584,310,354,395,363,375,0,,,
2,1786544079040,1617,-933,15386,-6192951,1560149,968832,0,0,0,275,187,255,181,101,211,227,150,217,194,230,199,0,,,
1,1786544079056,-344,-449,9834,448375,8552,83077,0,0,0,349,307,318,342,269,343,576,269,343,391,345,385,0,,,
2,1786544079056,2019,-918,17094,-6195395,1569923,1495398,0,0,0,274,187,260,182,103,211,235,152,219,194,230,195,0,,,
1,1786544079072,-349,-445,10098,452040,14660,95294,0,0,0,365,331,326,346,291,340,576,255,336,386,334,402,0,,,
2,1786544079072,2440,-1407,19420,-6293133,1777617,1688431,0,0,0,258,186,248,172,102,206,239,151,217,193,233,191,0,,,
1,1786544079088,-478,-445,10299,511905,34208,122173,0,0,0,378,353,329,359,313,343,575,238,337,370,303,414,0,,,
2,1786544079088,1134,-3283,22828,-6411641,1962099,1422094,0,0,0,260,191,248,172,105,210,237,148,221,194,237,192,0,,,
1,1786544079104,-598,-478,10504,601091,91629,161268,0,0,0,392,359,337,369,326,344,569,212,337,361,263,430,0,,,
2,1786544079104,-1162,-7111,25814,-6653544,1683544,992045,0,0,0,267,198,241,179,106,198,241,153,199,198,235,182,0,,,
1,1786544079120,-794,-531,10792,739146,155159,224798,0,0,0,401,359,339,367,329,356,553,194,345,347,236,463,0,x,,
2,1786544079120,-2823,-13515,27494,-6805038,1343903,632856,0,0,0,268,196,235,182,106,189,249,161,183,202,228,176,0,x,,
1,1786544079136,-727,-622,11342,957836,189368,311541,0,0,0,413,380,305,374,327,374,531,176,347,311,210,490,0,,,
2,1786544079136,-3675,-23273,27590,-6517932,1117883,213802,0,0,0,262,189,235,176,102,189,251,164,187,196,219,176,0,,,
1,1786544079152,-368,-770,11940,1275486,210137,377514,0,0,0,440,398,268,397,362,366,527,173,349,321,207,506,0,,,
2,1786544079152,-3776,-35281,25048,-5392718,772133,-593761,0,0,0,259,187,232,172,100,186,252,164,185,192,215,174,0,,,
1,1786544079168,52,-1024,12380,1654223,155159,390953,0,0,0,460,416,243,411,389,373,505,180,350,330,207,524,0,,,
2,1786544079168,-3086,-43546,19349,-3803246,359188,-1198517,0,0,0,262,184,228,178,98,183,263,180,182,206,235,176,0,,,
1,1786544079184,-14,-1215,13079,2035402,15882,368962,0,0,0,464,433,231,391,387,379,475,187,367,310,202,541,0,,,
2,1786544079184,-4465,-47575,14008,-1850921,356745,-734260,0,0,0,272,177,225,191,91,180,294,232,177,240,304,170,0,,,
1,1786544079200,-90,-1186,14075,2469117,-61086,365297,0,0,0,478,417,202,375,406,371,454,189,372,307,189,542,0,,,
2,1786544079200,-6968,-48690,15151,657290,238237,376292,0,0,0,279,181,220,210,101,179,335,317,164,294,441,155,0,,,
1,1786544079216,-86,-1153,14773,3033556,-31764,368962,0,0,0,481,395,200,400,371,398,411,185,396,293,186,562,0,,,
2,1786544079216,-5637,-25896,18200,3838677,-591317,1273043,0,0,0,272,194,181,221,139,172,347,438,154,308,557,149,0,,,
1,1786544079232,-153,-1373,15137,3701843,-51312,370184,0,0,0,463,394,201,393,354,409,356,153,370,276,166,536,0,,,
2,1786544079232,-2388,3498,18243,4495968,-1617571,564439,0,0,0,267,183,190,230,130,164,357,480,134,343,585,147,0,,,
1,1786544079248,-57,-1383,16037,4345695,-109955,375071,0,0,0,436,391,205,393,374,412,301,163,365,249,156,516,0,,,
2,1786544079248,-985,8126,17908,4342030,-1602910,-480140,0,0,0,272,183,203,222,117,178,373,499,139,388,612,149,0,,,
1,1786544079264,-435,-1579,17535,5026199,-142942,389732,0,0,0,421,378,191,395,368,383,314,165,317,244,157,461,0,,,
2,1786544079264,440,-722,19018,3827681,-433714,-763581,0,0,0,285,199,210,220,121,185,403,497,147,396,641,138,0,,,
1,1786544079280,-1780,-2167,20899,5872858,-150272,480140,0,0,0,383,351,187,368,355,352,285,172,296,222,161,413,0,,,
2,1786544079280,2043,-3359,17942,2950479,267558,-526565,0,0,0,295,195,227,232,123,184,429,497,164,449,645,139,0,,,
1,1786544079296,-3665,-2388,25958,6731734,-130725,657290,0,0,0,360,305,188,329,305,313,276,167,289,213,152,368,0,,,
2,1786544079296,2938,-593,13797,1870469,149051,-190589,0,0,0,292,209,249,224,113,190,435,520,167,428,649,143,0,,,
1,1786544079312,-4809,-1421,29753,7465994,-119729,945619,0,0,0,320,279,194,279,234,273,306,183,274,228,190,332,0,,,
2,1786544079312,2325,354,10940,1152091,-208915,-69638,0,0,0,302,210,260,218,107,196,436,521,148,467,642,151,0,,,
1,1786544079328,-5283,349,32021,8062199,-260228,1251052,0,0,0,276,250,211,227,195,247,324,212,268,223,238,304,0,,,
2,1786544079328,1837,-181,10275,591317,-398284,-35430,0,0,0,315,208,260,238,109,198,472,528,157,505,644,163,0,,,
1,1786544079344,-7571,5455,29906,8350527,-587652,1662775,0,0,0,262,219,223,206,177,237,323,221,270,213,251,287,0,,,
2,1786544079344,1612,-172,10567,164933,-434936,-28099,0,0,0,332,223,268,248,112,203,485,537,164,500,641,157,0,,,
1,1786544079360,-9509,13314,21162,6786712,-814894,2144136,0,0,0,273,218,224,210,165,235,325,213,266,223,244,290,0,,,
2,1786544079360,1397,631,10437,31764,-365297,-31764,0,0,0,332,232,269,248,120,208,466,527,157,487,639,159,0,,,
1,1786544079376,-6867,17741,17961,2715906,-593761,1965764,0,0,0,279,222,227,199,167,226,335,219,264,227,244,297,0,,,
2,1786544079376,1172,1153,10212,54977,-217468,-47647,0,0,0,329,239,274,235,122,200,445,509,155,461,638,164,0,,,
1,1786544079392,-2646,14893,17511,-1731192,803898,678060,0,0,0,276,212,223,195,164,221,337,221,261,226,248,291,0,,,
2,1786544079392,1081,1139,10050,160046,-50090,-62308,0,0,0,327,243,270,227,120,196,439,492,165,441,634,166,0,,,
1,1786544079408,-4101,9150,12792,-3233920,2284635,-691499,0,0,0,277,220,230,194,154,226,334,220,262,223,247,291,0,,,
2,1786544079408,1129,1067,9901,238237,86742,-64751,0,0,0,323,242,258,231,124,203,432,477,173,428,622,170,0,,,
1,1786544079424,-7666,7135,7126,-2514321,1243721,-1265712,0,0,0,269,206,222,188,153,228,334,214,255,216,244,283,0,,,
2,1786544079424,1320,1086,9777,295658,160046,-65973,0,0,0,328,245,261,237,127,205,423,459,166,422,606,174,0,,,
1,1786544079440,-4876,7575,6661,-2568077,-458148,-1491732,0,0,0,265,207,222,185,151,228,333,212,251,218,245,284,0,,,
2,1786544079440,1588,1119,9648,335975,130725,-75747,0,0,0,330,243,260,243,124,204,426,433,159,441,599,179,0,,,
1,1786544079456,-971,6905,8088,-3360980,-514348,-1933999,0,0,0,262,208,222,183,150,229,333,211,248,220,246,286,0,,,
2,1786544079456,1756,1062,9432,345749,-25656,-105068,0,0,0,326,239,264,246,124,207,425,425,164,428,586,180,0,,,
1,1786544079472,-631,5403,8647,-4063475,7330,-2180788,0,0,0,259,216,216,179,155,223,333,214,248,281,237,275,0,,,
2,1786544079472,1670,995,9294,331088,-184481,-127059,0,0,0,322,243,270,226,115,198,418,414,164,419,571,175,0,,,
1,1786544079488,-2522,3484,8528,-4592484,125838,-1798387,0,0,0,255,212,212,184,163,226,334,215,249,231,246,276,0,,,
2,1786544079488,1368,918,9274,306654,-259006,-127059,0,0,0,322,242,276,221,116,197,409,401,168,404,556,174,0,,,
1,1786544079504,-2531,2134,8982,-4994434,-403171,-911410,0,0,0,260,216,215,187,161,226,342,220,253,222,251,277,0,,,
2,1786544079504,1110,842,9313,280998,-249233,-117286,0,0,0,324,233,286,226,117,205,408,393,168,404,548,182,0,,,
1,1786544079520,-961,1478,10557,-5461135,-729373,-123394,0,0,0,263,219,217,189,161,227,343,222,251,222,253,275,0,,,
2,1786544079520,1081,775,9380,260228,-177150,-101403,0,0,0,326,234,305,248,124,230,418,401,175,394,541,190,0,,,
1,1786544079536,-162,837,12471,-6040235,-752585,249233,0,0,0,262,218,215,191,163,227,343,220,248,222,253,274,0,,,
2,1786544079536,1229,770,9423,257785,-134390,-95294,0,0,0,334,259,297,260,146,235,441,405,186,410,539,188,0,,,
1,1786544079552,-593,-626,13620,-6450736,-739146,76969,0,0,0,259,217,215,191,163,230,344,218,249,223,249,276,0,,,
2,1786544079552,1340,808,9509,294437,-142942,-106290,0,0,0,319,270,327,256,162,265,417,405,215,394,547,205,0,,,
1,1786544079568,-990,-2349,14242,-6503271,-822224,-248011,0,0,0,257,216,218,189,160,230,343,216,253,223,246,278,0,,,
2,1786544079568,1349,847,9657,386066,-178372,-131946,0,0,0,346,294,331,284,174,272,435,358,205,426,536,215,0,,,
1,1786544079584,-1440,-3388,14898,-6218608,-934623,-748920,0,0,0,259,218,219,187,160,226,341,212,254,223,247,273,0,,,
2,1786544079584,1273,804,9839,532674,-186924,-156381,0,0,0,339,316,318,290,195,265,458,318,218,399,510,231,0,,,
1,1786544079600,-2354,-3546,16501,-5986479,-1047023,-1358564,0,0,0,267,217,217,192,161,228,341,209,255,230,240,268,0,,,
2,1786544079600,1249,674,10093,693942,-162490,-174707,0,0,0,335,296,329,296,194,302,440,284,243,377,480,229,0,,,
1,1786544079616,-3206,-4685,18607,-5958379,-1174082,-1888795,0,0,0,276,215,216,197,159,224,344,201,256,237,228,266,0,,,
2,1786544079616,1392,425,10413,836885,-128281,-186924,0,0,0,360,310,356,320,203,332,433,256,260,362,437,245,0,,,
1,1786544079632,-3718,-7901,20717,-6084217,-1293812,-2246762,0,0,0,259,228,219,193,166,222,353,202,261,240,226,270,0,,,
2,1786544079632,1622,143,10610,950506,-112399,-206472,0,0,0,395,340,353,357,247,335,439,220,262,343,383,259,0,,,
1,1786544079648,-3077,-13797,21660,-6068335,-1472185,-2240653,0,0,0,255,237,208,198,169,224,345,200,257,248,220,268,0,,,
2,1786544079648,1799,134,10619,1033583,-96516,-254119,0,0,0,409,376,332,382,306,365,415,208,258,324,343,269,0,,,
1,1786544079664,-684,-21182,21641,-5728694,-1594358,-2023185,0,0,0,257,204,208,209,156,232,346,190,254,233,215,260,0,,,
2,1786544079664,2067,81,11079,1178969,-98960,-353080,0,0,0,420,408,322,378,336,373,366,204,266,309,318,294,0,,,
1,1786544079680,2756,-29719,20248,-4886921,-1275486,-1606575,0,0,0,266,209,211,214,152,232,361,189,252,236,212,261,0,,,
2,1786544079680,2301,-57,12242,1457524,-173485,-482583,0,0,0,448,430,315,370,363,346,324,178,288,298,291,329,0,,,
1,1786544079696,2397,-36037,17161,-3681073,-388510,-734260,0,0,0,266,225,214,211,170,232,370,199,255,243,222,261,0,,,
2,1786544079696,2335,-181,13950,1992642,-324980,-620639,0,0,0,476,459,284,384,420,366,290,161,288,303,276,354,0,,,
1,1786544079712,-76,-39080,13256,-2572964,294437,470366,0,0,0,274,212,208,228,159,229,389,195,250,254,221,255,0,,,
2,1786544079712,2110,-105,15171,2774549,-438601,-731816,0,0,0,518,449,244,377,408,352,271,157,249,338,289,359,0,,,
1,1786544079728,-95,-38568,9638,-1367116,251676,1413542,0,0,0,276,215,209,230,164,225,392,196,251,261,228,257,0,,,
2,1786544079728,1675,62,15611,3494149,-529009,-778242,0,0,0,525,474,286,371,425,362,231,158,256,306,281,358,0,,,
1,1786544079744,2617,-35874,8332,-45204,-45204,1331686,0,0,0,263,201,210,216,142,220,404,204,252,275,252,244,0,,,
2,1786544079744,1655,-81,15520,4225965,-580321,-784350,0,0,0,504,450,281,369,416,372,191,177,230,244,259,347,0,,,
1,1786544079760,4015,-29648,9499,1324355,-122173,434936,0,0,0,242,173,182,206,123,209,436,293,241,295,358,224,0,,,
2,1786544079760,2167,-368,15927,5004208,-599869,-841772,0,0,0,478,448,253,345,385,374,176,159,246,224,250,286,0,,,
1,1786544079776,-507,-6116,15094,2217440,461814,-216246,0,0,0,239,165,155,216,125,201,474,415,227,326,477,200,0,,,
2,1786544079776,3019,-536,17755,5776341,-642630,-982271,0,0,0,410,473,290,363,419,370,152,141,206,191,222,267,0,,,
1,1786544079792,-3972,17741,14706,2613281,1783726,-467922,0,0,0,249,178,155,221,134,204,494,498,223,369,523,178,0,,,
2,1786544079792,5039,-1363,21277,6615670,-863763,-1254717,0,0,0,348,425,226,332,353,293,154,123,189,182,189,196,0,,,
1,1786544079808,-1076,14204,12840,3237585,3061656,-232128,0,0,0,250,181,168,218,139,214,509,549,233,410,542,169,0,,,
2,1786544079808,7312,-2459,25259,7261965,-1128878,-1588249,0,0,0,291,315,220,276,294,257,145,122,163,184,189,199,0,,,
1,1786544079824,1876,-3345,19253,3413514,2728124,65973,0,0,0,252,180,205,231,136,223,529,565,244,442,569,172,0,,,
2,1786544079824,8226,-2507,29719,7760431,-904080,-1988977,0,0,0,251,255,188,216,209,204,176,145,155,165,203,178,0,,,
1,1786544079840,1794,-6341,22196,2619390,1842369,76969,0,0,0,258,196,264,242,135,237,553,570,242,472,591,188,0,,,
2,1786544079840,6791,641,33524,7924143,-273667,-2277305,0,0,0,244,231,215,174,150,182,205,163,164,171,231,182,0,,,
1,1786544079856,1684,-440,17865,1654223,1067792,-78190,0,0,0,282,223,311,261,146,249,580,573,244,492,591,207,0,,,
2,1786544079856,7920,8872,30121,7511198,-191811,-2421469,0,0,0,248,221,217,167,138,176,212,167,164,182,241,176,0,,,
1,1786544079872,2072,1072,13290,1144761,412944,-28099,0,0,0,298,228,339,259,157,255,585,571,258,481,594,235,0,,,
2,1786544079872,10863,20502,20650,5640729,-638965,-2246762,0,0,0,253,217,219,168,135,178,212,165,163,184,236,169,0,,,
1,1786544079888,1258,220,11380,874759,-221133,61086,0,0,0,297,249,336,258,163,263,613,557,273,480,587,272,0,,,
2,1786544079888,8896,24790,17343,1463633,-1127657,-746477,0,0,0,270,218,222,184,130,176,238,160,157,195,236,168,0,,,
1,1786544079904,28,-134,11189,730594,-558330,23212,0,0,0,282,238,333,258,167,263,629,548,282,473,569,274,0,,,
2,1786544079904,7126,20473,13266,-1852143,-1981646,1238834,0,0,0,283,224,222,195,128,172,256,161,153,204,244,165,0,,,
1,1786544079920,-449,363,10878,624304,-553443,-46425,0,0,0,285,238,333,262,182,271,621,533,297,464,551,281,0,,,
2,1786544079920,9662,14343,7178,-2298075,-1599245,2103819,0,0,0,281,229,223,189,131,171,248,172,156,201,255,163,0,,,
1,1786544079936,-492,665,10614,580321,-423940,-67195,0,0,0,293,243,332,272,186,277,624,500,297,476,524,297,0,,,
2,1786544079936,8949,12199,5068,-2290744,-91629,2074498,0,0,0,280,229,225,186,134,174,243,179,160,197,265,163,0,,,
1,1786544079952,-282,775,10471,626747,-283441,-37873,0,0,0,296,247,341,269,189,272,613,471,288,470,509,304,0,,,
2,1786544079952,3833,11816,7231,-2940705,950506,1828930,0,0,0,288,230,227,194,136,177,248,180,160,198,268,161,0,,,
1,1786544079968,-90,827,10375,717155,-250454,-9773,0,0,0,289,265,331,268,217,282,604,448,286,450,474,308,0,,,
2,1786544079968,1689,9102,8853,-4064697,432492,1723861,0,0,0,302,235,225,207,136,174,268,181,155,219,268,158,0,,,
1,1786544079984,9,794,10270,823446,-315206,-1221,0,0,0,289,254,318,280,207,283,594,419,299,432,443,313,0,,,
2,1786544079984,2115,6087,9341,-4812396,150272,1296256,0,0,0,314,232,220,217,138,171,281,177,151,250,267,157,0,,,
1,1786544080000,-71,641,10189,923628,-404392,-3665,0,0,0,292,249,312,288,206,292,567,380,310,410,426,331,0,,,
2,1786544080000,1837,3900,10289,-5324301,326202,518013,0,0,0,292,236,225,200,142,175,257,184,154,210,274,162,0,,,
1,1786544080016,-325,392,10045,974940,-408057,-3665,0,0,0,295,255,325,290,218,305,551,347,317,391,410,344,0,,,
2,1786544080016,765,2967,11820,-5743354,397062,-57421,0,0,0,295,235,234,204,146,184,262,187,160,211,276,165,0,,,
1,1786544080032,-536,138,9830,963945,-331088,3665,0,0,0,299,277,348,299,237,310,549,326,313,383,395,344,0,,,
2,1786544080032,502,2469,13290,-6093991,422718,-268780,0,0,0,293,234,228,202,144,178,262,189,159,212,277,164,0,,,
1,1786544080048,-641,-23,9619,875980,-206472,25656,0,0,0,306,311,355,313,256,317,543,295,297,386,378,354,0,,,
2,1786544080048,856,1895,14845,-6403089,560774,-129503,0,0,0,293,237,235,202,145,177,260,188,156,208,278,164,0,,,
1,1786544080064,-636,-143,9609,759916,-97738,65973,0,0,0,332,318,345,329,249,330,545,249,299,398,346,380,0,,,
2,1786544080064,1354,904,16262,-6607118,786794,276111,0,0,0,293,239,224,204,146,174,264,192,155,205,277,155,0,,,
1,1786544080080,-603,-315,9786,670730,-15882,103847,0,0,0,362,325,332,353,270,328,552,237,322,388,309,402,0,,,
2,1786544080080,2043,0,17937,-6709743,1017701,788016,0,0,0,279,238,225,186,146,174,236,192,156,191,277,157,0,,,
1,1786544080096,-612,-488,10054,648738,24434,129503,0,0,0,379,343,334,364,285,337,559,216,327,381,281,398,0,,,
2,1786544080096,2828,-1253,20693,-6784269,1315803,1160643,0,0,0,278,234,231,183,146,181,223,187,160,183,276,157,0,,,
1,1786544080112,-689,-545,10265,674395,58643,171042,0,0,0,381,357,353,363,318,345,562,197,344,351,273,423,0,,,
2,1786544080112,2455,-3785,23809,-6922324,1566258,1109331,0,0,0,263,228,239,177,141,187,217,176,159,177,260,162,0,,,
1,1786544080128,-818,-540,10394,734260,85521,239459,0,0,0,407,364,314,372,331,356,536,197,359,337,252,454,0,,,
2,1786544080128,1153,-7939,26499,-7060380,1593136,724486,0,0,0,262,224,229,177,136,179,220,171,153,179,257,164,0,,,
1,1786544080144,-684,-626,10787,866206,87964,321315,0,0,0,403,408,298,386,333,353,530,207,369,321,235,464,0,,,
2,1786544080144,-301,-14472,28221,-7001737,1545489,311541,0,0,0,265,224,220,175,133,173,223,174,154,178,254,159,0,,,
1,1786544080160,-363,-741,11423,1072679,79412,367740,0,0,0,437,396,278,394,334,366,523,193,377,316,210,485,0,,,
2,1786544080160,-2608,-24034,28834,-6652322,1590693,-29321,0,0,0,264,224,219,172,133,175,222,176,155,177,250,156,0,,,
1,1786544080176,134,-875,12026,1402546,15882,361632,0,0,0,441,406,250,410,331,382,532,181,388,304,183,500,0,,,
2,1786544080176,-6135,-36128,27015,-5703037,1419650,-436157,0,0,0,262,220,225,174,133,182,225,172,164,181,256,169,0,,,
1,1786544080192,454,-1038,12246,1725083,-139277,306654,0,0,0,450,399,233,410,356,387,521,181,364,287,177,510,0,,,
2,1786544080192,-6546,-44977,20287,-3999945,533896,-790459,0,0,0,254,212,231,171,132,191,232,173,174,180,260,177,0,,,
1,1786544080208,157,-1153,13127,2100154,-311541,240680,0,0,0,451,407,213,409,400,383,478,184,376,280,193,527,0,,,
2,1786544080208,-4800,-49997,12907,-2029294,59864,-713490,0,0,0,249,206,231,171,131,192,230,173,172,178,260,168,0,,,
1,1786544080224,-531,-1110,14510,2566855,-343306,227241,0,0,0,460,416,204,410,409,399,422,203,392,283,197,547,0,,,
2,1786544080224,-5551,-50921,10102,-130725,343306,79412,0,0,0,259,210,251,175,130,195,226,198,177,180,276,168,0,,,
1,1786544080240,-1086,-1143,15434,3181386,-241902,289550,0,0,0,464,409,202,435,391,410,371,186,372,282,173,542,0,,,
2,1786544080240,-6001,-43493,12486,1810604,486248,1270599,0,0,0,264,208,263,172,123,191,252,319,174,198,337,160,0,,,
1,1786544080256,-799,-1182,15702,3874107,-162490,357967,0,0,0,451,404,194,441,392,412,327,164,347,261,160,513,0,,,
2,1786544080256,-3464,-12337,20119,3210707,122173,1998751,0,0,0,264,201,178,190,120,154,288,407,133,267,419,124,0,,,
1,1786544080272,-1057,-1220,16094,4649906,-142942,419053,0,0,0,430,401,192,422,400,424,290,162,344,236,156,490,0,,,
2,1786544080272,-2522,24943,16812,3116634,-1188743,1711644,0,0,0,297,189,179,205,109,159,316,439,148,266,496,137,0,,,
1,1786544080288,-2100,-1698,17104,5369505,-134390,555887,0,0,0,401,389,197,410,399,419,270,156,357,227,146,464,0,,,
2,1786544080288,-4728,19248,9997,3996280,-1814269,420275,0,0,0,262,203,205,205,110,170,359,496,150,299,605,143,0,,,
1,1786544080304,-2952,-2354,21167,6282138,-63529,783129,0,0,0,366,371,193,378,388,370,269,154,349,218,146,399,0,,,
2,1786544080304,-2732,-8844,16927,5093394,-910189,-801455,0,0,0,270,184,266,209,102,204,396,502,178,391,626,155,0,,,
1,1786544080320,-4871,-2751,26982,7132462,-24434,982271,0,0,0,363,342,193,329,330,331,285,153,324,222,141,362,0,,,
2,1786544080320,2613,-8499,24259,3827681,-353080,-751364,0,0,0,280,182,249,217,91,193,403,517,155,449,629,139,0,,,
1,1786544080336,-7212,-1923,31447,7900930,-128281,1345125,0,0,0,314,319,180,273,311,270,316,178,287,234,172,344,0,,,
2,1786544080336,4039,-1048,20641,2050063,-466701,-283441,0,0,0,314,202,245,261,115,205,469,514,162,508,626,152,0,,,
1,1786544080352,-7628,378,35371,8517904,-474031,1805717,0,0,0,244,187,212,193,141,236,324,167,270,214,196,288,0,,,
2,1786544080352,1249,1852,11974,1134987,-510683,9773,0,0,0,320,229,275,268,149,224,470,487,175,568,621,182,0,,,
1,1786544080368,-8241,6848,34089,8695055,-751364,2277305,0,0,0,239,195,211,202,149,238,323,170,266,217,197,282,0,,,
2,1786544080368,813,43,9772,872315,-152716,-62308,0,0,0,324,230,288,270,171,251,485,495,198,590,609,193,0,,,
1,1786544080384,-8408,17401,23306,6852686,-133168,2586403,0,0,0,253,214,214,202,157,239,321,175,271,224,197,297,0,,,
2,1786544080384,1636,-579,10361,651182,25656,-108734,0,0,0,338,249,292,276,168,246,500,515,186,578,597,185,0,,,
1,1786544080400,-6365,21837,19215,2408030,1006705,1793500,0,0,0,258,220,215,203,167,233,324,190,262,231,217,304,0,,,
2,1786544080400,1957,162,10849,475253,-19547,-72082,0,0,0,327,255,304,278,174,259,476,499,181,532,580,187,0,,,
1,1786544080416,-4168,17037,18588,-2538755,2441017,-122173,0,0,0,264,219,221,204,162,231,326,184,260,234,215,300,0,,,
2,1786544080416,1450,760,10351,437379,-34208,-42760,0,0,0,317,256,295,269,178,258,449,472,185,477,565,187,0,,,
1,1786544080432,-6101,10457,13156,-3373197,3053104,-1356120,0,0,0,265,220,224,203,160,231,324,185,262,236,216,302,0,,,
2,1786544080432,1201,746,9954,513126,61086,-56199,0,0,0,326,264,275,271,177,240,446,452,184,439,554,182,0,,,
1,1786544080448,-7604,8786,8461,-3033556,2318844,-1747074,0,0,0,264,214,227,201,155,236,324,184,265,236,219,303,0,,,
2,1786544080448,1373,689,9858,608421,144164,-73303,0,0,0,326,265,279,280,180,247,447,432,194,408,530,190,0,,,
1,1786544080464,-5924,9428,7418,-3342654,1061683,-1891238,0,0,0,264,211,231,200,153,236,326,187,264,234,223,299,0,,,
2,1786544080464,1569,689,9825,691499,162490,-90408,0,0,0,313,262,290,268,177,259,444,408,208,383,489,203,0,,,
1,1786544080480,-3895,7992,8566,-4456872,777020,-2128254,0,0,0,261,213,229,199,153,232,327,189,263,234,228,298,0,,,
2,1786544080480,1622,650,9753,745255,120951,-107512,0,0,0,309,260,293,273,175,268,445,374,205,388,457,209,0,,,
1,1786544080496,-4288,5163,9198,-5326744,813672,-1982868,0,0,0,260,214,227,199,156,232,328,187,262,236,229,299,0,,,
2,1786544080496,1612,449,9614,774577,64751,-127059,0,0,0,302,259,312,259,174,283,390,317,229,363,431,228,0,,,
1,1786544080512,-5326,2426,9557,-5787337,487470,-1133765,0,0,0,261,218,231,200,160,232,328,189,260,239,229,298,0,,,
2,1786544080512,1646,220,9471,766025,13439,-151494,0,0,0,295,266,301,266,189,277,399,301,216,362,420,220,0,,,
1,1786544080528,-4316,1244,11021,-6195395,31764,-149051,0,0,0,261,218,231,198,157,232,328,189,261,241,231,298,0,,,
2,1786544080528,1684,62,9370,717155,-28099,-177150,0,0,0,302,276,315,280,200,305,399,305,243,348,399,245,0,,,
1,1786544080544,-3378,425,12845,-6648657,-114842,309097,0,0,0,260,217,234,200,154,234,329,187,264,238,228,300,0,,,
2,1786544080544,1675,-134,9394,635299,-90408,-197920,0,0,0,305,285,323,263,198,308,387,307,250,320,399,243,0,,,
1,1786544080560,-3445,-813,14443,-7015176,-129503,108734,0,0,0,256,214,229,204,157,238,326,186,257,232,230,293,0,,,
2,1786544080560,1646,-282,9504,571769,-150272,-205250,0,0,0,315,286,318,299,222,346,397,268,271,319,384,257,0,,,
1,1786544080576,-4527,-2191,15285,-7007846,-376292,-614530,0,0,0,255,212,229,207,160,239,326,186,256,232,232,293,0,,,
2,1786544080576,1636,-306,9643,546113,-182037,-207694,0,0,0,324,298,318,313,232,343,418,251,271,311,348,273,0,,,
1,1786544080592,-5484,-2876,16137,-6798930,-838107,-1511280,0,0,0,253,212,224,228,174,244,333,189,256,233,228,290,0,,,
2,1786544080592,1737,-263,9868,579100,-182037,-232128,0,0,0,340,349,338,328,292,391,403,224,273,295,310,288,0,,,
1,1786544080608,-5876,-3029,17793,-6582683,-1357342,-2367713,0,0,0,244,207,217,207,159,235,333,186,254,228,225,275,0,,,
2,1786544080608,2029,-382,10155,667064,-177150,-296880,0,0,0,359,363,327,332,303,383,392,215,301,279,268,282,0,,,
1,1786544080624,-5939,-5068,20780,-6553362,-1729970,-2910161,0,0,0,253,202,213,219,155,233,341,181,256,232,221,269,0,,,
2,1786544080624,2278,-579,10552,792903,-199142,-415388,0,0,0,369,347,299,353,312,381,384,207,317,260,253,284,0,,,
1,1786544080640,-5786,-9408,23407,-6614448,-1877799,-2968805,0,0,0,245,201,210,217,156,232,342,176,254,237,213,267,0,,,
2,1786544080640,1962,-646,11093,983493,-251676,-516791,0,0,0,380,367,315,350,307,390,384,219,336,251,248,315,0,,,
1,1786544080656,-4321,-16649,24498,-6574131,-1751961,-2449569,0,0,0,247,201,210,216,155,234,348,174,255,238,208,263,0,,,
2,1786544080656,1411,-717,11438,1280373,-300545,-543670,0,0,0,434,400,314,355,328,405,358,216,337,279,244,348,0,,,
1,1786544080672,-1914,-24522,24000,-6239377,-1495398,-1745852,0,0,0,248,202,209,215,154,235,356,174,257,242,207,262,0,,,
2,1786544080672,1340,-875,11849,1612684,-256563,-520457,0,0,0,484,422,266,379,370,400,315,198,317,278,239,347,0,,,
1,1786544080688,574,-33591,21698,-5382944,-1125213,-812450,0,0,0,252,208,217,210,153,233,357,173,260,238,207,262,0,,,
2,1786544080688,1627,-966,12778,1969429,-206472,-521678,0,0,0,496,437,245,376,366,392,285,184,297,258,238,357,0,,,
1,1786544080704,1507,-39913,17822,-4205196,-836885,262672,0,0,0,252,210,219,208,153,234,362,177,262,236,212,263,0,,,
2,1786544080704,1919,-866,14204,2525316,-238237,-561996,0,0,0,504,441,252,361,350,392,247,166,272,265,245,385,0,,,
1,1786544080720,3149,-43096,13620,-2844188,-513126,1216843,0,0,0,242,197,202,208,147,249,373,186,271,255,230,266,0,,,
2,1786544080720,2254,-942,15027,3251024,-334754,-621860,0,0,0,510,445,268,356,362,384,221,177,259,254,254,383,0,,,
1,1786544080736,4714,-42904,10227,-1251052,-106290,1408655,0,0,0,228,174,184,207,129,256,401,243,269,291,302,250,0,,,
2,1786544080736,2550,-1167,15218,4007275,-382401,-715934,0,0,0,520,458,296,362,377,399,236,193,261,248,261,359,0,,,
1,1786544080752,2761,-38315,12897,524122,235793,596204,0,0,0,225,160,175,218,121,224,464,380,236,315,431,205,0,,,
2,1786544080752,2464,-1177,16491,4833165,-375071,-849102,0,0,0,470,453,276,395,394,365,193,118,212,251,233,312,0,,,
1,1786544080768,-990,-18975,16453,2637716,1332907,-90408,0,0,0,239,165,149,236,126,221,518,490,220,348,508,175,0,,,
2,1786544080768,3015,-1311,19171,5739689,-409279,-981049,0,0,0,412,438,227,365,411,367,137,121,220,202,212,257,0,,,
1,1786544080784,-2129,4393,16453,3795916,2860071,-239459,0,0,0,248,174,170,230,130,225,518,533,230,395,537,174,0,,,
2,1786544080784,4996,-2474,23651,6660874,-532674,-1169196,0,0,0,345,369,222,300,341,326,125,131,251,190,219,247,0,,,
1,1786544080800,990,4876,19526,3964515,3115412,-26878,0,0,0,251,178,210,232,128,231,543,571,236,417,558,182,0,,,
2,1786544080800,8121,-3522,29404,7474547,-387288,-1517389,0,0,0,290,267,253,249,222,282,152,126,191,168,180,209,0,,,
1,1786544080816,2794,-2354,22794,3414736,2228436,111177,0,0,0,282,183,276,256,137,244,562,568,252,450,578,187,0,,,
2,1786544080816,8987,-2479,33677,8007221,306654,-1941329,0,0,0,252,199,193,191,133,181,204,140,160,171,199,161,0,,,
1,1786544080832,2479,-4163,20703,2299296,1139874,58643,0,0,0,274,214,326,242,147,256,563,562,261,465,581,230,0,,,
2,1786544080832,8116,2526,35515,8230798,1244943,-2410474,0,0,0,287,192,232,195,119,190,226,155,181,194,220,176,0,,,
1,1786544080848,1966,-641,14903,1386664,420275,-40317,0,0,0,298,237,351,241,155,252,597,563,264,468,596,258,0,,,
2,1786544080848,8762,14424,27867,7370699,1599245,-2927266,0,0,0,268,205,222,179,116,177,231,165,171,184,234,165,0,,,
1,1786544080864,1253,1330,11122,891863,-147829,-25656,0,0,0,298,246,352,251,164,253,607,567,261,468,601,273,0,,,
2,1786544080864,7269,25092,21560,4348138,946841,-2844188,0,0,0,265,211,222,172,115,169,226,168,169,183,238,167,0,,,
1,1786544080880,335,631,10854,703716,-472809,2443,0,0,0,293,248,349,253,174,258,617,562,276,464,602,277,0,,,
2,1786544080880,4747,24967,18133,-659734,-1053131,-1037249,0,0,0,269,215,221,173,116,166,227,176,174,186,246,171,0,,,
1,1786544080896,-143,425,10935,507018,-570548,-36651,0,0,0,297,248,343,262,178,261,605,550,271,455,596,282,0,,,
2,1786544080896,6877,17903,11610,-3177720,-2164906,531452,0,0,0,270,218,221,178,123,170,229,178,168,184,247,166,0,,,
1,1786544080912,-263,894,10739,419053,-540004,-61086,0,0,0,300,248,356,279,198,286,604,538,270,449,574,287,0,,,
2,1786544080912,9408,12266,5551,-3114190,-970053,886976,0,0,0,270,233,219,180,133,171,231,180,162,186,251,161,0,,,
1,1786544080928,-210,1387,10538,503352,-447153,-51312,0,0,0,303,259,359,277,205,287,602,517,279,436,550,294,0,,,
2,1786544080928,4771,11811,6216,-3064100,943175,660956,0,0,0,271,233,221,179,132,174,233,180,169,187,255,166,0,,,
1,1786544080944,-143,1344,10394,676838,-373849,-26878,0,0,0,303,261,348,272,200,271,598,483,277,418,523,299,0,,,
2,1786544080944,-430,10878,9069,-3921754,1276708,812450,0,0,0,269,231,231,181,133,184,235,180,176,186,253,170,0,,,
1,1786544080960,-81,1186,10232,781907,-346971,-14660,0,0,0,301,253,340,278,200,271,598,436,270,415,490,308,0,,,
2,1786544080960,-990,7537,10490,-5098281,408057,1051909,0,0,0,264,261,242,181,151,189,236,187,175,187,259,165,0,,,
1,1786544080976,-52,1081,10117,834441,-359188,-14660,0,0,0,311,254,333,295,202,273,592,390,277,423,465,319,0,,,
2,1786544080976,320,4139,10571,-5688377,248011,599869,0,0,0,267,256,239,179,147,187,234,184,173,187,259,168,0,,,
1,1786544080992,-138,914,10069,880867,-384845,-14660,0,0,0,322,259,327,319,209,275,585,363,290,417,445,325,0,,,
2,1786544080992,-67,2211,11332,-5953492,416610,-31764,0,0,0,267,232,222,175,123,172,234,174,169,197,261,160,0,,,
1,1786544081008,-268,722,9964,922406,-384845,-8552,0,0,0,318,272,321,302,221,286,571,344,296,408,409,336,0,,,
2,1786544081008,-837,1622,12883,-6102543,510683,-398284,0,0,0,266,219,251,175,116,192,241,175,182,198,263,177,0,,,
1,1786544081024,-435,540,9796,910189,-321315,4886,0,0,0,315,269,325,313,241,301,565,323,306,399,383,349,0,,,
2,1786544081024,-402,1292,14362,-6285803,585208,-277332,0,0,0,266,222,258,180,117,194,241,172,180,207,266,178,0,,,
1,1786544081040,-569,411,9686,862541,-228463,29321,0,0,0,350,285,330,334,235,311,565,308,313,379,371,375,0,,,
2,1786544081040,756,349,15577,-6489832,748920,125838,0,0,0,271,219,268,182,116,201,241,176,191,208,266,187,0,,,
1,1786544081056,-626,210,9638,786794,-112399,68416,0,0,0,338,309,341,339,265,320,594,278,304,385,359,379,0,,,
2,1786544081056,2187,-952,16496,-6596122,917519,568104,0,0,0,264,242,252,184,135,197,241,180,181,204,268,181,0,,,
1,1786544081072,-564,-86,9739,712268,-40317,103847,0,0,0,359,320,333,348,277,322,573,253,330,376,321,394,0,,,
2,1786544081072,4024,-1742,17812,-6557027,1109331,930958,0,0,0,264,259,263,183,144,199,247,185,188,206,271,185,0,,,
1,1786544081088,-536,-162,10040,665843,-14660,125838,0,0,0,384,344,335,366,274,337,581,221,316,371,277,406,0,,,
2,1786544081088,5585,-2814,20172,-6506936,1496619,1051909,0,0,0,261,257,263,182,141,201,243,181,184,206,270,183,0,,,
1,1786544081104,-598,-100,10404,696386,8552,156381,0,0,0,409,350,327,373,281,338,568,201,315,369,246,436,0,,,
2,1786544081104,5226,-5738,23129,-6568023,1872912,741590,0,0,0,263,256,263,178,138,198,248,184,188,203,262,179,0,,,
1,1786544081120,-727,-110,10715,818559,24434,213802,0,0,0,408,358,342,378,307,346,559,182,322,339,224,444,0,,,
2,1786544081120,4474,-10428,25364,-6633996,2040289,398284,0,0,0,261,256,248,177,141,187,246,190,176,206,268,177,0,,,
1,1786544081136,-756,-210,11112,978606,18325,288328,0,0,0,413,379,321,392,322,373,541,171,338,318,197,481,0,,,
2,1786544081136,2928,-16870,26293,-6502049,2229658,193033,0,0,0,261,248,223,179,136,174,242,183,159,209,268,161,0,,,
1,1786544081152,-411,-373,11691,1220508,17104,344527,0,0,0,430,388,275,412,343,375,533,166,342,312,173,504,0,,,
2,1786544081152,-990,-25360,26106,-6007248,2516764,41538,0,0,0,274,219,219,180,115,167,250,174,155,206,257,156,0,,,
1,1786544081168,-38,-593,12170,1522276,-12217,337197,0,0,0,432,409,238,411,358,372,526,163,355,309,169,524,0,,,
2,1786544081168,-9404,-36209,24685,-4697553,2399478,-404392,0,0,0,285,202,224,183,106,168,260,175,158,207,251,164,0,,,
1,1786544081184,43,-784,12668,1904677,-153938,293215,0,0,0,438,428,217,410,358,377,500,165,380,307,174,550,0,,,
2,1786544081184,-12021,-42900,20325,-3182607,1071457,-712268,0,0,0,285,201,229,184,107,172,264,178,163,209,252,172,0,,,
1,1786544081200,-148,-823,13500,2304183,-272445,262672,0,0,0,458,424,208,421,363,377,458,171,391,300,171,561,0,,,
2,1786544081200,-7705,-47944,13826,-1562593,-207694,-602313,0,0,0,282,196,237,178,103,174,264,207,173,208,279,178,0,,,
1,1786544081216,-717,-756,14558,2783102,-280998,277332,0,0,0,465,422,210,403,366,386,407,167,403,291,165,566,0,,,
2,1786544081216,-4340,-47925,11294,204028,-202807,138055,0,0,0,274,175,224,176,93,164,288,270,170,224,345,171,0,,,
1,1786544081232,-1100,-909,15228,3403741,-178372,356745,0,0,0,469,394,202,420,356,405,357,143,405,285,161,562,0,,,
2,1786544081232,-5211,-23728,17846,2317622,-711047,1514945,0,0,0,263,164,176,189,88,144,344,341,140,262,431,143,0,,,
1,1786544081248,-928,-981,15697,4158770,-129503,450818,0,0,0,454,403,201,401,385,390,331,172,354,248,164,530,0,,,
2,1786544081248,-5661,9734,18683,3571118,-2112371,2254092,0,0,0,264,214,161,202,119,143,363,441,131,289,524,130,0,,,
1,1786544081264,-966,-1062,16305,4812396,-166155,516791,0,0,0,442,384,202,383,379,402,300,227,351,224,148,489,0,,,
2,1786544081264,-7001,14984,13227,4035375,-2734232,1117883,0,0,0,274,205,190,210,115,153,376,481,144,332,572,136,0,,,
1,1786544081280,-1052,-1612,18525,5569869,-207694,583987,0,0,0,409,368,194,401,356,404,271,155,370,227,136,432,0,,,
2,1786544081280,-4197,521,16238,4174653,-1494176,-301767,0,0,0,282,174,253,218,85,175,400,495,158,372,597,160,0,,,
1,1786544081296,-2440,-2033,23125,6436076,-219911,642630,0,0,0,375,342,201,367,323,378,263,155,354,209,131,398,0,,,
2,1786544081296,1670,-5589,21301,3519805,-118507,-915076,0,0,0,280,169,218,199,83,166,383,523,153,387,610,139,0,,,
1,1786544081312,-5570,-2014,28638,7358482,-257785,883311,0,0,0,364,303,194,293,273,296,282,163,304,208,138,346,0,,,
2,1786544081312,4565,-1584,19841,2316400,65973,-414166,0,0,0,278,150,228,207,78,174,427,527,151,419,605,147,0,,,
1,1786544081328,-6518,-756,32457,8122064,-367740,1269377,0,0,0,303,248,195,247,221,264,299,156,279,211,159,313,0,,,
2,1786544081328,2412,1005,12945,1390329,-208915,8552,0,0,0,288,160,234,209,76,172,474,536,162,439,621,156,0,,,
1,1786544081344,-5867,1981,35089,8673064,-494800,1621236,0,0,0,255,217,218,218,175,254,316,191,271,211,203,290,0,,,
2,1786544081344,1153,693,9518,992045,-208915,-1221,0,0,0,274,166,253,197,83,181,478,536,192,455,624,170,0,,,
1,1786544081360,-7681,10323,29308,8630304,-404392,2032959,0,0,0,253,213,222,210,169,248,318,209,270,217,224,282,0,,,
2,1786544081360,1818,-320,9916,664621,-173485,-91629,0,0,0,294,176,252,203,80,172,503,537,200,488,620,150,0,,,
1,1786544081376,-8336,19272,19980,6525262,101403,2313957,0,0,0,262,225,223,205,177,238,320,217,265,224,229,286,0,,,
2,1786544081376,2010,205,10696,274889,-263893,-62308,0,0,0,303,180,260,198,72,172,513,522,199,489,611,158,0,,,
1,1786544081392,-5403,21741,18004,1091005,1100779,1541823,0,0,0,268,224,229,200,171,232,324,203,262,231,224,291,0,,,
2,1786544081392,1569,985,10528,134390,-239459,-37873,0,0,0,300,181,254,200,77,179,505,499,183,481,599,167,0,,,
1,1786544081408,-3871,14544,16702,-3025004,2401922,45204,0,0,0,270,219,231,198,164,230,324,186,264,235,221,291,0,,,
2,1786544081408,1282,1153,10050,226020,-62308,-51312,0,0,0,296,179,249,208,83,183,493,481,163,478,585,171,0,,,
1,1786544081424,-5719,8624,11481,-3777590,2900388,-767246,0,0,0,269,226,233,196,166,229,323,190,267,233,226,288,0,,,
2,1786544081424,1325,1057,9743,326202,90408,-65973,0,0,0,291,179,256,210,83,191,499,462,163,469,566,174,0,,,
1,1786544081440,-6063,8379,8159,-3325550,1915673,-932180,0,0,0,273,226,238,193,163,227,330,187,268,239,224,288,0,,,
2,1786544081440,1521,1067,9667,372627,155159,-74525,0,0,0,280,177,273,206,84,201,475,450,171,434,551,172,0,,,
1,1786544081456,-4158,8490,7848,-3830125,1238834,-1274264,0,0,0,274,225,235,199,167,226,337,186,266,256,225,286,0,,,
2,1786544081456,1746,1134,9681,419053,129503,-96516,0,0,0,287,182,296,213,86,200,444,453,168,407,537,172,0,,,
1,1786544081472,-3378,7025,8557,-4798957,1329242,-1749518,0,0,0,275,229,240,205,173,240,342,184,288,264,225,294,0,,,
2,1786544081472,1904,1105,9605,471587,46425,-125838,0,0,0,302,192,291,236,88,202,450,426,166,397,516,175,0,,,
1,1786544081488,-5317,4608,8719,-5407379,1192408,-1816713,0,0,0,274,228,243,209,166,256,351,184,318,272,224,304,0,,,
2,1786544081488,1919,1033,9447,515570,-73303,-146607,0,0,0,294,201,266,254,99,215,442,375,170,380,494,174,0,,,
1,1786544081504,-6140,2747,9116,-5727472,582765,-1436755,0,0,0,273,225,243,209,164,254,350,183,318,279,224,308,0,,,
2,1786544081504,1756,957,9394,553443,-178372,-145385,0,0,0,289,219,276,252,121,228,414,364,179,372,485,184,0,,,
1,1786544081520,-5139,1430,10308,-5955936,30543,-836885,0,0,0,272,229,241,212,168,253,350,183,325,285,228,313,0,,,
2,1786544081520,1593,847,9471,602313,-228463,-138055,0,0,0,305,241,289,244,146,241,400,345,192,363,484,196,0,,,
1,1786544081536,-4460,612,11988,-6192951,-57421,-456927,0,0,0,274,233,240,244,193,250,355,186,324,281,228,306,0,,,
2,1786544081536,1507,679,9509,646295,-212581,-136833,0,0,0,299,244,324,241,161,276,398,309,235,363,465,239,0,,,
1,1786544081552,-4943,-258,13807,-6557027,-178372,-423940,0,0,0,271,230,238,224,177,250,354,181,322,281,227,304,0,,,
2,1786544081552,1497,497,9533,681725,-183259,-145385,0,0,0,307,266,298,265,171,276,380,303,200,348,478,211,0,,,
1,1786544081568,-5431,-1608,15372,-6879564,-500909,-641408,0,0,0,267,235,237,216,179,248,354,186,319,282,230,300,0,,,
2,1786544081568,1536,344,9638,706160,-161268,-162490,0,0,0,318,262,313,295,184,290,404,287,215,354,457,234,0,,,
1,1786544081584,-5766,-2455,16630,-6827029,-800233,-1086118,0,0,0,258,234,232,218,182,251,353,184,310,278,224,293,0,,,
2,1786544081584,1579,181,9810,731816,-128281,-168598,0,0,0,320,294,317,295,213,312,411,275,220,332,405,246,0,,,
1,1786544081600,-6594,-3182,18903,-6662096,-1181413,-1688431,0,0,0,251,223,227,220,174,251,354,178,298,276,212,284,0,,,
2,1786544081600,1622,105,10021,774577,-79412,-169820,0,0,0,345,306,330,334,221,347,439,232,247,352,368,255,0,,,
1,1786544081616,-7585,-5240,21928,-6577796,-1696983,-2107485,0,0,0,246,213,218,221,167,244,356,176,276,274,200,272,0,,,
2,1786544081616,1718,4,10313,858876,-7330,-189368,0,0,0,375,360,354,364,292,373,407,217,270,309,323,292,0,,,
1,1786544081632,-7437,-10308,24651,-6619335,-2147802,-2068389,0,0,0,247,216,214,227,173,243,368,175,265,277,198,264,0,,,
2,1786544081632,1995,-81,10634,989601,58643,-246789,0,0,0,394,392,361,362,303,353,386,169,275,306,292,297,0,,,
1,1786544081648,-6690,-17339,25642,-6563136,-2179567,-1777617,0,0,0,257,225,220,237,180,245,390,174,276,285,200,269,0,,,
2,1786544081648,2273,-148,11098,1164309,68416,-327423,0,0,0,401,372,349,380,289,382,372,151,321,310,274,322,0,,,
1,1786544081664,-5417,-25484,23718,-6114761,-2073276,-1370781,0,0,0,257,217,214,243,173,241,397,170,261,283,192,263,0,,,
2,1786544081664,2301,-272,12189,1517389,-2443,-423940,0,0,0,423,382,343,395,333,433,352,154,367,309,266,373,0,,,
1,1786544081680,-2053,-33644,20267,-4877148,-2393370,-858876,0,0,0,266,214,212,254,171,242,409,163,263,288,192,263,0,,,
2,1786544081680,2407,-454,13381,2015855,-48869,-520457,0,0,0,450,417,291,412,362,449,324,166,355,295,260,375,0,,,
1,1786544081696,2148,-38190,17166,-3448945,-2345722,-333532,0,0,0,274,214,217,259,162,237,439,158,264,304,192,264,0,,,
2,1786544081696,2435,-516,14357,2664594,-39095,-632856,0,0,0,478,425,253,404,346,424,289,170,342,277,252,397,0,,,
1,1786544081712,4962,-40038,13610,-1954768,-1434311,164933,0,0,0,275,206,220,259,153,238,438,163,267,304,204,264,0,,,
2,1786544081712,2187,-253,15151,3385415,-94073,-696386,0,0,0,492,414,258,382,349,412,254,174,353,260,248,427,0,,,
1,1786544081728,4221,-41282,11045,-641408,-398284,448375,0,0,0,266,180,191,243,137,222,448,256,252,305,321,233,0,,,
2,1786544081728,2613,-325,15673,4080579,-201585,-741590,0,0,0,476,431,244,385,382,413,222,179,336,254,255,385,0,,,
1,1786544081744,3383,-38521,13175,913854,714712,373849,0,0,0,259,171,162,240,121,206,500,363,237,365,422,202,0,,,
2,1786544081744,3163,-574,16511,4901582,-260228,-866206,0,0,0,447,457,238,393,401,385,192,159,292,256,247,353,0,,,
1,1786544081760,2163,-17540,16534,3034778,2682920,-276111,0,0,0,263,174,157,246,124,205,502,430,232,373,491,191,0,,,
2,1786544081760,3661,-545,18746,5850867,-256563,-1050688,0,0,0,394,385,236,392,369,390,189,138,259,215,184,308,0,,,
1,1786544081776,2814,3680,15257,3651752,3503923,-862541,0,0,0,258,176,165,225,126,211,514,477,247,394,515,184,0,,,
2,1786544081776,4958,-1296,22297,6753726,-309097,-1258382,0,0,0,326,359,249,330,348,357,151,122,206,176,178,238,0,,,
1,1786544081792,5015,6810,15807,3643200,3104417,-594982,0,0,0,250,187,187,218,132,215,513,507,240,428,545,180,0,,,
2,1786544081792,7173,-2349,28427,7638258,-335975,-1541823,0,0,0,297,249,268,241,217,320,148,113,207,155,151,267,0,,,
1,1786544081808,4446,-1493,18999,3291341,1781283,254119,0,0,0,253,192,257,218,131,236,540,504,261,472,570,201,0,,,
2,1786544081808,8705,-1521,32687,8146498,403171,-1860695,0,0,0,249,185,176,241,143,210,202,123,157,157,175,180,0,,,
1,1786544081824,1086,-2962,19430,2566855,813672,378736,0,0,0,267,210,313,228,157,252,571,511,268,490,584,227,0,,,
2,1786544081824,8796,2167,35228,8387179,1755626,-2296853,0,0,0,253,183,199,179,112,174,209,143,159,169,205,160,0,,,
1,1786544081840,14,-1311,16659,1722639,412944,105068,0,0,0,287,229,337,238,164,250,588,518,263,492,590,248,0,,,
2,1786544081840,9643,13807,27987,7663915,2660928,-2945592,0,0,0,262,190,211,172,102,160,243,152,150,195,218,156,0,,,
1,1786544081856,684,119,12782,1017701,213802,-57421,0,0,0,301,238,361,247,154,252,599,514,271,500,590,264,0,,,
2,1786544081856,7245,25632,21129,5236336,2090380,-3033556,0,0,0,263,181,211,172,102,165,229,148,157,185,215,162,0,,,
1,1786544081872,646,296,11026,626747,-9773,-39095,0,0,0,306,249,375,253,161,257,601,513,275,507,589,274,0,,,
2,1786544081872,3560,29490,18588,954171,-153938,-1506393,0,0,0,258,181,220,170,103,180,222,151,181,179,212,172,0,,,
1,1786544081888,153,339,10835,438601,-185703,-12217,0,0,0,313,260,372,250,169,257,599,505,277,509,584,284,0,,,
2,1786544081888,5771,21588,12797,-2604729,-2245540,723264,0,0,0,266,188,224,167,100,178,228,150,178,183,212,171,0,,,
1,1786544081904,19,804,10835,355523,-259006,-36651,0,0,0,321,264,367,248,178,257,597,481,281,505,564,291,0,,,
2,1786544081904,9528,13606,6140,-3433062,-1703092,1452637,0,0,0,265,192,229,164,97,169,241,152,169,181,212,162,0,,,
1,1786544081920,172,1162,10715,437379,-293215,-45204,0,0,0,323,268,359,251,192,261,589,457,283,501,538,296,0,,,
2,1786544081920,5685,12041,5776,-3231477,579100,880867,0,0,0,262,193,247,167,98,178,250,154,177,183,212,170,0,,,
1,1786544081936,177,1177,10552,591317,-339641,-35430,0,0,0,306,264,349,260,193,268,580,437,284,476,528,303,0,,,
2,1786544081936,-114,11232,8561,-3839898,1274264,725707,0,0,0,265,191,243,175,100,179,255,152,176,190,212,169,0,,,
1,1786544081952,71,1119,10370,731816,-367740,-26878,0,0,0,312,264,342,264,197,267,569,403,280,473,494,300,0,,,
2,1786544081952,-1952,8202,10375,-4866152,564439,932180,0,0,0,270,192,231,182,104,176,238,142,168,194,213,160,0,,,
1,1786544081968,14,1105,10222,844215,-357967,-19547,0,0,0,327,271,339,302,231,287,571,377,269,450,458,313,0,,,
2,1786544081968,-957,4934,10552,-5440365,364075,746477,0,0,0,271,194,243,187,107,186,225,137,171,193,215,163,0,,,
1,1786544081984,-4,971,10078,928515,-339641,-14660,0,0,0,334,275,346,286,209,266,565,355,281,432,450,321,0,,,
2,1786544081984,-2627,3340,12007,-5715255,711047,146607,0,0,0,271,189,249,186,102,188,254,148,176,196,219,161,0,,,
1,1786544082000,-62,693,9944,978606,-313984,-2443,0,0,0,335,276,340,296,216,272,562,332,290,422,421,330,0,,,
2,1786544082000,-4312,2885,14079,-6025574,590095,-171042,0,0,0,279,193,250,184,97,185,251,150,177,198,221,168,0,,,
1,1786544082016,-148,387,9820,955393,-252898,8552,0,0,0,345,297,355,309,228,286,558,321,285,407,392,332,0,,,
2,1786544082016,-4647,2613,15841,-6378654,368962,-185703,0,0,0,279,193,226,186,101,178,248,147,167,195,221,159,0,,,
1,1786544082032,-244,234,9729,886976,-167377,24434,0,0,0,358,342,356,321,251,292,564,303,283,410,374,345,0,,,
2,1786544082032,-3996,1899,17214,-6747617,215024,1221,0,0,0,280,195,227,191,102,182,250,151,182,196,220,166,0,,,
1,1786544082048,-411,110,9724,803898,-54977,56199,0,0,0,375,353,354,336,259,304,574,273,304,422,349,363,0,,,
2,1786544082048,-2613,732,18348,-7034724,74525,307876,0,0,0,276,202,227,175,100,175,246,152,171,188,224,159,0,,,
1,1786544082064,-536,-138,9868,741590,65973,98960,0,0,0,404,353,356,354,262,309,565,241,313,420,318,382,0,,,
2,1786544082064,-416,-67,19636,-7112914,37873,675616,0,0,0,276,202,227,169,92,174,236,141,171,187,220,161,0,,,
1,1786544082080,-545,-311,10126,718377,207694,145385,0,0,0,423,367,366,357,287,324,552,217,311,410,304,403,0,,,
2,1786544082080,1397,-890,21737,-7105584,238237,863763,0,0,0,276,199,227,163,89,171,227,136,171,189,225,165,0,,,
1,1786544082096,-516,-244,10471,769690,333532,206472,0,0,0,431,378,375,363,303,337,541,191,307,407,299,424,0,,,
2,1786544082096,1541,-2632,25168,-7126353,560774,618195,0,0,0,286,198,229,165,85,170,227,138,167,196,231,160,0,,,
1,1786544082112,-483,-263,10820,886976,414166,280998,0,0,0,455,389,366,379,304,332,512,178,300,401,279,443,0,,,
2,1786544082112,-57,-7150,29025,-7279070,602313,31764,0,0,0,270,194,224,172,96,177,227,139,163,188,224,155,0,,,
1,1786544082128,-287,-449,11170,1044579,427605,354301,0,0,0,473,413,351,376,333,344,493,188,304,380,257,466,0,,,
2,1786544082128,-1923,-15209,30911,-7219205,580321,-431270,0,0,0,267,191,215,176,100,176,227,138,166,182,219,151,0,,,
1,1786544082144,23,-622,11730,1279151,399505,388510,0,0,0,482,423,321,389,361,365,488,178,294,356,233,489,0,,,
2,1786544082144,-3263,-27212,29877,-6467841,459370,-889419,0,0,0,274,194,219,179,101,179,241,142,166,187,221,156,0,,,
1,1786544082160,349,-751,12289,1582140,361632,387288,0,0,0,489,430,281,396,386,369,455,182,284,340,234,497,0,,,
2,1786544082160,-2139,-39435,24757,-5181358,91629,-1457524,0,0,0,280,197,224,179,97,182,248,145,168,190,224,159,0,,,
1,1786544082176,674,-827,12916,1924225,296880,345749,0,0,0,509,430,256,404,386,370,435,177,283,327,212,510,0,,,
2,1786544082176,-961,-48360,16511,-3429397,169820,-1806939,0,0,0,274,193,237,172,86,188,243,137,174,191,226,166,0,,,
1,1786544082192,516,-832,13993,2371378,227241,296880,0,0,0,526,442,256,381,389,383,384,179,294,294,210,539,0,,,
2,1786544082192,-5422,-52888,11883,-1210734,612086,-1172861,0,0,0,274,196,237,171,81,183,239,135,171,193,228,164,0,,,
1,1786544082208,277,-832,14778,2888170,200363,285884,0,0,0,508,430,241,390,370,376,346,169,278,285,204,530,0,,,
2,1786544082208,-7542,-51461,11596,941954,365297,241902,0,0,0,268,195,229,163,87,174,245,190,168,193,281,161,0,,,
1,1786544082224,378,-938,14998,3532022,200363,294437,0,0,0,533,422,235,367,365,366,300,162,284,261,179,522,0,,,
2,1786544082224,-3311,-38832,14941,2720793,-43982,1420872,0,0,0,253,177,213,165,95,167,268,291,160,215,385,155,0,,,
1,1786544082240,440,-981,15328,4191757,207694,278554,0,0,0,521,429,231,370,378,366,255,161,271,236,172,498,0,,,
2,1786544082240,-469,6824,21205,3401297,-359188,1753183,0,0,0,256,168,182,194,100,160,301,379,145,273,471,139,0,,,
1,1786544082256,-220,-1177,15975,4845383,241902,307876,0,0,0,499,422,239,381,377,367,258,158,286,234,159,467,0,,,
2,1786544082256,-1775,32514,14424,3342654,-1098335,1318247,0,0,0,264,177,194,206,92,171,340,463,155,324,555,144,0,,,
1,1786544082272,-1311,-1933,17406,5490456,367740,441044,0,0,0,455,399,222,378,360,348,255,156,275,236,151,422,0,,,
2,1786544082272,-4072,11351,8269,4524067,-1176526,92851,0,0,0,276,184,221,215,93,176,384,477,144,354,625,134,0,,,
1,1786544082288,-2301,-2574,21497,6147747,685390,629191,0,0,0,416,371,214,353,338,331,254,162,261,224,151,377,0,,,
2,1786544082288,-1043,-9361,20119,4861265,-17104,-544891,0,0,0,288,215,238,203,116,172,443,511,150,407,644,150,0,,,
1,1786544082304,-5924,-2498,27049,6930877,1178969,915076,0,0,0,373,329,211,304,297,308,265,164,252,211,152,352,0,,,
2,1786544082304,3622,-7307,25757,3418401,295658,-703716,0,0,0,287,215,233,219,136,180,436,533,158,422,644,152,0,,,
1,1786544082320,-8126,-1799,29346,7612602,1297477,1392772,0,0,0,304,270,205,243,229,264,286,171,243,214,180,322,0,,,
2,1786544082320,4527,818,18525,1758070,-140499,-383623,0,0,0,304,203,258,233,110,205,480,518,172,481,630,154,0,,,
1,1786544082336,-7016,717,32261,8173376,990823,1855808,0,0,0,253,226,215,202,171,231,303,185,240,221,219,289,0,,,
2,1786544082336,1923,1421,10772,1098335,-158824,-125838,0,0,0,328,188,275,239,109,199,469,522,164,483,631,140,0,,,
1,1786544082352,-7197,7599,30442,8271115,1258382,2193006,0,0,0,256,217,238,195,153,231,306,195,245,221,230,285,0,,,
2,1786544082352,1426,-311,9193,814894,85521,-91629,0,0,0,328,195,320,262,113,277,486,517,214,504,632,188,0,,,
1,1786544082368,-10241,15113,21378,6392093,2136806,1962099,0,0,0,268,228,242,197,164,232,306,212,243,221,245,283,0,,,
2,1786544082368,2321,-119,10452,566882,37873,-97738,0,0,0,327,206,333,263,120,265,499,490,201,504,624,195,0,,,
1,1786544082384,-9983,17161,18669,1569923,1544267,411723,0,0,0,273,226,238,197,155,225,310,194,240,230,231,287,0,,,
2,1786544082384,2364,918,10557,448375,-144164,-89186,0,0,0,342,239,309,290,164,242,499,480,172,520,621,174,0,,,
1,1786544082400,-5972,13831,16865,-2243097,1274264,-1640784,0,0,0,275,219,240,202,154,224,303,197,240,236,237,284,0,,,
2,1786544082400,1837,1330,10208,576656,-213802,-103847,0,0,0,331,259,283,272,171,236,474,455,175,467,587,179,0,,,
1,1786544082416,-6561,10083,12266,-2747671,1639562,-2781880,0,0,0,278,213,235,202,147,221,311,198,240,238,238,287,0,,,
2,1786544082416,1536,928,10059,761138,-92851,-120951,0,0,0,331,253,279,264,167,240,456,412,184,428,547,188,0,,,
1,1786544082432,-7681,8777,8456,-2713463,863763,-3023782,0,0,0,276,212,234,205,147,224,313,196,239,240,236,287,0,,,
2,1786544082432,1593,679,9968,844215,20769,-120951,0,0,0,331,248,287,269,172,260,443,372,199,415,512,204,0,,,
1,1786544082448,-4283,9088,8298,-3325550,-372627,-2645046,0,0,0,277,212,235,209,151,226,324,195,240,257,237,287,0,,,
2,1786544082448,1794,650,9858,860098,58643,-116064,0,0,0,337,261,304,266,166,260,426,331,199,388,474,207,0,,,
1,1786544082464,-1052,8131,9341,-4548502,-216246,-2283414,0,0,0,281,215,237,210,151,225,330,197,241,261,238,288,0,,,
2,1786544082464,1876,574,9791,880867,30543,-131946,0,0,0,350,277,307,268,165,249,412,298,195,365,436,212,0,,,
1,1786544082480,-1177,5886,9763,-5584530,119729,-1701870,0,0,0,279,214,235,210,150,225,333,199,240,258,239,284,0,,,
2,1786544082480,1871,435,9729,901637,10995,-160046,0,0,0,343,275,298,281,173,267,412,270,212,356,401,236,0,,,
1,1786544082496,-1899,3508,9887,-6047565,-103847,-856433,0,0,0,274,211,232,209,148,222,339,207,242,259,244,281,0,,,
2,1786544082496,1861,148,9614,885754,17104,-189368,0,0,0,341,268,307,306,175,282,429,226,213,356,369,232,0,,,
1,1786544082512,-1110,2005,10825,-6177069,-497244,-21991,0,0,0,266,210,235,204,147,225,336,211,248,248,244,285,0,,,
2,1786544082512,1861,-157,9495,833220,24434,-202807,0,0,0,346,272,306,323,191,308,428,200,224,341,340,243,0,,,
1,1786544082528,-617,1478,12471,-6282138,-693942,307876,0,0,0,260,212,237,200,149,229,332,208,252,238,243,287,0,,,
2,1786544082528,1919,-301,9475,763581,4886,-204028,0,0,0,332,284,340,319,212,351,424,201,255,322,320,274,0,,,
1,1786544082544,-1072,1277,14539,-6555805,-852767,25656,0,0,0,258,215,235,201,152,229,334,206,250,240,244,286,0,,,
2,1786544082544,2091,-363,9557,709825,-63529,-223576,0,0,0,329,310,300,312,236,322,400,201,281,312,320,262,0,,,
1,1786544082560,-1837,301,16166,-6849021,-1039692,-604756,0,0,0,258,216,234,204,152,228,331,206,247,242,246,282,0,,,
2,1786544082560,2239,-459,9686,682947,-147829,-271224,0,0,0,346,342,303,346,269,354,367,187,261,312,311,301,0,,,
1,1786544082576,-2694,-971,17496,-6925990,-1164309,-1260825,0,0,0,256,215,228,205,151,221,328,208,243,244,248,268,0,,,
2,1786544082576,2086,-497,9983,725707,-195476,-332310,0,0,0,393,335,304,355,266,335,365,165,275,317,281,271,0,,,
1,1786544082592,-3785,-2014,19176,-6770830,-1221730,-1838704,0,0,0,247,212,225,199,150,219,334,210,240,240,243,267,0,,,
2,1786544082592,1890,-469,10303,840550,-205250,-372627,0,0,0,385,336,286,367,258,337,372,153,262,317,277,285,0,,,
1,1786544082608,-4742,-2656,22000,-6718295,-1315803,-1854586,0,0,0,230,208,221,186,148,219,334,225,242,224,235,262,0,,,
2,1786544082608,1923,-540,10734,1042136,-169820,-408057,0,0,0,393,411,282,394,361,352,361,168,272,318,289,311,0,,,
1,1786544082624,-4656,-5044,25293,-6858794,-1516167,-1372003,0,0,0,219,199,211,186,146,225,326,219,240,222,229,261,0,,,
2,1786544082624,2120,-837,11251,1317025,-125838,-469144,0,0,0,445,402,285,385,364,363,346,168,300,294,265,349,0,,,
1,1786544082640,-2680,-10562,27571,-7034724,-1721418,-603534,0,0,0,214,204,211,185,148,226,328,229,248,217,233,256,0,,,
2,1786544082640,2053,-1038,11452,1591914,-142942,-522900,0,0,0,486,421,276,384,326,365,319,163,317,287,248,350,0,,,
1,1786544082656,1703,-19846,27255,-6669426,-1868025,-53756,0,0,0,220,209,210,194,150,229,337,229,244,224,237,256,0,,,
2,1786544082656,1665,-1095,11615,1885130,-197920,-533896,0,0,0,493,444,258,404,339,370,279,151,304,289,259,355,0,,,
1,1786544082672,5460,-28762,25656,-5841093,-1694540,327423,0,0,0,227,210,212,196,150,225,353,233,245,235,240,256,0,,,
2,1786544082672,1794,-1095,12744,2236988,-251676,-494800,0,0,0,491,459,244,401,336,381,239,139,308,277,262,381,0,,,
1,1786544082688,6709,-35955,22277,-4725653,-1029918,863763,0,0,0,232,222,216,197,153,228,349,243,246,231,253,253,0,,,
2,1786544082688,2416,-1225,13965,2708576,-335975,-503352,0,0,0,509,466,250,447,375,380,212,143,309,261,263,375,0,,,
1,1786544082704,6001,-41282,16199,-3158173,-386066,1194852,0,0,0,239,218,215,212,152,230,373,237,240,277,249,247,0,,,
2,1786544082704,2694,-1469,14587,3376863,-422718,-590095,0,0,0,525,490,276,457,414,393,186,144,289,245,261,351,0,,,
1,1786544082720,6001,-44977,11576,-1376890,-199142,642630,0,0,0,246,213,214,222,150,230,377,210,243,281,246,256,0,,,
2,1786544082720,2474,-1488,14984,4131892,-414166,-691499,0,0,0,519,513,273,384,423,402,146,130,284,229,253,343,0,,,
1,1786544082736,3967,-45001,9724,313984,-123394,-686612,0,0,0,244,201,199,218,151,219,405,290,233,289,337,241,0,,,
2,1786544082736,2900,-1593,15960,4884478,-381179,-806342,0,0,0,482,475,262,378,451,398,119,120,267,212,231,323,0,,,
1,1786544082752,1780,-32155,13290,2032959,-235793,-1985312,0,0,0,234,183,167,210,147,210,442,420,216,326,458,204,0,,,
2,1786544082752,4235,-1990,18348,5755572,-405614,-1021366,0,0,0,403,405,284,400,421,404,130,115,222,194,189,287,0,,,
1,1786544082768,3235,-2703,16022,3556457,651182,-2687807,0,0,0,230,175,146,208,137,227,465,488,228,367,524,193,0,,,
2,1786544082768,6106,-3345,23359,6665761,-646295,-1337794,0,0,0,334,362,260,328,371,339,147,126,218,197,180,240,0,,,
1,1786544082784,6767,14611,13711,4146553,2296853,-1996307,0,0,0,239,177,168,217,131,257,493,532,258,407,552,203,0,,,
2,1786544082784,8978,-4383,28604,7374365,-770911,-1692096,0,0,0,301,286,244,260,261,273,146,130,183,167,183,218,0,,,
1,1786544082800,6781,3431,17540,4411668,2455678,-327423,0,0,0,251,182,218,229,129,265,520,572,274,432,564,200,0,,,
2,1786544082800,10772,-4096,32950,7863057,-333532,-2178345,0,0,0,253,219,196,236,160,199,171,130,160,162,181,152,0,,,
1,1786544082816,2761,-5355,23795,4119675,1336573,592539,0,0,0,257,189,262,234,133,255,542,573,290,466,591,193,0,,,
2,1786544082816,10260,981,34448,8045095,768468,-2700024,0,0,0,266,220,226,183,137,179,219,166,166,175,214,169,0,,,
1,1786544082832,196,-3766,22325,2957809,450818,343306,0,0,0,267,207,295,236,138,241,510,517,285,466,602,196,0,,,
2,1786544082832,9614,13218,29337,7520972,1556484,-3329215,0,0,0,243,208,213,166,126,176,208,166,163,164,203,165,0,,,
1,1786544082848,382,-871,16654,1786169,111177,20769,0,0,0,290,224,326,249,148,249,599,568,272,473,602,224,0,,,
2,1786544082848,7274,24192,23330,4432438,481361,-3158173,0,0,0,244,203,209,154,120,170,209,163,169,168,206,165,0,,,
1,1786544082864,861,382,11787,1077566,-73303,-56199,0,0,0,291,234,371,250,156,273,619,565,294,476,602,250,0,,,
2,1786544082864,5068,26800,19880,-217468,-1402546,-1429424,0,0,0,260,208,216,160,115,171,206,155,162,167,215,159,0,,,
1,1786544082880,76,220,10696,808785,-268780,-8552,0,0,0,294,243,379,247,164,268,609,555,278,470,603,257,0,,,
2,1786544082880,7025,20248,13720,-3075095,-2711019,759916,0,0,0,256,202,214,161,114,172,204,150,162,169,218,159,0,,,
1,1786544082896,-574,335,10859,635299,-310319,-8552,0,0,0,300,252,380,256,187,271,600,537,291,470,590,270,0,,,
2,1786544082896,10193,14740,6910,-3059213,-1459967,1593136,0,0,0,260,201,212,168,114,171,209,150,158,170,219,153,0,,,
1,1786544082912,-368,851,10882,601091,-215024,-39095,0,0,0,301,264,379,261,195,275,595,496,287,471,571,283,0,,,
2,1786544082912,7729,13103,5575,-3026226,656069,1650557,0,0,0,247,197,230,171,118,194,208,149,170,163,217,177,0,,,
1,1786544082928,-86,1024,10624,725707,-171042,-32986,0,0,0,308,274,384,268,209,280,576,455,276,454,533,288,0,,,
2,1786544082928,2115,11624,8561,-3999945,1254717,1729970,0,0,0,244,200,224,167,117,191,207,147,166,163,216,169,0,,,
1,1786544082944,-9,918,10471,863763,-178372,-15882,0,0,0,317,280,375,288,214,278,570,425,274,443,502,296,0,,,
2,1786544082944,483,8657,10275,-5029864,805120,1754404,0,0,0,255,208,220,169,117,181,218,150,162,181,213,157,0,,,
1,1786544082960,0,741,10390,938289,-216246,-13439,0,0,0,317,287,354,289,220,274,563,397,270,428,473,307,0,,,
2,1786544082960,741,5427,11036,-5800776,552222,1307251,0,0,0,254,212,225,168,120,184,221,156,170,180,210,161,0,,,
1,1786544082976,-62,579,10198,979827,-254119,-23212,0,0,0,315,296,348,277,222,271,545,374,269,408,445,319,0,,,
2,1786544082976,-732,3196,12309,-6294355,718377,520457,0,0,0,246,213,223,164,123,185,213,160,170,163,210,158,0,,,
1,1786544082992,-229,406,9978,1021366,-255341,-19547,0,0,0,340,313,360,283,229,274,541,345,273,406,419,330,0,,,
2,1786544082992,-2814,2431,14285,-6572909,679282,-34208,0,0,0,253,217,224,169,127,183,212,159,162,165,212,154,0,,,
1,1786544083008,-378,215,9897,1033583,-188146,4886,0,0,0,379,336,376,306,249,288,546,314,290,403,396,342,0,,,
2,1786544083008,-3450,2368,16573,-6866125,536339,-162490,0,0,0,266,218,223,173,129,181,211,157,161,168,214,157,0,,,
1,1786544083024,-411,23,9897,983493,-89186,30543,0,0,0,388,354,376,322,284,302,530,291,307,384,375,362,0,,,
2,1786544083024,-2536,1756,18133,-7176444,499687,125838,0,0,0,272,216,219,174,128,182,208,153,159,177,220,159,0,,,
1,1786544083040,-473,-282,9863,917519,-14660,67195,0,0,0,385,370,362,326,323,302,518,263,297,376,348,383,0,,,
2,1786544083040,-1005,339,19468,-7401243,533896,548556,0,0,0,261,213,220,173,125,181,215,152,164,184,226,159,0,,,
1,1786544083056,-550,-512,10021,869872,47647,127059,0,0,0,402,389,377,325,326,305,512,238,305,358,315,389,0,,,
2,1786544083056,550,-741,20756,-7359704,681725,852767,0,0,0,258,214,219,177,129,180,232,161,165,177,222,158,0,,,
1,1786544083072,-626,-555,10289,882089,123394,194255,0,0,0,401,381,381,335,302,313,510,208,298,353,280,415,0,,,
2,1786544083072,1909,-1947,23421,-7332826,932180,712268,0,0,0,269,208,213,181,129,176,246,160,171,169,216,146,0,,,
1,1786544083088,-636,-579,10547,943175,202807,262672,0,0,0,409,388,354,348,318,326,494,193,298,348,253,438,0,,,
2,1786544083088,2215,-4235,27035,-7501425,1134987,91629,0,0,0,244,211,211,176,138,179,217,163,167,193,242,158,0,,,
1,1786544083104,-425,-698,10993,1061683,265115,322536,0,0,0,425,401,331,363,319,346,487,191,306,327,231,472,0,,,
2,1786544083104,1402,-8384,30169,-7721336,1170417,-542448,0,0,0,246,217,209,179,140,183,210,159,156,176,229,152,0,,,
1,1786544083120,-301,-871,11629,1292590,296880,345749,0,0,0,464,431,317,363,335,340,472,193,314,333,229,501,0,,,
2,1786544083120,-90,-16625,31184,-7459886,1244943,-599869,0,0,0,247,223,203,174,137,184,212,155,160,169,219,147,0,,,
1,1786544083136,-315,-1052,12127,1584584,299323,378736,0,0,0,482,435,271,378,355,344,453,189,303,328,219,519,0,,,
2,1786544083136,-2220,-28643,29758,-6487388,1276708,-393397,0,0,0,260,218,255,184,132,211,226,147,184,174,221,166,0,,,
1,1786544083152,-38,-1182,12347,1882686,282219,411723,0,0,0,484,436,254,376,392,348,427,192,317,305,204,520,0,,,
2,1786544083152,-3943,-39176,24374,-4929682,1005484,-329867,0,0,0,258,217,248,184,132,208,231,148,184,172,214,162,0,,,
1,1786544083168,497,-1201,12811,2204001,243124,382401,0,0,0,488,443,228,376,411,334,400,185,310,301,203,509,0,,,
2,1786544083168,-5283,-48461,16850,-2911383,713490,-255341,0,0,0,253,220,230,179,132,197,229,148,177,172,217,158,0,,,
1,1786544083184,449,-1263,13692,2619390,180816,323758,0,0,0,492,435,209,372,393,329,379,174,306,301,197,508,0,,,
2,1786544083184,-6240,-53290,11730,-941954,511905,113620,0,0,0,259,210,219,186,128,192,237,158,166,184,231,154,0,,,
1,1786544083200,-258,-1488,14649,3171612,135612,316428,0,0,0,504,424,209,361,369,345,356,164,299,284,181,515,0,,,
2,1786544083200,-5178,-49815,11619,846659,312763,725707,0,0,0,260,192,201,190,119,179,268,224,155,224,319,139,0,,,
1,1786544083216,-406,-1526,15300,3814242,169820,383623,0,0,0,497,425,209,357,361,354,313,161,292,256,168,501,0,,,
2,1786544083216,-5647,-27738,18186,2773328,106290,1266934,0,0,0,249,209,171,192,129,163,305,352,147,283,461,126,0,,,
1,1786544083232,-703,-1517,16070,4548502,216246,477696,0,0,0,479,416,205,367,378,363,287,167,292,238,162,468,0,,,
2,1786544083232,-6216,9571,18090,3798360,-829554,1368338,0,0,0,254,233,152,206,143,158,330,461,139,331,579,119,0,,,
1,1786544083248,-1986,-1957,17429,5370727,240680,659734,0,0,0,439,402,205,367,392,364,282,169,285,230,159,425,0,,,
2,1786544083248,-5312,15936,13333,4880813,-1420872,498466,0,0,0,280,198,187,222,116,167,369,509,141,386,676,117,0,,,
1,1786544083264,-3397,-2675,22158,6361550,338419,973719,0,0,0,380,394,205,341,373,336,274,167,273,225,158,381,0,,,
2,1786544083264,-1641,-4034,19803,5805663,-496022,-717155,0,0,0,278,177,255,230,107,195,438,540,165,488,698,147,0,,,
1,1786544083280,-5412,-3091,28451,7301061,422718,1255938,0,0,0,346,363,199,306,337,305,283,168,262,223,160,353,0,,,
2,1786544083280,3062,-7781,26934,4743979,332310,-907745,0,0,0,282,169,218,232,99,191,468,532,165,524,710,144,0,,,
1,1786544083296,-7805,-2115,33036,8218580,58643,1685988,0,0,0,303,304,188,258,266,267,299,170,245,227,176,333,0,,,
2,1786544083296,5436,-3838,23483,2834414,277332,-542448,0,0,0,287,176,259,221,87,208,403,458,201,531,708,178,0,,,
1,1786544083312,-8174,1277,37645,8969945,-579100,2285857,0,0,0,242,256,213,191,207,224,313,211,245,242,248,295,0,,,
2,1786544083312,2737,914,12447,1373225,-129503,-52534,0,0,0,294,203,254,229,104,208,465,534,147,515,694,144,0,,,
1,1786544083328,-7776,8820,35745,8963836,-189368,2814867,0,0,0,238,264,204,207,215,237,311,206,239,247,255,273,0,,,
2,1786544083328,1483,588,8987,1034805,90408,-52534,0,0,0,295,202,249,245,117,224,488,526,182,528,697,159,0,,,
1,1786544083344,-9667,17272,23991,6524040,1434311,2634050,0,0,0,250,266,220,195,190,226,324,202,244,242,226,287,0,,,
2,1786544083344,2306,-229,9700,827111,195476,-96516,0,0,0,312,201,262,259,127,249,479,504,202,522,681,176,0,,,
1,1786544083360,-9858,19971,17420,1314581,2106263,1105666,0,0,0,260,252,233,203,177,230,325,197,245,249,232,296,0,,,
2,1786544083360,2823,86,10710,634078,-14660,-91629,0,0,0,310,252,259,263,161,237,473,513,175,498,673,187,0,,,
1,1786544083376,-6077,14213,16616,-3249803,2233323,-1254717,0,0,0,260,233,227,196,169,215,321,201,241,254,241,293,0,,,
2,1786544083376,2263,665,10323,597426,-197920,-87964,0,0,0,297,234,261,248,155,227,458,473,213,446,635,171,0,,,
1,1786544083392,-7748,9428,11591,-3459940,2671924,-2349387,0,0,0,261,229,227,202,163,221,324,199,248,257,242,295,0,,,
2,1786544083392,1804,665,9863,656069,-185703,-105068,0,0,0,302,240,266,256,154,229,460,460,230,415,592,185,0,,,
1,1786544083408,-9667,8351,7322,-3068986,1643227,-2537534,0,0,0,258,230,226,206,169,225,325,197,244,262,242,294,0,,,
2,1786544083408,1765,536,9786,715934,-78190,-124616,0,0,0,311,249,300,273,160,251,461,423,239,384,542,199,0,,,
1,1786544083424,-6633,9126,6915,-3450166,-169820,-2351831,0,0,0,255,233,226,204,173,223,323,196,244,257,247,289,0,,,
2,1786544083424,1885,569,9868,762359,-24434,-135612,0,0,0,315,252,321,285,164,265,449,382,241,360,501,209,0,,,
1,1786544083440,-2244,8035,8834,-4808731,-365297,-2381152,0,0,0,255,235,224,203,173,222,325,196,246,254,250,286,0,,,
2,1786544083440,2024,569,9925,823446,-28099,-145385,0,0,0,312,257,299,283,165,257,433,343,241,349,466,212,0,,,
1,1786544083456,-2708,5623,9456,-5789780,90408,-2123367,0,0,0,261,234,224,207,173,225,329,196,246,258,250,285,0,,,
2,1786544083456,2134,387,9796,863763,-90408,-171042,0,0,0,312,263,288,280,170,262,426,297,255,338,420,214,0,,,
1,1786544083472,-4115,3091,9475,-6232047,-140499,-1325577,0,0,0,262,232,225,210,173,226,329,193,245,259,251,284,0,,,
2,1786544083472,2148,129,9605,861319,-174707,-204028,0,0,0,327,271,305,294,180,285,423,266,270,326,376,231,0,,,
1,1786544083488,-3048,1564,10380,-6324898,-724486,-476474,0,0,0,250,231,225,205,171,226,327,192,244,254,249,285,0,,,
2,1786544083488,2048,-134,9480,819781,-249233,-229685,0,0,0,338,279,306,302,182,297,393,237,266,321,346,247,0,,,
1,1786544083504,-1588,1153,12538,-6384763,-819781,-246789,0,0,0,252,233,228,204,167,226,328,193,249,253,249,284,0,,,
2,1786544083504,1943,-387,9466,755029,-280998,-239459,0,0,0,338,289,323,308,188,313,364,200,257,314,320,249,0,,,
1,1786544083520,-1742,827,14486,-6559470,-741590,-561996,0,0,0,252,231,228,202,161,222,330,191,248,260,249,278,0,,,
2,1786544083520,1962,-588,9547,700051,-287106,-252898,0,0,0,340,303,294,317,205,317,384,178,237,296,315,242,0,,,
1,1786544083536,-2598,134,16003,-6748839,-852767,-1204626,0,0,0,252,225,228,212,162,229,338,192,252,260,246,278,0,,,
2,1786544083536,2096,-650,9715,685390,-316428,-289550,0,0,0,352,326,309,336,236,333,375,168,236,308,303,263,0,,,
1,1786544083552,-3172,-670,17362,-6833138,-1095892,-1868025,0,0,0,251,226,227,212,163,230,342,197,251,256,239,269,0,,,
2,1786544083552,2148,-689,9830,720820,-381179,-354301,0,0,0,372,342,321,318,246,373,359,145,277,314,280,302,0,,,
1,1786544083568,-3512,-1263,19033,-6817256,-1345125,-2371378,0,0,0,241,220,218,213,161,229,339,199,249,250,234,266,0,,,
2,1786544083568,2077,-760,10016,794124,-411723,-425162,0,0,0,378,337,325,358,248,332,345,156,293,302,279,283,0,,,
1,1786544083584,-4010,-1775,21828,-6831916,-1505171,-2604729,0,0,0,242,228,218,208,169,228,342,215,244,244,255,263,0,,,
2,1786544083584,1962,-856,10452,949284,-397062,-496022,0,0,0,398,397,306,374,287,370,331,160,286,294,271,304,0,,,
1,1786544083600,-4814,-4570,25541,-6949202,-1607797,-2422691,0,0,0,238,225,208,213,175,232,356,198,239,249,231,253,0,,,
2,1786544083600,1828,-961,11002,1160643,-376292,-547335,0,0,0,455,403,300,362,300,369,306,159,301,281,263,328,0,,,
1,1786544083616,-4297,-10964,27657,-6967528,-1905899,-2029294,0,0,0,259,235,212,242,175,231,401,187,241,274,220,253,0,,,
2,1786544083616,1555,-1048,11395,1431868,-366519,-565661,0,0,0,472,430,290,356,309,357,285,156,289,270,249,338,0,,,
1,1786544083632,-899,-19885,27729,-6559470,-2185675,-1704314,0,0,0,267,247,218,251,179,234,428,194,247,282,223,259,0,,,
2,1786544083632,1483,-1196,11806,1740965,-360410,-552222,0,0,0,497,449,281,361,347,364,267,155,305,275,259,337,0,,,
1,1786544083648,2254,-29935,26173,-5731137,-1699427,-1260825,0,0,0,261,246,215,251,179,237,441,197,244,286,228,260,0,,,
2,1786544083648,1789,-1273,12859,2102598,-387288,-544891,0,0,0,523,475,265,341,353,350,230,156,265,271,267,345,0,,,
1,1786544083664,1143,-37697,21464,-4605923,-448375,-447153,0,0,0,253,235,210,249,171,240,432,192,243,281,228,257,0,,,
2,1786544083664,2244,-1330,14175,2660928,-469144,-591317,0,0,0,517,474,236,352,370,341,214,157,265,264,271,350,0,,,
1,1786544083680,330,-43713,14553,-3040887,-133168,474031,0,0,0,251,228,207,245,165,238,419,194,248,275,230,250,0,,,
2,1786544083680,2584,-1483,14950,3336545,-527787,-680503,0,0,0,510,473,257,360,386,356,171,146,249,240,271,342,0,,,
1,1786544083696,3536,-47896,10337,-1270599,-328645,616973,0,0,0,252,221,201,237,160,229,418,220,247,279,270,239,0,,,
2,1786544083696,3048,-1646,15529,4114788,-546113,-819781,0,0,0,515,474,285,356,395,376,139,137,235,221,262,331,0,,,
1,1786544083712,3350,-47188,9313,434936,-39095,-41538,0,0,0,242,196,183,223,144,219,424,312,235,296,379,220,0,,x,
2,1786544083712,3886,-1789,16688,4998099,-553443,-1055575,0,0,0,489,479,288,361,420,378,137,132,230,212,247,299,0,,x,
1,1786544083728,-2086,-30308,14558,2217440,410501,-278554,0,0,0,227,173,145,210,137,206,458,486,217,347,500,190,0,,,
2,1786544083728,4876,-1976,19856,6006027,-654847,-1411098,0,0,0,403,466,285,346,436,357,132,132,226,186,226,254,0,,,
1,1786544083744,-4962,-990,16692,3750712,1698205,9773,0,0,0,228,187,158,203,139,215,459,563,226,385,537,176,0,,,
2,1786544083744,6862,-3015,24474,7001737,-853989,-1770287,0,0,0,295,390,271,287,380,315,137,138,245,158,199,221,0,,,
1,1786544083760,-2770,12591,16908,4710992,3545461,338419,0,0,0,243,184,193,214,134,225,527,599,244,421,564,176,0,,,
2,1786544083760,9882,-4254,31055,7897265,-692721,-2210110,0,0,0,268,298,247,228,247,253,152,133,202,169,198,186,0,,,
1,1786544083776,1043,-1158,24910,4726875,3556457,122173,0,0,0,242,177,214,230,131,233,536,612,241,483,585,175,0,,,
2,1786544083776,11653,-3177,36577,8498357,168598,-2772106,0,0,0,221,265,175,180,148,176,180,145,148,159,206,141,0,,,
1,1786544083792,3038,-7346,27829,3652974,2478891,-171042,0,0,0,267,193,317,246,133,264,578,618,272,511,599,205,0,,,
2,1786544083792,10882,3541,37066,8476366,1276708,-3396410,0,0,0,237,194,212,179,118,183,194,135,155,169,214,159,0,,,
1,1786544083808,3369,-2751,20100,2282192,1302364,-245567,0,0,0,284,222,345,242,153,256,594,613,279,529,617,232,0,,,
2,1786544083808,9322,16085,28169,6844134,885754,-3918089,0,0,0,245,196,225,170,115,189,207,141,175,174,217,183,0,,,
1,1786544083824,2718,650,12591,1435533,414166,-50090,0,0,0,287,239,334,247,164,266,619,608,298,521,615,270,0,,,
2,1786544083824,8054,23043,21694,2949257,-552222,-3397632,0,0,0,247,195,247,170,115,199,207,141,183,174,220,190,0,,,
1,1786544083840,1301,205,11308,988379,-161268,41538,0,0,0,288,248,345,256,185,269,628,607,289,513,604,285,0,,,
2,1786544083840,7236,19497,17032,-1061683,-1886351,-1472185,0,0,0,247,198,219,167,114,175,209,152,166,172,223,169,0,,,
1,1786544083856,373,-157,11514,744033,-494800,-13439,0,0,0,293,265,343,263,210,278,628,578,281,513,585,290,0,,,
2,1786544083856,9303,13271,9231,-1852143,-1749518,574213,0,0,0,248,194,208,167,112,169,202,144,156,187,241,159,0,,,
1,1786544083872,186,650,10911,707381,-588874,-59864,0,0,0,301,277,350,266,216,284,634,536,280,500,556,298,0,,,
2,1786544083872,9049,11926,5005,-1665218,-280998,1787391,0,0,0,264,192,206,174,109,169,214,144,160,199,238,159,0,,,
1,1786544083888,76,1081,10433,802676,-559552,-52534,0,0,0,297,285,357,280,231,292,627,501,298,522,516,307,0,,,
2,1786544083888,4063,12912,5987,-2216219,1038470,2476447,0,0,0,252,194,202,171,109,168,206,142,157,195,239,161,0,,,
1,1786544083904,-33,760,10270,900415,-460592,-24434,0,0,0,297,289,346,297,243,306,613,478,308,502,495,325,0,,,
2,1786544083904,909,11074,7508,-3563787,701273,2704911,0,0,0,244,198,223,167,111,181,203,144,168,187,241,168,0,,,
1,1786544083920,-47,416,10232,888198,-366519,-17104,0,0,0,304,288,339,304,237,315,610,439,311,444,478,346,0,,,
2,1786544083920,177,7834,8159,-4710992,372627,2276083,0,0,0,246,201,228,164,114,180,201,146,167,189,243,168,0,,,
1,1786544083936,33,358,10251,841772,-289550,-23212,0,0,0,328,289,334,313,237,315,604,390,321,428,440,357,0,,,
2,1786544083936,-1158,5675,9466,-5356066,399505,1321912,0,0,0,250,207,219,167,121,176,200,151,162,182,236,161,0,,,
1,1786544083952,110,464,10241,851546,-282219,-34208,0,0,0,352,293,321,319,246,313,586,357,316,426,413,366,0,,,
2,1786544083952,-2368,4268,11002,-5935166,279776,432492,0,0,0,253,209,215,172,123,178,204,156,165,173,230,158,0,,,
1,1786544083968,71,464,10208,902858,-301767,-31764,0,0,0,299,307,325,296,251,318,565,326,318,420,385,381,0,,,
2,1786544083968,-2445,3646,12376,-6399424,193033,-84299,0,0,0,253,205,219,174,122,179,205,153,166,175,231,160,0,,,
1,1786544083984,-71,248,10117,957836,-324980,-4886,0,0,0,299,314,306,303,261,314,562,289,324,392,348,373,0,,,
2,1786544083984,-1842,3211,13869,-6714630,324980,-64751,0,0,0,252,207,224,174,125,184,205,152,166,173,232,159,0,,,
1,1786544084000,-220,-105,9911,943175,-294437,29321,0,0,0,312,325,299,320,268,316,562,267,308,359,310,373,0,,,
2,1786544084000,-693,2364,15424,-6939429,513126,270002,0,0,0,252,211,229,175,129,188,207,157,170,173,235,159,0,,,
1,1786544084016,-306,-382,9753,884532,-227241,64751,0,0,0,351,349,330,328,276,310,545,242,315,362,298,386,0,,,
2,1786544084016,612,1407,16673,-7021285,736703,680503,0,0,0,251,215,226,175,137,193,207,154,176,177,235,164,0,,,
1,1786544084032,-378,-502,9796,830776,-157603,103847,0,0,0,365,341,302,345,278,325,559,207,330,360,262,400,0,,,
2,1786544084032,1986,641,18554,-7139792,990823,1031140,0,0,0,250,212,225,169,128,186,210,152,172,181,238,165,0,,,
1,1786544084048,-617,-473,10074,840550,-83077,173485,0,0,0,369,361,280,345,294,319,540,207,325,328,244,443,0,,,
2,1786544084048,3149,-105,21196,-7332826,1196074,1022588,0,0,0,254,208,227,170,123,184,213,142,167,200,245,174,0,,,
1,1786544084064,-727,-555,10409,901637,-20769,263893,0,0,0,398,373,277,354,305,374,521,184,348,314,214,471,0,,,
2,1786544084064,3120,-2565,25058,-7561289,1431868,433714,0,0,0,254,208,204,167,122,161,218,153,178,178,229,142,0,,,
1,1786544084080,-507,-737,10744,1025031,39095,337197,0,0,0,394,398,264,359,325,376,514,177,369,307,197,488,0,,,
2,1786544084080,2177,-7087,29078,-7699345,1557706,-256563,0,0,0,256,219,217,173,129,179,211,148,159,176,237,150,0,,,
1,1786544084096,-507,-914,11103,1211956,70860,373849,0,0,0,432,398,249,379,327,372,517,166,360,360,184,488,0,,,
2,1786544084096,1497,-14960,31997,-7594276,1599245,-509461,0,0,0,249,214,209,173,131,181,211,154,157,173,232,144,0,,,
1,1786544084112,-478,-1076,11820,1455080,56199,426383,0,0,0,436,408,234,395,347,362,504,174,349,334,182,499,0,,,
2,1786544084112,1005,-26814,31792,-6994406,1832595,-221133,0,0,0,251,213,207,177,123,175,225,146,155,184,240,147,0,,,
1,1786544084128,90,-1129,12754,1789835,54977,455705,0,0,0,434,429,223,396,363,362,480,180,343,298,182,515,0,,,
2,1786544084128,-3340,-40684,28590,-5593082,2232101,-64751,0,0,0,267,213,206,198,122,180,245,146,161,203,240,157,0,,,
1,1786544084144,603,-1229,12998,2173458,85521,395840,0,0,0,442,436,209,395,380,378,439,171,348,285,179,525,0,,,
2,1786544084144,-10643,-48781,22976,-3617543,1970651,-1221,0,0,0,267,212,209,190,121,179,245,145,165,205,238,161,0,,,
1,1786544084160,598,-1416,13338,2548529,43982,311541,0,0,0,446,426,199,400,389,399,399,159,350,275,172,530,0,,,
2,1786544084160,-9930,-52754,15884,-1595580,857654,525344,0,0,0,265,214,228,177,119,187,236,144,174,198,236,167,0,,,
1,1786544084176,4,-1550,14367,3042108,-64751,257785,0,0,0,465,412,204,401,372,408,371,156,347,278,163,530,0,,,
2,1786544084176,-5312,-54323,11500,344527,342084,1031140,0,0,0,257,199,229,168,116,181,254,232,173,192,322,162,0,,,
1,1786544084192,-416,-1459,15620,3758042,-103847,302989,0,0,0,489,416,207,389,380,380,321,169,368,263,158,512,0,,,
2,1786544084192,-4034,-43584,14218,2081828,525344,1216843,0,0,0,256,175,174,182,129,166,288,362,155,230,433,136,0,,,
1,1786544084208,-708,-1426,16640,4493524,-83077,377514,0,0,0,455,403,223,393,378,397,305,154,334,235,144,477,0,,,
2,1786544084208,-4551,2282,20066,3238807,-511905,1452637,0,0,0,260,175,142,205,134,162,319,469,139,274,549,122,0,,,
1,1786544084224,-1507,-1928,18166,5381722,-73303,509461,0,0,0,416,391,220,433,410,385,266,152,365,220,143,448,0,,,
2,1786544084224,-4986,28705,13266,3749490,-2277305,974940,0,0,0,262,184,179,217,118,179,357,540,141,327,639,135,0,,,
1,1786544084240,-2081,-2392,21837,6304129,-153938,674395,0,0,0,365,363,203,365,378,392,259,151,359,210,139,402,0,,,
2,1786544084240,-3785,4067,15716,4895474,-1876578,-322536,0,0,0,274,177,226,226,104,204,406,587,156,422,669,153,0,,,
1,1786544084256,-2814,-2531,28470,7261965,-295658,819781,0,0,0,349,320,184,329,314,315,264,153,312,215,136,350,0,,,
2,1786544084256,157,-9930,25058,4784296,-642630,-950506,0,0,0,289,181,254,224,103,209,433,604,175,483,679,160,0,,,
1,1786544084272,-4441,-1153,34151,8262563,-460592,1031140,0,0,0,294,288,174,258,236,258,282,175,295,193,170,314,0,,,
2,1786544084272,3876,-6077,26025,3263242,-89186,-736703,0,0,0,279,198,266,226,109,210,441,606,189,500,683,155,0,,,
1,1786544084288,-5647,1608,38588,9089674,-643851,1343903,0,0,0,245,236,197,217,186,245,306,180,266,219,209,304,0,,,
2,1786544084288,3105,674,16668,1737300,-223576,-173485,0,0,0,298,194,285,250,118,228,477,604,189,532,687,182,0,,,
1,1786544084304,-7394,9772,36630,9418320,-598647,1814269,0,0,0,228,225,207,206,180,245,312,184,261,225,216,287,0,,,
2,1786544084304,789,1210,9619,1023810,-41538,-14660,0,0,0,326,225,291,273,149,238,499,596,179,540,678,174,0,,,
1,1786544084320,-7418,19444,24905,7180110,410501,1926668,0,0,0,246,228,216,201,181,240,318,188,266,233,222,296,0,,,
2,1786544084320,1383,-244,9777,790459,230907,-98960,0,0,0,321,241,294,245,151,236,483,594,192,517,675,167,0,,,
1,1786544084336,-5881,22909,20253,1966986,1808161,1005484,0,0,0,259,218,220,204,172,239,321,195,267,239,230,314,0,,,
2,1786544084336,2196,52,10830,598647,180816,-102625,0,0,0,319,259,299,244,159,252,480,579,215,513,659,196,0,,,
1,1786544084352,-4881,16415,19669,-3210707,3155729,-662177,0,0,0,261,218,225,203,171,239,289,201,261,244,242,324,0,,,
2,1786544084352,1952,894,10610,541226,72082,-72082,0,0,0,324,273,293,246,159,254,477,558,218,480,612,202,0,,,
1,1786544084368,-7025,10423,14122,-3742160,3243694,-1246165,0,0,0,261,225,222,197,176,231,293,206,256,245,247,317,0,,,
2,1786544084368,1521,1043,10078,649960,108734,-74525,0,0,0,306,316,283,247,187,251,463,502,218,438,566,198,0,,,
1,1786544084384,-7427,8987,9270,-3442836,2200336,-1274264,0,0,0,260,224,214,195,175,224,324,206,255,243,242,304,0,,,
2,1786544084384,1459,894,9834,768468,208915,-94073,0,0,0,306,277,287,243,164,246,452,450,210,373,540,191,0,,,
1,1786544084400,-4704,9590,8446,-3951076,1193630,-1328021,0,0,0,260,222,214,196,173,226,325,203,257,244,239,302,0,,,
2,1786544084400,1679,856,9844,851546,268780,-113620,0,0,0,304,251,274,249,148,246,461,400,210,369,489,208,0,,,
1,1786544084416,-3910,7552,9313,-5171585,1229060,-1502728,0,0,0,259,226,213,200,177,228,325,203,257,245,241,305,0,,,
2,1786544084416,1861,837,9801,913854,240680,-135612,0,0,0,298,247,265,252,158,255,439,366,208,338,445,210,0,,,
1,1786544084432,-5317,4192,9686,-6028018,1070235,-1159422,0,0,0,256,228,215,201,178,229,326,204,257,245,244,304,0,,,
2,1786544084432,1966,617,9676,950506,167377,-167377,0,0,0,314,263,258,270,180,264,413,339,208,316,411,202,0,,,
1,1786544084448,-5652,1277,10165,-6340781,367740,-163711,0,0,0,255,229,215,202,179,228,333,208,259,245,244,299,0,,,
2,1786544084448,1971,272,9495,933402,68416,-199142,0,0,0,320,284,259,289,199,273,420,319,219,317,381,204,0,,,
1,1786544084464,-4292,244,11591,-6448293,35430,583987,0,0,0,249,232,218,203,178,233,332,206,258,245,243,298,0,,,
2,1786544084464,1919,43,9351,867428,-9773,-211359,0,0,0,322,310,274,296,218,290,420,303,234,312,371,219,0,,,
1,1786544084480,-3957,-320,13567,-6696304,-64751,758694,0,0,0,246,230,218,200,178,232,332,206,257,243,243,297,0,,,
2,1786544084480,1928,-134,9303,792903,-54977,-218689,0,0,0,341,334,277,305,234,314,394,257,242,297,358,242,0,,,
1,1786544084496,-4895,-1234,15199,-7046941,-255341,190589,0,0,0,241,232,216,201,180,231,331,207,254,243,243,289,0,,,
2,1786544084496,1952,-296,9356,712268,-53756,-233350,0,0,0,343,352,264,322,258,333,388,189,249,284,319,264,0,,,
1,1786544084512,-6149,-2560,16008,-7130019,-700051,-742812,0,0,0,243,233,219,204,180,234,336,208,256,246,243,284,0,,,
2,1786544084512,2024,-459,9590,673173,-34208,-259006,0,0,0,345,396,280,342,292,352,392,172,252,296,312,261,0,,,
1,1786544084528,-7097,-3302,16831,-6936985,-1295034,-1740965,0,0,0,237,229,215,203,180,234,336,205,256,244,243,280,0,,,
2,1786544084528,2278,-425,9997,706160,-32986,-311541,0,0,0,376,402,300,344,255,373,382,146,289,274,275,266,0,,,
1,1786544084544,-7432,-3402,18650,-6633996,-1943773,-2571742,0,0,0,235,224,209,210,183,238,334,200,256,243,237,276,0,,,
2,1786544084544,2569,-397,10404,844215,-58643,-417831,0,0,0,406,385,276,372,265,362,379,162,336,278,249,299,0,,,
1,1786544084560,-7197,-5302,21976,-6620557,-2482556,-2757445,0,0,0,229,224,206,210,185,242,335,198,259,238,231,273,0,,,
2,1786544084560,2613,-583,10945,1048244,-127059,-530231,0,0,0,439,412,280,348,289,374,365,177,351,266,250,329,0,,,
1,1786544084576,-6030,-9585,24862,-6784269,-2756223,-2274862,0,0,0,228,235,203,208,195,241,342,199,260,238,229,268,0,,,
2,1786544084576,2646,-866,11438,1335351,-185703,-640186,0,0,0,422,491,254,356,390,362,333,175,337,272,271,351,0,,,
1,1786544084592,-3742,-15912,26302,-6831916,-2632829,-1350012,0,0,0,239,238,203,223,193,239,375,196,258,255,227,265,0,,,
2,1786544084592,2115,-899,11854,1703092,-189368,-731816,0,0,0,462,472,276,373,363,384,327,165,358,269,252,374,0,,,
1,1786544084608,-981,-24139,25125,-6346889,-2204001,-496022,0,0,0,248,233,210,234,182,254,404,189,271,267,223,270,0,,,
2,1786544084608,1450,-856,12615,2090380,-205250,-717155,0,0,0,499,483,248,434,372,356,287,164,306,290,255,358,0,,,
1,1786544084624,1335,-33184,22622,-5353622,-1859473,145385,0,0,0,247,231,212,228,183,265,400,185,283,259,221,272,0,,,
2,1786544084624,1569,-875,14012,2608394,-250454,-618195,0,0,0,497,487,252,432,401,398,270,160,318,270,252,403,0,,,
1,1786544084640,3689,-40148,19162,-3963293,-1549154,709825,0,0,0,247,238,200,232,183,241,402,190,262,263,226,260,0,,,
2,1786544084640,2153,-1000,15142,3252246,-277332,-572991,0,0,0,500,475,291,430,400,458,228,149,338,243,232,390,0,,,
1,1786544084656,6001,-43723,15534,-2538755,-989601,1005484,0,0,0,249,266,200,238,187,243,404,194,265,267,235,258,0,,,
2,1786544084656,2727,-1196,15697,4065919,-249233,-620639,0,0,0,504,501,300,436,429,453,212,136,322,225,231,357,0,,,
1,1786544084672,6006,-44053,11648,-852767,-123394,616973,0,0,0,255,239,201,240,166,237,423,207,265,277,254,253,0,,,
2,1786544084672,3235,-1287,16281,4961447,-194255,-770911,0,0,0,489,500,293,409,422,433,157,119,303,203,212,321,0,,,
1,1786544084688,2287,-39698,10825,641408,12217,-189368,0,0,0,265,177,182,251,123,212,501,352,227,324,405,208,0,,,
2,1786544084688,4130,-1430,17831,5909510,-178372,-999375,0,0,0,447,476,310,386,396,440,127,117,311,191,191,304,0,,,
1,1786544084704,483,-23699,14635,2202780,276111,-840550,0,0,0,237,166,145,227,131,214,466,471,234,351,507,191,0,,,
2,1786544084704,5149,-2287,21349,6850242,-250454,-1274264,0,0,0,376,410,300,356,355,398,155,130,291,177,182,269,0,,,
1,1786544084720,1684,4723,15606,3453832,1727526,-1049466,0,0,0,247,182,162,223,132,229,497,550,239,415,536,192,0,,,
2,1786544084720,6896,-4067,28748,7683462,-257785,-1529606,0,0,0,320,301,246,295,267,293,167,127,222,163,172,204,0,,,
1,1786544084736,3642,9006,18463,3963293,3196046,-190589,0,0,0,253,179,199,230,125,234,532,567,250,470,562,186,0,,,
2,1786544084736,8772,-4441,35601,8120842,112399,-1778839,0,0,0,284,245,207,228,182,216,165,126,175,164,180,161,0,,,
1,1786544084752,1861,-1234,24934,3733608,3033556,557109,0,0,0,268,188,269,243,136,257,558,575,265,501,584,205,0,,,
2,1786544084752,9906,-1153,39281,8300436,1018923,-2167349,0,0,0,267,231,186,185,139,178,195,140,160,168,202,145,0,,,
1,1786544084768,-445,-6226,25077,2537534,1921782,406836,0,0,0,287,209,324,250,146,251,584,574,259,513,601,230,0,,,
2,1786544084768,9078,10026,34070,7921700,2026850,-2894279,0,0,0,315,192,199,199,118,170,217,140,167,186,197,149,0,,,
1,1786544084784,1139,-1311,16759,1382998,965167,-86742,0,0,0,306,236,351,261,160,253,602,572,250,523,602,249,0,,,
2,1786544084784,5092,21502,27652,5610186,1437976,-3358537,0,0,0,314,197,205,193,117,162,220,140,160,191,197,149,0,,,
1,1786544084800,2129,2220,10772,882089,175929,-169820,0,0,0,314,263,369,265,177,259,603,568,258,528,604,260,0,,,
2,1786544084800,1957,25718,24374,857654,-1127657,-2116037,0,0,0,276,197,203,178,117,162,220,145,161,184,200,156,0,,,
1,1786544084816,952,1684,10208,814894,-408057,3665,0,0,0,315,265,379,270,186,265,605,567,265,523,599,264,0,,,
2,1786544084816,6092,19210,16750,-2669481,-3166725,89186,0,0,0,271,201,203,179,116,168,229,147,170,186,200,162,0,,,
1,1786544084832,-220,952,11103,724486,-637743,18325,0,0,0,315,260,375,275,191,274,610,548,269,516,577,271,0,,,
2,1786544084832,10241,12969,8547,-3426953,-2554638,1148426,0,0,0,268,194,205,168,108,163,218,147,170,180,206,154,0,,,
1,1786544084848,-626,1196,11160,702495,-684169,-21991,0,0,0,307,263,368,281,199,286,609,510,275,503,551,295,0,,,
2,1786544084848,7571,11639,6546,-3142290,-485026,1080009,0,0,0,269,192,217,172,108,173,217,146,171,179,208,168,0,,,
1,1786544084864,-488,1636,10681,822224,-624304,-25656,0,0,0,302,269,363,297,210,297,603,466,272,486,525,312,0,,,
2,1786544084864,2091,11189,8920,-4065919,-156381,1116661,0,0,0,262,185,215,166,104,178,210,132,167,182,221,174,0,,,
1,1786544084880,-545,1560,10452,965167,-560774,8552,0,0,0,315,272,358,314,213,295,601,413,271,481,488,298,0,,,
2,1786544084880,1813,8513,9691,-5265658,-808785,1134987,0,0,0,265,184,213,169,100,171,214,129,162,192,236,168,0,,,
1,1786544084896,-617,1421,10303,1053131,-498466,34208,0,0,0,323,265,363,313,211,291,596,370,287,469,445,314,0,,,
2,1786544084896,3168,5479,9633,-5936388,-676838,560774,0,0,0,266,181,211,174,99,180,217,131,168,192,239,168,0,,,
1,1786544084912,-612,1301,10145,1109331,-439822,47647,0,0,0,322,269,336,305,219,289,581,333,283,440,419,331,0,,,
2,1786544084912,2603,3254,10390,-6346889,-277332,-190589,0,0,0,262,175,206,178,100,182,211,129,165,195,246,164,0,,,
1,1786544084928,-636,1139,10059,1167974,-394618,52534,0,0,0,308,288,330,304,234,298,564,311,284,388,383,341,0,,,
2,1786544084928,1411,2234,11581,-6524040,-36651,-669508,0,0,0,267,179,206,180,104,177,214,133,162,193,243,161,0,,,
1,1786544084944,-804,933,10011,1200961,-334754,67195,0,0,0,315,299,328,317,245,304,463,271,299,376,339,340,0,,,
2,1786544084944,1368,2005,12682,-6612005,134390,-616973,0,0,0,267,182,209,177,106,173,221,135,163,196,242,163,0,,,
1,1786544084960,-981,603,9892,1167974,-238237,106290,0,0,0,343,311,331,333,252,312,569,229,307,375,310,364,0,,,
2,1786544084960,1919,1579,14347,-6773273,525344,-109955,0,0,0,263,184,213,171,105,171,221,138,167,196,240,162,0,,,
1,1786544084976,-1048,114,9739,1061683,-135612,156381,0,0,0,384,317,324,368,281,327,577,203,296,385,283,395,0,,,
2,1786544084976,2321,909,15735,-6916216,864985,510683,0,0,0,258,183,208,169,104,169,219,141,165,191,231,163,0,,,
1,1786544084992,-1100,-124,9806,974940,-41538,212581,0,0,0,402,337,322,371,290,324,556,187,303,388,279,411,0,,,
2,1786544084992,2976,191,17482,-6994406,1144761,1194852,0,0,0,251,170,193,172,102,168,217,134,157,193,231,170,0,,,
1,1786544085008,-1028,-177,10098,944397,62308,273667,0,0,0,393,369,322,365,303,337,546,184,319,370,247,436,0,,,
2,1786544085008,3967,-947,19952,-7004180,1378111,1524719,0,0,0,259,176,201,169,100,165,220,136,160,193,232,167,0,,,
1,1786544085024,-799,-201,10452,1009149,144164,309097,0,0,0,392,369,299,367,317,349,539,172,327,351,213,458,0,,,
2,1786544085024,3977,-4106,23531,-7097032,1623679,1253495,0,0,0,266,179,204,173,100,166,221,133,160,193,236,164,0,,,
1,1786544085040,-770,-301,10835,1144761,156381,329867,0,0,0,410,375,271,379,328,358,536,168,327,324,193,486,0,,,
2,1786544085040,3393,-9121,26987,-7279070,1711644,790459,0,0,0,283,180,202,187,103,171,228,132,162,192,231,152,0,,,
1,1786544085056,-976,-526,11519,1364672,97738,372627,0,0,0,429,394,250,394,343,362,523,167,334,307,182,510,0,,,
2,1786544085056,2646,-16946,29040,-7397578,1689653,450818,0,0,0,277,189,201,186,111,169,228,140,158,190,216,154,0,,,
1,1786544085072,-995,-713,12189,1644449,35430,431270,0,0,0,440,411,232,399,366,371,495,170,354,302,176,523,0,,,
2,1786544085072,38,-30523,28753,-6842912,1825265,125838,0,0,0,273,188,203,176,104,169,225,137,158,196,212,153,0,,,
1,1786544085088,-540,-799,12648,2015855,-17104,470366,0,0,0,455,432,220,391,381,391,465,183,375,286,176,532,0,,,
2,1786544085088,-4771,-42904,26680,-5512447,1861917,-425162,0,0,0,272,182,203,196,109,182,242,138,173,199,216,164,0,,,
1,1786544085104,23,-784,12892,2386039,-40317,417831,0,0,0,477,452,216,376,379,389,426,179,378,267,173,526,0,,,
2,1786544085104,-8360,-49537,22086,-3662747,1091005,-1059240,0,0,0,268,181,195,191,109,183,238,142,163,193,217,154,0,,,
1,1786544085120,-244,-894,13524,2742784,-48869,345749,0,0,0,483,469,205,392,387,377,388,167,333,272,168,529,0,,,
2,1786544085120,-7154,-52189,16008,-1782504,-36651,-1141096,0,0,0,275,181,196,202,112,183,250,145,159,198,210,149,0,,,
1,1786544085136,-1282,-1158,14807,3230255,-37873,343306,0,0,0,486,462,196,437,399,401,373,164,358,271,161,533,0,,,
2,1786544085136,-3177,-50997,11954,-13439,-313984,-153938,0,0,0,268,184,234,191,114,199,253,192,175,196,293,176,0,,,
1,1786544085152,-1517,-1182,15869,3926641,13439,460592,0,0,0,507,445,201,418,423,390,328,165,326,274,161,531,0,,,
2,1786544085152,-1895,-35587,15046,2111150,193033,1444085,0,0,0,257,177,191,192,118,172,281,306,158,215,406,146,0,,,
1,1786544085168,-1296,-1148,16410,4638910,73303,569326,0,0,0,472,458,217,428,405,406,308,149,396,267,151,509,0,,,
2,1786544085168,-2048,3239,19238,3599217,-157603,2596177,0,0,0,264,197,147,204,130,149,330,426,139,282,506,120,0,,,
1,1786544085184,-1129,-1555,16937,5369505,85521,641408,0,0,0,438,420,206,419,397,426,272,158,335,245,148,456,0,,,
2,1786544085184,-5809,26451,13965,3946189,-1503950,1985312,0,0,0,281,205,174,216,131,164,372,512,148,344,577,128,0,,,
1,1786544085200,-1182,-2282,19037,6080552,15882,678060,0,0,0,397,385,199,389,376,381,271,154,303,229,144,395,0,,,
2,1786544085200,-5819,4091,16286,4746422,-1770287,-343306,0,0,0,294,184,206,227,114,180,398,556,168,384,620,139,0,,,
1,1786544085216,-2201,-2976,25235,6866125,-112399,684169,0,0,0,367,338,190,349,343,333,272,166,302,223,150,359,0,,,
2,1786544085216,1598,-10782,26254,4113566,-1069014,-1207069,0,0,0,291,179,222,221,104,185,411,560,178,410,647,149,0,,,
1,1786544085232,-5675,-3101,31643,7757988,-250454,814894,0,0,0,326,308,181,284,288,286,281,166,284,213,155,340,0,,,
2,1786544085232,5848,-6326,25972,2261423,-781907,-540004,0,0,0,283,191,255,216,110,197,426,561,172,423,667,151,0,,,
1,1786544085248,-8346,-1832,35314,8486139,-790459,1285260,0,0,0,281,266,200,234,218,256,318,175,274,220,182,319,0,,,
2,1786544085248,2029,1847,15108,1130100,-715934,142942,0,0,0,303,213,293,234,117,227,448,542,185,463,660,156,0,,,
1,1786544085264,-8494,4331,36697,9020036,-1690874,2008524,0,0,0,256,239,217,217,182,241,340,180,269,235,202,291,0,,,
2,1786544085264,-842,2823,8231,940732,-207694,14660,0,0,0,311,217,264,228,106,200,481,542,216,462,659,144,0,,,
1,1786544085280,-5814,15793,28590,8098851,-1455080,2811201,0,0,0,264,249,220,215,193,232,340,187,261,253,208,281,0,,,
2,1786544085280,847,373,9423,794124,138055,-200363,0,0,0,316,198,272,253,117,213,502,531,178,460,660,152,0,,,
1,1786544085296,-5111,19851,22498,3601661,607200,2291966,0,0,0,276,254,223,212,198,227,344,194,257,265,215,290,0,,,
2,1786544085296,1976,196,11160,420275,47647,-113620,0,0,0,316,209,274,247,111,215,502,517,181,438,654,160,0,,,
1,1786544085312,-5441,17219,19583,-1415985,2339613,701273,0,0,0,279,244,224,214,183,226,345,188,257,267,219,290,0,,,
2,1786544085312,1440,1234,10677,241902,-7330,-25656,0,0,0,319,209,271,251,113,219,516,517,194,451,649,154,0,,,
1,1786544085328,-7288,10945,14821,-3508809,2812423,-816115,0,0,0,283,248,226,216,188,226,343,196,257,271,227,292,0,,,
2,1786544085328,1024,1703,9897,327423,61086,-43982,0,0,0,319,223,272,246,120,220,472,499,187,422,626,181,0,,,
1,1786544085344,-7748,9284,9691,-3034778,1488067,-1164309,0,0,0,275,249,225,206,198,226,339,206,262,261,236,295,0,,,
2,1786544085344,1091,1651,9767,465479,108734,-89186,0,0,0,316,216,282,238,106,209,462,479,180,414,597,173,0,,,
1,1786544085360,-4943,9341,8222,-3291341,233350,-1358564,0,0,0,278,228,233,208,169,238,340,190,271,262,228,301,0,,,
2,1786544085360,1186,1593,9839,588874,123394,-112399,0,0,0,316,213,284,247,111,218,467,450,188,412,572,180,0,,,
1,1786544085376,-1718,8518,9121,-4437325,12217,-1679879,0,0,0,269,239,224,208,181,234,339,195,269,256,231,300,0,,,
2,1786544085376,1196,1598,9820,695164,141720,-116064,0,0,0,318,230,286,256,133,233,460,416,183,392,550,181,0,,,
1,1786544085392,-2546,5881,9437,-5462356,305432,-1615127,0,0,0,256,240,215,220,203,239,337,203,257,247,233,287,0,,,
2,1786544085392,1316,1531,9810,799011,145385,-125838,0,0,0,309,224,287,258,146,248,454,374,215,395,509,191,0,,,
1,1786544085408,-3771,3062,9490,-6089104,68416,-916297,0,0,0,255,237,215,218,195,239,337,197,256,248,230,290,0,,,
2,1786544085408,1474,1325,9777,872315,95294,-141720,0,0,0,309,226,314,257,141,265,435,358,230,373,467,213,0,,,
1,1786544085424,-3292,1172,10184,-6360328,-425162,92851,0,0,0,252,237,217,216,198,239,338,197,259,250,233,291,0,,,
2,1786544085424,1464,990,9605,890641,2443,-156381,0,0,0,340,241,343,257,135,270,432,340,244,352,438,219,0,,,
1,1786544085440,-2014,277,11820,-6571688,-614530,697608,0,0,0,250,239,218,216,199,240,339,196,258,259,232,295,0,,,
2,1786544085440,1402,741,9418,852767,-63529,-177150,0,0,0,348,264,325,263,157,269,430,334,248,349,435,209,0,,,
1,1786544085456,-1655,-607,13443,-6798930,-656069,678060,0,0,0,253,240,216,224,197,243,348,194,259,268,232,293,0,,,
2,1786544085456,1368,612,9332,779464,-87964,-202807,0,0,0,325,279,302,275,183,277,426,313,238,352,437,208,0,,,
1,1786544085472,-2325,-1608,14405,-6902777,-846659,-23212,0,0,0,255,241,214,231,202,242,357,194,258,271,230,286,0,,,
2,1786544085472,1325,449,9380,709825,-97738,-223576,0,0,0,325,289,318,293,187,299,434,254,245,346,408,221,0,,,
1,1786544085488,-3153,-2335,15056,-6833138,-1136209,-944397,0,0,0,252,243,212,231,205,241,359,192,257,268,229,278,0,,,
2,1786544085488,1349,363,9471,687834,-111177,-245567,0,0,0,338,321,321,316,220,330,435,230,254,330,378,237,0,,,
1,1786544085504,-4297,-2756,16128,-6603453,-1461189,-1887573,0,0,0,251,248,213,229,207,240,361,194,258,268,230,273,0,,,
2,1786544085504,1430,181,9767,718377,-107512,-287106,0,0,0,359,334,340,334,258,347,442,216,275,317,359,255,0,,,
1,1786544085520,-5546,-3919,18549,-6410419,-1866804,-2519208,0,0,0,249,256,215,222,212,240,362,200,262,266,232,271,0,,,
2,1786544085520,1541,95,10232,784350,-67195,-328645,0,0,0,383,325,356,349,239,345,437,196,304,300,318,253,0,,,
1,1786544085536,-5503,-7719,21493,-6520375,-2152689,-2426356,0,0,0,243,259,210,215,219,240,358,206,262,261,234,269,0,,,
2,1786544085536,1852,76,10715,915076,-20769,-382401,0,0,0,419,318,330,361,234,358,437,164,324,322,271,292,0,,,
1,1786544085552,-4154,-13711,23129,-6652322,-2177123,-1933999,0,0,0,243,262,202,220,225,238,361,206,258,262,232,266,0,,,
2,1786544085552,1842,23,11203,1153313,-23212,-458148,0,0,0,445,340,357,375,261,359,408,148,353,312,262,329,0,,,
1,1786544085568,-823,-21670,22876,-6304129,-2139250,-1205847,0,0,0,247,258,206,224,218,242,376,198,262,269,225,263,0,,,
2,1786544085568,1612,-76,11868,1507615,-64751,-510683,0,0,0,451,410,322,397,290,389,408,157,346,283,252,327,0,,,
1,1786544085584,2890,-29169,22100,-5579643,-1987755,-521678,0,0,0,254,230,204,243,184,245,400,180,262,274,206,263,0,,,
2,1786544085584,1660,-191,12854,1927890,-68416,-537561,0,0,0,462,408,275,433,365,391,421,165,368,294,252,391,0,,,
1,1786544085600,5632,-36735,20148,-4449542,-1335351,345749,0,0,0,266,214,209,257,163,243,439,175,263,301,206,269,0,,,
2,1786544085600,1823,-277,14280,2508212,-19547,-587652,0,0,0,487,424,258,404,411,396,302,143,338,265,248,385,0,,,
1,1786544085616,4924,-40459,16204,-3290120,-299323,1192408,0,0,0,258,225,214,246,179,245,416,191,264,288,222,269,0,,,
2,1786544085616,1828,-234,15486,3237585,-13439,-647517,0,0,0,482,440,231,406,419,380,295,156,304,278,266,398,0,,,
1,1786544085632,3799,-41808,11782,-1819156,450818,1546710,0,0,0,249,198,175,232,151,223,431,278,254,378,306,230,0,,,
2,1786544085632,1852,-105,16022,4061032,-73303,-684169,0,0,0,469,431,255,395,384,406,271,149,334,261,248,398,0,,,
1,1786544085648,3321,-41698,12103,-42760,689055,751364,0,0,0,249,180,169,238,134,211,480,392,233,351,431,212,0,,,
2,1786544085648,1832,-124,16726,4930904,-78190,-718377,0,0,0,460,426,277,404,371,419,222,128,312,250,224,372,0,,,
1,1786544085664,2517,-33122,15472,2588846,1946216,-441044,0,0,0,259,174,159,240,128,213,504,456,231,381,480,190,0,,,
2,1786544085664,2086,-95,18712,5904623,-10995,-770911,0,0,0,403,406,266,383,369,425,170,120,289,209,187,321,0,,,
1,1786544085680,2005,-6068,17458,4079358,3633426,-889419,0,0,0,262,175,164,256,129,226,519,507,232,410,508,176,0,,,
2,1786544085680,4206,-1162,22775,6913772,-34208,-922406,0,0,0,335,381,257,325,338,374,136,114,248,164,163,247,0,,,
1,1786544085696,3627,7575,19784,3910759,3737273,-552222,0,0,0,273,177,200,257,127,236,547,528,253,458,530,182,0,,,
2,1786544085696,6795,-2263,28734,7827627,-145385,-1188743,0,0,0,295,319,231,262,275,287,139,114,194,152,165,188,0,,,
1,1786544085712,3201,1560,20636,3220481,2334726,8552,0,0,0,280,193,270,253,133,249,565,535,263,503,557,192,0,,,
2,1786544085712,8868,-1899,33969,8409170,-18325,-1536936,0,0,0,273,227,204,211,177,211,178,131,163,166,184,161,0,,,
1,1786544085728,2053,-3163,19272,2503325,1078788,120951,0,0,0,290,209,317,259,150,254,579,534,263,521,577,208,0,,,
2,1786544085728,8542,1143,36879,8671842,868650,-1936442,0,0,0,267,193,215,180,101,174,214,146,158,177,199,153,0,,,
1,1786544085744,1622,-1904,16032,1684766,436157,7330,0,0,0,306,231,337,269,165,257,596,540,260,527,583,239,0,,,
2,1786544085744,9217,10356,32945,8399397,1506393,-2377487,0,0,0,286,225,228,170,103,167,219,145,158,177,204,155,0,,,
1,1786544085760,899,234,12773,984714,102625,10995,0,0,0,316,259,347,283,176,264,603,553,261,534,580,270,0,,,
2,1786544085760,8719,22813,24493,6118426,1141096,-2306627,0,0,0,308,216,211,177,95,157,217,133,151,182,215,147,0,,,
1,1786544085776,76,703,10868,555887,-171042,7330,0,0,0,316,266,338,293,189,265,602,547,281,532,578,278,0,,,
2,1786544085776,4967,29140,20220,1470963,-456927,-703716,0,0,0,308,211,210,178,95,158,222,135,150,190,220,154,0,,,
1,1786544085792,-263,445,10557,390953,-300545,-36651,0,0,0,311,266,345,281,199,269,610,537,298,529,578,280,0,,,
2,1786544085792,4292,22885,16046,-2455678,-2555860,1479515,0,0,0,307,208,210,187,95,158,245,135,156,202,218,157,0,,,
1,1786544085808,-210,775,10653,285884,-287106,-58643,0,0,0,317,272,354,285,205,279,610,510,264,524,566,285,0,,,
2,1786544085808,8427,14759,8853,-3105638,-2316400,1815491,0,0,0,312,208,211,194,94,159,249,137,155,202,217,152,0,,,
1,1786544085824,-100,1139,10672,268780,-261450,-54977,0,0,0,314,278,340,284,213,275,604,474,267,524,553,288,0,,,
2,1786544085824,7494,11945,6365,-3110525,-415388,1066570,0,0,0,311,208,211,169,87,150,223,134,155,196,216,152,0,,,
1,1786544085840,-33,1301,10504,357967,-273667,-46425,0,0,0,316,282,340,289,219,280,602,460,264,505,533,305,0,,,
2,1786544085840,1234,11682,9212,-4018271,594982,445931,0,0,0,312,208,208,174,89,152,227,129,153,194,220,152,0,,,
1,1786544085856,-33,1296,10308,477696,-306654,-41538,0,0,0,316,285,330,287,217,276,593,440,264,484,521,300,0,,,
2,1786544085856,67,8513,10208,-5215567,-226020,417831,0,0,0,325,210,221,199,93,168,259,134,159,211,221,163,0,,,
1,1786544085872,-76,1273,10189,587652,-337197,-39095,0,0,0,314,291,322,287,219,276,585,418,274,468,489,300,0,,,
2,1786544085872,1072,5240,9944,-5838649,-509461,216246,0,0,0,327,214,220,196,93,164,247,132,154,202,221,158,0,,,
1,1786544085888,-196,1273,10112,680503,-345749,-32986,0,0,0,308,295,313,289,228,272,573,384,282,431,466,301,0,,,
2,1786544085888,976,3201,10361,-5962044,-52534,-178372,0,0,0,310,210,218,181,92,170,231,135,164,192,220,161,0,,,
1,1786544085904,-358,1148,9978,767246,-291993,-18325,0,0,0,299,301,313,289,238,280,559,362,279,419,447,313,0,,,
2,1786544085904,-397,2871,12074,-6059783,125838,-229685,0,0,0,305,214,225,176,94,172,227,141,168,191,223,165,0,,,
1,1786544085920,-435,890,9844,801455,-195476,-4886,0,0,0,309,305,321,294,246,287,551,343,282,416,431,324,0,,,
2,1786544085920,-588,2598,13874,-6298020,89186,53756,0,0,0,308,215,228,177,96,173,229,139,169,191,220,165,0,,,
1,1786544085936,-411,650,9691,766025,-83077,4886,0,0,0,330,323,338,303,254,293,552,316,284,430,415,339,0,,,
2,1786544085936,253,1971,15252,-6592457,145385,513126,0,0,0,310,214,225,172,91,167,232,136,168,188,216,159,0,,,
1,1786544085952,-373,497,9619,712268,0,20769,0,0,0,340,348,340,313,274,296,545,295,285,435,400,348,0,,,
2,1786544085952,1076,1124,16549,-6851464,241902,979827,0,0,0,314,216,224,167,86,159,233,136,164,186,217,156,0,,,
1,1786544085968,-335,325,9734,659734,57421,45204,0,0,0,356,370,336,322,288,302,533,274,293,425,372,356,0,,,
2,1786544085968,2043,224,18032,-6994406,329867,1433089,0,0,0,317,216,223,168,87,158,229,134,160,187,219,156,0,,,
1,1786544085984,-358,224,10040,647517,80634,70860,0,0,0,379,394,346,330,290,315,535,247,307,416,333,377,0,,,
2,1786544085984,3158,-1148,20449,-6998072,502131,1609019,0,0,0,308,214,218,171,91,160,229,139,159,183,217,146,0,,,
1,1786544086000,-693,220,10447,714712,111177,125838,0,0,0,396,416,359,346,299,327,541,228,319,399,310,397,0,,,
2,1786544086000,3182,-4225,23771,-7043276,766025,1415985,0,0,0,290,214,218,168,96,162,224,136,159,177,218,148,0,,,
1,1786544086016,-981,95,10744,833220,221133,227241,0,0,0,427,405,360,361,300,338,526,214,323,375,293,420,0,,,
2,1786544086016,1378,-10524,27288,-7175223,901637,954171,0,0,0,286,210,208,170,94,161,227,130,159,177,214,147,0,,,
1,1786544086032,-971,-23,10978,967610,360410,329867,0,0,0,452,413,351,374,311,345,520,192,314,371,260,465,0,,,
2,1786544086032,-1115,-19483,29471,-7103140,902858,529009,0,0,0,288,211,208,175,97,167,247,138,162,185,212,150,0,,,
1,1786544086048,-1124,-210,11318,1134987,443488,447153,0,0,0,476,433,351,395,338,365,503,176,309,354,242,469,0,,,
2,1786544086048,-3460,-31347,29413,-6524040,641408,45204,0,0,0,282,213,209,166,93,161,243,139,162,188,211,158,0,,,
1,1786544086064,-875,-464,11849,1374446,449596,596204,0,0,0,484,464,308,395,383,358,472,198,353,337,248,492,0,,,
2,1786544086064,-2727,-43694,25072,-5288871,-41538,-626747,0,0,0,298,213,214,176,100,167,239,144,159,182,209,152,0,,,
1,1786544086080,435,-445,12892,1736079,433714,609643,0,0,0,490,450,265,388,384,361,439,194,350,314,220,492,0,,,
2,1786544086080,349,-50897,17051,-3492927,-361632,-1075122,0,0,0,301,214,217,181,100,171,249,149,169,192,213,160,0,,,
1,1786544086096,722,-454,14209,2214997,415388,504574,0,0,0,502,467,261,380,407,354,403,203,309,302,247,521,0,,,
2,1786544086096,-325,-54017,11505,-1332907,-2443,-631634,0,0,0,316,210,217,182,100,168,249,150,165,195,211,159,0,,,
1,1786544086112,95,-473,15462,2786767,393397,438601,0,0,0,494,488,231,374,401,353,377,200,290,282,235,522,0,,,
2,1786544086112,-3302,-52308,11500,899193,500909,847880,0,0,0,303,197,231,178,91,178,261,229,181,204,334,162,0,,,
1,1786544086128,81,-382,16022,3506366,343306,447153,0,0,0,505,490,235,361,416,351,337,183,283,283,210,509,0,,,
2,1786544086128,-1119,-28738,18277,2938261,510683,2095267,0,0,0,250,166,180,181,93,153,295,327,148,233,435,139,0,,,
1,1786544086144,57,-315,16300,4214970,304210,448375,0,0,0,494,472,218,358,403,347,291,182,271,265,199,499,0,,,
2,1786544086144,670,14472,20334,3627317,-260228,1977981,0,0,0,261,178,156,209,108,153,337,411,137,273,519,131,0,,,
1,1786544086160,-488,-402,17085,4961447,335975,483805,0,0,0,472,445,228,358,389,349,255,172,268,243,185,468,0,,,
2,1786544086160,-3201,20483,12036,4179539,-1237612,381179,0,0,0,282,184,196,225,104,173,371,465,153,326,599,138,0,,,
1,1786544086176,-1459,-856,19176,5705481,452040,599869,0,0,0,428,420,221,339,371,329,252,167,264,227,169,419,0,,,
2,1786544086176,-3680,-440,15257,5009094,-684169,-790459,0,0,0,277,180,223,222,99,180,391,491,160,384,626,140,0,,,
1,1786544086192,-4034,-1679,25307,6731734,808785,846659,0,0,0,386,391,206,315,362,309,251,174,256,217,170,385,0,,,
2,1786544086192,1139,-11734,25776,4197865,384845,-1011592,0,0,0,288,185,222,221,106,177,415,504,161,415,626,138,0,,,
1,1786544086208,-8427,-1722,30710,7725001,1213178,1264491,0,0,0,347,351,201,282,324,288,261,176,249,214,176,364,0,,,
2,1786544086208,4948,-4709,24713,2345722,250454,-653625,0,0,0,308,187,231,222,106,179,432,513,165,407,641,144,0,,,
1,1786544086224,-9853,134,34213,8690168,807563,1988977,0,0,0,293,299,207,233,240,249,298,177,245,227,199,332,0,,,
2,1786544086224,2694,1655,13965,1123992,-147829,-160046,0,0,0,299,190,244,217,100,183,420,513,160,389,648,154,0,,,
1,1786544086240,-8815,4795,38827,9388998,260228,2662150,0,0,0,253,256,221,200,186,218,321,195,242,244,247,292,0,,,
2,1786544086240,540,1770,8346,840550,-28099,-37873,0,0,0,301,209,260,225,110,193,420,509,158,391,645,160,0,,,
1,1786544086256,-9739,14367,33816,8817228,967610,3043330,0,0,0,248,254,219,203,186,221,319,208,242,232,249,286,0,,,
2,1786544086256,1469,9,9839,660956,69638,-74525,0,0,0,318,226,261,229,126,205,422,505,164,417,635,174,0,,,
1,1786544086272,-12878,19784,23297,4685336,1481959,2224771,0,0,0,253,249,221,207,167,225,322,202,242,235,235,294,0,,,
2,1786544086272,1971,311,10796,388510,-89186,-61086,0,0,0,306,220,270,216,115,215,415,484,172,405,626,170,0,,,
1,1786544086288,-10839,18712,18219,-145385,730594,295658,0,0,0,263,242,226,204,178,222,328,212,242,242,267,295,0,,,
2,1786544086288,1497,1177,10351,290771,-221133,-45204,0,0,0,291,226,269,227,135,218,414,467,173,390,609,178,0,,,
1,1786544086304,-8389,12830,13639,-2201558,378736,-2149023,0,0,0,266,247,228,208,178,221,330,220,242,255,268,292,0,,,
2,1786544086304,1043,1502,9868,382401,-210137,-63529,0,0,0,299,205,261,235,114,218,406,447,161,381,581,173,0,,,
1,1786544086320,-8518,9648,9834,-2162462,-360410,-3444058,0,0,0,270,241,236,210,170,229,325,220,249,244,270,299,0,,,
2,1786544086320,918,1359,9763,555887,-116064,-89186,0,0,0,310,197,271,225,98,222,430,447,180,375,552,183,0,,,
1,1786544086336,-5302,9284,9188,-2245540,-1830152,-3545461,0,0,0,266,244,234,210,173,226,328,221,245,248,273,299,0,,,
2,1786544086336,899,1239,9777,684169,3665,-94073,0,0,0,316,189,273,228,109,222,398,427,172,366,521,186,0,,,
1,1786544086352,622,8705,10614,-3336545,-2067167,-3188716,0,0,0,260,253,231,208,180,221,324,221,240,245,281,290,0,,,
2,1786544086352,1019,1153,9782,763581,109955,-90408,0,0,0,325,225,290,250,125,257,417,360,185,365,496,187,0,,,
1,1786544086368,1588,6384,11184,-4570493,-1005484,-2438574,0,0,0,257,254,230,210,187,223,324,222,243,244,285,289,0,,,
2,1786544086368,1268,1038,9806,822224,139277,-94073,0,0,0,326,243,296,261,148,277,415,327,218,356,466,210,0,,,
1,1786544086384,402,3981,11395,-5446474,-623082,-1290147,0,0,0,253,253,228,206,187,223,327,226,246,240,279,289,0,,,
2,1786544086384,1464,794,9820,867428,41538,-117286,0,0,0,329,268,295,264,163,264,412,317,230,342,430,205,0,,,
1,1786544086400,430,2282,12098,-6057339,-988379,21991,0,0,0,249,254,224,202,190,222,327,228,246,238,276,286,0,,,
2,1786544086400,1493,526,9767,858876,-80634,-153938,0,0,0,334,279,294,285,184,272,408,290,237,336,401,209,0,,,
1,1786544086416,1593,1641,13333,-6437297,-1208291,602313,0,0,0,247,255,224,200,190,220,326,227,245,237,275,283,0,,,
2,1786544086416,1397,296,9696,800233,-177150,-184481,0,0,0,331,286,293,317,221,295,419,259,242,339,381,218,0,,,
1,1786544086432,1464,1000,14697,-6758613,-1215621,486248,0,0,0,248,257,227,200,190,220,328,227,247,236,273,280,0,,,
2,1786544086432,1277,124,9676,737925,-221133,-201585,0,0,0,340,305,301,346,252,309,433,238,251,335,364,227,0,,,
1,1786544086448,148,-210,15726,-6934542,-1345125,-178372,0,0,0,248,258,227,203,193,225,331,228,251,234,271,277,0,,,
2,1786544086448,1273,129,9801,713490,-212581,-219911,0,0,0,375,323,319,368,265,350,423,218,280,328,338,263,0,,,
1,1786544086464,-818,-1469,16712,-6996850,-1572367,-897971,0,0,0,248,258,226,203,189,223,333,224,251,234,263,273,0,,,
2,1786544086464,1521,186,10117,774577,-227241,-266337,0,0,0,406,332,319,381,272,385,402,194,298,325,307,296,0,,,
1,1786544086480,-1311,-2258,18099,-6985854,-1725083,-1622458,0,0,0,251,257,228,198,183,222,334,214,252,235,250,266,0,,,
2,1786544086480,1832,119,10552,904080,-283441,-346971,0,0,0,417,356,310,387,291,358,372,170,294,304,287,299,0,,,
1,1786544086496,-1876,-3517,20181,-7066489,-1717753,-2152689,0,0,0,262,254,221,202,184,218,337,211,246,233,244,254,0,,,
2,1786544086496,2215,-134,11294,1122770,-371406,-478918,0,0,0,418,403,320,393,353,374,338,162,309,290,280,314,0,,,
1,1786544086512,-1837,-6929,22321,-7249748,-1795943,-2389704,0,0,0,226,271,203,201,223,226,339,233,245,220,254,250,0,,,
2,1786544086512,2182,-339,12012,1469741,-486248,-635299,0,0,0,460,419,322,370,299,364,318,135,332,334,293,340,0,,,
1,1786544086528,-138,-13376,23886,-7334048,-1914451,-2166128,0,0,0,242,276,209,204,222,231,336,225,253,235,259,257,0,,,
2,1786544086528,1646,-358,12486,1890017,-586430,-757472,0,0,0,492,446,280,369,359,373,341,174,330,291,262,381,0,,,
1,1786544086544,3541,-23412,24618,-6899112,-1789835,-1501506,0,0,0,246,242,212,205,180,232,336,203,257,240,243,259,0,,,
2,1786544086544,899,-296,12931,2321287,-645073,-769690,0,0,0,486,467,280,348,402,382,290,164,298,269,275,396,0,,,
1,1786544086560,6848,-34003,23996,-6001140,-1342681,-812450,0,0,0,252,250,213,220,200,247,352,211,251,238,250,261,0,,,
2,1786544086560,880,-593,13874,2776993,-670730,-711047,0,0,0,546,447,277,363,368,386,226,163,278,263,265,437,0,,,
1,1786544086576,7250,-43316,21306,-4757418,-598647,-128281,0,0,0,242,252,217,211,183,235,354,209,253,235,244,258,0,,,
2,1786544086576,1124,-784,14922,3371976,-668286,-689055,0,0,0,556,483,333,371,425,422,267,163,299,258,265,432,0,,,
1,1786544086592,5541,-48757,16831,-3225368,0,635299,0,0,0,243,222,185,223,163,222,386,232,245,262,287,235,0,,,
2,1786544086592,1340,-741,15644,4131892,-624304,-720820,0,0,0,553,459,339,378,381,416,191,146,255,223,254,397,0,,,
1,1786544086608,4838,-49863,13323,-1361007,232128,880867,0,0,0,247,194,175,241,158,220,452,342,230,330,379,217,0,,,
2,1786544086608,1344,-674,16573,4957782,-568104,-779464,0,0,0,523,472,373,365,401,414,144,128,225,206,222,376,0,,,
1,1786544086624,3847,-43603,16046,839328,906524,189368,0,0,0,241,172,160,248,155,221,494,432,216,366,470,200,0,,,
2,1786544086624,1220,-751,18635,5809328,-552222,-841772,0,0,0,483,453,361,359,406,386,119,113,203,188,199,307,0,,,
1,1786544086640,957,-16444,18076,2775771,2635272,-376292,0,0,0,247,176,166,246,146,224,510,496,215,386,514,192,0,,,
2,1786544086640,1646,-1818,22833,6612005,-720820,-864985,0,0,0,393,386,313,306,320,338,117,112,194,176,195,278,0,,,
1,1786544086656,454,6719,20655,3392745,3312111,-513126,0,0,0,266,196,214,247,142,229,518,534,225,410,524,190,0,,,
2,1786544086656,3096,-2703,27853,7254635,-897971,-869872,0,0,0,325,304,272,243,230,281,137,123,184,181,186,262,0,,,
1,1786544086672,2187,7059,24039,3116634,2436130,-171042,0,0,0,278,215,270,254,154,235,534,536,236,439,539,192,0,,,
2,1786544086672,4517,-3082,32265,7753101,-724486,-974940,0,0,0,289,230,223,196,149,205,174,130,152,176,188,189,0,,,
1,1786544086688,2239,-1383,21148,2287079,1215621,-31764,0,0,0,282,253,305,253,169,246,559,535,250,467,550,223,0,,,
2,1786544086688,3598,-765,35319,7877718,-511905,-1093448,0,0,0,266,190,192,177,110,166,203,136,139,169,200,140,0,,,
1,1786544086704,1502,-1383,14261,1372003,428827,-61086,0,0,0,280,286,326,248,181,253,566,541,264,456,564,253,0,,,
2,1786544086704,4312,7150,32060,7343821,-981049,-1086118,0,0,0,259,178,193,180,118,173,209,142,152,170,204,146,0,,,
1,1786544086720,425,2340,9207,795346,54977,-20769,0,0,0,294,267,338,258,185,259,569,542,264,473,565,276,0,,,
2,1786544086720,7872,14237,25441,5165476,-1488067,-846659,0,0,0,263,199,197,177,123,172,214,149,157,171,208,154,0,,,
1,1786544086736,-306,2325,10251,580321,-83077,41538,0,0,0,290,269,332,258,196,257,582,527,285,461,557,277,0,,,
2,1786544086736,7394,17453,21919,1538158,-1505171,25656,0,0,0,268,234,198,177,137,169,224,162,163,180,222,159,0,,,
1,1786544086752,-516,1655,11251,395840,-202807,17104,0,0,0,291,266,339,263,205,273,587,530,281,473,551,281,0,,,
2,1786544086752,5178,15065,17410,-1411098,-1826487,1310916,0,0,0,271,197,208,170,116,172,223,156,167,182,222,166,0,,,
1,1786544086768,-402,1828,10921,277332,-317649,-39095,0,0,0,304,279,360,267,211,272,588,515,277,474,553,293,0,,,
2,1786544086768,6245,12222,11840,-1986533,-1645670,1727526,0,0,0,271,199,212,180,119,178,224,159,166,181,223,170,0,,,
1,1786544086784,-421,2459,10256,335975,-379958,-50090,0,0,0,302,274,347,277,202,276,593,505,272,470,552,301,0,,,
2,1786544086784,5484,10543,9538,-2533869,-822224,1546710,0,0,0,314,189,219,205,111,183,243,165,173,203,225,168,0,,,
1,1786544086800,-512,2603,10069,453262,-394618,-39095,0,0,0,294,284,345,275,209,277,586,479,289,463,543,310,0,,,
2,1786544086800,2703,8882,10409,-3541796,-351858,1038470,0,0,0,262,195,213,166,115,177,221,179,161,167,218,157,0,,,
1,1786544086816,-574,2522,10117,568104,-389732,-20769,0,0,0,303,280,341,305,211,289,590,448,272,451,514,312,0,,,
2,1786544086816,2158,6661,10380,-4464203,-620639,509461,0,0,0,262,191,238,178,109,195,227,173,172,175,220,175,0,,,
1,1786544086832,-617,2450,10131,693942,-390953,1221,0,0,0,311,280,345,316,214,295,593,411,268,440,488,316,0,,,
2,1786544086832,2656,4618,9777,-5156924,-632856,-130725,0,0,0,265,181,230,176,112,189,231,168,167,175,214,161,0,,,
1,1786544086848,-674,2325,10040,811229,-397062,18325,0,0,0,316,285,338,312,225,288,597,377,271,429,471,331,0,,,
2,1786544086848,2517,3474,9892,-5534439,-245567,-566882,0,0,0,257,183,244,176,113,192,229,168,177,172,212,165,0,,,
1,1786544086864,-784,2144,9935,879645,-373849,21991,0,0,0,322,293,339,309,229,288,594,352,275,410,443,337,0,,,
2,1786544086864,2096,2627,10399,-5820323,61086,-695164,0,0,0,257,184,218,177,114,177,232,170,163,174,216,154,0,,,
1,1786544086880,-985,1943,9873,929736,-295658,31764,0,0,0,327,306,343,314,234,300,584,319,291,396,414,346,0,,,
2,1786544086880,1919,1761,10983,-6063448,321315,-503352,0,0,0,264,185,219,176,109,176,228,164,157,175,218,152,0,,,
1,1786544086896,-1100,1742,9849,938289,-156381,53756,0,0,0,339,335,347,327,250,305,580,284,297,394,395,356,0,,,
2,1786544086896,2187,1062,11471,-6213721,598647,-120951,0,0,0,265,179,212,180,109,175,226,163,155,176,221,151,0,,,
1,1786544086912,-1095,1560,9873,919963,-23212,81855,0,0,0,359,361,351,344,269,304,582,259,292,395,373,364,0,,,
2,1786544086912,2474,335,12380,-6355441,1004262,430049,0,0,0,259,184,207,177,109,173,226,166,155,182,221,150,0,,,
1,1786544086928,-1076,1359,9997,910189,63529,117286,0,0,0,379,365,347,356,284,313,577,235,296,391,335,385,0,,,
2,1786544086928,2455,-263,13634,-6444628,1314581,988379,0,0,0,253,191,206,172,112,173,225,172,156,178,224,150,0,,,
1,1786544086944,-1076,1129,10246,924849,96516,166155,0,0,0,398,380,344,359,299,317,565,219,299,360,285,411,0,,,
2,1786544086944,2522,-918,15324,-6458067,1431868,1549154,0,0,0,250,183,204,172,110,172,225,174,155,169,228,150,0,,,
1,1786544086960,-1335,1043,10442,967610,94073,248011,0,0,0,395,384,345,358,307,331,548,199,318,354,259,445,0,,,
2,1786544086960,3134,-3082,17305,-6495940,1468520,1962099,0,0,0,250,168,206,175,100,178,222,159,152,175,235,153,0,,,
1,1786544086976,-1545,894,10662,1043357,116064,367740,0,0,0,405,391,328,369,330,334,531,172,329,346,226,469,0,,,
2,1786544086976,3603,-6982,19037,-6574131,1593136,1996307,0,0,0,245,162,204,179,102,185,215,133,150,183,249,157,0,,,
1,1786544086992,-1282,737,11313,1193630,169820,475253,0,0,0,432,399,373,393,341,361,531,172,309,333,212,480,0,,,
2,1786544086992,3642,-13706,21057,-6574131,1747074,1637118,0,0,0,242,165,205,180,99,180,215,124,149,185,247,151,0,,,
1,1786544087008,-904,641,12170,1480737,224798,518013,0,0,0,440,417,270,382,354,353,478,168,313,331,212,501,0,,,
2,1786544087008,3211,-22335,22435,-6368880,1842369,1213178,0,0,0,270,189,221,166,80,166,226,127,153,193,245,157,0,,,
1,1786544087024,-957,454,12591,1882686,257785,529009,0,0,0,455,429,242,392,390,361,458,175,343,309,205,518,0,,,
2,1786544087024,2067,-32198,22143,-5751907,1882686,846659,0,0,0,265,193,221,166,83,165,225,123,152,193,237,157,0,,,
1,1786544087040,-760,234,12691,2236988,232128,557109,0,0,0,464,445,219,394,392,352,432,175,320,308,203,521,0,,,
2,1786544087040,559,-42029,20109,-4476420,1842369,274889,0,0,0,258,195,244,155,76,172,225,128,166,199,231,175,0,,,
1,1786544087056,-191,134,12926,2582738,169820,532674,0,0,0,484,452,217,395,416,347,413,193,307,308,211,525,0,,,
2,1786544087056,-2024,-49499,17913,-2946813,1567480,-535117,0,0,0,263,192,209,180,96,173,216,122,142,195,228,155,0,,,
1,1786544087072,-315,28,13400,2921157,103847,475253,0,0,0,501,462,219,412,425,353,381,179,302,314,208,529,0,,,
2,1786544087072,-5101,-52060,15860,-1369559,684169,-1027475,0,0,0,272,223,225,168,98,165,259,176,161,204,255,158,0,,,
1,1786544087088,-770,-105,14041,3368310,51312,454483,0,0,0,502,456,221,415,411,380,354,160,319,293,179,538,0,,,
2,1786544087088,-4048,-44101,15424,785572,-463035,-315206,0,0,0,253,177,218,162,87,165,296,284,174,218,343,155,0,,,
1,1786544087104,-689,-282,14783,3915646,75747,467922,0,0,0,492,466,233,409,417,393,318,166,333,261,168,542,0,,,
2,1786544087104,636,-17372,17200,2582738,-957836,961501,0,0,0,268,168,226,218,109,182,322,368,179,251,434,153,0,,,
1,1786544087120,-765,-660,15606,4476420,134390,481361,0,0,0,477,483,242,411,442,381,288,175,337,253,176,526,0,,,
2,1786544087120,-607,8083,13610,3240029,-1285260,1397659,0,0,0,257,187,209,224,140,175,335,447,169,276,529,143,0,,,
1,1786544087136,-1249,-1229,16841,5033529,207694,509461,0,0,0,454,468,239,406,450,377,279,174,335,247,171,490,0,,,
2,1786544087136,-4570,8987,13687,3635869,-1219287,496022,0,0,0,253,183,219,184,98,164,352,469,164,289,571,141,0,,,
1,1786544087152,-2019,-1852,19358,5611408,342084,549778,0,0,0,419,428,238,371,420,366,265,173,318,226,164,455,0,,,
2,1786544087152,-2603,-981,18305,3601661,-640186,-551000,0,0,0,272,193,231,188,96,160,389,482,156,334,589,138,0,,,
1,1786544087168,-4058,-2646,23354,6217386,463035,657290,0,0,0,380,376,225,322,357,326,257,165,296,226,164,425,0,,,
2,1786544087168,3062,-3062,19176,2592512,-351858,-574213,0,0,0,280,191,236,204,114,170,406,505,162,362,597,162,0,,,
1,1786544087184,-7284,-2818,27456,6927211,364075,984714,0,0,0,349,344,207,284,315,297,260,171,280,223,169,378,0,,,
2,1786544087184,3546,-215,14903,1551597,-511905,-142942,0,0,0,275,178,255,200,101,180,437,505,183,410,600,172,0,,,
1,1786544087200,-7599,-1263,31021,7684684,43982,1584584,0,0,0,300,313,195,235,266,256,289,173,261,210,169,348,0,,,
2,1786544087200,564,1445,10543,984714,-466701,-12217,0,0,0,296,178,281,206,86,189,477,502,200,459,607,164,0,,,
1,1786544087216,-6709,2450,34189,8349306,-78190,2127032,0,0,0,262,255,224,201,187,231,311,213,254,234,233,295,0,,,
2,1786544087216,210,751,9949,668286,-196698,-109955,0,0,0,326,202,300,224,96,200,487,513,197,477,618,170,0,,,
1,1786544087232,-8394,11055,29332,8048760,439822,2470339,0,0,0,259,277,224,201,212,220,311,209,258,220,234,279,0,,,
2,1786544087232,1622,148,10978,364075,-91629,-138055,0,0,0,330,231,307,226,107,206,483,512,186,482,622,182,0,,,
1,1786544087248,-10581,17559,22723,5616295,737925,2274862,0,0,0,259,251,218,208,199,225,318,208,251,222,232,286,0,,,
2,1786544087248,1612,827,10806,179594,-140499,-84299,0,0,0,334,240,295,226,110,198,488,508,187,479,620,189,0,,,
1,1786544087264,-8772,19167,19846,874759,504574,1009149,0,0,0,260,250,223,207,188,231,317,204,251,221,225,283,0,,,
2,1786544087264,1076,1411,10241,178372,-81855,-78190,0,0,0,336,249,297,232,111,201,489,516,183,485,617,179,0,,,
1,1786544087280,-6546,15032,16070,-2030516,906524,-800233,0,0,0,262,254,221,200,195,222,319,210,249,227,236,286,0,,,
2,1786544087280,918,1497,9968,250454,4886,-112399,0,0,0,347,239,290,238,109,197,499,524,180,479,618,171,0,,,
1,1786544087296,-7542,11265,11294,-2735454,693942,-1948660,0,0,0,263,264,220,197,203,221,323,217,249,228,247,285,0,,,
2,1786544087296,1067,1359,9916,309097,19547,-134390,0,0,0,341,232,304,235,112,208,487,503,192,421,601,179,0,,,
1,1786544087312,-6829,9456,8887,-2726902,-930958,-2274862,0,0,0,264,251,226,196,186,221,323,204,250,226,235,282,0,,,
