sole_id,timestamp,accel_x,accel_y,accel_z,gyro_x,gyro_y,gyro_z,magn_x,magn_y,magn_z,pressure_01,pressure_02,pressure_03,pressure_04,pressure_05,pressure_06,pressure_07,pressure_08,pressure_09,pressure_10,pressure_11,pressure_12,corrupt,uneven modular paved,transition,brick,asphalt
1,1789066438688,-4522,11509,19435,3226590,3547905,-1518610,0,0,0,267,248,268,238,189,246,570,524,285,419,490,213,0,,,,
2,1789066438688,2761,-2904,23651,6494719,-792903,-1618792,0,0,0,385,407,235,290,390,307,129,112,185,175,184,308,0,,,,
1,1789066438704,904,12069,23560,2900388,4579045,-1210734,0,0,0,255,267,310,261,221,264,593,553,293,454,515,246,0,,,,
2,1789066438704,5446,-2885,29983,7064045,-555887,-1733635,0,0,0,288,318,206,224,208,244,148,115,169,155,182,206,0,,,,
1,1789066438720,6360,-3187,24512,2247984,3728721,-7330,0,0,0,266,315,324,292,279,286,607,555,298,506,524,285,0,,,,
2,1789066438720,7882,129,33194,7492873,-194255,-2050063,0,0,0,247,208,184,167,124,188,178,146,157,158,208,178,0,,,,
1,1789066438736,4761,-5340,18592,1298699,2692693,168598,0,0,0,300,356,322,311,313,289,623,546,298,551,528,325,0,,,,
2,1789066438736,7901,4182,30251,7759210,-62308,-2591290,0,0,0,246,184,189,181,110,188,206,150,154,156,217,154,0,,,,
1,1789066438752,4422,-765,12294,635299,1745852,7330,0,0,0,329,376,317,311,328,286,640,537,308,570,523,351,0,,,,
2,1789066438752,6623,8427,23330,7148345,-861319,-2875953,0,0,0,256,215,194,195,138,189,212,151,161,167,214,159,0,,,,
1,1789066438768,5163,3192,9648,491135,430049,-76969,0,0,0,347,371,317,323,337,310,656,532,346,566,516,347,0,,,,
2,1789066438768,7709,14199,21378,3539353,-1762957,-1874134,0,0,0,256,192,189,164,99,176,199,140,152,167,212,156,0,,,,
1,1789066438784,3785,1761,10720,627969,-719599,-4886,0,0,0,389,387,303,360,334,290,662,531,327,563,494,357,0,,,,
2,1789066438784,7451,14826,18808,-1132544,-2123367,-9773,0,0,0,259,192,185,167,101,177,199,146,152,165,218,150,0,,,,
1,1789066438800,1660,961,10997,783129,-1334129,8552,0,0,0,410,410,288,336,332,286,664,511,324,541,466,371,0,,,,
2,1789066438800,8102,10873,11529,-3275459,-2487443,1145983,0,0,0,259,189,190,171,105,180,203,147,152,165,216,152,0,,,,
1,1789066438816,516,1282,10758,977384,-1385442,-3665,0,0,0,421,402,276,367,370,307,658,484,313,516,440,388,0,,,,
2,1789066438816,9006,8164,5135,-2759889,-1622458,1155757,0,0,0,263,197,188,176,108,178,206,143,149,168,215,147,0,,,,
1,1789066438832,406,1306,10715,1133765,-1264491,-20769,0,0,0,432,402,255,377,393,307,627,458,305,502,439,404,0,,,,
2,1789066438832,5446,8868,5412,-2769662,-185703,1198517,0,0,0,266,200,193,173,103,179,207,145,151,168,217,151,0,,,,
1,1789066438848,186,899,10653,1174082,-1088561,-52534,0,0,0,437,391,237,379,418,292,623,432,312,495,412,406,0,x,,,
2,1789066438848,3024,7733,6010,-3251024,167377,1705535,0,0,0,266,199,193,172,101,180,211,145,157,167,217,152,0,x,,,
1,1789066438864,201,579,10356,1106887,-917519,-76969,0,0,0,460,406,212,365,406,292,615,424,311,464,397,400,0,,,,
2,1789066438864,4316,5991,5920,-3494149,103847,1919338,0,0,0,267,199,189,178,103,181,215,144,161,169,217,153,0,,,,
1,1789066438880,421,646,10184,1077566,-893084,-70860,0,0,0,457,389,185,384,413,301,606,407,320,450,378,402,0,,,,
2,1789066438880,4273,4838,6953,-4021936,283441,1770287,0,0,0,269,199,189,183,105,180,217,143,160,173,215,148,0,,,,
1,1789066438896,473,674,10155,1144761,-961501,-61086,0,0,0,453,389,175,378,416,297,602,389,316,424,380,422,0,,,,
2,1789066438896,3029,3618,8408,-4835609,289550,1455080,0,0,0,272,201,189,183,105,179,218,144,158,174,216,144,0,,,,
1,1789066438912,339,440,10069,1227839,-1015258,-64751,0,0,0,450,395,175,381,416,334,584,365,334,389,366,445,0,,,,
2,1789066438912,3000,2713,9246,-5382944,212581,1275486,0,0,0,272,203,193,188,110,187,220,147,160,177,218,151,0,,,,
1,1789066438928,95,81,9944,1236391,-1016479,-85521,0,0,0,446,397,167,401,435,348,580,344,330,366,348,450,0,,,,
2,1789066438928,3168,2057,10404,-5856975,328645,1150870,0,0,0,271,204,197,205,123,191,222,147,161,179,220,155,0,,,,
1,1789066438944,-454,-114,9844,1171639,-922406,-102625,0,0,0,459,396,163,405,445,341,580,323,319,353,333,456,0,,,,
2,1789066438944,2885,1206,11820,-6250373,533896,1049466,0,0,0,273,204,199,211,124,192,223,145,164,178,219,158,0,,,,
1,1789066438960,-1158,-239,9504,1064127,-660956,-80634,0,0,0,481,412,170,396,436,345,571,302,328,344,319,485,0,,,,
2,1789066438960,2349,636,13070,-6449515,626747,1029918,0,0,0,275,200,209,198,108,203,221,142,169,179,217,168,0,,,,
1,1789066438976,-1349,-483,9160,938289,-300545,0,0,0,0,503,447,171,411,449,345,566,296,328,340,312,503,0,,,,
2,1789066438976,2215,516,14381,-6582683,708603,1188743,0,0,0,277,208,196,223,127,190,221,146,162,176,219,149,0,,,,
1,1789066438992,-1129,-655,9294,838107,-70860,83077,0,0,0,537,460,170,428,478,350,563,283,326,327,300,503,0,,,,
2,1789066438992,2536,430,15946,-6610783,872315,1492954,0,0,0,272,205,197,184,102,186,220,142,162,180,219,148,0,,,,
1,1789066439008,-717,-670,9839,794124,41538,129503,0,0,0,564,474,184,430,504,354,560,250,340,312,269,536,0,,,,
2,1789066439008,2431,-440,18152,-6543588,1072679,1627344,0,0,0,265,204,202,184,108,191,216,140,164,180,221,154,0,,,,
1,1789066439024,-406,-641,10299,831998,96516,135612,0,0,0,589,526,197,430,552,330,556,247,348,319,251,556,0,,,,
2,1789066439024,1799,-2794,21158,-6407976,1226617,1431868,0,0,0,281,207,226,186,107,223,219,136,183,175,217,186,0,,,,
1,1789066439040,-287,-775,10667,967610,53756,124616,0,0,0,611,562,198,456,547,330,549,226,351,336,234,578,0,,,,
2,1789066439040,1402,-6829,24436,-6372546,1299921,1048244,0,0,0,260,206,205,197,116,209,224,138,180,181,217,176,0,,,,
1,1789066439056,4,-976,11342,1154535,-136833,124616,0,0,0,633,583,234,477,554,362,517,198,357,338,206,599,0,,,,
2,1789066439056,2301,-14821,27116,-6480058,1321912,726929,0,0,0,260,209,201,189,109,208,220,137,165,179,217,149,0,,,,
1,1789066439072,43,-1282,12108,1357342,-452040,116064,0,0,0,650,584,223,493,578,363,492,186,348,333,206,612,0,,,,
2,1789066439072,3364,-26800,27556,-6284581,1370781,438601,0,0,0,260,206,187,188,109,194,209,131,150,175,217,142,0,,,,
1,1789066439088,-660,-1765,12701,1622458,-895528,134390,0,0,0,648,605,229,483,585,394,464,180,373,323,208,618,0,,,,
2,1789066439088,1344,-37487,24608,-5183802,1543045,10995,0,0,0,262,207,192,191,112,200,210,137,159,177,223,155,0,,,,
1,1789066439104,-1072,-1780,13323,1999972,-1264491,221133,0,0,0,654,581,247,488,595,434,424,174,367,325,204,616,0,,,,
2,1789066439104,-3575,-44689,20435,-3567452,1435533,-472809,0,0,0,252,175,179,181,95,188,213,183,159,178,258,147,0,,,,
1,1789066439120,-1387,-1689,13898,2470339,-1451415,302989,0,0,0,657,590,256,498,587,425,376,179,368,333,209,623,0,,,,
2,1789066439120,-8633,-47800,16511,-1803274,507018,-642630,0,0,0,251,168,183,179,86,192,236,266,159,179,289,152,0,,,,
1,1789066439136,-1229,-1569,14644,2935818,-1342681,368962,0,0,0,653,590,246,513,580,430,340,177,365,317,195,618,0,,,,
2,1789066439136,-9739,-50011,16243,537561,-1315803,-163711,0,0,0,255,157,168,193,73,190,283,357,143,211,360,133,0,,,,
1,1789066439152,-469,-1435,15606,3463605,-682947,322536,0,0,0,652,600,241,510,551,444,341,175,358,296,185,609,0,,,,
2,1789066439152,-6001,-31897,16204,3401297,-2956587,538783,0,0,0,262,148,158,205,61,176,319,413,134,286,432,110,0,,,,
1,1789066439168,-1282,-1947,16075,4064697,-41538,249233,0,0,0,635,567,244,507,512,432,354,170,362,309,186,585,0,,,,
2,1789066439168,-622,5135,18616,4333478,-2702467,1069014,0,0,0,272,157,176,210,54,179,340,446,142,341,484,103,0,,,,
1,1789066439184,-2904,-2785,16937,4748866,168598,302989,0,0,0,590,480,241,481,487,407,328,162,360,296,170,553,0,,,,
2,1789066439184,-4685,11529,18525,3391523,-475253,445931,0,0,0,276,166,202,208,55,194,347,471,151,351,523,109,0,,,,
1,1789066439200,-3302,-3158,19727,5408600,92851,464257,0,0,0,539,419,231,419,445,389,288,160,342,241,153,525,0,,,,
2,1789066439200,-6465,-483,16774,2992017,1469741,-609643,0,0,0,277,182,222,210,69,213,352,474,150,352,540,115,0,,,,
1,1789066439216,-4067,-3330,25044,6234490,119729,665843,0,0,0,471,367,214,362,371,354,286,161,325,224,152,473,0,,,,
2,1789066439216,-794,-3704,14323,2830749,2511877,-1092227,0,0,0,286,222,235,222,77,231,369,465,147,371,551,107,0,,,,
1,1789066439232,-5996,-2589,29542,6895446,355523,918741,0,0,0,397,317,200,308,294,296,332,170,302,241,162,418,0,,,,
2,1789066439232,3464,-248,11945,2616946,2840523,-938289,0,0,0,289,250,252,222,78,218,378,484,152,404,573,115,0,,,,
1,1789066439248,-8260,354,31945,7648032,532674,1401324,0,0,0,338,258,184,246,221,239,370,203,286,247,220,341,0,,,,
2,1789066439248,3230,1340,10571,2368935,2830749,-664621,0,0,0,295,251,281,244,96,241,400,505,160,423,601,136,0,,,,
1,1789066439264,-8935,5269,31217,8311432,173485,1946216,0,0,0,276,216,209,202,143,213,377,208,266,246,244,317,0,,,,
2,1789066439264,4139,-382,10772,1927890,2601064,-540004,0,0,0,309,252,277,243,85,233,409,504,174,418,601,162,0,,,,
1,1789066439280,-8403,12653,23957,7869166,-324980,2433687,0,0,0,299,221,224,200,142,214,367,210,264,249,225,333,0,,,,
2,1789066439280,6178,-1990,11596,1192408,1754404,-345749,0,0,0,325,261,284,254,80,244,437,512,182,407,584,162,0,,,,
1,1789066439296,-5494,15955,20124,4150218,-268780,2643824,0,0,0,311,211,210,204,138,204,376,215,255,262,235,331,0,,,,
2,1789066439296,6369,-1426,11366,372627,404392,-184481,0,0,0,321,266,300,241,79,238,425,510,188,420,600,174,0,,,,
1,1789066439312,-1210,14544,19889,-952949,967610,1783726,0,0,0,328,220,210,213,145,207,377,216,254,260,243,320,0,,,,
2,1789066439312,4498,-143,10323,-4886,-514348,-191811,0,0,0,323,263,294,237,91,239,398,500,173,421,616,186,0,,,,
1,1789066439328,-1914,10289,16726,-3995058,2911383,116064,0,0,0,327,217,212,211,149,210,375,221,259,259,251,316,0,,,,
2,1789066439328,3000,469,9696,-52534,-830776,-229685,0,0,0,326,273,298,226,85,228,401,489,194,379,607,149,0,,,,
1,1789066439344,-6106,7939,10710,-4124562,2674368,-926071,0,0,0,320,230,211,211,153,208,378,220,258,260,257,306,0,,,,
2,1789066439344,2579,626,9495,134390,-690277,-244346,0,0,0,331,284,295,225,81,227,415,473,188,394,592,173,0,,,,
1,1789066439360,-6121,7580,7159,-3800803,1071457,-1265712,0,0,0,310,250,211,229,170,212,383,220,261,262,261,298,0,,,,
2,1789066439360,2593,698,9523,408057,-475253,-219911,0,0,0,331,273,297,223,72,223,396,461,171,401,565,179,0,,,,
1,1789066439376,-3469,7810,6657,-3872885,9773,-1346346,0,0,0,300,252,213,228,178,220,383,220,265,258,260,298,0,,,,
2,1789066439376,2617,674,9557,620639,-323758,-188146,0,0,0,330,266,298,223,80,225,379,441,169,395,530,191,0,,,,
1,1789066439392,-2842,7044,6963,-4367686,-118507,-1303586,0,0,0,300,252,214,217,173,223,386,220,266,261,259,298,0,,,,
2,1789066439392,2608,473,9423,767246,-186924,-168598,0,0,0,329,254,300,227,73,237,376,415,177,389,505,194,0,,,,
1,1789066439408,-2823,5795,7240,-4969999,-332310,-879645,0,0,0,307,258,215,218,169,223,392,219,267,268,261,297,0,,,,
2,1789066439408,2651,229,9236,828333,-92851,-156381,0,0,0,330,248,305,230,64,240,384,389,186,379,482,192,0,,,,
1,1789066439424,-1995,4417,7714,-5516113,-667064,-151494,0,0,0,309,256,214,218,167,221,395,220,266,267,265,299,0,,,,
2,1789066439424,2747,33,9097,828333,-73303,-146607,0,0,0,334,254,314,230,54,234,390,368,190,370,456,199,0,,,,
1,1789066439440,-497,3407,8853,-5869193,-829554,477696,0,0,0,309,253,217,217,166,222,396,223,268,270,269,302,0,,,,
2,1789066439440,2718,-67,9140,811229,-118507,-128281,0,0,0,340,267,318,233,43,235,386,352,187,368,429,199,0,,,,
1,1789066439456,268,2785,10318,-6095213,-801455,763581,0,0,0,310,245,224,217,160,227,394,219,269,269,268,305,0,,,,
2,1789066439456,2699,-90,9327,814894,-175929,-105068,0,0,0,346,275,308,242,63,240,374,335,184,365,414,203,0,,,,
1,1789066439472,-191,1799,11758,-6167295,-795346,594982,0,0,0,313,245,224,215,157,225,396,216,267,265,266,307,0,,,,
2,1789066439472,2732,-411,9590,799011,-251676,-80634,0,0,0,360,275,304,249,79,242,360,310,191,360,410,225,0,,,,
1,1789066439488,-899,536,12782,-6123313,-890641,207694,0,0,0,319,252,219,218,164,220,396,224,267,266,268,293,0,,,,
2,1789066439488,2723,-818,9423,696386,-329867,-79412,0,0,0,385,309,316,265,100,254,377,282,207,352,359,223,0,,,,
1,1789066439504,-2005,-770,13548,-5913175,-1031140,-393397,0,0,0,309,256,226,215,162,226,393,221,270,261,265,310,0,,,,
2,1789066439504,2608,-837,9054,630412,-370184,-103847,0,0,0,406,296,309,270,133,256,364,262,192,333,337,232,0,,,,
1,1789066439520,-3239,-1689,14946,-5508782,-1183856,-1070235,0,0,0,317,262,232,212,173,229,384,214,269,251,261,306,0,,,,
2,1789066439520,2373,-655,8954,686612,-337197,-172263,0,0,0,440,306,317,279,128,278,348,206,210,337,334,308,0,,,,
1,1789066439536,-3761,-2833,17281,-5226562,-1312138,-1635897,0,0,0,317,263,236,211,176,230,383,215,272,244,261,306,0,,,,
2,1789066439536,2144,-536,9332,891863,-130725,-257785,0,0,0,441,335,417,315,164,393,343,184,274,340,287,342,0,,,,
1,1789066439552,-2876,-5776,20660,-5226562,-1414763,-2117258,0,0,0,314,261,229,211,181,226,380,216,274,244,264,299,0,,,,
2,1789066439552,2392,-713,9863,1136209,162490,-340862,0,0,0,472,363,367,305,183,392,330,163,287,336,315,356,0,,,,
1,1789066439568,-234,-11538,22258,-5176472,-1222952,-2355496,0,0,0,309,259,222,212,183,226,374,212,274,246,258,298,0,,,,
2,1789066439568,2967,-1167,10543,1391551,364075,-434936,0,0,0,493,374,375,335,221,384,288,142,301,315,296,394,0,,,,
1,1789066439584,3158,-19698,22354,-4590041,-934623,-2475225,0,0,0,308,262,223,210,185,226,373,216,276,244,253,299,0,,,,
2,1789066439584,3402,-1512,11198,1632231,117286,-478918,0,0,0,565,392,400,368,233,398,259,111,351,334,259,382,0,,,,
1,1789066439600,6939,-29542,21167,-3507588,-717155,-2186897,0,0,0,304,261,221,209,189,225,376,221,276,240,256,300,0,,,,
2,1789066439600,3929,-1694,11849,1893682,-311541,-513126,0,0,0,627,408,421,342,259,471,225,115,384,295,270,389,0,,,,
1,1789066439616,6293,-36415,17530,-2564412,146607,-1275486,0,0,0,301,259,221,208,191,225,381,226,274,239,261,305,0,,,,
2,1789066439616,4335,-1780,12763,2318844,-675616,-637743,0,0,0,651,424,434,350,284,455,192,111,374,265,277,413,0,,,,
1,1789066439632,-938,-39750,11462,-1585806,1273043,29321,0,0,0,305,263,227,207,190,223,385,228,275,244,259,310,0,,,,
2,1789066439632,4383,-1842,13620,2875953,-967610,-816115,0,0,0,653,462,417,369,359,448,152,102,373,238,271,429,0,,,,
1,1789066439648,-9145,-39703,6164,-585208,960280,1510058,0,0,0,305,257,227,208,186,226,389,232,275,254,260,309,0,,,,
2,1789066439648,4115,-1861,14434,3507588,-1181413,-977384,0,0,0,652,496,356,385,438,472,133,115,379,213,264,405,0,,,,
1,1789066439664,-4407,-38104,5570,222354,-1062905,2197893,0,0,0,297,239,224,214,170,230,423,287,272,289,309,297,0,,,,
2,1789066439664,4139,-1866,15515,4315152,-1369559,-1125213,0,0,0,633,502,324,377,446,487,117,100,318,192,218,384,0,,,,
1,1789066439680,4436,-33763,9093,1284038,-1676214,1215621,0,0,0,286,225,213,227,166,227,480,418,263,329,402,245,0,,,,
2,1789066439680,4489,-2158,17214,5319414,-1610240,-1339016,0,0,0,571,498,304,373,431,474,103,71,250,176,155,353,0,,,,
1,1789066439696,1430,-16688,13395,3197268,620639,-785572,0,0,0,289,225,228,231,161,233,519,469,264,353,433,211,0,,,,
2,1789066439696,5240,-3498,20526,6238155,-1908343,-1556484,0,0,0,461,456,251,367,412,412,109,70,233,164,129,286,0,,,,
1,1789066439712,-3383,4843,18808,4221078,3853337,-1494176,0,0,0,281,300,312,249,209,254,567,496,280,425,471,222,0,,,,
2,1789066439712,6776,-5441,26460,6967528,-1782504,-1755626,0,0,0,347,362,205,302,342,332,120,76,211,152,137,236,0,,,,
1,1789066439728,2747,5479,26580,2968805,5231449,-423940,0,0,0,302,360,385,254,235,268,590,528,293,494,488,301,0,,,,
2,1789066439728,9279,-5532,33797,7419569,-708603,-1982868,0,0,0,291,298,188,243,223,240,153,95,173,164,163,197,0,,,,
1,1789066439744,6762,-5015,25187,674395,4196644,933402,0,0,0,367,385,510,270,275,288,595,520,289,512,480,344,0,,,,
2,1789066439744,9600,1062,37037,7513642,322536,-2344500,0,0,0,257,224,181,164,121,164,199,122,152,171,197,156,0,,,,
1,1789066439760,4781,-3699,16228,-9773,2678033,777020,0,0,0,395,420,556,287,317,327,602,548,296,562,489,378,0,,,,
2,1789066439760,9384,11816,32447,7227757,559552,-2924822,0,0,0,254,231,189,177,129,186,211,115,161,177,200,164,0,,,,
1,1789066439776,4541,641,10653,273667,1480737,295658,0,0,0,393,459,555,296,317,333,609,563,310,570,504,395,0,,,,
2,1789066439776,8973,22096,22842,5478239,-6108,-3789807,0,0,0,252,235,181,176,139,183,202,123,161,177,207,158,0,,,,
1,1789066439792,4833,2081,10485,640186,321315,12217,0,0,0,405,451,548,304,310,334,616,571,323,551,486,408,0,,,,
2,1789066439792,7389,25623,21062,948062,-1026253,-3022561,0,0,0,260,228,210,182,140,215,198,120,171,169,207,189,0,,,,
1,1789066439808,3838,1072,11605,796568,-691499,-41538,0,0,0,426,466,562,303,310,332,621,551,338,538,461,412,0,,,,
2,1789066439808,6685,23072,17630,-3694512,-2527760,-874759,0,0,0,272,231,193,174,131,183,194,119,155,172,208,160,0,,,,
1,1789066439824,2014,186,11773,990823,-1337794,-106290,0,0,0,428,487,549,305,309,331,595,504,347,535,449,418,0,,,,
2,1789066439824,9882,17181,10246,-5164254,-2891836,819781,0,0,0,273,234,190,173,130,182,201,125,159,169,215,157,0,,,,
1,1789066439840,985,277,11165,1078788,-1363451,-142942,0,0,0,420,496,506,318,309,341,586,460,344,516,430,429,0,,,,
2,1789066439840,9892,13797,5561,-4720766,-774577,1225395,0,0,0,275,235,199,173,130,186,190,133,156,175,218,161,0,,,,
1,1789066439856,684,497,10591,1082453,-1207069,-138055,0,0,0,422,510,470,329,316,350,615,436,352,476,400,444,0,,,,
2,1789066439856,4958,11768,6566,-4604702,894306,1440420,0,0,0,276,233,206,182,132,203,203,125,169,178,216,174,0,,,,
1,1789066439872,708,430,10208,1029918,-1009149,-102625,0,0,0,417,519,429,334,327,347,607,419,368,449,383,462,0,,,,
2,1789066439872,2766,9174,9069,-5116607,830776,1649336,0,0,0,273,231,202,185,129,203,208,115,169,184,218,174,0,,,,
1,1789066439888,837,282,10203,995710,-919963,-72082,0,0,0,420,532,405,330,359,344,592,401,353,443,371,469,0,,,,
2,1789066439888,2325,6054,11107,-5925392,610865,1458746,0,0,0,276,231,207,188,130,206,211,121,172,184,218,179,0,,,,
1,1789066439904,1076,248,10356,1018923,-944397,-56199,0,0,0,423,522,389,331,348,336,581,364,367,410,346,477,0,,,,
2,1789066439904,1828,2828,12572,-6690196,485026,834441,0,0,0,278,230,206,189,130,205,211,122,170,179,217,177,0,,,,
1,1789066439920,1196,177,10442,1087340,-1061683,-72082,0,0,0,440,498,427,343,319,352,580,312,369,403,315,480,0,,,,
2,1789066439920,1569,1124,13486,-6838025,514348,421497,0,0,0,275,228,199,187,127,204,212,119,170,183,220,176,0,,,,
1,1789066439936,808,-71,10193,1126435,-1149648,-109955,0,0,0,457,502,361,345,319,359,576,292,365,392,306,486,0,,,,
2,1789066439936,1885,411,14682,-6746395,719599,394618,0,0,0,275,229,205,187,127,212,215,121,175,189,224,182,0,,,,
1,1789066439952,138,-378,9705,1106887,-1132544,-124616,0,0,0,464,486,418,363,353,348,569,270,366,384,283,490,0,,,,
2,1789066439952,2995,90,16046,-6610783,1029918,830776,0,0,0,276,233,223,186,130,232,214,119,185,185,222,193,0,,,,
1,1789066439968,-531,-607,9279,1043357,-988379,-84299,0,0,0,454,485,361,363,369,358,570,246,364,369,271,483,0,,,,
2,1789066439968,4508,-559,17128,-6484945,1343903,1423316,0,0,0,272,232,235,186,130,250,211,116,199,180,216,205,0,,,,
1,1789066439984,-928,-713,9088,972497,-767246,12217,0,0,0,456,490,352,363,362,349,570,235,349,362,260,506,0,,,,
2,1789066439984,5168,-1368,18655,-6232047,1622458,1837482,0,0,0,276,233,192,194,133,195,212,114,158,178,215,154,0,,,,
1,1789066440000,-698,-794,9193,916297,-492357,129503,0,0,0,466,504,358,370,377,361,566,227,355,352,259,514,0,,,,
2,1789066440000,3895,-2742,21421,-5979148,1698205,1706757,0,0,0,281,246,194,199,148,196,218,128,165,183,221,159,0,,,,
1,1789066440016,-392,-976,9643,906524,-298102,200363,0,0,0,476,527,359,387,391,378,570,218,349,359,251,536,0,,,,
2,1789066440016,1732,-5077,24685,-5958379,1583362,1342681,0,0,0,276,237,197,196,141,197,210,110,162,184,210,160,0,,,,
1,1789066440032,-430,-1076,10246,959058,-215024,240680,0,0,0,484,542,365,401,408,387,557,203,348,361,235,563,0,,,,
2,1789066440032,4,-9361,26958,-6155078,1413542,1117883,0,0,0,275,236,200,197,134,204,219,112,172,186,204,170,0,,,,
1,1789066440048,-445,-1191,10729,1054353,-160046,289550,0,0,0,503,544,350,412,425,408,550,186,363,346,218,588,0,,,,
2,1789066440048,-1368,-17195,27681,-6125756,1341460,999375,0,0,0,275,235,196,199,135,197,219,105,166,183,201,158,0,,,,
1,1789066440064,-287,-1263,10993,1209513,-122173,327423,0,0,0,514,559,336,435,440,446,545,176,373,331,204,608,0,,,,
2,1789066440064,-2665,-27274,26982,-5593082,1022588,577878,0,0,0,276,246,199,202,135,204,222,110,173,186,204,162,0,,,,
1,1789066440080,-57,-1416,11371,1445307,-97738,331088,0,0,0,518,573,349,451,442,472,529,167,373,343,189,625,0,,,,
2,1789066440080,-2770,-35759,23297,-4546059,376292,-34208,0,0,0,277,245,206,214,147,219,224,109,177,189,207,169,0,,,,
1,1789066440096,-186,-1722,12041,1723861,-175929,326202,0,0,0,533,565,350,453,432,485,514,156,376,349,184,641,0,,,,
2,1789066440096,-1732,-42383,15697,-2816088,68416,-196698,0,0,0,279,244,212,205,139,222,224,112,181,189,206,175,0,,,,
1,1789066440112,-741,-2024,13361,2125811,-475253,371406,0,0,0,541,576,317,468,437,503,490,157,374,335,192,648,0,,,,
2,1789066440112,-2177,-46235,10978,-985936,377514,164933,0,0,0,276,241,214,203,138,227,224,110,179,185,206,177,0,,,,
1,1789066440128,-670,-1952,14783,2634050,-783129,456927,0,0,0,567,580,242,482,443,517,472,163,366,342,190,650,0,,,,
2,1789066440128,-3843,-44374,11213,723264,543670,601091,0,0,0,275,239,209,207,140,226,233,137,179,192,226,166,0,,,,
1,1789066440144,43,-1641,16008,3178942,-799011,466701,0,0,0,569,559,212,478,419,531,461,180,360,339,183,633,0,,,,
2,1789066440144,-4943,-35659,13955,2067167,202807,636521,0,0,0,266,223,209,221,147,213,241,239,167,220,312,148,0,,,,
1,1789066440160,28,-1421,16870,3817907,-346971,343306,0,0,0,544,522,202,486,398,503,427,202,382,348,166,627,0,,,,
2,1789066440160,-7183,-11519,19081,2835636,-381179,271224,0,0,0,257,200,175,205,126,202,220,357,147,251,433,137,0,,,,
1,1789066440176,-2048,-1789,17200,4588819,1221,351858,0,0,0,531,512,189,461,370,503,405,152,380,337,165,603,0,,,,
2,1789066440176,-6250,18305,13945,2915048,-409279,-266337,0,0,0,255,178,150,194,108,211,210,422,147,273,518,135,0,,,,
1,1789066440192,-3474,-1765,18497,5464800,85521,592539,0,0,0,504,495,185,434,374,436,378,158,386,283,153,557,0,,,,
2,1789066440192,-1196,18009,7370,3810577,273667,-1048244,0,0,0,256,172,157,226,120,242,248,484,167,299,594,133,0,,,,
1,1789066440208,-4455,-1067,21459,6458067,164933,955393,0,0,0,462,391,171,397,347,382,370,153,350,266,148,487,0,,,,
2,1789066440208,4953,-3531,12266,5712811,1411098,-1339016,0,0,0,269,188,165,278,139,266,372,580,177,378,673,125,0,,,,
1,1789066440224,-7346,-277,27073,7520972,304210,1391551,0,0,0,418,298,177,328,263,297,380,157,322,263,167,425,0,,,,
2,1789066440224,7441,-7566,22857,5773898,1337794,-733038,0,0,0,312,213,190,313,142,259,524,640,172,485,698,120,0,,,,
1,1789066440240,-10705,205,31031,8385957,57421,1960877,0,0,0,378,219,195,243,154,228,376,183,287,274,210,364,0,,,,
2,1789066440240,7336,-3618,25307,3462384,-306654,-74525,0,0,0,340,237,229,296,124,244,547,668,168,490,714,119,0,,,,
1,1789066440256,-12878,-646,30035,9110444,-1197295,2773328,0,0,0,364,198,213,213,114,204,379,198,272,285,235,351,0,,,,
2,1789066440256,5125,-2268,18942,1056796,-1617571,179594,0,0,0,328,238,232,306,133,257,570,687,179,503,709,130,0,,,,
1,1789066440272,-8753,-784,24646,8952840,-3737273,3439171,0,0,0,365,202,221,211,113,198,388,197,267,290,240,366,0,,,,
2,1789066440272,2742,-1273,12103,480140,-1571145,103847,0,0,0,341,229,255,305,129,282,582,669,203,529,690,148,0,,,,
1,1789066440288,1478,1751,23359,6929655,-3714060,2842966,0,0,0,369,201,219,210,110,196,396,197,262,297,243,371,0,,,,
2,1789066440288,1866,-143,9629,610865,-1321912,20769,0,0,0,331,225,279,320,141,280,608,653,211,512,709,133,0,,,,
1,1789066440304,8533,6489,24177,2861292,965167,-542448,0,0,0,371,202,216,214,112,198,397,205,259,301,251,366,0,,,,
2,1789066440304,1646,354,10361,632856,-1246165,8552,0,0,0,342,255,286,297,133,295,593,609,232,518,693,163,0,,,,
1,1789066440320,-1119,8446,17965,315206,5100724,-4186870,0,0,0,371,206,213,213,116,195,395,214,253,297,264,363,0,,,,
2,1789066440320,928,368,11136,540004,-1042136,1221,0,0,0,331,266,277,289,133,301,577,558,224,493,662,168,0,,,,
1,1789066440336,-9796,9332,10705,-599869,4634023,-5011538,0,0,0,375,209,210,215,120,193,397,218,249,301,266,356,0,,,,
2,1789066440336,406,378,10921,558330,-607200,-35430,0,0,0,333,272,256,304,134,282,550,548,197,457,616,178,0,,,,
1,1789066440352,-5154,10949,8217,-1406211,2080607,-2790432,0,0,0,379,207,211,214,115,189,393,222,246,301,267,358,0,,,,
2,1789066440352,593,397,10413,669508,-166155,-52534,0,0,0,321,264,254,303,134,273,550,525,219,431,538,182,0,,,,
1,1789066440368,-129,12462,7523,-2831971,1532050,-687834,0,0,0,368,204,243,212,115,205,396,224,256,301,266,372,0,,,,
2,1789066440368,1038,449,10174,770911,118507,-48869,0,0,0,312,248,291,321,131,300,533,494,227,430,483,195,0,,,,
1,1789066440384,124,12529,6652,-4861265,2081828,899193,0,0,0,370,211,219,211,119,201,395,218,259,302,268,377,0,,,,
2,1789066440384,1517,507,10107,852767,190589,-62308,0,0,0,315,237,288,322,130,302,511,449,229,403,445,202,0,,,,
1,1789066440400,-1526,10117,6250,-6129421,1458746,1632231,0,0,0,358,214,219,213,121,203,398,220,257,311,276,369,0,,,,
2,1789066440400,1617,368,9916,902858,120951,-111177,0,0,0,320,230,262,318,116,305,512,418,237,375,411,205,0,,,,
1,1789066440416,-1627,7437,7030,-6758613,433714,2078163,0,0,0,356,212,218,216,121,204,397,210,252,330,262,354,0,,,,
2,1789066440416,1627,229,9734,910189,4886,-156381,0,0,0,323,232,241,317,116,287,505,384,223,398,380,202,0,,,,
1,1789066440432,-923,5982,8681,-7147123,-419053,2189341,0,0,0,353,210,212,219,123,196,404,203,243,328,271,349,0,,,,
2,1789066440432,1727,-33,9729,863763,-199142,-195476,0,0,0,325,260,226,320,143,268,486,340,215,393,357,194,0,,,,
1,1789066440448,-172,4623,10567,-7646811,-1003040,1970651,0,0,0,355,207,207,222,123,192,410,201,238,329,272,345,0,,,,
2,1789066440448,1899,-354,9810,817337,-438601,-249233,0,0,0,326,294,216,319,179,271,444,310,217,353,345,190,0,,,,
1,1789066440464,95,1837,12510,-7728667,-1215621,1348790,0,0,0,358,206,209,255,132,194,412,202,241,325,277,335,0,,,,
2,1789066440464,1813,-684,9691,786794,-689055,-326202,0,0,0,323,330,218,311,204,275,408,295,221,339,337,194,0,,,,
1,1789066440480,-512,-172,14462,-7353595,-1022588,604756,0,0,0,359,207,211,245,132,199,409,202,249,317,280,324,0,,,,
2,1789066440480,1225,-904,9231,757472,-825889,-384845,0,0,0,324,361,225,313,205,280,428,275,239,339,323,209,0,,,,
1,1789066440496,-2421,-1009,16338,-7045719,-838107,-45204,0,0,0,358,212,213,255,141,199,410,204,253,313,281,317,0,,,,
2,1789066440496,550,-938,8887,711047,-819781,-395840,0,0,0,336,339,229,334,213,306,454,246,247,342,315,238,0,,,,
1,1789066440512,-3082,-1742,18052,-6944316,-1198517,-447153,0,0,0,353,220,216,263,146,198,412,206,253,314,279,313,0,,,,
2,1789066440512,224,-909,8944,656069,-665843,-364075,0,0,0,344,353,254,353,294,370,466,226,263,371,321,263,0,,,,
1,1789066440528,-1249,-2689,20244,-6829473,-1811826,-822224,0,0,0,349,232,217,225,133,202,407,207,252,310,277,310,0,,,,
2,1789066440528,569,-847,9652,671951,-530231,-340862,0,0,0,363,357,286,376,271,399,531,209,278,465,286,267,0,,,,
1,1789066440544,282,-4699,23029,-6614448,-1962099,-1513724,0,0,0,354,244,218,226,137,207,405,218,252,305,279,307,0,,,,
2,1789066440544,1124,-770,10476,775798,-519235,-361632,0,0,0,385,425,289,388,341,414,434,195,284,341,267,284,0,,,,
1,1789066440560,1244,-8561,25963,-6428745,-2006081,-2335948,0,0,0,344,251,217,229,157,210,408,217,254,304,273,306,0,,,,
2,1789066440560,1483,-880,11031,978606,-627969,-439822,0,0,0,402,388,323,355,375,469,452,174,335,288,255,319,0,,,,
1,1789066440576,2636,-14558,27508,-6276029,-1909564,-2740341,0,0,0,340,257,218,230,163,213,412,203,257,302,264,307,0,,,,
2,1789066440576,1000,-1368,11083,1176526,-626747,-543670,0,0,0,406,439,263,417,428,421,422,136,287,306,251,347,0,,,,
1,1789066440592,3756,-23828,26446,-5759237,-1243721,-2288301,0,0,0,334,247,220,236,163,223,422,201,262,295,260,305,0,,,,
2,1789066440592,-28,-1636,11820,1396437,-398284,-605978,0,0,0,436,450,241,423,403,421,391,129,293,298,223,355,0,,,,
1,1789066440608,2191,-32868,23297,-4884478,-309097,-1260825,0,0,0,337,244,221,241,174,224,423,207,262,297,264,305,0,,,,
2,1789066440608,-660,-1416,13534,1854586,-117286,-510683,0,0,0,465,460,234,453,410,415,341,128,284,290,215,352,0,,,,
1,1789066440624,-1962,-38808,17875,-3715282,464257,52534,0,0,0,335,244,222,245,172,228,424,201,263,297,256,303,0,,,,
2,1789066440624,-555,-1273,14505,2441017,83077,-397062,0,0,0,496,470,213,427,442,410,301,129,281,266,212,371,0,,,,
1,1789066440640,-3292,-41234,11677,-2111150,118507,835663,0,0,0,342,242,222,252,175,232,422,204,262,298,261,303,0,,,,
2,1789066440640,-210,-1282,15084,3213151,276111,-320093,0,0,0,495,484,208,409,474,440,242,125,288,252,226,395,0,,,,
1,1789066440656,38,-42641,8308,-171042,-821002,640186,0,0,0,348,248,218,245,165,223,421,216,260,302,275,296,0,,,,
2,1789066440656,253,-1206,15912,3988950,335975,-300545,0,0,0,484,478,217,380,466,452,171,114,297,231,218,385,0,,,,
1,1789066440672,2464,-40172,9140,1411098,-1058018,-288328,0,0,0,318,241,241,235,163,232,452,309,252,353,352,266,0,,,,
2,1789066440672,1627,-1249,17291,5028642,213802,-379958,0,0,0,492,461,209,377,436,425,141,102,291,222,193,334,0,,,,
1,1789066440688,4115,-24599,14386,2901609,-857654,-1175304,0,0,0,299,229,310,245,174,233,501,424,255,434,442,204,0,,,,
2,1789066440688,3110,-1363,19631,6257703,75747,-613308,0,0,0,461,438,206,399,399,372,181,90,254,227,164,279,0,,,,
1,1789066440704,4412,2790,21033,3554013,-1255938,-1820378,0,0,0,300,225,377,243,165,235,547,483,261,511,504,167,0,,,,
2,1789066440704,3464,-2890,25704,7582059,-37873,-889419,0,0,0,389,372,192,361,330,302,192,78,200,209,140,227,0,,,,
1,1789066440720,157,8805,27140,1803274,-271224,-1059240,0,0,0,307,224,418,243,157,251,576,493,275,553,530,215,0,,,,
2,1789066440720,5393,-7346,33969,8632747,171042,-963945,0,0,0,321,263,154,253,219,228,156,87,163,183,154,176,0,,,,
1,1789066440736,-3646,880,27537,287106,1172861,-59864,0,0,0,322,226,451,246,160,262,590,492,283,559,536,262,0,,,,
2,1789066440736,7858,-7891,41426,9015149,1216843,-1287703,0,0,0,260,199,161,186,128,178,201,121,161,188,191,155,0,,,,
1,1789066440752,-1799,-3421,18396,14660,1402546,274889,0,0,0,339,233,461,250,165,267,602,494,288,561,532,275,0,,,,
2,1789066440752,6077,2469,39626,8151385,830776,-1769065,0,0,0,266,205,180,181,128,181,197,111,160,168,176,153,0,,,,
1,1789066440768,1899,1828,9069,676838,-73303,81855,0,0,0,355,237,450,259,173,279,614,490,306,571,518,300,0,,,,
2,1789066440768,7245,15735,27250,5648059,-1040914,-1850921,0,0,0,272,208,191,180,130,191,196,120,162,167,184,157,0,,,,
1,1789066440784,780,3412,8695,902858,-1160643,12217,0,0,0,378,232,462,273,182,303,625,473,330,569,499,324,0,,,,
2,1789066440784,10184,21378,18391,1890017,-1959655,-1062905,0,0,0,280,204,183,180,124,181,196,128,153,167,191,146,0,,,,
1,1789066440800,-1143,2488,10686,919963,-1436755,13439,0,0,0,377,233,468,299,194,330,636,456,357,555,467,335,0,,,,
2,1789066440800,7963,19741,15424,-1211956,-1932777,222354,0,0,0,284,207,184,182,126,183,201,128,157,169,204,147,0,,,,
1,1789066440816,-2349,1555,11529,977384,-1281595,45204,0,0,0,363,252,472,278,199,344,640,439,370,527,450,365,0,,,,
2,1789066440816,7078,17248,10399,-3199712,-1974316,984714,0,0,0,284,214,184,185,129,183,200,134,153,169,211,145,0,,,,
1,1789066440832,-2426,1919,10796,1059240,-1048244,106290,0,0,0,355,309,454,298,231,349,619,402,353,499,426,373,0,,,,
2,1789066440832,6427,14434,5561,-4048814,-1120326,796568,0,0,0,277,207,185,182,131,189,198,136,156,168,218,149,0,,,,
1,1789066440848,-2431,2134,10246,1064127,-722042,145385,0,0,0,367,293,450,309,236,353,616,363,364,473,396,392,0,,,,
2,1789066440848,3914,11600,3388,-4461759,-43982,415388,0,0,0,278,210,196,182,127,190,199,136,157,166,219,150,0,,,,
1,1789066440864,-2268,1890,9973,1032362,-342084,118507,0,0,0,380,277,447,320,242,357,613,324,376,448,367,411,0,,,,
2,1789066440864,1469,9495,3852,-4703662,575435,222354,0,0,0,275,209,189,179,125,191,195,136,155,176,219,159,0,,,,
1,1789066440880,-2225,1684,9897,1044579,-2443,53756,0,0,0,382,288,419,333,259,355,592,297,373,436,354,402,0,,,,
2,1789066440880,177,7575,5355,-5126381,810007,230907,0,0,0,271,204,184,181,126,190,203,138,159,174,216,149,0,,,,
1,1789066440896,-2531,1593,9944,1100779,329867,59864,0,0,0,389,291,434,361,248,346,586,278,359,433,339,410,0,,,,
2,1789066440896,-832,5738,6848,-5510004,833220,239459,0,0,0,273,204,197,186,127,207,205,134,169,174,216,163,0,,,,
1,1789066440912,-2464,1421,10007,1169196,627969,172263,0,0,0,380,305,412,375,257,346,577,262,347,439,328,414,0,,,,
2,1789066440912,-1469,4599,8178,-5717698,718377,221133,0,0,0,278,205,196,188,129,202,206,134,169,176,218,161,0,,,,
1,1789066440928,-1560,1086,9777,1170417,737925,287106,0,0,0,374,306,394,366,272,351,581,253,361,423,313,433,0,,,,
2,1789066440928,-1785,4259,9935,-5888740,668286,274889,0,0,0,285,202,185,196,128,195,208,135,164,183,218,151,0,,,,
1,1789066440944,-856,985,9408,1138652,668286,323758,0,0,0,385,310,401,370,274,372,584,239,367,400,293,463,0,,,,
2,1789066440944,-1804,3866,11648,-6086661,626747,410501,0,0,0,290,200,185,203,128,197,211,135,165,187,218,150,0,,,,
1,1789066440960,-794,818,9404,1114218,493579,299323,0,0,0,397,323,424,372,274,393,580,227,379,384,275,478,0,,,,
2,1789066440960,-1172,3005,13156,-6268699,519235,601091,0,0,0,287,202,186,194,125,193,217,134,167,183,216,147,0,,,,
1,1789066440976,-765,492,9657,1087340,317649,284663,0,0,0,404,331,440,376,281,394,583,220,388,373,260,488,0,,,,
2,1789066440976,234,1909,14764,-6384763,472809,753807,0,0,0,278,204,185,184,123,189,217,129,165,182,214,149,0,,,,
1,1789066440992,-804,234,9906,1071457,168598,271224,0,0,0,412,334,444,400,296,395,594,208,374,363,247,519,0,,,,
2,1789066440992,1249,751,16879,-6517932,552222,682947,0,0,0,276,210,188,188,129,193,206,126,160,187,217,157,0,,,,
1,1789066441008,-880,119,10069,1089783,94073,266337,0,0,0,421,349,456,418,332,412,598,186,373,355,236,553,0,,,,
2,1789066441008,1569,-938,20090,-6728069,660956,206472,0,0,0,274,211,190,197,135,193,206,131,163,184,220,153,0,,,,
1,1789066441024,-990,86,10591,1153313,130725,245567,0,0,0,428,380,472,425,392,415,597,180,388,360,239,576,0,,,,
2,1789066441024,1727,-3732,23881,-6910107,761138,-322536,0,0,0,276,221,188,238,168,197,212,136,166,181,214,152,0,,,,
1,1789066441040,-1785,81,11203,1296256,384845,223576,0,0,0,444,439,520,442,433,435,596,179,391,350,232,597,0,,,,
2,1789066441040,1789,-8839,26805,-6844134,877202,-379958,0,0,0,272,215,193,187,131,193,211,125,169,176,205,150,0,,,,
1,1789066441056,-2402,-162,11304,1490511,728151,328645,0,0,0,441,421,538,482,423,483,592,164,426,336,206,609,0,,,,
2,1789066441056,2153,-18052,27714,-6194173,978606,32986,0,0,0,263,211,186,192,133,195,208,115,168,172,203,150,0,,,,
1,1789066441072,-2263,-478,11328,1670105,968832,489913,0,0,0,462,463,534,497,464,498,575,164,418,368,219,615,0,,,,
2,1789066441072,1627,-28982,27116,-4996877,1230282,428827,0,0,0,279,216,189,244,163,198,219,121,172,173,205,147,0,,,,
1,1789066441088,-1588,-713,11404,1846034,1099557,631634,0,0,0,482,500,432,526,507,496,587,160,405,342,202,626,0,,,,
2,1789066441088,-2890,-37908,24962,-3593109,1616349,588874,0,0,0,277,213,193,199,138,199,214,123,169,175,211,151,0,,,,
1,1789066441104,-564,-1086,11505,2072054,1026253,702495,0,0,0,512,518,416,559,494,538,565,155,404,334,185,646,0,,,,
2,1789066441104,-7260,-42675,19870,-2590068,1016479,755029,0,0,0,276,213,188,197,137,204,214,122,169,176,210,151,0,,,,
1,1789066441120,378,-1344,12213,2348165,756251,708603,0,0,0,519,520,309,588,540,518,539,163,408,336,193,650,0,,,,
2,1789066441120,-4522,-47403,12892,-1372003,-90408,901637,0,0,0,278,188,170,204,119,199,246,164,166,216,232,147,0,,,,
1,1789066441136,411,-1316,13371,2806314,437379,663399,0,0,0,509,540,236,572,569,523,509,174,428,336,211,647,0,,,,
2,1789066441136,-1569,-46891,11768,565661,-375071,724486,0,0,0,268,141,157,207,83,182,277,282,154,232,300,128,0,,,,
1,1789066441152,43,-1421,14122,3351206,211359,651182,0,0,0,512,531,204,573,539,535,495,178,458,330,194,653,0,,,,
2,1789066441152,-2172,-28734,15041,2883283,-1149648,761138,0,0,0,253,115,146,207,84,169,332,390,140,243,399,112,0,,,,
1,1789066441168,-253,-1675,14721,4024380,46425,685390,0,0,0,502,525,183,589,557,562,460,185,511,321,198,646,0,,,,
2,1789066441168,-856,6001,18080,4030488,-2411695,1102000,0,0,0,259,110,157,212,57,175,398,454,140,326,489,116,0,,,,
1,1789066441184,-770,-1871,15506,4745201,-87964,756251,0,0,0,486,502,171,589,559,589,436,187,544,309,197,626,0,,,,
2,1789066441184,-2622,14481,18731,3571118,-2493551,835663,0,0,0,289,141,177,236,73,190,455,524,150,464,569,109,0,,,,
1,1789066441200,-1876,-2187,17420,5563760,-328645,916297,0,0,0,470,461,165,564,504,589,406,173,544,293,177,586,0,,,,
2,1789066441200,-4728,665,20669,3499036,-1540602,83077,0,0,0,299,186,197,261,118,218,485,559,158,549,612,93,0,,,,
1,1789066441216,-2100,-3393,22464,6396980,-568104,1145983,0,0,0,448,404,163,504,429,521,353,157,496,261,156,504,0,,,,
2,1789066441216,-3053,-7480,22981,3078760,-419053,-354301,0,0,0,297,212,221,276,127,250,505,544,160,561,616,98,0,,,,
1,1789066441232,-722,-5489,31222,6991963,-557109,1222952,0,0,0,417,323,161,420,339,383,348,155,404,235,147,401,0,,,,
2,1789066441232,-626,-2077,19109,1668883,-109955,-180816,0,0,0,310,222,244,279,123,268,516,541,174,549,613,122,0,,,,
1,1789066441248,-406,-3962,37578,7326717,-379958,1001818,0,0,0,369,259,167,329,240,270,389,166,335,247,175,323,0,,,,
2,1789066441248,-942,2144,12026,842994,96516,-7330,0,0,0,297,230,266,267,132,285,499,547,196,528,603,137,0,,,,
1,1789066441264,-1440,3460,38042,7685906,76969,774577,0,0,0,326,232,196,238,179,250,389,188,312,254,215,300,0,,,,
2,1789066441264,-1244,2167,7820,788016,662177,-53756,0,0,0,298,249,282,269,159,297,515,545,188,515,590,160,0,,,,
1,1789066441280,-5661,10533,29437,7139792,338419,996932,0,0,0,347,236,199,241,177,249,392,189,311,258,215,293,0,,,,
2,1789066441280,497,760,9384,878424,935845,-112399,0,0,0,294,233,274,278,152,340,535,530,222,481,544,201,0,,,,
1,1789066441296,-5556,13625,22967,4951673,695164,1572367,0,0,0,339,224,201,234,168,242,392,189,304,254,216,296,0,,,,
2,1789066441296,1440,583,10882,863763,767246,-103847,0,0,0,318,223,249,294,128,330,531,523,216,471,523,193,0,,,,
1,1789066441312,-3546,13433,19076,1325577,2180788,1616349,0,0,0,346,224,207,225,159,236,386,197,303,254,220,312,0,,,,
2,1789066441312,760,914,10691,835663,599869,-114842,0,0,0,306,219,251,283,132,316,465,427,256,459,479,200,0,,,,
1,1789066441328,-6791,14410,14036,-759916,2838079,707381,0,0,0,347,227,207,238,166,236,377,204,296,254,228,317,0,,,,
2,1789066441328,114,971,10155,822224,708603,-133168,0,0,0,295,213,274,294,139,343,523,459,228,447,473,223,0,,,,
1,1789066441344,-8131,15151,9408,-2238210,2216219,-135612,0,0,0,347,230,209,224,167,236,377,220,297,256,244,318,0,,,,
2,1789066441344,153,808,10011,807563,994488,-122173,0,0,0,308,213,254,310,155,349,508,414,221,424,443,212,0,,,,
1,1789066441360,-6652,13936,6604,-3360980,1208291,-779464,0,0,0,346,236,209,232,177,237,389,219,295,263,254,315,0,,,,
2,1789066441360,521,760,10169,802676,1196074,-85521,0,0,0,307,211,260,304,163,329,469,388,225,400,407,218,0,,,,
1,1789066441376,-5939,11409,5747,-4194200,681725,-1092227,0,0,0,347,237,210,236,178,238,394,206,293,268,244,302,0,,,,
2,1789066441376,990,760,10208,801455,1313360,-54977,0,0,0,304,197,231,302,137,333,453,342,236,369,364,212,0,,,,
1,1789066441392,-5532,8982,5762,-4839274,81855,-1062905,0,0,0,347,234,209,242,176,240,398,204,291,272,244,297,0,,,,
2,1789066441392,1593,670,9964,781907,1244943,-29321,0,0,0,296,186,223,295,128,316,443,322,282,323,329,212,0,,,,
1,1789066441408,-4417,6518,6795,-5341405,-520457,-641408,0,0,0,343,237,209,241,176,239,400,206,291,271,246,294,0,,,,
2,1789066441408,2249,603,9748,756251,1047023,-23212,0,0,0,301,196,236,299,128,365,428,301,316,291,300,230,0,,,,
1,1789066441424,-3407,4426,8446,-5729915,-767246,-72082,0,0,0,338,237,210,239,177,239,403,210,294,272,247,295,0,,,,
2,1789066441424,3019,536,9581,735481,613308,-51312,0,0,0,312,209,245,323,135,397,415,284,315,289,285,246,0,,,,
1,1789066441440,-2809,3168,9978,-6056117,-921184,237015,0,0,0,337,237,210,241,178,239,408,214,295,274,249,295,0,,,,
2,1789066441440,3350,358,9365,715934,-39095,-94073,0,0,0,318,213,247,344,147,401,414,267,310,289,279,248,0,,,,
1,1789066441456,-2287,2455,11438,-6352998,-1009149,161268,0,0,0,335,238,211,259,185,237,411,213,294,274,251,293,0,,,,
2,1789066441456,3172,167,9045,671951,-698829,-129503,0,0,0,318,232,248,353,159,408,418,245,309,285,276,243,0,,,,
1,1789066441472,-2756,1670,12577,-6532592,-1105666,-194255,0,0,0,327,238,212,270,187,235,411,208,295,271,249,291,0,,,,
2,1789066441472,2531,-33,8791,569326,-1227839,-157603,0,0,0,307,249,254,347,164,402,412,225,304,287,277,243,0,,,,
1,1789066441488,-3129,358,13955,-6502049,-1562593,-390953,0,0,0,318,243,210,230,175,240,414,207,295,268,246,288,0,,,,
2,1789066441488,1837,-239,8868,398284,-1464854,-193033,0,0,0,291,235,266,317,189,391,399,209,324,280,277,256,0,,,,
1,1789066441504,-1234,-1335,16142,-6326120,-2167349,-83077,0,0,0,310,241,209,235,180,245,415,209,296,274,250,291,0,,,,
2,1789066441504,1354,-411,9002,221133,-1456302,-274889,0,0,0,301,261,268,303,253,401,401,200,346,279,281,267,0,,,,
1,1789066441520,1933,-3024,18583,-6211277,-2158797,515570,0,0,0,315,246,213,239,181,246,413,206,297,278,252,295,0,,,,
2,1789066441520,894,-387,9107,146607,-1255938,-390953,0,0,0,339,255,281,324,221,446,407,178,360,280,268,278,0,,,,
1,1789066441536,3278,-4297,19975,-6113539,-1792278,819781,0,0,0,304,251,212,241,193,248,413,208,296,277,252,292,0,,,,
2,1789066441536,378,-205,9533,234572,-934623,-467922,0,0,0,360,277,271,372,233,494,408,162,351,277,264,314,0,,,,
1,1789066441552,3005,-5589,20617,-5877745,-1495398,520457,0,0,0,299,249,212,245,209,248,412,203,293,277,246,292,0,,,,
2,1789066441552,224,-23,10351,452040,-579100,-494800,0,0,0,381,300,262,405,246,490,416,144,391,284,240,324,0,,,,
1,1789066441568,2790,-7815,21651,-5424483,-1500285,-496022,0,0,0,300,255,211,248,217,250,412,196,294,281,233,292,0,,,,
2,1789066441568,459,-90,11079,746477,-252898,-491135,0,0,0,412,361,240,414,297,515,427,161,412,281,224,359,0,,,,
1,1789066441584,3072,-12194,22847,-5013981,-1607797,-1585806,0,0,0,301,263,216,251,211,254,412,198,301,268,229,297,0,,,,
2,1789066441584,430,-253,11414,984714,-13439,-487470,0,0,0,412,393,241,456,368,503,416,150,368,267,214,394,0,,,,
1,1789066441600,4656,-20789,23053,-4624249,-1802052,-2243097,0,0,0,305,268,218,250,205,255,413,201,299,269,233,299,0,,,,
2,1789066441600,445,-402,12337,1297477,144164,-448375,0,0,0,467,402,251,472,383,548,394,127,386,271,209,446,0,,,,
1,1789066441616,7006,-30753,21062,-3791029,-1457524,-1656666,0,0,0,304,269,218,250,206,255,414,202,297,272,237,297,0,,,,
2,1789066441616,1249,-363,13582,1748296,81855,-436157,0,0,0,475,417,235,492,463,583,374,132,414,248,188,502,0,,,,
1,1789066441632,5374,-37755,17654,-2455678,-244346,-321315,0,0,0,306,271,219,252,207,256,415,202,298,272,238,295,0,,,,
2,1789066441632,2191,-368,15037,2408030,-90408,-533896,0,0,0,466,412,238,505,495,597,346,126,421,236,182,551,0,,,,
1,1789066441648,229,-37851,13519,-1422094,416610,944397,0,0,0,308,275,219,253,208,256,415,206,300,271,239,295,0,,,,
2,1789066441648,2469,-430,15941,3211929,-254119,-723264,0,0,0,465,428,238,523,515,580,328,122,408,259,190,564,0,,,,
1,1789066441664,-583,-36286,10284,-444709,40317,1657888,0,0,0,304,266,222,250,202,258,420,225,300,283,263,285,0,,,,
2,1789066441664,2053,-464,15783,4089131,-299323,-929736,0,0,0,475,434,231,528,508,583,294,113,391,263,181,556,0,,,,
1,1789066441680,3172,-33280,9767,847880,-649960,1297477,0,0,0,293,245,234,250,191,260,451,300,295,317,326,258,0,,,,
2,1789066441680,1320,-583,15577,4929682,-227241,-1088561,0,0,0,466,429,227,509,485,592,261,101,384,248,158,529,0,,,,
1,1789066441696,5369,-21392,16520,2172236,-290771,-80634,0,0,0,281,234,254,256,187,257,505,417,293,367,401,229,0,,,,
2,1789066441696,358,-593,16324,5747020,37873,-1158200,0,0,0,434,403,227,466,432,569,245,83,377,228,139,492,0,,,,
1,1789066441712,2536,-2785,20669,2583959,965167,-1382998,0,0,0,279,239,291,257,181,256,550,458,309,412,441,238,0,,,,
2,1789066441712,296,-966,19722,6467841,332310,-1098335,0,0,0,383,362,227,390,340,507,218,75,334,191,123,410,0,,,,
1,1789066441728,-2081,8437,21708,1915673,2955366,-1620014,0,0,0,272,275,326,247,203,267,581,471,329,443,470,295,0,,,,
2,1789066441728,2258,-2321,26968,7238753,636521,-994488,0,0,0,337,317,199,313,261,377,192,81,256,167,123,278,0,,,,
1,1789066441744,-880,4474,23589,1192408,3849672,-500909,0,0,0,271,296,352,242,226,269,605,483,318,464,484,325,0,,,,
2,1789066441744,5398,-3149,33175,7679797,877202,-1038470,0,0,0,306,257,162,256,192,237,199,90,191,172,146,177,0,,,,
1,1789066441760,3555,282,17951,861319,2680476,377514,0,0,0,293,321,379,258,253,290,602,506,330,473,499,334,0,,,,
2,1789066441760,7269,-732,35013,7880161,1309695,-1380555,0,0,0,274,196,167,198,113,194,219,100,167,169,167,150,0,,,,
1,1789066441776,4465,1340,11189,866206,1171639,338419,0,0,0,295,321,427,273,254,313,602,500,342,496,499,355,0,,,,
2,1789066441776,7686,6566,31557,7495316,1836260,-1861917,0,0,0,272,197,181,200,121,203,227,104,172,175,165,157,0,,,,
1,1789066441792,2814,2388,8906,803898,160046,26878,0,0,0,309,338,419,279,267,322,608,512,348,481,501,378,0,,,,
2,1789066441792,5479,15357,24575,5670051,1029918,-1991420,0,0,0,274,244,197,200,148,221,231,119,183,175,175,163,0,,,,
1,1789066441808,1459,1828,10409,500909,-332310,-83077,0,0,0,320,335,400,281,264,327,617,505,350,489,500,374,0,,,,
2,1789066441808,5278,19315,21387,1918116,-1921782,-311541,0,0,0,281,187,172,205,117,201,219,109,170,177,178,154,0,,,,
1,1789066441824,397,1842,11194,317649,-599869,-69638,0,0,0,314,372,408,283,284,335,615,509,355,488,494,381,0,,,,
2,1789066441824,8135,18387,16621,-1291369,-3811799,1598023,0,0,0,280,197,175,206,117,197,216,109,162,170,179,146,0,,,,
1,1789066441840,-67,2292,10562,392175,-540004,-18325,0,0,0,320,368,426,283,274,334,617,497,366,479,486,382,0,,,,
2,1789066441840,8537,15955,11103,-2631607,-3109304,1743409,0,0,0,285,186,180,200,116,194,225,124,171,179,192,152,0,,,,
1,1789066441856,-191,2440,10251,497244,-360410,2443,0,0,0,334,342,422,291,262,333,616,481,363,467,473,381,0,,,,
2,1789066441856,6164,14223,7934,-3475823,-1908343,768468,0,0,0,280,168,183,194,108,193,221,123,168,179,194,148,0,,,,
1,1789066441872,-28,2412,10366,568104,-139277,6108,0,0,0,339,337,416,300,274,343,610,468,360,459,452,386,0,,,,
2,1789066441872,3259,12524,7284,-4409225,-1159422,-505796,0,0,0,276,188,179,197,116,193,221,123,166,181,198,147,0,,,,
1,1789066441888,124,2455,10366,631634,-12217,19547,0,0,0,354,352,411,312,290,347,595,453,361,453,438,391,0,,,,
2,1789066441888,2163,9868,7269,-5338962,-1020144,-1202182,0,0,0,279,187,185,195,115,193,223,132,167,183,199,155,0,,,,
1,1789066441904,196,2378,10313,720820,64751,48869,0,0,0,362,359,412,318,288,347,584,430,358,437,426,393,0,,,,
2,1789066441904,2292,6838,7049,-5863084,-902858,-1494176,0,0,0,276,182,187,199,115,198,224,131,169,181,202,151,0,,,,
1,1789066441920,320,2096,10179,822224,108734,75747,0,0,0,365,364,425,322,282,355,581,411,358,426,412,396,0,,,,
2,1789066441920,2847,4852,7044,-5848423,-570548,-1337794,0,0,0,278,185,186,197,114,196,229,133,173,181,204,149,0,,,,
1,1789066441936,397,1799,10045,867428,89186,81855,0,0,0,380,377,430,331,290,366,571,405,363,430,405,399,0,,,,
2,1789066441936,3072,4087,8092,-5644394,86742,-587652,0,0,0,278,187,187,197,114,195,230,133,169,183,201,146,0,,,,
1,1789066441952,258,1655,9968,905302,79412,90408,0,0,0,364,379,442,317,304,377,563,391,368,428,396,399,0,,,,
2,1789066441952,3115,3766,9830,-5600412,689055,520457,0,0,0,278,188,188,199,115,196,230,133,168,183,201,146,0,,,,
1,1789066441968,76,1689,9906,983493,123394,125838,0,0,0,370,383,438,311,314,371,574,369,365,415,382,405,0,,,,
2,1789066441968,3273,2914,11610,-5772676,1012814,1557706,0,0,0,278,186,187,201,115,198,228,132,169,182,201,149,0,,,,
1,1789066441984,253,1636,9786,1098335,190589,179594,0,0,0,361,423,481,315,340,374,568,353,392,416,375,419,0,,,,
2,1789066441984,3182,2081,13381,-5993809,1089783,2211332,0,0,0,274,182,192,197,112,204,224,130,165,187,198,173,0,,,,
1,1789066442000,626,1392,9696,1182635,221133,202807,0,0,0,399,409,488,330,326,368,567,329,372,422,358,439,0,,,,
2,1789066442000,3306,1722,14955,-6214942,896750,2399478,0,0,0,265,182,199,183,106,204,214,129,160,196,191,209,0,,,,
1,1789066442016,746,952,9873,1226617,183259,179594,0,0,0,379,435,509,326,362,368,574,311,386,408,343,468,0,,,,
2,1789066442016,4125,952,16544,-6354220,784350,2251649,0,0,0,261,180,187,176,102,191,205,132,158,192,182,221,0,,,,
1,1789066442032,311,536,10299,1246165,129503,150272,0,0,0,376,454,499,354,413,383,575,286,386,377,335,474,0,,,,
2,1789066442032,4168,-1196,18937,-6317568,934623,1639562,0,0,0,258,170,191,182,104,201,223,142,169,190,176,232,0,,,,
1,1789066442048,-4,449,10567,1292590,120951,161268,0,0,0,388,497,516,357,457,374,571,277,389,364,315,508,0,,,,
2,1789066442048,2412,-4053,22435,-6229603,1070235,610865,0,0,0,262,170,197,185,101,202,228,143,172,199,176,240,0,,,,
1,1789066442064,129,521,10758,1387885,153938,222354,0,0,0,406,516,534,357,486,400,574,242,399,352,294,539,0,,,,
2,1789066442064,1828,-8145,25996,-6415306,841772,-295658,0,0,0,238,109,213,204,85,211,257,99,172,219,161,240,0,,,,
1,1789066442080,478,526,11127,1547932,180816,260228,0,0,0,429,520,540,387,467,382,582,219,396,346,264,565,0,,,,
2,1789066442080,3900,-14577,27317,-6581462,734260,-631634,0,0,0,270,172,200,193,99,219,229,105,178,200,162,255,0,,,,
1,1789066442096,770,67,11730,1837482,129503,272445,0,0,0,440,540,544,398,486,393,584,204,388,337,257,580,0,,,,
2,1789066442096,6891,-23924,26259,-6249151,957836,-649960,0,0,0,271,175,198,196,101,217,237,104,174,201,156,242,0,,,,
1,1789066442112,1392,-402,11954,2101376,-7330,250454,0,0,0,434,574,501,406,529,411,577,201,394,333,251,585,0,,,,
2,1789066442112,5163,-33342,23091,-4937012,1821600,-552222,0,0,0,271,174,198,196,104,221,237,117,184,198,167,248,0,,,,
1,1789066442128,1727,-464,11916,2421469,-207694,146607,0,0,0,442,588,431,420,560,414,561,196,401,338,237,588,0,,,,
2,1789066442128,-2689,-39554,20899,-3078760,2763554,-230907,0,0,0,267,171,191,197,98,217,238,108,182,198,162,240,0,,,,
1,1789066442144,1373,-540,12232,2745228,-404392,54977,0,0,0,469,579,360,430,577,423,534,181,393,338,227,592,0,,,,
2,1789066442144,-8585,-41890,19305,-1275486,2040289,469144,0,0,0,264,174,189,201,102,223,239,115,175,192,171,220,0,,,,
1,1789066442160,531,-756,13208,3106860,-625526,42760,0,0,0,484,581,283,448,580,436,496,176,391,323,220,589,0,,,,
2,1789066442160,-6106,-43455,15931,195476,310319,884532,0,0,0,265,147,194,209,87,233,265,205,190,194,242,191,0,,,,
1,1789066442176,-205,-1028,14840,3604104,-758694,127059,0,0,0,494,570,247,457,564,434,445,173,406,315,220,581,0,,,,
2,1789066442176,-4513,-39612,16161,1506393,-1105666,690277,0,0,0,263,103,179,216,60,230,292,339,184,231,323,155,0,,,,
1,1789066442192,-1469,-1579,16176,4266282,-667064,274889,0,0,0,480,554,242,457,515,440,383,176,403,306,219,574,0,,,,
2,1789066442192,-4359,-12098,15228,3160616,-2725680,941954,0,0,0,253,110,161,217,70,224,292,432,166,251,419,148,0,,,,
1,1789066442208,-3024,-1823,16702,5040859,-411723,547335,0,0,0,456,526,233,438,493,459,319,169,391,292,211,555,0,,,,
2,1789066442208,-2512,16759,10868,3813020,-3442836,1310916,0,0,0,255,139,145,228,88,219,317,492,149,336,513,137,0,,,,
1,1789066442224,-4556,-1909,17525,5930279,-255341,1022588,0,0,0,456,478,216,461,487,443,286,171,389,271,201,537,0,,,,
2,1789066442224,-5087,12653,14185,3711617,-2262644,808785,0,0,0,284,192,161,242,96,214,379,559,148,432,613,118,0,,,,
1,1789066442240,-5221,-2589,20579,6638883,-18325,1533271,0,0,0,456,422,210,431,460,415,256,179,368,252,198,489,0,,,,
2,1789066442240,-7355,-2699,21560,3028669,-83077,-245567,0,0,0,308,251,230,250,124,228,438,599,166,491,681,130,0,,,,
1,1789066442256,-6302,-5704,25996,7244861,616973,2019520,0,0,0,418,365,201,370,346,367,311,158,365,236,161,431,0,,,,
2,1789066442256,-3474,-7700,23287,2309070,1707979,-1123992,0,0,0,323,285,267,267,157,242,470,600,168,533,688,142,0,,,,
1,1789066442272,-5853,-10490,32208,7836179,827111,2398256,0,0,0,319,277,196,252,201,263,369,197,292,244,216,315,0,,,,
2,1789066442272,2699,-1497,19138,2151467,2073276,-962723,0,0,0,353,305,272,301,173,250,471,602,160,519,687,151,0,,,,
1,1789066442288,-5580,-7355,36975,8360301,-43982,2542421,0,0,0,307,252,205,236,172,245,395,200,284,257,223,300,0,,,,
2,1789066442288,4178,1445,15644,1685988,1569923,-353080,0,0,0,364,302,294,320,195,268,480,605,164,519,684,182,0,,,,
1,1789066442304,-5364,10246,30418,7348708,-1486845,2643824,0,0,0,311,239,207,235,165,240,393,199,283,260,233,305,0,,,,
2,1789066442304,2273,1086,12136,896750,1044579,6108,0,0,0,370,337,280,279,235,272,518,600,183,522,666,193,0,,,,
1,1789066442320,-2081,18860,25695,4483750,-911410,2123367,0,0,0,323,228,210,224,153,231,375,204,280,257,238,307,0,,,,
2,1789066442320,1478,1119,9710,700051,1038470,-69638,0,0,0,372,341,302,303,239,321,495,594,217,534,644,221,0,,,,
1,1789066442336,-1679,17094,21842,474031,1836260,-339641,0,0,0,334,227,213,216,149,227,358,216,274,258,256,308,0,,,,
2,1789066442336,1957,1579,9585,911410,1094670,-173485,0,0,0,388,333,322,344,215,344,535,570,234,523,599,250,0,,,,
1,1789066442352,-4967,13759,15802,-1131322,2657263,-2987131,0,0,0,337,226,212,216,150,226,358,226,272,263,271,306,0,,,,
2,1789066442352,2435,1445,10581,1042136,926071,-168598,0,0,0,379,355,244,311,246,295,464,526,206,487,561,253,0,,,,
1,1789066442368,-3823,12658,10246,-1665218,1931555,-4118453,0,0,0,337,222,212,219,148,228,365,227,275,269,270,303,0,,,,
2,1789066442368,2498,1115,10571,933402,671951,-140499,0,0,0,380,352,277,326,265,351,427,489,231,462,529,272,0,,,,
1,1789066442384,866,12514,7494,-1899790,1106887,-3248581,0,0,0,334,218,215,217,143,231,361,225,276,272,269,302,0,,,,
2,1789066442384,2278,985,9940,753807,428827,-147829,0,0,0,372,353,243,350,274,370,433,466,210,460,490,283,0,,,,
1,1789066442400,3015,11117,6657,-2630385,1119105,-1409876,0,0,0,332,217,217,214,139,230,362,226,275,272,268,300,0,,,,
2,1789066442400,2230,1124,9734,733038,350636,-178372,0,0,0,373,342,242,332,253,338,405,443,203,399,474,311,0,,,,
1,1789066442416,3010,9629,6724,-3710395,1130100,403171,0,0,0,332,220,217,222,142,229,367,229,277,272,273,296,0,,,,
2,1789066442416,2737,995,9705,748920,219911,-186924,0,0,0,378,340,257,313,236,329,368,397,207,395,432,286,0,,,,
1,1789066442432,2431,8174,7331,-5051855,928515,1694540,0,0,0,333,220,216,258,158,224,373,233,275,278,274,296,0,,,,
2,1789066442432,3110,808,9456,681725,-76969,-173485,0,0,0,381,352,249,309,246,328,348,356,208,411,405,271,0,,,,
1,1789066442448,1703,5867,7456,-5836206,630412,1855808,0,0,0,331,221,213,216,142,227,370,233,272,278,276,296,0,,,,
2,1789066442448,3115,813,9164,549778,-481361,-167377,0,0,0,383,347,244,309,243,329,327,335,212,388,374,304,0,,,,
1,1789066442464,201,3656,7796,-6025574,151494,1197295,0,0,0,334,220,213,212,142,226,366,232,272,270,278,296,0,,,,
2,1789066442464,2766,804,9069,436157,-810007,-184481,0,0,0,404,331,268,310,226,340,312,301,203,374,321,326,0,,,,
1,1789066442480,-1684,2498,8853,-5847202,-519235,-80634,0,0,0,334,217,212,211,139,225,375,226,272,266,272,294,0,,,,
2,1789066442480,2000,732,9035,348193,-971275,-215024,0,0,0,416,324,295,304,222,355,293,269,204,370,305,339,0,,,,
1,1789066442496,-2809,1756,10323,-5836206,-1241278,-1265712,0,0,0,337,219,208,218,143,227,380,227,275,270,273,294,0,,,,
2,1789066442496,1608,741,8944,290771,-893084,-217468,0,0,0,429,326,317,305,232,367,282,251,211,365,300,337,0,,,,
1,1789066442512,-2273,947,11907,-5902179,-1653001,-2043955,0,0,0,335,229,210,215,145,226,379,225,274,307,254,284,0,,,,
2,1789066442512,1560,684,8915,233350,-797790,-211359,0,0,0,461,335,330,316,253,379,282,234,210,356,285,344,0,,,,
1,1789066442528,-1028,172,13036,-5902179,-1291369,-2150245,0,0,0,320,233,212,212,152,227,377,227,275,275,262,282,0,,,,
2,1789066442528,1541,583,8906,166155,-755029,-197920,0,0,0,485,348,334,319,286,387,274,201,217,343,291,395,0,,,,
1,1789066442544,-722,-622,14065,-5811771,-722042,-1634675,0,0,0,308,236,213,211,162,230,378,230,276,253,271,283,0,,,,
2,1789066442544,1445,665,8959,140499,-748920,-183259,0,0,0,514,359,354,337,315,381,290,158,220,359,273,428,0,,,,
1,1789066442560,-325,-1177,15687,-5712811,-520457,-959058,0,0,0,306,244,216,205,165,231,375,225,286,250,270,286,0,,,,
2,1789066442560,1564,641,9303,221133,-691499,-204028,0,0,0,546,388,329,364,311,406,289,145,221,357,258,467,0,,,,
1,1789066442576,81,-1464,18243,-5685933,-645073,-586430,0,0,0,306,246,218,208,167,236,374,219,293,249,268,291,0,,,,
2,1789066442576,1971,181,9839,393397,-510683,-311541,0,0,0,578,420,337,377,331,400,269,126,225,337,240,489,0,,,,
1,1789066442592,-224,-3766,22378,-5920505,-1021366,-571769,0,0,0,307,245,218,217,169,239,378,212,288,249,258,292,0,,,,
2,1789066442592,1421,-76,10581,627969,-152716,-497244,0,0,0,596,419,413,392,373,464,252,106,259,305,219,541,0,,,,
1,1789066442608,-875,-10026,25101,-6123313,-1491732,-607200,0,0,0,311,243,218,220,167,236,381,207,279,249,246,290,0,,,,
2,1789066442608,220,382,11299,894306,46425,-516791,0,0,0,650,448,420,402,438,466,234,103,234,334,235,565,0,,,,
1,1789066442624,-847,-19717,24455,-5538104,-1765400,-465479,0,0,0,313,241,217,221,167,237,381,209,279,247,241,289,0,,,,
2,1789066442624,-277,737,11677,1203404,84299,-344527,0,0,0,691,464,426,412,522,443,223,96,238,330,217,593,0,,,,
1,1789066442640,1110,-28518,22991,-4521624,-1853365,-256563,0,0,0,315,238,218,220,165,236,385,209,280,250,241,294,0,,,,
2,1789066442640,832,497,12390,1594358,129503,-140499,0,0,0,716,541,355,432,558,447,230,111,242,350,216,647,0,,,,
1,1789066442656,5034,-35391,20870,-3552792,-1346346,-79412,0,0,0,313,229,217,226,163,239,389,211,279,254,242,293,0,,,,
2,1789066442656,3000,19,13663,2075720,68416,-125838,0,0,0,733,555,333,477,544,457,189,105,252,312,220,621,0,,,,
1,1789066442672,4374,-38990,16305,-2634050,119729,168598,0,0,0,320,230,219,227,158,238,391,209,278,255,242,292,0,,,,
2,1789066442672,4699,-464,14491,2610838,-246789,-375071,0,0,0,734,557,294,480,532,467,178,109,254,299,235,640,0,,,,
1,1789066442688,-1995,-38434,10801,-1409876,1099557,662177,0,0,0,320,230,219,227,158,239,391,210,278,255,244,292,0,,,,
2,1789066442688,5637,-780,15094,3220481,-713490,-777020,0,0,0,734,555,331,501,573,451,177,110,239,303,218,664,0,,,,
1,1789066442704,-5431,-35381,8552,-208915,207694,1117883,0,0,0,309,228,222,215,158,232,355,271,271,290,320,269,0,,,,
2,1789066442704,5704,-856,15496,3811799,-1171639,-1240056,0,0,0,720,554,330,487,596,453,162,110,258,284,214,664,0,,,,
1,1789066442720,689,-30356,12060,1131322,-846659,879645,0,0,0,287,216,226,215,155,237,439,358,258,343,391,251,0,,,,
2,1789066442720,5427,-808,16649,4535063,-1488067,-1699427,0,0,0,696,537,298,461,582,469,157,126,267,242,215,627,0,,,,
1,1789066442736,4871,-15520,15429,2775771,-1178969,257785,0,0,0,278,194,193,226,144,218,462,424,238,387,446,240,0,,,,
2,1789066442736,5455,-741,18769,5335296,-1705535,-2092824,0,0,0,622,517,275,444,532,446,164,119,251,228,195,576,0,,,,
1,1789066442752,1962,4733,13859,3980397,-1450194,-153938,0,0,0,279,200,198,230,141,230,496,475,248,452,489,233,0,,,,
2,1789066442752,7217,-1842,22450,6288246,-1728748,-2510656,0,0,0,500,462,250,401,442,388,177,95,232,225,176,489,0,,,,
1,1789066442768,-2852,8202,14237,4792848,-1771509,150272,0,0,0,270,205,235,252,154,263,547,525,280,484,527,252,0,,,,
2,1789066442768,8638,-2613,28221,7215540,-1373225,-2989574,0,0,0,389,366,215,325,339,328,171,90,210,198,167,345,0,,,,
1,1789066442784,-5331,0,21627,5083620,-1265712,563217,0,0,0,276,221,274,277,180,290,581,555,304,489,547,281,0,,,,
2,1789066442784,7135,-124,33644,7792196,-1048244,-3338989,0,0,0,318,281,182,250,236,258,165,106,177,177,178,220,0,,,,
1,1789066442800,-5293,-9428,25709,3255911,-80634,441044,0,0,0,291,250,301,300,212,304,594,546,318,494,549,307,0,,,,
2,1789066442800,5374,4249,37884,8279667,-752585,-3431840,0,0,0,266,211,166,194,133,190,207,128,147,171,210,162,0,,,,
1,1789066442816,-3479,-6384,18492,1059240,320093,-46425,0,0,0,301,274,319,314,236,314,604,528,330,503,553,331,0,,,,
2,1789066442816,4862,11050,36286,8164824,-867428,-3282789,0,0,0,265,208,190,178,118,184,211,124,152,165,213,140,0,,,,
1,1789066442832,-1139,-143,10954,163711,178372,-252898,0,0,0,306,283,347,316,247,324,617,534,342,504,563,349,0,,,,
2,1789066442832,7092,22450,24929,6172182,-1913229,-2320066,0,0,0,263,203,197,185,123,193,215,128,157,170,220,157,0,,,,
1,1789066442848,-961,1488,8437,317649,-94073,-156381,0,0,0,314,293,377,321,258,332,626,537,350,499,560,349,0,,,,
2,1789066442848,11653,25561,16400,1849699,-2371378,565661,0,0,0,273,203,185,187,119,179,211,130,149,173,224,131,0,,,,
1,1789066442864,-1938,143,10045,296880,67195,-78190,0,0,0,326,307,367,331,276,340,629,523,351,499,544,345,0,,,,
2,1789066442864,14462,20014,10107,-1204626,-1598023,3241250,0,0,0,276,195,186,192,121,185,215,136,151,174,225,139,0,,,,
1,1789066442880,-1852,134,11371,335975,224798,-25656,0,0,0,339,323,370,355,298,346,622,500,349,496,513,353,0,,,,
2,1789066442880,13653,12936,5058,-1827708,195476,4148996,0,0,0,276,200,185,202,131,185,221,139,161,174,225,139,0,,,,
1,1789066442896,-1024,966,11634,646295,112399,24434,0,0,0,337,338,366,360,324,339,623,468,356,501,473,364,0,,,,
2,1789066442896,6953,12380,4694,-1642005,1661553,3090978,0,0,0,274,201,186,191,125,189,222,138,162,173,223,137,0,,,,
1,1789066442912,-746,751,11251,995710,-230907,61086,0,0,0,330,323,343,368,292,356,617,440,348,455,453,374,0,,,,
2,1789066442912,516,12055,6427,-2258979,1912008,1957212,0,0,0,275,202,196,191,119,197,223,131,167,177,223,144,0,,,,
1,1789066442928,-842,110,10763,1147204,-591317,68416,0,0,0,338,323,318,367,291,362,625,405,374,442,424,393,0,,,,
2,1789066442928,-1383,9734,8131,-3459940,1446528,977384,0,0,0,274,196,198,195,121,205,221,124,172,174,217,151,0,,,,
1,1789066442944,-1091,-253,10394,1130100,-897971,52534,0,0,0,334,307,293,367,283,353,609,359,365,416,376,394,0,,,,
2,1789066442944,-2589,7083,9897,-4593706,1306029,43982,0,0,0,276,195,190,197,124,200,224,130,169,176,220,145,0,,,,
1,1789066442960,-1368,-67,10265,1125213,-1117883,41538,0,0,0,338,294,265,381,287,373,609,332,367,388,329,401,0,,,,
2,1789066442960,-4383,5211,11787,-5359731,1296256,-489913,0,0,0,274,194,190,193,118,195,222,127,163,177,220,143,0,,,,
1,1789066442976,-1608,9,10179,1155757,-1194852,39095,0,0,0,321,274,259,382,281,373,605,300,389,371,296,411,0,,,,
2,1789066442976,-4819,4489,13137,-5776341,1055575,-213802,0,0,0,273,195,193,195,120,197,222,126,164,178,221,144,0,,,,
1,1789066442992,-1823,-186,9873,1159422,-1159422,34208,0,0,0,341,284,236,381,289,371,594,279,399,350,264,430,0,,,,
2,1789066442992,-3938,3560,14079,-6151412,873537,345749,0,0,0,273,195,195,194,118,200,224,125,166,177,220,146,0,,,,
1,1789066443008,-2091,-660,9509,1095892,-1054353,20769,0,0,0,342,288,222,377,292,390,589,260,419,341,247,431,0,,,,
2,1789066443008,-2885,2148,14836,-6480058,864985,886976,0,0,0,275,194,197,191,112,200,224,123,167,178,220,149,0,,,,
1,1789066443024,-2464,-971,9365,1011592,-866206,1221,0,0,0,343,290,217,387,288,394,580,239,422,344,235,442,0,,,,
2,1789066443024,-2426,1043,15893,-6682865,908967,1306029,0,0,0,275,195,196,192,113,201,223,123,167,179,222,152,0,,,,
1,1789066443040,-3321,-981,9207,938289,-513126,0,0,0,0,358,298,216,410,292,384,582,217,414,355,225,440,0,,,,
2,1789066443040,-2038,636,17071,-6767165,879645,1673770,0,0,0,275,196,195,195,118,204,224,126,170,179,223,153,0,,,,
1,1789066443056,-4388,-938,8446,844215,-20769,129503,0,0,0,375,304,233,417,305,395,587,199,420,364,223,442,0,,,,
2,1789066443056,-1938,282,18717,-6778160,816115,1975538,0,0,0,277,199,197,194,118,205,225,127,173,179,221,156,0,,,,
1,1789066443072,-4800,-885,7944,726929,577878,327423,0,0,0,382,317,250,425,321,425,589,191,427,362,224,473,0,,,,
2,1789066443072,-2493,-933,20703,-6713408,741590,1952325,0,0,0,277,199,201,194,117,204,222,121,170,176,218,151,0,,,,
1,1789066443088,-4867,-813,8293,678060,1404990,516791,0,0,0,396,351,256,451,350,428,596,185,417,355,214,503,0,,,,
2,1789066443088,-3570,-3723,22775,-6612005,603534,1321912,0,0,0,277,201,210,196,120,215,223,122,172,182,221,158,0,,,,
1,1789066443104,-4709,-1067,9389,801455,2482556,691499,0,0,0,433,390,269,445,403,413,589,178,419,359,201,520,0,,,,
2,1789066443104,-3685,-8509,24977,-6568023,288328,155159,0,0,0,273,190,201,195,122,220,221,116,173,175,213,165,0,,,,
1,1789066443120,-3474,-1722,10634,961501,3037221,901637,0,0,0,445,424,237,477,435,438,568,187,427,350,207,554,0,,,,
2,1789066443120,-1541,-14869,26819,-6488610,-12217,-664621,0,0,0,274,199,215,192,123,223,228,118,182,175,212,175,0,,,,
1,1789066443136,-665,-2206,11610,1112996,2648711,1080009,0,0,0,485,460,211,482,482,421,586,176,413,340,193,566,0,,,,
2,1789066443136,3072,-25087,27216,-6084217,-133168,-939510,0,0,0,274,206,212,194,123,226,229,124,185,175,216,174,0,,,,
1,1789066443152,2402,-2167,12553,1375668,1743409,1037249,0,0,0,510,492,181,499,513,404,536,213,397,344,190,604,0,,,,
2,1789066443152,5518,-36381,23503,-5031086,315206,-849102,0,0,0,274,198,202,195,117,219,230,124,179,179,218,167,0,,,,
1,1789066443168,3713,-1804,13720,1847256,773355,676838,0,0,0,517,492,174,531,524,456,522,167,381,324,189,586,0,,,,
2,1789066443168,2670,-45350,18473,-3433062,1130100,-566882,0,0,0,271,177,187,187,104,202,223,147,167,221,242,158,0,,,,
1,1789066443184,2120,-1684,14946,2441017,229685,329867,0,0,0,529,485,163,533,524,450,477,164,375,318,186,585,0,,,,
2,1789066443184,-4570,-50624,15616,-1221730,1778839,221133,0,0,0,284,165,173,199,90,194,245,214,156,256,281,139,0,,,,
1,1789066443200,378,-1694,15726,3083647,6108,171042,0,0,0,537,487,169,544,514,453,447,167,355,294,165,589,0,,,,
2,1789066443200,-6389,-51375,14611,1637118,2019520,1550375,0,0,0,270,133,171,184,55,182,223,284,140,249,347,122,0,,,,
1,1789066443216,-641,-1679,15845,3822794,51312,186924,0,0,0,549,484,170,536,502,448,367,165,376,300,170,582,0,,,,
2,1789066443216,-4364,-35582,15419,4277278,2525316,2631607,0,0,0,257,109,182,190,24,179,279,340,137,291,441,115,0,,,,
1,1789066443232,-1201,-1756,15692,4649906,91629,300545,0,0,0,531,487,164,510,504,472,315,165,408,276,175,542,0,,,,
2,1789066443232,-3417,-507,17793,4618141,2693915,1899790,0,0,0,279,163,217,215,61,181,380,460,136,425,590,110,0,,,,
1,1789066443248,-1363,-1895,16549,5494121,57421,443488,0,0,0,492,454,168,472,471,456,302,164,423,251,180,491,0,,,,
2,1789066443248,-1789,13189,22675,3527135,2171015,117286,0,0,0,321,216,252,236,99,197,453,553,142,528,683,113,0,,,,
1,1789066443264,-1493,-2761,20181,6379876,-36651,574213,0,0,0,453,406,176,422,406,408,298,165,381,238,166,449,0,,,,
2,1789066443264,6202,282,26365,1379333,1116661,-924849,0,0,0,351,228,273,248,107,206,502,584,147,562,703,121,0,,,,
1,1789066443280,-3378,-5010,26254,7131240,-65973,686612,0,0,0,423,358,173,368,344,356,314,170,338,233,157,407,0,,,,
2,1789066443280,11103,-5010,20674,199142,171042,-348193,0,0,0,361,237,298,250,105,196,527,593,148,578,708,124,0,,,,
1,1789066443296,-6034,-6159,32519,7586946,-173485,974940,0,0,0,360,301,174,298,268,285,355,183,309,234,176,346,0,,,,
2,1789066443296,6934,0,11873,298102,-227241,24434,0,0,0,369,242,340,244,98,192,531,589,151,605,712,128,0,,,,
1,1789066443312,-4919,-4058,35922,7782423,-311541,1364672,0,0,0,292,262,194,244,204,235,381,191,281,239,203,301,0,,,,
2,1789066443312,2273,3498,7197,626747,-10995,-125838,0,0,0,375,236,401,231,103,197,571,587,154,641,708,142,0,,,,
1,1789066443328,-4249,3292,30366,7214318,532674,1474628,0,0,0,306,262,203,242,200,238,377,190,280,243,210,301,0,,,,
2,1789066443328,2895,2818,7571,507018,-78190,-208915,0,0,0,370,253,503,243,130,255,603,581,209,644,692,168,0,,,,
1,1789066443344,-9418,7044,23330,4401894,2018298,779464,0,0,0,329,256,204,233,189,234,366,198,277,240,218,305,0,,,,
2,1789066443344,4886,1330,10413,320093,-455705,-138055,0,0,0,396,232,476,303,86,241,610,549,152,654,666,155,0,,,,
1,1789066443360,-10366,6082,22057,785572,2580294,-676838,0,0,0,337,249,205,229,183,228,360,200,266,245,229,309,0,,,,
2,1789066443360,4000,2014,10624,508239,-436157,-147829,0,0,0,389,233,510,278,96,268,608,543,176,614,633,163,0,,,,
1,1789066443376,-7073,4977,20885,-1466076,2982244,-1825265,0,0,0,342,247,205,227,178,225,352,209,262,244,235,309,0,,,,
2,1789066443376,2976,2507,10016,746477,-185703,-212581,0,0,0,394,212,530,304,83,265,585,506,175,588,602,168,0,,,,
1,1789066443392,-6326,6116,16061,-2515543,3210707,-1762957,0,0,0,339,248,208,224,178,226,352,208,262,241,235,311,0,,,,
2,1789066443392,2790,2335,9509,877202,111177,-263893,0,0,0,401,222,533,334,111,271,581,471,169,600,592,182,0,,,,
1,1789066443408,-6168,7580,11801,-3075095,2570520,-940732,0,0,0,331,249,215,224,181,227,350,208,262,247,241,315,0,,,,
2,1789066443408,3182,1785,9356,841772,287106,-257785,0,0,0,387,190,482,301,63,246,576,401,172,559,517,171,0,,,,
1,1789066443424,-3613,7863,8446,-3703065,1500285,39095,0,0,0,316,247,214,225,181,229,354,212,266,253,245,313,0,,,,
2,1789066443424,3378,1550,9078,711047,337197,-223576,0,0,0,390,176,478,281,57,245,553,389,194,525,472,189,0,,,,
1,1789066443440,-1689,7016,6542,-4146553,1015258,508239,0,0,0,310,247,212,228,184,233,359,217,267,258,251,306,0,,,,
2,1789066443440,3326,1775,8834,619417,361632,-197920,0,0,0,392,178,442,287,47,228,552,363,189,501,413,187,0,,,,
1,1789066443456,-2000,6345,5561,-4594928,736703,665843,0,0,0,305,253,212,229,189,235,326,221,262,256,259,302,0,,,,
2,1789066443456,3397,2038,8872,624304,323758,-193033,0,0,0,378,157,425,279,51,237,571,326,195,486,392,178,0,,,,
1,1789066443472,-2828,6058,5613,-5400048,162490,608421,0,0,0,296,253,209,225,190,236,350,228,264,257,263,300,0,,,,
2,1789066443472,3637,2105,8887,646295,179594,-184481,0,0,0,375,201,427,284,61,243,573,310,198,493,399,180,0,,,,
1,1789066443488,-3201,4570,5790,-5998696,-270002,345749,0,0,0,292,253,210,224,189,237,374,224,265,263,268,301,0,,,,
2,1789066443488,3737,1679,8796,654847,-29321,-175929,0,0,0,376,225,427,279,62,237,566,311,206,486,395,182,0,,,,
1,1789066443504,-4417,2301,6001,-6003583,-540004,-128281,0,0,0,293,256,210,227,189,239,379,224,267,266,271,303,0,,,,
2,1789066443504,3555,1172,8667,593761,-151494,-184481,0,0,0,384,219,417,293,80,252,560,309,222,469,369,195,0,,,,
1,1789066443520,-6207,1320,6843,-5780006,-922406,-604756,0,0,0,290,255,207,227,190,238,388,231,269,265,272,300,0,,,,
2,1789066443520,3498,976,8600,488692,-241902,-196698,0,0,0,388,207,423,307,81,276,531,300,228,455,349,217,0,,,,
1,1789066443536,-7475,469,7872,-5811771,-1336573,-886976,0,0,0,288,254,207,227,191,237,389,233,268,263,272,292,0,,,,
2,1789066443536,3508,1129,8585,403171,-351858,-206472,0,0,0,367,177,473,277,50,296,483,285,241,446,342,227,0,,,,
1,1789066443552,-7800,-1119,8935,-5933944,-1776396,-802676,0,0,0,289,261,211,229,191,239,385,229,267,264,269,289,0,,,,
2,1789066443552,3436,1407,8686,410501,-458148,-237015,0,0,0,353,170,537,273,65,335,476,261,271,456,317,226,0,,,,
1,1789066443568,-6216,-2775,10390,-5848423,-2040289,-323758,0,0,0,289,265,213,229,194,237,384,228,266,266,271,292,0,,,,
2,1789066443568,3407,1407,9107,537561,-526565,-331088,0,0,0,382,163,570,313,93,347,535,224,273,451,292,219,0,,,,
1,1789066443584,-4158,-3833,12208,-5684711,-2036624,162490,0,0,0,290,270,213,228,197,240,383,228,269,262,272,292,0,,,,
2,1789066443584,3283,933,9624,682947,-486248,-458148,0,0,0,399,170,667,334,120,364,566,182,286,476,289,232,0,,,,
1,1789066443600,-2574,-4455,13931,-5553986,-1963320,360410,0,0,0,283,272,208,223,199,234,383,228,269,259,273,293,0,,,,
2,1789066443600,2842,521,9863,788016,-232128,-547335,0,0,0,399,239,665,394,227,417,569,140,298,484,280,230,0,,,,
1,1789066443616,-1292,-5652,15601,-5356066,-2150245,-100181,0,0,0,289,277,219,226,199,248,380,227,274,259,272,299,0,,,,
2,1789066443616,2593,698,10069,939510,135612,-558330,0,0,0,435,244,701,446,277,448,570,137,371,425,299,231,0,,,,
1,1789066443632,339,-7839,17822,-5012760,-2463008,-1010371,0,0,0,287,289,214,226,205,243,375,223,273,260,271,295,0,,,,
2,1789066443632,3177,894,10567,1269377,335975,-538783,0,0,0,436,338,698,478,405,465,579,135,310,399,262,243,0,,,,
1,1789066443648,3613,-12069,20569,-4719544,-2586403,-1791056,0,0,0,288,295,210,225,211,243,372,226,272,253,272,295,0,,,,
2,1789066443648,3900,918,11031,1687209,377514,-557109,0,0,0,470,384,726,465,394,487,571,121,320,373,269,284,0,,,,
1,1789066443664,10734,-20961,22187,-4516737,-1820378,-1497841,0,0,0,287,299,212,227,217,246,369,231,273,252,279,296,0,,,,
2,1789066443664,4216,732,11596,2142915,348193,-653625,0,0,0,526,364,703,504,457,551,539,117,364,342,252,336,0,,,,
1,1789066443680,16625,-31174,21440,-4012162,-248011,-249233,0,0,0,293,301,211,228,220,244,371,236,274,251,282,297,0,,,,
2,1789066443680,4503,167,12739,2643824,302989,-767246,0,0,0,537,442,611,545,508,564,419,102,391,343,228,369,0,,,,
1,1789066443696,15051,-37492,18698,-3128851,1159422,1164309,0,0,0,299,299,212,229,211,243,371,236,277,252,280,306,0,,,,
2,1789066443696,5020,-402,13898,3265685,219911,-880867,0,0,0,582,480,510,580,548,615,298,111,346,313,241,367,0,,,,
1,1789066443712,4225,-40004,13749,-1705535,1565036,1920560,0,0,0,288,268,198,227,194,240,408,306,270,281,328,288,0,,,,
2,1789066443712,5163,-373,14730,4040262,173485,-1036027,0,0,0,597,489,394,590,590,603,223,126,349,293,255,381,0,,,,
1,1789066443728,-2837,-40301,11036,-1221,779464,1562593,0,0,0,280,236,196,239,194,242,471,404,271,315,381,249,0,,,,
2,1789066443728,4857,-90,15673,4951673,123394,-1178969,0,0,0,593,521,344,551,599,562,172,126,335,261,241,368,0,,,,
1,1789066443744,2177,-35304,15386,2008524,1921782,150272,0,0,0,274,232,228,256,199,246,529,473,278,354,433,240,0,,,,
2,1789066443744,3996,354,17367,6140417,20769,-1246165,0,0,0,559,521,309,480,554,495,151,117,275,221,203,333,0,,,,
1,1789066443760,5020,-14304,21971,3050661,4475198,-1224173,0,0,0,263,260,281,265,207,251,567,524,280,409,482,267,0,,,,
2,1789066443760,3015,-454,21253,7429343,-139277,-1219287,0,0,0,489,480,245,410,501,390,139,108,217,195,181,279,0,,,,
1,1789066443776,5254,6063,26604,1933999,4809952,-1299921,0,0,0,266,303,327,281,244,262,589,572,296,462,486,288,0,,,,
2,1789066443776,4436,-4101,28212,8730485,-322536,-1091005,0,0,0,395,387,217,334,440,301,143,107,182,187,183,238,0,,,,
1,1789066443792,5833,5695,21976,763581,2687807,-285884,0,0,0,277,332,346,302,284,270,614,573,320,501,490,306,0,,,,
2,1789066443792,8915,-6613,37248,9177639,353080,-1073901,0,0,0,304,254,223,237,285,248,177,118,175,180,187,238,0,,,,
1,1789066443808,4575,469,14204,537561,1177748,138055,0,0,0,286,330,370,302,319,304,621,575,319,513,511,323,0,,,,
2,1789066443808,9901,330,39612,8411614,674395,-1567480,0,0,0,263,204,232,157,129,223,202,133,184,165,194,233,0,,,,
1,1789066443824,2809,-622,8892,558330,670730,-2443,0,0,0,294,328,390,301,328,296,644,570,314,534,524,330,0,,,,
2,1789066443824,7848,11237,30964,6983411,-477696,-2553416,0,0,0,260,245,211,163,201,207,208,148,170,167,210,207,0,,,,
1,1789066443840,2412,823,8949,315206,491135,-89186,0,0,0,307,340,380,297,312,296,665,582,318,551,525,327,0,,,,
2,1789066443840,7523,18525,21727,4272391,-1622458,-3816686,0,0,0,267,268,229,164,185,216,209,149,180,180,220,217,0,,,,
1,1789066443856,2656,1952,11313,67195,47647,-3665,0,0,0,336,342,404,304,310,323,657,581,331,553,528,343,0,,,,
2,1789066443856,5403,20641,20320,274889,-954171,-3428175,0,0,0,279,232,231,174,121,215,229,130,184,214,207,222,0,,,,
1,1789066443872,2311,2349,11816,175929,-421497,61086,0,0,0,341,343,400,312,312,332,659,579,342,554,524,353,0,,,,
2,1789066443872,1407,19841,16946,-2662150,-1403768,-1966986,0,0,0,268,239,217,160,130,203,206,127,167,183,207,215,0,,,,
1,1789066443888,1474,2139,10945,405614,-586430,46425,0,0,0,344,342,386,349,313,337,657,566,338,544,502,347,0,,,,
2,1789066443888,1354,16539,10040,-3841120,-2816088,-323758,0,0,0,275,227,214,174,123,203,221,127,168,191,203,219,0,,,,
1,1789066443904,904,1986,10428,481361,-494800,13439,0,0,0,348,348,366,370,311,321,647,559,345,523,487,343,0,,,,
2,1789066443904,3397,12735,5144,-3855781,-2790432,277332,0,0,0,288,183,214,182,96,204,233,115,158,232,190,204,0,,,,
1,1789066443920,904,2024,10366,453262,-261450,-2443,0,0,0,341,361,349,350,308,307,635,543,336,507,474,345,0,,,,
2,1789066443920,3321,10007,3876,-3814242,-2185675,204028,0,0,0,277,177,213,173,93,207,214,118,164,194,195,204,0,,,,
1,1789066443936,1177,2115,10342,498466,-145385,-2443,0,0,0,336,362,352,331,313,314,611,516,334,477,457,352,0,,,,
2,1789066443936,3278,9155,4929,-4092797,-1715309,-140499,0,0,0,274,177,218,171,99,211,213,124,172,182,195,210,0,,,,
1,1789066443952,1292,2172,10217,590095,-135612,-10995,0,0,0,324,355,342,333,333,319,599,485,326,435,441,358,0,,,,
2,1789066443952,3460,8647,6714,-4858822,-1368338,-387288,0,0,0,277,181,212,169,100,198,216,123,170,190,196,199,0,,,,
1,1789066443968,1344,2120,10002,704938,-197920,-32986,0,0,0,328,354,331,331,341,313,596,458,316,412,425,370,0,,,,
2,1789066443968,3536,6570,8202,-5821545,-1158200,-547335,0,0,0,277,184,202,169,106,187,218,125,163,189,197,183,0,,,,
1,1789066443984,1340,1962,9786,801455,-271224,-51312,0,0,0,358,357,343,323,328,312,588,435,327,407,408,386,0,,,,
2,1789066443984,4206,3570,8729,-6249151,-922406,-746477,0,0,0,278,186,202,173,104,192,218,125,163,187,197,180,0,,,,
1,1789066444000,1177,1742,9609,879645,-322536,-54977,0,0,0,361,354,347,326,337,320,586,405,328,385,391,389,0,,,,
2,1789066444000,4766,2086,9652,-6277251,-486248,-880867,0,0,0,277,180,201,173,101,193,218,125,164,187,195,182,0,,,,
1,1789066444016,914,1469,9475,916297,-310319,-46425,0,0,0,376,361,348,342,348,321,575,384,326,369,366,402,0,,,,
2,1789066444016,5072,1943,11610,-6277251,12217,-673173,0,0,0,275,172,202,174,100,200,221,123,162,187,193,185,0,,,,
1,1789066444032,837,1186,9284,863763,-234572,-28099,0,0,0,371,368,343,347,363,330,580,362,333,357,349,416,0,,,,
2,1789066444032,5867,1531,13558,-6428745,422718,-124616,0,0,0,279,175,220,178,100,223,225,122,173,190,195,197,0,,,,
1,1789066444048,952,971,9183,770911,-180816,-9773,0,0,0,405,377,336,359,346,360,588,338,355,345,343,454,0,,,,
2,1789066444048,6676,693,15113,-6528927,761138,537561,0,0,0,285,184,236,179,103,232,232,125,193,194,198,204,0,,,,
1,1789066444064,1134,871,9270,678060,-188146,7330,0,0,0,425,393,337,421,379,373,592,322,345,361,315,470,0,,,,
2,1789066444064,7049,-129,17291,-6392093,1031140,1050688,0,0,0,288,183,229,180,100,228,231,124,187,195,194,192,0,,,,
1,1789066444080,1229,847,9557,662177,-276111,17104,0,0,0,434,387,340,444,385,372,613,321,358,391,308,486,0,,,,
2,1789066444080,6996,-1574,20186,-6179512,1340238,1138652,0,0,0,288,189,227,181,100,223,229,123,189,185,192,199,0,,,,
1,1789066444096,1000,861,10107,766025,-412944,20769,0,0,0,459,409,355,460,412,395,599,290,374,358,280,526,0,,,,
2,1789066444096,5623,-4685,24024,-6024352,1714087,767246,0,0,0,284,192,219,184,102,213,230,130,179,188,191,180,0,,,,
1,1789066444112,564,698,10581,990823,-486248,45204,0,0,0,475,427,360,466,454,418,596,260,390,335,248,562,0,,,,
2,1789066444112,3220,-10351,26661,-5992587,1788613,480140,0,0,0,300,191,202,192,102,206,235,117,176,183,181,164,0,,,,
1,1789066444128,382,526,10949,1215621,-585208,95294,0,0,0,494,454,364,473,471,430,606,239,396,316,220,581,0,,,,
2,1789066444128,1488,-19114,27025,-5811771,1622458,390953,0,0,0,292,207,220,190,106,230,236,117,191,182,188,197,0,,,,
1,1789066444144,497,435,11332,1441641,-795346,167377,0,0,0,516,467,347,497,479,455,618,225,411,311,203,599,0,,,,
2,1789066444144,674,-29155,24948,-5198463,1610240,63529,0,0,0,296,210,212,195,110,213,232,104,172,184,195,174,0,,,,
1,1789066444160,545,263,11706,1677435,-1053131,216246,0,0,0,537,469,326,532,481,475,628,215,429,306,189,608,0,,,,
2,1789066444160,-2569,-37075,21928,-4002389,1667662,-802676,0,0,0,295,210,203,198,112,213,239,102,174,199,203,178,0,,,,
1,1789066444176,497,105,12194,1921782,-1270599,259006,0,0,0,553,467,303,561,488,493,624,192,432,310,176,616,0,,,,
2,1789066444176,-5173,-41775,17965,-2604729,1059240,-1340238,0,0,0,315,206,206,207,107,210,244,109,177,197,199,175,0,,,,
1,1789066444192,612,86,13093,2239431,-1440420,291993,0,0,0,561,471,266,575,503,508,596,168,421,334,182,630,0,,,,
2,1789066444192,-3225,-43637,13610,-1034805,301767,-908967,0,0,0,290,171,201,206,89,217,274,191,178,213,247,170,0,,,,
1,1789066444208,842,229,14606,2675589,-1400103,257785,0,0,0,564,479,223,587,521,514,569,171,426,350,198,637,0,,,,
2,1789066444208,-3350,-42005,14625,759916,-175929,10995,0,0,0,274,115,171,206,45,193,326,314,152,216,319,133,0,,,,
1,1789066444224,153,14,15941,3395188,-795346,118507,0,0,0,567,470,195,597,533,526,531,182,455,341,199,637,0,,,,
2,1789066444224,-5273,-22009,19655,3042108,-1915673,1436755,0,0,0,272,124,159,214,70,190,373,419,150,262,415,128,0,,,,
1,1789066444240,-612,-454,16056,4100127,-155159,57421,0,0,0,569,458,187,580,524,524,439,178,456,334,196,629,0,,,,
2,1789066444240,-5412,5943,18080,3384193,-3264463,1731192,0,0,0,288,157,158,243,112,209,396,481,151,338,504,126,0,,,,
1,1789066444256,-646,-1517,16783,4725653,173485,85521,0,0,0,552,454,211,576,503,518,387,169,434,329,186,609,0,,,,
2,1789066444256,-5872,12936,16898,3282789,-3407406,795346,0,0,0,308,185,171,259,128,213,423,524,142,396,560,116,0,,,,
1,1789066444272,-1837,-2598,19707,5354844,141720,124616,0,0,0,542,462,231,552,476,499,288,144,394,315,176,601,0,,,,
2,1789066444272,-3871,215,20306,3258355,-2365270,-409279,0,0,0,309,210,187,255,136,212,453,541,150,411,582,124,0,,,,
1,1789066444288,-5795,-2962,24900,6014579,-277332,344527,0,0,0,458,405,187,486,430,464,263,139,416,297,161,513,0,,,,
2,1789066444288,-1598,-3886,20727,2189341,-866206,-395840,0,0,0,307,217,188,262,131,224,448,525,155,410,592,133,0,,,,
1,1789066444304,-7288,-1675,29987,6748839,-592539,1034805,0,0,0,384,350,170,401,377,393,258,154,353,236,152,451,0,,,,
2,1789066444304,-880,1038,13960,1082453,276111,-134390,0,0,0,327,220,229,260,111,234,452,520,141,420,589,138,0,,,,
1,1789066444320,-5474,1009,33309,7376808,-157603,1584584,0,0,0,352,305,168,314,283,280,337,177,304,252,183,363,0,,,,
2,1789066444320,-1115,3149,9049,1007927,803898,-129503,0,0,0,349,217,268,270,103,245,485,538,146,441,583,157,0,,,,
1,1789066444336,-5436,6374,36400,8213694,312763,1929112,0,0,0,317,256,191,245,201,223,372,212,278,254,229,324,0,,,,
2,1789066444336,-57,2215,8341,1027475,1115439,-180816,0,0,0,337,206,228,265,120,232,458,556,155,456,580,157,0,,,,
1,1789066444352,-8796,15238,31394,8443379,175929,2161241,0,0,0,303,245,196,227,185,216,377,221,271,256,244,322,0,,,,
2,1789066444352,1383,799,10150,878424,1095892,-179594,0,0,0,351,229,225,266,116,240,467,553,169,464,568,173,0,,,,
1,1789066444368,-10021,21847,22900,6442184,580321,1955990,0,0,0,316,244,194,228,179,217,376,213,266,257,244,327,0,,,,
2,1789066444368,1392,1421,10725,751364,960280,-164933,0,0,0,343,282,229,253,188,245,485,533,195,454,559,189,0,,,,
1,1789066444384,-7977,22182,19162,1732413,1441641,669508,0,0,0,326,233,195,228,166,219,376,209,265,256,240,331,0,,,,
2,1789066444384,1148,2057,10485,795346,912632,-204028,0,0,0,345,229,228,257,127,229,488,534,166,439,539,186,0,,,,
1,1789066444400,-6015,16841,15381,-1987755,2169793,-1032362,0,0,0,336,224,197,233,161,222,380,215,267,258,233,327,0,,,,
2,1789066444400,1019,1952,9949,910189,908967,-272445,0,0,0,335,304,237,259,169,235,482,498,175,419,508,194,0,,,,
1,1789066444416,-6140,12356,9916,-3112969,1842369,-1734857,0,0,0,344,231,198,234,165,222,386,223,266,261,235,315,0,,,,
2,1789066444416,1134,1622,9853,908967,840550,-295658,0,0,0,332,246,236,270,178,240,499,493,165,411,473,195,0,,,,
1,1789066444432,-4484,10863,6302,-2839301,348193,-1273043,0,0,0,330,239,201,231,170,222,390,226,268,263,244,313,0,,,,
2,1789066444432,1497,1435,9877,868650,692721,-296880,0,0,0,329,262,235,265,244,238,476,470,154,403,455,204,0,,,,
1,1789066444448,-794,9600,6532,-3209485,-285884,-785572,0,0,0,324,240,201,235,172,222,390,228,270,271,251,313,0,,,,
2,1789066444448,1933,1186,9734,794124,483805,-270002,0,0,0,347,269,286,316,243,277,458,455,162,401,434,200,0,,,,
1,1789066444464,670,7547,7341,-3877772,-239459,-403171,0,0,0,324,240,198,239,173,225,389,225,268,269,254,311,0,,,,
2,1789066444464,2057,1048,9375,689055,261450,-235793,0,0,0,324,258,249,295,270,260,445,432,154,377,411,187,0,,,,
1,1789066444480,71,5431,7954,-4608367,-96516,45204,0,0,0,317,242,210,235,173,225,389,223,267,269,252,314,0,,,,
2,1789066444480,1847,1062,9250,616973,59864,-228463,0,0,0,325,259,221,277,277,240,446,417,162,367,417,184,0,,,,
1,1789066444496,-296,4072,8375,-5077511,-234572,420275,0,0,0,317,239,201,243,192,228,393,227,267,272,249,308,0,,,,
2,1789066444496,1416,1057,9346,609643,-30543,-251676,0,0,0,337,237,257,292,205,264,460,392,171,373,417,188,0,,,,
1,1789066444512,-713,3153,9150,-5433035,-474031,535117,0,0,0,310,236,197,246,196,230,396,228,268,270,252,302,0,,,,
2,1789066444512,1105,1028,9442,637743,0,-276111,0,0,0,333,212,278,305,185,284,451,362,186,368,409,191,0,,,,
1,1789066444528,-1277,2627,10256,-5656612,-799011,279776,0,0,0,315,248,201,238,192,229,396,230,269,265,253,302,0,,,,
2,1789066444528,1258,961,9480,657290,19547,-277332,0,0,0,341,224,322,295,220,320,427,345,233,349,406,200,0,,,,
1,1789066444544,-1282,1593,11634,-5826432,-1202182,-83077,0,0,0,302,250,200,238,204,228,396,235,266,266,257,300,0,,,,
2,1789066444544,1713,808,9461,667064,-79412,-267558,0,0,0,355,255,429,290,236,393,428,330,262,336,388,208,0,,,,
1,1789066444560,-425,378,13165,-5935166,-1475850,-335975,0,0,0,313,264,202,239,212,228,392,234,264,261,253,293,0,,,,
2,1789066444560,1986,655,9504,676838,-256563,-271224,0,0,0,348,328,466,317,366,409,424,320,237,334,368,198,0,,,,
1,1789066444576,713,-579,14788,-6001140,-1502728,-398284,0,0,0,305,261,203,236,216,229,391,233,263,261,255,292,0,,,,
2,1789066444576,1995,545,9600,681725,-465479,-284663,0,0,0,365,411,533,334,433,444,430,304,250,355,349,215,0,,,,
1,1789066444592,1794,-1306,16769,-6059783,-1409876,-289550,0,0,0,296,261,204,235,217,229,391,233,264,260,255,292,0,,,,
2,1789066444592,1579,411,9542,731816,-635299,-316428,0,0,0,367,444,601,368,593,528,448,284,331,385,333,254,0,,,,
1,1789066444608,2603,-2067,18822,-6111095,-1259604,-296880,0,0,0,295,262,203,238,215,232,392,231,265,262,255,294,0,,,,
2,1789066444608,966,387,9767,877202,-577878,-388510,0,0,0,391,514,668,452,639,524,449,238,358,365,317,207,0,,,,
1,1789066444624,2273,-4728,20875,-6111095,-1091005,-747699,0,0,0,299,267,205,243,216,236,393,228,266,266,256,296,0,,,,
2,1789066444624,569,282,10691,1111774,-202807,-472809,0,0,0,397,531,732,501,680,593,462,180,463,364,301,264,0,,,,
1,1789066444640,1512,-9987,22459,-5969375,-1119105,-1346346,0,0,0,301,270,209,245,213,239,395,222,271,267,256,297,0,,,,
2,1789066444640,875,81,11897,1414763,373849,-478918,0,0,0,476,594,734,477,698,615,404,210,449,343,287,302,0,,,,
1,1789066444656,1191,-18267,23077,-5569869,-1249830,-1743409,0,0,0,298,269,210,243,208,238,397,216,273,266,255,299,0,,,,
2,1789066444656,1541,-488,12749,1734857,834441,-416610,0,0,0,481,594,740,501,742,664,344,145,456,309,263,358,0,,,,
1,1789066444672,1363,-27819,22024,-4839274,-1131322,-1717753,0,0,0,294,266,206,245,213,238,394,212,269,265,253,298,0,,,,
2,1789066444672,2273,-564,13070,2133141,1056796,-384845,0,0,0,479,642,711,544,744,661,279,120,438,286,241,466,0,,,,
1,1789066444688,1014,-36185,19104,-3703065,-701273,-1262047,0,0,0,294,257,203,260,214,248,392,211,266,272,252,300,0,,,,
2,1789066444688,3929,-598,13931,2745228,1213178,-612086,0,0,0,520,652,630,536,739,656,227,109,366,284,233,504,0,,,,
1,1789066444704,43,-41272,15864,-2389704,-389732,-555887,0,0,0,297,248,202,253,199,243,402,216,271,271,253,296,0,,,,
2,1789066444704,3776,-47,15975,3395188,851546,-847880,0,0,0,568,649,524,512,722,601,203,101,303,287,250,562,0,,,,
1,1789066444720,-478,-41904,13113,-1058018,-401949,188146,0,0,0,298,242,184,244,192,244,410,261,269,293,301,291,0,,,,
2,1789066444720,3713,-81,16333,4140444,-152716,-863763,0,0,0,588,628,409,442,698,554,187,107,305,288,260,553,0,,,,
1,1789066444736,1464,-39191,12519,298102,-439822,572991,0,0,0,288,220,184,239,168,238,452,352,261,337,369,279,0,,,,
2,1789066444736,4192,-425,15869,4929682,-882089,-922406,0,0,0,589,615,363,420,664,463,168,113,257,271,240,497,0,,,,
1,1789066444752,5384,-31433,13893,2426356,505796,282219,0,0,0,279,212,195,232,158,236,484,429,246,369,424,252,0,,,,
2,1789066444752,4886,-454,16132,5773898,-1108109,-1130100,0,0,0,556,590,306,377,602,393,140,112,222,209,204,388,0,,,,
1,1789066444768,4666,-6647,15477,3817907,835663,-445931,0,0,0,276,234,276,249,183,246,505,477,247,437,478,191,0,,,,
2,1789066444768,5666,-215,18458,6812369,-1370781,-1497841,0,0,0,503,517,244,354,501,364,132,107,208,166,171,307,0,,,,
1,1789066444784,3857,8949,18674,3455053,-785572,-671951,0,0,0,265,249,318,248,193,253,532,499,264,457,509,195,0,,,,
2,1789066444784,4919,-2206,23603,7856948,-2061059,-1887573,0,0,0,425,429,214,312,382,299,147,107,181,166,174,245,0,,,,
1,1789066444800,512,5934,23053,2260201,-2613281,-9773,0,0,0,289,259,353,256,194,272,553,503,288,461,531,251,0,,,,
2,1789066444800,3756,-9016,32553,8368853,-2691472,-1988977,0,0,0,347,354,194,227,279,212,179,129,160,176,206,179,0,,,,
1,1789066444816,-4685,-2919,21674,1536936,-1610240,355523,0,0,0,314,270,371,261,195,279,571,499,291,472,547,304,0,,,,
2,1789066444816,6570,-8959,35410,7927809,-1205847,-1992642,0,0,0,329,291,184,210,222,190,218,150,159,188,224,172,0,,,,
1,1789066444832,-4460,-2546,15228,1080009,-438601,86742,0,0,0,341,280,391,269,199,291,578,489,300,504,544,326,0,,,,
2,1789066444832,6570,2359,31079,7329161,-213802,-2850297,0,0,0,332,274,193,214,211,198,213,142,158,186,219,168,0,,,,
1,1789066444848,-756,1765,9169,844215,-430049,-123394,0,0,0,364,291,414,297,219,321,576,492,317,521,525,346,0,,,,
2,1789066444848,5723,15147,26130,5392718,-1745852,-3384193,0,0,0,315,271,190,193,201,192,202,135,149,176,213,162,0,,,,
1,1789066444864,-1196,1617,9164,561996,-893084,-76969,0,0,0,363,295,434,302,227,340,592,494,327,516,515,363,0,,,,
2,1789066444864,8652,19325,22335,1064127,-3142290,-1202182,0,0,0,319,262,192,196,198,193,208,146,153,179,222,162,0,,,,
1,1789066444880,-3129,894,10495,259006,-779464,-53756,0,0,0,361,299,448,290,229,335,612,489,326,513,515,362,0,,,,
2,1789066444880,9849,17496,16290,-2160019,-2960252,1414763,0,0,0,306,269,191,193,198,193,207,157,154,172,224,168,0,,,,
1,1789066444896,-3996,1268,11103,102625,-34208,-50090,0,0,0,365,309,442,291,245,326,612,487,319,511,508,358,0,,,,
2,1789066444896,9853,14596,9648,-2905275,-1643227,2307848,0,0,0,305,269,195,192,203,199,212,160,161,177,226,172,0,,,,
1,1789066444912,-3005,1952,10485,254119,483805,-21991,0,0,0,355,313,437,289,244,330,605,474,319,506,494,362,0,,,,
2,1789066444912,7451,13065,6542,-3025004,-195476,2084272,0,0,0,299,253,193,192,204,199,207,147,155,171,221,167,0,,,,
1,1789066444928,-2124,1990,10131,438601,761138,0,0,0,0,362,319,459,290,239,330,592,449,321,502,483,362,0,,,,
2,1789066444928,3139,11682,6082,-3248581,659734,1638340,0,0,0,296,255,197,191,198,202,213,150,164,173,223,172,0,,,,
1,1789066444944,-1627,1684,10112,552222,801455,3665,0,0,0,369,331,454,288,251,332,580,446,325,480,475,364,0,,,,
2,1789066444944,1550,10351,6231,-3780034,581543,1312138,0,0,0,289,270,208,192,209,214,218,155,168,172,231,184,0,,,,
1,1789066444960,-1454,1660,10198,604756,701273,0,0,0,0,353,375,439,287,251,331,568,422,325,473,463,364,0,,,,
2,1789066444960,665,8571,6666,-4635245,371406,818559,0,0,0,285,281,208,187,219,212,216,175,168,171,258,184,0,,,,
1,1789066444976,-1383,1670,10246,682947,581543,13439,0,0,0,357,357,432,302,267,343,570,404,325,470,451,373,0,,,,
2,1789066444976,43,6326,7212,-5364618,114842,320093,0,0,0,288,277,207,191,223,214,213,165,166,176,246,184,0,,,,
1,1789066444992,-1249,1526,10136,777020,469144,42760,0,0,0,355,326,423,307,254,339,566,389,323,464,430,380,0,,,,
2,1789066444992,-95,4781,7815,-5760459,12217,20769,0,0,0,291,287,204,195,221,214,217,161,169,179,242,186,0,,,,
1,1789066445008,-1110,1306,9873,827111,383623,48869,0,0,0,364,327,433,312,259,346,560,377,324,445,423,396,0,,,,
2,1789066445008,114,3977,8796,-5951049,92851,-46425,0,0,0,288,292,205,191,227,213,219,164,172,179,246,186,0,,,,
1,1789066445024,-1129,1172,9700,845437,337197,39095,0,0,0,360,328,436,317,266,345,556,355,317,443,398,421,0,,,,
2,1789066445024,751,3354,10189,-6155078,228463,90408,0,0,0,285,280,204,192,229,213,216,159,170,177,243,184,0,,,,
1,1789066445040,-1201,1043,9715,836885,362853,37873,0,0,0,358,332,446,340,273,350,564,324,316,436,374,417,0,,,,
2,1789066445040,1818,2603,11576,-6409198,373849,335975,0,0,0,286,278,203,197,223,216,216,154,169,176,239,184,0,,,,
1,1789066445056,-1220,957,9815,840550,430049,42760,0,0,0,364,338,433,362,279,345,568,305,326,435,361,415,0,,,,
2,1789066445056,3048,1684,12849,-6588792,583987,624304,0,0,0,286,279,206,196,216,217,219,152,171,178,237,183,0,,,,
1,1789066445072,-1215,823,10026,871093,537561,48869,0,0,0,383,343,434,378,298,341,564,289,332,428,349,430,0,,,,
2,1789066445072,3833,-19,14300,-6510601,877202,619417,0,0,0,287,266,204,197,204,216,219,150,172,180,233,183,0,,,,
1,1789066445088,-1095,536,10131,902858,651182,67195,0,0,0,398,354,442,391,326,365,564,272,332,422,338,461,0,,,,
2,1789066445088,3584,-2196,16597,-6291911,1237612,147829,0,0,0,292,270,207,200,202,220,220,148,174,181,226,188,0,,,,
1,1789066445104,-957,402,10193,950506,742812,95294,0,0,0,394,366,441,396,342,383,571,259,345,421,331,491,0,,,,
2,1789066445104,1670,-4379,20799,-6079330,1501506,-662177,0,0,0,282,271,203,191,202,216,222,142,169,171,222,175,0,,,,
1,1789066445120,-942,402,10418,1055575,830776,140499,0,0,0,400,378,462,405,351,379,572,243,360,407,319,511,0,,,,
2,1789066445120,301,-7891,25288,-6133086,1331686,-811229,0,0,0,288,278,204,201,209,219,221,134,168,176,222,180,0,,,,
1,1789066445136,-794,239,10677,1194852,879645,218689,0,0,0,421,405,488,429,371,389,568,227,360,391,302,533,0,,,,
2,1789066445136,1057,-14950,27451,-6239377,1174082,-289550,0,0,0,298,279,189,205,209,211,219,129,161,181,230,168,0,,,,
1,1789066445152,-440,9,10753,1357342,762359,299323,0,0,0,423,435,499,450,399,411,568,202,361,374,285,550,0,,,,
2,1789066445152,1880,-24986,25666,-5812993,1354899,155159,0,0,0,290,293,186,203,209,203,221,131,169,185,230,166,0,,,,
1,1789066445168,-253,-210,10835,1539380,532674,359188,0,0,0,456,456,489,474,439,412,570,181,366,369,264,591,0,,,,
2,1789066445168,-378,-34448,22297,-4696331,1806939,240680,0,0,0,280,294,181,203,211,206,221,142,158,176,233,163,0,,,,
1,1789066445184,-205,-473,11241,1749518,250454,409279,0,0,0,496,472,428,495,432,427,569,180,370,345,222,590,0,,,,
2,1789066445184,-7441,-40124,19100,-2849075,2236988,144164,0,0,0,288,271,195,212,202,236,228,134,178,179,229,167,0,,,,
1,1789066445200,-239,-574,12184,2037846,43982,453262,0,0,0,476,468,355,501,452,442,564,179,383,357,222,590,0,,,,
2,1789066445200,-9767,-41397,16831,-1175304,1218065,471587,0,0,0,296,271,203,208,194,232,228,131,181,187,233,172,0,,,,
1,1789066445216,-693,-631,13519,2470339,3665,508239,0,0,0,473,477,216,536,480,439,549,179,377,350,203,603,0,,,,
2,1789066445216,-5049,-42450,13811,20769,-87964,728151,0,0,0,299,253,210,207,183,233,242,198,191,196,275,174,0,,,,
1,1789066445232,-1320,-890,14529,3027448,151494,621860,0,0,0,474,485,171,562,511,474,529,180,363,315,203,617,0,,,,
2,1789066445232,-1057,-37707,14036,1330464,-659734,602313,0,0,0,276,189,238,200,179,246,263,317,180,221,357,167,0,,,,
1,1789066445248,-1512,-1263,15194,3674965,405614,763581,0,0,0,486,464,178,582,472,489,482,171,398,325,188,606,0,,,,
2,1789066445248,-4048,-7523,18305,2597398,-1197295,871093,0,0,0,262,157,236,204,151,242,300,419,168,261,455,147,0,,,,
1,1789066445264,-1282,-1450,15759,4357912,647517,894306,0,0,0,472,437,174,586,479,514,466,173,438,288,174,589,0,,,,
2,1789066445264,-4986,18257,15836,3232698,-2024407,982271,0,0,0,270,168,232,226,124,226,371,488,158,329,529,135,0,,,,
1,1789066445280,-679,-1086,17319,5122715,625526,990823,0,0,0,447,444,172,588,488,506,426,177,449,264,172,545,0,,,,
2,1789066445280,-2632,11710,17008,3733608,-2483778,249233,0,0,0,283,203,252,245,126,231,430,529,157,391,564,132,0,,,,
1,1789066445296,-110,-890,20583,5848423,360410,1033583,0,0,0,418,425,170,550,477,477,374,167,428,249,167,500,0,,,,
2,1789066445296,19,-5431,25355,3081204,-2296853,-245567,0,0,0,291,271,282,243,148,242,455,548,161,415,579,129,0,,,,
1,1789066445312,-593,-1679,25776,6764721,15882,1020144,0,0,0,401,390,173,475,431,421,323,161,394,229,162,438,0,,,,
2,1789066445312,507,-6427,23455,1448972,-1447750,-216246,0,0,0,301,316,299,235,153,232,480,546,168,421,585,139,0,,,,
1,1789066445328,-1622,-3852,30504,7729888,-234572,987158,0,0,0,381,345,172,379,347,341,311,167,351,222,166,359,0,,,,
2,1789066445328,-727,1153,13156,851546,-338419,-94073,0,0,0,308,306,297,237,136,246,505,533,196,437,581,162,0,,,,
1,1789066445344,-2584,-5632,38224,8739038,-1309695,886976,0,0,0,344,281,175,284,244,271,351,180,309,239,192,312,0,,,,
2,1789066445344,-1000,3637,7561,861319,494800,-134390,0,0,0,304,335,312,233,134,269,524,516,222,448,550,195,0,,,,
1,1789066445360,-2579,1000,42837,9148317,-2605951,976162,0,0,0,319,235,204,237,174,245,384,197,296,254,231,313,0,,,,
2,1789066445360,440,1775,8781,1036027,733038,-207694,0,0,0,325,329,320,244,144,236,520,492,198,423,528,187,0,,,,
1,1789066445376,-655,15462,31964,7616267,-729373,1247386,0,0,0,320,242,209,241,174,246,390,198,295,258,237,302,0,,,,
2,1789066445376,1201,1201,10638,1152091,612086,-222354,0,0,0,340,353,317,233,211,234,540,488,185,406,484,188,0,,,,
1,1789066445392,-4201,21689,20669,3615100,2609616,713490,0,0,0,331,245,208,230,175,232,372,205,285,255,242,303,0,,,,
2,1789066445392,1306,1344,11184,1296256,576656,-261450,0,0,0,340,322,337,250,122,261,542,440,183,390,463,209,0,,,,
1,1789066445408,-9437,17942,15491,-696386,3336545,-353080,0,0,0,336,235,202,237,172,230,387,207,283,270,243,305,0,,,,
2,1789066445408,1263,1354,10863,1376890,635299,-291993,0,0,0,326,321,313,252,126,277,556,422,214,414,422,222,0,,,,
1,1789066445424,-7092,14003,12452,-2272418,1892460,-649960,0,0,0,337,250,206,235,184,231,376,220,279,266,262,305,0,,,,
2,1789066445424,1253,1000,10509,1281595,615752,-229685,0,0,0,330,336,307,249,174,277,539,401,208,378,402,223,0,,,,
1,1789066445440,-3914,14008,9399,-2607172,1237612,-452040,0,0,0,322,252,206,232,193,234,368,228,277,259,270,304,0,,,,
2,1789066445440,1134,1005,10054,1143539,520457,-153938,0,0,0,353,330,311,279,173,293,545,366,220,366,367,233,0,,,,
1,1789066445456,-3220,14912,6532,-3056769,1044579,-252898,0,0,0,314,260,211,229,196,235,371,229,282,259,272,304,0,,,,
2,1789066445456,1249,1067,9911,1062905,362853,-128281,0,0,0,372,332,326,279,144,288,509,323,212,356,341,226,0,,,,
1,1789066445472,-3819,13093,5561,-3788586,412944,-300545,0,0,0,312,267,212,228,201,237,373,234,282,259,280,296,0,,,,
2,1789066445472,1464,789,9758,990823,127059,-120951,0,0,0,376,334,343,279,135,299,484,293,213,351,324,240,0,,,,
1,1789066445488,-3374,10820,6278,-4389677,-178372,-313984,0,0,0,314,272,215,229,203,238,372,231,279,257,276,289,0,,,,
2,1789066445488,1560,411,9533,907745,-107512,-106290,0,0,0,379,360,318,291,188,309,471,275,220,337,312,240,0,,,,
1,1789066445504,-2383,8738,7968,-5087285,-408057,-259006,0,0,0,313,270,216,232,200,238,379,232,282,260,276,289,0,,,,
2,1789066445504,1651,153,9581,869872,-233350,-151494,0,0,0,380,394,297,313,230,328,473,263,229,334,306,269,0,,,,
1,1789066445520,-1852,6542,9633,-5881410,-520457,-235793,0,0,0,309,269,216,232,198,238,380,232,282,262,277,290,0,,,,
2,1789066445520,1402,129,9710,871093,-261450,-240680,0,0,0,383,396,297,314,232,333,468,248,242,343,293,282,0,,,,
1,1789066445536,-1957,4479,10978,-6428745,-715934,-293215,0,0,0,305,271,217,232,196,239,378,231,281,262,277,291,0,,,,
2,1789066445536,899,95,9705,890641,-199142,-294437,0,0,0,393,403,311,311,218,343,451,229,254,329,281,286,0,,,,
1,1789066445552,-1928,2890,12806,-6684087,-952949,-375071,0,0,0,304,277,220,232,193,240,378,231,282,261,276,291,0,,,,
2,1789066445552,842,-306,9681,890641,-97738,-273667,0,0,0,394,430,332,308,213,369,440,206,266,303,266,305,0,,,,
1,1789066445568,-1555,1550,14859,-6864903,-1065348,-355523,0,0,0,306,281,222,233,192,239,380,230,282,259,273,289,0,,,,
2,1789066445568,990,-425,9614,866206,-32986,-245567,0,0,0,384,448,334,297,236,379,439,185,270,306,247,300,0,,,,
1,1789066445584,-813,100,16831,-7028615,-1093448,-179594,0,0,0,302,276,222,233,196,239,379,230,282,259,275,289,0,,,,
2,1789066445584,1076,-330,9590,863763,21991,-254119,0,0,0,401,467,331,311,273,381,429,182,249,310,257,293,0,,,,
1,1789066445600,201,-1340,18688,-7061602,-1194852,-40317,0,0,0,302,278,219,233,199,241,377,228,281,258,275,291,0,,,,
2,1789066445600,923,-330,9973,961501,83077,-273667,0,0,0,430,492,354,311,331,388,418,180,262,295,273,343,0,,,,
1,1789066445616,1373,-2881,20708,-6874677,-1282817,-188146,0,0,0,302,281,225,231,198,242,375,226,279,250,271,291,0,,,,
2,1789066445616,971,-454,10504,1139874,100181,-263893,0,0,0,472,532,368,320,298,383,407,172,258,286,257,319,0,,,,
1,1789066445632,1895,-5814,23010,-6431189,-1083674,-812450,0,0,0,302,285,229,228,201,240,372,226,280,247,271,292,0,,,,
2,1789066445632,1306,-722,11036,1407433,124616,-276111,0,0,0,497,521,368,351,359,408,377,165,311,282,251,350,0,,,,
1,1789066445648,574,-11088,24589,-5869193,-890641,-1865582,0,0,0,296,285,228,223,204,240,366,224,280,244,268,295,0,,,,
2,1789066445648,1306,-1005,11150,1670105,197920,-321315,0,0,0,584,513,380,368,365,425,348,218,339,293,208,338,0,,,,
1,1789066445664,469,-18899,25517,-5240002,-1050688,-2965139,0,0,0,296,288,233,225,204,245,368,224,285,244,266,295,0,,,,
2,1789066445664,684,-1134,11280,1923003,328645,-329867,0,0,0,574,572,358,362,357,444,315,113,403,275,193,374,0,,,,
1,1789066445680,3603,-29930,25680,-4602258,-1191187,-3679852,0,0,0,298,292,239,226,202,246,378,224,286,244,266,290,0,,,,
2,1789066445680,449,-1086,12433,2236988,487470,-251676,0,0,0,607,593,318,359,381,475,270,113,354,261,212,415,0,,,,
1,1789066445696,4728,-40856,22206,-3980397,-73303,-3232698,0,0,0,297,289,233,231,204,250,382,229,286,245,269,292,0,,,,
2,1789066445696,1617,-1474,14204,2831971,576656,-206472,0,0,0,617,598,285,387,436,509,203,110,379,256,218,472,0,,,,
1,1789066445712,-3871,-47929,14386,-2858849,1422094,-1354899,0,0,0,297,288,233,232,207,249,378,230,283,249,271,293,0,,,,
2,1789066445712,2952,-1938,15099,3556457,581543,-318871,0,0,0,613,588,273,389,445,512,153,89,389,234,198,445,0,,,,
1,1789066445728,-12409,-50442,7858,-1147204,872315,1362229,0,0,0,291,258,221,229,195,246,411,302,280,277,325,282,0,,,,
2,1789066445728,4139,-2062,15640,4411668,514348,-604756,0,0,0,590,605,295,375,483,505,147,92,380,209,178,405,0,,,,
1,1789066445744,-5690,-46910,9207,773355,-551000,2521651,0,0,0,288,228,198,238,181,242,462,414,274,337,393,256,0,,,,
2,1789066445744,4498,-1880,17324,5169141,333532,-907745,0,0,0,572,576,357,354,490,461,139,98,323,206,169,394,0,,,,
1,1789066445760,-531,-30523,13515,3059213,541226,1424537,0,0,0,279,218,176,250,179,241,501,494,274,371,445,235,0,,,,
2,1789066445760,4747,-2005,20488,5888740,-254119,-1141096,0,0,0,529,519,326,346,474,418,155,95,266,192,154,383,0,,,,
1,1789066445776,-4058,-799,16908,4537506,3370754,-1036027,0,0,0,277,239,175,255,183,245,541,530,278,401,486,228,0,,,,
2,1789066445776,7394,-3996,23981,6693861,-1053131,-1409876,0,0,0,444,433,296,320,398,381,144,85,246,169,135,320,0,,,,
1,1789066445792,497,7796,20181,4557054,3905872,-1596801,0,0,0,291,303,207,270,214,255,592,570,275,486,523,252,0,,,,
2,1789066445792,10648,-7355,28494,7398799,-1384220,-1888795,0,0,0,369,338,253,272,293,293,140,84,207,165,141,230,0,,,,
1,1789066445808,8944,626,23388,4080579,3160616,-608421,0,0,0,294,388,264,287,285,271,621,604,273,548,554,307,0,,,,
2,1789066445808,11509,-6848,34697,7492873,-779464,-2481334,0,0,0,306,249,183,215,185,203,184,103,167,169,169,175,0,,,,
1,1789066445824,8705,-7853,21665,2378709,2309070,583987,0,0,0,303,452,318,292,345,294,627,604,284,554,570,334,0,,,,
2,1789066445824,10983,2761,36046,7130019,13439,-2935818,0,0,0,263,189,178,176,109,188,219,125,169,166,186,171,0,,,,
1,1789066445840,5226,-4039,15075,714712,1791056,474031,0,0,0,328,454,341,325,401,336,636,621,310,563,572,352,0,,,,
2,1789066445840,11328,20071,27183,6139195,298102,-3451388,0,0,0,271,189,192,179,113,197,219,131,178,162,185,177,0,,,,
1,1789066445856,4766,507,10815,232128,941954,63529,0,0,0,325,472,344,298,418,313,648,624,310,586,585,351,0,,,,
2,1789066445856,10308,29059,20253,3021339,-145385,-3562566,0,0,0,272,177,188,181,112,193,209,127,170,162,184,187,0,,,,
1,1789066445872,4690,1229,9992,406836,-141720,-145385,0,0,0,352,431,336,306,399,310,649,616,303,600,577,359,0,,,,
2,1789066445872,7504,28236,17645,-941954,-1187522,-2395813,0,0,0,265,164,175,185,115,192,206,122,157,164,185,173,0,,,,
1,1789066445888,3436,296,10466,438601,-728151,-97738,0,0,0,339,472,367,321,360,317,642,591,319,596,558,360,0,,,,
2,1789066445888,7183,20425,13084,-4097684,-2577851,-120951,0,0,0,270,176,191,191,120,210,203,118,159,163,196,172,0,,,,
1,1789066445904,2646,416,10705,478918,-966388,-81855,0,0,0,341,493,320,305,364,301,641,568,313,564,555,378,0,,,,
2,1789066445904,9423,15702,7686,-4674340,-1788613,1036027,0,0,0,273,170,193,198,123,217,203,119,161,159,195,168,0,,,,
1,1789066445920,2397,794,10681,685390,-1076344,-114842,0,0,0,338,482,286,324,375,320,638,544,327,528,533,395,0,,,,
2,1789066445920,7705,13180,6408,-4978551,-277332,1401324,0,0,0,272,176,193,196,126,222,203,125,162,159,200,170,0,,,,
1,1789066445936,1990,569,10528,874759,-1123992,-134390,0,0,0,341,477,244,335,397,337,617,539,365,513,511,388,0,,,,
2,1789066445936,3627,9700,8384,-5491678,614530,1374446,0,0,0,266,178,195,194,128,230,200,119,171,159,200,172,0,,,,
1,1789066445952,1593,177,10299,916297,-1060462,-135612,0,0,0,343,490,230,337,388,332,603,491,344,493,477,397,0,,,,
2,1789066445952,1550,6054,10184,-5966931,642630,1058018,0,0,0,266,171,220,200,128,235,216,121,181,176,199,160,0,,,,
1,1789066445968,1584,134,10169,880867,-963945,-144164,0,0,0,363,481,234,339,361,306,593,453,322,479,434,398,0,,,,
2,1789066445968,440,3364,11514,-6290690,507018,507018,0,0,0,263,175,202,204,131,223,209,117,163,170,208,151,0,,,,
1,1789066445984,1646,253,10198,883311,-941954,-158824,0,0,0,367,468,214,357,377,304,584,427,317,461,400,404,0,,,,
2,1789066445984,-358,2541,12873,-6414085,507018,329867,0,0,0,266,175,220,197,126,235,203,113,172,167,208,166,0,,,,
1,1789066446000,1411,229,10174,938289,-952949,-163711,0,0,0,370,460,192,368,425,329,572,408,325,451,373,404,0,,,,
2,1789066446000,-33,2000,14170,-6475171,582765,615752,0,0,0,268,173,228,197,124,240,204,114,173,169,208,168,0,,,,
1,1789066446016,899,-28,9810,956614,-866206,-149051,0,0,0,379,459,189,385,441,333,564,384,324,429,359,408,0,,,,
2,1789066446016,1292,904,15147,-6475171,766025,1143539,0,0,0,268,168,225,201,124,240,208,115,175,172,207,167,0,,,,
1,1789066446032,540,-330,9485,902858,-712268,-116064,0,0,0,377,475,191,401,444,311,565,355,319,395,356,427,0,,,,
2,1789066446032,2526,-344,15793,-6346889,974940,1529606,0,0,0,268,166,193,206,128,226,208,111,170,175,207,157,0,,,,
1,1789066446048,315,-579,9341,797790,-520457,-62308,0,0,0,376,504,190,386,491,307,560,333,340,389,347,437,0,,,,
2,1789066446048,3034,-818,16429,-6119647,1111774,1711644,0,0,0,270,168,187,210,134,220,206,109,168,172,205,150,0,,,,
1,1789066446064,23,-607,9456,726929,-357967,28099,0,0,0,391,520,189,418,478,314,557,286,337,364,322,455,0,,,,
2,1789066446064,2541,-497,18186,-5811771,1262047,1788613,0,0,0,274,175,211,212,140,229,207,113,170,166,202,155,0,,,,
1,1789066446080,-201,-741,9605,685390,-240680,153938,0,0,0,410,510,193,426,465,335,556,250,344,375,296,473,0,,,,
2,1789066446080,961,-579,21588,-5849645,1359786,1693318,0,0,0,277,180,213,214,142,236,209,113,166,167,199,159,0,,,,
1,1789066446096,-100,-971,9614,649960,-146607,302989,0,0,0,446,523,199,441,488,348,563,243,357,330,262,514,0,,,,
2,1789066446096,-1220,-3196,25738,-6227160,1356120,1450194,0,0,0,279,179,212,216,135,239,209,110,166,166,196,154,0,,,,
1,1789066446112,210,-1072,9686,641408,-40317,401949,0,0,0,463,548,215,450,504,362,567,235,354,329,263,519,0,,,,
2,1789066446112,-2593,-10490,27446,-6431189,1051909,1160643,0,0,0,274,184,217,215,135,236,212,113,178,164,195,154,0,,,,
1,1789066446128,641,-1024,10256,698829,61086,455705,0,0,0,476,551,202,458,494,355,573,210,336,334,231,547,0,,,,
2,1789066446128,-1923,-19818,26776,-5943718,625526,800233,0,0,0,263,191,218,211,139,237,211,111,179,163,192,158,0,,,,
1,1789066446144,1340,-918,11208,896750,128281,430049,0,0,0,515,575,201,515,533,426,572,202,343,325,220,568,0,,,,
2,1789066446144,502,-29633,24158,-4671897,339641,175929,0,0,0,256,183,209,211,138,234,204,103,173,163,190,158,0,,,,
1,1789066446160,1186,-1110,11548,1194852,53756,370184,0,0,0,531,599,199,536,545,418,559,191,320,307,214,582,0,,,,
2,1789066446160,1895,-37037,20148,-3081204,525344,-529009,0,0,0,254,182,221,211,135,250,206,99,182,167,191,165,0,,,,
1,1789066446176,885,-1459,11868,1491732,-178372,365297,0,0,0,552,602,188,540,566,392,545,191,329,315,211,599,0,,,,
2,1789066446176,-1512,-40531,16128,-2040289,1040914,-395840,0,0,0,264,184,235,219,141,257,212,105,179,168,191,163,0,,,,
1,1789066446192,899,-1574,12711,1817934,-525344,408057,0,0,0,574,610,177,578,570,394,540,185,340,323,195,608,0,,,,
2,1789066446192,-5235,-44733,12601,-928515,955393,311541,0,0,0,256,179,226,215,139,251,206,101,176,166,192,163,0,,,,
1,1789066446208,1143,-1450,13725,2279749,-850324,430049,0,0,0,588,608,168,577,557,406,524,177,357,322,183,603,0,,,,
2,1789066446208,-4039,-44417,11739,524122,324980,585208,0,0,0,255,158,223,214,128,250,215,127,175,167,209,154,0,,,,
1,1789066446224,1435,-1430,14582,2798984,-1128878,416610,0,0,0,594,600,178,552,548,423,502,178,362,323,185,599,0,,,,
2,1789066446224,-2919,-36391,13754,1836260,-162490,335975,0,0,0,268,129,194,200,93,211,230,243,153,187,290,126,0,,,,
1,1789066446240,1555,-1478,15611,3365867,-1282817,365297,0,0,0,584,588,188,555,528,449,477,178,366,319,180,593,0,,,,
2,1789066446240,-5259,-6283,18061,2499660,-647517,-3665,0,0,0,250,101,206,187,78,226,217,402,167,221,402,150,0,,,,
1,1789066446256,784,-1411,16654,4135557,-1007927,289550,0,0,0,563,568,192,566,507,464,447,179,380,308,173,573,0,,,,
2,1789066446256,-3948,21368,14410,2711019,-1005484,-68416,0,0,0,252,107,190,197,73,237,238,471,174,245,478,147,0,,,,
1,1789066446272,-837,-1598,17190,4919908,-712268,338419,0,0,0,534,535,193,555,510,452,410,184,405,294,177,539,0,,,,
2,1789066446272,966,20349,7772,3880215,-1141096,-318871,0,0,0,271,153,167,223,116,228,333,516,157,312,539,124,0,,,,
1,1789066446288,-2852,-1990,19009,5789780,-604756,574213,0,0,0,470,466,176,522,485,443,367,179,440,263,172,493,0,,,,
2,1789066446288,1670,-4000,15793,5420818,-394618,-503352,0,0,0,292,185,188,240,120,253,417,545,173,397,588,134,0,,,,
1,1789066446304,-5001,-2517,23823,6818477,-664621,1018923,0,0,0,403,373,181,447,425,415,358,173,398,226,157,435,0,,,,
2,1789066446304,-469,-9925,25312,4234517,1062905,-583987,0,0,0,315,208,226,259,106,276,484,550,190,454,614,155,0,,,,
1,1789066446320,-4714,-3627,29533,7727445,-601091,1516167,0,0,0,345,318,169,351,317,324,365,160,335,233,152,370,0,,,,
2,1789066446320,1574,-3321,22885,2404365,1558928,-778242,0,0,0,324,233,240,282,134,269,526,548,182,470,618,156,0,,,,
1,1789066446336,-2933,-7217,33763,8403062,-670730,1738522,0,0,0,285,263,186,255,199,254,386,190,302,249,205,310,0,,,,
2,1789066446336,4450,-248,15788,1277930,772133,-466701,0,0,0,324,246,244,295,163,290,520,542,185,472,613,168,0,,,,
1,1789066446352,-6661,-5159,35625,9009040,-2495995,1766622,0,0,0,305,249,205,237,181,240,395,188,288,259,216,323,0,,,,
2,1789066446352,3728,-191,11313,725707,83077,-45204,0,0,0,346,263,251,312,178,307,557,532,178,488,601,190,0,,,,
1,1789066446368,-4881,7518,30844,8091520,-3692069,2252871,0,0,0,318,244,207,243,173,234,396,188,282,267,228,323,0,,,,
2,1789066446368,1684,-57,9767,604756,-20769,80634,0,0,0,345,241,238,313,167,292,542,526,199,478,581,199,0,,,,
1,1789066446384,2794,18257,26278,4124562,-377514,2010968,0,0,0,325,239,209,234,168,228,389,197,277,277,234,331,0,,,,
2,1789066446384,1981,693,9901,582765,-61086,-7330,0,0,0,332,265,234,334,183,318,510,525,219,494,556,194,0,,,,
1,1789066446400,-1593,17004,21378,-410501,4535063,31764,0,0,0,330,244,215,232,164,222,394,202,269,288,244,333,0,,,,
2,1789066446400,2435,928,10308,627969,-300545,-61086,0,0,0,340,253,234,330,178,313,505,530,207,488,539,181,0,,,,
1,1789066446416,-8853,13941,14314,-2662150,5261993,-1139874,0,0,0,330,244,210,232,165,218,394,215,269,286,254,336,0,,,,
2,1789066446416,1928,679,10361,714712,-489913,-67195,0,0,0,342,258,253,325,257,316,521,499,235,457,507,211,0,,,,
1,1789066446432,-9083,12419,8107,-3072652,2510656,-792903,0,0,0,326,245,208,234,167,220,394,216,270,287,264,337,0,,,,
2,1789066446432,1234,598,10136,766025,-359188,-85521,0,0,0,357,255,237,389,259,309,491,439,219,437,465,195,0,,,,
1,1789066446448,-3613,12457,5896,-3233920,1032362,-108734,0,0,0,322,249,209,237,173,222,394,215,268,290,271,338,0,,,,
2,1789066446448,995,646,10007,814894,-112399,-117286,0,0,0,343,253,231,350,260,318,436,388,227,393,413,221,0,,,,
1,1789066446464,-1392,11624,4814,-3846007,799011,46425,0,0,0,316,255,213,239,180,227,395,218,269,289,277,332,0,,,,
2,1789066446464,1229,583,9935,873537,97738,-128281,0,0,0,336,271,220,351,256,329,438,344,208,365,384,235,0,,,,
1,1789066446480,-3038,9633,4938,-4526511,658512,-128281,0,0,0,313,258,214,240,185,232,399,219,274,287,281,320,0,,,,
2,1789066446480,1608,392,9897,922406,163711,-114842,0,0,0,351,287,217,360,252,331,410,328,212,347,350,253,0,,,,
1,1789066446496,-3354,6791,5829,-5059185,-62308,-17104,0,0,0,314,259,211,242,189,232,401,221,272,286,282,313,0,,,,
2,1789066446496,1923,339,9868,934623,80634,-98960,0,0,0,346,290,219,356,253,357,393,283,226,322,309,258,0,,,,
1,1789066446512,-2249,4489,7312,-5382944,-582765,208915,0,0,0,313,258,211,245,190,232,401,221,272,286,279,311,0,,,,
2,1789066446512,2148,215,9729,882089,-156381,-102625,0,0,0,337,291,264,338,243,403,360,252,244,296,284,262,0,,,,
1,1789066446528,-1474,3412,8959,-5599190,-651182,237015,0,0,0,316,265,210,245,199,234,403,224,274,288,285,310,0,,,,
2,1789066446528,2201,-71,9633,791681,-399505,-142942,0,0,0,345,307,270,330,245,398,341,233,238,295,270,256,0,,,,
1,1789066446544,-2048,2603,10667,-5874080,-638965,-72082,0,0,0,309,270,210,241,191,231,403,222,274,288,283,308,0,,,,
2,1789066446544,2144,-416,9672,722042,-660956,-219911,0,0,0,353,320,237,341,259,367,347,196,218,298,255,253,0,,,,
1,1789066446560,-2991,1794,12285,-6107430,-817337,-529009,0,0,0,306,265,212,245,192,237,404,226,278,286,284,311,0,,,,
2,1789066446560,1832,-526,9652,723264,-890641,-305432,0,0,0,363,323,233,366,268,363,359,162,220,292,245,287,0,,,,
1,1789066446576,-3283,1048,13677,-6251594,-1136209,-861319,0,0,0,307,261,213,242,191,242,401,224,278,281,279,305,0,,,,
2,1789066446576,1469,-536,9600,753807,-998153,-376292,0,0,0,396,337,245,384,276,384,370,150,236,301,242,341,0,,,,
1,1789066446592,-2995,181,15084,-6370102,-1420872,-1038470,0,0,0,312,265,215,241,191,236,399,225,279,277,279,303,0,,,,
2,1789066446592,1373,-550,9595,778242,-957836,-431270,0,0,0,424,347,278,392,280,431,353,142,258,307,245,368,0,,,,
1,1789066446608,-2316,-775,16769,-6390872,-1589471,-1039692,0,0,0,315,278,231,232,191,231,387,221,275,269,273,299,0,,,,
2,1789066446608,1378,-650,9825,825889,-880867,-510683,0,0,0,446,367,312,430,289,454,351,138,295,312,253,397,0,,,,
1,1789066446624,-1660,-2024,19387,-6301685,-1704314,-923628,0,0,0,314,271,219,240,212,236,387,216,276,270,264,301,0,,,,
2,1789066446624,1258,-756,10394,963945,-861319,-580321,0,0,0,441,398,315,408,310,498,343,116,299,301,238,474,0,,,,
1,1789066446640,-660,-4733,22670,-6256481,-1810604,-817337,0,0,0,306,267,211,243,223,242,385,211,278,266,257,302,0,,,,
2,1789066446640,1229,-894,10945,1191187,-877202,-629191,0,0,0,461,420,303,449,369,516,347,129,302,304,227,537,0,,,,
1,1789066446656,995,-10658,25331,-6206390,-1831373,-773355,0,0,0,307,272,210,243,213,241,387,211,280,269,260,303,0,,,,
2,1789066446656,713,-1129,11021,1468520,-822224,-682947,0,0,0,488,436,267,499,427,517,346,112,320,325,229,577,0,,,,
1,1789066446672,4178,-21909,25680,-5706703,-1644449,-610865,0,0,0,309,280,216,241,206,240,390,214,282,270,263,305,0,,,,
2,1789066446672,-277,-1162,11395,1722639,-691499,-670730,0,0,0,528,437,244,509,459,524,348,139,331,310,197,633,0,,,,
1,1789066446688,8437,-34410,24383,-4752531,-1126435,-120951,0,0,0,302,279,211,239,202,237,398,228,279,284,279,301,0,,,,
2,1789066446688,-291,-1115,13146,2145358,-554665,-541226,0,0,0,538,477,261,523,478,558,286,144,326,303,205,638,0,,,,
1,1789066446704,9394,-43335,20593,-3671300,34208,627969,0,0,0,292,260,181,232,201,231,413,294,273,309,330,293,0,,,,
2,1789066446704,981,-1555,14716,2741563,-465479,-492357,0,0,0,529,457,253,528,460,580,252,108,307,307,181,629,0,,,,
1,1789066446720,4264,-49442,15156,-2321287,1053131,1089783,0,0,0,284,240,154,225,203,231,432,393,269,323,390,283,0,,,,
2,1789066446720,1392,-1871,16113,3494149,-344527,-615752,0,0,0,504,477,264,484,490,549,236,107,315,289,211,655,0,,,,
1,1789066446736,3316,-57716,8068,538783,2155132,944397,0,0,0,278,238,155,230,199,238,461,449,266,342,430,265,0,,,,
2,1789066446736,119,-1110,17530,4280943,-321315,-701273,0,0,0,473,485,267,443,501,568,210,106,344,261,212,589,0,,,,
1,1789066446752,6843,-52672,6235,3977954,2868623,-381179,0,0,0,273,253,163,248,210,246,495,513,265,377,486,231,0,,,,
2,1789066446752,14,-737,18860,5167919,-313984,-692721,0,0,0,428,433,268,420,442,534,191,92,337,241,175,497,0,,,,
1,1789066446768,5273,-13821,18707,4971221,2216219,-1618792,0,0,0,271,317,204,290,270,254,544,546,263,432,525,179,0,,,,
2,1789066446768,698,-995,21909,6174625,-186924,-700051,0,0,0,384,366,225,358,362,463,182,85,292,207,150,370,0,,,,
1,1789066446784,4795,11299,30437,3751934,1810604,-1254717,0,0,0,243,344,287,322,311,297,573,562,282,453,528,269,0,,,,
2,1789066446784,1813,-1373,28762,7375586,-6108,-712268,0,0,0,345,319,187,287,283,336,179,91,220,182,154,254,0,,,,
1,1789066446800,4958,4010,27796,1401324,1736079,54977,0,0,0,305,355,359,356,328,332,589,555,306,479,525,321,0,,,,
2,1789066446800,3742,-2297,34816,8398175,183259,-761138,0,0,0,289,250,166,228,180,227,185,103,158,173,188,183,0,,,,
1,1789066446816,3555,-4666,16420,254119,1280373,266337,0,0,0,306,389,380,357,318,349,606,560,324,520,530,339,0,,,,
2,1789066446816,5943,-3876,36908,9033475,1136209,-846659,0,0,0,259,199,153,195,116,197,199,109,138,175,210,151,0,,,,
1,1789066446832,2857,-2297,10002,331088,577878,-26878,0,0,0,291,373,471,379,350,396,626,562,336,516,539,383,0,,,,
2,1789066446832,6298,2493,33031,8707273,2555860,-1055575,0,0,0,274,205,157,196,125,195,206,109,142,186,205,160,0,,,,
1,1789066446848,2392,1263,9375,476474,-10995,-174707,0,0,0,294,386,539,373,351,409,640,566,352,520,544,384,0,,,,
2,1789066446848,71,15750,29408,5611408,1020144,-974940,0,0,0,278,205,158,192,128,194,204,112,142,183,210,175,0,,,,
1,1789066446864,1966,1014,10973,289550,-160046,-76969,0,0,0,314,388,558,413,356,431,643,550,361,531,534,387,0,,,,
2,1789066446864,722,19755,24201,1034805,-3897320,179594,0,0,0,281,212,160,190,138,192,203,122,141,175,208,167,0,,,,
1,1789066446880,1756,425,11509,296880,-241902,-42760,0,0,0,336,408,537,433,364,423,640,539,362,524,518,389,0,,,,
2,1789066446880,7977,17889,13792,-1915673,-5913175,634078,0,0,0,274,215,161,186,139,189,201,130,139,171,206,168,0,,,,
1,1789066446896,1703,502,11093,488692,-351858,-69638,0,0,0,339,413,483,435,378,422,633,518,362,500,506,384,0,,,,
2,1789066446896,10007,15998,5805,-2697580,-3321885,-353080,0,0,0,271,212,161,181,124,188,198,124,131,169,207,160,0,,,,
1,1789066446912,1598,808,10811,651182,-469144,-74525,0,0,0,346,415,421,451,376,422,626,478,367,478,485,381,0,,,,
2,1789066446912,4091,16487,5331,-3303559,-1450194,-1136209,0,0,0,286,219,162,192,135,189,205,142,135,180,220,168,0,,,,
1,1789066446928,1359,909,10691,757472,-542448,-65973,0,0,0,361,416,403,462,361,418,617,436,359,457,448,385,0,,,,
2,1789066446928,2818,15529,4804,-4109901,-1147204,-1020144,0,0,0,269,203,159,192,134,190,205,134,141,176,216,157,0,,,,
1,1789066446944,1229,808,10571,816115,-542448,-61086,0,0,0,359,407,405,444,357,427,604,404,342,450,412,390,0,,,,
2,1789066446944,4694,12979,3996,-4949230,-725707,-307876,0,0,0,257,195,168,194,132,202,203,134,141,174,214,157,0,,,,
1,1789066446960,1124,665,10366,875980,-542448,-56199,0,0,0,360,423,383,417,366,410,592,375,342,444,383,397,0,,,,
