sole_id,timestamp,accel_x,accel_y,accel_z,gyro_x,gyro_y,gyro_z,magn_x,magn_y,magn_z,pressure_01,pressure_02,pressure_03,pressure_04,pressure_05,pressure_06,pressure_07,pressure_08,pressure_09,pressure_10,pressure_11,pressure_12,corrupt,grass,transition,asphalt,compact ground
1,1786645198688,4077,-43096,13294,-923628,814894,331088,0,0,0,290,258,233,244,207,255,411,289,272,303,328,277,0,,,,
2,1786645198688,2402,-1119,15783,3519805,-714712,-934623,0,0,0,525,513,303,367,402,412,243,176,292,277,271,417,0,,,,
1,1786645198704,1789,-39152,12663,795346,734260,-226020,0,0,0,289,221,227,248,169,248,472,376,264,333,408,260,0,,,,
2,1786645198704,1871,-904,16477,4438546,-759916,-1029918,0,0,0,502,452,300,379,368,432,218,176,283,238,239,368,0,,,,
1,1786645198720,-827,-20885,16391,2543642,1194852,-1047023,0,0,0,293,212,206,243,157,236,511,463,245,358,472,239,0,,,,
2,1786645198720,1651,-670,17597,5293758,-736703,-1080009,0,0,0,446,421,292,395,334,458,212,175,299,222,211,320,0,,,,
1,1786645198736,-3292,10677,16563,2795319,2570520,-1227839,0,0,0,294,202,196,238,141,230,527,502,246,395,495,221,0,,,,
2,1786645198736,2900,-885,19765,6370102,-736703,-1199739,0,0,0,368,396,321,359,355,438,156,166,287,191,207,306,0,,,,
1,1786645198752,-646,17932,15175,2580294,3343876,-748920,0,0,0,308,202,226,259,145,247,553,524,256,453,513,205,0,,,,
2,1786645198752,5096,-1990,23110,7457442,-883311,-1445307,0,0,0,324,355,278,288,336,372,136,131,241,157,192,267,0,,,,
1,1786645198768,2569,1253,17094,2654820,2972470,-135612,0,0,0,307,236,296,263,168,250,563,556,250,476,552,196,0,,,,
2,1786645198768,6499,-4776,28623,8004778,-772133,-1723861,0,0,0,308,293,236,248,252,280,153,147,208,166,218,207,0,,,,
1,1786645198784,1765,-5561,18166,2059837,2073276,-164933,0,0,0,293,235,316,268,174,269,584,555,263,513,560,237,0,,,,
2,1786645198784,6144,-6652,34496,8081747,64751,-1942551,0,0,0,251,205,179,183,139,177,215,166,188,157,197,144,0,,,,
1,1786645198800,2057,-507,15386,1265712,1302364,-426383,0,0,0,305,255,366,253,189,270,594,565,265,500,580,272,0,,,,
2,1786645198800,5915,-1813,35826,7672467,872315,-2092824,0,0,0,275,207,238,193,133,209,251,163,193,168,196,176,0,,,,
1,1786645198816,3072,2345,12840,1040914,636521,-250454,0,0,0,312,258,357,278,194,288,607,565,275,500,579,291,0,,,,
2,1786645198816,6925,9576,26226,6416528,-3665,-2068389,0,0,0,277,215,232,189,132,198,250,163,187,169,195,168,0,,,,
1,1786645198832,2239,1488,12060,959058,-64751,9773,0,0,0,330,268,353,290,197,286,608,567,284,523,576,311,0,,,,
2,1786645198832,6877,18344,18865,3578448,-1578475,-1114218,0,0,0,267,215,221,188,136,193,248,161,186,163,196,161,0,,,,
1,1786645198848,512,62,11844,825889,-568104,86742,0,0,0,344,275,353,296,202,286,615,561,286,541,566,319,0,x,,,
2,1786645198848,5757,17626,17018,-67195,-2687807,901637,0,0,0,264,215,235,188,135,206,268,164,192,185,198,172,0,x,,,
1,1786645198864,-315,421,11146,635299,-722042,8552,0,0,0,365,277,357,323,201,279,616,549,297,530,559,313,0,,,,
2,1786645198864,7269,13266,12313,-2105041,-3236364,2140471,0,0,0,260,215,255,189,141,224,253,169,194,171,208,178,0,,,,
1,1786645198880,-521,1225,10533,521678,-653625,-41538,0,0,0,361,284,357,312,206,285,611,533,298,515,541,322,0,,,,
2,1786645198880,9274,11088,7020,-2404365,-2450791,1902234,0,0,0,264,219,244,193,141,216,258,182,196,165,214,176,0,,,,
1,1786645198896,-555,1545,10327,588874,-521678,-34208,0,0,0,351,288,355,295,214,299,610,516,289,505,513,336,0,,,,
2,1786645198896,6939,11730,6121,-2928487,-1152091,1226617,0,0,0,265,220,238,192,139,212,256,181,196,171,218,177,0,,,,
1,1786645198912,-545,1474,10236,745255,-394618,-12217,0,0,0,357,285,362,301,219,306,612,496,287,495,490,350,0,,,,
2,1786645198912,3216,10715,7930,-4466646,-1093448,869872,0,0,0,267,221,235,191,139,205,252,176,191,174,222,175,0,,,,
1,1786645198928,-387,1258,10150,840550,-327423,-4886,0,0,0,364,286,370,297,219,302,610,470,291,480,472,368,0,,,,
2,1786645198928,3785,7642,7647,-5644394,-1510058,493579,0,0,0,267,223,230,191,138,197,255,178,186,175,224,170,0,,,,
1,1786645198944,-248,1062,10131,872315,-322536,-2443,0,0,0,372,293,358,299,219,292,610,434,291,464,455,374,0,,,,
2,1786645198944,4924,4551,6456,-6021909,-1177748,-232128,0,0,0,265,220,222,190,137,189,257,181,181,178,225,161,0,,,,
1,1786645198960,-268,899,10107,882089,-362853,3665,0,0,0,371,299,353,301,230,294,609,385,297,449,440,374,0,,,,
2,1786645198960,4694,2742,6298,-5957157,-568104,-834441,0,0,0,266,220,211,188,138,177,260,182,175,181,232,149,0,,,,
1,1786645198976,-445,698,9954,886976,-376292,13439,0,0,0,385,305,363,309,232,301,605,380,291,436,407,392,0,,,,
2,1786645198976,4120,2694,7446,-5782450,-53756,-846659,0,0,0,267,223,209,187,137,175,264,182,172,187,241,147,0,,,,
1,1786645198992,-655,521,9767,867428,-334754,25656,0,0,0,377,321,347,313,239,299,595,364,320,428,399,395,0,,,,
2,1786645198992,4556,3010,9222,-5970596,406836,-127059,0,0,0,270,218,211,189,127,174,265,170,169,190,230,142,0,,,,
1,1786645199008,-804,435,9705,822224,-229685,37873,0,0,0,393,352,345,329,285,320,587,350,320,444,385,399,0,,,,
2,1786645199008,5206,2206,10681,-6249151,860098,813672,0,0,0,273,219,207,190,130,170,268,178,165,191,231,144,0,,,,
1,1786645199024,-861,354,9772,785572,-112399,56199,0,0,0,395,337,340,333,272,330,578,353,314,446,377,415,0,,,,
2,1786645199024,5384,832,11710,-6289468,1203404,1587027,0,0,0,268,221,212,185,133,174,260,178,169,186,234,143,0,,,,
1,1786645199040,-856,239,9925,775798,2443,81855,0,0,0,406,353,349,354,276,332,589,365,321,411,361,422,0,,,,
2,1786645199040,5159,588,13093,-6152634,1379333,2074498,0,0,0,274,217,221,200,134,182,281,175,174,204,231,148,0,,,,
1,1786645199056,-827,86,10059,797790,80634,120951,0,0,0,412,361,351,359,284,340,587,323,324,397,351,451,0,,,,
2,1786645199056,5183,851,14898,-6120869,1484402,2345722,0,0,0,273,215,233,203,134,197,285,177,186,207,232,159,0,,,,
1,1786645199072,-823,0,10217,844215,128281,164933,0,0,0,412,365,370,367,295,354,582,275,333,389,333,478,0,,,,
2,1786645199072,5273,349,17568,-6167295,1638340,2359161,0,0,0,262,215,255,184,134,201,262,177,196,189,236,168,0,,,,
1,1786645199088,-904,0,10442,943175,166155,216246,0,0,0,430,369,365,376,306,367,577,233,336,383,300,498,0,,,,
2,1786645199088,4737,-2598,21268,-6222273,1877799,2050063,0,0,0,253,214,224,183,134,181,258,178,177,187,234,152,0,,,,
1,1786645199104,-1129,-57,10825,1108109,213802,287106,0,0,0,455,380,343,383,312,373,563,208,346,365,270,522,0,,,,
2,1786645199104,3981,-7451,24599,-6268699,2053728,1721418,0,0,0,252,210,217,181,131,185,256,184,177,183,224,152,0,,,,
1,1786645199120,-1435,-373,11385,1326799,218689,401949,0,0,0,477,392,317,404,329,373,557,194,372,345,241,537,0,,,,
2,1786645199120,4369,-16089,26676,-6113539,2214997,1395216,0,0,0,254,207,208,183,132,177,265,174,175,187,225,149,0,,,,
1,1786645199136,-1435,-794,11954,1602910,152716,553443,0,0,0,485,400,286,421,352,374,557,184,390,339,216,552,0,,,,
2,1786645199136,4268,-27566,27580,-5588195,2648711,852767,0,0,0,253,208,200,188,127,173,273,162,171,201,235,146,0,,,,
1,1786645199152,-842,-1100,12423,1988977,76969,660956,0,0,0,490,410,253,430,365,383,548,177,390,337,205,584,0,,,,
2,1786645199152,799,-39095,26810,-4603480,3054326,108734,0,0,0,256,207,198,189,125,170,276,160,170,198,235,146,0,,,,
1,1786645199168,-411,-1196,12869,2345722,65973,681725,0,0,0,514,415,220,454,384,390,523,174,388,337,196,611,0,,,,
2,1786645199168,-5867,-47374,23259,-3086091,2370157,-469144,0,0,0,256,199,191,204,132,170,282,177,168,190,236,144,0,,,,
1,1786645199184,-301,-1162,13850,2730567,81855,659734,0,0,0,514,417,206,445,390,389,479,176,370,324,191,616,0,,,,
2,1786645199184,-9408,-51256,18487,-1365894,537561,-443488,0,0,0,252,193,190,206,129,171,303,231,168,196,276,137,0,,,,
1,1786645199200,-397,-1191,15252,3251024,84299,649960,0,0,0,523,440,197,434,390,402,432,186,364,309,192,607,0,,,,
2,1786645199200,-5872,-49595,16511,624304,-1314581,185703,0,0,0,248,181,176,194,110,162,340,304,164,225,375,123,0,,,,
1,1786645199216,-751,-1296,16166,3882659,73303,675616,0,0,0,522,439,203,429,387,415,379,167,361,290,177,590,0,,,,
2,1786645199216,2211,-19502,17104,2896722,-2179567,987158,0,0,0,248,160,140,199,98,148,362,371,158,258,493,107,0,,,,
1,1786645199232,-1005,-1407,16482,4583932,48869,748920,0,0,0,511,433,222,409,380,407,336,177,378,265,166,564,0,,,,
2,1786645199232,3498,15975,15046,3541796,-2095267,1386664,0,0,0,267,162,146,215,104,156,364,461,166,267,564,114,0,,,,
1,1786645199248,-1100,-1679,17358,5269323,31764,819781,0,0,0,487,418,212,409,371,414,327,165,392,250,160,526,0,,,,
2,1786645199248,-2416,14457,13965,3966958,-1560149,739146,0,0,0,285,176,175,241,113,171,394,549,167,315,606,129,0,,,,
1,1786645199264,-1574,-2392,20622,6144082,-61086,895528,0,0,0,424,402,222,374,379,401,284,171,388,225,161,472,0,,,,
2,1786645199264,-4335,-2335,18195,4271169,-803898,-216246,0,0,0,280,179,203,228,115,187,387,570,157,375,639,135,0,,,,
1,1786645199280,-3230,-2823,26259,6990741,-257785,984714,0,0,0,401,357,214,339,356,359,276,184,357,214,175,421,0,,,,
2,1786645199280,86,-8714,22402,3215594,-179594,-689055,0,0,0,286,187,220,238,130,199,410,573,145,409,636,138,0,,,,
1,1786645199296,-6704,-3517,30370,7866722,-680503,1280373,0,0,0,361,311,200,286,303,299,304,191,307,225,192,372,0,,,,
2,1786645199296,3096,-1718,18229,1717753,-202807,-412944,0,0,0,300,225,238,224,131,197,395,582,164,412,634,134,0,,,,
1,1786645199312,-8284,-3273,34410,8564330,-1657888,1802052,0,0,0,314,246,224,229,208,264,327,196,302,240,239,335,0,,,,
2,1786645199312,2038,1751,12658,1025031,-213802,-103847,0,0,0,300,218,284,237,136,233,430,575,180,428,645,166,0,,,,
1,1786645199328,-7418,2617,36764,8828224,-2412917,2583959,0,0,0,303,225,242,214,169,254,339,196,301,251,254,324,0,,,,
2,1786645199328,368,1057,9662,862541,-12217,-45204,0,0,0,314,214,257,248,125,215,457,574,166,459,643,162,0,,,,
1,1786645199344,-7011,12988,25800,7224092,-755029,2838079,0,0,0,313,225,243,223,172,251,346,196,290,262,251,329,0,,,,
2,1786645199344,1301,-9,10346,627969,76969,-108734,0,0,0,330,230,265,245,143,205,452,572,181,452,635,163,0,,,,
1,1786645199360,-7542,19148,17372,2946813,1199739,1703092,0,0,0,317,223,243,221,173,248,347,197,281,267,258,334,0,,,,
2,1786645199360,1732,421,10705,366519,-1221,-90408,0,0,0,323,221,253,255,136,211,441,564,172,446,618,165,0,,,,
1,1786645199376,-5996,16721,15879,-1374446,1792278,-498466,0,0,0,316,225,247,215,169,250,344,197,282,264,264,333,0,,,,
2,1786645199376,1344,1210,10294,294437,-40317,-65973,0,0,0,316,218,248,258,133,220,441,549,172,436,594,166,0,,,,
1,1786645199392,-5771,12620,12414,-3061656,2025629,-1872912,0,0,0,317,225,246,216,164,250,341,200,283,264,274,330,0,,,,
2,1786645199392,1067,1478,9892,381179,-18325,-74525,0,0,0,308,216,253,243,122,217,435,536,183,421,570,169,0,,,,
1,1786645199408,-6618,10332,7882,-3037221,1380555,-2097711,0,0,0,312,228,244,215,166,248,336,208,274,266,289,327,0,,,,
2,1786645199408,1043,1292,9777,504574,12217,-94073,0,0,0,308,210,259,244,121,227,427,518,187,426,563,178,0,,,,
1,1786645199424,-4067,10145,6771,-3576005,160046,-1788613,0,0,0,311,225,246,217,166,253,339,200,283,265,271,325,0,,,,
2,1786645199424,1076,1158,9777,579100,46425,-106290,0,0,0,312,224,284,253,139,242,427,499,186,412,559,186,0,,,,
1,1786645199440,-1258,9169,7489,-4598593,-293215,-1561371,0,0,0,313,234,243,220,174,254,341,203,279,266,275,325,0,,,,
2,1786645199440,1167,1162,9782,632856,68416,-118507,0,0,0,309,235,279,262,152,249,431,461,188,379,545,187,0,,,,
1,1786645199456,-698,6886,8437,-5651725,-130725,-1122770,0,0,0,313,226,246,220,167,254,342,204,279,266,274,325,0,,,,
2,1786645199456,1349,1148,9763,712268,36651,-135612,0,0,0,306,241,270,265,158,255,428,428,195,354,515,189,0,,,,
1,1786645199472,-1249,3709,8657,-6322455,-167377,-56199,0,0,0,313,233,248,218,168,252,340,203,277,273,284,322,0,,,,
2,1786645199472,1392,914,9676,772133,-64751,-140499,0,0,0,310,252,286,264,166,265,420,408,203,341,477,196,0,,,,
1,1786645199488,-832,1617,8959,-6472728,-409279,907745,0,0,0,306,235,249,213,166,250,342,203,277,269,279,319,0,,,,
2,1786645199488,1325,703,9547,785572,-167377,-131946,0,0,0,308,257,289,272,175,280,417,369,206,331,451,197,0,,,,
1,1786645199504,-162,1062,9973,-6321233,-648738,1255938,0,0,0,307,238,250,215,168,254,346,204,278,267,277,319,0,,,,
2,1786645199504,1215,612,9499,768468,-233350,-122173,0,0,0,299,262,297,274,184,298,410,328,203,330,439,195,0,,,,
1,1786645199520,-473,1282,11763,-6310237,-844215,684169,0,0,0,310,234,250,218,167,255,347,203,277,270,277,318,0,,,,
2,1786645199520,1119,440,9533,742812,-265115,-120951,0,0,0,305,260,295,278,191,307,412,298,216,336,421,215,0,,,,
1,1786645199536,-1679,947,13357,-6460510,-1098335,-372627,0,0,0,310,231,250,219,169,257,350,205,281,273,279,319,0,,,,
2,1786645199536,1014,167,9605,696386,-255341,-124616,0,0,0,306,283,317,284,198,319,426,288,249,331,411,222,0,,,,
1,1786645199552,-3053,-28,14223,-6519153,-1415985,-1382998,0,0,0,310,228,249,221,168,257,354,203,283,275,278,318,0,,,,
2,1786645199552,1033,181,9705,679282,-216246,-129503,0,0,0,328,311,303,319,220,318,425,282,253,327,404,241,0,,,,
1,1786645199568,-4058,-746,15573,-6374989,-1728748,-2067167,0,0,0,307,229,249,223,167,257,356,201,283,276,275,315,0,,,,
2,1786645199568,1162,287,9935,735481,-185703,-153938,0,0,0,333,327,308,301,238,329,416,287,260,307,393,282,0,,,,
1,1786645199584,-4790,-1469,17922,-6235712,-1931555,-2362826,0,0,0,311,230,247,226,167,257,360,200,284,276,274,312,0,,,,
2,1786645199584,1330,153,10251,863763,-157603,-217468,0,0,0,383,330,388,301,233,437,411,251,320,306,351,294,0,,,,
1,1786645199600,-5307,-3938,21225,-6124534,-1963320,-2201558,0,0,0,315,232,245,228,168,256,367,201,285,274,271,306,0,,,,
2,1786645199600,1631,-76,10576,999375,-94073,-329867,0,0,0,373,363,411,315,276,469,413,194,348,283,307,337,0,,,,
1,1786645199616,-5278,-7762,24206,-6052452,-1969429,-1943773,0,0,0,302,237,246,224,169,258,374,205,285,272,267,295,0,,,,
2,1786645199616,2124,-287,11045,1176526,-58643,-486248,0,0,0,392,359,374,327,308,465,428,206,326,286,278,343,0,,,,
1,1786645199632,-3694,-14749,26522,-6029239,-2062281,-1668883,0,0,0,303,234,243,229,169,257,376,200,283,274,265,290,0,,,,
2,1786645199632,2220,-536,11572,1457524,-120951,-675616,0,0,0,404,386,348,340,345,487,392,185,332,270,257,354,0,,,,
1,1786645199648,-976,-24460,26341,-5811771,-2152689,-1335351,0,0,0,299,237,238,226,173,257,382,203,286,270,268,284,0,,,,
2,1786645199648,1435,-574,12155,1794722,-207694,-734260,0,0,0,457,398,306,364,343,445,361,171,335,271,236,349,0,,,,
1,1786645199664,2100,-35716,23618,-4823391,-1802052,-387288,0,0,0,304,247,234,231,194,260,387,218,283,271,278,289,0,,,,
2,1786645199664,1148,-583,13443,2224771,-219911,-719599,0,0,0,492,396,263,369,352,424,340,167,344,301,220,370,0,,,,
1,1786645199680,4201,-41995,19506,-3508809,-839328,676838,0,0,0,308,238,234,238,184,265,401,220,292,281,266,292,0,,,,
2,1786645199680,1603,-703,15008,2872288,-216246,-734260,0,0,0,486,418,241,389,380,441,324,171,344,281,218,376,0,,,,
1,1786645199696,5082,-44618,14582,-1964542,177150,1229060,0,0,0,307,234,229,231,176,264,399,247,284,280,258,293,0,,,,
2,1786645199696,1751,-708,15936,3624874,-260228,-792903,0,0,0,485,429,249,390,387,423,304,170,330,253,222,391,0,,,,
1,1786645199712,5613,-44584,12151,-47647,492357,566882,0,0,0,309,218,227,252,162,251,460,346,272,355,376,264,0,,,,
2,1786645199712,1785,-626,16410,4535063,-331088,-875980,0,0,0,485,416,256,373,381,393,244,161,298,238,220,383,0,,,,
1,1786645199728,4206,-36621,15089,1913229,999375,-549778,0,0,0,294,189,180,241,150,229,490,425,245,386,455,234,0,,,,
2,1786645199728,2263,-804,17540,5424483,-262672,-1001818,0,0,0,445,407,238,359,390,383,186,156,267,215,213,333,0,,,,
1,1786645199744,971,-7379,17358,3473379,1938886,-1323134,0,0,0,291,189,177,225,143,224,492,491,244,393,495,223,0,,,,
2,1786645199744,3053,-909,20449,6492275,-122173,-1192408,0,0,0,371,412,218,333,409,372,174,161,262,191,207,285,0,,,,
1,1786645199760,1129,14568,15333,3479488,2419026,-950506,0,0,0,293,184,189,226,132,230,524,545,243,444,529,223,0,,,,
2,1786645199760,4556,-1268,25584,7549072,-75747,-1398881,0,0,0,318,390,216,288,379,337,167,167,261,175,196,250,0,,,,
1,1786645199776,2364,7202,16477,3550348,2426356,120951,0,0,0,309,194,246,254,135,240,556,561,267,504,563,230,0,,,,
2,1786645199776,6542,-1459,31801,8365188,63529,-1624901,0,0,0,286,290,201,236,250,252,180,153,216,165,177,220,0,,,,
1,1786645199792,985,-3943,20311,3170390,1789835,464257,0,0,0,331,223,317,270,153,264,568,571,275,541,579,256,0,,,,
2,1786645199792,7753,-1057,36089,8795237,791681,-1890017,0,0,0,255,216,188,177,139,180,217,160,175,168,197,137,0,,,,
1,1786645199808,-430,-4891,20626,2114815,1071457,259006,0,0,0,349,247,350,274,174,280,581,576,271,558,589,282,0,,,,
2,1786645199808,8791,5159,34271,8598539,1833817,-2313957,0,0,0,261,208,204,182,132,176,250,168,175,167,220,141,0,,,,
1,1786645199824,-71,191,15984,1064127,652404,-61086,0,0,0,358,261,355,282,192,288,586,571,274,563,600,302,0,,,,
2,1786645199824,8384,16822,25766,7084815,1981646,-2654820,0,0,0,257,204,210,170,123,171,235,168,178,173,234,141,0,,,,
1,1786645199840,445,1392,11921,686612,254119,-57421,0,0,0,364,270,359,293,205,300,579,565,272,561,605,320,0,,,,
2,1786645199840,4144,25034,20684,3172834,293215,-1635897,0,0,0,259,218,209,181,136,176,243,176,176,173,243,143,0,,,,
1,1786645199856,86,770,10576,565661,-142942,3665,0,0,0,376,281,365,305,211,306,587,557,275,562,598,330,0,,,,
2,1786645199856,2014,22880,18827,-1653001,-2434908,781907,0,0,0,259,222,214,176,135,176,241,185,177,168,246,144,0,,,,
1,1786645199872,-521,564,10887,465479,-381179,0,0,0,0,383,284,363,302,211,301,589,543,281,554,588,338,0,,,,
2,1786645199872,7193,13921,12065,-3617543,-3665191,2097711,0,0,0,267,223,225,181,138,181,242,181,175,174,250,152,0,,,,
1,1786645199888,-670,1239,10897,405614,-455705,-26878,0,0,0,387,287,365,303,215,308,581,525,282,544,570,343,0,,,,
2,1786645199888,10078,9590,6058,-3670078,-2392148,1659109,0,0,0,271,230,230,179,137,182,243,183,176,171,251,149,0,,,,
1,1786645199904,-674,1603,10591,491135,-478918,-24434,0,0,0,396,294,357,297,216,305,579,493,287,516,549,356,0,,,,
2,1786645199904,5082,9959,6231,-3920533,-712268,667064,0,0,0,266,224,229,181,136,181,244,184,174,171,252,147,0,,,,
1,1786645199920,-789,1560,10284,663399,-460592,-1221,0,0,0,380,299,350,293,228,310,567,478,296,488,531,353,0,,,,
2,1786645199920,1220,8633,7494,-4690223,-538783,151494,0,0,0,268,225,234,178,130,176,242,181,171,195,238,146,0,,,,
1,1786645199936,-871,1397,10174,799011,-395840,20769,0,0,0,379,312,384,299,230,341,562,446,321,467,517,359,0,,,,
2,1786645199936,2187,5924,7566,-5280319,-897971,-149051,0,0,0,271,223,229,185,131,178,253,181,170,195,246,146,0,,,,
1,1786645199952,-866,1292,10088,879645,-338419,36651,0,0,0,385,304,358,309,235,313,551,410,306,449,488,362,0,,,,
2,1786645199952,2833,4469,8461,-5695707,-414166,-544891,0,0,0,269,255,220,192,174,181,262,197,171,183,265,141,0,,,,
1,1786645199968,-890,1182,9978,929736,-294437,50090,0,0,0,387,319,348,308,239,306,546,384,314,450,446,375,0,,,,
2,1786645199968,2043,3718,10040,-6152634,-46425,-590095,0,0,0,270,257,217,192,174,177,265,199,171,188,265,139,0,,,,
1,1786645199984,-966,923,9901,965167,-219911,69638,0,0,0,398,328,347,328,248,323,560,364,319,451,409,385,0,,,,
2,1786645199984,2278,2823,11198,-6504493,62308,-156381,0,0,0,271,220,217,191,133,175,262,181,168,192,259,142,0,,,,
1,1786645200000,-981,646,9825,957836,-140499,86742,0,0,0,402,346,346,333,264,324,510,348,332,431,388,408,0,,,,
2,1786645200000,3785,2278,12242,-6593679,453262,553443,0,0,0,267,218,217,187,135,178,256,175,167,182,258,141,0,,,,
1,1786645200016,-961,469,9739,915076,-69638,98960,0,0,0,413,363,355,336,277,328,518,323,330,422,373,422,0,,,,
2,1786645200016,4517,1847,13716,-6721961,932180,1264491,0,0,0,268,216,219,186,132,179,262,178,170,185,256,139,0,,,,
1,1786645200032,-961,311,9786,877202,-30543,122173,0,0,0,415,373,363,345,283,342,546,291,322,417,363,428,0,,,,
2,1786645200032,4666,1014,15190,-6855129,1213178,1901012,0,0,0,265,215,216,184,128,177,261,178,170,184,257,143,0,,,,
1,1786645200048,-966,114,9935,855211,-20769,152716,0,0,0,418,384,363,358,292,352,545,257,323,407,343,441,0,,,,
2,1786645200048,5139,296,16908,-6809925,1346346,2321287,0,0,0,259,213,216,179,124,176,255,181,173,182,257,145,0,,,,
1,1786645200064,-1014,0,10227,857654,-26878,186924,0,0,0,443,398,364,373,306,353,546,231,327,390,310,457,0,,,,
2,1786645200064,5570,-105,19875,-6691417,1595580,2361605,0,0,0,253,212,214,181,135,179,260,189,174,189,265,145,0,,,,
1,1786645200080,-1244,-19,10500,906524,7330,218689,0,0,0,458,416,359,378,319,358,537,214,339,368,284,468,0,,,,
2,1786645200080,4589,-1928,24388,-6710965,1797165,1833817,0,0,0,253,215,215,183,132,179,261,181,173,188,261,143,0,,,,
1,1786645200096,-1612,-105,10758,1009149,81855,288328,0,0,0,467,439,343,379,335,365,521,192,354,366,257,493,0,,,,
2,1786645200096,3216,-6111,28480,-6899112,1777617,1237612,0,0,0,254,219,217,186,130,179,262,173,173,187,258,142,0,,,,
1,1786645200112,-1986,-363,11122,1144761,128281,410501,0,0,0,490,445,324,388,361,371,514,185,351,361,241,515,0,,,,
2,1786645200112,2038,-14343,30739,-7024950,1789835,810007,0,0,0,253,213,219,183,125,174,263,166,174,187,267,140,0,,,,
1,1786645200128,-2100,-684,11873,1373225,130725,602313,0,0,0,492,457,311,403,374,377,492,198,346,337,236,529,0,,,,
2,1786645200128,-1167,-27982,31615,-6447071,1805717,405614,0,0,0,262,201,220,197,120,183,286,158,177,234,273,147,0,,,,
1,1786645200144,-1287,-890,12385,1720196,149051,750142,0,0,0,524,464,271,402,393,369,488,182,340,342,234,546,0,,,,
2,1786645200144,-3876,-40861,29341,-5279097,894306,-87964,0,0,0,256,201,218,182,116,180,275,161,176,210,276,152,0,,,,
1,1786645200160,-148,-961,12452,2106263,130725,742812,0,0,0,517,463,243,413,428,380,448,188,330,332,225,561,0,,,,
2,1786645200160,-1215,-51026,20177,-3453832,-213802,-449596,0,0,0,251,199,215,176,109,174,273,163,174,201,277,151,0,,,,
1,1786645200176,-181,-894,13395,2508212,46425,630412,0,0,0,521,478,222,430,410,377,439,186,339,339,217,566,0,,,,
2,1786645200176,-124,-56984,12979,-1321912,-116064,-276111,0,0,0,256,190,226,178,104,179,285,188,185,203,269,153,0,,,,
1,1786645200192,-885,-938,14491,2970026,8552,577878,0,0,0,547,470,225,415,402,401,400,178,361,313,203,574,0,,,,
2,1786645200192,-3273,-55419,12696,1058018,430049,631634,0,0,0,265,188,225,181,99,171,313,278,175,224,328,143,0,,,,
1,1786645200208,-1115,-1129,15022,3550348,-1221,607200,0,0,0,546,468,217,408,427,416,366,185,360,286,207,565,0,,,,
2,1786645200208,-4450,-32428,19468,3171612,224798,1706757,0,0,0,256,179,180,182,103,147,324,407,144,238,441,118,0,,,,
1,1786645200224,-1158,-1229,15486,4214970,7330,643851,0,0,0,532,463,217,395,432,421,326,183,352,258,195,548,0,,,,
2,1786645200224,-129,21588,18908,3617543,-1047023,1868025,0,0,0,246,173,143,184,114,139,322,492,131,241,526,103,0,,,,
1,1786645200240,-1344,-1387,16223,4834387,96516,686612,0,0,0,514,452,227,399,439,431,292,180,352,237,175,516,0,,,,
2,1786645200240,-660,31528,9600,3711617,-1936442,816115,0,0,0,256,183,168,193,116,156,338,539,137,268,583,111,0,,,,
1,1786645200256,-1789,-2120,18358,5534439,218689,740368,0,0,0,480,427,222,393,433,417,269,183,351,222,167,466,0,,,,
2,1786645200256,-2522,-775,15084,4674340,-982271,-114842,0,0,0,265,182,210,199,104,167,375,592,144,302,628,127,0,,,,
1,1786645200272,-4101,-3259,22493,6351776,250454,839328,0,0,0,434,395,213,363,402,369,273,216,336,211,165,410,0,,,,
2,1786645200272,-1282,-12189,23756,4309043,-24434,-400727,0,0,0,271,177,228,194,95,163,422,600,152,315,624,133,0,,,,
1,1786645200288,-7456,-4307,27370,7117801,129503,1132544,0,0,0,390,365,209,316,356,327,285,230,312,208,170,377,0,,,,
2,1786645200288,2057,-2593,22756,2835636,45204,-486248,0,0,0,282,175,210,204,94,165,427,597,152,331,636,130,0,,,,
1,1786645200304,-8810,-4833,31098,7826405,-475253,1718974,0,0,0,336,309,210,254,279,291,297,203,296,219,203,356,0,,,,
2,1786645200304,2258,2904,13974,1974316,-86742,-320093,0,0,0,304,181,224,260,122,176,445,594,150,355,639,135,0,,,,
1,1786645200320,-7882,-1028,35199,8428718,-1450194,2478891,0,0,0,295,248,238,214,199,258,335,216,298,243,244,324,0,,,,
2,1786645200320,1072,1722,9595,1584584,47647,-173485,0,0,0,316,183,235,248,90,180,465,586,130,366,645,138,0,,,,
1,1786645200336,-6580,11002,32170,8194146,-968832,3188716,0,0,0,301,268,241,225,219,270,349,228,313,259,255,322,0,,,,
2,1786645200336,1521,-421,10538,1153313,61086,-139277,0,0,0,298,190,237,210,103,169,428,597,146,373,645,176,0,,,,
1,1786645200352,-9485,19808,21512,5364618,1323134,2817310,0,0,0,307,275,236,222,222,254,351,235,296,263,260,318,0,,,,
2,1786645200352,2000,-234,11313,626747,-125838,-83077,0,0,0,302,199,250,226,116,188,434,597,162,373,646,160,0,,,,
1,1786645200368,-11653,21210,16922,1000597,1569923,1439198,0,0,0,307,262,237,218,203,248,355,224,296,263,244,317,0,,,,
2,1786645200368,1584,1014,10863,342084,-260228,-41538,0,0,0,315,194,251,236,112,187,442,581,167,350,625,164,0,,,,
1,1786645200384,-8480,16745,15257,-2526538,511905,-197920,0,0,0,301,263,236,210,204,250,346,225,298,252,251,318,0,,,,
2,1786645200384,1072,1474,10241,343306,-219911,-59864,0,0,0,308,202,264,219,115,197,421,551,174,336,604,168,0,,,,
1,1786645200400,-5360,11907,11227,-3194825,438601,-1158200,0,0,0,299,279,236,207,219,250,347,234,293,253,262,319,0,,,,
2,1786645200400,981,1368,9916,427605,-166155,-97738,0,0,0,322,207,264,221,115,194,420,529,164,341,594,161,0,,,,
1,1786645200416,-5211,10198,8092,-3155729,195476,-1513724,0,0,0,299,274,236,207,213,249,349,233,288,258,265,319,0,,,,
2,1786645200416,1052,1287,9672,514348,-164933,-128281,0,0,0,314,207,259,222,114,195,441,503,165,348,570,159,0,,,,
1,1786645200432,-4230,9892,7762,-3826459,-874759,-1671327,0,0,0,302,267,239,209,211,257,355,232,295,263,263,321,0,,,,
2,1786645200432,1024,1387,9600,603534,-184481,-145385,0,0,0,314,222,269,222,118,194,444,474,167,357,546,159,0,,,,
1,1786645200448,-1856,8107,9164,-5086063,-1469741,-1694540,0,0,0,306,269,236,214,216,254,362,234,290,273,265,320,0,,,,
2,1786645200448,1019,1311,9667,696386,-193033,-164933,0,0,0,316,233,276,228,126,205,438,456,173,358,527,167,0,,,,
1,1786645200464,-856,4862,9820,-6063448,-1450194,-1368338,0,0,0,306,272,232,215,222,251,363,237,283,272,268,316,0,,,,
2,1786645200464,985,1076,9715,763581,-200363,-179594,0,0,0,313,231,275,232,130,224,434,434,196,347,499,179,0,,,,
1,1786645200480,-531,1579,9868,-6229603,-1315803,-585208,0,0,0,303,273,232,213,224,250,364,240,283,266,269,316,0,,,,
2,1786645200480,914,813,9681,763581,-202807,-179594,0,0,0,318,248,284,234,141,240,424,421,211,335,468,191,0,,,,
1,1786645200496,531,339,10543,-6047565,-1247386,-59864,0,0,0,302,273,233,214,224,250,369,241,284,274,271,317,0,,,,
2,1786645200496,851,641,9624,746477,-196698,-174707,0,0,0,329,289,293,245,170,247,421,422,220,340,447,197,0,,,,
1,1786645200512,1397,703,12084,-5872858,-976162,-73303,0,0,0,303,274,233,215,227,251,371,241,287,280,275,318,0,,,,
2,1786645200512,813,569,9614,739146,-171042,-174707,0,0,0,328,305,286,249,187,241,441,379,247,344,420,186,0,,,,
1,1786645200528,335,1081,13381,-5958379,-729373,-596204,0,0,0,303,273,232,213,225,251,369,243,289,273,276,318,0,,,,
2,1786645200528,851,473,9729,756251,-140499,-185703,0,0,0,330,308,292,263,208,260,439,354,212,319,412,193,0,,,,
1,1786645200544,-1220,411,14175,-6085439,-912632,-1207069,0,0,0,303,272,236,214,220,253,369,240,287,271,274,315,0,,,,
2,1786645200544,942,311,9954,784350,-116064,-201585,0,0,0,358,321,304,297,235,308,427,334,218,343,411,211,0,,,,
1,1786645200560,-1952,-516,15003,-6091548,-1178969,-1676214,0,0,0,305,270,233,218,218,251,370,234,285,275,273,311,0,,,,
2,1786645200560,1057,205,10098,811229,-116064,-216246,0,0,0,358,336,318,286,250,320,431,316,234,319,390,224,0,,,,
1,1786645200576,-2498,-1043,16180,-6009692,-1252273,-1919338,0,0,0,308,269,233,219,215,250,369,228,285,278,272,306,0,,,,
2,1786645200576,1177,124,10131,852767,-141720,-243124,0,0,0,374,348,320,287,261,328,410,288,274,294,367,245,0,,,,
1,1786645200592,-3694,-1474,18458,-5914397,-1260825,-1847256,0,0,0,308,274,233,218,215,254,366,227,292,272,271,297,0,,,,
2,1786645200592,1354,19,10265,937067,-189368,-304210,0,0,0,400,364,304,296,261,301,429,215,255,315,322,235,0,,,,
1,1786645200608,-4029,-3172,21421,-5855754,-1402546,-1511280,0,0,0,297,269,228,216,213,253,370,227,297,270,269,292,0,,,,
2,1786645200608,1660,-210,10648,1080009,-239459,-414166,0,0,0,409,362,377,339,294,360,408,192,272,283,280,267,0,,,,
1,1786645200624,-2493,-8111,24154,-5867971,-1503950,-1160643,0,0,0,296,270,228,221,213,254,378,228,297,285,269,299,0,,,,
2,1786645200624,1914,-488,10993,1266934,-282219,-576656,0,0,0,447,394,341,336,331,408,396,186,299,289,265,314,0,,,,
1,1786645200640,-531,-15592,25522,-5803219,-1558928,-927293,0,0,0,296,278,227,229,223,256,386,231,309,276,263,292,0,,,,
2,1786645200640,1445,-717,11337,1466076,-278554,-685390,0,0,0,479,416,320,367,306,393,371,170,317,287,255,335,0,,,,
1,1786645200656,1158,-24666,25130,-5469687,-1588249,-605978,0,0,0,286,259,217,233,218,253,400,221,293,271,244,287,0,,,,
2,1786645200656,799,-837,12261,1798387,-240680,-720820,0,0,0,510,435,290,382,320,373,358,168,348,295,247,353,0,,,,
1,1786645200672,2493,-33438,22478,-4614476,-1164309,83077,0,0,0,287,251,216,235,209,258,405,218,290,265,238,285,0,,,,
2,1786645200672,737,-737,13759,2293188,-183259,-675616,0,0,0,501,461,289,397,373,403,324,174,374,292,256,391,0,,,,
1,1786645200688,3503,-39774,18095,-3358537,-461814,643851,0,0,0,287,241,217,237,202,257,404,215,287,265,239,282,0,,,,
2,1786645200688,1076,-650,15199,3004235,-179594,-668286,0,0,0,489,499,315,383,401,428,295,190,345,265,275,425,0,,,,
1,1786645200704,4895,-43517,13189,-1629788,-4886,554665,0,0,0,295,237,220,245,194,261,409,211,288,279,252,283,0,,,,
2,1786645200704,1244,-526,16104,3808133,-241902,-696386,0,0,0,506,492,307,379,410,404,249,192,303,241,273,412,0,,,,
1,1786645200720,4948,-43632,11265,112399,92851,-476474,0,0,0,298,225,221,258,189,259,450,288,284,314,343,269,0,,,,
2,1786645200720,1885,-693,16525,4664566,-302989,-770911,0,0,0,517,459,266,369,417,374,197,179,285,233,254,373,0,,,,
1,1786645200736,2201,-36219,13405,1848478,265115,-1503950,0,0,0,290,205,202,248,173,248,484,422,276,354,457,244,0,,,,
2,1786645200736,3278,-1215,17803,5635842,-227241,-1011592,0,0,0,478,440,276,344,410,381,171,157,278,213,220,341,0,,,,
1,1786645200752,76,-8997,16893,3392745,799011,-1821600,0,0,0,284,190,177,225,144,241,486,503,278,393,503,233,0,,,,
2,1786645200752,4986,-1641,20593,6785491,-91629,-1393994,0,0,0,405,412,309,336,392,382,149,133,266,177,184,303,0,,,,
1,1786645200768,2546,13783,15477,3815464,1725083,-955393,0,0,0,286,182,198,236,132,246,521,537,286,444,541,225,0,,,,
2,1786645200768,6360,-2569,25642,7886270,-3665,-1815491,0,0,0,337,385,279,296,367,341,141,141,235,163,193,263,0,,,,
1,1786645200784,3685,7312,18171,3848451,1959655,366519,0,0,0,304,192,267,254,140,264,553,578,273,494,560,225,0,,,,
2,1786645200784,8231,-4460,31686,8603426,334754,-2101376,0,0,0,279,304,245,223,284,269,169,156,201,166,197,212,0,,,,
1,1786645200800,-234,-6144,23464,3393967,1285260,1003040,0,0,0,329,209,340,268,141,268,587,590,279,542,572,262,0,,,,
2,1786645200800,8887,-4536,38056,8740259,1716531,-2411695,0,0,0,239,190,210,179,132,197,238,154,176,177,190,140,0,,,,
1,1786645200816,-3053,-4790,21852,2326174,752585,417831,0,0,0,343,224,373,270,151,276,595,589,280,550,576,261,0,,,,
2,1786645200816,6384,2091,39329,7949800,2531425,-2816088,0,0,0,263,203,197,188,133,177,249,161,161,169,198,132,0,,,,
1,1786645200832,-1392,172,15616,1426981,478918,-144164,0,0,0,341,227,409,264,160,295,595,589,302,544,588,294,0,,,,
2,1786645200832,5695,16707,25919,5889962,452040,-2626720,0,0,0,277,207,197,215,134,176,278,162,159,182,211,138,0,,,,
1,1786645200848,636,1933,10634,1017701,36651,-172263,0,0,0,346,242,418,278,170,300,602,577,302,540,585,305,0,,,,
2,1786645200848,7130,25838,16573,2240653,-2139250,-634078,0,0,0,262,208,201,182,132,172,239,166,162,164,211,139,0,,,,
1,1786645200864,-660,626,10538,841772,-354301,-36651,0,0,0,353,253,430,274,180,310,603,573,311,545,582,313,0,,,,
2,1786645200864,7729,20631,14108,-872315,-3182607,2043955,0,0,0,262,212,213,172,133,190,232,170,198,161,211,156,0,,,,
1,1786645200880,-1832,215,10916,613308,-460592,-19547,0,0,0,359,267,424,280,189,307,595,537,304,534,572,326,0,,,,
2,1786645200880,9691,14558,9418,-2043955,-3185051,3036000,0,0,0,257,212,199,176,135,173,231,175,167,164,222,140,0,,,,
1,1786645200896,-1746,1014,10796,518013,-339641,-47647,0,0,0,359,274,421,279,196,308,595,511,309,514,544,327,0,,,,
2,1786645200896,9920,12758,4996,-2320066,-1756848,2331061,0,0,0,255,209,194,180,138,171,235,171,161,165,218,137,0,,,,
1,1786645200912,-1440,1421,10452,654847,-260228,-7330,0,0,0,359,272,411,279,200,310,592,486,312,502,529,337,0,,,,
2,1786645200912,5489,12892,5474,-3275459,-717155,1495398,0,0,0,254,205,191,174,129,166,216,154,157,165,224,133,0,,,,
1,1786645200928,-1373,1225,10270,805120,-218689,39095,0,0,0,362,280,396,287,206,307,588,444,310,489,507,346,0,,,,
2,1786645200928,2785,10868,6570,-4519181,-648738,910189,0,0,0,255,202,192,174,125,166,227,153,160,168,230,132,0,,,,
1,1786645200944,-1392,1014,10279,867428,-200363,61086,0,0,0,371,289,388,297,215,311,580,412,311,471,478,353,0,,,,
2,1786645200944,3196,7441,7087,-5574756,-766025,289550,0,0,0,258,206,196,179,129,172,234,161,160,170,230,137,0,,,,
1,1786645200960,-1407,1014,10265,918741,-180816,67195,0,0,0,382,300,388,298,222,312,558,388,315,456,456,357,0,,,,
2,1786645200960,2742,4953,8016,-6150191,-262672,-437379,0,0,0,258,207,197,183,136,176,236,166,162,170,227,137,0,,,,
1,1786645200976,-1459,909,10098,993266,-155159,76969,0,0,0,386,320,383,301,236,308,545,359,319,450,437,371,0,,,,
2,1786645200976,1727,3642,9246,-6354220,84299,-739146,0,0,0,258,206,197,180,133,170,238,166,171,168,225,135,0,,,,
1,1786645200992,-1502,598,9873,1040914,-105068,92851,0,0,0,386,331,377,312,258,318,544,329,323,442,414,391,0,,,,
2,1786645200992,1603,3311,10715,-6366437,277332,-444709,0,0,0,259,204,196,175,129,165,241,165,171,168,225,134,0,,,,
1,1786645201008,-1450,263,9710,988379,-39095,105068,0,0,0,397,323,384,321,274,331,535,312,327,425,388,396,0,,,,
2,1786645201008,2225,3201,12447,-6437297,510683,178372,0,0,0,260,204,196,178,131,170,244,164,164,172,226,138,0,,,,
1,1786645201024,-1383,95,9633,894306,3665,114842,0,0,0,409,349,381,335,276,329,547,301,335,414,365,413,0,,,,
2,1786645201024,3153,2751,14204,-6616892,850324,968832,0,0,0,259,206,197,182,131,174,247,166,169,177,230,144,0,,,,
1,1786645201040,-1383,38,9691,821002,24434,128281,0,0,0,431,366,409,343,288,343,525,260,348,405,342,433,0,,,,
2,1786645201040,3359,2038,15908,-6763499,1202182,1612684,0,0,0,263,206,198,184,130,173,254,167,171,180,229,138,0,,,,
1,1786645201056,-1517,-47,9901,794124,37873,155159,0,0,0,439,377,391,353,301,352,525,234,344,395,316,450,0,,,,
2,1786645201056,3225,1454,18219,-6846577,1415985,2147802,0,0,0,268,206,201,184,127,173,258,168,173,183,228,138,0,,,,
1,1786645201072,-1698,-177,10131,797790,79412,194255,0,0,0,423,421,375,356,319,360,529,239,356,383,331,450,0,,,,
2,1786645201072,3603,540,21770,-6874677,1426981,2304183,0,0,0,265,207,202,187,131,178,256,164,171,182,227,141,0,,,,
1,1786645201088,-1904,-291,10361,850324,173485,259006,0,0,0,438,445,379,361,342,377,529,215,349,385,302,487,0,,,,
2,1786645201088,3536,-1569,26015,-6912551,1486845,1912008,0,0,0,254,201,202,186,125,178,272,166,180,178,220,140,0,,,,
1,1786645201104,-1871,-435,10567,970053,296880,348193,0,0,0,468,461,350,382,361,382,523,204,346,372,274,496,0,,,,
2,1786645201104,2263,-5714,30677,-7090923,1426981,1204626,0,0,0,266,204,206,199,132,181,269,161,175,186,219,139,0,,,,
1,1786645201120,-1770,-650,10859,1122770,353080,432492,0,0,0,478,483,347,377,359,392,524,192,368,355,255,501,0,,,,
2,1786645201120,1316,-13687,33328,-7308391,1156978,613308,0,0,0,263,201,200,198,130,178,276,162,175,190,216,143,0,,,,
1,1786645201136,-1813,-904,11337,1350012,316428,532674,0,0,0,519,481,314,401,360,395,515,180,360,359,239,519,0,,,,
2,1786645201136,569,-28523,32189,-6757391,1084896,-48869,0,0,0,263,199,195,198,123,175,282,158,173,194,223,138,0,,,,
1,1786645201152,-1651,-1119,11758,1622458,240680,630412,0,0,0,542,483,274,413,375,398,485,180,364,353,234,542,0,,,,
2,1786645201152,-1105,-41861,27963,-5368283,905302,-718377,0,0,0,261,199,198,191,123,171,274,165,175,191,223,147,0,,,,
1,1786645201168,-1019,-1215,12323,1920560,157603,671951,0,0,0,545,488,244,459,423,390,447,186,368,342,235,548,0,,,,
2,1786645201168,-2914,-51452,19277,-3177720,663399,-744033,0,0,0,263,192,204,181,112,171,267,177,174,183,214,149,0,,,,
1,1786645201184,-832,-1215,13653,2360383,108734,621860,0,0,0,548,490,227,455,427,397,416,188,361,330,231,553,0,,,,
2,1786645201184,-5752,-57099,13907,-995710,527787,70860,0,0,0,249,173,203,181,109,174,284,271,172,184,291,138,0,,,,
1,1786645201200,-1134,-1234,14879,2884505,111177,586430,0,0,0,550,491,219,412,393,409,386,184,361,322,222,556,0,,,,
2,1786645201200,-5929,-54515,15898,1632231,-299323,1389107,0,0,0,241,141,162,194,98,162,333,375,157,219,374,105,0,,,,
1,1786645201216,-1186,-1234,15448,3492927,128281,588874,0,0,0,548,488,214,416,393,401,351,182,373,305,210,542,0,,,,
2,1786645201216,440,-15821,19272,3775147,-2004859,1805717,0,0,0,244,147,140,198,103,154,347,475,140,249,467,101,0,,,,
1,1786645201232,-1273,-1249,15893,4144109,124616,599869,0,0,0,546,473,213,398,405,401,315,188,379,259,190,526,0,,,,
2,1786645201232,579,15984,18430,4235739,-2988352,1368338,0,0,0,254,152,202,203,97,187,368,531,164,299,539,130,0,,,,
1,1786645201248,-1895,-1445,17300,4927239,133168,658512,0,0,0,515,467,212,392,418,403,281,190,380,232,174,485,0,,,,
2,1786645201248,-4967,12012,17760,4284608,-2542421,293215,0,0,0,268,162,247,209,88,206,412,550,184,343,593,145,0,,,,
1,1786645201264,-3168,-2105,19966,5782450,199142,788016,0,0,0,464,465,220,384,412,399,254,182,357,214,164,428,0,,,,
2,1786645201264,-4508,-4302,21009,3977954,-1160643,-389732,0,0,0,279,189,233,206,106,187,430,563,172,349,636,137,0,,,,
1,1786645201280,-6116,-2780,24670,6682865,392175,1050688,0,0,0,422,399,229,349,382,369,261,190,345,214,171,405,0,,,,
2,1786645201280,-440,-5312,20751,3016452,-257785,-458148,0,0,0,288,193,249,206,124,189,435,565,169,368,636,135,0,,,,
1,1786645201296,-9049,-3038,29408,7556403,516791,1477072,0,0,0,397,351,212,317,358,349,287,201,337,207,182,370,0,,,,
2,1786645201296,1301,593,16003,1960877,-23212,-156381,0,0,0,307,205,256,220,125,193,461,566,166,392,636,127,0,,,,
1,1786645201312,-9849,-2847,33615,8284554,114842,2048842,0,0,0,304,268,216,255,230,281,318,197,298,233,213,320,0,,,,
2,1786645201312,129,1765,11371,1319468,152716,-73303,0,0,0,323,219,267,242,129,203,464,553,174,406,626,135,0,,,,
1,1786645201328,-9322,2904,35290,8528900,-702495,2624277,0,0,0,307,238,235,229,183,259,332,197,296,244,232,304,0,,,,
2,1786645201328,100,526,9763,924849,409279,-123394,0,0,0,310,221,295,240,130,242,463,558,194,394,617,202,0,,,,
1,1786645201344,-9423,14539,27403,7703010,-542448,3222925,0,0,0,311,257,230,228,207,253,339,215,291,253,245,300,0,,,,
2,1786645201344,1196,33,10428,604756,389732,-96516,0,0,0,312,208,276,240,114,214,468,545,189,417,613,179,0,,,,
1,1786645201360,-9978,21990,17563,4491081,332310,3073873,0,0,0,318,260,227,231,202,255,339,216,288,262,251,304,0,,,,
2,1786645201360,1407,813,10533,354301,212581,-41538,0,0,0,314,210,281,236,114,221,461,541,180,398,592,164,0,,,,
1,1786645201376,-7260,19923,16310,-542448,400727,1464854,0,0,0,317,252,228,231,193,251,341,215,283,264,255,307,0,,,,
2,1786645201376,995,1651,10256,351858,76969,-39095,0,0,0,323,221,277,243,125,223,458,528,186,400,561,172,0,,,,
1,1786645201392,-4139,13797,14189,-3389080,750142,-279776,0,0,0,318,254,231,230,197,249,343,216,284,268,259,310,0,,,,
2,1786645201392,789,1622,10083,533896,43982,-74525,0,0,0,314,219,264,253,133,229,470,523,184,408,530,181,0,,,,
1,1786645201408,-4412,9940,9992,-3365867,1021366,-1191187,0,0,0,321,258,234,227,204,250,340,220,284,275,260,308,0,,,,
2,1786645201408,713,1335,9959,664621,42760,-92851,0,0,0,319,236,266,254,139,234,467,496,193,392,480,177,0,,,,
1,1786645201424,-4369,9404,7441,-3246137,112399,-1587027,0,0,0,322,253,237,230,199,252,341,220,282,279,261,306,0,,,,
2,1786645201424,689,1172,9873,709825,57421,-92851,0,0,0,329,238,273,278,138,239,490,478,185,376,448,199,0,,,,
1,1786645201440,-1909,9021,7920,-3941302,-695164,-1886351,0,0,0,324,254,238,234,200,254,345,221,283,276,265,308,0,,,,
2,1786645201440,717,1167,9882,734260,72082,-91629,0,0,0,321,236,271,282,140,253,487,449,190,365,421,197,0,,,,
1,1786645201456,-119,7317,9337,-4922352,-608421,-2064724,0,0,0,324,261,234,232,208,253,344,226,280,272,270,307,0,,,,
2,1786645201456,780,1052,9873,773355,84299,-92851,0,0,0,330,247,271,307,181,260,482,409,197,355,395,196,0,,,,
1,1786645201472,-1273,4594,9715,-5605299,-326202,-1696983,0,0,0,322,253,233,235,201,253,346,220,276,277,270,305,0,,,,
2,1786645201472,851,808,9748,785572,84299,-91629,0,0,0,328,253,276,291,179,263,480,372,205,336,360,199,0,,,,
1,1786645201488,-1981,2569,10040,-5947383,-565661,-1028697,0,0,0,319,257,234,234,204,253,348,223,275,278,268,302,0,,,,
2,1786645201488,904,588,9514,724486,62308,-86742,0,0,0,324,264,278,280,173,263,464,355,204,326,348,190,0,,,,
1,1786645201504,-1282,1517,11289,-6122091,-973719,-425162,0,0,0,319,257,235,233,204,253,356,221,275,284,267,302,0,,,,
2,1786645201504,957,478,9370,642630,25656,-94073,0,0,0,320,280,273,285,178,268,454,345,237,331,350,194,0,,,,
1,1786645201520,-689,1325,13357,-6376211,-1058018,-403171,0,0,0,319,259,235,238,212,259,361,224,291,300,268,307,0,,,,
2,1786645201520,990,421,9485,603534,-7330,-118507,0,0,0,321,299,272,285,184,278,457,322,276,330,339,206,0,,,,
1,1786645201536,-1072,775,14783,-6643770,-1089783,-763581,0,0,0,318,251,234,241,204,259,364,217,283,306,263,306,0,,,,
2,1786645201536,1024,349,9710,591317,-34208,-156381,0,0,0,330,322,283,292,205,287,458,298,267,318,324,205,0,,,,
1,1786645201552,-2196,-411,15697,-6693861,-1202182,-1397659,0,0,0,307,249,234,236,203,260,359,220,285,292,265,301,0,,,,
2,1786645201552,1067,296,9839,602313,-51312,-184481,0,0,0,328,332,298,301,224,304,461,283,266,312,312,209,0,,,,
1,1786645201568,-3450,-1234,16870,-6555805,-1336573,-1931555,0,0,0,304,256,231,233,209,259,355,225,285,282,272,297,0,,,,
2,1786645201568,1186,239,9944,637743,-85521,-215024,0,0,0,332,348,305,308,239,327,442,269,287,305,301,220,0,,,,
1,1786645201584,-4594,-1603,19133,-6428745,-1495398,-2204001,0,0,0,305,264,230,232,214,258,360,227,284,284,271,294,0,,,,
2,1786645201584,1325,86,10112,715934,-142942,-267558,0,0,0,345,353,326,314,250,345,415,234,267,283,294,242,0,,,,
1,1786645201600,-5427,-3239,22761,-6498384,-1550375,-2068389,0,0,0,305,266,229,232,215,259,360,223,286,279,264,290,0,,,,
2,1786645201600,1335,-81,10466,842994,-189368,-334754,0,0,0,366,392,310,337,295,332,432,235,271,288,273,246,0,,,,
1,1786645201616,-5738,-7676,25628,-6633996,-1560149,-1732413,0,0,0,302,267,227,232,213,256,367,219,285,278,258,286,0,,,,
2,1786645201616,1225,-181,10801,1007927,-210137,-398284,0,0,0,414,374,323,369,274,364,429,188,287,299,261,248,0,,,,
1,1786645201632,-4072,-16750,26829,-6571688,-1836260,-1286482,0,0,0,304,265,225,245,210,258,391,213,283,286,249,286,0,,,,
2,1786645201632,1062,-224,11060,1248608,-185703,-456927,0,0,0,406,396,308,374,294,388,433,198,294,271,256,294,0,,,,
1,1786645201648,-148,-27054,26197,-5905845,-2153910,-973719,0,0,0,304,262,223,251,212,260,398,213,284,287,248,286,0,,,,
2,1786645201648,1095,-320,11691,1508837,-124616,-498466,0,0,0,436,438,312,419,366,419,377,179,300,279,260,325,0,,,,
1,1786645201664,3043,-36654,23857,-4835609,-1685988,-558330,0,0,0,303,257,222,247,209,259,389,214,285,286,252,283,0,,,,
2,1786645201664,1440,-416,13055,1897347,-102625,-538783,0,0,0,461,444,276,457,414,423,350,173,305,275,254,344,0,,,,
1,1786645201680,2727,-42852,18521,-3492927,-345749,69638,0,0,0,304,238,208,257,188,256,416,251,279,310,297,275,0,,,,
2,1786645201680,1799,-593,14596,2469117,-145385,-607200,0,0,0,489,452,278,428,392,403,317,173,309,268,250,378,0,,,,
1,1786645201696,3101,-47011,13984,-1762957,406836,593761,0,0,0,299,209,181,259,171,245,462,364,263,343,405,262,0,,,,
2,1786645201696,1488,-521,15903,3287676,-245567,-671951,0,0,0,470,456,248,423,410,383,317,207,313,269,271,380,0,,,,
1,1786645201712,6412,-50322,14266,707381,1472185,480140,0,0,0,295,207,188,244,175,246,479,454,265,353,460,253,0,,,,
2,1786645201712,1497,-339,16654,4087910,-360410,-709825,0,0,0,475,462,237,413,393,383,258,189,291,260,265,352,0,,,,
1,1786645201728,5738,-33945,16171,3574783,3617543,-58643,0,0,0,282,196,174,232,153,240,478,468,255,376,493,224,0,,,,
2,1786645201728,1708,-325,17645,4965112,-414166,-779464,0,0,0,467,461,256,367,381,369,196,173,259,229,253,348,0,,,,
1,1786645201744,933,-224,18573,3782477,4095240,-427605,0,0,0,289,191,187,239,143,241,495,504,254,428,512,221,0,,,,
2,1786645201744,2718,-392,19851,6050009,-401949,-911410,0,0,0,404,425,277,324,372,370,167,162,251,192,216,302,0,,,,
1,1786645201760,871,10854,19047,3277902,3022561,-470366,0,0,0,295,202,231,241,142,253,527,529,281,455,533,227,0,,,,
2,1786645201760,4943,-942,23527,7226535,-420275,-1183856,0,0,0,331,372,243,302,346,339,167,149,235,177,180,230,0,,,,
1,1786645201776,4120,1306,18736,2945592,1244943,-215024,0,0,0,327,220,302,273,152,256,559,540,265,516,550,243,0,,,,
2,1786645201776,6877,-2258,28791,8168489,-294437,-1571145,0,0,0,284,314,188,274,296,256,177,152,199,168,179,194,0,,,,
1,1786645201792,3531,-2790,17252,2354274,267558,106290,0,0,0,351,237,348,280,160,273,570,548,285,530,557,262,0,,,,
2,1786645201792,7475,-2043,34098,8709716,646295,-1941329,0,0,0,254,241,182,224,209,200,199,160,179,151,189,160,0,,,,
1,1786645201808,497,-559,14357,1584584,-169820,278554,0,0,0,358,263,373,281,174,285,582,551,309,530,564,290,0,,,,
2,1786645201808,6896,1775,38540,8654738,1969429,-2265088,0,0,0,252,205,196,181,141,181,236,169,175,160,199,139,0,,,,
1,1786645201824,-1129,1521,12017,1125213,-179594,199142,0,0,0,364,269,389,287,183,290,586,547,302,544,572,310,0,,,,
2,1786645201824,6532,13141,30724,7271739,1524719,-2368935,0,0,0,256,214,206,183,133,189,240,169,194,162,198,148,0,,,,
1,1786645201840,-952,421,11552,814894,-193033,86742,0,0,0,368,272,408,291,191,298,592,548,299,555,578,316,0,,,,
2,1786645201840,5498,22837,22297,4129449,-340862,-1306029,0,0,0,257,216,213,190,143,204,239,173,199,162,200,156,0,,,,
1,1786645201856,-703,0,11371,486248,-204028,6108,0,0,0,374,280,414,291,199,304,590,543,301,546,574,321,0,,,,
2,1786645201856,4355,24039,17458,-257785,-2365270,1262047,0,0,0,259,203,246,192,138,209,247,176,196,166,197,159,0,,,,
1,1786645201872,-459,827,10921,278554,-206472,-23212,0,0,0,376,288,412,289,209,309,585,537,301,532,570,328,0,,,,
2,1786645201872,7365,16817,11026,-1875356,-2725680,2776993,0,0,0,254,203,232,189,137,201,244,173,195,170,205,160,0,,,,
1,1786645201888,-349,1526,10600,307876,-261450,-21991,0,0,0,384,297,408,293,225,317,585,527,301,527,566,332,0,,,,
2,1786645201888,8504,13194,6255,-2014633,-1314581,2555860,0,0,0,260,208,228,183,137,190,244,179,191,168,205,154,0,,,,
1,1786645201904,-349,1584,10452,436157,-331088,-13439,0,0,0,391,301,403,297,232,318,584,511,299,515,553,335,0,,,,
2,1786645201904,3445,13787,7001,-2588846,131946,1602910,0,0,0,258,206,214,190,144,193,236,177,183,171,208,150,0,,,,
1,1786645201920,-440,1392,10342,579100,-387288,-3665,0,0,0,381,305,404,295,229,316,574,491,307,490,530,344,0,,,,
2,1786645201920,-277,12304,8662,-4167322,-219911,1032362,0,0,0,259,207,238,187,142,201,237,175,189,170,209,154,0,,,,
1,1786645201936,-612,1426,10217,687834,-383623,14660,0,0,0,374,324,407,302,241,326,568,451,326,480,505,358,0,,,,
2,1786645201936,-153,8954,8528,-5456248,-518013,394618,0,0,0,256,210,228,183,142,199,235,180,185,163,211,154,0,,,,
1,1786645201952,-770,1397,10102,800233,-328645,36651,0,0,0,378,338,391,310,256,313,570,406,300,463,480,353,0,,,,
2,1786645201952,-890,6039,8710,-6041457,-81855,-472809,0,0,0,255,212,210,185,143,190,233,177,176,164,211,148,0,,,,
1,1786645201968,-842,1081,10002,871093,-224798,52534,0,0,0,383,373,392,314,261,318,562,391,297,447,465,366,0,,,,
2,1786645201968,-2450,4455,9681,-6266255,109955,-1037249,0,0,0,253,211,198,188,145,185,237,174,174,166,213,146,0,,,,
1,1786645201984,-827,804,9906,883311,-133168,57421,0,0,0,392,378,395,322,270,327,562,378,304,440,450,369,0,,,,
2,1786645201984,-2914,4000,10902,-6370102,65973,-1159422,0,0,0,254,212,202,187,141,184,244,178,178,169,211,147,0,,,,
1,1786645202000,-794,665,9858,852767,-53756,59864,0,0,0,401,366,393,330,273,328,556,359,317,426,421,385,0,,,,
2,1786645202000,-2373,4125,12629,-6626666,171042,-830776,0,0,0,255,215,207,182,138,183,244,181,179,164,209,145,0,,,,
1,1786645202016,-789,559,9897,821002,21991,72082,0,0,0,412,384,406,338,285,340,553,315,322,428,405,390,0,,,,
2,1786645202016,-1569,3632,14333,-6987076,302989,-235793,0,0,0,255,216,207,182,139,184,241,180,177,164,211,144,0,,,,
1,1786645202032,-823,478,9992,823446,89186,95294,0,0,0,424,397,390,351,312,338,551,283,319,415,376,407,0,,,,
2,1786645202032,-335,2258,15558,-7180110,388510,530231,0,0,0,257,215,206,190,143,189,240,180,177,169,215,146,0,,,,
1,1786645202048,-942,368,10256,878424,162490,134390,0,0,0,430,431,390,358,321,351,543,257,326,405,346,424,0,,,,
2,1786645202048,1296,1387,17061,-7023728,538783,1187522,0,0,0,259,213,203,196,147,193,240,180,179,167,214,147,0,,,,
1,1786645202064,-1062,138,10552,960280,234572,197920,0,0,0,434,467,391,364,329,350,533,229,331,405,323,447,0,,,,
2,1786645202064,2555,516,19765,-6863681,795346,1459967,0,0,0,258,211,202,195,146,192,243,176,179,166,211,144,0,,,,
1,1786645202080,-1110,-47,10662,1037249,282219,277332,0,0,0,450,502,381,373,356,375,522,221,345,392,305,459,0,,,,
2,1786645202080,2378,-2077,24110,-6896668,928515,979827,0,0,0,253,207,200,192,145,187,248,176,187,169,212,142,0,,,,
1,1786645202096,-1038,-201,10739,1128878,307876,367740,0,0,0,471,509,374,383,367,382,501,208,346,382,294,473,0,,,,
2,1786645202096,1828,-6503,28628,-7104362,831998,351858,0,0,0,244,203,192,185,139,182,250,173,211,164,209,137,0,,,,
1,1786645202112,-1115,-397,11284,1282817,312763,453262,0,0,0,491,504,355,390,370,379,468,190,336,376,280,493,0,,,,
2,1786645202112,2148,-13965,31256,-7257079,690277,111177,0,0,0,249,209,192,184,135,176,241,163,206,179,220,136,0,,,,
1,1786645202128,-1153,-650,12117,1550375,321315,560774,0,0,0,515,502,328,396,380,387,429,180,329,363,259,519,0,,,,
2,1786645202128,2909,-26575,30251,-6670648,873537,105068,0,0,0,249,232,193,187,155,176,242,170,197,171,221,133,0,,,,
1,1786645202144,-789,-727,12562,1881464,342084,643851,0,0,0,544,511,314,402,398,388,400,177,333,347,245,542,0,,,,
2,1786645202144,1201,-37836,27365,-5448917,1144761,-83077,0,0,0,253,234,204,193,155,192,247,177,181,180,237,149,0,,,,
1,1786645202160,-9,-679,12921,2235766,366519,640186,0,0,0,567,529,293,403,415,382,376,181,339,338,242,546,0,,,,
2,1786645202160,-2952,-47303,21268,-3365867,1006705,-218689,0,0,0,249,230,205,201,159,205,248,175,181,181,237,151,0,,,,
1,1786645202176,110,-770,13787,2643824,398284,579100,0,0,0,585,513,275,407,407,398,347,178,328,335,245,546,0,,,,
2,1786645202176,-2818,-52036,15127,-1320690,577878,296880,0,0,0,249,207,195,196,141,186,255,179,186,177,217,139,0,,,,
1,1786645202192,-698,-1019,14740,3133738,443488,549778,0,0,0,574,519,263,389,415,393,329,175,346,333,244,545,0,,,,
2,1786645202192,-1655,-52586,13127,668286,521678,943175,0,0,0,246,190,197,193,125,182,283,246,172,200,313,131,0,,,,
1,1786645202208,-928,-1158,15113,3657861,527787,604756,0,0,0,558,524,238,382,444,378,278,184,314,303,248,566,0,,,,
2,1786645202208,-2033,-33639,18004,2847853,538783,1629788,0,0,0,233,152,169,184,101,172,293,344,155,223,385,124,0,,,,
1,1786645202224,-1201,-1253,15601,4280943,676838,676838,0,0,0,549,513,252,381,436,417,268,174,305,264,216,513,0,,,,
2,1786645202224,-2254,9992,17042,3965737,172263,1914451,0,0,0,244,156,141,193,107,162,306,414,163,271,472,121,0,,,,
1,1786645202240,-1823,-1675,16463,4895474,875980,805120,0,0,0,523,495,250,358,422,405,269,235,305,225,180,453,0,,,,
2,1786645202240,-3316,22187,11763,4538728,105068,1292590,0,0,0,259,174,177,211,121,191,328,478,193,312,573,122,0,,,,
1,1786645202256,-2474,-2263,18779,5575977,1100779,1000597,0,0,0,486,475,265,387,415,380,266,192,312,221,175,436,0,,,,
2,1786645202256,-2359,507,15644,5431813,808785,119729,0,0,0,272,182,197,220,124,193,374,521,203,351,631,116,0,,,,
1,1786645202272,-4048,-2866,23053,6333450,1391551,1219287,0,0,0,447,436,247,345,408,361,265,192,308,217,176,406,0,,,,
2,1786645202272,454,-9528,23503,5294979,1286482,-598647,0,0,0,289,187,204,231,126,209,417,515,215,382,652,129,0,,,,
1,1786645202288,-6298,-3239,27250,7015176,1638340,1495398,0,0,0,405,397,219,300,354,325,274,193,285,216,189,380,0,,,,
2,1786645202288,4551,-4388,25106,3667634,921184,-819781,0,0,0,303,195,220,247,133,237,454,508,223,398,645,144,0,,,,
1,1786645202304,-6915,-2402,30504,7693236,1187522,1925447,0,0,0,332,309,216,247,246,266,305,199,268,240,227,329,0,,,,
2,1786645202304,5211,-550,16994,1815491,237015,-389732,0,0,0,313,208,232,258,138,226,491,543,206,417,624,137,0,,,,
1,1786645202320,-7504,856,34122,8205141,695164,2362826,0,0,0,310,253,236,233,186,248,331,199,265,261,247,305,0,,,,
2,1786645202320,2847,268,10418,910189,-9773,-34208,0,0,0,329,217,253,269,134,238,507,549,212,438,620,155,0,,,,
1,1786645202336,-9054,8805,29834,7711562,1406211,2648711,0,0,0,320,246,246,238,178,255,339,196,265,270,249,305,0,,,,
2,1786645202336,1904,129,9064,636521,-31764,-4886,0,0,0,328,215,259,265,133,241,515,545,211,447,622,171,0,,,,
1,1786645202352,-10198,13428,21603,4394564,2506990,1456302,0,0,0,319,253,242,235,181,253,338,199,265,276,256,308,0,,,,
2,1786645202352,2368,373,9973,459370,-206472,-46425,0,0,0,327,231,264,271,157,244,532,524,205,430,621,170,0,,,,
1,1786645202368,-9475,13802,17525,454483,2072054,-851546,0,0,0,318,258,241,234,184,252,339,207,265,277,260,310,0,,,,
2,1786645202368,2416,842,10677,381179,-409279,-57421,0,0,0,321,226,300,260,138,263,526,532,212,393,619,207,0,,,,
1,1786645202384,-7427,10524,13969,-1974316,1167974,-3249803,0,0,0,323,247,239,235,180,252,336,216,270,271,256,311,0,,,,
2,1786645202384,1756,1052,10394,452040,-410501,-70860,0,0,0,311,281,270,266,167,252,510,496,226,360,586,181,0,,,,
1,1786645202400,-7217,8504,9901,-1960877,533896,-3857003,0,0,0,323,247,239,236,182,254,334,215,272,272,258,313,0,,,,
2,1786645202400,1301,961,10093,582765,-213802,-113620,0,0,0,310,295,282,262,171,277,501,475,226,346,545,210,0,,,,
1,1786645202416,-5494,8446,7982,-2101376,-257785,-3518583,0,0,0,321,249,239,233,181,253,337,218,268,271,259,311,0,,,,
2,1786645202416,1268,923,10064,687834,7330,-141720,0,0,0,300,290,257,266,189,261,467,449,217,335,495,182,0,,,,
1,1786645202432,-1765,8734,7595,-2990796,-736703,-2697580,0,0,0,318,241,238,232,180,252,340,216,266,275,257,316,0,,,,
2,1786645202432,1608,928,10035,767246,131946,-144164,0,0,0,298,286,255,278,199,284,457,409,236,325,471,200,0,,,,
1,1786645202448,-751,7513,7446,-4102570,-541226,-1897347,0,0,0,318,254,238,228,180,247,342,217,266,280,261,316,0,,,,
2,1786645202448,1919,813,9844,840550,130725,-146607,0,0,0,309,286,259,287,198,274,464,355,228,388,440,186,0,,,,
1,1786645202464,-732,5809,7532,-5020090,-676838,-1014036,0,0,0,319,255,243,223,180,255,315,214,269,277,263,328,0,,,,
2,1786645202464,2038,598,9609,867428,10995,-157603,0,0,0,305,253,283,293,208,303,441,315,262,344,426,225,0,,,,
1,1786645202480,258,4431,8332,-5585751,-1003040,-343306,0,0,0,319,244,237,231,177,251,343,218,265,287,268,323,0,,,,
2,1786645202480,1981,397,9475,830776,-138055,-167377,0,0,0,298,259,258,286,212,294,427,302,273,323,416,225,0,,,,
1,1786645202496,1172,3522,9523,-5926614,-1089783,-89186,0,0,0,318,237,236,236,177,251,348,218,265,283,263,316,0,,,,
2,1786645202496,1914,229,9423,770911,-271224,-175929,0,0,0,302,274,253,294,214,291,445,344,271,325,414,206,0,,,,
1,1786645202512,1162,3058,11050,-6129421,-966388,-323758,0,0,0,319,241,238,235,180,252,348,220,264,283,264,312,0,,,,
2,1786645202512,1837,67,9428,707381,-368962,-189368,0,0,0,311,299,271,305,241,306,461,324,269,324,382,208,0,,,,
1,1786645202528,263,2598,12505,-6363994,-834441,-730594,0,0,0,319,244,240,233,178,251,348,219,264,284,263,309,0,,,,
2,1786645202528,1794,-71,9518,665843,-425162,-217468,0,0,0,318,322,272,320,269,321,419,284,278,311,344,214,0,,,,
1,1786645202544,-1062,1751,13898,-6605896,-831998,-1061683,0,0,0,318,248,240,233,179,247,347,218,260,285,263,301,0,,,,
2,1786645202544,1919,-90,9782,668286,-494800,-262672,0,0,0,325,336,272,333,288,341,398,253,294,298,318,219,0,,,,
1,1786645202560,-1818,808,15204,-6708522,-1062905,-1158200,0,0,0,317,250,235,237,181,245,351,217,261,287,265,291,0,,,,
2,1786645202560,2115,-129,10074,728151,-601091,-327423,0,0,0,341,358,280,338,306,346,416,240,293,287,309,226,0,,,,
1,1786645202576,-1698,196,17171,-6713408,-1276708,-1188743,0,0,0,315,248,230,241,181,248,356,214,267,296,258,282,0,,,,
2,1786645202576,1990,-382,10126,805120,-679282,-417831,0,0,0,364,376,290,344,318,344,410,244,291,273,302,245,0,,,,
1,1786645202592,-1885,-272,20038,-6730513,-1367116,-1205847,0,0,0,313,248,230,241,181,252,356,212,269,299,251,277,0,,,,
2,1786645202592,1722,-622,10179,883311,-653625,-515570,0,0,0,378,377,295,351,331,378,402,196,315,271,265,282,0,,,,
1,1786645202608,-2354,-1919,24029,-6823364,-1488067,-978606,0,0,0,311,249,233,244,181,256,358,211,272,286,262,282,0,,,,
2,1786645202608,1651,-760,10442,988379,-516791,-605978,0,0,0,409,388,280,384,348,398,414,188,312,281,264,282,0,,,,
1,1786645202624,-1062,-7293,27551,-6983411,-1732413,-434936,0,0,0,312,260,235,247,187,261,359,208,275,291,265,286,0,,,,
2,1786645202624,1670,-1009,10978,1193630,-334754,-707381,0,0,0,489,399,290,414,347,402,400,177,327,269,228,307,0,,,,
1,1786645202640,1440,-15989,29528,-6930877,-1814269,76969,0,0,0,313,261,239,252,189,266,363,206,285,289,257,288,0,,,,
2,1786645202640,1124,-1139,11404,1464854,-237015,-757472,0,0,0,491,409,272,430,355,447,375,169,334,274,226,384,0,,,,
1,1786645202656,3503,-26996,28753,-6370102,-1638340,465479,0,0,0,316,252,242,253,186,260,365,203,278,286,251,279,0,,,,
2,1786645202656,440,-990,12132,1822821,-180816,-686612,0,0,0,476,425,258,447,382,432,347,163,355,287,218,374,0,,,,
1,1786645202672,4235,-38257,24489,-5153259,-1224173,940732,0,0,0,317,251,234,266,195,260,376,212,272,295,260,276,0,,,,
2,1786645202672,526,-832,13754,2331061,-123394,-560774,0,0,0,481,430,232,421,399,424,311,166,345,268,239,366,0,,,,
1,1786645202688,4919,-45412,18066,-3605326,-814894,1114218,0,0,0,317,252,234,265,195,262,378,209,276,292,258,272,0,,,,
2,1786645202688,1225,-861,15166,2992017,-116064,-500909,0,0,0,497,424,250,401,417,420,292,170,359,249,231,386,0,,,,
1,1786645202704,6829,-48647,12510,-1655444,-673173,549778,0,0,0,310,241,213,253,190,251,408,238,267,315,304,267,0,,,,
2,1786645202704,1914,-904,15912,3842342,-139277,-552222,0,0,0,511,446,257,371,477,427,234,168,357,220,239,389,0,,,,
1,1786645202720,7116,-47475,12232,423940,-386066,-841772,0,0,0,312,216,204,261,161,242,475,364,248,342,421,248,0,,,,
2,1786645202720,3038,-1100,16774,4833165,-109955,-728151,0,0,0,490,438,242,379,502,451,186,168,328,220,233,354,0,,,,
1,1786645202736,3560,-32486,16171,2652376,861319,-2032959,0,0,0,297,199,174,248,153,235,482,454,243,367,477,230,0,,,,
2,1786645202736,3637,-1086,18736,5819102,-51312,-1012814,0,0,0,442,450,222,382,487,440,182,159,292,198,203,308,0,,,,
1,1786645202752,1167,1086,17339,3821572,2730567,-1980425,0,0,0,296,204,174,239,154,238,475,496,251,397,508,218,0,,,,
2,1786645202752,4374,-1349,22660,7104362,-25656,-1352455,0,0,0,366,404,230,354,432,408,177,148,267,173,177,267,0,,,,
1,1786645202768,4134,13093,16726,3839898,3480710,-800233,0,0,0,308,208,208,263,153,249,524,540,252,457,534,210,0,,,,
2,1786645202768,6240,-2852,28920,8240572,155159,-1621236,0,0,0,318,325,225,291,330,339,174,147,236,168,175,221,0,,,,
1,1786645202784,4876,2249,19660,3889989,2822197,338419,0,0,0,320,212,266,287,157,259,567,573,254,511,554,207,0,,,,
2,1786645202784,7446,-3048,35903,8707273,1043357,-1868025,0,0,0,283,249,204,220,201,246,197,148,201,174,209,176,0,,,,
1,1786645202800,1871,-5211,21722,3104417,1387885,379958,0,0,0,329,227,336,292,169,277,578,578,273,541,570,233,0,,,,
2,1786645202800,7681,607,39846,8659625,2160019,-2169793,0,0,0,255,204,197,185,128,193,225,152,184,172,225,154,0,,,,
1,1786645202816,445,-3129,19171,2025629,587652,53756,0,0,0,337,247,383,302,192,302,589,576,296,557,581,287,0,,,,
2,1786645202816,8250,11050,33716,7896044,2769662,-2615724,0,0,0,258,201,197,187,128,188,238,159,186,168,202,152,0,,,,
1,1786645202832,933,861,14185,1197295,295658,-122173,0,0,0,347,260,397,313,214,317,590,578,301,555,581,313,0,,,,
2,1786645202832,5575,22842,24067,5121494,1166752,-2195449,0,0,0,261,203,199,186,124,189,238,153,183,169,206,150,0,,,,
1,1786645202848,985,1320,11103,818559,-59864,-52534,0,0,0,350,266,405,308,218,319,598,573,309,544,583,323,0,,,,
2,1786645202848,3383,26508,20445,602313,-1799608,-118507,0,0,0,264,206,196,187,127,187,232,156,174,170,208,148,0,,,,
1,1786645202864,14,397,10854,671951,-398284,-7330,0,0,0,345,271,405,302,228,319,596,560,321,532,579,323,0,,,,
2,1786645202864,7303,18769,14769,-2333505,-3511253,1673770,0,0,0,268,203,201,187,127,185,233,163,181,169,203,146,0,,,,
1,1786645202880,-626,650,10873,569326,-494800,-30543,0,0,0,346,283,426,308,240,318,591,521,311,528,553,326,0,,,,
2,1786645202880,10007,13223,8557,-3152064,-2759889,1740965,0,0,0,262,198,204,178,123,193,231,150,204,172,222,158,0,,,,
1,1786645202896,-603,1402,10763,634078,-397062,-47647,0,0,0,354,291,408,314,248,320,600,489,306,526,529,329,0,,,,
2,1786645202896,6561,12715,6580,-3459940,-995710,840550,0,0,0,261,193,188,181,126,178,225,151,166,170,222,145,0,,,,
1,1786645202912,-464,1397,10547,814894,-311541,-24434,0,0,0,355,292,398,326,247,334,583,475,307,477,505,330,0,,,,
2,1786645202912,1584,12170,8001,-4641354,-692721,313984,0,0,0,271,203,198,190,131,180,230,156,164,171,211,145,0,,,,
1,1786645202928,-411,1072,10399,928515,-273667,-1221,0,0,0,355,302,390,319,247,335,566,443,300,449,476,346,0,,,,
2,1786645202928,2498,8155,8164,-5880188,-1236391,20769,0,0,0,281,211,203,191,127,170,242,163,172,168,208,142,0,,,,
1,1786645202944,-358,938,10361,952949,-283441,6108,0,0,0,363,315,386,323,253,335,560,411,306,442,454,355,0,,,,
2,1786645202944,3383,5096,8336,-6477614,-891863,-532674,0,0,0,277,214,206,182,125,170,238,167,173,167,208,138,0,,,,
1,1786645202960,-349,899,10323,992045,-315206,13439,0,0,0,368,327,390,310,262,332,547,401,308,421,452,361,0,,,,
2,1786645202960,2014,3665,9801,-6729291,-353080,-978606,0,0,0,286,214,210,184,125,171,237,171,171,171,207,136,0,,,,
1,1786645202976,-483,780,10232,1055575,-328645,21991,0,0,0,369,340,393,314,263,330,537,376,312,406,426,370,0,,,,
2,1786645202976,1277,2857,11347,-6831916,-96516,-959058,0,0,0,276,206,204,178,120,172,249,172,178,166,199,133,0,,,,
1,1786645202992,-684,507,10054,1084896,-263893,35430,0,0,0,376,352,393,326,268,334,532,335,315,403,393,376,0,,,,
2,1786645202992,1914,2560,13017,-6816034,185703,-368962,0,0,0,277,208,209,184,123,179,246,167,178,170,202,136,0,,,,
1,1786645203008,-799,224,9844,1047023,-163711,54977,0,0,0,391,362,396,336,276,341,538,294,322,395,359,378,0,,,,
2,1786645203008,2646,2177,15046,-6894225,668286,612086,0,0,0,283,210,208,194,128,184,248,166,173,178,205,138,0,,,,
1,1786645203024,-837,-9,9686,952949,-62308,95294,0,0,0,407,372,402,344,284,348,538,265,329,381,334,387,0,,,,
2,1786645203024,2976,1464,16558,-7002959,993266,1439198,0,0,0,284,208,202,197,125,178,256,167,172,183,205,139,0,,,,
1,1786645203040,-947,-124,9877,891863,15882,167377,0,0,0,425,392,401,344,291,357,519,245,331,372,326,406,0,,,,
2,1786645203040,3498,655,18444,-7016398,1205847,2079385,0,0,0,281,213,204,192,124,174,248,166,169,175,203,133,0,,,,
1,1786645203056,-1153,-210,10279,896750,128281,255341,0,0,0,438,414,395,345,301,361,504,228,337,368,311,422,0,,,,
2,1786645203056,3699,-478,21182,-6985854,1435533,2230879,0,0,0,272,218,205,186,128,173,239,166,166,169,205,128,0,,,,
1,1786645203072,-1196,-335,10638,978606,295658,343306,0,0,0,442,422,391,368,327,368,506,217,345,372,295,443,0,,,,
2,1786645203072,2392,-3201,25293,-7024950,1590693,1837482,0,0,0,259,216,199,185,132,172,241,168,171,171,210,130,0,,,,
1,1786645203088,-1028,-507,10921,1136209,475253,428827,0,0,0,454,444,378,374,334,364,498,205,341,372,279,460,0,,,,
2,1786645203088,794,-8241,29088,-7187440,1392772,1375668,0,0,0,253,212,196,186,131,174,240,167,176,168,213,127,0,,,,
1,1786645203104,-847,-732,11189,1321912,568104,496022,0,0,0,470,450,359,390,361,365,495,190,326,362,260,472,0,,,,
2,1786645203104,-62,-16286,31366,-7237531,1149648,1093448,0,0,0,254,212,196,185,129,175,240,164,176,169,215,124,0,,,,
1,1786645203120,-497,-1000,11462,1556484,554665,554665,0,0,0,484,456,344,404,369,367,494,203,332,355,261,482,0,,,,
2,1786645203120,-555,-28657,31036,-6685309,879645,717155,0,0,0,257,213,199,189,125,177,245,165,172,172,214,131,0,,,,
1,1786645203136,272,-1115,11543,1803274,449596,541226,0,0,0,488,469,309,403,379,377,485,186,335,348,240,497,0,,,,
2,1786645203136,-512,-40444,26164,-5172806,334754,-18325,0,0,0,255,212,198,197,134,187,251,166,176,173,216,133,0,,,,
1,1786645203152,727,-1182,11988,2052507,334754,454483,0,0,0,523,486,315,406,399,377,444,183,332,329,243,509,0,,,,
2,1786645203152,-110,-47724,19176,-3429397,58643,-383623,0,0,0,249,208,192,200,132,186,250,165,172,203,206,132,0,,,,
1,1786645203168,244,-1325,13347,2368935,248011,364075,0,0,0,550,473,278,400,400,370,416,184,335,321,236,523,0,,,,
2,1786645203168,-1268,-51873,12620,-1194852,351858,25656,0,0,0,259,208,195,200,131,183,260,176,179,175,213,120,0,,,,
1,1786645203184,-435,-1459,14544,2915048,212581,383623,0,0,0,549,464,245,393,397,378,387,177,332,317,225,525,0,,,,
2,1786645203184,-3297,-50083,12763,824668,570548,996932,0,0,0,244,190,204,188,115,180,263,282,163,183,293,108,0,,,,
1,1786645203200,-339,-1545,14721,3499036,162490,442266,0,0,0,542,464,228,390,406,388,359,182,328,306,219,520,0,,,,
2,1786645203200,-2689,-32462,18200,2853962,348193,1550375,0,0,0,237,166,138,208,127,167,293,386,147,227,409,94,0,,,,
1,1786645203216,-43,-1670,14840,4144109,70860,477696,0,0,0,537,461,222,384,412,383,324,190,343,278,205,513,0,,,,
2,1786645203216,-440,7580,17903,3747047,-499687,1232726,0,0,0,254,189,129,226,146,185,296,474,156,252,521,116,0,,,,
1,1786645203232,-430,-1708,15908,4866152,18325,525344,0,0,0,518,454,226,383,415,385,287,188,353,244,184,481,0,,,,
2,1786645203232,-459,22330,12404,4520402,-1266934,425162,0,0,0,254,193,147,225,146,193,362,533,163,288,596,127,0,,,,
1,1786645203248,-1057,-2120,18032,5586973,30543,615752,0,0,0,487,442,237,377,410,377,267,181,344,222,169,430,0,,,,
2,1786645203248,-1407,2416,15802,5627290,-944397,-328645,0,0,0,263,195,234,222,145,237,384,562,207,326,639,146,0,,,,
1,1786645203264,-2928,-3402,22656,6522819,182037,764803,0,0,0,452,423,235,357,392,357,267,189,333,215,171,400,0,,,,
2,1786645203264,-157,-8628,25766,5007873,-108734,-466701,0,0,0,283,200,277,235,144,245,426,560,224,389,650,146,0,,,,
1,1786645203280,-6934,-4647,27427,7385360,186924,1060462,0,0,0,405,387,214,325,357,337,280,202,310,218,186,383,0,,,,
2,1786645203280,2450,-5340,25556,3143512,-169820,-439822,0,0,0,299,222,292,238,135,240,471,554,217,425,651,145,0,,,,
1,1786645203296,-8389,-3857,31978,8071973,-333532,1609019,0,0,0,352,315,201,267,276,283,304,197,283,225,204,351,0,,,,
2,1786645203296,1966,67,15223,1589471,-579100,-160046,0,0,0,301,234,299,238,137,242,482,559,211,432,649,150,0,,,,
1,1786645203312,-5943,-234,37042,8382292,-774577,2179567,0,0,0,312,228,238,225,172,256,340,211,287,248,236,315,0,,,,
2,1786645203312,67,1263,9236,992045,-395840,-7330,0,0,0,306,226,283,247,139,239,473,561,203,439,646,155,0,,,,
1,1786645203328,-7331,8389,31404,7935139,30543,2557081,0,0,0,321,258,246,244,201,268,368,207,308,289,234,311,0,,,,
2,1786645203328,172,205,9365,824668,9773,-28099,0,0,0,319,234,261,264,150,236,470,555,200,435,637,160,0,,,,
1,1786645203344,-10332,15419,20296,5705481,1119105,2531425,0,0,0,329,262,241,237,200,251,359,206,278,284,231,309,0,,,,
2,1786645203344,1387,-181,10921,560774,34208,-50090,0,0,0,317,252,278,277,173,253,476,551,212,414,616,168,0,,,,
1,1786645203360,-8676,15692,17339,1177748,941954,1238834,0,0,0,321,247,241,232,185,253,352,212,280,279,245,309,0,,,,
2,1786645203360,1124,679,10734,390953,-123394,-35430,0,0,0,310,219,313,259,133,274,487,530,219,420,591,185,0,,,,
1,1786645203376,-5326,12510,15663,-1859473,998153,-371406,0,0,0,320,245,247,226,176,257,341,216,290,264,261,314,0,,,,
2,1786645203376,631,1220,10232,437379,-98960,-42760,0,0,0,320,215,312,258,130,281,467,498,230,422,562,198,0,,,,
1,1786645203392,-4895,8820,11002,-2673146,1464854,-1826487,0,0,0,317,249,249,223,181,255,332,221,285,262,268,311,0,,,,
2,1786645203392,559,1139,10035,603534,20769,-64751,0,0,0,329,227,285,262,133,252,466,481,207,420,550,170,0,,,,
1,1786645203408,-6503,8403,6934,-2465452,866206,-2243097,0,0,0,311,253,250,220,188,258,330,227,288,257,277,314,0,,,,
2,1786645203408,670,1033,9987,745255,97738,-76969,0,0,0,308,212,260,253,134,241,468,465,235,399,487,182,0,,,,
1,1786645203424,-3795,8758,6728,-3141069,-318871,-2125811,0,0,0,308,260,248,218,196,256,330,229,289,260,281,315,0,,,,
2,1786645203424,804,1028,10059,835663,107512,-80634,0,0,0,326,232,288,259,132,243,492,420,219,384,457,172,0,,,,
1,1786645203440,-928,8178,7843,-4236961,-623082,-1888795,0,0,0,308,257,250,219,190,257,332,227,283,261,278,314,0,,,,
2,1786645203440,866,899,10083,918741,90408,-84299,0,0,0,324,233,280,246,121,242,472,390,233,337,424,169,0,,,,
1,1786645203456,-746,6192,8781,-5337740,-460592,-1298699,0,0,0,308,255,253,221,185,257,334,226,280,268,277,317,0,,,,
2,1786645203456,947,641,9992,967610,42760,-84299,0,0,0,314,265,272,254,145,240,501,329,241,316,383,179,0,,,,
1,1786645203472,-670,3905,9279,-6032905,-598647,-491135,0,0,0,309,255,253,221,183,256,339,224,280,273,274,314,0,,,,
2,1786645203472,1033,349,9791,952949,-47647,-87964,0,0,0,304,247,265,246,144,246,480,305,254,295,359,173,0,,,,
1,1786645203488,-86,2464,9987,-6240599,-835663,160046,0,0,0,310,253,255,224,180,257,346,222,279,275,269,308,0,,,,
2,1786645203488,1019,148,9619,894306,-135612,-103847,0,0,0,310,253,265,248,144,248,476,318,255,283,346,167,0,,,,
1,1786645203504,196,2115,11615,-6337115,-1043357,321315,0,0,0,311,254,256,228,182,260,353,223,280,286,266,307,0,,,,
2,1786645203504,928,-81,9538,797790,-195476,-139277,0,0,0,328,285,264,262,164,258,489,305,262,295,341,173,0,,,,
1,1786645203520,86,1828,13414,-6541144,-1246165,90408,0,0,0,310,252,252,230,182,258,358,222,277,293,262,305,0,,,,
2,1786645203520,899,-272,9571,713490,-224798,-179594,0,0,0,330,303,280,275,181,266,461,284,270,287,309,187,0,,,,
1,1786645203536,-392,1052,15056,-6767165,-1477072,-478918,0,0,0,308,252,249,225,180,254,354,221,275,281,268,303,0,,,,
2,1786645203536,971,-296,9825,692721,-263893,-228463,0,0,0,332,316,302,286,196,290,437,254,273,285,291,199,0,,,,
1,1786645203552,-674,52,16467,-6831916,-1661553,-1191187,0,0,0,307,255,246,226,184,252,357,223,276,281,267,293,0,,,,
2,1786645203552,1081,-268,10098,735481,-326202,-279776,0,0,0,336,326,313,318,215,320,458,229,268,296,287,208,0,,,,
1,1786645203568,-1119,-751,18119,-6841690,-1651779,-1805717,0,0,0,307,257,242,231,182,252,365,220,277,292,267,292,0,,,,
2,1786645203568,1038,-397,10145,808785,-383623,-346971,0,0,0,334,334,332,327,235,341,459,213,289,291,269,225,0,,,,
1,1786645203584,-2335,-1579,20612,-6851464,-1550375,-2094046,0,0,0,305,257,242,234,186,257,360,221,280,284,268,289,0,,,,
2,1786645203584,961,-526,10184,883311,-403171,-420275,0,0,0,337,349,339,307,265,355,426,200,314,277,252,247,0,,,,
1,1786645203600,-2885,-4067,23981,-6873455,-1672549,-1722639,0,0,0,304,258,236,240,193,259,361,219,283,286,262,285,0,,,,
2,1786645203600,1091,-617,10557,1001818,-389732,-497244,0,0,0,350,378,306,331,305,374,436,198,296,273,250,260,0,,,,
1,1786645203616,-1555,-8997,26790,-6875899,-1849699,-1177748,0,0,0,308,256,231,250,191,260,376,211,284,309,248,283,0,,,,
2,1786645203616,1067,-837,10926,1202182,-382401,-581543,0,0,0,369,410,303,339,313,405,441,188,307,257,241,285,0,,,,
1,1786645203632,1990,-17066,28250,-6726848,-1944994,-748920,0,0,0,301,274,226,248,219,261,365,222,282,314,242,274,0,,,,
2,1786645203632,507,-1048,11155,1455080,-345749,-637743,0,0,0,385,400,282,330,329,407,397,174,327,254,241,313,0,,,,
1,1786645203648,6034,-27805,27518,-6081774,-1466076,-403171,0,0,0,302,268,228,256,220,263,366,221,278,296,254,278,0,,,,
2,1786645203648,-14,-1062,11954,1723861,-251676,-608421,0,0,0,402,412,245,347,388,407,360,178,311,246,238,317,0,,,,
1,1786645203664,6111,-38037,23388,-4900360,-283441,195476,0,0,0,308,265,233,264,212,267,375,219,280,304,255,284,0,,,,
2,1786645203664,416,-1057,13649,2195449,-160046,-560774,0,0,0,419,399,251,382,362,460,364,156,348,252,217,361,0,,,,
1,1786645203680,2909,-44283,16228,-3379306,425162,825889,0,0,0,307,253,230,264,200,267,377,216,284,304,255,283,0,,,,
2,1786645203680,871,-1177,15084,2901609,-134390,-569326,0,0,0,458,407,215,373,378,441,301,165,382,248,218,359,0,,,,
1,1786645203696,5015,-47992,11275,-1513724,65973,645073,0,0,0,301,247,221,252,189,259,385,258,276,309,311,274,0,,,,
2,1786645203696,890,-1129,15587,3635869,-149051,-612086,0,0,0,459,422,213,364,374,417,261,155,314,240,222,369,0,,,,
1,1786645203712,6657,-47547,10409,426383,0,-351858,0,0,0,297,234,206,240,174,247,420,359,256,335,408,252,0,,,,
2,1786645203712,1387,-1100,16219,4541172,-147829,-695164,0,0,0,434,430,253,356,364,433,215,155,300,214,213,334,0,,,,
1,1786645203728,2914,-28877,15467,2449569,668286,-996932,0,0,0,297,208,185,236,160,239,465,467,242,383,484,225,0,,,,
2,1786645203728,2263,-1273,17736,5522221,-65973,-877202,0,0,0,388,423,227,367,363,420,195,137,292,228,193,342,0,,,,
1,1786645203744,-339,650,16922,3596774,1909564,-764803,0,0,0,289,199,172,237,155,243,487,527,247,427,515,211,0,,,,
2,1786645203744,3196,-1450,21828,6747617,94073,-1154535,0,0,0,346,355,229,347,332,407,190,140,286,189,168,287,0,,,,
1,1786645203760,-1048,16831,15707,3957185,3186273,90408,0,0,0,284,194,181,249,152,248,519,562,254,443,540,197,0,,,,
2,1786645203760,4249,-2459,28231,7882605,252898,-1395216,0,0,0,320,316,211,296,301,350,177,143,262,170,171,239,0,,,,
1,1786645203776,253,2163,19382,4274834,3116634,475253,0,0,0,295,198,220,267,160,253,558,579,271,503,565,198,0,,,,
2,1786645203776,6398,-3436,33543,8560665,819781,-1550375,0,0,0,263,245,174,224,205,239,194,137,199,165,184,170,0,,,,
1,1786645203792,1325,-7212,23058,3567452,2119702,73303,0,0,0,310,237,308,271,169,280,583,569,291,523,576,226,0,,,,
2,1786645203792,8312,186,37894,8630304,2525316,-1933999,0,0,0,239,226,170,191,152,184,226,148,174,169,200,143,0,,,,
1,1786645203808,2617,-3699,19880,2294409,1363451,-213802,0,0,0,322,258,351,273,196,302,590,574,302,537,589,282,0,,,,
2,1786645203808,7872,9303,34721,7789753,3148399,-2515543,0,0,0,247,242,179,189,152,180,239,158,175,174,210,146,0,,,,
1,1786645203824,3316,794,13874,1247386,676838,-116064,0,0,0,350,279,356,283,227,296,594,579,302,546,607,301,0,,,,
2,1786645203824,4891,21440,24623,5261993,1034805,-2461786,0,0,0,254,242,179,186,151,176,241,160,171,188,207,144,0,,,,
1,1786645203840,1804,679,11562,875980,-30543,68416,0,0,0,347,320,376,284,236,306,595,578,301,543,597,304,0,,,,
2,1786645203840,4288,24311,19928,619417,-2549751,-96516,0,0,0,257,233,181,181,141,171,244,170,170,193,206,144,0,,,,
1,1786645203856,406,4,11222,726929,-529009,65973,0,0,0,343,322,380,288,251,308,603,550,299,529,586,320,0,,,,
2,1786645203856,7949,18411,14481,-2235766,-4070805,1897347,0,0,0,256,235,185,175,139,169,243,183,169,170,220,148,0,,,,
1,1786645203872,-23,306,11117,656069,-703716,-26878,0,0,0,373,319,379,286,239,304,605,531,299,512,551,320,0,,,,
2,1786645203872,10045,13572,8250,-2719572,-2767219,1902234,0,0,0,251,236,178,169,143,164,246,191,176,168,226,142,0,,,,
1,1786645203888,-33,1009,10720,696386,-696386,-52534,0,0,0,385,327,392,285,248,307,598,513,299,491,529,325,0,,,,
2,1786645203888,6901,12653,5900,-3127630,-1128878,1167974,0,0,0,246,237,180,164,141,166,260,197,205,163,217,142,0,,,,
1,1786645203904,-220,1095,10476,836885,-643851,-25656,0,0,0,382,336,378,289,261,312,596,476,297,465,507,338,0,,,,
2,1786645203904,2718,11878,6743,-4133114,-849102,663399,0,0,0,248,228,175,168,135,159,258,187,182,161,203,138,0,,,,
1,1786645203920,-425,794,10380,938289,-558330,1221,0,0,0,372,350,356,292,271,311,586,438,296,449,480,354,0,,,,
2,1786645203920,3082,8475,6791,-5199684,-1222952,318871,0,0,0,240,219,160,167,143,158,251,183,179,155,196,131,0,,,,
1,1786645203936,-392,588,10270,960280,-453262,17104,0,0,0,370,350,351,299,270,310,573,406,297,446,453,365,0,,,,
2,1786645203936,3790,5637,6877,-5782450,-926071,-172263,0,0,0,240,225,173,164,140,158,258,181,182,156,192,126,0,,,,
1,1786645203952,-220,516,10155,965167,-395840,23212,0,0,0,381,340,349,313,278,312,561,376,299,440,428,373,0,,,,
2,1786645203952,2794,3828,7958,-6037792,-315206,-624304,0,0,0,246,225,174,177,144,162,265,178,179,166,200,130,0,,,,
1,1786645203968,-181,430,10131,1001818,-398284,23212,0,0,0,395,348,346,324,291,321,554,353,305,426,400,382,0,,,,
2,1786645203968,2115,3163,9432,-6078109,-34208,-565661,0,0,0,244,223,170,179,149,163,265,182,173,166,200,124,0,,,,
1,1786645203984,-335,277,10122,1042136,-395840,23212,0,0,0,404,367,340,331,286,329,556,332,313,406,375,394,0,,,,
2,1786645203984,2445,3120,11198,-6114761,270002,-130725,0,0,0,243,223,194,175,142,174,265,181,185,170,203,140,0,,,,
1,1786645204000,-579,76,10016,1042136,-346971,41538,0,0,0,418,374,330,331,290,331,543,310,321,381,357,407,0,,,,
2,1786645204000,3149,3053,13395,-6282138,701273,645073,0,0,0,241,222,198,176,144,179,262,177,185,181,209,140,0,,,,
1,1786645204016,-765,-153,9830,976162,-267558,91629,0,0,0,425,389,338,336,293,346,533,271,320,376,331,431,0,,,,
2,1786645204016,3479,2507,15386,-6494719,1060462,1381777,0,0,0,240,219,196,174,142,178,243,166,177,180,211,138,0,,,,
1,1786645204032,-866,-469,9743,891863,-179594,156381,0,0,0,433,411,338,351,323,360,530,248,333,371,308,439,0,,,,
2,1786645204032,3613,1718,17492,-6703635,1264491,1964542,0,0,0,240,217,195,170,136,177,248,166,183,177,209,136,0,,,,
1,1786645204048,-904,-693,9906,833220,-100181,208915,0,0,0,445,405,324,364,331,357,525,223,334,366,296,455,0,,,,
2,1786645204048,4221,339,20473,-6877120,1414763,2086715,0,0,0,240,218,197,173,137,179,261,173,189,178,206,139,0,,,,
1,1786645204064,-1081,-732,10232,835663,-36651,268780,0,0,0,454,436,317,374,344,385,527,215,359,360,283,470,0,,,,
2,1786645204064,3819,-2268,24675,-7050606,1594358,1589471,0,0,0,236,225,195,177,141,179,262,177,190,171,201,138,0,,,,
1,1786645204080,-1148,-866,10557,893084,-15882,354301,0,0,0,466,468,310,369,370,374,517,214,356,356,275,482,0,,,,
2,1786645204080,2177,-6575,29423,-7257079,1474628,663399,0,0,0,236,225,194,194,157,180,261,176,189,163,198,133,0,,,,
1,1786645204096,-885,-1014,10959,1039692,-21991,444709,0,0,0,479,479,282,393,390,367,521,198,337,356,253,501,0,,,,
2,1786645204096,1818,-13854,31997,-7325495,1298699,101403,0,0,0,245,225,194,203,162,180,267,172,189,168,203,137,0,,,,
1,1786645204112,-507,-1134,11265,1266934,-36651,482583,0,0,0,500,487,268,415,406,380,508,187,339,345,238,504,0,,,,
2,1786645204112,1359,-24532,32175,-7032280,1462411,-217468,0,0,0,254,235,183,189,141,171,282,169,192,186,209,137,0,,,,
1,1786645204128,-191,-1301,11447,1495398,-103847,482583,0,0,0,505,490,255,413,407,393,491,179,357,344,230,518,0,,,,
2,1786645204128,-1952,-37975,29250,-5952270,1692096,-554665,0,0,0,259,237,171,191,132,159,297,172,187,204,217,139,0,,,,
1,1786645204144,105,-1392,11868,1743409,-237015,449596,0,0,0,519,493,232,409,408,390,459,180,367,338,221,533,0,,,,
2,1786645204144,-6503,-47896,21928,-3914424,1276708,-496022,0,0,0,253,230,178,181,127,160,285,170,175,201,221,155,0,,,,
1,1786645204160,67,-1359,12950,2024407,-320093,390953,0,0,0,528,501,225,405,422,386,420,180,374,329,227,538,0,,,,
2,1786645204160,-7714,-54677,14524,-1574810,653625,163711,0,0,0,245,220,184,172,117,160,283,191,176,192,240,160,0,,,,
1,1786645204176,-708,-1383,14434,2575407,-265115,346971,0,0,0,521,510,216,407,431,389,383,173,363,323,230,534,0,,,,
2,1786645204176,-5618,-55994,11768,526565,227241,1097113,0,0,0,238,196,181,165,102,151,303,325,165,189,363,150,0,,,,
1,1786645204192,-1234,-1598,14955,3165503,-160046,382401,0,0,0,520,506,198,411,428,393,350,176,340,302,211,530,0,,,,
2,1786645204192,-3579,-32026,18420,2773328,-219911,1775174,0,0,0,244,168,133,187,114,133,328,425,128,253,459,120,0,,,,
1,1786645204208,-1129,-1703,15314,3889989,-78190,458148,0,0,0,524,497,201,398,433,393,323,191,350,265,193,525,0,,,,
2,1786645204208,-1095,10859,20042,4065919,-1529606,1684766,0,0,0,253,168,133,204,115,147,361,488,129,269,519,103,0,,,,
1,1786645204224,-1244,-1722,16022,4597371,-21991,530231,0,0,0,502,507,200,404,440,396,294,191,365,243,182,482,0,,,,
2,1786645204224,-2340,15477,15314,4469090,-2370157,511905,0,0,0,288,179,155,239,116,155,432,534,142,389,590,100,0,,,,
1,1786645204240,-1938,-2282,17841,5364618,18325,629191,0,0,0,465,495,201,402,435,399,276,193,368,231,178,435,0,,,,
2,1786645204240,-3129,-1895,18042,4852713,-1508837,-349414,0,0,0,275,173,190,204,98,163,411,562,167,376,610,124,0,,,,
1,1786645204256,-4398,-3531,22206,6328563,101403,830776,0,0,0,423,453,214,377,430,383,267,197,344,221,180,398,0,,,,
2,1786645204256,-1249,-9222,23373,4244291,-221133,-438601,0,0,0,281,171,238,206,100,201,434,566,189,416,606,134,0,,,,
1,1786645204272,-7284,-4015,28303,7327939,240680,1175304,0,0,0,368,410,212,322,370,338,286,186,313,215,172,372,0,,,,
2,1786645204272,1024,-2316,19985,2858849,-67195,-270002,0,0,0,308,191,243,248,118,202,453,542,182,428,607,130,0,,,,
1,1786645204288,-8585,-3498,32304,8016995,-155159,1649336,0,0,0,312,354,193,276,309,292,305,186,284,219,188,348,0,,,,
2,1786645204288,1024,1598,12979,1660331,-161268,-108734,0,0,0,299,204,250,253,128,202,467,551,175,446,611,145,0,,,,
1,1786645204304,-8609,-339,35750,8532565,-946841,2267531,0,0,0,303,259,229,235,192,254,352,201,285,269,225,307,0,,,,
2,1786645204304,358,430,10299,1149648,41538,-86742,0,0,0,305,210,253,246,131,216,479,556,185,456,607,158,0,,,,
1,1786645204320,-8126,8336,33151,8370075,-808785,2978578,0,0,0,308,246,236,242,197,261,362,195,290,280,228,306,0,,,,
2,1786645204320,799,-512,10236,762359,216246,-73303,0,0,0,323,218,254,254,133,217,494,555,181,461,595,154,0,,,,
1,1786645204336,-8418,15649,21756,6609561,921184,3246137,0,0,0,311,249,233,243,195,256,358,194,284,278,222,310,0,,,,
2,1786645204336,1354,-76,10820,448375,162490,-42760,0,0,0,325,224,254,263,136,212,509,548,178,465,578,152,0,,,,
1,1786645204352,-8671,16300,16716,2152689,1345125,2191784,0,0,0,307,250,235,235,194,253,345,200,279,260,231,311,0,,,,
2,1786645204352,1129,842,10552,318871,51312,-34208,0,0,0,318,229,254,266,137,220,511,536,184,456,558,165,0,,,,
1,1786645204368,-5570,13342,15759,-1711644,923628,579100,0,0,0,304,252,247,223,190,278,332,203,297,248,237,319,0,,,,
2,1786645204368,827,1239,10232,427605,43982,-63529,0,0,0,321,248,267,266,142,232,494,530,186,433,545,173,0,,,,
1,1786645204384,-3393,9595,12112,-2795319,1331686,-861319,0,0,0,302,265,250,214,203,285,325,212,308,251,249,327,0,,,,
2,1786645204384,746,1062,10098,602313,87964,-87964,0,0,0,328,269,283,261,150,238,473,523,190,415,533,182,0,,,,
1,1786645204400,-3919,8442,8001,-2689028,1573588,-1635897,0,0,0,300,268,243,214,208,264,323,217,294,257,257,324,0,,,,
2,1786645204400,784,866,10002,685390,119729,-90408,0,0,0,325,270,271,257,150,239,458,503,193,398,502,195,0,,,,
1,1786645204416,-3594,8714,6226,-3003013,1012814,-1995085,0,0,0,300,261,238,219,199,250,328,213,279,265,253,317,0,,,,
2,1786645204416,880,842,9964,741590,123394,-97738,0,0,0,323,267,260,271,163,240,456,472,195,376,474,176,0,,,,
1,1786645204432,-1880,7853,6724,-3951076,684169,-2064724,0,0,0,302,264,238,224,202,252,335,215,282,277,254,319,0,,,,
2,1786645204432,966,832,9992,810007,96516,-117286,0,0,0,320,267,279,258,169,260,453,432,206,359,448,191,0,,,,
1,1786645204448,-1866,6221,7092,-4713436,646295,-1770287,0,0,0,304,263,240,227,201,255,342,215,285,283,256,319,0,,,,
2,1786645204448,990,622,9954,879645,45204,-129503,0,0,0,312,267,292,255,182,283,431,372,211,336,413,199,0,,,,
1,1786645204464,-2684,4618,7422,-5183802,343306,-1040914,0,0,0,307,263,239,232,201,256,351,213,284,300,252,315,0,,,,
2,1786645204464,995,406,9839,908967,-4886,-129503,0,0,0,318,263,284,277,193,297,443,329,275,326,419,214,0,,,,
1,1786645204480,-2148,3823,8576,-5655390,-144164,-334754,0,0,0,308,266,243,233,203,258,350,216,283,299,254,318,0,,,,
2,1786645204480,995,215,9739,899193,-47647,-129503,0,0,0,338,278,285,268,190,289,427,292,242,357,384,207,0,,,,
1,1786645204496,-1775,3206,10040,-6155078,-423940,4886,0,0,0,303,268,244,230,205,256,345,218,280,286,257,313,0,,,,
2,1786645204496,1000,-19,9686,863763,-73303,-135612,0,0,0,344,288,284,302,204,309,433,265,244,343,361,232,0,,,,
1,1786645204512,-2096,2325,11682,-6587570,-642630,-56199,0,0,0,302,265,242,233,205,256,347,216,282,292,257,312,0,,,,
2,1786645204512,1005,-253,9629,803898,-83077,-150272,0,0,0,345,291,280,321,263,346,427,241,258,330,328,249,0,,,,
1,1786645204528,-2727,1110,12988,-6757391,-930958,-398284,0,0,0,308,265,239,243,200,254,375,211,279,305,255,307,0,,,,
2,1786645204528,1048,-354,9652,747699,-83077,-171042,0,0,0,338,303,283,324,288,375,418,229,272,290,315,263,0,,,,
1,1786645204544,-3503,-105,14386,-6770830,-1306029,-866206,0,0,0,306,261,236,239,195,254,366,210,279,301,250,303,0,,,,
2,1786645204544,1162,-440,9777,726929,-90408,-202807,0,0,0,320,320,275,324,350,380,420,222,271,272,293,252,0,,,,
1,1786645204560,-4292,-665,16281,-6704856,-1729970,-1385442,0,0,0,305,260,233,226,183,242,329,202,266,298,245,290,0,,,,
2,1786645204560,1373,-521,10002,762359,-112399,-262672,0,0,0,334,317,266,328,307,373,422,214,297,273,276,255,0,,,,
1,1786645204576,-5211,-1330,19181,-6664539,-2163684,-1831373,0,0,0,301,256,231,231,185,247,354,200,269,298,238,285,0,,,,
2,1786645204576,1445,-583,10342,884532,-171042,-364075,0,0,0,345,321,263,340,293,369,434,192,298,283,264,290,0,,,,
1,1786645204592,-6240,-3283,23354,-6668204,-2580294,-2019520,0,0,0,298,255,234,230,187,267,377,195,291,297,226,290,0,,,,
2,1786645204592,1450,-655,10715,1066570,-239459,-472809,0,0,0,368,339,285,356,315,387,431,173,314,277,243,320,0,,,,
1,1786645204608,-6255,-8662,27461,-6819699,-2791654,-1749518,0,0,0,301,259,242,231,188,285,382,189,307,297,215,299,0,,,,
2,1786645204608,1627,-770,10926,1270599,-262672,-575435,0,0,0,399,367,288,364,327,401,405,167,324,265,221,322,0,,,,
1,1786645204624,-4379,-16788,28978,-6923546,-2900388,-1264491,0,0,0,304,264,248,236,193,290,390,187,311,296,209,300,0,,,,
2,1786645204624,1416,-1091,11098,1496619,-205250,-695164,0,0,0,414,387,251,374,367,404,370,169,317,257,221,331,0,,,,
1,1786645204640,425,-27580,28408,-6590014,-3196046,-642630,0,0,0,305,260,244,244,189,285,411,187,307,300,213,293,0,,,,
2,1786645204640,670,-1249,12017,1781283,-131946,-733038,0,0,0,418,393,227,392,416,411,339,176,329,245,229,358,0,,,,
1,1786645204656,8236,-38205,26307,-5525886,-2819753,-3665,0,0,0,305,251,236,257,178,278,423,184,299,305,226,291,0,,,,
2,1786645204656,717,-1148,13673,2232101,-112399,-671951,0,0,0,420,414,232,395,412,419,326,179,332,237,222,377,0,,,,
1,1786645204672,9533,-45632,19526,-3766595,-287106,417831,0,0,0,296,244,223,249,179,269,402,194,290,292,244,284,0,,,,
2,1786645204672,1440,-1115,15204,3039665,-215024,-667064,0,0,0,429,433,231,399,406,433,302,168,332,251,235,395,0,,,,
1,1786645204688,4991,-51074,11926,-1788613,1606575,801455,0,0,0,293,222,198,247,180,250,421,248,272,310,322,273,0,,,,
2,1786645204688,1608,-1072,15970,3809355,-329867,-725707,0,0,0,433,410,235,395,410,416,274,149,317,243,230,397,0,,,,
1,1786645204704,1703,-51414,9959,81855,1642005,689055,0,0,0,290,203,186,248,171,239,490,395,250,373,433,240,0,,,,
2,1786645204704,2167,-1378,16860,4689001,-276111,-857654,0,0,0,433,443,245,390,430,436,209,154,273,193,214,346,0,,,,
1,1786645204720,-574,-28241,15290,2557081,2107485,-278554,0,0,0,277,192,179,243,153,242,513,498,248,371,483,207,0,,,,
2,1786645204720,2694,-1469,18846,5778785,-51312,-1080009,0,0,0,391,392,250,404,381,438,220,134,289,196,183,328,0,,,,
1,1786645204736,-1344,4891,17449,3794694,3247359,-1018923,0,0,0,277,188,179,231,141,236,516,554,253,403,530,207,0,,,,
2,1786645204736,3804,-1698,22483,6989520,221133,-1329242,0,0,0,343,371,229,353,349,415,192,129,273,174,166,280,0,,,,
1,1786645204752,2354,14084,19181,3924198,3832568,-842994,0,0,0,290,200,240,248,146,268,546,568,277,491,547,219,0,,,,
2,1786645204752,5757,-2924,29767,8184372,587652,-1580919,0,0,0,307,285,181,324,302,305,173,127,221,159,148,200,0,,,,
1,1786645204768,4259,-339,22172,3640756,3010343,-3665,0,0,0,296,226,343,256,157,280,576,567,293,507,573,272,0,,,,
2,1786645204768,7843,-3417,37439,8867319,1481959,-1836260,0,0,0,264,240,172,233,203,226,224,160,198,159,209,156,0,,,,
1,1786645204784,2301,-6872,21579,2603507,1764178,272445,0,0,0,319,252,361,265,177,279,597,556,290,538,590,310,0,,,,
2,1786645204784,7791,765,40636,8719490,2844188,-2278527,0,0,0,256,229,192,198,149,195,249,168,193,165,200,150,0,,,,
1,1786645204800,1617,-1684,16310,1440420,985936,-25656,0,0,0,338,274,389,280,209,293,607,549,298,559,595,314,0,,,,
2,1786645204800,6484,11457,34328,7809301,2807536,-2717128,0,0,0,254,216,185,193,137,182,252,170,183,166,198,143,0,,,,
1,1786645204816,1775,1340,12155,850324,354301,-90408,0,0,0,344,302,406,291,232,305,605,549,290,568,588,316,0,,,,
2,1786645204816,3852,23632,23172,5250997,416610,-2087937,0,0,0,268,207,183,216,132,181,265,163,179,179,196,138,0,,,,
1,1786645204832,1182,890,10983,697608,-249233,-1221,0,0,0,352,305,416,305,237,314,608,535,284,558,571,321,0,,,,
2,1786645204832,3536,25470,18999,670730,-2791654,459370,0,0,0,263,200,176,205,132,176,252,159,169,171,195,132,0,,,,
1,1786645204848,229,459,11026,642630,-575435,-4886,0,0,0,361,319,421,308,243,320,609,519,295,542,547,330,0,,,,
2,1786645204848,7772,18233,13314,-2663372,-4535063,2383596,0,0,0,262,202,173,196,133,171,247,160,166,174,197,131,0,,,,
1,1786645204864,-196,942,10839,659734,-654847,-37873,0,0,0,367,342,419,304,250,325,599,500,306,521,523,339,0,,,,
2,1786645204864,10610,12955,6709,-3094643,-3308446,1794722,0,0,0,272,209,174,200,132,168,255,167,164,187,202,133,0,,,,
1,1786645204880,-272,1493,10638,822224,-594982,-42760,0,0,0,373,345,409,312,254,326,590,473,309,493,506,349,0,,,,
2,1786645204880,5618,13572,5541,-3549127,-1645670,406836,0,0,0,279,213,175,206,132,168,267,167,158,195,206,131,0,,,,
1,1786645204896,-291,1139,10528,976162,-538783,-12217,0,0,0,375,352,392,316,258,323,582,443,310,469,489,361,0,,,,
2,1786645204896,1990,12490,6417,-4627915,-1549154,-270002,0,0,0,279,216,177,206,133,167,268,165,158,191,209,130,0,,,,
1,1786645204912,-378,789,10399,1040914,-485026,7330,0,0,0,374,359,394,312,259,334,571,404,307,454,461,365,0,,,,
2,1786645204912,3019,9002,6513,-5615073,-1881464,-587652,0,0,0,276,222,181,199,134,166,253,175,161,178,219,129,0,,,,
1,1786645204928,-430,650,10289,1037249,-412944,18325,0,0,0,378,363,385,322,271,334,569,382,318,448,442,372,0,,,,
2,1786645204928,3866,5786,6886,-6041457,-1121548,-1050688,0,0,0,278,231,182,198,135,165,249,183,157,177,240,127,0,,,,
1,1786645204944,-373,574,10203,1048244,-346971,25656,0,0,0,383,354,369,329,281,344,552,354,306,413,427,381,0,,,,
2,1786645204944,2828,4206,8293,-6207612,-439822,-1242499,0,0,0,279,221,179,202,130,167,251,173,160,180,231,127,0,,,,
1,1786645204960,-402,397,10122,1071457,-302989,34208,0,0,0,391,365,363,332,273,338,537,338,320,429,402,403,0,,,,
2,1786645204960,2445,3455,10217,-6339559,-80634,-872315,0,0,0,284,220,180,204,129,167,250,161,160,181,213,119,0,,,,
1,1786645204976,-545,124,10007,1067792,-243124,56199,0,0,0,407,365,342,344,283,353,531,301,322,389,374,403,0,,,,
2,1786645204976,3316,3038,12069,-6484945,251676,-197920,0,0,0,284,218,176,199,125,159,255,166,174,177,216,118,0,,,,
1,1786645204992,-603,-43,9882,1005484,-166155,87964,0,0,0,408,383,345,339,293,357,536,277,338,380,336,424,0,,,,
2,1786645204992,4532,2526,14089,-6699969,730594,608421,0,0,0,270,222,184,193,130,166,251,166,154,179,216,124,0,,,,
1,1786645205008,-660,-138,9844,946841,-108734,125838,0,0,0,420,384,347,344,290,354,450,252,333,371,287,444,0,,,,
2,1786645205008,5044,1737,15989,-6935763,1176526,1310916,0,0,0,275,218,188,196,125,172,256,159,168,177,215,127,0,,,,
1,1786645205024,-808,-224,9964,913854,-72082,180816,0,0,0,444,393,334,374,309,368,499,217,332,361,279,454,0,,,,
2,1786645205024,5551,923,18056,-7095810,1519832,1894903,0,0,0,268,218,182,189,131,165,249,161,163,164,208,118,0,,,,
1,1786645205040,-971,-402,10236,924849,-65973,252898,0,0,0,453,397,317,383,322,368,517,208,336,358,257,473,0,,,,
2,1786645205040,6250,-224,20909,-7147123,1869247,2144136,0,0,0,269,232,182,197,140,167,248,180,159,164,237,117,0,,,,
1,1786645205056,-880,-698,10772,1021366,-84299,346971,0,0,0,460,406,306,393,327,366,508,188,332,350,236,495,0,,,,
2,1786645205056,5273,-3287,26130,-7241196,2144136,1775174,0,0,0,264,229,195,199,149,197,246,189,204,166,250,138,0,,,,
1,1786645205072,-665,-894,11265,1207069,-98960,404392,0,0,0,485,419,283,404,345,379,506,174,332,347,223,519,0,,,,
2,1786645205072,3541,-8289,31141,-7434229,1866804,1062905,0,0,0,259,219,181,198,144,183,243,181,179,167,243,125,0,,,,
1,1786645205088,-617,-961,11533,1448972,-78190,420275,0,0,0,509,435,262,411,361,390,507,174,336,349,212,535,0,,,,
2,1786645205088,2885,-16865,33060,-7392691,1406211,337197,0,0,0,257,218,174,204,148,180,247,167,162,171,223,122,0,,,,
1,1786645205104,-603,-1086,11830,1712866,-62308,439822,0,0,0,514,443,244,414,376,390,493,177,338,344,203,537,0,,,,
2,1786645205104,2029,-27997,32098,-6809925,1328021,-248011,0,0,0,254,216,170,206,149,186,250,159,165,177,215,129,0,,,,
1,1786645205120,-416,-1273,11935,1986533,-67195,463035,0,0,0,516,442,223,418,395,395,470,174,339,338,197,539,0,,,,
2,1786645205120,-2646,-40330,28116,-5326744,1660331,-670730,0,0,0,256,215,171,203,146,184,251,160,173,177,220,130,0,,,,
1,1786645205136,-4,-1349,12189,2266310,-62308,437379,0,0,0,522,444,218,423,392,402,453,168,337,342,192,556,0,,,,
2,1786645205136,-8710,-48882,21368,-3086091,1314581,-345749,0,0,0,254,207,163,201,140,178,261,178,178,186,252,121,0,,,,
1,1786645205152,-100,-1402,13275,2603507,-53756,377514,0,0,0,513,452,214,412,386,405,425,165,324,337,191,559,0,,,,
2,1786645205152,-7848,-54357,15663,-1106887,463035,370184,0,0,0,246,193,155,202,135,173,282,263,169,205,335,111,0,,,,
1,1786645205168,-880,-1631,14606,3077539,-50090,360410,0,0,0,531,455,219,406,386,409,394,164,329,307,192,560,0,,,,
2,1786645205168,-5489,-52203,16348,1033583,-323758,1172861,0,0,0,249,176,166,208,123,181,298,365,161,233,435,119,0,,,,
1,1786645205184,-1100,-1765,15372,3789807,-29321,438601,0,0,0,534,465,215,392,403,412,357,182,327,275,191,555,0,,,,
2,1786645205184,-5738,-19684,19014,3428175,-1065348,1988977,0,0,0,263,155,171,213,105,192,307,417,164,270,510,133,0,,,,
1,1786645205200,-1043,-1737,15998,4494746,2443,521678,0,0,0,513,449,214,411,411,414,319,178,367,254,173,535,0,,,,
2,1786645205200,-6417,10122,18726,4498411,-1530828,1788613,0,0,0,275,164,172,220,114,190,329,500,158,287,591,124,0,,,,
1,1786645205216,-1296,-2306,17946,5331631,9773,608421,0,0,0,483,438,207,400,411,426,277,175,358,228,166,460,0,,,,
2,1786645205216,-5675,9394,19014,4707327,-1435533,282219,0,0,0,283,196,190,225,143,195,358,563,162,312,640,122,0,,,,
1,1786645205232,-2263,-2756,22191,6234490,1221,692721,0,0,0,441,423,218,375,407,399,282,188,345,220,165,426,0,,,,
2,1786645205232,-1210,-3010,20937,4503298,-372627,-690277,0,0,0,282,239,200,229,181,201,414,575,201,361,647,124,0,,,,
1,1786645205248,-4556,-2957,28657,7172779,51312,818559,0,0,0,401,384,211,349,381,342,289,208,343,221,173,380,0,,,,
2,1786645205248,1655,-4254,19640,3715282,625526,-610865,0,0,0,282,215,211,257,172,206,428,564,174,438,653,131,0,,,,
1,1786645205264,-7341,-2211,33548,8035321,46425,1102000,0,0,0,341,317,201,293,285,296,322,197,312,233,174,341,0,,,,
2,1786645205264,1713,-167,15242,2632829,822224,-331088,0,0,0,290,236,230,223,144,208,446,570,185,430,649,141,0,,,,
1,1786645205280,-8193,478,36683,8798902,-434936,1666440,0,0,0,307,257,219,251,209,276,339,198,292,245,212,312,0,,,,
2,1786645205280,1555,363,11643,1587027,480140,-301767,0,0,0,312,250,246,231,142,208,422,566,184,412,636,142,0,,,,
1,1786645205296,-9380,6642,34232,9045692,-976162,2322509,0,0,0,302,239,231,238,190,268,342,200,286,253,228,301,0,,,,
2,1786645205296,1880,-239,10586,944397,229685,-260228,0,0,0,310,249,265,222,144,209,448,584,176,397,646,142,0,,,,
1,1786645205312,-9073,14831,22301,6927211,-922406,2864957,0,0,0,310,241,228,239,191,264,347,197,284,260,220,303,0,,,,
2,1786645205312,2010,-181,10528,588874,73303,-164933,0,0,0,316,260,264,224,145,216,462,579,196,399,633,160,0,,,,
1,1786645205328,-5699,17453,17693,2345722,-350636,2410474,0,0,0,319,240,231,237,188,258,352,197,286,268,225,306,0,,,,
2,1786645205328,1550,660,10457,467922,-18325,-109955,0,0,0,312,259,254,234,156,226,467,564,197,397,602,166,0,,,,
1,1786645205344,-2239,13486,16970,-2232101,902858,900415,0,0,0,322,246,239,230,190,254,350,202,289,278,236,309,0,,,,
2,1786645205344,1148,1139,10342,513126,-30543,-119729,0,0,0,315,271,267,237,162,230,468,555,191,396,578,168,0,,,,
1,1786645205360,-3412,8159,12514,-3457497,2013411,-459370,0,0,0,319,250,241,230,193,257,347,208,290,282,242,310,0,,,,
2,1786645205360,995,1062,10122,647517,42760,-146607,0,0,0,315,276,279,237,164,254,469,521,200,388,546,201,0,,,,
1,1786645205376,-5374,7791,7508,-2714685,1271821,-1018923,0,0,0,318,251,237,231,195,253,348,213,284,285,248,308,0,,,,
2,1786645205376,1033,871,9964,752585,128281,-155159,0,0,0,311,274,290,243,175,268,466,484,207,387,506,211,0,,,,
1,1786645205392,-2971,9246,6374,-3086091,84299,-1480737,0,0,0,316,253,235,229,197,256,348,213,282,280,248,307,0,,,,
2,1786645205392,1186,818,9959,803898,160046,-160046,0,0,0,314,286,290,249,186,263,456,450,212,383,474,211,0,,,,
1,1786645205408,-765,8461,7422,-4409225,318871,-1930334,0,0,0,318,257,239,229,195,256,349,214,284,281,252,305,0,,,,
2,1786645205408,1277,737,10021,855211,136833,-175929,0,0,0,322,300,278,257,185,259,437,401,216,364,445,218,0,,,,
1,1786645205424,-1761,6546,7494,-5238780,592539,-2003637,0,0,0,317,254,242,232,192,256,347,215,290,281,256,306,0,,,,
2,1786645205424,1368,512,9992,891863,97738,-189368,0,0,0,325,296,282,268,188,263,418,353,208,343,418,208,0,,,,
1,1786645205440,-2919,4728,7556,-5612629,84299,-1565036,0,0,0,320,253,249,231,192,265,349,212,286,282,249,318,0,,,,
2,1786645205440,1421,248,9830,880867,45204,-194255,0,0,0,330,301,289,268,196,278,404,329,211,320,402,230,0,,,,
1,1786645205456,-1229,3953,9030,-5951049,-493579,-1039692,0,0,0,317,252,246,231,188,260,354,212,292,293,251,306,0,,,,
2,1786645205456,1383,95,9614,825889,-17104,-191811,0,0,0,330,310,290,268,195,279,405,293,229,318,369,221,0,,,,
1,1786645205472,-210,3464,10729,-6377433,-522900,-762359,0,0,0,315,250,242,232,189,256,355,212,291,290,252,300,0,,,,
2,1786645205472,1354,0,9518,768468,-70860,-194255,0,0,0,332,341,298,264,208,283,394,268,226,307,347,222,0,,,,
1,1786645205488,-751,2814,12409,-6809925,-461814,-692721,0,0,0,316,251,239,235,190,256,358,210,283,292,251,293,0,,,,
2,1786645205488,1407,-81,9600,731816,-106290,-211359,0,0,0,338,344,320,267,223,323,386,245,265,305,327,258,0,,,,
1,1786645205504,-1134,1804,13979,-7027393,-730594,-778242,0,0,0,316,249,238,239,189,256,364,210,281,295,252,290,0,,,,
2,1786645205504,1569,-210,9782,722042,-145385,-249233,0,0,0,350,359,284,297,243,328,381,220,248,312,329,233,0,,,,
1,1786645205520,-1086,737,15711,-7093367,-940732,-1018923,0,0,0,309,251,236,241,192,258,369,212,280,294,255,284,0,,,,
2,1786645205520,1698,-349,9935,746477,-204028,-305432,0,0,0,366,366,308,314,257,344,375,204,265,306,302,255,0,,,,
1,1786645205536,-1541,157,17544,-7024950,-965167,-1359786,0,0,0,306,255,237,240,193,259,370,210,283,293,252,279,0,,,,
2,1786645205536,1722,-473,9992,803898,-250454,-382401,0,0,0,393,367,304,320,268,367,375,203,268,290,280,271,0,,,,
1,1786645205552,-3015,-770,20631,-6991963,-1130100,-1534493,0,0,0,304,254,236,240,193,262,368,208,288,290,249,283,0,,,,
2,1786645205552,1794,-574,10141,890641,-239459,-480140,0,0,0,410,370,293,340,286,374,367,191,298,279,254,296,0,,,,
1,1786645205568,-4101,-3689,24579,-7044497,-1447750,-1358564,0,0,0,298,252,232,240,195,266,368,207,291,284,249,290,0,,,,
2,1786645205568,1871,-727,10428,1018923,-164933,-588874,0,0,0,424,392,302,350,307,386,348,167,328,285,249,308,0,,,,
1,1786645205584,-4082,-9203,28121,-7120245,-1633453,-929736,0,0,0,295,250,232,234,191,267,370,201,299,281,237,292,0,,,,
2,1786645205584,1517,-1081,10753,1221730,-63529,-700051,0,0,0,428,420,302,370,347,406,340,170,335,284,245,314,0,,,,
1,1786645205600,-3225,-18549,29729,-7007846,-1566258,-531452,0,0,0,298,251,231,234,190,267,377,196,297,284,223,292,0,,,,
2,1786645205600,713,-1172,11093,1436755,-15882,-713490,0,0,0,435,457,266,376,372,399,332,182,320,284,250,321,0,,,,
1,1786645205616,-1655,-29384,28499,-6475171,-1577254,-288328,0,0,0,298,238,227,238,180,266,393,187,288,298,218,292,0,,,,
2,1786645205616,516,-995,12108,1749518,-31764,-594982,0,0,0,452,476,252,377,391,399,312,166,315,273,243,342,0,,,,
1,1786645205632,1258,-39980,23881,-5109276,-1368338,-100181,0,0,0,299,243,235,235,179,272,392,191,295,294,231,298,0,,,,
2,1786645205632,1368,-985,13778,2211332,-67195,-507018,0,0,0,471,464,258,383,405,404,290,156,311,256,231,358,0,,,,
1,1786645205648,3139,-46948,17496,-3332880,-696386,-35430,0,0,0,301,243,228,242,187,267,390,197,284,296,245,297,0,,,,
2,1786645205648,2072,-1139,15017,2856405,-135612,-547335,0,0,0,484,455,276,376,416,406,266,165,301,242,239,365,0,,,,
1,1786645205664,3316,-50284,11581,-1247386,-70860,-156381,0,0,0,284,216,201,232,168,251,431,264,270,307,316,277,0,,,,
2,1786645205664,1919,-1158,15501,3617543,-222354,-632856,0,0,0,487,452,283,358,409,423,219,158,291,231,244,376,0,,,,
1,1786645205680,2330,-48169,12409,772133,250454,-491135,0,0,0,281,205,189,242,156,249,484,387,268,352,419,252,0,,,,
2,1786645205680,2569,-1373,16037,4504520,-265115,-741590,0,0,0,477,428,238,367,373,425,165,147,264,224,223,356,0,,,,
1,1786645205696,971,-29911,15922,2767219,1221730,-746477,0,0,0,277,197,175,224,153,240,486,473,257,378,480,224,0,,,,
2,1786645205696,3756,-1737,17630,5472130,-255341,-968832,0,0,0,431,421,233,395,369,391,153,154,247,212,210,289,0,,,,
1,1786645205712,301,4986,16601,3748269,2597398,-806342,0,0,0,279,194,178,230,148,240,497,511,249,413,518,210,0,,,,
2,1786645205712,5709,-2196,21555,6703635,-196698,-1392772,0,0,0,350,435,212,347,378,357,161,150,227,178,203,239,0,,,,
1,1786645205728,2608,11911,16678,3833790,2817310,-390953,0,0,0,285,202,236,238,149,252,521,545,262,448,542,223,0,,,,
2,1786645205728,7499,-2919,26982,7742106,-250454,-1824043,0,0,0,302,357,171,331,348,292,155,157,195,164,175,191,0,,,,
1,1786645205744,3924,129,20631,3725056,1863138,179594,0,0,0,299,212,312,239,149,269,542,555,277,480,567,249,0,,,,
2,1786645205744,9002,-3680,32586,8396953,-125838,-2172236,0,0,0,249,266,150,236,231,224,173,149,177,157,175,150,0,,,,
1,1786645205760,1478,-7374,22407,2802649,739146,433714,0,0,0,314,231,363,246,156,277,564,557,291,494,579,270,0,,,,
2,1786645205760,8892,-2148,37975,8505687,1178969,-2524095,0,0,0,250,228,166,188,154,165,231,180,160,164,221,134,0,,,,
1,1786645205776,344,-2325,18004,1935221,492357,168598,0,0,0,331,247,396,257,164,280,585,561,301,510,581,287,0,,,,
2,1786645205776,8078,6920,36247,7843509,1736079,-2946813,0,0,0,246,219,164,192,149,167,232,162,163,161,194,130,0,,,,
1,1786645205792,866,1143,13649,1380555,201585,-13439,0,0,0,346,256,428,265,174,292,595,558,303,522,583,303,0,,,,
2,1786645205792,8241,20038,23962,5331631,-75747,-2675589,0,0,0,246,227,171,186,162,171,221,176,171,151,221,122,0,,,,
1,1786645205808,971,995,11237,1044579,-317649,12217,0,0,0,351,268,446,270,192,304,600,559,300,511,580,314,0,,,,
2,1786645205808,7796,25139,17894,1503950,-1626123,-984714,0,0,0,271,222,168,198,157,171,229,183,168,157,220,124,0,,,,
1,1786645205824,-157,253,11184,819781,-543670,45204,0,0,0,364,284,442,279,208,302,602,555,295,514,579,320,0,,,,
2,1786645205824,7087,20837,14792,-1783726,-2333505,1281595,0,0,0,282,220,173,199,150,166,229,166,161,167,210,124,0,,,,
1,1786645205840,-698,655,11002,700051,-555887,17104,0,0,0,362,310,432,278,233,309,600,526,300,510,562,330,0,,,,
2,1786645205840,8451,15300,9279,-2706133,-1957212,2178345,0,0,0,284,215,169,202,149,167,229,159,163,169,199,124,0,,,,
1,1786645205856,-488,1426,10792,801455,-474031,-3665,0,0,0,368,310,421,287,255,315,599,492,303,492,531,337,0,,,,
2,1786645205856,7652,13563,5781,-3148399,-788016,2017077,0,0,0,289,213,164,215,149,172,240,160,165,178,199,126,0,,,,
1,1786645205872,-349,1249,10653,983493,-470366,19547,0,0,0,365,307,437,299,238,331,583,445,311,492,497,357,0,,,,
2,1786645205872,3603,13247,6331,-4150218,101403,1545489,0,0,0,297,215,163,225,151,172,244,160,162,184,203,125,0,,,,
1,1786645205888,-397,866,10490,1065348,-480140,36651,0,0,0,368,319,421,311,259,332,578,421,311,467,471,360,0,,,,
2,1786645205888,1651,10313,7781,-5395161,-40317,1216843,0,0,0,299,216,162,225,154,170,241,161,161,183,205,122,0,,,,
1,1786645205904,-478,674,10375,1054353,-477696,36651,0,0,0,386,345,405,316,270,323,563,408,304,441,455,368,0,,,,
2,1786645205904,1239,6824,8604,-6199060,-79412,647517,0,0,0,297,213,160,226,153,172,247,164,164,185,208,122,0,,,,
1,1786645205920,-521,693,10265,1044579,-448375,26878,0,0,0,394,354,399,319,273,335,550,395,309,420,432,379,0,,,,
2,1786645205920,335,3876,9518,-6513045,106290,-194255,0,0,0,300,210,160,227,150,174,252,165,166,188,208,122,0,,,,
1,1786645205936,-641,603,10059,1069014,-393397,23212,0,0,0,400,362,394,322,274,333,538,353,307,416,396,392,0,,,,
2,1786645205936,-947,2995,11012,-6469062,173485,-758694,0,0,0,301,213,169,224,153,177,245,166,168,184,213,130,0,,,,
1,1786645205952,-804,320,9849,1076344,-307876,32986,0,0,0,404,363,387,331,280,338,530,292,316,417,360,415,0,,,,
2,1786645205952,-981,3431,13103,-6513045,235793,-641408,0,0,0,301,215,174,222,153,182,240,168,168,181,215,132,0,,,,
1,1786645205968,-933,-4,9753,1004262,-207694,69638,0,0,0,424,371,396,346,295,347,530,257,330,417,338,430,0,,,,
2,1786645205968,-191,3493,15137,-6713408,390953,-98960,0,0,0,299,214,167,230,155,182,253,168,169,187,217,138,0,,,,
1,1786645205984,-1086,-215,9796,915076,-102625,128281,0,0,0,446,389,405,351,306,347,522,242,333,407,322,437,0,,,,
2,1786645205984,957,2498,16630,-6923546,659734,608421,0,0,0,292,219,164,218,156,181,239,169,167,180,214,140,0,,,,
1,1786645206000,-1177,-335,9987,874759,18325,201585,0,0,0,452,413,396,354,319,353,509,228,335,397,308,448,0,,,,
2,1786645206000,1928,1320,17889,-6961420,971275,1222952,0,0,0,290,215,164,220,152,181,242,165,166,180,206,133,0,,,,
1,1786645206016,-952,-464,10284,906524,113620,270002,0,0,0,449,434,374,362,338,366,502,219,335,388,298,456,0,,,,
2,1786645206016,3536,416,19875,-6858794,1282817,1577254,0,0,0,290,214,173,219,154,190,242,168,176,180,207,139,0,,,,
1,1786645206032,-727,-559,10552,982271,128281,306654,0,0,0,459,439,350,370,350,369,499,212,335,378,285,462,0,,,,
2,1786645206032,4814,-976,22904,-6790377,1745852,1484402,0,0,0,281,211,166,219,152,182,256,183,164,177,223,130,0,,,,
1,1786645206048,-765,-693,10772,1108109,87964,329867,0,0,0,489,451,336,370,357,360,504,203,343,376,273,484,0,,,,
2,1786645206048,4101,-3905,27815,-6918659,2217440,1128878,0,0,0,273,219,166,222,156,185,261,174,166,185,221,130,0,,,,
1,1786645206064,-995,-938,10973,1263269,50090,382401,0,0,0,489,481,315,378,369,376,502,200,330,368,273,497,0,,,,
2,1786645206064,2316,-10844,31667,-7120245,2122145,1180191,0,0,0,260,215,165,214,149,186,254,160,168,176,202,130,0,,,,
1,1786645206080,-1062,-1110,11217,1435533,37873,458148,0,0,0,490,486,286,402,414,393,474,198,326,355,257,506,0,,,,
2,1786645206080,1273,-23249,32352,-6732956,1756848,1426981,0,0,0,266,214,160,230,158,189,275,153,170,198,206,133,0,,,,
1,1786645206096,-832,-1249,11399,1667662,80634,520457,0,0,0,506,504,257,411,443,380,457,192,321,405,249,510,0,,,,
2,1786645206096,-1196,-36180,29480,-5462356,1364672,1114218,0,0,0,268,226,157,232,175,188,274,178,168,201,227,133,0,,,,
1,1786645206112,-564,-1373,11634,1898569,114842,541226,0,0,0,535,490,242,403,435,390,431,187,334,340,244,540,0,,,,
2,1786645206112,-4412,-46020,24201,-3922976,529009,597426,0,0,0,267,234,162,225,184,194,263,192,168,189,234,133,0,,,,
1,1786645206128,-497,-1426,12687,2186897,101403,531452,0,0,0,550,502,226,392,437,391,415,200,319,322,257,537,0,,,,
2,1786645206128,-3905,-52610,16137,-2095267,-543670,199142,0,0,0,266,233,165,219,171,193,264,207,164,183,256,131,0,,,,
1,1786645206144,-775,-1512,14300,2621833,112399,532674,0,0,0,537,491,214,394,415,385,381,182,330,337,228,541,0,,,,
2,1786645206144,-1392,-53692,12782,-91629,-665843,97738,0,0,0,252,200,154,208,135,181,286,271,160,200,321,119,0,,,,
1,1786645206160,-1043,-1703,15123,3246137,189368,571769,0,0,0,539,500,208,390,419,373,355,186,325,313,224,530,0,,,,
2,1786645206160,-1675,-39425,17109,2086715,-665843,288328,0,0,0,242,154,140,205,108,173,328,384,157,242,407,107,0,,,,
1,1786645206176,-1186,-1909,15668,3970624,230907,642630,0,0,0,544,489,203,396,430,377,320,183,329,286,209,515,0,,,,
2,1786645206176,-1091,-928,19731,3783699,-1411098,665843,0,0,0,266,164,139,221,117,171,357,479,151,288,487,112,0,,,,
1,1786645206192,-1416,-1899,16611,4640132,222354,736703,0,0,0,535,479,219,402,420,384,314,173,338,252,177,479,0,,,,
2,1786645206192,-598,14309,15099,4310265,-2131919,384845,0,0,0,272,170,156,227,122,177,366,502,160,318,557,121,0,,,,
1,1786645206208,-2014,-2110,18856,5496565,233350,873537,0,0,0,487,462,221,391,414,390,296,174,344,237,174,435,0,,,,
2,1786645206208,-1316,957,17697,4824613,-1529606,-155159,0,0,0,284,182,186,228,132,197,386,554,171,333,616,127,0,,,,
1,1786645206224,-3795,-2756,23163,6445850,354301,1044579,0,0,0,431,434,213,356,397,369,276,190,333,230,193,397,0,,,,
2,1786645206224,-909,-5561,22909,4159992,-403171,-364075,0,0,0,304,202,228,229,125,214,400,581,165,423,613,120,0,,,,
1,1786645206240,-6771,-2876,28748,7411017,498466,1356120,0,0,0,380,386,206,311,346,327,283,191,307,223,195,367,0,,,,
2,1786645206240,760,-3225,21378,2961474,70860,-447153,0,0,0,305,226,251,227,131,208,429,567,166,398,636,133,0,,,,
1,1786645206256,-8547,-1636,32950,8269893,224798,1832595,0,0,0,323,304,206,262,259,287,305,181,285,237,203,335,0,,,,
2,1786645206256,1612,808,14386,1795943,57421,-322536,0,0,0,313,237,243,250,146,215,423,511,181,435,643,136,0,,,,
1,1786645206272,-8638,1349,36448,8952840,-630412,2454456,0,0,0,295,229,232,221,171,256,329,201,278,262,250,301,0,,,,
2,1786645206272,938,789,10533,1276708,188146,-212581,0,0,0,332,256,280,234,139,209,458,575,167,427,638,136,0,,,,
1,1786645206288,-8155,9255,30667,8421388,-348193,2982244,0,0,0,293,246,234,235,192,266,336,204,278,257,250,296,0,,,,
2,1786645206288,1316,-76,10208,901637,317649,-161268,0,0,0,335,258,273,242,139,207,453,584,174,435,626,142,0,,,,
1,1786645206304,-7863,16424,20856,5488013,1073901,2795319,0,0,0,305,238,226,234,187,266,332,198,266,261,243,294,0,,,,
2,1786645206304,1947,-47,10954,527787,215024,-100181,0,0,0,332,243,268,253,139,227,454,580,179,451,610,161,0,,,,
1,1786645206320,-7384,16984,16822,382401,1689653,1255938,0,0,0,303,235,226,230,182,268,336,204,270,262,250,298,0,,,,
2,1786645206320,1564,832,10557,362853,74525,-68416,0,0,0,329,227,276,254,131,237,461,566,190,426,587,169,0,,,,
1,1786645206336,-5192,11021,14146,-2636494,1464854,-773355,0,0,0,305,232,230,230,177,268,336,204,268,266,258,297,0,,,,
2,1786645206336,1206,1359,10122,394618,41538,-76969,0,0,0,330,223,274,266,126,250,486,535,197,409,563,175,0,,,,
1,1786645206352,-4785,7537,9432,-2631607,1403768,-1999972,0,0,0,305,252,235,227,193,261,338,210,273,274,259,306,0,,,,
2,1786645206352,1139,1263,9959,543670,74525,-112399,0,0,0,325,225,269,270,127,258,479,517,202,408,543,185,0,,,,
1,1786645206368,-4977,8466,6661,-2329840,889419,-2431243,0,0,0,302,249,233,227,195,260,338,216,276,271,265,305,0,,,,
2,1786645206368,1186,1095,9930,625526,76969,-130725,0,0,0,327,236,267,258,132,259,457,504,199,404,518,186,0,,,,
1,1786645206384,-3000,9222,7049,-3470936,249233,-2670702,0,0,0,305,250,235,229,194,263,338,214,286,271,265,309,0,,,,
2,1786645206384,1234,1072,9887,675616,54977,-142942,0,0,0,335,253,263,260,149,256,455,472,194,406,482,186,0,,,,
1,1786645206400,-1703,7820,7992,-4916243,152716,-2616946,0,0,0,304,246,236,227,186,260,344,216,282,272,269,308,0,,,,
2,1786645206400,1277,995,9839,723264,17104,-155159,0,0,0,331,263,267,272,164,257,470,425,202,407,449,193,0,,,,
1,1786645206416,-2412,5139,8064,-5687155,40317,-1847256,0,0,0,299,245,237,225,183,258,347,215,278,274,268,306,0,,,,
2,1786645206416,1316,765,9743,751364,-21991,-166155,0,0,0,325,265,271,273,166,265,468,371,208,385,436,193,0,,,,
1,1786645206432,-2234,3096,8289,-6062226,-360410,-855211,0,0,0,290,243,235,221,180,254,346,213,276,274,266,305,0,,,,
2,1786645206432,1311,502,9576,737925,-67195,-169820,0,0,0,326,279,270,287,180,264,445,325,204,369,421,188,0,,,,
1,1786645206448,-1105,2077,9270,-6174625,-701273,-70860,0,0,0,287,243,233,220,180,254,346,212,274,274,266,305,0,,,,
2,1786645206448,1253,416,9485,698829,-96516,-171042,0,0,0,332,289,296,272,176,264,428,301,211,342,387,197,0,,,,
1,1786645206464,-430,1966,11122,-6295577,-812450,175929,0,0,0,290,246,235,221,182,257,347,211,276,277,267,308,0,,,,
2,1786645206464,1210,378,9514,670730,-109955,-174707,0,0,0,353,302,301,288,186,294,415,285,235,340,369,208,0,,,,
1,1786645206480,-813,1804,13165,-6677978,-922406,-188146,0,0,0,290,247,237,222,184,259,348,212,278,279,269,310,0,,,,
2,1786645206480,1268,320,9624,657290,-119729,-185703,0,0,0,332,329,304,282,202,298,417,277,264,333,360,204,0,,,,
1,1786645206496,-1387,789,14601,-6989520,-1105666,-766025,0,0,0,287,246,236,221,184,259,347,211,274,277,272,305,0,,,,
2,1786645206496,1440,191,9705,653625,-145385,-215024,0,0,0,328,377,265,272,233,290,374,245,256,358,358,235,0,,,,
1,1786645206512,-1919,-392,15544,-6908885,-1296256,-1353677,0,0,0,284,249,235,221,187,261,350,213,274,275,277,299,0,,,,
2,1786645206512,1603,67,9763,663399,-186924,-272445,0,0,0,338,371,283,284,243,322,391,241,282,294,288,224,0,,,,
1,1786645206528,-2622,-813,17549,-6640105,-1457524,-1809382,0,0,0,282,260,234,224,189,261,353,217,277,274,275,293,0,,,,
2,1786645206528,1718,-4,9887,708603,-238237,-354301,0,0,0,363,385,294,294,274,334,392,221,292,291,283,234,0,,,,
1,1786645206544,-3378,-1483,20813,-6555805,-1572367,-1987755,0,0,0,282,262,234,226,193,264,358,217,280,274,267,291,0,,,,
2,1786645206544,1914,-95,10217,823446,-291993,-460592,0,0,0,389,383,336,308,304,372,389,205,335,293,277,281,0,,,,
1,1786645206560,-3407,-5178,24460,-6670648,-1610240,-1657888,0,0,0,277,259,232,228,192,264,358,213,279,276,263,289,0,,,,
2,1786645206560,2033,-445,10567,961501,-315206,-586430,0,0,0,396,390,348,323,294,436,376,179,339,285,283,289,0,,,,
1,1786645206576,-2005,-11964,27001,-6747617,-1644449,-1084896,0,0,0,284,256,236,231,189,265,361,203,280,277,255,289,0,,,,
2,1786645206576,1670,-813,10911,1136209,-290771,-706160,0,0,0,434,410,337,333,305,436,367,171,350,277,262,310,0,,,,
1,1786645206592,818,-21737,27537,-6565579,-1727526,-461814,0,0,0,285,258,241,259,193,277,385,201,283,287,255,304,0,,,,
2,1786645206592,823,-670,11395,1433089,-227241,-730594,0,0,0,465,424,310,362,314,415,355,172,338,267,233,327,0,,,,
1,1786645206608,3110,-31993,25929,-5805663,-1577254,46425,0,0,0,289,255,228,267,192,267,389,201,273,296,253,286,0,,,,
2,1786645206608,646,-421,12452,1830152,-123394,-665843,0,0,0,482,448,283,378,350,404,339,172,309,265,226,335,0,,,,
1,1786645206624,3436,-40990,21746,-4538728,-802676,591317,0,0,0,285,254,227,261,192,267,390,203,276,292,246,281,0,,,,
2,1786645206624,1249,-526,14290,2377487,-62308,-624304,0,0,0,491,464,264,370,376,393,323,176,307,265,232,346,0,,,,
1,1786645206640,2206,-46436,14725,-2752558,92851,967610,0,0,0,295,245,209,259,193,263,409,234,272,327,287,272,0,,,,
2,1786645206640,1584,-784,15534,3068986,-85521,-630412,0,0,0,486,464,257,357,387,395,290,187,321,251,240,355,0,,,,
1,1786645206656,3766,-48293,11892,-763581,158824,546113,0,0,0,288,228,194,247,186,249,450,338,260,332,374,256,0,,,,
2,1786645206656,1765,-827,16161,3924198,-149051,-684169,0,0,0,482,469,250,347,432,405,231,188,324,230,248,348,0,,,,
1,1786645206672,4249,-45379,14041,1558928,1142317,-324980,0,0,0,280,209,178,243,169,242,493,445,248,346,450,226,0,,,,
2,1786645206672,2364,-751,17032,4816061,-129503,-811229,0,0,0,466,448,230,344,412,386,185,168,335,215,234,319,0,,,,
1,1786645206688,579,-20818,17372,3604104,3569896,-948062,0,0,0,282,204,170,244,158,242,510,496,247,386,492,207,0,,,,
2,1786645206688,3354,-622,19449,5905845,-40317,-1039692,0,0,0,406,412,222,323,364,367,165,149,288,187,195,267,0,,,,
1,1786645206704,119,8858,18334,3445279,4645019,-767246,0,0,0,290,205,180,253,155,244,532,524,258,432,515,204,0,,,,
2,1786645206704,4986,-430,23823,7111693,-123394,-1350012,0,0,0,346,368,197,313,327,331,159,132,261,166,161,230,0,,,,
1,1786645206720,2885,10404,18004,3273015,4161214,-337197,0,0,0,308,210,219,276,158,257,567,540,273,496,536,213,0,,,,
2,1786645206720,7188,-1454,28834,8186815,-460592,-1672549,0,0,0,335,300,193,285,265,294,163,139,225,162,163,209,0,,,,
1,1786645206736,5254,-3239,18808,3154508,2827084,-28099,0,0,0,313,238,292,282,172,276,584,542,281,540,563,251,0,,,,
2,1786645206736,9160,-2416,34357,8813563,-332310,-2003637,0,0,0,250,241,164,218,188,214,188,147,189,155,181,162,0,,,,
1,1786645206752,4115,-4513,18463,2101376,1596801,-69638,0,0,0,314,267,337,282,196,292,605,552,287,544,581,284,0,,,,
2,1786645206752,9696,1617,37621,8666956,927293,-2399478,0,0,0,246,208,184,205,138,188,246,161,172,194,194,146,0,,,,
1,1786645206768,3091,-315,15367,1075122,739146,-157603,0,0,0,325,275,351,297,228,309,618,543,279,555,595,299,0,,,,
2,1786645206768,10145,11380,30581,7700567,1470963,-2800206,0,0,0,293,203,162,229,138,172,259,157,180,186,192,130,0,,,,
1,1786645206784,2799,1885,11897,703716,155159,-107512,0,0,0,332,298,357,299,234,306,618,548,288,562,598,307,0,,,,
2,1786645206784,9160,23010,20315,5044525,612086,-2577851,0,0,0,276,209,161,205,134,164,244,157,183,173,199,127,0,,,,
1,1786645206800,1880,784,10978,673173,-301767,-4886,0,0,0,350,307,363,314,238,308,622,536,301,566,578,318,0,,,,
2,1786645206800,6264,24977,16884,235793,-1200961,-557109,0,0,0,271,209,166,206,140,168,238,162,187,174,199,134,0,,,,
1,1786645206816,1057,459,10868,612086,-538783,6108,0,0,0,369,316,369,330,242,310,626,525,314,571,559,329,0,,,,
2,1786645206816,6934,18071,12098,-2302961,-2432465,1188743,0,0,0,277,209,168,208,142,171,241,162,181,175,201,131,0,,,,
1,1786645206832,727,1201,10873,626747,-580321,-31764,0,0,0,373,310,376,325,245,320,623,508,315,545,528,329,0,,,,
2,1786645206832,9810,12342,5786,-2298075,-1825265,1627344,0,0,0,281,211,168,208,142,172,240,162,174,174,203,131,0,,,,
1,1786645206848,770,1497,10787,806342,-565661,-37873,0,0,0,369,312,363,324,246,323,618,475,315,516,495,338,0,,,,
2,1786645206848,6250,13376,5632,-2663372,-234572,1401324,0,0,0,282,208,172,206,139,176,238,159,174,174,205,134,0,,,,
1,1786645206864,765,1277,10629,957836,-570548,-24434,0,0,0,361,323,379,321,251,325,606,439,321,497,478,359,0,,,,
2,1786645206864,1675,12725,7657,-4009719,-80634,1574810,0,0,0,284,208,175,208,137,175,240,157,176,177,207,134,0,,,,
1,1786645206880,636,1072,10485,1031140,-577878,-13439,0,0,0,368,336,386,330,258,338,597,412,339,480,458,373,0,,,,
2,1786645206880,2043,8662,7891,-5287649,-745255,1573588,0,0,0,281,212,172,206,138,172,237,160,174,174,207,132,0,,,,
1,1786645206896,483,990,10380,1086118,-560774,-1221,0,0,0,371,341,380,343,266,345,584,386,346,447,429,383,0,,,,
2,1786645206896,2579,5187,7887,-5899736,-568104,962723,0,0,0,275,215,170,202,141,173,234,163,170,170,206,132,0,,,,
1,1786645206912,373,842,10251,1152091,-508239,17104,0,0,0,372,343,362,343,271,348,566,362,345,413,397,390,0,,,,
2,1786645206912,818,3077,9073,-6103765,-72082,31764,0,0,0,273,218,170,203,144,174,237,162,169,173,207,131,0,,,,
1,1786645206928,311,559,10088,1181413,-428827,40317,0,0,0,379,355,352,335,274,352,549,330,351,395,370,401,0,,,,
2,1786645206928,-507,2770,10725,-6151412,-54977,-447153,0,0,0,275,219,171,205,144,173,242,162,171,176,208,131,0,,,,
1,1786645206944,181,268,9858,1134987,-322536,59864,0,0,0,390,369,353,337,281,354,541,299,351,383,349,411,0,,,,
2,1786645206944,-454,3101,12490,-6280916,-10995,-449596,0,0,0,290,215,175,212,140,173,249,162,169,185,209,133,0,,,,
1,1786645206960,52,28,9686,1044579,-210137,87964,0,0,0,399,376,341,343,298,358,543,278,346,368,325,413,0,,,,
