sole_id,timestamp,accel_x,accel_y,accel_z,gyro_x,gyro_y,gyro_z,magn_x,magn_y,magn_z,pressure_01,pressure_02,pressure_03,pressure_04,pressure_05,pressure_06,pressure_07,pressure_08,pressure_09,pressure_10,pressure_11,pressure_12,corrupt,transition,asphalt,concrete
1,1778969533984,-536,138,13055,1203404,34208,81855,0,0,0,488,420,353,343,293,376,503,332,376,414,416,471,0,,,
1,1778969534000,-1148,-148,13510,1560149,144164,67195,0,0,0,486,398,368,331,270,362,497,349,372,420,426,428,0,,,
2,1778969534000,1325,650,10064,-283441,142942,63529,0,0,0,440,372,406,389,266,376,691,623,311,574,686,313,0,,,
1,1778969534016,-1899,-311,14089,1866804,376292,107512,0,0,0,458,366,338,322,253,354,496,356,369,410,429,417,0,,,
2,1778969534016,1411,674,9949,-199142,161268,9773,0,0,0,441,376,420,384,270,368,688,633,289,579,690,326,0,,,
1,1778969534032,-2077,-105,14855,2006081,831998,141720,0,0,0,451,340,340,314,229,352,511,354,377,400,428,417,0,,,
2,1778969534032,1483,708,9930,-135612,142942,-39095,0,0,0,444,373,406,389,244,353,688,642,289,576,697,324,0,,,
1,1778969534048,-2120,143,15300,1977981,1584584,57421,0,0,0,447,324,335,318,231,356,505,349,368,423,428,407,0,,,
2,1778969534048,1550,760,9930,-90408,78190,-63529,0,0,0,449,379,418,385,246,368,701,643,285,580,705,331,0,,,
1,1778969534064,-3838,1330,14668,1888795,2006081,-83077,0,0,0,450,328,340,319,235,358,504,355,372,412,419,418,0,,,
2,1778969534064,1569,813,9873,-18325,-13439,-83077,0,0,0,454,393,409,404,258,379,706,634,266,590,708,326,0,,,
1,1778969534080,-6671,4225,12873,1745852,1497841,-408057,0,0,0,450,330,338,319,236,360,502,357,373,404,418,411,0,,,
2,1778969534080,1526,827,9882,86742,-84299,-109955,0,0,0,463,392,415,396,249,380,701,621,275,577,701,314,0,,,
1,1778969534096,-7748,7418,11055,1549154,504574,-1158200,0,0,0,450,327,336,319,238,369,500,362,378,400,418,419,0,,,
2,1778969534096,1440,765,9920,195476,-106290,-124616,0,0,0,464,388,413,393,242,385,703,608,298,580,696,314,0,,,
1,1778969534112,-7552,9303,9830,1341460,-267558,-1963320,0,0,0,451,326,342,318,234,372,502,356,380,399,412,422,0,,,
2,1778969534112,1363,641,9911,277332,-105068,-123394,0,0,0,461,391,402,399,248,389,699,583,310,580,688,316,0,,,
1,1778969534128,-6259,9705,9375,1106887,-773355,-2359161,0,0,0,456,323,353,319,227,374,505,346,373,390,412,420,0,,,
2,1778969534128,1335,521,9815,307876,-96516,-109955,0,0,0,454,388,403,400,252,396,686,561,319,572,677,321,0,,,
1,1778969534144,-4091,9394,9351,780685,-1125213,-2169793,0,0,0,456,316,348,323,228,373,505,343,367,390,415,424,0,,,
2,1778969534144,1378,445,9691,302989,-112399,-97738,0,0,0,447,380,437,388,253,412,679,555,329,572,672,338,0,,,
1,1778969534160,-2148,9021,9758,433714,-1279151,-1672549,0,0,0,455,315,341,328,233,367,505,342,367,403,425,418,0,x,,
2,1778969534160,1421,402,9614,282219,-163711,-89186,0,0,0,453,389,471,384,271,423,686,559,337,582,677,357,0,x,,
1,1778969534176,-358,8738,10672,-74525,-1160643,-992045,0,0,0,459,320,347,327,233,367,508,339,366,401,428,405,0,,,
2,1778969534176,1383,397,9595,252898,-240680,-85521,0,0,0,471,416,473,403,297,419,694,557,340,592,673,365,0,,,
1,1778969534192,234,8030,10969,-718377,-718377,-409279,0,0,0,456,320,348,325,232,367,512,343,369,388,412,408,0,,,
2,1778969534192,1340,425,9672,249233,-305432,-81855,0,0,0,482,440,465,413,303,416,690,547,338,575,659,366,0,,,
1,1778969534208,-129,7006,10591,-1230282,-382401,3665,0,0,0,455,324,353,327,231,360,507,345,370,393,417,409,0,,,
2,1778969534208,1316,373,9853,274889,-354301,-84299,0,0,0,495,496,447,422,341,425,686,541,333,551,664,372,0,,,
1,1778969534224,-957,5886,10040,-1590693,-287106,196698,0,0,0,454,328,355,342,243,358,495,358,375,392,407,412,0,,,
2,1778969534224,1172,282,9959,313984,-348193,-86742,0,0,0,500,497,446,405,367,427,681,531,348,535,656,382,0,,,
1,1778969534240,-1670,4843,9820,-1848478,-419053,58643,0,0,0,452,330,355,310,235,356,502,351,372,384,407,414,0,,,
2,1778969534240,1038,234,9978,354301,-295658,-80634,0,0,0,503,478,449,415,324,414,650,497,339,543,643,403,0,,,
1,1778969534256,-2000,3613,9710,-2083050,-648738,-241902,0,0,0,453,331,355,310,230,356,501,355,372,380,403,407,0,,,
2,1778969534256,1000,201,9992,408057,-219911,-72082,0,0,0,499,471,434,433,359,449,633,483,330,511,594,391,0,,,
1,1778969534272,-1703,2287,9657,-2224771,-878424,-593761,0,0,0,454,332,354,307,230,357,502,344,371,376,409,411,0,,,
2,1778969534272,1072,215,10088,494800,-155159,-79412,0,0,0,514,465,438,436,353,446,627,449,343,519,538,405,0,,,
1,1778969534288,-1158,1249,9696,-2315179,-1038470,-893084,0,0,0,451,326,349,313,230,358,505,343,367,379,406,419,0,,,
2,1778969534288,1129,95,10169,598647,-100181,-100181,0,0,0,531,477,469,433,326,442,586,366,359,503,487,400,0,,,
1,1778969534304,-650,425,9667,-2434908,-1117883,-1087340,0,0,0,453,334,352,310,241,358,502,348,366,377,408,418,0,,,
2,1778969534304,1091,-90,10122,678060,-48869,-119729,0,0,0,545,484,437,425,365,449,569,340,350,457,455,420,0,,,
1,1778969534320,-224,-454,9428,-2515543,-1106887,-1133765,0,0,0,448,329,351,306,236,356,503,353,371,366,396,420,0,,,
2,1778969534320,1081,-196,10031,717155,-3665,-125838,0,0,0,548,511,454,415,366,508,564,257,359,454,431,476,0,,,
1,1778969534336,153,-1464,9116,-2453234,-1051909,-985936,0,0,0,453,334,360,310,236,363,492,340,375,363,390,423,0,,,
2,1778969534336,1244,-296,10088,737925,0,-131946,0,0,0,555,530,428,432,388,483,551,232,355,451,423,465,0,,,
1,1778969534352,789,-2957,9179,-2108706,-993266,-537561,0,0,0,452,340,363,309,241,360,492,328,373,362,382,417,0,,,
2,1778969534352,1383,-368,10275,774577,-48869,-155159,0,0,0,573,536,415,448,417,462,544,228,347,442,404,466,0,,,
1,1778969534368,1622,-4364,9987,-1701870,-874759,-70860,0,0,0,443,340,365,307,241,360,496,304,371,359,374,409,0,,,
2,1778969534368,1220,-416,10452,871093,-114842,-180816,0,0,0,601,511,403,453,427,461,526,236,383,454,375,493,0,,,
1,1778969534384,1976,-6446,10605,-1345125,-604756,307876,0,0,0,438,342,369,304,239,360,490,286,374,346,366,406,0,,,
2,1778969534384,899,-507,10495,990823,-140499,-179594,0,0,0,614,515,388,457,461,469,506,238,378,449,405,533,0,,,
1,1778969534400,119,-10275,9375,-814894,-409279,426383,0,0,0,433,350,373,298,243,350,486,291,374,331,355,406,0,,,
2,1778969534400,679,-684,10500,1089783,-98960,-136833,0,0,0,625,522,363,476,471,493,498,213,366,423,402,549,0,,,
1,1778969534416,-3972,-15137,7059,784350,-866206,299323,0,0,0,422,352,376,297,247,347,486,283,367,333,341,411,0,,,
2,1778969534416,674,-899,10591,1186300,14660,-75747,0,0,0,638,510,327,488,456,492,488,196,374,418,382,561,0,,,
1,1778969534432,-5881,-17803,6025,2802649,-1635897,-241902,0,0,0,418,359,378,292,253,349,482,280,363,319,333,424,0,,,
2,1778969534432,794,-1086,10787,1317025,135612,-40317,0,0,0,633,505,305,463,450,458,473,205,384,417,380,570,0,,,
1,1778969534448,-3914,-17506,5350,4101349,-1826487,-1253495,0,0,0,432,366,369,294,256,347,483,256,371,329,335,449,0,,,
2,1778969534448,1134,-1105,10868,1496619,230907,-39095,0,0,0,618,506,302,437,446,440,460,205,381,397,356,560,0,,,
1,1778969534464,-1641,-18832,3575,4719544,-1335351,-2185675,0,0,0,473,375,351,320,253,395,538,305,441,368,300,506,0,,,
2,1778969534464,1541,-1268,10878,1666440,312763,-70860,0,0,0,610,488,278,446,441,446,436,196,358,395,343,553,0,,,
1,1778969534480,3086,-23594,6068,5051855,-180816,-1916895,0,0,0,543,404,367,407,313,474,595,278,522,393,316,522,0,,,
2,1778969534480,1622,-1459,11648,1805717,334754,-116064,0,0,0,593,459,246,425,426,430,412,222,369,384,336,517,0,,,
1,1778969534496,5044,-24024,7183,3130073,2610838,-827111,0,0,0,602,467,382,488,422,495,631,300,518,438,305,595,0,,,
2,1778969534496,1923,-1670,13003,2046398,174707,-150272,0,0,0,555,433,221,408,389,398,381,219,351,370,341,455,0,,,
1,1778969534512,-5278,-12012,9629,-1485624,4296826,106290,0,0,0,659,552,448,505,477,494,649,298,481,464,328,620,0,,,
2,1778969534512,2072,-1665,13845,2356718,-28099,-211359,0,0,0,543,412,217,381,355,376,371,206,341,373,331,420,0,,,
1,1778969534528,-6197,2177,20535,-3247359,4191757,862541,0,0,0,678,564,481,529,496,492,638,295,482,492,336,631,0,,,
2,1778969534528,1780,-1703,14376,2629163,-226020,-262672,0,0,0,525,394,231,390,350,379,362,213,326,373,323,398,0,,,
1,1778969534544,1344,4082,23886,-1737300,3051882,1214400,0,0,0,690,589,494,524,527,504,627,307,511,500,343,633,0,,,
2,1778969534544,1923,-1871,12629,2697580,-359188,-267558,0,0,0,493,407,245,365,300,354,367,205,364,378,362,373,0,,,
1,1778969534560,6034,-856,15017,-131946,1733635,770911,0,0,0,703,594,492,528,544,502,612,310,505,513,348,634,0,,,
2,1778969534560,2038,-2459,9585,2599842,-394618,-288328,0,0,0,460,377,247,337,292,359,356,226,314,354,362,364,0,,,
1,1778969534576,5005,-2412,9595,339641,629191,139277,0,0,0,700,594,476,533,548,507,605,317,481,519,352,636,0,,,
2,1778969534576,1933,-3780,6671,2339613,-302989,-361632,0,0,0,444,352,251,321,271,340,342,201,303,354,365,365,0,,,
1,1778969534592,909,-914,10246,289550,-191811,-291993,0,0,0,696,597,451,546,548,526,608,330,477,508,364,633,0,,,
2,1778969534592,981,-4455,5455,2062281,-230907,-423940,0,0,0,457,349,247,331,273,332,350,202,318,365,365,351,0,,,
1,1778969534608,-392,-703,11241,524122,-530231,-273667,0,0,0,694,597,433,539,543,537,607,335,483,484,369,636,0,,,
2,1778969534608,-119,-4245,5958,1882686,-323758,-360410,0,0,0,437,343,244,321,268,328,358,211,290,346,389,335,0,,,
1,1778969534624,-641,-1172,10744,726929,-701273,-223576,0,0,0,691,595,426,518,530,531,600,328,475,466,363,645,0,,,
2,1778969534624,-306,-4345,6853,1715309,-425162,-184481,0,0,0,411,338,258,304,264,329,334,201,295,322,346,328,0,,,
1,1778969534640,-1234,-1464,10026,773355,-698829,-179594,0,0,0,695,590,413,527,521,518,594,318,471,463,357,644,0,,,
2,1778969534640,268,-4699,7264,1539380,-481361,-41538,0,0,0,397,328,245,309,262,310,330,189,273,304,302,297,0,,,
1,1778969534656,-1751,-1445,9705,701273,-497244,-101403,0,0,0,689,583,389,546,526,514,593,312,477,465,339,642,0,,,
2,1778969534656,1387,-5154,7264,1361007,-458148,0,0,0,0,388,315,258,301,247,294,339,187,247,312,285,272,0,,,
1,1778969534672,-1809,-1478,9413,598647,-227241,-10995,0,0,0,698,590,419,547,524,521,580,313,466,451,339,633,0,,,
2,1778969534672,1919,-5585,7322,1178969,-321315,-84299,0,0,0,375,317,280,277,231,285,308,194,242,306,303,262,0,,,
1,1778969534688,-1368,-1579,9131,474031,-4886,52534,0,0,0,689,579,388,544,521,522,576,306,446,453,344,640,0,,,
2,1778969534688,1761,-5819,7518,917519,-163711,-168598,0,0,0,379,310,284,268,224,280,313,199,243,286,319,262,0,,,
1,1778969534704,-349,-1569,9011,322536,73303,43982,0,0,0,700,586,405,550,519,524,528,383,458,453,333,647,0,,,
2,1778969534704,1531,-4819,7173,438601,-9773,-212581,0,0,0,393,293,282,278,220,284,355,196,244,283,311,260,0,,,
1,1778969534720,335,-1507,9078,180816,46425,-46425,0,0,0,698,585,392,540,520,520,591,283,446,461,337,644,0,,,
2,1778969534720,2024,-3077,7154,-200363,228463,-277332,0,0,0,391,291,284,285,219,286,361,195,242,286,305,253,0,,,
1,1778969534736,157,-1526,9188,80634,-39095,-158824,0,0,0,704,589,396,533,518,512,599,292,463,460,337,644,0,,,
2,1778969534736,1794,-2948,7312,-841772,587652,-461814,0,0,0,377,295,287,278,224,284,355,192,242,285,313,259,0,,,
1,1778969534752,-488,-1531,9361,2443,-125838,-228463,0,0,0,703,589,420,539,527,511,599,294,457,449,329,646,0,,,
2,1778969534752,483,-4302,7542,-996932,827111,-742812,0,0,0,370,295,279,283,233,288,356,184,242,292,320,254,0,,,
1,1778969534768,-1124,-1526,9724,-50090,-135612,-212581,0,0,0,695,589,417,537,540,509,606,298,459,455,335,649,0,,,
2,1778969534768,-607,-4398,8121,-982271,818559,-856433,0,0,0,381,304,286,283,221,287,356,191,245,296,316,252,0,,,
1,1778969534784,-1311,-1541,9940,-75747,-81855,-153938,0,0,0,695,589,420,541,539,516,607,299,469,452,332,647,0,,,
2,1778969534784,-1335,-4106,8135,-1105666,472809,-849102,0,0,0,370,306,286,279,227,287,370,194,244,303,311,256,0,,,
1,1778969534800,-1057,-1545,9863,-97738,-17104,-97738,0,0,0,694,587,428,544,535,512,608,297,467,533,326,630,0,,,
2,1778969534800,-1531,-4345,7260,-1070235,97738,-1031140,0,0,0,374,302,285,284,226,288,376,192,245,308,304,254,0,,,
1,1778969534816,-818,-1517,9868,-131946,20769,-73303,0,0,0,697,592,432,548,537,512,610,296,460,528,328,631,0,,,
2,1778969534816,-1876,-3914,7020,-860098,-73303,-1225395,0,0,0,366,305,290,274,223,288,365,192,245,301,309,259,0,,,
1,1778969534832,-918,-1497,9887,-168598,56199,-68416,0,0,0,703,603,426,543,539,517,612,299,464,463,330,648,0,,,
2,1778969534832,-1890,-2837,7226,-692721,-141720,-1137431,0,0,0,378,303,288,279,222,287,364,193,240,305,310,257,0,,,
1,1778969534848,-976,-1497,9743,-205250,108734,-36651,0,0,0,704,605,429,535,536,515,615,298,466,466,332,658,0,,,
2,1778969534848,-1478,-2153,7255,-692721,-131946,-852767,0,0,0,386,303,293,288,227,288,381,197,246,311,308,252,0,,,
1,1778969534864,-641,-1392,9796,-226020,136833,-17104,0,0,0,703,602,436,541,539,519,616,295,460,468,336,657,0,,,
2,1778969534864,-1249,-2368,7126,-799011,-34208,-491135,0,0,0,377,305,298,286,228,295,380,197,247,318,309,255,0,,,
1,1778969534880,-378,-1301,9997,-222354,130725,-36651,0,0,0,704,604,438,548,545,532,610,301,459,466,335,645,0,,,
2,1778969534880,-1636,-3455,7193,-806342,28099,-188146,0,0,0,404,295,295,295,220,292,383,200,252,323,306,264,0,,,
1,1778969534896,-378,-1316,10102,-206472,89186,-62308,0,0,0,713,610,456,546,540,523,602,303,457,467,333,642,0,,,
2,1778969534896,-1923,-4307,7547,-758694,18325,23212,0,0,0,402,300,307,297,220,299,381,199,252,322,304,255,0,,,
1,1778969534912,-421,-1296,10169,-189368,40317,-84299,0,0,0,712,606,444,547,542,523,612,307,452,472,326,639,0,,,
2,1778969534912,-2005,-5039,8145,-812450,-52534,186924,0,0,0,401,307,302,293,223,294,382,198,246,322,305,247,0,,,
1,1778969534928,-550,-1258,10117,-173485,9773,-94073,0,0,0,710,605,458,540,534,506,619,292,445,476,329,640,0,,,
2,1778969534928,-2105,-5953,8317,-992045,-180816,152716,0,0,0,403,308,288,294,225,288,383,200,242,326,309,248,0,,,
1,1778969534944,-603,-1196,10045,-164933,-6108,-90408,0,0,0,709,621,459,533,524,508,616,296,458,475,337,656,0,,,
2,1778969534944,-2215,-6695,8193,-1061683,-364075,-13439,0,0,0,407,305,283,298,224,287,386,205,243,327,312,252,0,,,
1,1778969534960,-612,-1139,10045,-164933,-3665,-86742,0,0,0,703,622,471,559,531,515,609,295,455,489,348,658,0,,,
2,1778969534960,-1823,-6771,7848,-952949,-561996,-211359,0,0,0,416,301,286,302,223,286,390,205,243,331,313,250,0,,,
1,1778969534976,-670,-1143,10007,-169820,18325,-80634,0,0,0,711,627,472,537,524,500,602,318,455,487,347,657,0,,,
2,1778969534976,-545,-6389,7102,-680503,-579100,-193033,0,0,0,427,298,289,322,227,285,391,203,242,336,315,248,0,,,
1,1778969534992,-689,-1148,9940,-184481,46425,-69638,0,0,0,709,622,468,520,530,499,593,340,466,565,355,631,0,,,
2,1778969534992,938,-6197,6235,-265115,-349414,42760,0,0,0,415,300,276,333,239,288,380,201,240,319,315,246,0,,,
1,1778969535008,-693,-1148,9801,-216246,74525,-51312,0,0,0,702,617,451,520,531,501,595,365,449,519,343,632,0,,,
2,1778969535008,1809,-6015,5781,252898,51312,492357,0,0,0,384,311,255,308,245,296,359,189,238,298,311,252,0,,,
1,1778969535024,-607,-1095,9652,-274889,98960,-31764,0,0,0,697,616,459,522,523,492,597,342,450,503,351,637,0,,,
2,1778969535024,2727,-5221,5446,861319,442266,1006705,0,0,0,392,337,249,321,247,308,352,164,243,323,292,287,0,,,
1,1778969535040,-449,-1038,9657,-339641,100181,-19547,0,0,0,697,610,491,529,520,486,608,338,446,506,368,637,0,,,
2,1778969535040,3603,-3713,7025,935845,1094670,1210734,0,0,0,437,357,245,354,260,316,337,152,246,353,269,322,0,,,
1,1778969535056,-291,-961,9897,-400727,59864,-19547,0,0,0,699,605,520,520,518,473,616,341,453,506,373,630,0,,,
2,1778969535056,1005,-4402,8834,68416,1164309,1215621,0,0,0,456,380,262,342,280,342,285,180,265,323,294,357,0,,,
1,1778969535072,-272,-842,10270,-399505,1221,-31764,0,0,0,697,603,523,509,511,464,625,340,468,510,364,623,0,,,
2,1778969535072,3225,-4915,7934,-720820,218689,1248608,0,0,0,522,406,233,365,327,362,262,152,271,335,278,381,0,,,
1,1778969535088,-291,-741,10610,-340862,-57421,-41538,0,0,0,686,600,519,498,500,457,631,346,477,511,362,621,0,,,
2,1778969535088,6704,-4379,7231,-1130100,-128281,952949,0,0,0,535,453,231,413,367,412,259,134,297,337,250,404,0,,,
1,1778969535104,-282,-670,10902,-222354,-123394,-45204,0,0,0,669,594,518,485,486,444,625,351,477,505,371,622,0,,,
2,1778969535104,6097,-4067,8959,-1401324,92851,421497,0,0,0,547,501,256,434,439,407,272,158,308,325,264,436,0,,,
1,1778969535120,-368,-626,11146,-47647,-177150,-47647,0,0,0,658,575,481,502,468,444,618,350,471,503,361,621,0,,,
2,1778969535120,4326,-3866,10725,-1745852,97738,12217,0,0,0,590,556,254,436,439,422,288,171,312,339,247,441,0,,,
1,1778969535136,-492,-607,11395,155159,-212581,-43982,0,0,0,638,556,418,489,457,437,603,338,462,482,349,606,0,,,
2,1778969535136,2397,-3278,11734,-2078163,-119729,-232128,0,0,0,587,552,284,464,461,446,324,204,349,341,308,477,0,,,
1,1778969535152,-579,-607,11830,414166,-276111,-26878,0,0,0,606,524,374,461,448,428,586,317,466,453,344,572,0,,,
2,1778969535152,760,-2258,11418,-2160019,-204028,-260228,0,0,0,599,537,277,477,465,475,398,213,349,342,310,539,0,,,
1,1778969535168,-397,-741,12385,722042,-441044,0,0,0,0,580,495,367,419,387,410,568,296,420,413,337,523,0,,,
2,1778969535168,-363,-1560,10988,-2036624,-63529,-169820,0,0,0,621,548,289,513,438,480,453,204,347,373,311,539,0,,,
1,1778969535184,100,-1043,12534,1089783,-763581,-15882,0,0,0,547,449,355,379,323,370,559,340,396,382,290,528,0,,,
2,1778969535184,-445,-1359,10969,-1793500,250454,10995,0,0,0,635,556,313,535,466,513,456,208,403,391,314,538,0,,,
1,1778969535200,148,-1124,12246,1367116,-1000597,-86742,0,0,0,516,410,354,336,290,360,533,276,384,338,246,510,0,,,
2,1778969535200,722,-1450,11351,-1584584,463035,140499,0,0,0,634,553,349,527,471,527,473,246,460,396,333,551,0,,,
1,1778969535216,-220,-1526,11931,1507615,-1199739,-141720,0,0,0,496,374,347,320,254,347,515,254,396,308,246,464,0,,,
2,1778969535216,1785,-1378,11457,-1389107,499687,171042,0,0,0,623,554,386,540,466,561,512,306,466,401,365,574,0,,,
1,1778969535232,229,-3010,11514,1423316,-1441641,-174707,0,0,0,482,359,349,312,239,329,492,241,370,295,237,432,0,,,
2,1778969535232,1780,-1158,11270,-1235169,403171,138055,0,0,0,609,544,396,550,499,607,569,322,463,397,373,594,0,,,
1,1778969535248,1675,-5742,9614,952949,-1616349,-345749,0,0,0,466,355,354,314,242,338,478,246,361,292,238,421,0,,,
2,1778969535248,1631,-1019,11055,-1073901,335975,120951,0,0,0,601,519,383,567,497,621,611,289,469,404,372,589,0,,,
1,1778969535264,-1033,-10744,6676,-28099,-1929112,-634078,0,0,0,456,351,348,309,235,339,480,250,367,302,256,420,0,,,
2,1778969535264,1550,-942,10949,-906524,349414,113620,0,0,0,594,510,377,585,473,621,631,280,472,420,385,566,0,,,
1,1778969535280,-2435,-13768,4647,-990823,-2282192,-643851,0,0,0,452,342,342,296,226,332,478,255,364,301,270,424,0,,,
2,1778969535280,1521,-847,10969,-691499,404392,112399,0,0,0,572,507,360,550,494,618,661,319,483,413,389,544,0,,,
1,1778969535296,1378,-12170,5240,-2108706,-1319468,-620639,0,0,0,451,337,342,284,224,327,473,267,362,297,279,427,0,,,
2,1778969535296,1555,-804,10839,-458148,455705,114842,0,0,0,544,476,321,517,457,590,680,354,503,396,385,526,0,,,
1,1778969535312,3393,-10595,7130,-3033556,223576,-766025,0,0,0,452,338,342,285,232,325,473,273,367,307,285,429,0,,,
2,1778969535312,1579,-804,10528,-254119,514348,118507,0,0,0,523,461,313,518,428,586,711,353,512,389,395,522,0,,,
1,1778969535328,938,-10658,9016,-3516140,1819156,-704938,0,0,0,449,336,336,295,244,327,476,272,368,320,291,436,0,,,
2,1778969535328,1804,-765,10217,-123394,547335,120951,0,0,0,529,438,311,519,424,609,710,350,531,403,410,516,0,,,
1,1778969535344,-3469,-10978,9093,-2976135,2128254,251676,0,0,0,448,335,332,290,245,332,477,277,367,314,293,426,0,,,
2,1778969535344,2033,-703,10059,-35430,507018,112399,0,0,0,539,410,297,506,394,582,708,338,510,414,413,506,0,,,
1,1778969535360,-4886,-9983,8901,-2210110,1560149,1413542,0,0,0,450,329,324,286,242,344,474,277,358,302,286,425,0,,,
2,1778969535360,2144,-703,9983,39095,433714,97738,0,0,0,507,438,295,518,407,603,724,326,533,422,413,509,0,,,
1,1778969535376,-3742,-8743,9145,-1430646,818559,2381152,0,0,0,450,339,340,292,243,345,482,285,374,310,298,438,0,,,
2,1778969535376,2163,-770,9853,96516,375071,83077,0,0,0,500,407,296,516,385,587,716,332,553,417,406,502,0,,,
1,1778969535392,-2593,-7915,9748,-430049,400727,2984687,0,0,0,452,335,339,292,241,341,478,278,368,314,300,422,0,,,
2,1778969535392,2206,-847,9691,122173,328645,69638,0,0,0,501,382,251,516,381,574,702,302,549,418,415,477,0,,,
1,1778969535408,-1689,-6862,10514,349414,184481,3205820,0,0,0,451,331,339,289,233,339,483,286,378,325,314,415,0,,,
2,1778969535408,2244,-871,9557,119729,279776,54977,0,0,0,488,394,255,518,400,574,705,300,570,415,429,488,0,,,
1,1778969535424,90,-5594,11524,786794,263893,2979800,0,0,0,447,325,337,290,232,339,484,306,383,336,322,417,0,,,
2,1778969535424,2287,-894,9423,101403,219911,43982,0,0,0,486,395,260,504,398,568,709,314,566,404,413,473,0,,,
1,1778969535440,1335,-4201,12534,1125213,797790,2152689,0,0,0,450,321,347,294,230,348,485,309,387,331,319,422,0,,,
2,1778969535440,2325,-957,9250,53756,139277,41538,0,0,0,508,383,259,525,391,562,724,306,558,420,412,466,0,,,
1,1778969535456,1028,-2876,13017,1335351,1236391,1056796,0,0,0,452,318,342,296,232,346,484,313,383,333,321,424,0,,,
2,1778969535456,2297,-1019,9107,-28099,59864,46425,0,0,0,516,386,263,519,383,557,730,326,566,418,425,454,0,,,
1,1778969535472,-172,-2258,12543,1521054,1358564,-217468,0,0,0,448,319,341,300,231,345,484,314,385,335,324,424,0,,,
2,1778969535472,2316,-1033,9064,-123394,4886,47647,0,0,0,500,380,262,486,370,552,725,358,561,403,431,447,0,,,
1,1778969535488,-1134,-2191,11768,2061059,1142317,-962723,0,0,0,445,320,340,297,227,342,485,314,385,336,327,422,0,,,
2,1778969535488,2349,-1000,9112,-216246,-31764,40317,0,0,0,498,378,270,470,363,547,733,389,531,383,435,436,0,,,
1,1778969535504,-1478,-1507,11538,2668259,714712,-1401324,0,0,0,445,320,340,294,225,341,487,315,386,335,325,421,0,,,
2,1778969535504,2349,-866,9294,-296880,-89186,26878,0,0,0,509,396,282,454,361,560,749,424,528,388,462,437,0,,,
1,1778969535520,-684,-579,11849,3017674,271224,-1458746,0,0,0,450,311,340,294,215,344,488,315,388,333,324,418,0,,,
2,1778969535520,2297,-717,9557,-331088,-129503,14660,0,0,0,498,400,281,448,359,565,762,437,533,414,478,440,0,,,
1,1778969535536,138,-138,12002,3111747,158824,-1160643,0,0,0,453,299,342,292,200,346,480,309,388,335,326,413,0,,,
2,1778969535536,2220,-641,9758,-315206,-127059,9773,0,0,0,496,395,281,456,361,564,768,440,527,438,480,435,0,,,
1,1778969535552,464,492,12146,3187494,150272,-647517,0,0,0,451,301,345,291,198,351,473,304,388,340,328,418,0,,,
2,1778969535552,2206,-612,9820,-289550,-120951,10995,0,0,0,514,399,299,455,363,577,765,454,527,456,484,432,0,,,
1,1778969535568,425,1670,12414,3045774,155159,-4886,0,0,0,452,305,348,293,198,352,481,309,386,341,330,420,0,,,
2,1778969535568,2239,-593,9758,-265115,-135612,13439,0,0,0,503,392,314,461,356,557,773,453,509,454,482,422,0,,,
1,1778969535584,545,2455,12108,2456899,240680,572991,0,0,0,455,302,343,296,199,352,480,309,380,337,324,415,0,,,
2,1778969535584,2239,-536,9734,-232128,-163711,9773,0,0,0,500,381,311,467,360,543,784,445,516,458,511,432,0,,,
1,1778969535600,402,2388,11213,1952325,422718,1004262,0,0,0,448,307,351,292,197,347,490,303,380,346,326,420,0,,,
2,1778969535600,2220,-469,9767,-195476,-205250,8552,0,0,0,524,367,319,468,354,525,778,494,515,461,534,445,0,,,
1,1778969535616,-43,2172,10323,1690874,570548,1325577,0,0,0,453,310,360,291,198,350,478,309,380,347,331,426,0,,,
2,1778969535616,2311,-411,9834,-164933,-284663,12217,0,0,0,540,354,345,481,369,526,766,476,514,465,541,469,0,,,
1,1778969535632,-339,2158,9849,1568701,610865,1495398,0,0,0,450,295,344,292,201,350,476,307,380,344,329,421,0,,,
2,1778969535632,2517,-387,9844,-136833,-477696,1221,0,0,0,506,395,336,458,376,542,773,470,553,472,554,454,0,,,
1,1778969535648,-416,1947,9523,1477072,619417,1481959,0,0,0,449,310,353,295,202,350,478,312,378,347,333,423,0,,,
2,1778969535648,2435,-430,9767,-123394,-685390,-23212,0,0,0,504,411,368,472,389,526,761,485,514,465,550,426,0,,,
1,1778969535664,-655,1871,9418,1408655,581543,1309695,0,0,0,451,304,347,295,199,346,488,311,377,349,330,427,0,,,
2,1778969535664,1947,-502,9624,-131946,-790459,-40317,0,0,0,540,423,373,472,394,488,755,480,478,486,550,436,0,,,
1,1778969535680,-885,2311,9691,1142317,361632,1015258,0,0,0,447,302,345,299,202,349,491,314,376,352,332,429,0,,,
2,1778969535680,1488,-445,9605,-136833,-756251,-39095,0,0,0,548,425,405,463,377,477,715,495,455,491,546,434,0,,,
1,1778969535696,-732,2297,9763,713490,81855,706160,0,0,0,446,301,347,295,200,348,491,312,373,351,332,429,0,,,
2,1778969535696,1397,-339,9772,-103847,-634078,-23212,0,0,0,591,421,424,455,381,478,695,498,468,487,559,455,0,,,
1,1778969535712,-282,1474,9413,386066,-119729,498466,0,0,0,444,301,350,292,198,349,492,310,374,350,331,426,0,,,
2,1778969535712,1373,-368,9815,-50090,-531452,-13439,0,0,0,592,414,429,441,370,476,677,498,467,485,559,475,0,,,
1,1778969535728,95,914,9231,337197,-189368,478918,0,0,0,444,302,348,293,198,350,491,308,372,349,328,423,0,,,
2,1778969535728,1301,-411,9763,-7330,-422718,-2443,0,0,0,591,413,432,457,371,483,663,488,454,490,565,501,0,,,
1,1778969535744,473,808,9279,272445,-205250,522900,0,0,0,446,303,347,293,199,349,490,308,369,349,327,422,0,,,
2,1778969535744,1258,-411,9700,12217,-301767,8552,0,0,0,616,429,431,441,378,497,659,479,454,500,570,513,0,,,
1,1778969535760,756,942,9361,103847,-163711,645073,0,0,0,446,304,348,295,202,350,488,309,369,350,328,423,0,,,
2,1778969535760,1340,-397,9710,17104,-221133,19547,0,0,0,623,443,415,429,392,488,657,485,433,506,579,485,0,,,
1,1778969535776,722,1182,9265,-122173,-119729,801455,0,0,0,448,307,350,298,203,352,486,308,371,371,325,418,0,,,
2,1778969535776,1430,-402,9710,18325,-189368,23212,0,0,0,621,442,401,439,395,475,661,501,421,510,581,468,0,,,
1,1778969535792,469,1789,9227,-472809,-114842,929736,0,0,0,449,310,352,299,202,353,487,308,374,402,321,411,0,,,
2,1778969535792,1407,-416,9681,13439,-190589,19547,0,0,0,628,450,406,434,391,476,662,518,435,506,576,469,0,,,
1,1778969535808,277,2306,9169,-954171,-173485,880867,0,0,0,437,306,345,298,203,350,492,306,375,356,327,415,0,,,
2,1778969535808,1330,-406,9672,4886,-177150,15882,0,0,0,623,473,420,432,400,479,652,516,429,493,573,459,0,,,
1,1778969535824,186,2249,8982,-1325577,-206472,744033,0,0,0,423,307,342,300,204,350,501,308,375,350,324,406,0,,,
2,1778969535824,1316,-406,9672,-3665,-164933,15882,0,0,0,614,482,436,446,411,480,646,490,409,494,570,472,0,,,
1,1778969535840,-23,1957,8978,-1512502,-250454,576656,0,0,0,426,307,334,294,207,344,493,305,368,364,324,397,0,,,
2,1778969535840,1301,-430,9657,-19547,-164933,17104,0,0,0,610,484,444,425,420,473,639,501,404,485,585,495,0,,,
1,1778969535856,-181,1885,9571,-1662775,-395840,474031,0,0,0,432,317,336,310,223,347,495,295,369,358,326,387,0,,,
2,1778969535856,1249,-454,9614,-57421,-160046,24434,0,0,0,608,485,420,441,433,479,625,503,387,474,605,483,0,,,
1,1778969535872,-143,1507,10256,-1877799,-530231,420275,0,0,0,442,309,333,310,215,347,494,311,370,358,340,384,0,,,
2,1778969535872,1225,-435,9566,-107512,-151494,35430,0,0,0,606,492,439,434,432,465,630,512,384,495,593,466,0,,,
1,1778969535888,-363,894,10882,-2146580,-605978,454483,0,0,0,442,320,330,305,210,341,498,306,375,357,331,391,0,,,
2,1778969535888,1249,-349,9605,-139277,-150272,39095,0,0,0,600,481,424,450,436,465,616,493,394,521,609,477,0,,,
1,1778969535904,-794,315,11198,-2439795,-669508,583987,0,0,0,445,318,330,309,210,341,502,305,376,361,330,386,0,,,
2,1778969535904,1258,-282,9686,-146607,-156381,35430,0,0,0,613,486,430,427,422,480,617,483,396,542,601,469,0,,,
1,1778969535920,-985,-349,11265,-2576629,-579100,728151,0,0,0,455,308,315,312,200,332,508,298,372,383,327,381,0,,,
2,1778969535920,1196,-263,9758,-134390,-153938,30543,0,0,0,606,478,448,423,423,481,631,478,418,555,590,462,0,,,
1,1778969535936,-1622,-588,11409,-2486221,-334754,819781,0,0,0,454,309,311,327,199,332,508,292,372,393,327,380,0,,,
2,1778969535936,1162,-253,9786,-129503,-129503,34208,0,0,0,606,479,433,429,403,467,654,494,382,567,578,453,0,,,
1,1778969535952,-2713,-775,11682,-2392148,-244346,830776,0,0,0,450,308,308,343,204,331,510,286,381,397,331,380,0,,,
2,1778969535952,1196,-244,9825,-129503,-103847,37873,0,0,0,602,473,425,438,399,477,649,506,406,555,600,468,0,,,
1,1778969535968,-3172,-2091,11682,-2241875,-399505,734260,0,0,0,443,305,304,333,204,327,520,292,385,395,333,376,0,,,
2,1778969535968,1249,-239,9844,-130725,-95294,39095,0,0,0,610,474,445,437,407,454,642,517,383,567,632,474,0,,,
1,1778969535984,-3321,-3364,11562,-1923003,-535117,569326,0,0,0,438,306,307,316,202,329,522,298,385,395,333,376,0,,,
2,1778969535984,1263,-210,9853,-131946,-101403,35430,0,0,0,610,476,466,447,406,465,631,527,353,590,628,469,0,,,
1,1778969536000,-3814,-4101,11342,-1491732,-686612,350636,0,0,0,441,310,312,319,204,336,514,288,390,404,337,381,0,,,
2,1778969536000,1234,-162,9844,-130725,-114842,31764,0,0,0,612,478,494,433,405,459,632,515,351,603,616,467,0,,,
1,1778969536016,-4134,-4527,10997,-1065348,-913854,78190,0,0,0,443,311,313,321,210,343,513,287,388,404,337,382,0,,,
2,1778969536016,1191,-138,9834,-124616,-119729,30543,0,0,0,613,480,488,436,407,452,634,512,329,605,625,470,0,,,
1,1778969536032,-3933,-4895,10461,-599869,-1080009,-233350,0,0,0,447,308,314,321,206,347,518,286,387,404,334,384,0,,,
2,1778969536032,1143,-134,9806,-114842,-102625,30543,0,0,0,609,481,482,440,403,452,635,518,317,592,632,461,0,,,
1,1778969536048,-3517,-4608,9944,-120951,-1154535,-472809,0,0,0,453,313,320,320,208,347,512,280,394,401,326,398,0,,,
2,1778969536048,1129,-129,9801,-107512,-76969,30543,0,0,0,605,488,476,431,402,439,621,523,319,573,641,444,0,,,
1,1778969536064,-2957,-4273,9198,463035,-1323134,-625526,0,0,0,453,319,325,320,212,352,507,269,394,386,313,412,0,,,
2,1778969536064,1172,-110,9796,-103847,-63529,30543,0,0,0,598,495,452,424,398,430,607,529,314,565,653,431,0,,,
1,1778969536080,-2000,-4283,8198,1382998,-1562593,-579100,0,0,0,446,312,339,324,212,358,498,272,386,364,318,414,0,,,
2,1778969536080,1191,-90,9763,-103847,-67195,28099,0,0,0,590,492,430,421,397,433,617,540,318,565,651,428,0,,,
1,1778969536096,-1028,-4058,8212,2746450,-1555262,-362853,0,0,0,431,317,338,304,217,345,490,260,373,353,323,404,0,,,
2,1778969536096,1158,-52,9724,-109955,-75747,25656,0,0,0,587,487,414,427,406,436,637,546,322,573,651,434,0,,,
1,1778969536112,-804,-2943,9389,3904650,-1318247,-158824,0,0,0,453,358,315,326,255,348,486,239,380,368,296,428,0,,,
2,1778969536112,1139,-14,9763,-112399,-72082,26878,0,0,0,579,480,422,433,391,445,644,547,319,587,658,423,0,,,
1,1778969536128,469,1474,13405,3699399,-974940,194255,0,0,0,471,403,311,357,285,368,491,238,384,378,280,449,0,,,
2,1778969536128,1239,0,9916,-106290,-70860,25656,0,0,0,569,480,422,410,379,430,627,594,306,594,665,424,0,,,
1,1778969536144,2747,2287,14979,536339,-471587,725707,0,0,0,490,422,305,370,300,375,499,226,377,384,277,471,0,,,
2,1778969536144,1330,-9,10031,-85521,-87964,15882,0,0,0,566,486,401,382,361,400,616,581,294,586,662,440,0,,,
1,1778969536160,2694,-1340,11998,-1639562,56199,745255,0,0,0,506,435,312,380,319,377,509,217,364,387,277,501,0,,,
2,1778969536160,1225,0,9968,-58643,-107512,4886,0,0,0,558,501,385,388,400,390,606,584,277,561,661,420,0,,,
1,1778969536176,186,-3120,9509,-1737300,365297,343306,0,0,0,523,443,333,391,342,391,520,216,356,397,273,517,0,,,
2,1778969536176,1100,4,9897,-37873,-102625,3665,0,0,0,554,485,389,404,340,427,574,584,260,584,662,448,0,,,
1,1778969536192,454,-813,11083,-1125213,167377,152716,0,0,0,532,464,360,436,372,402,525,226,360,407,281,523,0,,,
2,1778969536192,1158,9,9954,-19547,-83077,2443,0,0,0,554,485,393,387,325,383,578,573,269,554,678,426,0,,,
1,1778969536208,952,0,11878,-926071,-28099,19547,0,0,0,546,484,362,452,377,407,542,234,355,419,293,534,0,,,
2,1778969536208,1268,28,10054,12217,-79412,-6108,0,0,0,540,496,394,383,352,378,588,550,268,579,675,416,0,,,
1,1778969536224,368,-622,11490,-861319,-177150,-122173,0,0,0,566,485,351,424,365,414,562,235,346,428,310,536,0,,,
2,1778969536224,1296,67,10122,72082,-96516,-29321,0,0,0,523,486,371,378,340,365,551,546,303,535,648,408,0,,,
1,1778969536240,-564,-1081,10921,-726929,-285884,-200363,0,0,0,570,486,359,430,378,415,565,248,354,431,331,534,0,,,
2,1778969536240,1201,86,10098,142942,-106290,-50090,0,0,0,530,491,381,379,334,381,533,495,289,502,622,400,0,,,
1,1778969536256,-1143,-971,10710,-583987,-337197,-189368,0,0,0,566,496,386,441,390,418,573,269,374,453,334,539,0,,,
2,1778969536256,1072,100,10002,224798,-85521,-59864,0,0,0,533,495,354,383,331,376,507,475,277,503,609,394,0,,,
1,1778969536272,-1162,-717,10667,-524122,-272445,-139277,0,0,0,575,506,405,426,377,419,586,272,388,465,350,538,0,,,
2,1778969536272,952,129,9906,311541,-43982,-58643,0,0,0,537,497,349,378,323,362,492,421,268,471,558,385,0,,,
1,1778969536288,-1043,-612,10504,-498466,-169820,-102625,0,0,0,574,507,422,433,380,443,577,272,408,469,346,553,0,,,
2,1778969536288,952,76,9920,384845,0,-40317,0,0,0,536,488,344,384,327,359,483,355,267,447,501,377,0,,,
1,1778969536304,-880,-593,10256,-474031,-85521,-78190,0,0,0,577,505,415,434,369,427,588,288,393,469,350,561,0,,,
2,1778969536304,1072,-19,9954,442266,17104,-19547,0,0,0,535,478,319,391,331,369,463,308,267,440,467,406,0,,,
1,1778969536320,-674,-555,10050,-452040,-68416,-67195,0,0,0,592,510,421,449,401,423,598,288,370,478,366,556,0,,,
2,1778969536320,1172,-148,9959,471587,-6108,-10995,0,0,0,529,467,310,408,317,372,447,268,272,428,407,398,0,,,
1,1778969536336,-397,-478,10093,-443488,-118507,-85521,0,0,0,593,512,434,454,403,425,614,302,385,494,400,557,0,,,
2,1778969536336,995,-162,10145,485026,-91629,3665,0,0,0,519,457,302,414,299,358,423,233,263,401,355,374,0,,,
1,1778969536352,-402,-397,10193,-439822,-188146,-122173,0,0,0,596,506,455,447,398,434,627,315,386,503,425,567,0,,,
2,1778969536352,976,-287,10452,527787,-251676,45204,0,0,0,513,449,292,400,293,348,401,220,252,380,348,377,0,,,
1,1778969536368,-641,-287,10198,-433714,-223576,-155159,0,0,0,601,515,501,503,413,438,640,378,389,519,427,555,0,,,
2,1778969536368,1363,-483,10614,630412,-278554,37873,0,0,0,507,433,296,383,288,344,394,222,264,364,341,361,0,,,
1,1778969536384,-880,-210,10169,-403171,-164933,-156381,0,0,0,592,517,506,468,398,443,656,428,387,531,442,553,0,,,
2,1778969536384,1497,-536,10715,745255,-152716,-15882,0,0,0,493,410,281,360,275,335,372,220,276,331,330,338,0,,,
1,1778969536400,-1057,-162,10179,-375071,-59864,-140499,0,0,0,589,513,504,448,381,446,674,444,399,559,470,549,0,,,
2,1778969536400,1363,-660,10710,851546,-24434,-70860,0,0,0,474,379,260,347,266,332,355,222,281,314,329,310,0,,,
1,1778969536416,-1076,-90,10222,-360410,45204,-109955,0,0,0,587,508,515,446,378,449,686,477,408,587,504,548,0,,,
2,1778969536416,1282,-861,10270,877202,-50090,-67195,0,0,0,464,334,263,354,241,324,377,214,257,326,322,272,0,,,
1,1778969536432,-909,-4,10236,-345749,125838,-79412,0,0,0,586,505,529,446,393,452,689,502,410,603,519,550,0,,,
2,1778969536432,1454,-1158,9629,792903,-111177,-40317,0,0,0,431,327,279,345,223,324,400,236,260,323,354,259,0,,,
1,1778969536448,-626,43,10203,-328645,124616,-67195,0,0,0,589,512,537,451,402,455,688,502,411,620,524,549,0,,,
2,1778969536448,1818,-1962,9380,494800,-249233,-7330,0,0,0,384,301,287,331,229,325,408,247,265,314,372,235,0,,,
1,1778969536464,-507,81,10189,-310319,48869,-75747,0,0,0,596,526,550,458,395,455,694,520,412,633,542,547,0,,,
2,1778969536464,1789,-3479,9581,102625,-524122,32986,0,0,0,379,294,275,317,214,314,401,214,266,318,363,253,0,,,
1,1778969536480,-583,143,10227,-285884,-29321,-84299,0,0,0,605,523,570,465,394,453,702,553,426,622,558,543,0,,,
2,1778969536480,1770,-6575,9739,-288328,-935845,206472,0,0,0,379,301,263,310,209,293,395,219,254,326,374,242,0,,,
1,1778969536496,-727,191,10299,-262672,-61086,-81855,0,0,0,596,515,563,463,397,453,708,551,424,629,576,542,0,,,
2,1778969536496,3077,-9447,9466,-536339,-926071,564439,0,0,0,392,296,278,304,206,289,397,229,255,316,370,251,0,,,
1,1778969536512,-732,224,10323,-245567,-52534,-73303,0,0,0,594,516,578,461,391,448,701,586,410,636,578,537,0,,,
2,1778969536512,3292,-10203,9557,-698829,-345749,779464,0,0,0,390,292,282,304,205,290,387,235,256,338,341,256,0,,,
1,1778969536528,-646,253,10323,-230907,-56199,-69638,0,0,0,598,522,590,474,372,444,706,579,414,640,577,535,0,,,
2,1778969536528,2431,-10002,9696,-678060,-105068,651182,0,0,0,381,288,291,296,206,293,384,233,273,321,356,257,0,,,
1,1778969536544,-598,291,10332,-208915,-87964,-74525,0,0,0,589,531,591,456,374,444,705,581,430,627,571,534,0,,,
2,1778969536544,1962,-8872,9499,-379958,-173485,266337,0,0,0,383,290,284,311,208,295,379,233,273,330,367,265,0,,,
1,1778969536560,-646,315,10294,-179594,-122173,-75747,0,0,0,586,537,612,440,364,444,701,606,437,642,573,520,0,,,
2,1778969536560,2148,-7087,9289,-40317,-195476,52534,0,0,0,381,290,286,322,212,311,379,238,277,324,367,252,0,,,
1,1778969536576,-708,344,10198,-155159,-139277,-73303,0,0,0,583,528,608,451,383,450,701,625,444,643,589,520,0,,,
2,1778969536576,2335,-5101,9073,152716,-100181,123394,0,0,0,367,290,292,313,215,316,382,238,282,319,369,246,0,,,
1,1778969536592,-741,373,10107,-138055,-129503,-68416,0,0,0,583,520,602,453,392,454,707,630,443,646,589,529,0,,,
2,1778969536592,1923,-3866,8384,307876,7330,221133,0,0,0,360,295,305,297,218,312,384,243,276,315,372,249,0,,,
1,1778969536608,-737,397,10059,-138055,-103847,-62308,0,0,0,579,514,596,442,386,444,706,639,438,635,589,522,0,,,
2,1778969536608,1225,-2660,7585,570548,63529,224798,0,0,0,368,299,317,294,218,314,384,249,269,308,370,248,0,,,
1,1778969536624,-737,425,10078,-146607,-79412,-59864,0,0,0,574,514,589,431,386,434,700,650,426,639,601,511,0,,,
2,1778969536624,440,-1282,6695,912632,36651,208915,0,0,0,375,293,313,302,214,318,384,247,270,308,368,248,0,,,
1,1778969536640,-741,445,10083,-152716,-53756,-54977,0,0,0,570,517,578,426,392,433,689,651,417,649,609,517,0,,,
2,1778969536640,-167,-1301,5302,1472185,-134390,218689,0,0,0,382,286,307,301,213,318,379,241,269,302,360,249,0,,,
1,1778969536656,-722,459,10016,-162490,-25656,-46425,0,0,0,566,515,572,421,391,426,693,651,415,658,607,518,0,,,
2,1778969536656,478,-2139,3886,2642603,-270002,147829,0,0,0,418,307,309,298,224,310,356,224,269,286,325,262,0,,,
1,1778969536672,-684,497,9944,-180816,-6108,-37873,0,0,0,559,506,572,423,385,419,707,661,419,662,605,500,0,,,
2,1778969536672,2268,2885,5092,3805690,75747,-73303,0,0,0,469,351,318,306,260,315,346,208,275,290,295,325,0,,,
1,1778969536688,-641,559,9906,-205250,1221,-30543,0,0,0,549,501,571,426,377,422,710,671,419,666,613,477,0,,,
2,1778969536688,2656,18099,11495,2830749,816115,-950506,0,0,0,486,387,325,314,297,328,356,211,264,290,293,374,0,,,
1,1778969536704,-612,607,9906,-224798,0,-25656,0,0,0,541,500,561,403,380,413,720,665,397,684,623,457,0,,,
2,1778969536704,-3321,25240,18966,-604756,928515,-2130697,0,0,0,515,425,294,339,331,337,382,211,263,321,283,384,0,,,
1,1778969536720,-612,665,10088,-234572,-3665,-25656,0,0,0,538,499,554,393,389,414,722,673,389,687,622,444,0,,,
2,1778969536720,-7552,7863,20186,-1865582,-211359,-1506393,0,0,0,533,454,289,339,335,336,396,206,276,325,290,390,0,,,
1,1778969536736,-717,732,10461,-201585,-6108,-26878,0,0,0,544,518,555,402,362,420,711,672,373,678,612,458,0,,,
2,1778969536736,-6637,-4331,18363,-852767,-466701,-271224,0,0,0,544,419,281,350,319,332,383,213,269,348,307,381,0,,,
1,1778969536752,-770,813,10562,-96516,3665,-14660,0,0,0,551,521,560,390,347,417,701,666,371,677,618,469,0,,,
2,1778969536752,-3512,-2402,15879,861319,384845,629191,0,0,0,499,375,310,344,300,325,393,194,287,345,319,354,0,,,
1,1778969536768,-665,861,10299,1221,8552,-3665,0,0,0,543,517,554,396,357,415,712,678,374,680,618,472,0,,,
2,1778969536768,-363,-373,14663,1477072,912632,825889,0,0,0,482,323,274,317,249,309,349,204,281,326,304,315,0,,,
1,1778969536784,-540,832,10002,58643,-1221,-2443,0,0,0,548,517,568,396,357,415,712,674,374,673,612,457,0,,,
2,1778969536784,2105,-2177,13103,1643227,1037249,770911,0,0,0,447,315,268,309,233,288,428,248,271,310,305,281,0,,,
1,1778969536800,-449,741,9849,74525,-21991,-9773,0,0,0,545,512,557,452,396,437,700,674,381,674,618,473,0,,,
2,1778969536800,1105,-4891,11380,1494176,833220,663399,0,0,0,455,322,276,303,231,282,429,265,272,314,323,277,0,,,
1,1778969536816,-449,665,9806,46425,-46425,-23212,0,0,0,547,513,560,420,376,432,704,673,378,680,625,476,0,,,
2,1778969536816,172,-6144,9576,1196074,773355,851546,0,0,0,459,315,272,290,224,278,419,265,266,312,324,267,0,,,
1,1778969536832,-521,636,9767,-7330,-62308,-36651,0,0,0,546,514,565,404,362,424,704,670,379,673,622,465,0,,,
2,1778969536832,459,-5939,8997,658512,1297477,1131322,0,0,0,453,317,278,284,223,278,417,272,267,301,325,259,0,,,
1,1778969536848,-598,641,9767,-65973,-51312,-45204,0,0,0,546,513,563,402,369,433,708,688,372,673,623,464,0,,,
2,1778969536848,-1182,-5168,9600,75747,1188743,1109331,0,0,0,428,337,284,284,234,282,410,271,270,303,337,266,0,,,
1,1778969536864,-646,679,9868,-109955,-19547,-45204,0,0,0,551,520,568,401,372,430,712,696,385,675,634,473,0,,,
2,1778969536864,-1521,-4101,9126,-334754,491135,701273,0,0,0,405,341,283,282,240,290,401,265,273,303,341,269,0,,,
1,1778969536880,-631,722,10050,-135612,7330,-40317,0,0,0,555,524,569,401,372,425,716,704,404,677,648,464,0,,,
2,1778969536880,-1052,-2345,7776,-805120,-250454,-125838,0,0,0,394,329,279,280,236,283,398,270,268,300,351,265,0,,,
1,1778969536896,-583,770,10155,-136833,18325,-36651,0,0,0,549,518,578,396,367,419,719,706,411,678,651,461,0,,,
2,1778969536896,-746,-1287,6618,-1279151,-646295,-918741,0,0,0,387,338,273,276,244,265,392,277,254,306,368,279,0,,,
1,1778969536912,-536,818,10145,-119729,17104,-34208,0,0,0,547,515,585,390,362,411,726,704,416,682,656,466,0,,,
2,1778969536912,-277,-579,5915,-1649336,-938289,-1604132,0,0,0,381,350,271,271,259,273,387,274,249,308,372,317,0,,,
1,1778969536928,-521,866,10107,-108734,13439,-31764,0,0,0,557,520,584,392,363,408,735,706,414,682,664,457,0,,,
2,1778969536928,119,19,5857,-1921782,-1091005,-2042733,0,0,0,376,335,271,276,252,292,393,264,258,308,373,330,0,,,
1,1778969536944,-521,918,10145,-92851,13439,-26878,0,0,0,559,522,589,397,365,415,736,708,401,686,665,451,0,,,
2,1778969536944,373,263,6006,-2145358,-1143539,-2157576,0,0,0,379,333,266,287,246,278,397,259,253,307,369,277,0,,,
1,1778969536960,-512,942,10222,-63529,10995,-23212,0,0,0,552,524,583,397,364,425,735,709,403,696,669,462,0,,,
2,1778969536960,583,253,6168,-2243097,-1143539,-1953547,0,0,0,371,326,268,285,245,278,399,260,254,302,360,268,0,,,
1,1778969536976,-464,928,10251,-19547,-4886,-21991,0,0,0,555,523,591,398,361,422,733,713,405,688,657,452,0,,,
2,1778969536976,990,-19,6154,-2175901,-1134987,-1483180,0,0,0,363,312,269,298,279,298,384,281,246,292,366,264,0,,,
1,1778969536992,-421,918,10203,15882,-34208,-23212,0,0,0,558,524,590,402,364,416,729,709,400,688,659,455,0,,,
2,1778969536992,2062,-220,6010,-1898569,-959058,-840550,0,0,0,375,315,270,291,255,282,391,284,251,309,387,279,0,,,
1,1778969537008,-402,894,10107,39095,-70860,-26878,0,0,0,558,518,589,409,370,410,725,706,383,690,661,454,0,,,
2,1778969537008,3053,119,6489,-1657888,-522900,-97738,0,0,0,374,330,254,292,258,282,389,289,251,301,399,269,0,,,
1,1778969537024,-416,847,9997,41538,-100181,-31764,0,0,0,559,499,595,423,364,416,736,710,402,697,664,456,0,,,
2,1778969537024,3187,-248,7044,-1633453,-127059,538783,0,0,0,370,333,274,288,250,284,394,281,254,302,398,263,0,,,
1,1778969537040,-425,794,9901,9773,-122173,-39095,0,0,0,554,493,600,398,355,410,730,716,418,697,669,460,0,,,
2,1778969537040,3508,-1249,7260,-1496619,142942,1039692,0,0,0,370,325,275,288,247,289,400,251,255,311,389,268,0,,,
1,1778969537056,-459,794,9858,-35430,-133168,-48869,0,0,0,544,493,601,393,349,410,731,711,407,692,670,451,0,,,
2,1778969537056,4111,-1933,7552,-1197295,381179,1266934,0,0,0,372,324,273,298,254,293,407,286,260,313,395,267,0,,,
1,1778969537072,-536,904,9920,-70860,-118507,-54977,0,0,0,547,486,600,395,355,411,723,709,403,693,675,464,0,,,
2,1778969537072,4355,-2306,8222,-824668,696386,1315803,0,0,0,359,319,266,292,244,288,387,255,250,314,387,272,0,,,
1,1778969537088,-550,957,10021,-79412,-94073,-56199,0,0,0,546,481,597,384,341,406,726,714,403,691,674,472,0,,,
2,1778969537088,4335,-2900,8829,-335975,977384,1282817,0,0,0,355,314,276,262,232,303,378,243,292,306,375,294,0,,,
1,1778969537104,-492,923,10102,-73303,-90408,-56199,0,0,0,548,479,595,379,323,404,726,712,398,686,669,469,0,,,
2,1778969537104,4551,-3522,9102,277332,1171639,1159422,0,0,0,361,301,281,259,218,305,396,235,296,295,340,278,0,,,
1,1778969537120,-488,923,10107,-68416,-109955,-62308,0,0,0,546,475,598,378,318,404,727,713,393,688,673,472,0,,,
2,1778969537120,3986,-3637,10078,1119105,1210734,1014036,0,0,0,364,293,293,265,212,296,418,244,275,296,345,263,0,,,
1,1778969537136,-526,985,10093,-59864,-119729,-68416,0,0,0,542,467,600,379,323,404,736,716,396,695,683,476,0,,,
2,1778969537136,1182,823,16501,1364672,340862,1058018,0,0,0,369,299,295,272,215,281,428,298,259,314,393,264,0,,,
1,1778969537152,-588,1057,10074,-39095,-108734,-70860,0,0,0,542,459,592,382,324,406,738,708,397,701,686,476,0,,,
2,1778969537152,502,2751,20665,-419053,-803898,979827,0,0,0,379,303,293,292,222,271,462,346,247,335,435,265,0,,,
1,1778969537168,-583,1028,10136,-14660,-86742,-67195,0,0,0,542,454,584,384,320,413,735,706,390,701,686,469,0,,,
2,1778969537168,1153,1091,14845,-1971872,-117286,296880,0,0,0,386,310,297,291,228,268,481,359,240,360,477,270,0,,,
1,1778969537184,-583,1005,10294,13439,-83077,-64751,0,0,0,543,449,574,388,315,416,734,717,378,696,683,455,0,,,
2,1778969537184,2220,1698,10299,-1527163,482583,133168,0,0,0,400,312,311,278,219,269,475,359,244,385,512,278,0,,,
1,1778969537200,-588,1043,10404,63529,-101403,-63529,0,0,0,547,442,551,392,310,401,729,711,369,694,675,461,0,,,
2,1778969537200,2560,1737,10270,-469144,123394,179594,0,0,0,414,309,331,288,205,281,488,370,253,399,521,288,0,,,
1,1778969537216,-583,1048,10404,140499,-133168,-54977,0,0,0,537,443,553,363,305,398,723,703,385,687,667,459,0,,,
2,1778969537216,1775,933,10906,20769,-272445,117286,0,0,0,407,325,328,304,223,290,498,388,263,407,524,299,0,,,
1,1778969537232,-593,990,10327,208915,-164933,-45204,0,0,0,530,442,551,369,302,382,712,702,402,681,667,470,0,,,
2,1778969537232,832,378,10500,31764,-211359,36651,0,0,0,411,337,313,327,243,275,499,389,258,422,527,276,0,,,
1,1778969537248,-617,947,10189,255341,-180816,-40317,0,0,0,528,437,525,411,293,381,699,686,391,674,658,462,0,,,
2,1778969537248,909,181,9734,7330,57421,51312,0,0,0,416,317,308,296,206,280,490,411,248,397,530,276,0,,,
1,1778969537264,-617,880,9987,274889,-179594,-37873,0,0,0,523,435,515,394,290,391,693,671,399,667,651,449,0,,,
2,1778969537264,1277,129,9361,-52534,186924,94073,0,0,0,411,315,313,289,211,279,498,455,261,391,562,281,0,,,
1,1778969537280,-598,746,9801,254119,-177150,-39095,0,0,0,519,419,484,382,294,374,687,660,383,667,655,455,0,,,
2,1778969537280,1478,234,9370,-178372,135612,120951,0,0,0,411,315,319,296,213,286,503,440,244,422,556,285,0,,,
1,1778969537296,-622,689,9676,180816,-166155,-45204,0,0,0,521,419,482,359,287,373,673,651,379,660,655,453,0,,,
2,1778969537296,1555,435,9480,-293215,43982,116064,0,0,0,421,326,321,294,209,280,510,495,241,454,566,280,0,,,
1,1778969537312,-703,784,9715,100181,-118507,-46425,0,0,0,524,422,487,353,283,371,669,649,375,656,654,451,0,,,
2,1778969537312,1631,588,9629,-353080,-39095,97738,0,0,0,409,312,362,293,209,298,534,502,257,495,575,298,0,,,
1,1778969537328,-756,827,9911,59864,-56199,-45204,0,0,0,528,424,482,360,286,372,664,649,372,653,652,452,0,,,
2,1778969537328,1603,684,9715,-367740,-113620,74525,0,0,0,411,317,372,293,200,302,529,496,254,486,594,289,0,,,
1,1778969537344,-727,808,10117,70860,-20769,-34208,0,0,0,529,430,485,367,288,374,663,652,377,650,650,452,0,,,
2,1778969537344,1507,804,9719,-366519,-174707,56199,0,0,0,409,316,376,286,195,304,535,495,253,472,609,304,0,,,
1,1778969537360,-674,799,10184,98960,-17104,-26878,0,0,0,521,429,488,369,289,377,657,644,365,647,645,449,0,,,
2,1778969537360,1359,938,9724,-334754,-211359,40317,0,0,0,412,320,383,290,210,301,554,537,253,491,634,288,0,,,
1,1778969537376,-631,794,10169,130725,-31764,-25656,0,0,0,527,422,491,370,283,379,648,629,352,646,642,450,0,,,
2,1778969537376,1287,981,9810,-271224,-200363,29321,0,0,0,424,336,364,304,211,293,572,540,248,512,640,279,0,,,
1,1778969537392,-612,784,10169,162490,-50090,-26878,0,0,0,530,418,507,360,276,377,641,626,356,641,638,455,0,,,
2,1778969537392,1253,990,9863,-193033,-166155,17104,0,0,0,420,330,368,308,205,295,605,526,246,509,643,278,0,,,
1,1778969537408,-636,765,10241,201585,-73303,-28099,0,0,0,516,418,509,344,280,375,628,618,357,627,625,462,0,,,
2,1778969537408,1229,1000,9825,-114842,-122173,0,0,0,0,412,324,372,304,197,293,612,536,235,522,653,273,0,,,
1,1778969537424,-703,746,10313,255341,-90408,-29321,0,0,0,523,426,490,353,284,372,610,585,352,619,612,466,0,,,
2,1778969537424,1191,1148,9643,-13439,-100181,-28099,0,0,0,405,321,360,304,200,287,614,565,232,526,667,277,0,,,
1,1778969537440,-751,732,10342,321315,-86742,-20769,0,0,0,525,433,487,358,288,375,598,556,335,610,595,469,0,,,
2,1778969537440,1182,1220,9614,130725,-95294,-70860,0,0,0,408,331,373,306,209,294,617,594,243,526,680,289,0,,,
1,1778969537456,-756,708,10385,400727,-76969,-9773,0,0,0,517,437,462,350,288,367,575,501,343,595,572,474,0,,,
2,1778969537456,1258,871,9901,224798,-83077,-95294,0,0,0,420,345,398,325,214,321,609,603,242,530,686,299,0,,,
1,1778969537472,-717,636,10447,498466,-81855,0,0,0,0,514,437,449,349,287,360,568,458,359,558,550,484,0,,,
2,1778969537472,1273,564,9940,191811,-56199,-80634,0,0,0,424,359,412,348,229,351,618,597,241,541,686,315,0,,,
1,1778969537488,-670,526,10471,590095,-123394,12217,0,0,0,513,441,436,347,293,369,554,385,359,527,486,484,0,,,
2,1778969537488,1239,531,9753,113620,-35430,-62308,0,0,0,424,371,417,344,240,362,648,597,253,560,689,329,0,,,
1,1778969537504,-670,430,10538,697608,-191811,29321,0,0,0,506,445,421,354,299,371,534,338,345,538,440,478,0,,,
2,1778969537504,1225,641,9542,25656,-28099,-54977,0,0,0,440,353,417,340,217,374,665,607,265,555,702,330,0,,,
1,1778969537520,-1091,387,10681,800233,-178372,56199,0,0,0,506,437,397,343,302,360,521,309,345,506,425,482,0,,,
2,1778969537520,1292,794,9614,-4886,-39095,-67195,0,0,0,440,356,508,349,228,420,688,590,320,569,698,392,0,,,
1,1778969537536,-1469,363,10873,913854,26878,105068,0,0,0,501,444,384,347,300,346,502,287,340,490,423,481,0,,,
2,1778969537536,1435,981,9873,37873,-84299,-91629,0,0,0,424,385,542,365,257,423,686,586,312,563,694,391,0,,,
1,1778969537552,-1158,134,11141,1033583,343306,134390,0,0,0,491,447,389,337,294,351,491,280,337,475,411,479,0,,,
2,1778969537552,1507,981,10093,153938,-166155,-120951,0,0,0,445,385,489,387,280,424,678,577,325,555,686,382,0,,,
1,1778969537568,-933,-129,11256,1133765,469144,156381,0,0,0,485,437,370,327,304,357,481,286,333,455,400,471,0,,,
2,1778969537568,1450,818,10232,268780,-233350,-145385,0,0,0,463,414,545,438,279,423,672,583,299,552,684,371,0,,,
1,1778969537584,-923,-402,11122,1189965,458148,184481,0,0,0,481,420,345,328,303,350,478,297,333,443,399,452,0,,,
2,1778969537584,1344,674,10169,335975,-265115,-147829,0,0,0,490,452,512,444,331,438,673,574,305,550,672,348,0,,,
1,1778969537600,-1067,-823,10839,1165530,537561,194255,0,0,0,474,399,356,322,277,349,483,301,337,437,395,440,0,,,
2,1778969537600,1182,598,9978,350636,-263893,-130725,0,0,0,466,446,519,411,347,422,705,593,353,553,660,373,0,,,
1,1778969537616,-1229,-1210,10567,994488,701273,164933,0,0,0,465,368,375,323,256,355,484,299,344,434,392,436,0,,,
2,1778969537616,1052,516,9892,359188,-228463,-117286,0,0,0,488,444,518,421,360,447,675,589,366,540,650,382,0,,,
1,1778969537632,-1143,-1560,10131,614530,974940,74525,0,0,0,462,330,369,331,230,350,493,299,355,444,394,417,0,,,
2,1778969537632,1000,492,9892,375071,-157603,-107512,0,0,0,483,518,541,380,358,468,670,579,362,529,635,404,0,,,
1,1778969537648,-1067,-1670,9748,135612,1296256,-74525,0,0,0,468,318,333,307,218,334,505,302,355,446,390,402,0,,,
2,1778969537648,1005,459,9858,386066,-95294,-94073,0,0,0,478,528,521,372,362,468,687,573,380,539,618,406,0,,,
1,1778969537664,-2488,-1885,9303,-398284,1387885,-428827,0,0,0,462,315,333,315,215,339,509,302,349,444,411,414,0,,,
2,1778969537664,1014,363,9796,371406,-48869,-76969,0,0,0,490,527,534,381,364,475,688,560,376,544,607,416,0,,,
1,1778969537680,-4848,-2110,8590,-888198,345749,-1172861,0,0,0,460,323,340,336,212,339,514,306,360,444,416,399,0,,,
2,1778969537680,1072,248,9734,323758,-28099,-61086,0,0,0,500,527,548,393,367,495,684,560,378,530,595,450,0,,,
1,1778969537696,-4369,-2579,7997,-1033583,-615752,-1759291,0,0,0,455,324,334,332,210,351,514,313,360,448,415,401,0,,,
2,1778969537696,1124,138,9624,259006,-30543,-52534,0,0,0,510,512,548,396,369,507,678,559,392,516,585,471,0,,,
1,1778969537712,-2632,-2986,7604,-722042,-948062,-1891238,0,0,0,453,330,328,341,218,334,506,318,354,452,413,397,0,,,
2,1778969537712,1091,81,9480,174707,-47647,-50090,0,0,0,518,494,541,396,373,507,683,559,407,518,586,467,0,,,
1,1778969537728,-1220,-2660,7987,-243124,-1042136,-1671327,0,0,0,451,321,329,338,215,337,510,315,353,451,414,401,0,,,
2,1778969537728,961,90,9418,74525,-43982,-35430,0,0,0,522,493,540,401,375,511,695,565,414,527,588,466,0,,,
1,1778969537744,-449,-2134,8729,1221,-1161865,-1540602,0,0,0,463,313,320,321,213,342,521,315,349,442,417,385,0,,,
2,1778969537744,938,205,9437,-12217,-23212,-7330,0,0,0,520,508,557,398,378,516,688,562,414,530,591,479,0,,,
1,1778969537760,191,-1708,9394,-15882,-1170417,-1429424,0,0,0,468,306,321,316,208,343,527,320,351,447,417,391,0,,,
2,1778969537760,1186,421,9715,-6108,-32986,0,0,0,0,509,518,567,386,388,515,683,552,422,525,594,495,0,,,
1,1778969537776,842,-1947,9169,-58643,-889419,-1099557,0,0,0,467,297,321,312,196,341,529,319,351,448,415,394,0,,,
2,1778969537776,1287,392,10059,103847,-75747,-28099,0,0,0,508,507,557,383,386,503,691,529,432,530,589,469,0,,,
1,1778969537792,1268,-2249,8475,160046,-616973,-649960,0,0,0,467,294,321,310,186,341,530,317,355,445,414,395,0,,,
2,1778969537792,1143,263,10102,193033,-75747,-51312,0,0,0,513,500,560,394,363,496,668,511,428,540,581,445,0,,,
1,1778969537808,1282,-1861,8054,785572,-463035,-280998,0,0,0,470,293,322,308,185,340,532,326,365,445,407,408,0,,,
2,1778969537808,957,167,9897,223576,-24434,-50090,0,0,0,534,479,566,416,331,484,680,507,400,547,566,465,0,,,
1,1778969537824,478,-411,8839,1363451,-378736,-359188,0,0,0,473,306,337,311,195,344,528,321,364,448,399,426,0,,,
2,1778969537824,981,134,9767,204028,31764,-28099,0,0,0,542,484,569,424,345,494,670,498,383,534,566,460,0,,,
1,1778969537840,478,780,9920,1582140,-276111,-579100,0,0,0,478,345,366,321,216,359,525,297,354,452,393,437,0,,,
2,1778969537840,1115,86,9820,182037,58643,-8552,0,0,0,553,492,563,428,345,484,665,488,377,553,567,436,0,,,
1,1778969537856,4130,4819,13204,1120326,188146,-420275,0,0,0,493,383,380,325,238,370,535,298,361,456,389,446,0,,,
2,1778969537856,1258,23,9916,157603,46425,-1221,0,0,0,526,494,553,428,353,483,663,488,375,557,571,428,0,,,
1,1778969537872,4881,4407,13582,-12217,599869,397062,0,0,0,498,394,390,326,245,376,536,295,361,476,397,461,0,,,
2,1778969537872,1234,-81,9743,111177,28099,0,0,0,0,515,469,552,430,358,493,674,500,382,564,579,421,0,,,
1,1778969537888,3527,-660,11998,-566882,493579,629191,0,0,0,506,399,397,340,251,381,542,301,361,491,412,473,0,,,
2,1778969537888,942,-248,9250,-7330,62308,12217,0,0,0,503,429,535,415,336,494,671,509,384,565,590,412,0,,,
1,1778969537904,1359,-2038,10940,-223576,53756,53756,0,0,0,503,397,382,405,276,386,539,304,361,499,411,470,0,,,
2,1778969537904,756,-349,8791,-271224,157603,76969,0,0,0,487,410,504,367,275,456,657,520,383,540,607,375,0,,,
1,1778969537920,129,-1268,10390,-4886,-256563,-321315,0,0,0,502,369,382,333,230,384,548,303,347,492,400,452,0,,,
2,1778969537920,875,-339,8652,-626747,219911,163711,0,0,0,476,368,440,361,236,386,658,564,340,533,611,321,0,,,
1,1778969537936,-100,-569,10165,-26878,-326202,-361632,0,0,0,498,380,365,334,239,386,547,316,353,492,400,453,0,,,
2,1778969537936,1225,-162,9002,-974940,197920,224798,0,0,0,472,354,411,360,230,370,676,582,330,529,629,303,0,,,
1,1778969537952,-9,-751,10327,-52534,-300545,-345749,0,0,0,509,390,379,325,233,377,551,312,347,487,403,453,0,,,
2,1778969537952,1646,234,9614,-1225395,65973,224798,0,0,0,456,363,414,347,222,363,690,598,312,549,650,330,0,,,
1,1778969537968,-641,-775,10662,67195,-178372,-404392,0,0,0,508,390,366,330,243,383,548,311,346,482,412,459,0,,,
2,1778969537968,1785,708,9964,-1301142,-106290,188146,0,0,0,452,385,408,329,238,346,695,615,286,602,681,323,0,,,
1,1778969537984,-2187,-478,10916,230907,-1221,-371406,0,0,0,507,400,373,327,245,379,527,307,339,484,418,459,0,,,
2,1778969537984,1564,1024,10088,-1203404,-254119,151494,0,0,0,452,371,402,334,250,335,697,643,271,651,714,293,0,,,
1,1778969538000,-2723,-358,11543,401949,103847,-136833,0,0,0,498,404,369,333,260,381,515,306,343,494,425,470,0,,,
2,1778969538000,1306,1268,10107,-1033583,-311541,142942,0,0,0,455,335,400,344,236,327,698,675,270,665,735,294,0,,,
1,1778969538016,-2129,-478,12409,640186,183259,74525,0,0,0,486,409,366,330,272,388,508,315,352,492,424,483,0,,,
2,1778969538016,1048,1588,10064,-807563,-259006,134390,0,0,0,464,329,401,342,230,329,703,696,276,654,754,296,0,,,
1,1778969538032,-1296,-612,13242,990823,321315,191811,0,0,0,481,422,363,320,272,366,493,322,342,477,414,477,0,,,
2,1778969538032,928,1832,10078,-529009,-89186,102625,0,0,0,456,328,422,350,230,343,710,719,277,646,777,289,0,,,
1,1778969538048,-1320,-713,13687,1413542,509461,234572,0,0,0,477,427,352,316,271,334,473,316,325,455,402,466,0,,,
2,1778969538048,1005,1789,10112,-270002,111177,65973,0,0,0,439,335,424,358,232,337,714,732,287,648,783,302,0,,,
1,1778969538064,-1430,-1014,14209,1821600,702495,285884,0,0,0,472,412,347,316,267,333,458,314,320,438,402,463,0,,,
2,1778969538064,1258,1598,10078,-119729,235793,50090,0,0,0,438,330,410,378,258,346,713,729,303,650,770,293,0,,,
1,1778969538080,-1660,-1253,14955,2180788,935845,324980,0,0,0,467,384,347,319,253,333,454,322,318,438,410,443,0,,,
2,1778969538080,1469,1584,9853,-35430,224798,31764,0,0,0,434,323,431,347,229,351,709,722,282,664,772,282,0,,,
1,1778969538096,-2038,-1086,15506,2354274,1203404,359188,0,0,0,458,339,350,306,226,336,457,327,327,422,402,427,0,,,
2,1778969538096,1497,1550,9643,13439,158824,13439,0,0,0,426,331,391,345,250,329,698,711,277,668,778,256,0,,,
1,1778969538112,-2493,-746,15151,2366491,1599245,375071,0,0,0,454,309,375,287,202,337,471,345,335,410,401,436,0,,,
2,1778969538112,1421,1421,9576,24434,96516,8552,0,0,0,423,321,403,339,232,344,700,709,279,648,775,288,0,,,
1,1778969538128,-4211,923,13620,2205223,2053728,357967,0,0,0,457,321,376,283,210,332,470,343,343,399,396,440,0,,,
2,1778969538128,1416,1344,9667,31764,68416,23212,0,0,0,440,333,398,337,231,349,697,721,297,651,775,256,0,,,
1,1778969538144,-8485,5623,11600,1543045,1362229,353080,0,0,0,457,323,369,287,213,334,468,337,336,398,403,442,0,,,
2,1778969538144,1469,1359,9739,52534,57421,25656,0,0,0,438,332,386,357,238,339,701,720,272,673,772,277,0,,,
1,1778969538160,-8901,9102,10270,713490,-69638,304210,0,0,0,455,322,370,282,206,334,468,336,335,392,401,439,0,,,
2,1778969538160,1459,1430,9614,80634,39095,8552,0,0,0,451,355,386,350,275,335,699,726,278,675,768,262,0,,,
1,1778969538176,-5800,10342,9408,222354,-1000597,-15882,0,0,0,454,319,365,286,207,338,470,340,336,391,407,439,0,,,
2,1778969538176,1416,1483,9423,102625,12217,-3665,0,0,0,444,363,381,311,260,319,673,710,310,680,767,240,0,,,
1,1778969538192,-3718,10849,9083,95294,-1214400,-555887,0,0,0,454,319,360,288,209,337,475,342,332,395,411,440,0,,,
2,1778969538192,1474,1545,9308,133168,-29321,-19547,0,0,0,436,361,370,321,263,321,696,727,305,674,769,242,0,,,
1,1778969538208,-2364,11237,9002,-186924,-1458746,-968832,0,0,0,454,327,357,300,222,336,476,348,335,386,405,445,0,,,
2,1778969538208,1531,1502,9370,182037,-103847,-34208,0,0,0,426,359,375,323,271,333,699,727,311,674,771,251,0,,,
1,1778969538224,-1363,11203,8944,-676838,-1685988,-1176526,0,0,0,451,328,354,294,221,334,474,345,335,390,399,444,0,,,
2,1778969538224,1483,1349,9499,208915,-166155,-45204,0,0,0,449,358,386,347,276,339,700,720,311,669,769,261,0,,,
1,1778969538240,-650,10720,9088,-1177748,-1791056,-1193630,0,0,0,452,327,359,289,217,335,466,337,336,385,394,443,0,,,
2,1778969538240,1397,1258,9585,207694,-199142,-47647,0,0,0,455,356,429,363,275,351,709,711,300,667,765,280,0,,,
1,1778969538256,62,9356,9786,-1802052,-1759291,-1155757,0,0,0,453,326,359,289,216,338,469,337,336,382,392,444,0,,,
2,1778969538256,1354,1344,9643,224798,-207694,-43982,0,0,0,449,369,434,363,278,347,714,713,291,664,759,286,0,,,
1,1778969538272,268,7599,10500,-2262644,-1604132,-1116661,0,0,0,453,325,357,292,215,341,480,338,337,387,392,446,0,,,
2,1778969538272,1292,1344,9763,273667,-199142,-48869,0,0,0,447,379,424,358,276,340,709,717,295,652,752,284,0,,,
1,1778969538288,-52,5479,10983,-2597398,-1370781,-1043357,0,0,0,453,325,360,294,213,344,481,338,337,390,394,447,0,,,
2,1778969538288,1263,1258,9839,333532,-157603,-61086,0,0,0,444,395,439,350,275,350,700,703,302,649,744,299,0,,,
1,1778969538304,-583,3364,11246,-2819753,-1143539,-929736,0,0,0,454,325,366,289,211,344,478,340,337,384,399,448,0,,,
2,1778969538304,1344,1296,9839,416610,-123394,-78190,0,0,0,449,420,458,350,291,355,707,679,304,657,735,322,0,,,
1,1778969538320,-1172,1507,11318,-2904053,-992045,-766025,0,0,0,456,326,374,284,207,339,480,338,339,378,407,447,0,,,
2,1778969538320,1454,1282,9925,518013,-142942,-98960,0,0,0,443,416,511,362,291,375,712,654,321,648,727,353,0,,,
1,1778969538336,-1631,-105,11457,-2916270,-962723,-535117,0,0,0,459,330,378,291,212,343,478,338,338,378,407,446,0,,,
2,1778969538336,1483,1210,10054,648738,-222354,-118507,0,0,0,436,436,538,382,292,416,700,619,338,644,702,384,0,,,
1,1778969538352,-1837,-1608,11677,-2955366,-1009149,-279776,0,0,0,458,327,378,289,214,348,478,339,346,378,408,447,0,,,
2,1778969538352,1325,1024,10169,789237,-296880,-136833,0,0,0,458,451,587,385,304,450,698,577,360,636,659,417,0,,,
1,1778969538368,-1617,-2909,11677,-2983465,-1038470,-65973,0,0,0,458,328,378,287,210,348,478,344,351,387,416,451,0,,,
2,1778969538368,1062,780,10212,915076,-265115,-144164,0,0,0,499,477,597,399,327,461,698,554,375,587,636,442,0,,,
1,1778969538384,-1296,-4206,11500,-2956587,-1003040,98960,0,0,0,458,329,381,292,214,350,483,338,348,381,409,449,0,,,
2,1778969538384,976,593,10212,1038470,-87964,-146607,0,0,0,560,514,617,435,329,483,697,461,397,531,594,450,0,,,
1,1778969538400,-1048,-5833,11083,-2833192,-883311,136833,0,0,0,457,328,376,291,214,350,486,340,346,380,410,451,0,,,
2,1778969538400,1177,435,10394,1167974,75747,-155159,0,0,0,584,568,649,455,382,515,675,375,406,514,528,459,0,,,
1,1778969538416,-1095,-7992,10552,-2557081,-726929,-58643,0,0,0,455,329,366,291,215,345,487,336,342,383,410,452,0,,,
2,1778969538416,1780,392,10878,1318247,84299,-182037,0,0,0,633,622,602,504,414,540,649,306,409,471,464,511,0,,,
1,1778969538432,-1407,-10715,9964,-2018298,-660956,-555887,0,0,0,455,331,364,293,217,339,490,336,342,383,412,443,0,,,
2,1778969538432,2144,157,11691,1536936,-184481,-251676,0,0,0,649,655,592,502,473,569,627,296,427,441,410,523,0,,,
1,1778969538448,-1488,-13022,9595,-1400103,-751364,-1109331,0,0,0,457,327,353,294,218,333,495,335,362,387,407,430,0,,,
2,1778969538448,1832,14,12653,1859473,-537561,-311541,0,0,0,670,702,545,520,550,580,549,260,426,413,401,578,0,,,
1,1778969538464,-1483,-14639,9375,-700051,-930958,-1541823,0,0,0,455,330,346,292,224,342,489,341,350,379,411,428,0,,,
2,1778969538464,1502,138,13476,2332283,-755029,-357967,0,0,0,703,712,473,542,564,578,498,262,417,403,396,605,0,,,
1,1778969538480,-1512,-15429,9179,-123394,-1103222,-1572367,0,0,0,450,324,309,291,214,328,498,385,335,400,421,406,0,,,
2,1778969538480,1253,-90,14127,2867401,-695164,-409279,0,0,0,727,729,437,536,561,543,409,255,387,392,387,609,0,,,
1,1778969538496,71,-17276,10294,465479,-954171,-1219287,0,0,0,445,309,287,293,205,312,530,453,334,429,457,381,0,,,
2,1778969538496,1234,-153,14362,3428175,-685390,-415388,0,0,0,732,721,390,550,567,518,316,222,353,376,386,594,0,,,
1,1778969538512,3689,-20440,12285,1488067,1396437,-524122,0,0,0,444,293,276,298,198,315,566,523,328,445,515,381,0,,,
2,1778969538512,1636,-268,13926,3902207,-729373,-400727,0,0,0,735,716,372,530,572,516,297,197,349,378,363,565,0,,,
1,1778969538528,3139,-12787,14180,2218662,3900985,183259,0,0,0,448,285,252,304,186,316,589,578,324,469,554,381,0,,,
2,1778969538528,1526,-794,13711,4333478,-841772,-434936,0,0,0,736,693,375,486,548,533,237,182,361,341,326,509,0,,,
1,1778969538544,665,1914,14955,2013411,4025601,238237,0,0,0,455,294,278,304,192,318,599,599,335,511,567,357,0,,,
2,1778969538544,2077,-1493,14295,4765970,-1144761,-507018,0,0,0,693,674,409,464,530,490,196,174,351,288,273,435,0,,,
1,1778969538560,1679,4647,14635,1748296,1992642,-171042,0,0,0,447,290,340,314,190,340,623,623,352,558,593,366,0,,,
2,1778969538560,4771,-2368,16238,5031086,-1543045,-737925,0,0,0,616,650,427,431,509,422,201,169,328,266,232,382,0,,,
1,1778969538576,1823,650,14883,1318247,657290,-144164,0,0,0,429,297,407,318,206,345,635,635,360,586,608,379,0,,,
2,1778969538576,8269,-3929,19588,5280319,-2119702,-1215621,0,0,0,538,588,390,381,449,383,190,151,300,263,228,362,0,,,
1,1778969538592,-411,-2598,13534,507018,609643,86742,0,0,0,450,347,474,312,226,353,651,650,360,612,624,405,0,,,
2,1778969538592,11227,-4737,22890,5553986,-2670702,-1907121,0,0,0,478,517,344,345,362,339,216,149,261,265,237,335,0,,,
1,1778969538608,-866,-756,11423,-107512,840550,17104,0,0,0,463,368,478,318,243,371,669,659,370,622,642,395,0,,,
2,1778969538608,9782,-3689,26566,6030461,-2548529,-2581516,0,0,0,434,413,271,299,269,299,264,189,238,256,268,271,0,,,
1,1778969538624,124,794,11141,-237015,690277,-53756,0,0,0,456,389,492,341,263,386,677,665,356,653,663,412,0,,,
2,1778969538624,7973,-885,30270,6450736,-2575407,-2941926,0,0,0,375,319,295,245,188,241,306,193,220,240,269,223,0,,,
1,1778969538640,224,938,11959,-107512,316428,-51312,0,0,0,473,408,503,344,280,383,684,669,362,665,668,416,0,,,
2,1778969538640,9758,5072,26901,6078109,-3594331,-2621833,0,0,0,363,328,291,296,234,266,314,206,239,243,278,233,0,,,
1,1778969538656,-205,708,11639,7330,39095,-36651,0,0,0,474,427,503,341,283,383,691,677,377,667,671,418,0,,,
2,1778969538656,14199,11782,19626,4433659,-4087910,-911410,0,0,0,362,335,283,256,206,258,303,209,231,251,282,244,0,,,
1,1778969538672,-224,856,10562,35430,-134390,-47647,0,0,0,476,435,490,348,291,391,694,680,387,667,671,415,0,,,
2,1778969538672,16501,16506,15156,1109331,-1951103,2571742,0,0,0,368,339,310,244,202,283,301,212,271,248,295,293,0,,,
1,1778969538688,-143,1115,10078,37873,-263893,-63529,0,0,0,483,426,477,353,294,392,693,680,395,667,671,421,0,,,
2,1778969538688,12112,14773,13898,-1269377,-67195,5111720,0,0,0,369,325,288,239,185,254,291,205,237,258,276,249,0,,,
1,1778969538704,-291,1110,10380,97738,-381179,-62308,0,0,0,489,423,479,361,298,388,686,680,398,668,669,431,0,,,
2,1778969538704,9002,11012,11112,-2184454,608421,5710368,0,0,0,369,320,277,243,183,249,291,199,234,253,283,243,0,,,
1,1778969538720,-531,1048,10547,182037,-449596,-53756,0,0,0,485,434,473,360,299,392,682,680,399,661,663,438,0,,,
2,1778969538720,6345,8858,9590,-2113593,1134987,4138001,0,0,0,395,312,304,253,180,270,294,200,247,256,289,246,0,,,
1,1778969538736,-737,1014,10313,257785,-443488,-45204,0,0,0,481,442,470,348,290,395,683,671,400,652,654,442,0,,,
2,1778969538736,918,8576,10361,-2568077,1453859,2183232,0,0,0,382,320,295,248,186,262,298,204,243,254,292,249,0,,,
1,1778969538752,-837,1043,9906,277332,-339641,-41538,0,0,0,487,442,478,345,286,390,682,660,395,652,652,441,0,,,
2,1778969538752,-1804,8150,10289,-3288898,1044579,841772,0,0,0,373,314,309,248,177,268,301,206,246,250,288,251,0,,,
1,1778969538768,-856,1086,9758,280998,-197920,-35430,0,0,0,486,437,478,349,290,388,678,652,386,652,653,434,0,,,
2,1778969538768,-1086,7145,9365,-4047593,598647,80634,0,0,0,374,316,321,247,170,265,302,204,258,250,288,248,0,,,
1,1778969538784,-784,1081,9873,298102,-86742,-23212,0,0,0,479,436,496,352,296,395,665,632,383,645,646,437,0,,,
2,1778969538784,38,5690,9107,-4763527,656069,-191811,0,0,0,375,321,300,256,180,261,297,198,253,254,291,245,0,,,
1,1778969538800,-689,981,10002,338419,-40317,0,0,0,0,479,440,490,374,327,406,664,628,390,642,642,448,0,,,
2,1778969538800,435,4307,9562,-5343849,830776,-30543,0,0,0,372,323,285,264,190,270,300,206,244,253,304,245,0,,,
1,1778969538816,-622,1081,10031,431270,-32986,29321,0,0,0,489,441,478,406,333,412,660,620,391,641,631,465,0,,x,
2,1778969538816,847,3302,10203,-5608964,978606,426383,0,0,0,374,325,287,289,210,277,308,207,238,256,315,243,0,,x,
1,1778969538832,-521,1033,10184,576656,-62308,63529,0,0,0,502,461,490,393,347,412,665,602,377,646,612,511,0,,,
2,1778969538832,1689,2268,11323,-5699372,1238834,1027475,0,0,0,378,325,285,299,216,275,315,199,237,263,304,242,0,,,
1,1778969538848,-516,703,10303,702495,-150272,80634,0,0,0,495,476,479,413,356,430,658,568,390,617,586,500,0,,,
2,1778969538848,2306,1421,13074,-5782450,1499063,1512502,0,0,0,379,319,282,279,194,279,323,204,239,264,288,243,0,,,
1,1778969538864,-684,770,10208,810007,-191811,91629,0,0,0,532,492,486,423,364,451,671,526,409,597,555,533,0,,,
2,1778969538864,2273,119,15166,-5963266,1488067,1806939,0,0,0,384,313,284,287,196,290,327,209,236,266,293,244,0,,,
1,1778969538880,-961,823,10351,967610,-134390,116064,0,0,0,559,527,496,444,388,460,669,443,435,579,501,537,0,,,
2,1778969538880,2546,-2321,16645,-6135530,1281595,2092824,0,0,0,374,317,294,276,195,305,319,214,252,264,298,250,0,,,
1,1778969538896,-1081,277,10782,1119105,-4886,142942,0,0,0,590,545,523,459,413,475,666,365,450,536,437,565,0,,,
2,1778969538896,3287,-6312,17420,-6123313,1218065,2306627,0,0,0,371,318,304,276,193,317,327,202,260,259,289,261,0,,,
1,1778969538912,-1186,67,11122,1259604,70860,164933,0,0,0,619,564,517,483,441,487,663,301,459,479,378,600,0,,,
2,1778969538912,2416,-11246,18956,-5860641,1507615,2256536,0,0,0,367,336,312,274,198,313,316,224,249,255,318,252,0,,,
1,1778969538928,-1890,57,11648,1475850,70860,272445,0,0,0,639,590,487,506,479,489,641,268,471,440,329,628,0,,,
2,1778969538928,526,-17061,20976,-5621181,1612684,2125811,0,0,0,374,329,308,274,189,298,327,211,232,264,304,251,0,,,
1,1778969538944,-2431,-114,12414,1751961,150272,497244,0,0,0,651,596,441,516,498,485,617,258,455,425,301,649,0,,,
2,1778969538944,-851,-25096,22091,-5371948,1332907,1848478,0,0,0,377,329,316,279,197,298,338,211,241,262,299,258,0,,,
1,1778969538960,-1445,-411,13189,2096489,371406,682947,0,0,0,653,596,387,525,508,477,587,241,434,415,278,652,0,,,
2,1778969538960,-2100,-34333,21885,-4855156,821002,1102000,0,0,0,380,322,307,296,197,294,342,210,228,273,306,262,0,,,
1,1778969538976,-191,-851,13663,2569299,414166,654847,0,0,0,647,607,328,535,528,471,538,221,421,401,252,635,0,,,
2,1778969538976,-3211,-41641,19952,-4040262,3665,-294437,0,0,0,375,320,293,294,193,289,334,191,220,279,334,260,0,,,
1,1778969538992,402,-775,14371,3086091,273667,549778,0,0,0,649,614,279,530,538,477,481,221,393,377,234,621,0,,,
2,1778969538992,-4192,-44756,15826,-2878397,-807563,-1791056,0,0,0,374,308,272,294,184,276,341,189,218,284,338,248,0,,,
1,1778969539008,181,-421,15127,3616322,195476,433714,0,0,0,648,608,278,507,525,483,429,230,396,348,217,615,0,,,
2,1778969539008,-6063,-43211,12309,-1404990,-1011592,-2105041,0,0,0,370,322,286,262,198,267,339,354,260,276,406,252,0,,,
1,1778969539024,-684,-593,15558,4305378,215024,404392,0,0,0,637,600,281,501,509,499,380,214,403,339,211,597,0,,,
2,1778969539024,-6996,-35123,11864,343306,-933402,-867428,0,0,0,359,309,282,247,197,252,413,516,234,343,540,248,0,,,
1,1778969539040,-1301,-794,16262,5000542,239459,469144,0,0,0,610,602,279,499,499,510,361,214,442,315,198,557,0,,,
2,1778969539040,-1244,-11959,14654,1502728,-1434311,647517,0,0,0,355,290,238,272,210,249,521,660,208,419,648,220,0,,,
1,1778969539056,-1976,-1115,17621,5661499,291993,590095,0,0,0,575,575,263,473,506,491,346,231,432,317,217,532,0,,,
2,1778969539056,2421,10514,14161,2010968,-2179567,941954,0,0,0,373,285,263,283,205,254,572,734,206,500,721,217,0,,,
1,1778969539072,-3421,-2502,20957,6368880,392175,778242,0,0,0,539,536,255,468,490,437,342,233,411,336,226,490,0,,,
2,1778969539072,1397,12352,17257,2676811,-2404365,256563,0,0,0,391,283,301,288,199,255,621,752,207,588,747,227,0,,,
1,1778969539088,-5005,-2842,26384,7133684,289550,1033583,0,0,0,493,479,258,423,422,419,354,221,379,294,204,475,0,,,
2,1778969539088,-483,-2340,24785,2833192,-1563815,-204028,0,0,0,406,282,303,289,199,251,648,758,201,623,748,226,0,,,
1,1778969539104,-5211,-933,31950,7946135,8552,1321912,0,0,0,462,439,258,362,369,379,373,223,370,280,216,438,0,,,
2,1778969539104,-722,-5154,21205,1804495,-747699,-138055,0,0,0,410,286,304,288,201,250,649,762,204,619,751,230,0,,,
1,1778969539120,-5005,1445,36554,8806233,-353080,1610240,0,0,0,445,365,285,321,289,344,404,264,342,288,298,394,0,,,
2,1778969539120,-492,1000,11576,1055575,-119729,-65973,0,0,0,402,286,320,303,210,262,656,760,221,635,754,245,0,,,
1,1778969539136,-6101,7264,37822,9268047,-438601,1962099,0,0,0,434,343,304,314,262,339,383,277,338,297,314,370,0,,,
2,1778969539136,229,3249,7891,921184,357967,-138055,0,0,0,405,288,329,316,215,273,665,758,235,660,757,252,0,,,
1,1778969539152,-8490,17875,28221,7373143,415388,1940107,0,0,0,436,348,312,311,263,338,403,264,340,307,295,371,0,,,
2,1778969539152,1378,1129,10174,905302,566882,-191811,0,0,0,409,299,340,303,201,268,667,754,256,645,756,268,0,,,
1,1778969539168,-8753,23785,22857,3025004,1263269,834441,0,0,0,442,339,317,304,254,334,437,259,341,325,299,381,0,,,
2,1778969539168,2215,215,11548,636521,475253,-135612,0,0,0,414,287,362,304,192,299,666,741,243,629,749,293,0,,,
1,1778969539184,-6456,21703,21651,-2746450,2399478,-1402546,0,0,0,445,336,322,304,246,329,435,262,344,331,306,385,0,,,
2,1778969539184,2325,1005,10744,455705,228463,-95294,0,0,0,424,290,360,297,196,274,657,717,248,592,742,262,0,,,
1,1778969539200,-7954,15242,17607,-4756196,3196046,-2541199,0,0,0,445,341,327,305,246,324,426,267,345,326,308,384,0,,,
2,1778969539200,1966,1890,9456,472809,-68416,-98960,0,0,0,419,299,345,307,207,279,644,697,251,593,726,281,0,,,
1,1778969539216,-10275,12012,12136,-4200309,1653001,-1933999,0,0,0,440,341,328,300,249,328,428,269,351,325,311,387,0,,,
2,1778969539216,1584,1818,9370,624304,-252898,-109955,0,0,0,421,323,340,333,213,285,564,594,273,558,690,248,0,,,
1,1778969539232,-7025,10849,10418,-4201531,-455705,-1081231,0,0,0,438,337,318,302,249,331,433,269,356,326,309,390,0,,,
2,1778969539232,1258,1593,9710,780685,-311541,-129503,0,0,0,421,340,352,365,249,318,654,659,225,558,670,280,0,,,
1,1778969539248,-1986,9327,11442,-5065294,-984714,-700051,0,0,0,438,339,318,305,252,336,439,272,357,325,309,393,0,,,
2,1778969539248,1186,1134,10102,901637,-246789,-156381,0,0,0,425,372,360,342,309,339,654,622,264,538,624,325,0,,,
1,1778969539264,-2077,6384,11868,-5921727,-389732,-543670,0,0,0,432,342,324,303,249,338,426,266,355,322,313,385,0,,,
2,1778969539264,1186,751,9940,897971,-130725,-151494,0,0,0,411,374,351,342,298,329,624,605,272,506,602,327,0,,,
1,1778969539280,-3761,3350,12184,-6587570,-404392,-182037,0,0,0,384,335,335,306,250,333,432,271,355,327,330,385,0,,,
2,1778969539280,1206,617,9667,852767,-58643,-139277,0,0,0,421,390,348,364,330,348,620,579,268,491,572,343,0,,,
1,1778969539296,-3302,1593,13572,-7053050,-1017701,145385,0,0,0,447,342,321,302,242,334,432,257,352,336,323,387,0,,,
2,1778969539296,1301,665,9638,838107,-57421,-139277,0,0,0,460,423,387,378,349,383,594,532,280,483,571,381,0,,,
1,1778969539312,-2187,172,15309,-7392691,-1258382,164933,0,0,0,446,346,320,302,243,334,441,262,356,335,327,379,0,,,
2,1778969539312,1402,727,9753,878424,-106290,-147829,0,0,0,499,466,407,395,364,417,593,504,309,458,537,410,0,,,
1,1778969539328,-1966,-1239,16841,-7442782,-1144761,-157603,0,0,0,445,346,317,305,243,335,439,258,352,339,325,379,0,,,
2,1778969539328,1426,679,9906,994488,-171042,-168598,0,0,0,555,492,444,438,358,463,596,435,338,435,494,445,0,,,
1,1778969539344,-2775,-1933,18076,-7225314,-1193630,-763581,0,0,0,445,347,319,308,248,336,442,264,352,331,315,371,0,,,
2,1778969539344,1483,354,10102,1134987,-161268,-213802,0,0,0,604,515,420,489,393,504,588,381,394,417,454,497,0,,,
1,1778969539360,-3488,-1890,19650,-7093367,-1423316,-1459967,0,0,0,446,352,315,315,253,336,456,269,353,335,312,365,0,,,
2,1778969539360,1722,-14,10562,1302364,-90408,-290771,0,0,0,659,533,416,524,450,546,586,290,425,430,418,528,0,,,
1,1778969539376,-4015,-1727,21990,-7141014,-1696983,-2150245,0,0,0,443,350,309,323,253,337,460,265,351,331,308,359,0,,,
2,1778969539376,2057,-177,11672,1566258,-7330,-417831,0,0,0,704,558,451,535,492,580,569,215,431,424,383,571,0,,,
1,1778969539392,-4637,-3101,24910,-7263187,-1850921,-2581516,0,0,0,435,345,305,324,256,336,460,264,351,325,299,349,0,,,
2,1778969539392,1775,-229,13251,2141693,-73303,-527787,0,0,0,735,606,474,557,550,598,517,206,441,382,351,648,0,,,
1,1778969539408,-5202,-7867,27106,-7265631,-1977981,-2582738,0,0,0,433,346,297,325,256,336,471,261,353,329,285,340,0,,,
2,1778969539408,1617,-358,14175,2792875,-215024,-577878,0,0,0,763,649,475,598,610,612,467,225,459,356,326,717,0,,,
1,1778969539424,-4178,-17133,27451,-7038389,-2117258,-2042733,0,0,0,437,359,290,332,264,342,472,264,357,334,285,346,0,,,
2,1778969539424,1584,-445,14553,3420845,-362853,-577878,0,0,0,784,656,452,619,631,648,396,236,456,351,324,740,0,,,
1,1778969539440,-1359,-29983,26020,-6425080,-1836260,-1194852,0,0,0,433,374,289,334,276,350,463,275,364,331,299,353,0,,,
2,1778969539440,2038,-306,15300,3948632,-467922,-579100,0,0,0,805,676,458,635,663,678,298,218,443,346,339,735,0,,,
1,1778969539456,1000,-44527,23235,-5272988,-1145983,-89186,0,0,0,429,377,293,332,272,351,471,281,364,334,314,347,0,,,
2,1778969539456,3522,-851,16554,4704884,-616973,-695164,0,0,0,815,717,565,673,673,678,346,169,511,344,311,715,0,,,
1,1778969539472,2124,-53639,18554,-3745825,-288328,927293,0,0,0,435,375,298,342,270,355,476,289,362,352,339,348,0,,,
2,1778969539472,5044,-1861,17875,5544212,-828333,-1017701,0,0,0,793,682,620,689,690,695,347,166,533,311,267,668,0,,,
1,1778969539488,3206,-56242,13108,-1965764,210137,1222952,0,0,0,445,365,294,357,259,355,481,280,367,351,335,341,0,,,
2,1778969539488,4795,-2167,20234,6300464,-1286482,-1419650,0,0,0,758,647,622,654,651,644,236,148,444,303,229,628,0,,,
1,1778969539504,5728,-54060,11093,80634,-105068,222354,0,0,0,437,340,283,337,250,347,497,339,363,381,394,314,0,,,
2,1778969539504,5498,-2852,23067,6795264,-1765400,-1698205,0,0,0,678,584,610,540,587,554,175,104,370,272,208,499,0,,,
1,1778969539520,6992,-44216,13065,2002416,-339641,-1207069,0,0,0,383,278,207,312,202,307,632,643,296,549,628,238,0,,,
2,1778969539520,8102,-3412,26484,7248526,-1511280,-1982868,0,0,0,556,524,486,415,433,474,165,104,377,252,197,444,0,,,
1,1778969539536,1990,-665,17085,3348763,338419,-1883908,0,0,0,407,263,199,303,194,307,642,724,301,621,736,214,0,,,
2,1778969539536,9480,-3570,32490,8025547,-744033,-2414139,0,0,0,472,401,339,349,298,328,299,157,265,283,226,278,0,,,
1,1778969539552,-2737,34998,18434,3916867,2268753,-1192408,0,0,0,417,257,214,314,189,327,690,766,316,732,793,212,0,,,
2,1778969539552,8863,-679,42923,8916189,76969,-2890614,0,0,0,398,324,285,297,210,287,306,179,258,276,283,230,0,,,
1,1778969539568,-2354,13500,29475,4630358,3827681,195476,0,0,0,416,270,262,312,189,332,706,786,327,772,807,223,0,,,
2,1778969539568,10236,9743,46719,8823337,-619417,-3090978,0,0,0,369,310,283,278,204,274,319,207,236,274,280,213,0,,,
1,1778969539584,1253,-12050,34084,3811799,2915048,189368,0,0,0,422,284,297,318,193,333,720,785,341,775,800,224,0,,,
2,1778969539584,14237,22799,38396,6647435,-2160019,-1979203,0,0,0,369,305,274,282,214,274,323,218,235,280,284,212,0,,,
1,1778969539600,4091,-7604,22134,2083050,1032362,-273667,0,0,0,433,287,347,324,198,361,735,782,352,763,787,254,0,,,
2,1778969539600,14946,30361,28131,2244318,-2323731,1209513,0,0,0,360,300,260,284,223,284,314,231,231,275,308,211,0,,,
1,1778969539616,4560,5441,9413,1241278,-755029,-166155,0,0,0,439,291,344,332,202,365,746,767,340,756,768,276,0,,,
2,1778969539616,12400,27915,20435,-1295034,-1857030,4239404,0,0,0,377,300,261,284,218,279,318,234,239,270,310,223,0,,,
1,1778969539632,1009,4857,9155,1490511,-1795943,291993,0,0,0,441,293,325,342,210,362,744,747,331,737,744,293,0,,,
2,1778969539632,11524,22703,14271,-2851518,-989601,4687779,0,0,0,376,300,275,276,214,280,321,234,247,261,305,242,0,,,
1,1778969539648,-1861,713,11667,1556484,-2070833,354301,0,0,0,442,296,320,347,217,367,733,733,340,706,719,313,0,,,
2,1778969539648,6460,18583,12950,-3853337,420275,2372600,0,0,0,361,298,292,268,216,297,320,235,260,257,310,267,0,,,
1,1778969539664,-3522,-531,11916,1281595,-1631010,118507,0,0,0,448,304,330,350,217,372,717,717,359,681,692,330,0,,,
2,1778969539664,354,15041,13438,-5291314,740368,47647,0,0,0,356,295,302,262,217,303,322,240,266,262,318,288,0,,,
1,1778969539680,-3306,1631,9834,1208291,-718377,-37873,0,0,0,456,320,366,363,227,383,692,692,376,657,660,362,0,,,
2,1778969539680,-1675,11404,13577,-6530149,405614,-1404990,0,0,0,359,299,301,269,219,299,333,241,269,274,323,282,0,,,
1,1778969539696,-2053,2809,8944,1382998,-17104,-26878,0,0,0,455,359,388,382,273,399,668,654,375,619,625,415,0,,,
2,1778969539696,-2464,8083,14587,-7279070,701273,-2081828,0,0,0,365,305,301,282,219,296,353,232,272,283,324,258,0,,,
1,1778969539712,-842,2727,9538,1635897,217468,47647,0,0,0,468,409,410,411,334,421,646,573,405,577,582,462,0,,,
2,1778969539712,-3943,5738,16142,-7728667,948062,-2116037,0,0,0,366,299,312,281,212,289,370,227,256,286,323,246,0,,,
1,1778969539728,-784,1981,10480,1837482,101403,107512,0,0,0,481,424,420,429,341,453,638,476,422,556,525,483,0,,,
2,1778969539728,-4254,4556,17745,-7971791,917519,-1401324,0,0,0,372,293,310,289,210,291,381,229,261,292,323,250,0,,,
1,1778969539744,-995,583,10567,1843591,-17104,151494,0,0,0,494,446,422,452,359,454,645,423,449,544,450,535,0,,,
2,1778969539744,-1990,4565,19889,-8240572,1060462,-67195,0,0,0,385,299,289,291,211,289,383,211,274,303,319,255,0,,,
1,1778969539760,-1000,-397,9844,1606575,-135612,152716,0,0,0,543,477,413,465,398,452,661,359,481,482,368,555,0,,,
2,1778969539760,483,3957,22909,-8641299,1372003,1337794,0,0,0,381,303,285,287,213,279,373,215,252,288,324,242,0,,,
1,1778969539776,-1454,-57,9844,1403768,-178372,145385,0,0,0,585,493,389,504,429,473,659,293,455,452,321,589,0,,,
2,1778969539776,2258,2134,25915,-8879537,1446528,2283414,0,0,0,370,299,277,301,211,278,399,210,251,301,318,240,0,,,
1,1778969539792,-2182,4,10930,1397659,-123394,221133,0,0,0,612,517,366,499,469,498,647,274,463,415,289,624,0,,,
2,1778969539792,3493,-1464,29107,-8819672,1318247,2371378,0,0,0,365,302,292,281,212,301,392,214,293,285,318,249,0,,,
1,1778969539808,-2703,-191,12529,1673770,68416,415388,0,0,0,632,552,335,505,479,502,633,243,473,400,275,645,0,,,
2,1778969539808,3584,-7748,32280,-8736594,1292590,1769065,0,0,0,356,303,285,291,218,298,384,207,255,292,318,244,0,,,
1,1778969539824,-2483,-550,13175,2064724,277332,583987,0,0,0,636,567,300,527,502,510,609,239,464,391,253,652,0,,,
2,1778969539824,2479,-15491,35132,-8569217,1387885,1004262,0,0,0,362,299,277,306,219,314,386,217,251,286,298,245,0,,,
1,1778969539840,-2134,-827,13653,2564412,387288,697608,0,0,0,654,588,290,534,519,515,564,235,463,390,256,656,0,,,
2,1778969539840,215,-27006,37726,-8252789,1496619,381179,0,0,0,359,292,275,318,219,330,386,210,257,287,295,250,0,,,
1,1778969539856,-1899,-469,14725,3144734,471587,775798,0,0,0,647,619,268,564,544,503,499,238,442,382,265,661,0,,,
2,1778969539856,-2335,-43684,36219,-7429343,1436755,-295658,0,0,0,350,288,266,303,215,312,366,207,247,293,298,249,0,,,
1,1778969539872,-1670,-416,15228,3743382,607200,821002,0,0,0,659,627,259,567,547,528,427,232,422,377,257,665,0,,,
2,1778969539872,-5704,-56917,28355,-5444031,1280373,-1198517,0,0,0,350,285,266,297,211,306,363,208,251,307,307,258,0,,,
1,1778969539888,-909,-674,15534,4414112,619417,836885,0,0,0,666,619,271,560,539,561,368,220,437,354,241,654,0,,,
2,1778969539888,-10423,-60574,20832,-3293785,1102000,-1420872,0,0,0,360,277,242,286,207,281,377,278,250,299,333,259,0,,,
1,1778969539904,-531,-693,16817,5120272,475253,777020,0,0,0,651,604,293,553,538,568,343,213,458,319,225,628,0,,,
2,1778969539904,-12409,-56860,15065,-1293812,830776,54977,0,0,0,338,327,210,286,216,256,417,448,245,328,498,231,0,,,
1,1778969539920,-1330,-1091,18951,5929058,373849,729373,0,0,0,631,584,312,527,530,554,352,210,457,306,217,595,0,,,
2,1778969539920,-8260,-51883,16008,910189,822224,2381152,0,0,0,325,347,218,283,226,271,467,636,242,419,696,239,0,,,
1,1778969539936,-2866,-2187,21890,6702413,394618,772133,0,0,0,589,551,300,490,485,507,354,203,439,316,224,550,0,,,
2,1778969539936,-6116,-30547,19009,3446501,394618,3263242,0,0,0,340,301,237,287,228,301,517,732,245,513,772,272,0,,,
1,1778969539952,-5594,-2560,26259,7428121,337197,954171,0,0,0,526,477,263,427,410,416,340,203,385,314,237,504,0,,,
2,1778969539952,-6092,2153,24139,5347514,-1125213,1566258,0,0,0,342,287,242,311,229,321,584,769,274,582,810,278,0,,,
1,1778969539968,-8427,-1947,32141,8130616,59864,1326799,0,0,0,471,429,266,360,351,365,355,223,369,302,242,446,0,,,
2,1778969539968,-3579,8734,30614,6311459,-2172236,-831998,0,0,0,347,285,255,325,227,336,634,786,306,616,822,282,0,,,
1,1778969539984,-9892,-765,39722,8949175,-637743,1943773,0,0,0,440,340,299,290,235,317,403,247,356,286,284,390,0,,,
2,1778969539984,1426,-5518,30777,5523443,-1463633,-1480737,0,0,0,363,279,273,334,228,338,649,790,294,645,819,277,0,,,
1,1778969540000,-9250,4580,43211,9461080,-1453859,2726902,0,0,0,442,332,310,330,233,316,432,251,373,313,269,388,0,,,
2,1778969540000,1890,-4685,20239,3477044,-401949,-583987,0,0,0,384,291,288,324,240,309,681,792,288,667,815,279,0,,,
1,1778969540016,-8260,13113,37482,8049982,-919963,3401297,0,0,0,445,323,319,304,225,319,434,240,346,323,290,390,0,,,
2,1778969540016,76,780,11213,2006081,155159,-114842,0,0,0,371,302,312,311,241,301,682,799,257,660,819,271,0,,,
1,1778969540032,-8518,17932,30308,3214372,982271,2564412,0,0,0,446,324,328,291,232,326,422,269,343,314,304,412,0,,,
2,1778969540032,14,2383,9471,1490511,397062,-212581,0,0,0,381,310,307,320,239,280,696,781,221,636,802,250,0,,,
1,1778969540048,-7848,18683,26207,-1600466,2670702,158824,0,0,0,450,330,333,290,234,319,422,263,348,318,296,402,0,,,
2,1778969540048,1933,478,11399,1172861,442266,-223576,0,0,0,418,313,354,315,205,265,695,759,226,648,798,269,0,,,
1,1778969540064,-8920,18836,20086,-3817907,3235142,-1661553,0,0,0,447,328,327,291,238,322,419,261,354,309,309,404,0,,,
2,1778969540064,2273,167,11548,866206,361632,-107512,0,0,0,401,321,342,320,220,274,682,719,232,623,754,307,0,,,
1,1778969540080,-9652,18406,13878,-4207639,2116037,-2003637,0,0,0,446,328,326,291,238,328,420,260,351,319,312,409,0,,,
2,1778969540080,1832,1316,10203,731816,211359,-61086,0,0,0,398,280,356,300,200,293,661,703,237,580,758,258,0,,,
1,1778969540096,-7092,16731,10528,-4763527,720820,-1651779,0,0,0,446,327,325,294,240,330,425,259,348,333,310,408,0,,,
2,1778969540096,1689,1852,9672,863763,-8552,-106290,0,0,0,393,294,382,296,205,287,627,666,280,562,749,251,0,,,
1,1778969540112,-4029,13725,10069,-5643173,213802,-1430646,0,0,0,443,324,321,299,244,331,431,262,351,336,312,403,0,,,
2,1778969540112,1421,1727,9724,1023810,-185703,-125838,0,0,0,400,342,399,302,206,303,595,639,253,539,697,280,0,,,
1,1778969540128,-3005,10591,10902,-6415306,-4886,-1361007,0,0,0,443,325,322,300,241,329,435,265,352,330,311,398,0,,,
2,1778969540128,1191,1493,9892,1102000,-195476,-107512,0,0,0,402,348,394,338,228,318,577,601,263,513,661,284,0,,,
1,1778969540144,-2703,7360,12347,-7138571,-345749,-1112996,0,0,0,446,329,327,299,237,323,435,267,347,323,303,397,0,,,
2,1778969540144,1182,1340,9964,1132544,-163711,-98960,0,0,0,400,326,401,346,221,323,563,537,267,499,621,284,0,,,
1,1778969540160,-2349,4273,13644,-7720114,-652404,-669508,0,0,0,447,324,329,301,236,327,439,272,347,325,299,398,0,,,
2,1778969540160,1354,1072,9834,1147204,-172263,-97738,0,0,0,397,333,414,346,225,348,558,508,275,469,576,289,0,,,
1,1778969540176,-1909,1727,14955,-8063421,-912632,-108734,0,0,0,447,321,345,296,222,331,455,267,354,337,299,398,0,,,
2,1778969540176,1469,928,9499,1194852,-252898,-123394,0,0,0,402,361,418,345,240,375,553,460,292,440,528,296,0,,,
1,1778969540192,-1378,741,16353,-8173376,-1123992,146607,0,0,0,447,325,337,300,216,319,459,263,346,325,300,392,0,,,
2,1778969540192,1459,827,9351,1274264,-318871,-197920,0,0,0,437,391,434,364,276,389,546,379,338,434,485,316,0,,,
1,1778969540208,-1225,258,17798,-8213694,-1332907,52534,0,0,0,448,326,338,298,225,316,452,258,351,330,296,382,0,,,
2,1778969540208,1579,473,9605,1352455,-348193,-345749,0,0,0,491,442,444,402,338,417,536,303,359,431,452,370,0,,,
1,1778969540224,-1627,-440,20387,-8124507,-1703092,-200363,0,0,0,448,318,318,307,225,317,457,259,355,335,296,367,0,,,
2,1778969540224,2043,-545,10323,1365894,-437379,-499687,0,0,0,529,487,436,437,388,452,533,260,337,425,434,427,0,,,
1,1778969540240,-1646,-2656,24752,-8062199,-2129476,-255341,0,0,0,440,320,307,312,227,321,455,250,365,340,295,355,0,,,
2,1778969540240,2541,-1086,11060,1409876,-582765,-640186,0,0,0,573,493,428,473,426,470,544,235,335,432,414,464,0,,,
1,1778969540256,-713,-8332,29710,-8109846,-2350609,-114842,0,0,0,445,320,302,327,232,330,460,246,358,324,285,344,0,,,
2,1778969540256,2818,-569,11720,1672549,-695164,-844215,0,0,0,672,522,407,520,484,502,519,191,357,427,367,523,0,,,
1,1778969540272,1349,-18463,32371,-7993782,-2291966,0,0,0,0,444,327,310,335,238,332,464,253,362,327,277,345,0,,,
2,1778969540272,1971,-579,12926,2202780,-675616,-1064127,0,0,0,735,572,392,551,509,497,481,204,385,401,384,581,0,,,
1,1778969540288,4905,-31667,31629,-7072597,-2272418,-46425,0,0,0,443,325,303,344,244,335,469,256,363,323,270,345,0,,,
2,1778969540288,588,-837,14797,2825862,-591317,-1114218,0,0,0,764,613,349,566,544,512,431,194,441,394,325,611,0,,,
1,1778969540304,8494,-42450,29112,-5762902,-1887573,-72082,0,0,0,442,326,301,343,244,339,473,260,372,321,281,345,0,,,
2,1778969540304,-76,-330,17109,3659082,-537561,-944397,0,0,0,782,605,336,544,577,520,359,190,388,354,299,633,0,,,
1,1778969540320,8480,-49920,22368,-4166100,-704938,-194255,0,0,0,441,328,299,341,241,340,474,266,376,326,289,348,0,,,
2,1778969540320,603,23,18224,4632801,-551000,-802676,0,0,0,795,607,343,537,574,488,371,201,332,330,286,613,0,,,
1,1778969540336,4776,-53041,14300,-2201558,-118507,-576656,0,0,0,445,326,294,339,241,338,477,271,377,324,290,352,0,,,
2,1778969540336,2091,-38,18540,5792224,-538783,-828333,0,0,0,765,632,413,522,594,517,246,170,370,291,253,586,0,,,
1,1778969540352,1665,-52854,10203,83077,-278554,-1070235,0,0,0,435,311,262,328,222,329,507,386,361,382,389,329,0,,,
2,1778969540352,3752,-339,20454,6967528,-549778,-1080009,0,0,0,713,621,462,507,581,522,246,148,369,278,194,495,0,,,
1,1778969540368,909,-46958,14333,1660331,-586430,-1073901,0,0,0,415,295,208,313,200,318,579,589,324,506,573,269,0,,,
2,1778969540368,5963,-1521,25259,8119620,-654847,-1470963,0,0,0,608,514,448,466,487,476,243,127,336,286,187,431,0,,,
1,1778969540384,3053,-17803,21464,3701843,946841,-696386,0,0,0,425,298,201,305,209,317,651,686,310,584,677,224,0,,,
2,1778969540384,8269,-3689,34261,9017592,-637743,-1874134,0,0,0,503,431,323,367,371,383,222,119,270,272,213,316,0,,,
1,1778969540400,3187,9844,21521,4901582,3381749,-359188,0,0,0,438,298,219,308,201,323,683,734,317,652,735,224,0,,,
2,1778969540400,10591,-2560,44187,9660222,140499,-2346944,0,0,0,399,315,266,292,235,312,271,148,246,282,266,256,0,,,
1,1778969540416,3000,5384,26561,5466022,3800803,7330,0,0,0,437,274,222,302,180,321,703,750,336,716,773,259,0,,,
2,1778969540416,10294,6360,50408,9816604,788016,-2952922,0,0,0,376,284,269,269,183,269,305,163,237,291,285,228,0,,,
1,1778969540432,3129,-5585,30241,5079955,2505769,158824,0,0,0,454,272,278,319,178,339,711,754,339,759,772,245,0,,,
2,1778969540432,11074,23522,41268,8293106,-201585,-3331659,0,0,0,385,281,272,267,180,267,319,181,240,300,295,247,0,,,
1,1778969540448,2881,-6738,24766,3539353,808785,87964,0,0,0,468,305,403,317,198,370,743,755,354,770,771,257,0,,,
2,1778969540448,12495,36563,29423,3144734,-1472185,-2195449,0,0,0,382,311,262,276,206,263,346,210,239,310,328,248,0,,,
1,1778969540464,2301,-784,15247,2103819,2443,29321,0,0,0,473,340,433,330,245,397,752,757,369,761,761,288,0,,,
2,1778969540464,11361,37142,21708,-2472782,-2189341,480140,0,0,0,386,331,259,283,217,259,354,215,239,313,332,243,0,,,
1,1778969540480,923,1167,11543,1436755,-474031,45204,0,0,0,487,371,450,347,259,396,745,746,375,748,748,335,0,,,
2,1778969540480,12572,28245,14400,-5089729,-2334726,2897944,0,0,0,397,317,257,285,206,259,352,202,243,317,316,240,0,,,
1,1778969540496,-521,411,11476,1196074,-774577,3665,0,0,0,490,395,458,356,275,392,731,731,395,724,724,359,0,,,
2,1778969540496,12792,20760,8906,-5353622,-540004,3137403,0,0,0,414,305,257,295,200,266,357,195,249,327,312,239,0,,,
1,1778969540512,-1081,181,11366,1058018,-719599,-57421,0,0,0,495,410,458,365,292,392,716,716,387,705,705,390,0,,,
2,1778969540512,6537,16396,9308,-5729915,1302364,2146580,0,0,0,424,304,259,303,200,275,359,197,254,332,314,245,0,,,
1,1778969540528,-1043,746,10787,984714,-477696,-69638,0,0,0,496,425,461,377,313,414,694,680,380,681,681,415,0,,,
2,1778969540528,1239,12093,12959,-6631553,1258382,896750,0,0,0,408,303,252,297,211,263,359,198,248,326,317,236,0,,,
1,1778969540544,-856,1445,10394,1065348,-185703,-35430,0,0,0,500,445,465,395,335,426,667,627,380,657,644,429,0,,,
2,1778969540544,-397,7820,16156,-7703010,722042,-251676,0,0,0,404,281,246,298,211,262,355,193,250,326,317,242,0,,,
1,1778969540560,-713,1330,10476,1285260,4886,-2443,0,0,0,513,477,463,409,360,425,641,557,381,636,593,447,0,,,
2,1778969540560,-818,4321,18310,-8482474,384845,-844215,0,0,0,406,280,251,290,205,260,355,197,249,325,317,248,0,,,
1,1778969540576,-406,799,10485,1447750,67195,14660,0,0,0,535,496,451,440,389,427,615,479,390,603,535,480,0,,,
2,1778969540576,-162,2005,19698,-8538674,365297,-367740,0,0,0,411,307,264,294,215,268,353,193,248,323,321,247,0,,,
1,1778969540592,-119,320,10461,1495398,-14660,23212,0,0,0,571,493,434,475,404,424,600,400,396,567,481,520,0,,,
2,1778969540592,2172,1172,21134,-8234463,616973,641408,0,0,0,423,348,270,291,244,268,346,201,255,320,331,257,0,,,
1,1778969540608,-540,134,10461,1502728,-174707,90408,0,0,0,602,519,427,430,402,422,606,304,398,532,420,560,0,,,
2,1778969540608,5556,19,23373,-8052425,1026253,1538158,0,0,0,380,357,279,267,246,272,354,206,254,307,331,249,0,,,
1,1778969540624,-1397,-95,10696,1560149,-144164,222354,0,0,0,613,535,420,445,428,424,587,263,399,463,363,610,0,,,
2,1778969540624,7963,-2971,25570,-8078081,1435533,1781283,0,0,0,390,368,294,260,248,276,338,204,249,305,336,254,0,,,
1,1778969540640,-2120,-449,11730,1728748,189368,423940,0,0,0,612,553,382,457,444,430,570,255,385,452,320,621,0,,,
2,1778969540640,8375,-8298,27422,-8051203,1740965,1320690,0,0,0,375,362,299,260,242,273,345,195,253,310,332,262,0,,,
1,1778969540656,-1981,-1048,13419,2117258,487470,623082,0,0,0,620,557,374,466,466,422,565,253,388,434,312,617,0,,,
2,1778969540656,7561,-17879,29475,-7648032,2105041,834441,0,0,0,371,363,288,263,233,271,357,208,251,308,350,264,0,,,
1,1778969540672,-1459,-1225,14213,2612059,564439,774577,0,0,0,619,566,314,475,503,427,531,256,373,405,289,611,0,,,
2,1778969540672,4082,-32830,31222,-6817256,3121521,851546,0,0,0,369,366,281,257,232,264,370,204,262,312,356,263,0,,,
1,1778969540688,-1067,-990,14180,3196046,540004,874759,0,0,0,623,575,299,493,500,451,516,242,385,377,270,611,0,,,
2,1778969540688,-3383,-52907,32189,-5297423,4544837,1218065,0,0,0,375,350,291,276,219,286,395,184,256,326,333,273,0,,,
1,1778969540704,-1335,-952,13677,3728721,608421,957836,0,0,0,628,578,261,492,493,440,481,225,385,387,259,627,0,,,
2,1778969540704,-10155,-66762,27877,-3551570,3685960,965167,0,0,0,382,330,246,273,207,255,418,312,230,355,416,258,0,,,
1,1778969540720,-162,-1139,13524,4188092,658512,1033583,0,0,0,621,591,242,480,496,450,446,228,409,382,263,621,0,,,
2,1778969540720,-12433,-72840,20650,-1777617,970053,384845,0,0,0,371,289,230,275,206,253,455,501,219,384,565,249,0,,,
1,1778969540736,2636,-1048,16113,4657236,561996,911410,0,0,0,586,579,267,510,501,448,399,234,414,359,246,598,0,,,
2,1778969540736,-12816,-72476,18798,886976,-1924225,350636,0,0,0,379,264,252,293,194,273,502,651,229,437,691,256,0,,,
1,1778969540752,2053,-971,20756,5535660,422718,590095,0,0,0,571,559,269,501,494,461,367,230,413,329,227,565,0,,,
2,1778969540752,-8528,-34075,21071,3858224,-3183829,965167,0,0,0,393,264,255,303,189,279,570,740,242,540,766,262,0,,,
1,1778969540768,-344,-1665,25738,6728069,230907,449596,0,0,0,539,505,251,470,453,446,356,224,392,300,211,532,0,,,
2,1778969540768,-4359,7437,24642,4354247,-2800206,736703,0,0,0,400,270,283,299,183,280,620,771,239,629,800,265,0,,,
1,1778969540784,-2684,-2043,33462,8156272,-254119,541226,0,0,0,488,449,252,409,387,398,362,228,381,280,212,472,0,,,
2,1778969540784,-1612,13543,28154,4073249,-1881464,-368962,0,0,0,415,278,362,294,167,282,634,775,238,661,811,279,0,,,
1,1778969540800,-5178,-1689,43957,9645562,-1236391,819781,0,0,0,450,382,281,348,300,352,398,253,380,285,261,413,0,,,
2,1778969540800,952,-3115,24958,3073873,-1177748,-704938,0,0,0,422,284,406,294,174,290,670,768,263,668,807,305,0,,,
1,1778969540816,-6786,3886,53715,10525208,-2199114,1414763,0,0,0,439,324,307,320,237,341,443,281,379,302,316,391,0,,,
2,1778969540816,545,-5829,14759,1661553,-513126,-272445,0,0,0,435,308,427,294,201,301,678,753,261,670,792,320,0,,,
1,1778969540832,-8604,22120,43158,9002931,-711047,2029294,0,0,0,441,334,316,296,233,347,449,279,383,296,311,389,0,,,
2,1778969540832,-272,799,9538,977384,278554,-25656,0,0,0,426,359,467,307,258,320,684,743,271,667,785,322,0,,,
1,1778969540848,-11873,35391,27987,3916867,1514945,1479515,0,0,0,448,341,333,284,226,338,437,281,375,294,313,391,0,,,
2,1778969540848,1009,2297,10217,803898,709825,-24434,0,0,0,424,311,440,313,205,320,665,697,269,646,779,285,0,,,
1,1778969540864,-11706,34362,21196,-2417804,2580294,-401949,0,0,0,445,335,326,287,225,336,444,292,371,302,318,399,0,,,
2,1778969540864,2038,1253,11337,847880,662177,-61086,0,0,0,438,323,415,319,198,315,627,660,285,618,755,289,0,,,
1,1778969540880,-10691,25886,17659,-5731137,2891836,-1804495,0,0,0,447,344,326,288,230,310,425,292,359,310,324,398,0,,,
2,1778969540880,2014,1225,10581,966388,387288,-80634,0,0,0,431,330,406,313,222,303,601,602,268,619,682,307,0,,,
1,1778969540896,-11040,19550,12797,-6140417,1734857,-1461189,0,0,0,443,332,326,295,232,316,428,293,363,313,325,395,0,,,
2,1778969540896,1842,1722,9873,1114218,123394,-118507,0,0,0,427,330,388,342,206,347,564,546,258,540,642,295,0,,,
1,1778969540912,-7982,15462,10260,-6563136,12217,-651182,0,0,0,444,337,327,298,235,327,429,289,364,313,332,387,0,,,
2,1778969540912,1517,1780,9834,1308473,-81855,-162490,0,0,0,449,353,426,351,233,351,559,496,273,514,599,310,0,,,
1,1778969540928,-4044,11237,11299,-7371921,-647517,-294437,0,0,0,439,337,330,368,267,329,435,293,372,313,343,391,0,,,
2,1778969540928,1167,1330,10069,1462411,-175929,-182037,0,0,0,449,369,411,360,268,355,552,440,304,494,551,310,0,,,
1,1778969540944,-2971,6479,12701,-7963239,-899193,-234572,0,0,0,439,336,321,317,246,331,434,291,371,310,343,384,0,,,
2,1778969540944,981,670,10078,1508837,-153938,-180816,0,0,0,472,381,389,369,292,356,520,321,306,447,498,346,0,,,
1,1778969540960,-3374,2541,13797,-8027990,-1447750,-218689,0,0,0,443,338,313,302,241,327,441,293,370,311,341,370,0,,,
2,1778969540960,1316,406,9753,1456302,-109955,-200363,0,0,0,521,408,399,404,341,367,519,256,311,428,433,385,0,,,
1,1778969540976,-2057,617,15563,-7761653,-1963320,-238237,0,0,0,443,336,307,306,241,327,445,292,367,313,344,369,0,,,
2,1778969540976,2110,138,9873,1444085,-168598,-294437,0,0,0,583,430,410,438,375,421,515,232,345,407,393,434,0,,,
1,1778969540992,-933,282,17913,-7580837,-1836260,-453262,0,0,0,441,336,303,310,242,328,445,289,368,319,346,361,0,,,
2,1778969540992,2766,-301,10705,1527163,-349414,-486248,0,0,0,631,453,396,461,429,450,493,210,358,393,378,473,0,,,
1,1778969541008,-2129,397,20837,-7608937,-1224173,-883311,0,0,0,442,339,309,307,240,329,446,283,374,318,346,345,0,,,
2,1778969541008,2641,-550,11572,1798387,-525344,-719599,0,0,0,684,507,383,464,456,488,484,204,390,375,363,507,0,,,
1,1778969541024,-4670,-976,23953,-7626041,-1185078,-996932,0,0,0,445,341,316,306,242,333,448,276,382,315,349,337,0,,,
2,1778969541024,2129,-641,12218,2151467,-586430,-902858,0,0,0,739,568,412,482,513,530,472,214,409,359,351,576,0,,,
1,1778969541040,-6168,-4996,28087,-7557624,-1453859,-731816,0,0,0,445,341,314,314,251,337,451,274,389,317,349,337,0,,,
2,1778969541040,818,-531,13160,2601064,-592539,-978606,0,0,0,778,603,412,499,580,551,434,211,395,347,331,631,0,,,
1,1778969541056,-5594,-12045,30380,-7480655,-1789835,-246789,0,0,0,439,343,310,316,255,338,460,273,390,316,336,333,0,,,
2,1778969541056,-52,-636,13730,3037221,-603534,-857654,0,0,0,800,615,388,495,599,562,371,192,397,341,322,644,0,,,
1,1778969541072,-1445,-22210,30035,-7192327,-2474004,-21991,0,0,0,424,354,300,325,265,345,465,268,386,317,328,333,0,,,
2,1778969541072,-583,-751,14237,3666413,-514348,-658512,0,0,0,803,623,409,511,606,564,306,176,396,359,335,660,0,,,
1,1778969541088,5364,-35003,28987,-6363994,-3106860,-9773,0,0,0,424,359,301,334,264,344,471,274,389,321,314,337,0,,,
2,1778969541088,-148,-698,15434,4368908,-316428,-488692,0,0,0,795,637,415,543,591,569,279,156,357,367,298,661,0,,,
1,1778969541104,10629,-47226,24623,-4691445,-2298075,-234572,0,0,0,440,361,297,342,276,340,481,285,393,321,322,321,0,,,
2,1778969541104,2144,-832,17578,5299866,-244346,-494800,0,0,0,795,609,479,549,579,604,243,128,371,316,243,616,0,,,
1,1778969541120,8920,-55127,17133,-2748893,-961501,-746477,0,0,0,432,337,274,358,262,348,481,284,384,335,330,322,0,,,
2,1778969541120,5005,-1215,19559,6328563,-392175,-767246,0,0,0,762,592,500,558,589,617,270,116,408,296,183,549,0,,,
1,1778969541136,3771,-58851,10629,-747699,-616973,-1574810,0,0,0,426,309,234,337,229,327,523,507,395,420,473,281,0,,,
2,1778969541136,7202,-2316,22100,7265631,-638965,-1282817,0,0,0,703,548,495,471,528,510,267,139,362,293,180,470,0,,,
1,1778969541152,1871,-57094,11457,1376890,-1266934,-2447126,0,0,0,401,279,204,320,200,316,611,611,346,512,578,241,0,,,
2,1778969541152,8384,-3986,28317,8070751,-681725,-1839926,0,0,0,609,472,370,397,392,396,238,106,301,295,180,446,0,,,
1,1778969541168,6259,-28695,19210,3875329,139277,-2465452,0,0,0,403,282,213,311,198,335,670,709,331,626,695,237,0,,,
2,1778969541168,9887,-4584,37362,8894197,74525,-2365270,0,0,0,447,379,293,318,262,314,263,182,296,262,254,288,0,,,
1,1778969541184,8384,7269,24115,5315749,3059213,-1434311,0,0,0,412,267,224,320,194,347,701,749,345,722,759,227,0,,,
2,1778969541184,9495,1641,47264,9481850,1274264,-2922379,0,0,0,370,304,295,255,192,277,295,174,252,287,280,263,0,,,
1,1778969541200,5752,11165,30863,5533217,4357912,113620,0,0,0,420,279,347,336,208,373,732,769,351,775,784,245,0,,,
2,1778969541200,9710,15927,46321,8930849,872315,-3418401,0,0,0,381,287,270,256,188,273,292,172,236,310,304,260,0,,,
1,1778969541216,1469,-6341,32136,4307821,2960252,514348,0,0,0,446,334,466,341,251,383,761,779,354,792,792,267,0,,,
2,1778969541216,11682,32299,34572,5589416,-1045801,-3122743,0,0,0,424,284,269,276,186,277,304,181,248,315,319,252,0,,,
1,1778969541232,1531,-8198,22871,2520429,1434311,56199,0,0,0,466,382,498,351,292,390,773,777,382,784,784,302,0,,,
2,1778969541232,11107,35482,26733,-164933,-2250427,-593761,0,0,0,430,298,270,277,196,279,310,195,255,314,329,258,0,,,
1,1778969541248,3010,-722,12735,1317025,260228,-218689,0,0,0,486,409,501,366,312,409,768,768,402,765,765,335,0,,,
2,1778969541248,12060,29164,18961,-4050036,-2930931,2153910,0,0,0,421,335,265,278,227,285,305,201,257,315,343,257,0,,,
1,1778969541264,1631,2378,10610,1139874,-599869,-112399,0,0,0,504,430,504,377,322,422,753,753,388,745,745,356,0,,,
2,1778969541264,15046,21899,11304,-4955338,-1949881,3150842,0,0,0,401,353,275,272,247,297,305,202,264,302,341,254,0,,,
1,1778969541280,-349,1445,11146,1194852,-1034805,-29321,0,0,0,491,438,495,398,334,424,732,732,384,723,723,393,0,,,
2,1778969541280,10471,18344,9815,-5398826,674395,2449569,0,0,0,375,352,284,268,256,304,304,202,266,292,333,249,0,,,
1,1778969541296,-1067,569,11246,1198517,-900415,-40317,0,0,0,491,453,502,415,351,432,707,698,413,693,689,413,0,,,
2,1778969541296,2569,14955,12883,-6378654,1687209,1751961,0,0,0,366,349,280,267,252,300,303,201,261,292,331,246,0,,,
1,1778969541312,-1091,947,10815,1216843,-625526,-40317,0,0,0,514,463,511,415,358,436,685,636,427,669,648,437,0,,,
2,1778969541312,-775,9686,16037,-7513642,961501,954171,0,0,0,380,341,275,268,237,291,304,199,255,292,335,243,0,,,
1,1778969541328,-885,1512,10533,1320690,-317649,-1221,0,0,0,513,474,498,417,374,446,650,550,430,632,602,455,0,,,
2,1778969541328,-1584,4915,18243,-8352971,443488,-179594,0,0,0,395,326,272,272,226,287,305,198,251,292,336,238,0,,,
1,1778969541344,-464,1186,10543,1435533,-208915,24434,0,0,0,533,500,458,425,390,443,619,483,403,585,532,459,0,,,
2,1778969541344,-2747,2565,20057,-8669399,478918,-1116661,0,0,0,385,323,269,272,224,285,310,196,254,296,331,236,0,,,
1,1778969541360,-234,832,10567,1495398,-235793,28099,0,0,0,530,516,429,427,409,441,600,389,418,523,463,477,0,,,
2,1778969541360,-3144,2445,21622,-8631525,602313,-959058,0,0,0,362,340,272,261,233,286,311,193,260,293,328,237,0,,,
1,1778969541376,-497,454,10447,1479515,-307876,46425,0,0,0,550,510,437,434,400,437,593,353,412,490,420,524,0,,,
2,1778969541376,-1713,2713,23024,-8544782,895528,120951,0,0,0,362,347,267,259,240,284,314,200,259,300,337,249,0,,,
1,1778969541392,-1148,-129,10241,1431868,-216246,155159,0,0,0,573,506,396,435,393,434,581,289,407,468,372,541,0,,,
2,1778969541392,134,2388,24766,-8489805,1362229,1445307,0,0,0,361,324,273,263,234,289,316,189,257,295,330,243,0,,,
1,1778969541408,-1263,-555,10442,1444085,41538,274889,0,0,0,591,514,366,435,395,423,577,259,402,454,350,556,0,,,
2,1778969541408,1129,473,28159,-8502022,1803274,2051285,0,0,0,354,311,277,263,224,295,311,184,256,296,324,242,0,,,
1,1778969541424,-938,-603,10796,1555262,241902,349414,0,0,0,604,525,353,453,421,432,567,240,398,454,327,594,0,,,
2,1778969541424,224,-2751,32629,-8629082,1933999,1593136,0,0,0,351,294,273,271,215,290,327,192,256,297,314,237,0,,,
1,1778969541440,-990,-612,10796,1710422,261450,401949,0,0,0,604,532,333,467,441,425,562,231,401,446,308,617,0,,,
2,1778969541440,-1435,-8274,37525,-8780576,1467298,652404,0,0,0,345,294,266,277,221,302,322,192,258,292,331,248,0,,,
1,1778969541456,-1100,-899,10921,1838704,293215,464257,0,0,0,615,547,322,480,446,423,563,239,408,426,290,627,0,,,
2,1778969541456,-818,-17047,40239,-8686503,932180,147829,0,0,0,358,298,260,281,215,286,365,194,261,311,331,254,0,,,
1,1778969541472,-1124,-1287,11538,2045176,379958,555887,0,0,0,621,569,303,488,454,439,557,236,411,417,280,625,0,,,
2,1778969541472,2780,-29509,38430,-7981565,640186,117286,0,0,0,368,299,268,305,213,306,375,195,271,328,331,258,0,,,
1,1778969541488,-737,-1512,12155,2433687,410501,653625,0,0,0,626,587,278,497,478,452,532,227,411,406,273,621,0,,,
2,1778969541488,3967,-43014,30016,-6205169,937067,249233,0,0,0,369,290,257,316,215,310,385,194,277,323,334,275,0,,,
1,1778969541504,-23,-1593,12577,2908940,328645,707381,0,0,0,642,595,259,509,512,462,491,227,402,382,257,624,0,,,
2,1778969541504,-1895,-53854,21421,-3684739,1742187,899193,0,0,0,366,290,246,315,224,309,377,204,273,316,364,271,0,,,
1,1778969541520,703,-1588,13419,3387858,158824,671951,0,0,0,645,602,244,514,532,477,439,217,398,371,239,627,0,,,
2,1778969541520,-6427,-60291,16893,-1254717,1698205,1909564,0,0,0,362,287,236,312,223,303,373,208,272,311,373,261,0,,,
1,1778969541536,1028,-1608,14759,3861890,73303,544891,0,0,0,645,615,253,516,523,483,384,216,424,360,228,621,0,,,
2,1778969541536,-1033,-58851,15338,778242,998153,1947438,0,0,0,364,283,239,303,213,294,380,211,280,319,382,267,0,,,
1,1778969541552,564,-1660,16046,4453207,67195,415388,0,0,0,641,622,282,512,527,490,342,220,434,334,219,589,0,,,
2,1778969541552,2378,-45479,16300,2430021,1070235,1180191,0,0,0,370,287,229,278,212,266,432,371,288,360,500,263,0,,,
1,1778969541568,-1005,-2091,17473,5137376,131946,398284,0,0,0,609,600,269,514,538,486,335,231,440,321,224,555,0,,,
2,1778969541568,-392,-22531,19042,3429397,1336573,731816,0,0,0,356,282,218,272,211,254,498,621,275,450,675,246,0,,,
1,1778969541584,-2837,-3086,20172,5949827,206472,551000,0,0,0,585,584,260,492,526,474,333,229,435,320,226,529,0,,,
2,1778969541584,-4718,15821,17516,3947411,254119,1188743,0,0,0,340,280,245,295,212,304,539,757,277,578,791,253,0,,,
1,1778969541600,-4982,-3656,25149,6900333,232128,847880,0,0,0,533,511,254,446,473,439,332,236,406,309,213,493,0,,,
2,1778969541600,-4580,26743,13098,4829500,-1332907,868650,0,0,0,344,289,261,302,221,335,586,806,304,676,854,270,0,,,
1,1778969541616,-8705,-3541,30648,7893600,42760,1312138,0,0,0,483,469,261,389,403,383,358,236,381,274,210,440,0,,,
2,1778969541616,-899,287,26618,6817256,-1539380,-536339,0,0,0,360,282,260,299,213,313,644,828,301,723,869,266,0,,,
1,1778969541632,-11323,-2857,35773,8811120,-830776,2081828,0,0,0,440,398,273,321,330,331,393,252,351,273,255,390,0,,,
2,1778969541632,1689,-13055,35769,6767165,-642630,-1159422,0,0,0,398,278,319,308,203,319,689,830,283,748,863,260,0,,,
1,1778969541648,-10318,1426,40507,9512393,-2141693,3108082,0,0,0,441,375,293,299,293,311,420,255,351,288,272,369,0,,,
2,1778969541648,2948,-5853,27102,4384790,-58643,-902858,0,0,0,391,279,354,320,208,333,715,824,265,745,854,276,0,,,
1,1778969541664,-6221,11926,35539,8626638,-1888795,3957185,0,0,0,451,367,306,304,281,310,428,253,355,308,274,365,0,,,
2,1778969541664,1545,1005,13988,2373822,45204,-394618,0,0,0,406,285,389,332,204,353,726,817,313,754,842,290,0,,,
1,1778969541680,-7073,16673,27700,4196644,626747,2916270,0,0,0,447,351,301,324,275,306,430,260,356,317,282,363,0,,,
2,1778969541680,966,1727,9207,1593136,348193,-151494,0,0,0,414,316,358,372,235,335,760,825,289,762,826,282,0,,,
1,1778969541696,-9514,17233,23455,-255341,2321287,399505,0,0,0,448,340,299,327,263,303,429,276,359,314,290,360,0,,,
2,1778969541696,2268,-181,10284,1391551,492357,-72082,0,0,0,428,319,400,340,212,338,756,806,318,752,831,310,0,,,
1,1778969541712,-11524,16257,19004,-2577851,2515543,-2061059,0,0,0,452,344,310,314,251,307,425,285,360,310,295,356,0,,,
2,1778969541712,2522,-28,11203,1208291,134390,-92851,0,0,0,397,308,420,324,208,351,735,748,326,721,820,341,0,,,
1,1778969541728,-10796,15520,14166,-3022561,1062905,-2395813,0,0,0,449,354,315,317,252,313,427,283,362,310,298,355,0,,,
2,1778969541728,1981,650,10806,1062905,-144164,-133168,0,0,0,413,350,428,364,278,383,715,688,349,655,775,309,0,,,
1,1778969541744,-6432,14017,11596,-3891211,-335975,-1880243,0,0,0,445,346,309,327,260,320,431,288,365,309,301,355,0,,,
2,1778969541744,1416,981,10303,1037249,-251676,-160046,0,0,0,418,373,430,369,305,387,660,604,326,637,726,348,0,,,
1,1778969541760,-1914,11725,11270,-5015203,-614530,-1351233,0,0,0,446,343,306,329,269,325,431,291,369,304,304,349,0,,,
2,1778969541760,1186,851,10299,1094670,-219911,-166155,0,0,0,424,389,403,357,298,381,614,534,339,596,633,347,0,,,
1,1778969541776,-421,8600,11371,-5957157,-464257,-954171,0,0,0,449,340,304,326,265,324,431,286,369,306,300,349,0,,,
2,1778969541776,995,775,10299,1147204,-128281,-171042,0,0,0,425,393,424,361,298,394,593,482,352,518,558,374,0,,,
1,1778969541792,-71,5407,11672,-6581462,-686612,-497244,0,0,0,443,341,304,322,257,318,440,287,377,316,309,346,0,,,
2,1778969541792,971,693,10208,1210734,24434,-188146,0,0,0,432,389,404,376,290,396,556,413,367,470,488,392,0,,,
1,1778969541808,674,3517,12505,-6840468,-1120326,-204028,0,0,0,445,349,296,321,254,311,376,266,357,315,306,336,0,,,
2,1778969541808,1201,268,9834,1230282,100181,-200363,0,0,0,447,380,378,401,278,392,528,312,379,464,438,380,0,,,
1,1778969541824,1057,2694,14041,-7009067,-1303586,-371406,0,0,0,441,346,296,323,262,325,434,273,378,321,314,355,0,,,
2,1778969541824,1474,-363,9356,1153313,46425,-196698,0,0,0,463,387,359,407,290,416,500,258,377,444,415,390,0,,,
1,1778969541840,497,2234,15874,-7254635,-1428202,-812450,0,0,0,442,346,291,327,266,325,446,277,376,325,316,348,0,,,
2,1778969541840,1804,-741,9365,1054353,-102625,-228463,0,0,0,481,405,347,395,311,437,477,234,378,417,387,411,0,,,
1,1778969541856,90,1387,17501,-7513642,-1590693,-1229060,0,0,0,443,345,287,330,263,322,454,272,368,326,315,340,0,,,
2,1778969541856,2163,-746,9801,1039692,-277332,-324980,0,0,0,506,420,352,391,328,436,482,191,403,409,362,419,0,,,
1,1778969541872,100,335,18994,-7594276,-1654223,-1446528,0,0,0,440,345,279,328,266,318,449,270,368,325,315,334,0,,,
2,1778969541872,2144,-665,10045,1143539,-383623,-481361,0,0,0,535,447,350,418,370,460,493,172,432,413,361,449,0,,,
1,1778969541888,-201,-315,20961,-7535633,-1616349,-1463633,0,0,0,440,346,280,324,266,321,450,265,365,324,308,335,0,,,
2,1778969541888,1569,-856,10050,1257160,-354301,-598647,0,0,0,578,480,336,470,419,491,480,156,429,426,339,492,0,,,
1,1778969541904,-804,-1373,24077,-7575950,-1825265,-1133765,0,0,0,438,352,285,318,264,325,453,259,365,324,301,339,0,,,
2,1778969541904,1249,-1009,10533,1408655,-318871,-659734,0,0,0,641,489,331,475,440,498,470,153,417,416,295,532,0,,,
1,1778969541920,272,-4704,27796,-7695680,-2212553,-474031,0,0,0,436,360,286,320,267,331,453,259,373,323,297,340,0,,,
2,1778969541920,1569,-1306,11323,1653001,-342084,-711047,0,0,0,671,513,305,483,483,525,452,149,430,409,302,563,0,,,
1,1778969541936,3273,-11840,30854,-7670023,-2289522,186924,0,0,0,435,365,285,331,273,341,457,266,380,321,297,337,0,,,
2,1778969541936,1316,-1512,12055,1953547,-367740,-764803,0,0,0,691,513,287,488,517,518,449,165,432,378,283,600,0,,,
1,1778969541952,4785,-21651,30973,-7181331,-1820378,350636,0,0,0,433,366,289,333,277,344,460,267,384,321,299,340,0,,,
2,1778969541952,354,-1311,13184,2415361,-349414,-744033,0,0,0,738,538,304,492,534,523,414,163,384,370,283,598,0,,,
1,1778969541968,4326,-32285,28595,-6298020,-1065348,361632,0,0,0,431,366,295,335,277,346,465,264,385,325,303,349,0,,,
2,1778969541968,526,-1201,14826,3061656,-272445,-618195,0,0,0,730,571,287,499,557,550,318,160,418,352,271,637,0,,,
1,1778969541984,3397,-41545,22057,-4842939,-322536,204028,0,0,0,434,371,306,341,279,358,469,268,389,327,307,337,0,,,
2,1778969541984,1689,-1416,16109,3913202,-206472,-586430,0,0,0,726,605,313,500,563,571,278,144,432,337,265,622,0,,,
1,1778969542000,6255,-46637,14529,-2845410,-505796,-521678,0,0,0,434,373,287,347,278,362,472,261,378,327,307,329,0,,,
2,1778969542000,2522,-1493,16759,4926017,-179594,-728151,0,0,0,705,579,333,513,599,588,253,147,442,304,224,584,0,,,
1,1778969542016,6925,-50112,9834,-747699,-522900,-1678657,0,0,0,435,370,264,344,291,334,470,271,384,332,320,335,0,,,
2,1778969542016,2699,-1440,17721,5909510,-218689,-933402,0,0,0,681,608,368,521,605,593,242,142,468,282,214,571,0,,,
1,1778969542032,-272,-49987,8475,921184,-383623,-2365270,0,0,0,427,304,240,342,216,334,476,320,368,361,368,321,0,,,
2,1778969542032,3565,-2057,19918,6759834,-284663,-1120326,0,0,0,619,563,384,475,542,552,240,119,440,276,200,489,0,,,
1,1778969542048,-5068,-39932,12189,2339613,-1391551,-1681101,0,0,0,414,301,208,325,210,320,586,577,334,469,540,266,0,,,
2,1778969542048,6001,-4211,25924,7652919,-324980,-1373225,0,0,0,542,463,328,441,431,460,257,104,330,277,193,417,0,,,
1,1778969542064,-827,-17286,18123,3744603,-833220,-977384,0,0,0,411,320,211,307,224,334,652,688,340,572,664,235,0,,,
2,1778969542064,9523,-5374,33835,8277223,51312,-1737300,0,0,0,460,362,286,355,301,369,285,129,279,265,220,325,0,,,
1,1778969542080,4642,8164,18679,5177693,2255314,-682947,0,0,0,426,326,208,316,216,359,712,751,360,685,744,214,0,,,
2,1778969542080,12562,-3498,40703,8845328,889419,-2382374,0,0,0,393,299,283,296,207,315,324,151,265,282,252,265,0,,,
1,1778969542096,5331,5283,28068,6133086,4098905,-37873,0,0,0,437,329,352,335,212,391,752,765,379,765,780,245,0,,,
2,1778969542096,13792,5848,40669,8884424,1762957,-3286454,0,0,0,366,282,305,279,181,319,322,169,279,286,270,262,0,,,
1,1778969542112,1703,-8202,37248,5474574,3865555,601091,0,0,0,471,391,509,378,284,409,772,772,385,793,793,281,0,,,
2,1778969542112,10533,21488,32471,6807482,1496619,-4355469,0,0,0,377,287,305,266,183,312,306,187,297,276,285,258,0,,,
1,1778969542128,239,-10327,29423,3136182,2803871,311541,0,0,0,501,465,581,413,350,415,778,778,403,794,794,330,0,,,
2,1778969542128,5436,30547,27451,2293188,-372627,-4128227,0,0,0,396,296,287,270,179,279,314,187,286,295,297,247,0,,,
1,1778969542144,3378,-2938,15568,1381777,1598023,-124616,0,0,0,509,502,599,427,394,429,778,778,415,784,784,380,0,,,
2,1778969542144,6355,25891,20904,-2059837,-2844188,-1642005,0,0,0,394,299,287,281,178,276,316,178,265,312,303,252,0,,,
1,1778969542160,3914,1497,9830,912632,112399,-216246,0,0,0,516,515,580,441,431,440,772,765,424,769,769,412,0,,,
2,1778969542160,10567,19784,12136,-3656639,-3257133,632856,0,0,0,396,308,282,279,189,273,316,175,252,308,307,254,0,,,
1,1778969542176,1349,665,10480,1093448,-869872,-134390,0,0,0,560,541,538,454,426,435,761,733,436,758,758,435,0,,,
2,1778969542176,10653,17779,7671,-4017049,-1736079,1731192,0,0,0,400,325,288,279,203,277,324,184,261,304,306,249,0,,,
1,1778969542192,-296,-339,10906,1059240,-1177748,-87964,0,0,0,596,577,534,458,419,438,753,697,430,737,729,456,0,,,
2,1778969542192,7231,16176,8475,-5110498,-702495,2122145,0,0,0,404,312,287,287,186,282,326,184,268,311,314,245,0,,,
1,1778969542208,-445,-76,10744,961501,-1081231,-73303,0,0,0,531,541,536,471,442,446,741,659,462,707,673,478,0,,,
2,1778969542208,5039,12878,10136,-6355441,-227241,2128254,0,0,0,386,309,287,282,190,288,325,191,267,300,315,248,0,,,
1,1778969542224,-440,674,10792,1117883,-968832,-54977,0,0,0,557,541,468,498,441,437,731,590,444,670,602,491,0,,,
2,1778969542224,3354,8394,12787,-7329161,-36651,1441641,0,0,0,381,310,301,275,194,311,324,211,293,293,345,267,0,,,
1,1778969542240,-717,641,10763,1297477,-872315,-19547,0,0,0,567,529,418,510,455,444,708,516,451,618,548,521,0,,,
2,1778969542240,1440,4795,15721,-7937582,-277332,340862,0,0,0,376,307,305,264,195,325,320,185,282,280,323,263,0,,,
1,1778969542256,-827,186,10437,1385442,-745255,20769,0,0,0,556,518,384,529,441,458,675,454,467,549,492,546,0,,,
2,1778969542256,971,2770,17913,-8326093,-524122,-312763,0,0,0,371,305,292,268,198,301,323,187,267,293,343,255,0,,,
1,1778969542272,-717,-205,10131,1340238,-649960,50090,0,0,0,558,514,331,500,427,456,659,350,480,506,403,567,0,,,
2,1778969542272,2172,2239,19526,-8390844,-335975,101403,0,0,0,380,306,288,273,196,287,321,180,258,297,340,239,0,,,
1,1778969542288,-1139,-392,10064,1248608,-583987,113620,0,0,0,554,516,296,496,444,449,649,306,474,480,369,592,0,,,
2,1778969542288,5522,1459,20713,-8192924,223576,1573588,0,0,0,387,307,288,274,196,285,327,182,260,306,341,242,0,,,
1,1778969542304,-1799,-760,10189,1198517,-387288,237015,0,0,0,572,531,273,503,438,440,638,271,468,481,341,587,0,,,
2,1778969542304,9040,90,21473,-7938804,853989,2737898,0,0,0,383,308,296,277,197,292,337,184,263,310,344,242,0,,,
1,1778969542320,-1962,-1014,10648,1224173,-35430,381179,0,0,0,590,550,272,501,454,447,606,244,432,469,319,601,0,,,
2,1778969542320,10279,-1679,23306,-7745771,1523497,2850297,0,0,0,370,314,294,272,205,303,324,183,270,304,347,255,0,,,
1,1778969542336,-1349,-1091,10906,1350012,197920,481361,0,0,0,600,556,243,504,469,441,597,235,415,451,303,611,0,,,
2,1778969542336,8868,-3608,26355,-7733553,1905899,2013411,0,0,0,364,309,289,267,202,305,321,184,280,295,345,272,0,,,
1,1778969542352,-923,-1277,10897,1501506,232128,533896,0,0,0,608,553,234,504,475,439,600,232,422,436,289,614,0,,,
2,1778969542352,5417,-6791,30964,-7850840,2018298,570548,0,0,0,360,301,296,269,198,309,328,188,283,291,345,268,0,,,
1,1778969542368,-660,-1320,11471,1734857,237015,559552,0,0,0,618,569,240,505,488,442,594,232,442,424,280,624,0,,,
2,1778969542368,2737,-12950,34907,-7811744,1901012,-243124,0,0,0,355,300,290,274,202,307,332,181,275,295,338,254,0,,,
1,1778969542384,-894,-1454,12155,2072054,298102,575435,0,0,0,626,586,228,514,500,433,582,228,440,423,268,635,0,,,
