sole_id,timestamp,accel_x,accel_y,accel_z,gyro_x,gyro_y,gyro_z,magn_x,magn_y,magn_z,pressure_01,pressure_02,pressure_03,pressure_04,pressure_05,pressure_06,pressure_07,pressure_08,pressure_09,pressure_10,pressure_11,pressure_12,corrupt,concrete,asphalt
1,1778967543520,-650,0,9992,183259,-76969,-32986,0,0,0,648,466,650,397,283,417,764,665,451,718,722,688,0,,
1,1778967543536,-751,-38,10011,180816,-96516,-39095,0,0,0,657,483,649,407,294,421,752,658,447,688,714,691,0,,
2,1778967543536,-765,-1703,8533,1183856,-387288,-305432,0,0,0,306,334,255,250,247,228,310,263,180,308,463,238,0,,
1,1778967543552,-818,-100,9954,168598,-83077,-41538,0,0,0,666,499,656,404,304,440,751,646,443,679,706,701,0,,
2,1778967543552,-1009,2311,10394,1607797,-43982,-333532,0,0,0,300,330,276,255,216,273,377,335,240,359,512,256,0,,
1,1778967543568,-808,-148,9911,138055,-61086,-37873,0,0,0,670,492,655,398,293,439,752,635,445,673,702,705,0,,
2,1778967543568,-1110,4125,14027,1167974,851546,-284663,0,0,0,278,358,306,253,236,299,408,360,233,336,494,293,0,,
1,1778967543584,-770,-143,9992,103847,-52534,-36651,0,0,0,679,475,646,394,281,437,743,619,452,690,693,704,0,,
2,1778967543584,1923,837,14778,72082,1235169,6108,0,0,0,295,369,312,249,244,295,392,407,219,347,507,298,0,,
1,1778967543600,-780,-105,10246,96516,-62308,-39095,0,0,0,680,475,637,404,281,446,712,596,443,716,672,691,0,,
2,1778967543600,3321,-435,11797,-305432,392175,118507,0,0,0,303,374,337,258,253,315,408,412,219,369,514,313,0,,
1,1778967543616,-808,-52,10514,152716,-87964,-37873,0,0,0,685,473,620,409,283,446,689,558,423,636,668,725,0,,
2,1778967543616,1751,411,9897,51312,-243124,-6108,0,0,0,326,372,360,247,246,323,425,397,257,384,516,339,0,,
1,1778967543632,-770,-71,10442,245567,-123394,-32986,0,0,0,680,489,628,443,314,453,671,514,431,640,650,728,0,,
2,1778967543632,545,650,9839,449596,-230907,-128281,0,0,0,326,392,394,236,247,313,435,393,275,395,522,338,0,,
1,1778967543648,-732,-138,10260,320093,-164933,-31764,0,0,0,687,475,574,442,307,410,675,499,445,650,618,726,0,,
2,1778967543648,741,-90,9748,375071,-130725,-103847,0,0,0,319,401,397,250,263,320,431,404,278,407,520,338,0,,
1,1778967543664,-765,-210,10155,364075,-201585,-34208,0,0,0,668,470,530,411,282,438,652,437,454,613,594,720,0,,
2,1778967543664,894,-583,9423,205250,-130725,-58643,0,0,0,337,399,419,276,259,353,438,410,295,433,525,350,0,,
1,1778967543680,-861,-287,10155,386066,-208915,-34208,0,0,0,646,457,525,405,278,413,620,379,430,572,540,686,0,,
2,1778967543680,794,-579,9217,40317,-164933,-26878,0,0,0,374,409,469,291,258,361,472,416,309,493,536,373,0,,
1,1778967543696,-947,-378,10131,393397,-196698,-30543,0,0,0,635,405,477,382,253,381,590,360,421,529,509,664,0,x,
2,1778967543696,732,-201,9480,-19547,-146607,-17104,0,0,0,410,418,482,303,293,353,492,449,319,565,534,404,0,x,
1,1778967543712,-1028,-488,10126,378736,-172263,-24434,0,0,0,599,345,466,354,208,363,558,389,412,502,489,619,0,,
2,1778967543712,890,-23,9796,-31764,-146607,-8552,0,0,0,442,447,512,321,310,371,508,466,316,595,559,403,0,,
1,1778967543728,-1215,-516,10241,356745,-140499,-3665,0,0,0,567,288,406,320,205,332,521,376,389,475,482,596,0,,
2,1778967543728,952,-157,9772,-46425,-189368,-2443,0,0,0,498,476,500,342,298,354,535,431,267,581,586,399,0,,
1,1778967543744,-1421,-536,10538,361632,-97738,35430,0,0,0,539,260,359,282,182,313,468,361,373,432,489,552,0,,
2,1778967543744,827,-224,9590,-111177,-227241,0,0,0,0,533,460,521,375,273,366,566,437,288,592,608,402,0,,
1,1778967543760,-1497,-603,10868,390953,-24434,80634,0,0,0,523,284,328,256,159,289,440,380,355,404,495,501,0,,
2,1778967543760,789,-134,9700,-172263,-249233,0,0,0,0,553,484,545,386,286,367,604,487,291,644,637,489,0,,
1,1778967543776,-1962,-904,10926,415388,92851,122173,0,0,0,521,282,304,252,147,260,449,385,349,392,488,471,0,,
2,1778967543776,823,-14,10007,-199142,-273667,-6108,0,0,0,552,514,567,380,318,381,661,466,301,642,666,521,0,,
1,1778967543792,-3508,-2239,10787,408057,230907,285884,0,0,0,509,229,312,252,114,257,457,367,367,379,481,444,0,,
2,1778967543792,780,23,10236,-172263,-284663,-10995,0,0,0,531,519,597,347,330,378,656,458,355,652,666,461,0,,
1,1778967543808,-5451,-4364,10811,326202,337197,796568,0,0,0,488,224,304,236,112,267,458,368,375,388,490,437,0,,
2,1778967543808,655,38,10332,-117286,-259006,-13439,0,0,0,524,516,602,371,354,402,649,443,363,665,659,498,0,,
1,1778967543824,-5192,-5336,11217,90408,737925,1365894,0,0,0,484,225,322,233,117,282,442,376,392,414,481,455,0,,
2,1778967543824,521,52,10256,-43982,-182037,-9773,0,0,0,541,523,617,408,341,383,654,449,350,674,661,512,0,,
1,1778967543840,-5996,-5829,10859,-86742,1105666,1689653,0,0,0,480,230,338,233,116,320,458,373,385,456,456,476,0,,
2,1778967543840,483,57,10122,23212,-87964,-1221,0,0,0,539,526,624,423,342,399,662,454,330,666,654,492,0,,
1,1778967543856,-7738,-5508,9897,-97738,796568,1915673,0,0,0,504,233,346,231,109,299,451,381,400,420,494,510,0,,
2,1778967543856,526,23,9978,62308,-19547,3665,0,0,0,528,553,625,426,350,410,665,454,311,662,651,485,0,,
1,1778967543872,-7872,-4307,9183,46425,285884,1995085,0,0,0,468,233,338,224,117,308,431,371,383,413,505,514,0,,
2,1778967543872,555,-28,9801,58643,20769,8552,0,0,0,517,570,623,438,358,423,672,470,317,666,651,492,0,,
1,1778967543888,-7657,-3225,8758,221133,-25656,1848478,0,0,0,502,235,327,267,120,297,475,364,385,421,505,504,0,,
2,1778967543888,583,-71,9667,26878,46425,14660,0,0,0,523,563,633,426,340,424,658,462,315,666,647,497,0,,
1,1778967543904,-7523,-2699,8686,415388,-359188,1530828,0,0,0,501,237,326,250,111,277,486,365,371,417,506,491,0,,
2,1778967543904,626,-57,9614,-21991,54977,19547,0,0,0,527,550,641,435,370,441,649,463,305,666,660,498,0,,
1,1778967543920,-6949,-2742,9140,588874,-879645,1415985,0,0,0,503,230,324,249,113,283,466,370,359,409,508,493,0,,
2,1778967543920,641,-28,9619,-72082,53756,25656,0,0,0,498,532,614,414,379,430,653,470,316,673,674,486,0,,
1,1778967543936,-4747,-2474,9930,742812,-1303586,1596801,0,0,0,477,208,322,230,107,270,415,342,361,379,495,490,0,,
2,1778967543936,306,19,9643,-116064,56199,43982,0,0,0,466,515,577,366,328,392,667,473,337,681,680,463,0,,
1,1778967543952,880,-95,11194,840550,-1287703,1769065,0,0,0,473,208,307,234,113,277,439,352,377,383,500,518,0,,
2,1778967543952,-559,0,9399,-185703,177150,239459,0,0,0,456,518,571,368,306,392,658,490,358,681,705,432,0,,
1,1778967543968,16520,10758,14036,585208,267558,1171639,0,0,0,495,212,295,243,116,275,478,353,394,383,503,533,0,,
2,1778967543968,1258,28,9518,-278554,305432,356745,0,0,0,447,536,570,371,316,401,612,518,360,677,732,391,0,,
1,1778967543984,25187,21622,11375,-338419,2894279,-431270,0,0,0,498,209,293,240,115,263,454,342,397,385,485,523,0,,
2,1778967543984,3235,90,10189,-318871,153938,116064,0,0,0,451,524,547,356,317,397,679,594,312,683,748,379,0,,
1,1778967544000,14922,14242,4838,-355523,1775174,-1166752,0,0,0,486,214,301,235,115,259,419,342,386,387,473,514,0,,
2,1778967544000,1521,52,9710,-343306,-183259,-134390,0,0,0,449,510,542,337,297,374,672,606,328,684,768,415,0,,
1,1778967544016,1569,2301,5666,372627,-734260,-851546,0,0,0,485,220,316,230,116,267,419,338,381,355,480,514,0,,
2,1778967544016,-86,124,9064,-470366,-340862,-106290,0,0,0,478,486,552,346,299,354,675,651,323,705,773,377,0,,
1,1778967544032,-4651,-2938,10528,748920,-1975538,-364075,0,0,0,484,216,318,226,119,282,417,348,387,338,484,516,0,,
2,1778967544032,119,363,9495,-602313,-274889,45204,0,0,0,467,497,539,343,336,371,686,668,333,705,783,362,0,,
1,1778967544048,-1847,-1115,12117,565661,-1372003,-624304,0,0,0,491,220,320,225,108,272,422,353,384,346,483,503,0,,
2,1778967544048,631,540,10150,-604756,-182037,94073,0,0,0,444,461,562,347,302,388,699,702,360,740,814,343,0,,
1,1778967544064,1407,1091,12299,403171,-415388,-1163087,0,0,0,495,229,326,217,106,263,421,352,389,348,479,500,0,,
2,1778967544064,804,674,10399,-498466,-116064,73303,0,0,0,435,469,554,355,313,371,705,705,295,741,812,354,0,,
1,1778967544080,1316,1770,12026,317649,158824,-1500285,0,0,0,501,230,326,221,114,270,416,349,381,357,481,504,0,,
2,1778967544080,698,780,10222,-365297,-83077,51312,0,0,0,457,437,567,375,286,355,708,706,261,747,820,352,0,,
1,1778967544096,-1014,2297,11294,211359,329867,-1429424,0,0,0,499,231,328,218,112,273,416,354,382,348,475,503,0,,
2,1778967544096,665,804,10002,-249233,-57421,41538,0,0,0,470,433,544,355,286,329,707,701,279,753,824,336,0,,
1,1778967544112,-3015,3302,10327,48869,386066,-1255938,0,0,0,499,230,327,220,114,280,431,356,380,350,475,507,0,,
2,1778967544112,708,756,9930,-173485,-41538,35430,0,0,0,445,443,530,348,289,336,706,699,284,743,824,316,0,,
1,1778967544128,-4259,4087,9557,-145385,315206,-1131322,0,0,0,516,229,326,223,112,280,425,350,380,349,477,504,0,,
2,1778967544128,713,713,9911,-124616,-30543,25656,0,0,0,426,434,515,324,282,349,703,708,281,735,822,286,0,,
1,1778967544144,-4728,4546,8987,-373849,64751,-1031140,0,0,0,511,233,330,219,114,283,433,348,388,357,473,511,0,,
2,1778967544144,674,722,9897,-91629,-15882,19547,0,0,0,444,434,479,345,305,338,706,719,290,736,828,294,0,,
1,1778967544160,-4364,5101,8647,-590095,-255341,-957836,0,0,0,509,233,328,225,119,286,446,345,385,374,486,515,0,,
2,1778967544160,650,775,9834,-68416,-1221,15882,0,0,0,448,439,490,329,296,333,703,722,311,743,834,331,0,,
1,1778967544176,-3034,5498,8939,-777020,-518013,-971275,0,0,0,497,229,320,225,116,283,448,342,382,381,488,520,0,,
2,1778967544176,670,799,9758,-47647,3665,12217,0,0,0,437,425,508,316,274,330,699,721,288,738,828,304,0,,
1,1778967544192,-1670,5283,9461,-962723,-659734,-1026253,0,0,0,483,222,314,225,114,278,447,336,382,384,474,516,0,,
2,1778967544192,708,804,9696,-34208,0,9773,0,0,0,435,420,498,322,277,311,696,723,265,738,825,287,0,,
1,1778967544208,-732,4302,9930,-1109331,-681725,-1067792,0,0,0,475,219,311,233,118,274,452,326,383,395,464,501,0,,
2,1778967544208,732,799,9676,-29321,-20769,2443,0,0,0,437,434,496,305,279,296,696,725,269,748,829,330,0,,
1,1778967544224,-296,2948,10270,-1170417,-640186,-1045801,0,0,0,467,224,316,232,117,273,450,312,389,390,465,487,0,,
2,1778967544224,722,760,9681,-31764,-42760,0,0,0,0,434,430,502,310,274,299,704,727,252,743,828,327,0,,
1,1778967544240,-143,1818,10648,-1192408,-542448,-967610,0,0,0,467,225,313,229,119,277,446,293,392,370,467,491,0,,
2,1778967544240,684,756,9686,-41538,-57421,0,0,0,0,422,413,501,320,267,309,697,733,265,741,829,304,0,,
1,1778967544256,-153,698,10782,-1219287,-377514,-874759,0,0,0,479,224,298,249,126,279,450,290,387,381,462,510,0,,
2,1778967544256,679,813,9710,-47647,-61086,0,0,0,0,399,422,490,317,267,307,692,726,263,742,830,323,0,,
1,1778967544272,-492,-521,10586,-1152091,-195476,-744033,0,0,0,445,229,323,216,118,285,427,316,387,355,459,524,0,,
2,1778967544272,684,842,9743,-42760,-59864,0,0,0,0,389,421,505,305,249,320,696,719,323,746,838,343,0,,
1,1778967544288,-923,-1440,10375,-935845,-105068,-615752,0,0,0,431,242,331,224,116,268,437,327,376,341,466,484,0,,
2,1778967544288,689,813,9758,-35430,-56199,-1221,0,0,0,378,416,497,302,274,362,705,724,310,740,822,327,0,,
1,1778967544304,-1378,-2100,10284,-712268,-76969,-558330,0,0,0,419,231,299,224,141,277,402,335,379,333,458,480,0,,
2,1778967544304,674,789,9753,-37873,-52534,-1221,0,0,0,386,396,499,300,269,341,699,726,295,747,826,352,0,,
1,1778967544320,-1876,-2766,10212,-524122,-144164,-602313,0,0,0,413,240,294,227,130,263,427,318,404,333,463,446,0,,
2,1778967544320,684,823,9777,-43982,-50090,-1221,0,0,0,363,398,496,292,259,317,704,729,290,744,832,337,0,,
1,1778967544336,-2345,-3239,10466,-453262,-311541,-718377,0,0,0,445,246,316,228,115,265,436,355,386,351,498,451,0,,
2,1778967544336,717,914,9834,-28099,-53756,-4886,0,0,0,396,410,494,308,270,315,649,695,307,745,852,328,0,,
1,1778967544352,-2330,-4881,11031,-674395,-524122,-877202,0,0,0,437,232,266,241,129,254,432,376,357,367,502,419,0,,
2,1778967544352,727,942,9873,17104,-63529,-10995,0,0,0,415,413,494,316,263,336,679,722,284,742,842,333,0,,
1,1778967544368,-1799,-13409,10356,-356745,-594982,-979827,0,0,0,406,246,292,224,131,278,415,383,370,347,526,457,0,,
2,1778967544368,737,918,9920,68416,-70860,-15882,0,0,0,413,397,516,327,262,368,702,732,300,752,842,377,0,,
1,1778967544384,-780,-21521,10016,641408,-423940,-831998,0,0,0,407,243,298,235,135,282,435,443,369,352,525,439,0,,
2,1778967544384,751,909,9925,117286,-85521,-20769,0,0,0,426,405,486,333,259,333,695,726,262,751,850,334,0,,
1,1778967544400,-373,-18970,11663,1354899,-85521,-357967,0,0,0,434,250,295,244,131,271,447,446,356,398,516,440,0,,
2,1778967544400,756,909,9944,162490,-106290,-24434,0,0,0,416,415,473,329,258,310,676,719,249,750,850,293,0,,
1,1778967544416,-1646,-4594,12376,714712,174707,24434,0,0,0,437,248,297,236,127,264,483,468,350,432,544,454,0,,
2,1778967544416,775,909,10088,227241,-130725,-28099,0,0,0,402,441,476,319,261,319,641,700,255,738,842,300,0,,
1,1778967544432,-2182,4316,9743,74525,371406,43982,0,0,0,432,247,329,228,123,265,519,527,355,460,585,437,0,,
2,1778967544432,804,890,10275,317649,-142942,-36651,0,0,0,413,465,478,307,266,329,607,653,261,708,827,317,0,,
1,1778967544448,-1330,2526,8997,229685,463035,-41538,0,0,0,442,257,375,233,127,269,539,577,367,508,622,421,0,,
2,1778967544448,837,894,10528,444709,-145385,-54977,0,0,0,422,459,473,320,295,341,563,586,271,664,804,329,0,,
1,1778967544464,-406,-933,9892,305432,344527,-87964,0,0,0,451,268,400,248,143,279,574,608,379,565,673,435,0,,
2,1778967544464,894,933,10839,634078,-116064,-90408,0,0,0,403,448,441,353,329,340,485,489,258,582,760,336,0,,
1,1778967544480,-167,-1373,10241,7330,105068,-98960,0,0,0,459,274,436,272,151,300,629,642,386,604,718,443,0,,
2,1778967544480,985,1028,11179,877202,-68416,-136833,0,0,0,377,455,384,330,297,293,427,385,234,491,677,324,0,,
1,1778967544496,-521,-43,9901,-389732,-106290,-108734,0,0,0,484,283,514,313,159,312,683,680,390,620,728,457,0,,
2,1778967544496,1378,1158,11897,1285260,-40317,-218689,0,0,0,356,482,311,270,263,264,401,334,243,462,591,333,0,,
1,1778967544512,-722,421,9863,-443488,-213802,-135612,0,0,0,479,295,542,304,157,334,718,705,379,657,752,489,0,,
2,1778967544512,2416,1081,13945,1805717,-312763,-351858,0,0,0,348,450,261,250,280,280,383,286,272,470,560,329,0,,
1,1778967544528,-1072,339,10035,-383623,-295658,-152716,0,0,0,479,342,586,321,205,353,700,711,420,677,752,499,0,,
2,1778967544528,3192,239,17032,2480112,-845437,-576656,0,0,0,329,420,273,269,276,264,371,287,210,464,541,307,0,,
1,1778967544544,-1435,248,10217,-355523,-282219,-140499,0,0,0,509,307,633,327,198,364,721,725,450,704,767,505,0,,
2,1778967544544,3785,134,18903,3141069,-1099557,-824668,0,0,0,343,381,259,235,246,246,353,286,213,393,536,271,0,,
1,1778967544560,-1517,445,10519,-356745,-188146,-109955,0,0,0,519,322,643,358,204,378,723,737,417,720,774,519,0,,
2,1778967544560,4379,1928,18999,3402519,-1582140,-841772,0,0,0,279,315,260,230,264,271,317,324,227,356,539,293,0,,
1,1778967544576,-1426,641,10753,-310319,-102625,-81855,0,0,0,502,377,656,340,225,374,744,748,420,727,782,516,0,,
2,1778967544576,5159,3235,17607,3422067,-2306627,-750142,0,0,0,348,354,259,230,242,283,291,328,248,297,535,272,0,,
1,1778967544592,-1287,741,10744,-205250,-72082,-67195,0,0,0,506,332,665,321,202,381,757,745,424,729,784,536,0,,
2,1778967544592,7887,6077,14486,3282789,-2576629,-647517,0,0,0,294,360,258,229,262,308,305,341,267,286,556,276,0,,
1,1778967544608,-1258,760,10547,-58643,-78190,-54977,0,0,0,512,319,672,339,213,393,773,752,460,727,785,563,0,,
2,1778967544608,10777,11600,10624,2570520,-1171639,-205250,0,0,0,294,362,248,229,266,300,312,343,263,298,562,297,0,,
1,1778967544624,-1234,674,10418,53756,-94073,-45204,0,0,0,522,316,671,344,219,416,780,755,474,729,790,598,0,,
2,1778967544624,10390,13692,7097,1780061,151494,610865,0,0,0,317,389,260,234,286,310,330,344,273,312,555,311,0,,
1,1778967544640,-1206,617,10409,128281,-125838,-35430,0,0,0,525,316,671,360,220,430,784,754,465,736,790,608,0,,
2,1778967544640,7958,13223,4694,1238834,943175,1422094,0,0,0,324,380,256,248,280,314,347,341,273,318,572,303,0,,
1,1778967544656,-1201,612,10366,190589,-161268,-25656,0,0,0,524,323,667,382,223,420,790,753,467,734,777,593,0,,
2,1778967544656,4934,12739,4742,706160,1185078,1587027,0,0,0,304,371,276,240,271,316,352,341,280,307,593,323,0,,
1,1778967544672,-1220,574,10236,251676,-188146,-15882,0,0,0,517,326,658,387,228,404,795,752,490,731,768,584,0,,
2,1778967544672,2608,11878,5240,46425,1230282,1348790,0,0,0,294,391,285,234,276,312,349,345,283,305,599,320,0,,
1,1778967544688,-1273,512,10136,294437,-199142,-9773,0,0,0,514,329,662,378,230,404,791,750,500,729,764,586,0,,
2,1778967544688,1052,10528,5876,-663399,1133765,839328,0,0,0,310,398,278,241,294,309,344,349,281,301,597,313,0,,
1,1778967544704,-1325,492,10021,313984,-179594,-6108,0,0,0,524,339,677,363,232,413,777,737,478,715,755,593,0,,
2,1778967544704,210,8930,6738,-1319468,988379,296880,0,0,0,331,388,280,246,296,309,335,346,278,294,598,318,0,,
1,1778967544720,-1335,464,9901,318871,-142942,-2443,0,0,0,517,343,668,361,243,406,766,720,464,711,751,609,0,,
2,1778967544720,-186,7609,7681,-1776396,900415,-35430,0,0,0,345,384,291,242,272,313,328,333,274,297,597,315,0,,
1,1778967544736,-1296,406,9820,315206,-107512,0,0,0,0,524,318,664,374,220,440,777,708,466,713,746,615,0,,
2,1778967544736,-449,6542,8686,-2091602,864985,-177150,0,0,0,337,386,298,234,264,318,331,326,277,297,584,307,0,,
1,1778967544752,-1268,358,9782,305432,-85521,2443,0,0,0,529,319,658,393,216,465,756,695,457,707,736,593,0,,
2,1778967544752,-737,5781,9734,-2333505,861319,-147829,0,0,0,306,378,300,228,270,316,351,332,285,312,571,297,0,,
1,1778967544768,-1268,325,9786,299323,-67195,4886,0,0,0,522,313,651,420,245,495,751,672,485,704,736,586,0,,
2,1778967544768,-1067,5202,10547,-2481334,884532,118507,0,0,0,318,374,293,252,273,299,382,321,279,371,555,301,0,,
1,1778967544784,-1277,272,9868,296880,-57421,8552,0,0,0,536,364,665,420,247,476,778,661,489,697,724,595,0,,
2,1778967544784,-1354,4249,11050,-2503325,905302,618195,0,0,0,324,416,274,228,293,263,369,310,293,370,529,291,0,,
1,1778967544800,-1316,215,9968,298102,-46425,13439,0,0,0,546,362,664,395,241,471,778,631,478,693,704,620,0,,
2,1778967544800,-1411,3498,11624,-2452013,929736,1126435,0,0,0,310,405,268,234,282,273,362,303,293,370,525,321,0,,
1,1778967544816,-1368,186,10031,310319,-21991,19547,0,0,0,537,455,674,425,282,498,768,600,496,695,684,635,0,,
2,1778967544816,-1512,3048,12490,-2516764,939510,1485624,0,0,0,277,348,281,224,247,267,336,302,281,321,508,295,0,,
1,1778967544832,-1378,157,10064,332310,19547,29321,0,0,0,584,463,673,461,299,495,774,574,494,691,662,628,0,,
2,1778967544832,-1785,1780,13026,-2680476,764803,1593136,0,0,0,264,359,300,218,250,283,328,296,287,295,503,300,0,,
1,1778967544848,-1340,129,10189,371406,68416,35430,0,0,0,606,472,658,484,345,505,773,525,515,689,642,642,0,,
2,1778967544848,-1761,354,13079,-2634050,502131,1450194,0,0,0,259,359,296,223,256,288,345,251,287,308,481,309,0,,
1,1778967544864,-1359,119,10346,430049,109955,39095,0,0,0,612,491,686,498,373,516,774,479,522,684,610,669,0,,
2,1778967544864,-1273,-425,13242,-2426356,228463,1148426,0,0,0,263,366,332,210,250,309,338,246,301,300,468,359,0,,
1,1778967544880,-1335,57,10433,516791,152716,48869,0,0,0,642,503,722,502,373,544,773,429,530,674,567,707,0,,
2,1778967544880,-287,-693,13625,-2365270,-24434,800233,0,0,0,272,362,332,218,252,314,342,247,312,284,472,356,0,,
1,1778967544896,-1263,-19,10471,620639,167377,68416,0,0,0,676,527,737,505,395,582,764,356,547,633,505,738,0,,
2,1778967544896,1067,-1416,13787,-2489886,-248011,445931,0,0,0,283,357,325,225,249,320,357,255,309,294,471,354,0,,
1,1778967544912,-1191,-134,10562,741590,124616,91629,0,0,0,696,570,726,521,435,590,741,306,550,561,445,752,0,,
2,1778967544912,2526,-3086,13711,-2765997,-182037,186924,0,0,0,283,362,325,241,279,317,366,255,304,306,478,337,0,,
1,1778967544928,-1296,-239,10825,890641,41538,119729,0,0,0,726,614,676,540,459,583,698,301,560,501,416,773,0,,
2,1778967544928,3062,-6159,13630,-3032335,105068,-7330,0,0,0,272,371,314,232,278,294,358,250,286,304,484,304,0,,
1,1778967544944,-1497,-277,11284,1109331,2443,174707,0,0,0,750,646,629,547,496,592,654,262,578,457,379,780,0,,
2,1778967544944,2038,-11194,13558,-3022561,421497,-195476,0,0,0,265,379,304,215,258,282,315,248,276,304,475,293,0,,
1,1778967544960,-1507,-363,11643,1368338,84299,230907,0,0,0,771,639,592,568,513,598,615,243,575,450,362,784,0,,
2,1778967544960,215,-15845,13409,-2475225,443488,-373849,0,0,0,268,382,304,216,264,295,305,241,279,308,462,302,0,,
1,1778967544976,-1268,-665,11926,1655444,168598,259006,0,0,0,775,645,502,602,559,591,585,228,555,470,351,793,0,,
2,1778967544976,-875,-19119,12845,-1750739,290771,-502131,0,0,0,260,364,268,216,268,288,340,270,261,315,482,283,0,,
1,1778967544992,-1268,-1024,12203,1925447,127059,279776,0,0,0,785,656,482,602,560,611,573,230,559,459,334,792,0,,
2,1778967544992,-1028,-21756,12251,-1001818,45204,-630412,0,0,0,248,337,206,226,261,260,324,397,226,332,539,233,0,,
1,1778967545008,-1383,-1177,12644,2254092,48869,326202,0,0,0,784,657,500,590,595,610,538,243,534,443,363,792,0,,
2,1778967545008,-4283,-29561,13787,494800,-1054353,-835663,0,0,0,296,342,242,268,255,289,346,524,233,334,582,247,0,,
1,1778967545024,-1325,-1086,13041,2623055,113620,357967,0,0,0,792,703,479,575,588,633,534,227,556,443,352,798,0,,
2,1778967545024,-4958,-25331,15046,2558303,-2298075,-783129,0,0,0,310,331,249,284,269,295,383,582,245,371,689,281,0,,
1,1778967545040,-1186,-1349,13328,2995683,224798,372627,0,0,0,787,694,458,567,585,603,507,232,539,416,338,791,0,,
2,1778967545040,-38,-4288,16209,3335324,-2169793,-290771,0,0,0,302,329,229,252,242,274,402,605,234,417,718,266,0,,
1,1778967545056,-847,-1737,13582,3407406,328645,359188,0,0,0,781,685,441,574,545,592,441,216,589,362,274,775,0,,
2,1778967545056,2072,6087,14084,2678033,-1237612,75747,0,0,0,278,328,230,228,246,294,407,650,265,405,735,299,0,,
1,1778967545072,-976,-1890,14046,3771481,359188,312763,0,0,0,775,703,445,546,532,568,369,199,581,332,248,752,0,,
2,1778967545072,373,3589,11198,2353052,-586430,114842,0,0,0,297,341,252,244,246,261,445,650,232,489,771,283,0,,
1,1778967545088,-1493,-2359,14769,4123340,431270,312763,0,0,0,752,691,443,494,512,527,361,190,537,327,239,729,0,,
2,1778967545088,-1751,-291,9944,2240653,-84299,-90408,0,0,0,292,342,232,231,229,240,500,726,244,560,796,261,0,,
1,1778967545104,-2603,-2881,16621,4493524,723264,394618,0,0,0,721,639,441,418,436,487,313,195,498,312,231,700,0,,
2,1778967545104,-430,-33,10844,1968207,179594,-368962,0,0,0,301,337,252,250,222,242,575,742,247,584,799,285,0,,
1,1778967545120,-4670,-3082,18621,4830722,959058,548556,0,0,0,683,544,409,349,338,438,249,174,438,290,203,665,0,,
2,1778967545120,3024,-67,13338,1375668,-36651,-443488,0,0,0,312,332,302,238,227,236,619,747,217,620,809,248,0,,
1,1778967545136,-6374,-2928,20277,5199684,1089783,856433,0,0,0,621,425,333,317,277,387,268,152,374,269,195,616,0,,
2,1778967545136,2665,-1033,13543,564439,-496022,-150272,0,0,0,371,371,344,267,239,232,631,757,207,657,818,235,0,,
1,1778967545152,-5585,-2541,22507,5674938,1264491,1259604,0,0,0,522,326,293,279,222,344,305,183,337,252,245,515,0,,
2,1778967545152,737,-425,11773,134390,-580321,-2443,0,0,0,366,403,390,251,242,225,634,764,221,677,829,251,0,,
1,1778967545168,-5010,-1402,24661,6101322,1419650,1503950,0,0,0,432,272,313,228,160,293,338,228,323,266,306,401,0,,
2,1778967545168,349,440,10437,87964,-390953,-28099,0,0,0,358,405,424,257,261,249,642,767,223,682,835,262,0,,
1,1778967545184,-6762,1756,23737,6323676,1728748,1649336,0,0,0,438,295,309,230,174,295,329,235,348,259,374,404,0,,
2,1778967545184,655,717,10021,106290,-276111,-52534,0,0,0,378,406,444,269,268,265,660,765,222,681,835,259,0,,
1,1778967545200,-10246,8834,17516,5494121,2080607,1560149,0,0,0,450,280,328,216,160,290,303,174,344,264,339,434,0,,
2,1778967545200,722,665,10078,113620,-233350,-39095,0,0,0,396,436,446,273,272,271,681,765,232,684,830,274,0,,
1,1778967545216,-11734,15458,15089,2651155,1492954,764803,0,0,0,440,260,321,222,148,292,308,168,312,271,342,437,0,,
2,1778967545216,430,741,10236,164933,-112399,-29321,0,0,0,403,454,430,291,278,281,684,766,227,691,829,297,0,,
1,1778967545232,-8212,15271,14745,-1034805,660956,-631634,0,0,0,446,262,339,209,130,308,299,164,344,288,365,457,0,,
2,1778967545232,454,818,10361,272445,47647,-34208,0,0,0,412,429,426,305,267,280,669,764,223,686,835,285,0,,
1,1778967545248,-5958,10141,11117,-2279749,867428,-1543045,0,0,0,451,254,351,212,127,337,317,183,362,313,366,472,0,,
2,1778967545248,784,737,10251,389732,156381,-46425,0,0,0,412,415,428,303,267,293,656,770,258,674,829,272,0,,
1,1778967545264,-6255,7537,7743,-2039068,594982,-1712866,0,0,0,452,261,321,222,137,326,321,194,359,327,368,445,0,,
2,1778967545264,995,564,9964,406836,98960,-54977,0,0,0,409,425,416,309,275,298,655,765,246,671,826,267,0,,
1,1778967545280,-5130,7595,7025,-1847256,-443488,-1533271,0,0,0,458,277,314,226,143,313,331,188,365,335,369,440,0,,
2,1778967545280,1014,464,9734,370184,-23212,-62308,0,0,0,386,433,437,316,316,305,635,745,209,660,827,257,0,,
1,1778967545296,-2617,7001,7772,-2354274,-871093,-1525941,0,0,0,462,274,308,231,143,295,344,184,356,341,369,421,0,,
2,1778967545296,866,454,9724,331088,-117286,-67195,0,0,0,375,434,434,309,267,295,634,729,214,670,831,270,0,,
1,1778967545312,-1847,5886,8360,-3050661,-762359,-1479515,0,0,0,461,274,309,309,168,285,372,185,348,343,369,422,0,,
2,1778967545312,727,440,9763,318871,-147829,-69638,0,0,0,385,465,422,295,245,294,594,716,202,664,830,294,0,,
1,1778967545328,-2225,4412,8695,-3800803,-720820,-1241278,0,0,0,459,277,321,298,160,287,386,181,348,347,373,437,0,,
2,1778967545328,670,430,9748,332310,-128281,-69638,0,0,0,391,470,427,301,255,288,513,622,277,649,836,292,0,,
1,1778967545344,-1856,2900,9303,-4466646,-968832,-937067,0,0,0,468,279,329,240,136,287,390,179,346,356,381,437,0,,
2,1778967545344,674,387,9710,354301,-100181,-74525,0,0,0,420,498,414,303,261,279,615,697,221,682,820,251,0,,
1,1778967545360,-1201,1947,10500,-5051855,-1145983,-786794,0,0,0,480,283,335,237,136,284,375,183,337,353,385,433,0,,
2,1778967545360,693,315,9700,368962,-87964,-78190,0,0,0,437,481,418,359,271,284,610,669,216,673,811,263,0,,
1,1778967545376,-1091,1306,11830,-5522221,-1092227,-858876,0,0,0,475,280,327,225,140,281,343,184,326,345,384,436,0,,
2,1778967545376,756,272,9782,388510,-95294,-81855,0,0,0,462,491,468,374,326,351,629,635,243,656,797,332,0,,
1,1778967545392,-1445,14,12773,-5854532,-1021366,-966388,0,0,0,461,277,303,230,147,279,352,189,323,354,385,440,0,,
2,1778967545392,789,239,9935,441044,-119729,-86742,0,0,0,428,514,484,364,338,337,638,576,259,628,768,326,0,,
1,1778967545408,-1794,-1215,13749,-6014579,-1020144,-1082453,0,0,0,475,283,313,235,150,287,365,195,330,355,383,429,0,,
2,1778967545408,737,134,10026,508239,-135612,-92851,0,0,0,416,543,489,383,342,379,622,517,291,607,730,331,0,,
1,1778967545424,-2321,-1785,15084,-6031683,-1086118,-1252273,0,0,0,475,283,308,219,138,271,361,195,333,354,384,437,0,,
2,1778967545424,674,33,10035,568104,-118507,-94073,0,0,0,454,578,495,412,401,395,613,439,300,590,670,392,0,,
1,1778967545440,-3062,-2215,17047,-6039013,-1251052,-1407433,0,0,0,455,288,326,208,138,287,357,198,336,339,399,456,0,,
2,1778967545440,717,-14,10074,625526,-94073,-91629,0,0,0,467,578,514,402,410,388,581,352,335,575,614,434,0,,
1,1778967545456,-3287,-3857,20042,-6023131,-1483180,-1404990,0,0,0,449,287,332,210,138,278,365,198,328,341,384,440,0,,
2,1778967545456,880,-76,10203,698829,-80634,-106290,0,0,0,472,579,532,411,443,425,550,278,364,544,554,476,0,,
1,1778967545472,-3120,-7470,22421,-5987701,-1469741,-1390329,0,0,0,449,287,337,212,143,280,362,202,327,339,395,453,0,,
2,1778967545472,1081,-157,10428,780685,-90408,-145385,0,0,0,513,608,523,454,510,493,554,229,381,483,496,534,0,,
1,1778967545488,-2852,-12773,23421,-5927836,-1521054,-1384220,0,0,0,446,285,325,298,179,282,375,243,353,335,399,444,0,,
2,1778967545488,1344,-268,10638,889419,-134390,-230907,0,0,0,565,628,503,469,540,536,557,195,423,421,444,573,0,,
1,1778967545504,-1459,-19660,22689,-5682268,-1733635,-1244943,0,0,0,448,287,321,262,169,283,378,243,360,335,387,408,0,,
2,1778967545504,1459,-397,10882,1011592,-163711,-345749,0,0,0,603,650,481,483,595,540,530,180,432,377,399,609,0,,
1,1778967545520,1043,-26676,20684,-4955338,-1677435,-886976,0,0,0,452,300,324,230,173,299,391,232,376,350,375,404,0,,
2,1778967545520,1000,-516,11749,1249830,-171042,-430049,0,0,0,647,687,423,524,602,539,492,215,405,348,418,650,0,,
1,1778967545536,2282,-30744,17468,-3739716,-970053,-427605,0,0,0,455,303,329,235,180,305,395,220,375,356,363,415,0,,
2,1778967545536,851,-655,12806,1643227,-173485,-458148,0,0,0,697,711,394,527,618,540,452,207,422,373,375,670,0,,
1,1778967545552,2172,-33448,13639,-2492330,-320093,-67195,0,0,0,453,303,331,236,176,297,398,220,365,356,358,407,0,,
2,1778967545552,784,-631,13586,2169793,-183259,-469144,0,0,0,713,715,352,535,612,557,404,188,449,365,359,716,0,,
1,1778967545568,2053,-35764,10275,-1161865,-94073,169820,0,0,0,442,292,321,234,159,294,423,286,351,374,397,396,0,,
2,1778967545568,555,-569,14070,2729345,-207694,-449596,0,0,0,721,711,354,568,656,497,347,157,453,373,361,716,0,,
1,1778967545584,2440,-35405,10476,196698,35430,179594,0,0,0,434,264,296,246,136,286,468,434,326,435,502,391,0,,
2,1778967545584,885,-727,14505,3316998,-244346,-438601,0,0,0,727,723,338,535,674,516,375,157,413,319,350,702,0,,
1,1778967545600,2957,-25661,14501,1852143,1138652,-36651,0,0,0,432,231,261,264,128,266,512,608,308,516,631,374,0,,
2,1778967545600,1469,-1072,15491,4015828,-326202,-489913,0,0,0,712,731,368,543,688,558,284,178,427,315,359,677,0,,
1,1778967545616,1306,-2230,15764,3128851,2689028,-475253,0,0,0,425,210,248,239,131,272,523,697,307,532,692,355,0,,
2,1778967545616,2412,-1196,17482,4790405,-470366,-626747,0,0,0,701,739,404,562,680,589,308,127,494,331,312,640,0,,
1,1778967545632,1588,7379,13448,3456275,2569299,-654847,0,0,0,430,240,271,246,134,269,599,739,335,607,741,368,0,,
2,1778967545632,4048,-1541,20133,5533217,-649960,-858876,0,0,0,607,720,392,510,637,562,328,103,412,317,304,560,0,,
1,1778967545648,3216,1373,13965,3395188,1513724,-262672,0,0,0,434,262,375,262,124,295,655,771,366,644,780,394,0,,
2,1778967545648,5728,-2096,23929,6283359,-924849,-1231504,0,0,0,515,649,375,455,538,455,334,130,318,312,271,474,0,,
1,1778967545664,2321,-3747,16740,2693915,537561,211359,0,0,0,446,246,449,288,131,346,675,775,366,710,787,374,0,,
2,1778967545664,6274,-1550,27355,6976081,-974940,-1609019,0,0,0,434,503,327,328,375,333,281,177,282,275,257,385,0,,
1,1778967545680,-1206,-2455,17406,1473406,107512,268780,0,0,0,461,288,531,282,155,330,712,806,395,723,797,356,0,,
2,1778967545680,5187,-105,30327,7546629,-707381,-1879021,0,0,0,343,377,299,265,273,286,274,231,260,287,391,342,0,,
1,1778967545696,-2431,-536,14931,634078,164933,19547,0,0,0,484,289,546,293,169,370,714,809,414,733,805,378,0,,
2,1778967545696,6374,4570,29174,7689571,-278554,-2036624,0,0,0,299,351,308,241,244,267,296,295,234,302,513,309,0,,
1,1778967545712,-1234,201,12117,415388,207694,-112399,0,0,0,503,293,554,291,179,355,731,822,391,743,808,426,0,,
2,1778967545712,9471,13127,20311,6866125,57421,-2212553,0,0,0,299,373,331,219,232,267,305,312,242,288,524,310,0,,
1,1778967545728,-770,306,10863,390953,45204,-59864,0,0,0,522,306,555,310,201,368,749,829,410,755,817,442,0,,
2,1778967545728,9045,21473,15711,4079358,206472,-1881464,0,0,0,290,371,354,218,213,295,305,286,266,290,519,349,0,,
1,1778967545744,-1167,469,10739,327423,-57421,-20769,0,0,0,523,314,562,317,223,359,749,823,420,742,805,436,0,,
2,1778967545744,5293,20794,14304,-343306,-863763,-76969,0,0,0,286,371,371,218,206,299,305,278,269,303,525,351,0,,
1,1778967545760,-1244,808,10863,320093,-34208,-32986,0,0,0,518,326,566,322,215,359,751,813,418,741,799,439,0,,
2,1778967545760,7920,13256,8418,-2189341,-1698205,1594358,0,0,0,296,379,381,221,212,293,321,267,273,320,535,340,0,,
1,1778967545776,-1024,985,10839,442266,-46425,-30543,0,0,0,514,339,576,342,217,379,753,798,410,741,794,453,0,,
2,1778967545776,10442,9719,3981,-1731192,-259006,1957212,0,0,0,306,382,387,223,210,287,330,256,260,339,534,329,0,,
1,1778967545792,-856,947,10658,640186,-123394,-9773,0,0,0,521,341,581,365,220,414,740,770,413,734,777,473,0,,
2,1778967545792,4393,11280,6293,-2123367,1070235,1870469,0,0,0,318,385,393,223,219,274,322,260,253,341,530,323,0,,
1,1778967545808,-933,799,10394,779464,-208915,7330,0,0,0,538,339,566,383,222,432,721,728,437,722,754,487,0,,
2,1778967545808,832,10533,8159,-3370754,671951,1970651,0,0,0,365,348,403,249,195,271,328,252,244,358,525,312,0,,
1,1778967545824,-1100,631,10150,841772,-230907,15882,0,0,0,547,368,548,400,253,389,714,678,453,697,717,487,0,,
2,1778967545824,2029,7413,7829,-4448320,147829,1705535,0,0,0,312,345,367,265,214,296,335,258,259,344,525,303,0,,
1,1778967545840,-1249,478,9920,840550,-169820,20769,0,0,0,557,401,530,411,227,383,707,634,442,687,676,515,0,,
2,1778967545840,1507,4632,8317,-5053077,558330,649960,0,0,0,344,341,402,253,193,277,307,267,237,331,526,284,0,,
1,1778967545856,-1277,320,9753,810007,-54977,32986,0,0,0,562,400,525,420,235,422,709,576,424,635,633,533,0,,
2,1778967545856,-344,3431,9585,-5401270,717155,-221133,0,0,0,329,353,397,241,197,266,302,257,231,338,531,294,0,,
1,1778967545872,-1229,177,9715,774577,40317,42760,0,0,0,587,431,548,424,264,458,702,528,455,620,603,559,0,,
2,1778967545872,-1091,2962,10792,-5648059,687834,-635299,0,0,0,352,376,376,247,209,265,302,265,237,339,525,309,0,,
1,1778967545888,-1105,0,9739,725707,103847,52534,0,0,0,584,471,564,451,323,461,704,465,451,585,590,583,0,,
2,1778967545888,-1407,2622,12352,-5854532,775798,-697608,0,0,0,322,372,378,236,213,268,297,315,228,302,539,302,0,,
1,1778967545904,-995,-134,9810,660956,97738,58643,0,0,0,604,512,574,467,347,470,707,438,493,598,547,592,0,,
2,1778967545904,-1641,2014,14247,-6067113,921184,-339641,0,0,0,327,374,389,233,211,263,290,323,224,297,545,303,0,,
1,1778967545920,-957,-191,9916,614530,63529,63529,0,0,0,626,514,567,462,383,491,693,377,498,574,488,624,0,,
2,1778967545920,-1593,971,15826,-6217386,972497,296880,0,0,0,313,374,396,231,211,258,308,330,225,302,549,297,0,,
1,1778967545936,-1038,-215,10083,601091,23212,74525,0,0,0,642,540,575,474,380,511,668,364,514,513,459,645,0,,
2,1778967545936,-861,62,17415,-6227160,1018923,956614,0,0,0,294,375,400,228,213,261,321,330,238,326,519,303,0,,
1,1778967545952,-1263,-215,10227,629191,13439,101403,0,0,0,673,566,611,510,406,545,630,344,562,495,431,670,0,,
2,1778967545952,90,-1048,19794,-6156299,1187522,1240056,0,0,0,290,372,384,236,219,270,330,314,252,327,519,307,0,,
1,1778967545968,-1608,-272,10442,692721,48869,168598,0,0,0,691,613,652,537,447,565,654,273,573,481,414,692,0,,
2,1778967545968,239,-2833,23005,-6185621,1301142,1100779,0,0,0,289,370,359,244,222,277,343,301,257,311,544,295,0,,
1,1778967545984,-1708,-469,10782,801455,150272,276111,0,0,0,708,647,658,571,501,570,675,252,556,465,392,727,0,,
2,1778967545984,-138,-5991,26709,-6420193,1176526,723264,0,0,0,287,377,355,241,219,281,349,289,262,318,541,291,0,,
1,1778967546000,-1282,-693,11289,999375,252898,356745,0,0,0,723,668,601,593,544,586,657,245,554,455,368,754,0,,
2,1778967546000,52,-11600,28877,-6712187,901637,568104,0,0,0,298,376,361,239,220,284,343,278,268,322,537,302,0,,
1,1778967546016,-827,-823,11787,1254717,245567,382401,0,0,0,741,695,529,589,587,597,606,228,565,447,334,767,0,,
2,1778967546016,1311,-21962,27853,-6461732,764803,626747,0,0,0,302,377,356,235,235,283,335,296,268,298,532,301,0,,
1,1778967546032,-449,-866,12246,1590693,97738,344527,0,0,0,758,714,475,585,632,599,572,233,558,448,313,778,0,,
2,1778967546032,1517,-33869,24230,-5297423,965167,486248,0,0,0,277,413,375,203,272,273,339,305,289,276,537,296,0,,
1,1778967546048,-416,-923,12706,1930334,-32986,289550,0,0,0,762,710,410,602,635,614,569,237,543,452,328,780,0,,
2,1778967546048,-1598,-40042,18832,-3444058,1055575,265115,0,0,0,267,398,340,207,280,314,326,290,305,315,532,332,0,,
1,1778967546064,-756,-981,13476,2340835,-59864,245567,0,0,0,766,702,364,620,619,613,532,236,541,465,331,772,0,,
2,1778967546064,-4426,-43402,13773,-1717753,879645,466701,0,0,0,250,348,318,208,253,317,341,294,285,361,486,293,0,,
1,1778967546080,-1306,-1177,14051,2867401,26878,271224,0,0,0,771,712,336,607,624,626,484,215,543,519,332,767,0,,
2,1778967546080,-6604,-46537,12634,79412,487470,1080009,0,0,0,235,288,308,225,203,281,343,490,245,367,651,280,0,,
1,1778967546096,-1287,-1340,14419,3419623,113620,324980,0,0,0,769,709,400,590,597,614,446,204,572,400,313,752,0,,
2,1778967546096,-7561,-30959,15975,2591290,-841772,1574810,0,0,0,279,333,240,277,230,265,386,650,236,453,747,251,0,,
1,1778967546112,-1119,-1392,15041,3985284,191811,356745,0,0,0,740,666,378,583,607,600,376,220,587,355,281,716,0,,
2,1778967546112,-5853,-583,16889,4075692,-2052507,1382998,0,0,0,271,358,252,270,254,286,412,700,247,532,790,242,0,,
1,1778967546128,-1842,-1521,16109,4537506,273667,403171,0,0,0,726,668,332,567,562,567,302,237,601,297,265,689,0,,
2,1778967546128,-4355,7748,14347,3885102,-1931555,151494,0,0,0,265,344,208,283,262,245,481,759,198,611,825,232,0,,
1,1778967546144,-2751,-1938,18090,5178915,439822,531452,0,0,0,689,616,339,509,489,527,307,179,470,261,194,666,0,,
2,1778967546144,-2124,1718,14022,3668856,-883311,-678060,0,0,0,291,338,277,288,260,259,569,790,239,693,840,271,0,,
1,1778967546160,-3962,-2263,21392,5878967,786794,707381,0,0,0,636,528,321,421,420,488,304,179,435,205,182,622,0,,
2,1778967546160,449,-2823,16621,3360980,194255,-767246,0,0,0,307,321,367,280,243,294,661,802,253,739,850,256,0,,
1,1778967546176,-5470,-2163,23876,6559470,919963,983493,0,0,0,553,384,302,329,289,406,261,157,371,204,188,553,0,,
2,1778967546176,2469,-2086,17611,2415361,196698,-508239,0,0,0,334,328,438,264,210,290,676,810,255,758,853,247,0,,
1,1778967546192,-4929,-1966,26790,7023728,642630,1257160,0,0,0,444,325,269,268,201,345,297,156,313,235,232,458,0,,
2,1778967546192,2498,-818,15147,1331686,-207694,-206472,0,0,0,360,366,497,285,216,302,688,810,250,777,854,284,0,,
1,1778967546208,-5235,-536,29944,7192327,241902,1429424,0,0,0,416,272,278,249,163,301,334,166,313,256,269,412,0,,
2,1778967546208,1014,38,11179,635299,-371406,-40317,0,0,0,380,393,507,298,232,321,707,807,236,784,854,322,0,,
1,1778967546224,-7910,4603,26221,6952868,188146,1632231,0,0,0,422,258,294,227,151,284,334,178,336,254,307,406,0,,
2,1778967546224,804,363,10011,428827,-240680,-45204,0,0,0,406,384,486,288,223,303,716,808,219,784,864,308,0,,
1,1778967546240,-9059,10859,18396,5248554,626747,1325577,0,0,0,443,257,306,225,143,290,344,186,336,260,323,422,0,,
2,1778967546240,966,612,10174,334754,-207694,-64751,0,0,0,408,380,517,291,220,302,722,807,221,783,867,264,0,,
1,1778967546256,-6623,13553,15807,1849699,1171639,-372627,0,0,0,458,245,327,237,132,291,359,193,325,279,322,434,0,,
2,1778967546256,914,880,10490,316428,-227241,-74525,0,0,0,384,395,553,290,226,330,715,794,245,773,857,259,0,,
1,1778967546272,-5307,11332,13668,-591317,2009746,-2238210,0,0,0,445,246,329,221,128,281,351,211,329,285,335,428,0,,
2,1778967546272,626,942,10289,381179,-155159,-75747,0,0,0,377,394,541,287,233,334,715,773,258,769,859,285,0,,
1,1778967546288,-7154,9887,9676,-1336573,2118480,-2838079,0,0,0,436,246,300,208,136,283,346,239,336,283,359,411,0,,
2,1778967546288,559,880,10054,461814,-32986,-74525,0,0,0,380,390,546,305,229,353,698,749,270,752,856,282,0,,
1,1778967546304,-7619,10629,6661,-1458746,860098,-2288301,0,0,0,448,252,293,245,156,310,344,258,333,283,380,392,0,,
2,1778967546304,765,799,9916,514348,40317,-69638,0,0,0,397,418,549,346,236,359,655,735,251,736,847,267,0,,
1,1778967546320,-3455,11447,7020,-2452013,-61086,-1667662,0,0,0,449,259,293,239,156,319,322,233,340,285,376,388,0,,
2,1778967546320,976,770,9815,536339,0,-79412,0,0,0,411,443,534,370,234,377,599,710,243,722,838,299,0,,
1,1778967546336,-1258,10586,7571,-3705508,24434,-1281595,0,0,0,452,253,295,226,145,301,335,233,344,339,388,406,0,,
2,1778967546336,1000,703,9734,547335,-96516,-98960,0,0,0,446,491,507,348,266,395,583,673,267,711,830,301,0,,
1,1778967546352,-1780,8226,7590,-4764748,94073,-746477,0,0,0,451,260,293,220,140,285,340,231,343,310,389,406,0,,
2,1778967546352,813,583,9667,540004,-155159,-105068,0,0,0,424,478,523,369,270,379,564,633,248,703,821,298,0,,
1,1778967546368,-1521,6049,7877,-5356066,-237015,-145385,0,0,0,440,256,287,215,142,271,347,232,332,310,392,390,0,,
2,1778967546368,655,492,9638,527787,-166155,-102625,0,0,0,432,461,493,373,321,356,515,606,242,673,801,344,0,,
1,1778967546384,-358,4355,8959,-5637064,-552222,310319,0,0,0,460,268,279,238,143,256,393,237,311,336,399,374,0,,
2,1778967546384,646,464,9710,530231,-141720,-97738,0,0,0,405,532,559,350,343,427,524,580,303,670,777,362,0,,
1,1778967546400,-124,3216,10514,-5830097,-649960,453262,0,0,0,461,262,308,246,139,277,419,248,318,347,404,387,0,,
2,1778967546400,732,363,9758,555887,-136833,-97738,0,0,0,403,545,582,350,349,430,500,526,307,665,761,399,0,,
1,1778967546416,-684,2196,12356,-6079330,-871093,421497,0,0,0,455,253,336,251,138,283,430,252,312,354,408,383,0,,
2,1778967546416,737,134,9786,561996,-146607,-100181,0,0,0,408,547,601,335,329,447,520,438,305,658,727,406,0,,
1,1778967546432,-971,1067,14333,-6342002,-1177748,283441,0,0,0,449,244,354,253,139,296,437,257,316,357,412,390,0,,
2,1778967546432,789,0,9849,540004,-156381,-98960,0,0,0,452,571,595,352,335,448,549,392,295,632,678,410,0,,
1,1778967546448,-1095,291,16199,-6455623,-1389107,-35430,0,0,0,443,244,351,256,142,300,432,253,315,354,416,396,0,,
2,1778967546448,871,0,9940,542448,-177150,-108734,0,0,0,521,605,592,417,343,458,549,334,289,622,660,438,0,,
1,1778967546464,-1359,-373,18482,-6526484,-1589471,-444709,0,0,0,445,254,342,260,144,292,431,240,308,360,415,389,0,,
2,1778967546464,976,43,10126,591317,-217468,-141720,0,0,0,544,646,599,448,398,489,538,279,319,590,623,461,0,,
1,1778967546480,-1593,-2100,21459,-6552140,-1771509,-853989,0,0,0,453,261,323,260,145,288,420,236,306,355,406,369,0,,
2,1778967546480,1258,-4,10442,680503,-302989,-207694,0,0,0,555,670,611,446,488,525,514,246,340,538,559,489,0,,
1,1778967546496,-1086,-6302,24398,-6432410,-1809382,-1105666,0,0,0,456,265,305,257,147,294,402,240,309,338,399,368,0,,
2,1778967546496,1564,-124,10768,802676,-415388,-327423,0,0,0,604,676,631,478,541,561,475,209,348,510,506,538,0,,
1,1778967546512,258,-11715,26518,-6277251,-1734857,-1297477,0,0,0,462,268,309,258,149,302,404,234,314,336,404,397,0,,
2,1778967546512,1497,-349,10978,943175,-489913,-467922,0,0,0,634,703,619,506,578,577,439,196,388,469,438,573,0,,
1,1778967546528,2861,-19932,26968,-6118426,-1527163,-1367116,0,0,0,483,252,307,265,155,311,403,228,316,330,408,399,0,,
2,1778967546528,693,-464,11505,1158200,-519235,-538783,0,0,0,677,733,569,485,624,578,388,192,357,427,413,613,0,,
1,1778967546544,4527,-28638,24469,-5564982,-979827,-961501,0,0,0,482,246,297,257,157,313,409,258,331,318,404,413,0,,
2,1778967546544,67,-378,12481,1483180,-525344,-505796,0,0,0,698,739,533,486,647,567,358,189,344,424,408,616,0,,
1,1778967546560,3795,-36132,20339,-4517959,-166155,-301767,0,0,0,428,248,259,242,174,286,443,328,348,379,445,419,0,,
2,1778967546560,234,-330,13711,1925447,-515570,-427605,0,0,0,704,772,506,459,669,477,355,186,376,387,448,649,0,,
1,1778967546576,2723,-44847,15506,-2675589,651182,354301,0,0,0,409,209,220,237,134,262,485,538,340,426,557,371,0,,
2,1778967546576,693,-406,14759,2543642,-519235,-417831,0,0,0,728,765,462,471,618,505,272,164,345,402,453,667,0,,
1,1778967546592,4824,-56453,11663,19547,1361007,508239,0,0,0,397,222,236,240,134,268,496,662,333,504,672,331,0,,
2,1778967546592,1119,-363,15994,3284011,-571769,-461814,0,0,0,708,779,494,456,682,503,262,205,346,350,415,592,0,,
1,1778967546608,3618,-47901,12103,3233920,1905899,279776,0,0,0,387,218,251,237,128,287,564,724,322,604,729,335,0,,
2,1778967546608,2187,-421,18028,4207639,-731816,-602313,0,0,0,691,771,460,468,669,489,287,177,358,324,334,562,0,,
1,1778967546624,-1229,-12490,17492,4123340,2078163,46425,0,0,0,402,207,266,250,124,294,605,754,319,647,757,344,0,,
2,1778967546624,3517,-483,21033,5196019,-970053,-831998,0,0,0,560,732,414,456,655,469,277,166,321,313,294,502,0,,
1,1778967546640,-2153,11371,18798,3502701,1881464,-122173,0,0,0,401,213,313,261,126,318,665,775,378,686,772,362,0,,
2,1778967546640,5905,-583,24699,6230825,-1314581,-1198517,0,0,0,524,693,413,384,571,421,252,165,332,283,279,436,0,,
1,1778967546656,2191,3043,16716,3037221,839328,-70860,0,0,0,416,255,418,289,169,351,707,792,385,711,780,356,0,,
2,1778967546656,7614,-617,27839,7088480,-1580919,-1668883,0,0,0,463,599,356,305,413,386,235,173,293,272,315,399,0,,
1,1778967546672,1718,-5063,16022,2245540,3665,116064,0,0,0,446,275,515,305,185,354,738,810,389,728,791,350,0,,
2,1778967546672,6795,1124,30145,7755545,-1379333,-2138028,0,0,0,352,441,405,234,237,353,258,216,287,295,391,375,0,,
1,1778967546688,-1009,-3512,14788,1269377,-12217,70860,0,0,0,465,285,552,308,187,362,762,819,394,736,801,374,0,,
2,1778967546688,6068,4393,30490,7808079,-1165530,-2356718,0,0,0,301,380,403,209,187,338,259,269,296,281,449,348,0,,
1,1778967546704,-1206,-631,12916,610865,78190,-28099,0,0,0,466,313,564,325,207,382,779,821,399,736,806,400,0,,
2,1778967546704,8609,12328,22761,6331007,-1420872,-2320066,0,0,0,303,372,364,234,195,324,273,272,297,286,475,331,0,,
1,1778967546720,-330,603,11452,470366,-96516,-61086,0,0,0,472,336,588,335,226,387,790,819,422,738,813,404,0,,
2,1778967546720,9547,20009,16702,3343876,-1102000,-1833817,0,0,0,303,362,350,267,203,326,315,252,296,317,475,333,0,,
1,1778967546736,-655,344,10935,536339,-346971,-35430,0,0,0,491,353,609,324,240,408,785,802,421,740,807,421,0,,
2,1778967546736,8097,19296,11103,317649,-767246,-184481,0,0,0,290,375,353,262,213,342,352,260,307,307,469,335,0,,
1,1778967546752,-1110,315,10849,597426,-378736,-18325,0,0,0,502,377,624,352,242,436,787,772,425,741,786,449,0,,
2,1778967546752,9160,14443,5934,-1221,-4886,1942551,0,0,0,286,386,374,236,200,333,371,266,320,279,471,330,0,,
1,1778967546768,-1172,526,10787,704938,-288328,-4886,0,0,0,508,378,605,365,248,458,781,747,436,752,772,464,0,,
2,1778967546768,6944,13816,5297,-205250,1042136,3384193,0,0,0,306,367,372,247,189,333,363,256,312,292,472,348,0,,
1,1778967546784,-1019,449,10480,834441,-230907,13439,0,0,0,536,372,599,416,238,436,758,714,435,738,723,465,0,,
2,1778967546784,4335,13352,6025,-1409876,1230282,3549127,0,0,0,307,350,365,245,187,335,379,260,311,310,472,381,0,,
1,1778967546800,-966,248,10236,904080,-196698,34208,0,0,0,548,406,591,381,268,458,719,669,443,722,674,497,0,,
2,1778967546800,2340,11328,6341,-2729345,1247386,2880840,0,0,0,305,343,344,271,240,320,338,260,278,307,477,354,0,,
1,1778967546816,-976,110,10136,906524,-155159,50090,0,0,0,535,417,596,385,254,453,710,636,444,706,666,495,0,,
2,1778967546816,-81,9026,7413,-3769038,1194852,1705535,0,0,0,305,356,373,224,202,294,306,262,273,291,469,331,0,,
1,1778967546832,-875,-19,10045,890641,-119729,46425,0,0,0,525,436,572,403,259,464,716,547,503,672,608,544,0,,
2,1778967546832,-2010,7274,8944,-4564385,992045,681725,0,0,0,308,364,381,224,196,294,306,266,283,302,474,336,0,,
1,1778967546848,-856,-172,9940,867428,-113620,34208,0,0,0,548,445,555,433,278,454,711,468,508,637,583,562,0,,
2,1778967546848,-3359,5824,10208,-5202128,831998,-58643,0,0,0,311,372,390,224,191,295,306,271,293,313,480,342,0,,
1,1778967546864,-966,-291,9849,824668,-100181,24434,0,0,0,567,442,547,421,303,476,709,385,516,615,543,589,0,,
2,1778967546864,-4125,4934,11351,-5579643,780685,-376292,0,0,0,327,425,407,260,210,314,341,283,294,329,490,358,0,,
1,1778967546880,-1134,-445,9705,741590,-32986,29321,0,0,0,580,478,527,435,339,499,691,314,521,600,514,603,0,,
2,1778967546880,-4460,4173,13026,-5845980,786794,-331088,0,0,0,352,419,398,265,215,324,311,290,290,325,491,355,0,,
1,1778967546896,-1234,-626,9629,636521,46425,51312,0,0,0,594,524,536,446,370,516,688,274,528,577,476,629,0,,
2,1778967546896,-4302,3096,14850,-6080552,737925,-108734,0,0,0,351,392,397,255,200,323,295,288,290,319,493,353,0,,
1,1778967546912,-1253,-794,9700,538783,109955,87964,0,0,0,623,544,573,464,379,542,680,281,542,561,448,662,0,,
2,1778967546912,-3206,1952,16539,-6229603,620639,276111,0,0,0,334,393,392,255,204,326,306,281,297,310,484,364,0,,
1,1778967546928,-1239,-871,9882,496022,155159,133168,0,0,0,655,553,599,476,383,567,660,282,559,596,427,676,0,,
2,1778967546928,-1732,1301,18128,-6290690,564439,709825,0,0,0,323,399,390,252,205,326,304,267,301,311,480,368,0,,
1,1778967546944,-1191,-856,10169,511905,195476,183259,0,0,0,678,586,587,466,414,576,637,239,566,594,409,691,0,,
2,1778967546944,-229,871,20186,-6309016,621860,1125213,0,0,0,299,405,391,238,208,319,301,255,301,311,482,367,0,,
1,1778967546960,-1067,-813,10576,605978,238237,237015,0,0,0,707,626,577,496,460,590,595,219,561,506,411,717,0,,
2,1778967546960,751,-425,23249,-6382320,731816,1240056,0,0,0,293,409,396,225,207,314,303,249,297,303,478,360,0,,
1,1778967546976,-875,-861,10906,783129,273667,261450,0,0,0,718,657,586,532,505,605,573,219,566,500,367,727,0,,
2,1778967546976,1062,-3220,26695,-6577796,795346,1007927,0,0,0,315,409,403,226,206,321,307,246,292,293,469,353,0,,
1,1778967546992,-842,-971,11150,994488,273667,276111,0,0,0,738,667,533,538,539,608,566,237,570,479,326,752,0,,
2,1778967546992,425,-8150,29016,-6802595,797790,692721,0,0,0,330,409,396,234,214,327,332,249,295,295,461,358,0,,
1,1778967547008,-837,-1153,11505,1225395,232128,299323,0,0,0,744,687,529,554,566,655,544,247,571,463,323,761,0,,
2,1778967547008,-1349,-17841,29188,-6599788,784350,489913,0,0,0,347,402,372,225,197,303,331,241,298,307,457,347,0,,
1,1778967547024,-751,-1421,11897,1481959,179594,333532,0,0,0,760,707,466,551,594,637,552,242,531,445,336,761,0,,
2,1778967547024,-2775,-29088,26853,-5743354,585208,235793,0,0,0,338,391,362,230,191,306,274,223,283,305,459,337,0,,
1,1778967547040,-454,-1517,12356,1766622,140499,344527,0,0,0,768,717,429,562,599,586,539,226,534,437,337,759,0,,
2,1778967547040,-1598,-39454,19382,-4068362,287106,-94073,0,0,0,307,386,389,243,206,329,331,249,288,304,464,344,0,,
1,1778967547056,-454,-1507,13065,2175901,162490,300545,0,0,0,767,720,392,550,569,622,482,234,528,431,312,759,0,,
2,1778967547056,-3287,-45910,13089,-2345722,515570,-97738,0,0,0,299,380,394,236,199,331,336,241,300,314,471,364,0,,
1,1778967547072,-756,-1622,13572,2643824,211359,285884,0,0,0,763,716,370,551,586,600,427,203,527,416,305,756,0,,
2,1778967547072,-8107,-48389,10681,-652404,540004,526565,0,0,0,313,402,380,253,229,331,338,316,321,362,563,319,0,,
1,1778967547088,-756,-1837,14041,3167947,243124,310319,0,0,0,752,707,361,540,590,597,382,177,505,386,295,752,0,,
2,1778967547088,-7379,-42230,12490,1049466,-31764,1406211,0,0,0,266,362,241,243,296,301,337,648,249,461,716,329,0,,
1,1778967547104,-823,-1923,14984,3780034,255341,338419,0,0,0,752,724,357,556,592,604,361,181,505,365,263,733,0,,
2,1778967547104,928,-9059,16171,2656042,-933402,1191187,0,0,0,284,348,200,270,272,275,445,717,211,536,793,264,0,,
1,1778967547120,-1708,-2072,15965,4345695,299323,405614,0,0,0,741,714,341,544,600,605,321,188,564,308,246,702,0,,
2,1778967547120,3689,16171,14146,3837455,-2124589,6108,0,0,0,286,367,185,265,244,239,531,784,277,602,826,282,0,,
1,1778967547136,-3067,-2651,18315,5056742,405614,593761,0,0,0,684,680,325,504,576,568,319,182,548,272,228,666,0,,
2,1778967547136,-521,4115,15496,4521624,-1975538,-583987,0,0,0,278,372,233,263,248,321,585,810,325,705,849,303,0,,
1,1778967547152,-4709,-3273,23163,5915618,674395,886976,0,0,0,609,599,306,445,486,494,297,167,475,253,203,611,0,,
2,1778967547152,-2201,-4886,20430,4302934,-1055575,-568104,0,0,0,321,379,378,288,241,359,663,837,356,763,866,343,0,,
1,1778967547168,-6092,-3125,26566,6564357,784350,1172861,0,0,0,541,453,291,356,341,404,258,161,404,227,206,518,0,,
2,1778967547168,-344,-3000,21411,3274237,-439822,-458148,0,0,0,318,364,430,278,282,362,712,844,358,788,874,370,0,,
1,1778967547184,-6355,-2861,29590,7086036,527787,1516167,0,0,0,458,301,289,264,203,327,298,182,336,223,265,411,0,,
2,1778967547184,636,-90,16735,2189341,-273667,-289550,0,0,0,338,374,420,287,314,340,723,846,324,803,878,323,0,,
1,1778967547200,-6795,784,31595,7073819,311541,1861917,0,0,0,385,262,293,241,164,319,347,211,340,244,347,393,0,,
2,1778967547200,105,358,12658,1481959,-61086,-139277,0,0,0,345,365,445,280,289,317,750,859,342,800,880,306,0,,
1,1778967547216,-8470,8719,24225,6222273,1258382,1993864,0,0,0,391,282,307,202,141,281,352,197,330,273,342,418,0,,
2,1778967547216,-124,-33,10863,1075122,234572,-72082,0,0,0,330,338,485,274,259,324,771,859,335,790,875,318,0,,
1,1778967547232,-10983,14544,16635,3914424,2452013,1199739,0,0,0,405,278,329,208,148,283,357,187,337,280,357,452,0,,
2,1778967547232,598,311,10681,816115,335975,-52534,0,0,0,348,338,476,283,253,336,771,847,298,789,869,317,0,,
1,1778967547248,-10332,14242,14462,792903,2269975,-656069,0,0,0,402,320,308,192,186,274,319,211,329,267,365,435,0,,
2,1778967547248,880,737,10447,657290,267558,-43982,0,0,0,396,352,434,288,253,327,774,841,299,784,860,308,0,,
1,1778967547264,-8504,11591,11538,-930958,1938886,-2047620,0,0,0,415,267,301,200,151,281,333,228,319,287,384,424,0,,
2,1778967547264,799,780,10203,603534,161268,-47647,0,0,0,432,371,438,315,273,333,768,829,281,764,846,287,0,,
1,1778967547280,-7867,10265,7810,-1194852,1456302,-2265088,0,0,0,410,276,317,188,148,270,332,212,323,324,375,427,0,,
2,1778967547280,693,717,10007,590095,76969,-54977,0,0,0,426,411,454,309,316,366,750,810,307,753,844,293,0,,
1,1778967547296,-6594,9734,5747,-1578475,671951,-2116037,0,0,0,429,270,334,215,148,278,365,195,321,353,389,437,0,,
2,1778967547296,626,717,9901,591317,25656,-62308,0,0,0,413,417,433,293,360,337,752,795,277,751,838,310,0,,
1,1778967547312,-4087,8676,5589,-2318844,-9773,-1931555,0,0,0,435,270,341,225,151,294,367,193,328,354,394,442,0,,
2,1778967547312,583,780,9873,608421,0,-68416,0,0,0,429,457,412,350,376,382,722,757,265,745,832,335,0,,
1,1778967547328,-2670,7135,6298,-3180164,-102625,-1778839,0,0,0,437,271,348,224,155,294,364,196,325,335,391,428,0,,
2,1778967547328,593,756,9839,641408,-14660,-74525,0,0,0,381,412,444,346,369,415,716,734,312,705,816,346,0,,
1,1778967547344,-2493,5661,7130,-4112344,-119729,-1496619,0,0,0,433,271,359,217,155,296,360,202,328,326,387,432,0,,
2,1778967547344,646,593,9772,667064,-41538,-83077,0,0,0,419,433,447,339,357,415,695,701,336,676,811,365,0,,
1,1778967547360,-2895,3933,7891,-5055520,-272445,-987158,0,0,0,443,271,353,220,157,298,363,208,336,335,385,427,0,,
2,1778967547360,684,411,9657,647517,-95294,-83077,0,0,0,367,433,475,346,342,416,668,676,355,659,808,361,0,,
1,1778967547376,-3038,2364,8662,-5619960,-602313,-393397,0,0,0,458,271,345,228,160,298,367,212,337,341,382,429,0,,
2,1778967547376,660,248,9542,599869,-157603,-79412,0,0,0,360,442,497,342,400,392,664,628,356,633,787,307,0,,
1,1778967547392,-2656,1502,10251,-5922949,-1005484,76969,0,0,0,453,274,351,233,158,298,368,209,328,343,380,455,0,,
2,1778967547392,607,86,9499,533896,-201585,-80634,0,0,0,386,464,505,377,396,427,667,616,352,610,762,354,0,,
1,1778967547408,-2239,789,12443,-6305350,-1285260,284663,0,0,0,443,267,346,238,157,296,372,200,314,354,377,451,0,,
2,1778967547408,598,-9,9581,478918,-217468,-87964,0,0,0,391,459,560,377,409,466,638,596,365,610,740,384,0,,
1,1778967547424,-2392,-382,14012,-6563136,-1430646,160046,0,0,0,451,257,334,243,157,286,375,197,312,360,367,436,0,,
2,1778967547424,574,-71,9743,434936,-230907,-96516,0,0,0,407,486,559,402,467,490,642,547,375,603,721,397,0,,
1,1778967547440,-2560,-1512,15434,-6599788,-1661553,-79412,0,0,0,476,255,333,266,156,284,393,194,323,379,367,415,0,,
2,1778967547440,526,-138,9844,410501,-230907,-102625,0,0,0,419,509,566,411,501,485,652,493,370,601,702,436,0,,
1,1778967547456,-2632,-2268,17386,-6462954,-1954768,-478918,0,0,0,445,261,359,226,156,309,382,191,338,377,367,400,0,,
2,1778967547456,502,-181,9911,405614,-217468,-113620,0,0,0,427,544,587,422,492,514,654,461,371,582,679,465,0,,
1,1778967547472,-2761,-3153,20023,-6390872,-2202780,-827111,0,0,0,438,266,347,240,154,300,382,189,342,381,363,407,0,,
2,1778967547472,588,-181,10035,438601,-205250,-138055,0,0,0,444,573,592,451,493,560,658,442,403,536,633,483,0,,
1,1778967547488,-2244,-5929,23206,-6438519,-2362826,-868650,0,0,0,431,269,311,232,154,266,379,205,331,359,363,395,0,,
2,1778967547488,722,-119,10303,531452,-202807,-186924,0,0,0,461,570,605,464,535,564,663,397,445,488,577,520,0,,
1,1778967547504,-823,-10189,25278,-6405532,-2349387,-670730,0,0,0,438,265,298,274,161,297,422,197,328,324,346,376,0,,
2,1778967547504,775,-110,10509,656069,-197920,-246789,0,0,0,490,606,619,465,591,576,673,316,470,467,539,556,0,,
1,1778967547520,2330,-16731,25690,-6085439,-2268753,-301767,0,0,0,430,261,342,291,162,330,443,205,343,343,349,389,0,,
2,1778967547520,765,-229,10624,781907,-182037,-301767,0,0,0,550,641,583,471,610,588,654,281,494,456,484,605,0,,
1,1778967547536,6082,-23335,24766,-5572312,-1985312,59864,0,0,0,427,268,364,316,178,342,415,205,367,330,346,409,0,,
2,1778967547536,708,-354,11337,978606,-172263,-354301,0,0,0,587,655,487,489,643,596,591,259,464,405,424,628,0,,
1,1778967547552,8418,-29404,22163,-4772079,-1235169,399505,0,0,0,422,268,347,289,162,334,413,202,351,342,358,412,0,,
2,1778967547552,842,-416,12476,1314581,-189368,-392175,0,0,0,612,671,376,514,687,617,548,190,507,417,333,665,0,,
1,1778967547568,7992,-34261,17224,-3510031,-403171,531452,0,0,0,419,267,335,276,154,337,417,194,344,356,375,406,0,,
2,1778967547568,1124,-622,13596,1819156,-177150,-454483,0,0,0,691,683,358,510,634,615,536,275,463,373,370,701,0,,
1,1778967547584,7039,-38473,12419,-1959655,15882,326202,0,0,0,410,256,316,285,154,337,418,242,345,381,440,392,0,,
2,1778967547584,665,-579,14453,2448347,-129503,-527787,0,0,0,669,697,325,578,664,585,433,251,476,390,354,725,0,,
1,1778967547600,6298,-40588,10638,-245567,151494,-234572,0,0,0,411,231,275,273,144,308,459,437,342,442,573,360,0,,
2,1778967547600,81,-354,15075,3117856,-152716,-531452,0,0,0,706,698,333,558,667,599,395,190,492,375,334,735,0,,
1,1778967547616,5723,-29940,14812,1683544,1021366,-730594,0,0,0,413,216,284,247,137,303,519,639,350,517,674,354,0,,
2,1778967547616,555,-545,16147,3948632,-179594,-511905,0,0,0,691,708,315,544,679,599,400,174,505,347,313,681,0,,
1,1778967547632,3828,-5197,16228,3330437,2222327,-886976,0,0,0,394,218,312,239,133,326,565,707,356,580,711,369,0,,
2,1778967547632,1876,-646,18746,4922352,-163711,-590095,0,0,0,605,702,350,568,662,589,433,167,504,355,345,609,0,,
1,1778967547648,2311,9959,14376,3792251,2450791,-482583,0,0,0,394,218,262,268,130,307,641,763,349,632,754,330,0,,
2,1778967547648,4125,-655,22469,5946162,-255341,-831998,0,0,0,509,681,369,556,621,548,427,144,447,378,284,556,0,,
1,1778967547664,1603,2043,15726,3624874,1337794,56199,0,0,0,408,236,293,294,134,303,665,777,340,690,780,333,0,,
2,1778967547664,5896,-808,27063,6984633,-509461,-1252273,0,0,0,414,604,320,453,522,466,319,128,370,338,268,444,0,,
1,1778967547680,114,-3694,18205,3048217,266337,295658,0,0,0,423,280,414,274,136,325,711,787,392,724,786,360,0,,
2,1778967547680,5924,258,30217,7800749,-422718,-1628566,0,0,0,335,475,262,302,358,358,270,147,300,330,303,332,0,,
1,1778967547696,-1794,-2316,17693,2185675,2443,216246,0,0,0,420,263,516,279,169,349,718,791,360,726,787,357,0,,
2,1778967547696,4584,2144,33797,8319984,-52534,-1838704,0,0,0,287,374,282,222,233,288,330,154,306,350,327,294,0,,
1,1778967547712,-2282,-679,15314,1528384,50090,70860,0,0,0,447,280,555,286,170,351,759,823,408,756,800,388,0,,
2,1778967547712,6920,7422,30720,8078081,201585,-1964542,0,0,0,292,337,283,230,185,275,375,156,309,356,361,290,0,,
1,1778967547728,-1541,-100,12237,1072679,64751,-19547,0,0,0,449,281,598,324,207,389,763,820,410,762,797,393,0,,
2,1778967547728,8767,18430,21507,6222273,241902,-2097711,0,0,0,312,346,278,250,194,293,345,180,293,358,408,281,0,,
1,1778967547744,-1273,-215,10926,853989,-90408,-2443,0,0,0,497,318,604,342,208,379,764,807,402,757,803,410,0,,
2,1778967547744,4718,26068,17870,2433687,-664621,-1404990,0,0,0,300,349,338,241,207,307,303,186,304,348,410,286,0,,
1,1778967547760,-1593,90,10806,735481,-204028,0,0,0,0,518,338,594,357,223,425,762,783,408,765,784,453,0,,
2,1778967547760,4752,19889,12246,-1164309,-2662150,646295,0,0,0,312,328,337,243,186,307,323,169,271,338,375,305,0,,
1,1778967547776,-1708,449,10949,730594,-228463,-7330,0,0,0,508,355,572,416,279,448,765,754,402,759,763,462,0,,
2,1778967547776,9045,13385,5704,-1629788,-2349387,1659109,0,0,0,338,352,329,268,201,321,352,181,275,345,384,307,0,,
1,1778967547792,-1646,583,10887,852767,-239459,0,0,0,0,513,395,551,398,285,441,766,727,428,742,744,471,0,,
2,1778967547792,5800,13519,5163,-1836260,-703716,1529606,0,0,0,352,365,332,271,187,294,355,172,252,355,385,301,0,,
1,1778967547808,-1665,349,10394,987158,-249233,25656,0,0,0,542,418,532,390,263,435,762,692,450,720,718,491,0,,
2,1778967547808,2526,12974,6207,-3018896,-552222,1279151,0,0,0,338,371,332,248,196,287,326,172,251,344,359,310,0,,
1,1778967547824,-1765,119,10069,1011592,-202807,43982,0,0,0,562,441,528,416,262,440,741,642,448,689,684,517,0,,
2,1778967547824,2847,9643,6111,-4335921,-838107,819781,0,0,0,347,388,334,243,179,271,375,177,251,347,336,287,0,,
1,1778967547840,-1794,-23,9940,962723,-98960,50090,0,0,0,575,451,537,418,283,451,707,577,449,658,646,558,0,,
2,1778967547840,2493,6795,6910,-4937012,-371406,76969,0,0,0,315,380,302,231,195,271,343,201,253,347,368,303,0,,
1,1778967547856,-1722,-129,9911,913854,-1221,50090,0,0,0,596,438,534,418,334,468,685,502,462,640,606,589,0,,
2,1778967547856,1469,5340,8370,-5347514,-57421,-390953,0,0,0,304,396,295,225,205,291,352,220,283,329,374,316,0,,
1,1778967547872,-1684,-215,9868,875980,42760,54977,0,0,0,596,491,528,437,398,492,670,426,477,619,572,579,0,,
2,1778967547872,1177,4254,9619,-5671272,102625,-477696,0,0,0,296,389,294,222,195,284,352,215,282,330,366,300,0,,
1,1778967547888,-1679,-349,9743,812450,57421,67195,0,0,0,626,481,546,454,356,495,677,344,472,616,537,586,0,,
2,1778967547888,1378,3402,11189,-5845980,388510,-169820,0,0,0,295,381,321,227,195,310,354,228,290,334,367,306,0,,
1,1778967547904,-1655,-617,9595,706160,64751,85521,0,0,0,641,517,558,469,382,467,672,290,477,593,455,608,0,,
2,1778967547904,1493,2713,13084,-5998696,680503,283441,0,0,0,298,381,336,237,199,324,356,216,290,333,365,304,0,,
1,1778967547920,-1651,-832,9600,627969,68416,101403,0,0,0,654,566,511,472,430,505,654,264,486,533,465,632,0,,
2,1778967547920,1756,1655,15041,-6196616,890641,808785,0,0,0,301,371,337,239,192,328,355,208,286,336,357,304,0,,
1,1778967547936,-1727,-957,9810,594982,79412,119729,0,0,0,674,593,520,483,436,525,619,244,476,507,443,649,0,,
2,1778967547936,2282,674,16745,-6300464,1016479,1161865,0,0,0,307,370,339,242,191,331,363,207,288,335,349,297,0,,
1,1778967547952,-1789,-985,10098,601091,112399,147829,0,0,0,685,583,521,479,479,533,605,247,526,499,424,701,0,,
2,1778967547952,3062,-335,19033,-6301685,1182635,1220508,0,0,0,326,379,339,243,175,306,366,202,292,341,352,289,0,,
1,1778967547968,-1703,-928,10356,659734,162490,177150,0,0,0,710,632,535,485,486,559,575,234,506,494,411,718,0,,
2,1778967547968,2550,-2096,22957,-6417750,1467298,736703,0,0,0,323,374,343,235,166,293,362,199,296,342,355,307,0,,
1,1778967547984,-1612,-923,10662,788016,218689,197920,0,0,0,733,646,560,495,511,547,561,219,493,474,381,716,0,,
2,1778967547984,1000,-5168,26685,-6721961,1562593,197920,0,0,0,302,363,361,225,180,321,360,194,300,334,356,330,0,,
1,1778967548000,-1588,-1067,10973,960280,239459,224798,0,0,0,748,677,545,512,533,561,535,236,509,456,361,731,0,,
2,1778967548000,-411,-10619,29097,-6916216,1523497,-58643,0,0,0,305,358,363,222,185,335,356,182,292,329,357,322,0,,
1,1778967548016,-1469,-1330,11222,1175304,199142,251676,0,0,0,756,699,496,532,544,576,516,246,519,440,342,746,0,,
2,1778967548016,-1708,-19224,29710,-6590014,1562593,109955,0,0,0,317,359,345,222,187,322,358,183,293,320,355,301,0,,
1,1778967548032,-1282,-1464,11385,1397659,131946,257785,0,0,0,762,709,454,540,568,573,502,231,497,429,339,754,0,,
2,1778967548032,-4072,-29427,28341,-5782450,1565036,359188,0,0,0,322,348,356,219,183,325,371,201,321,330,369,302,0,,
1,1778967548048,-1091,-1507,11734,1661553,68416,254119,0,0,0,770,732,421,557,595,572,475,223,481,427,346,761,0,,
2,1778967548048,-7178,-38339,24087,-4447098,1209513,478918,0,0,0,315,333,346,242,191,355,389,209,318,343,388,330,0,,
1,1778967548064,-1368,-1579,12648,2037846,65973,244346,0,0,0,775,751,373,578,605,583,441,224,499,416,325,753,0,,
2,1778967548064,-6752,-44651,16257,-2580294,434936,730594,0,0,0,292,345,335,257,211,372,375,219,302,349,412,316,0,,
1,1778967548080,-1856,-1732,13572,2494773,139277,273667,0,0,0,773,758,338,568,604,599,409,223,526,386,295,736,0,,
2,1778967548080,-4647,-48820,10993,-770911,180816,1081231,0,0,0,302,340,291,282,206,316,411,476,262,400,633,289,0,,
1,1778967548096,-2000,-1971,14118,3050661,248011,345749,0,0,0,772,757,360,557,599,597,382,226,530,364,279,729,0,,
2,1778967548096,-5412,-39770,14730,1359786,-51312,1254717,0,0,0,300,355,209,276,241,256,387,668,225,437,763,236,0,,
1,1778967548112,-1837,-2163,14601,3673743,322536,427605,0,0,0,769,753,373,544,637,612,335,219,580,320,251,715,0,,
2,1778967548112,-3905,-8523,17439,3349984,-1167974,1001818,0,0,0,293,322,196,306,232,238,494,736,210,507,792,244,0,,
1,1778967548128,-1928,-2182,15553,4272391,345749,497244,0,0,0,747,728,349,567,634,604,341,195,572,282,213,680,0,,
2,1778967548128,-1809,11998,15238,4059810,-2205223,226020,0,0,0,281,344,196,324,252,308,529,780,256,633,828,277,0,,
1,1778967548144,-2340,-2737,17487,4907691,399505,574213,0,0,0,737,740,352,579,632,576,363,201,570,266,211,666,0,,
2,1778967548144,-1684,4613,14917,4207639,-1573588,-254119,0,0,0,260,348,219,305,296,322,587,798,262,701,852,261,0,,
1,1778967548160,-3531,-3728,21306,5670051,610865,681725,0,0,0,692,680,367,541,571,537,305,164,531,266,176,622,0,,
2,1778967548160,-1990,-2211,17611,3936415,-466701,-404392,0,0,0,294,356,299,294,278,326,638,817,306,746,858,230,0,,
1,1778967548176,-5187,-4087,25355,6376211,803898,868650,0,0,0,620,549,314,424,424,463,306,153,477,244,180,568,0,,
2,1778967548176,-358,-2239,18860,2974913,43982,-467922,0,0,0,339,365,339,317,295,349,678,826,309,772,863,277,0,,
1,1778967548192,-4891,-3761,28714,6811147,827111,1070235,0,0,0,495,389,290,283,250,369,260,138,417,246,225,494,0,,
2,1778967548192,1301,-263,16219,1846034,-58643,-348193,0,0,0,353,339,402,332,270,344,693,824,280,789,866,277,0,,
1,1778967548208,-5441,-1320,31184,7045719,596204,1219287,0,0,0,417,327,286,237,212,305,319,205,376,250,314,432,0,,
2,1778967548208,679,382,12155,1163087,-153938,-124616,0,0,0,347,324,452,312,245,336,710,822,265,807,869,278,0,,
1,1778967548224,-7829,4513,29758,7171557,259006,1492954,0,0,0,394,304,280,231,206,292,344,216,352,264,342,422,0,,
2,1778967548224,220,258,10485,818559,-47647,-63529,0,0,0,377,351,467,309,251,344,721,819,256,811,864,284,0,,
1,1778967548240,-8662,13098,19195,6034126,819781,1775174,0,0,0,393,320,288,230,181,275,349,191,350,276,341,429,0,,
2,1778967548240,392,435,10279,564439,-37873,-73303,0,0,0,417,393,512,320,250,350,715,816,259,804,858,295,0,,
1,1778967548256,-8265,17114,14773,2610838,1284038,1202182,0,0,0,394,309,307,215,157,258,352,185,352,277,361,431,0,,
2,1778967548256,435,909,10399,432492,-114842,-86742,0,0,0,412,433,580,292,259,356,717,816,289,808,863,346,0,,
1,1778967548272,-5556,13438,14089,-1337794,1376890,-184481,0,0,0,402,292,316,205,166,269,333,203,351,265,380,431,0,,
2,1778967548272,157,1024,10270,447153,-83077,-75747,0,0,0,404,443,594,297,286,367,718,799,278,804,861,338,0,,
1,1778967548288,-5092,9212,10452,-2583959,1654223,-955393,0,0,0,414,317,307,222,193,281,324,223,352,262,381,427,0,,
2,1778967548288,33,890,10107,481361,9773,-62308,0,0,0,399,441,551,315,306,372,720,779,257,791,856,322,0,,
1,1778967548304,-5953,8298,6623,-2313957,1160643,-1006705,0,0,0,414,306,301,239,186,272,349,219,348,296,382,422,0,,
2,1778967548304,134,818,9987,483805,84299,-54977,0,0,0,424,450,534,305,267,339,718,765,247,787,856,316,0,,
1,1778967548320,-4699,8365,5302,-2467895,282219,-1010371,0,0,0,413,301,313,222,175,277,345,233,346,302,375,436,0,,
2,1778967548320,272,866,9968,491135,111177,-56199,0,0,0,418,487,520,312,297,332,731,741,268,770,857,329,0,,
1,1778967548336,-2569,7724,6001,-3177720,-45204,-1200961,0,0,0,416,300,315,220,177,279,324,231,346,310,395,448,0,,
2,1778967548336,387,923,9964,527787,87964,-67195,0,0,0,389,440,517,307,265,358,715,729,286,712,834,310,0,,
1,1778967548352,-2761,6221,6690,-3982841,76969,-1339016,0,0,0,423,304,316,212,183,270,319,221,352,328,404,461,0,,
2,1778967548352,411,832,9844,563217,30543,-75747,0,0,0,372,420,517,280,287,348,685,715,290,680,838,342,0,,
1,1778967548368,-3531,4632,7159,-4654793,-157603,-1175304,0,0,0,415,311,309,216,184,267,329,229,347,313,420,461,0,,
2,1778967548368,392,708,9715,572991,-28099,-74525,0,0,0,414,458,538,329,322,365,688,673,263,672,838,307,0,,
1,1778967548384,-3110,3354,7949,-5099503,-676838,-759916,0,0,0,410,305,312,220,190,277,348,234,348,308,426,461,0,,
2,1778967548384,335,579,9638,569326,-79412,-69638,0,0,0,420,451,578,352,302,406,678,659,296,652,823,322,0,,
1,1778967548400,-2153,2550,9576,-5459913,-952949,-388510,0,0,0,425,291,302,227,185,285,350,236,350,304,430,449,0,,
2,1778967548400,287,411,9662,561996,-85521,-72082,0,0,0,444,464,597,386,331,440,659,633,265,630,806,323,0,,
1,1778967548416,-1775,1852,11457,-5834984,-1043357,-178372,0,0,0,437,277,303,224,163,292,353,230,358,305,425,449,0,,
2,1778967548416,268,215,9643,531452,-69638,-75747,0,0,0,432,491,616,395,332,450,631,614,279,606,791,321,0,,
1,1778967548432,-1842,756,13275,-6197838,-1106887,-98960,0,0,0,440,272,320,212,144,275,349,222,349,306,412,442,0,,
2,1778967548432,311,119,9648,483805,-53756,-78190,0,0,0,441,510,607,400,363,450,636,578,304,613,779,355,0,,
1,1778967548448,-1832,-449,14769,-6324898,-1295034,-118507,0,0,0,438,269,323,213,141,274,349,216,344,308,410,435,0,,
2,1778967548448,358,90,9763,444709,-61086,-79412,0,0,0,440,535,615,416,388,468,664,524,342,626,749,440,0,,
1,1778967548464,-1746,-1110,16678,-6331007,-1547932,-277332,0,0,0,439,271,313,234,148,285,371,220,356,304,415,408,0,,
2,1778967548464,397,76,9877,427605,-85521,-85521,0,0,0,443,562,622,401,387,473,573,471,384,614,718,473,0,,
1,1778967548480,-1990,-1478,19387,-6367659,-1808161,-572991,0,0,0,430,281,323,233,150,291,371,219,372,292,415,400,0,,
2,1778967548480,516,90,10011,459370,-113620,-105068,0,0,0,453,577,602,413,409,484,543,414,394,605,690,484,0,,
1,1778967548496,-2282,-3139,22450,-6459289,-2035402,-678060,0,0,0,415,288,347,219,154,305,353,218,379,284,419,411,0,,
2,1778967548496,713,105,10236,533896,-144164,-152716,0,0,0,441,607,594,440,461,523,610,366,407,564,640,508,0,,
1,1778967548512,-1641,-6963,25551,-6481280,-2147802,-583987,0,0,0,428,283,346,230,169,316,365,232,378,289,429,385,0,,
2,1778967548512,914,81,10423,635299,-162490,-234572,0,0,0,448,640,607,446,500,556,630,325,435,489,563,537,0,,
1,1778967548528,167,-12825,26929,-6349333,-2004859,-437379,0,0,0,473,281,307,239,171,285,390,229,382,300,422,371,0,,
2,1778967548528,861,-71,10471,739146,-169820,-337197,0,0,0,513,648,579,477,533,566,635,279,437,453,508,582,0,,
1,1778967548544,2842,-20449,25891,-5965709,-1795943,-293215,0,0,0,488,271,301,264,164,296,418,220,344,330,407,393,0,,
2,1778967548544,588,-210,10739,857654,-171042,-412944,0,0,0,570,683,505,491,597,573,603,257,466,420,507,590,0,,
1,1778967548560,5029,-27312,23488,-5272988,-1411098,-30543,0,0,0,473,274,288,255,167,307,389,243,352,314,377,383,0,,
2,1778967548560,268,-224,11667,1083674,-166155,-428827,0,0,0,632,666,446,508,622,595,558,201,523,424,446,608,0,,
1,1778967548576,4938,-33299,18463,-3997502,-692721,362853,0,0,0,473,285,289,261,171,302,379,244,349,312,378,398,0,,
2,1778967548576,301,-301,12797,1500285,-112399,-415388,0,0,0,671,681,353,559,640,596,514,177,482,425,350,674,0,,
1,1778967548592,4369,-38501,13357,-2557081,-331088,715934,0,0,0,446,284,270,246,147,278,445,328,338,362,435,352,0,,
2,1778967548592,311,-378,13831,2076941,-24434,-414166,0,0,0,676,688,312,543,674,566,546,199,471,427,395,647,0,,
1,1778967548608,5369,-43024,11280,-976162,-23212,862541,0,0,0,446,238,258,226,130,274,504,487,355,428,559,356,0,,
2,1778967548608,71,-320,14515,2669481,-6108,-403171,0,0,0,681,677,274,515,681,557,501,177,481,377,401,676,0,,
1,1778967548624,7700,-42555,13993,1374446,1600466,579100,0,0,0,460,223,264,249,126,269,544,638,344,528,661,357,0,,
2,1778967548624,282,-320,15032,3332880,-84299,-373849,0,0,0,709,677,293,518,666,521,348,157,494,390,400,638,0,,
1,1778967548640,3790,-15462,16286,3342654,3258355,-138055,0,0,0,447,211,259,250,128,300,575,708,353,578,716,386,0,,
2,1778967548640,1072,-540,16281,4042706,-163711,-397062,0,0,0,665,704,318,510,672,546,313,177,456,330,317,639,0,,
1,1778967548656,636,6130,15659,3666413,3061656,-662177,0,0,0,440,224,265,240,127,296,607,748,368,607,745,386,0,,
2,1778967548656,2957,-660,19057,4922352,-334754,-572991,0,0,0,590,688,327,510,656,551,318,150,468,318,295,554,0,,
1,1778967548672,2158,4982,14467,3474601,1584584,-514348,0,0,0,454,249,289,239,127,289,632,775,375,645,767,371,0,,
2,1778967548672,5159,-928,22579,5907066,-654847,-935845,0,0,0,514,674,318,464,640,506,280,162,396,287,313,498,0,,
1,1778967548688,3048,-1550,15185,3222925,235793,-89186,0,0,0,453,267,380,247,143,307,660,782,381,677,778,362,0,,
2,1778967548688,6312,-1143,25599,6707300,-985936,-1363451,0,0,0,440,632,284,377,587,405,219,141,315,297,303,415,0,,
1,1778967548704,397,-2718,16027,2681698,-337197,241902,0,0,0,432,312,488,259,174,340,683,786,384,703,782,379,0,,
2,1778967548704,5058,-67,28226,7494094,-725707,-1745852,0,0,0,358,498,271,283,399,335,222,173,260,285,324,338,0,,
1,1778967548720,-2632,-1067,15295,1964542,-261450,237015,0,0,0,438,342,521,276,188,354,699,798,380,728,789,411,0,,
2,1778967548720,4111,1306,31883,7996225,-273667,-1904677,0,0,0,285,394,274,257,258,310,301,199,262,298,345,306,0,,
1,1778967548736,-2608,-646,13247,1354899,124616,61086,0,0,0,475,293,547,300,181,339,726,794,374,741,789,411,0,,
2,1778967548736,7116,5967,29485,7768984,-10995,-1995085,0,0,0,266,384,304,276,270,311,343,196,287,336,361,306,0,,
1,1778967548752,-1426,-847,11605,872315,354301,-12217,0,0,0,471,330,621,317,213,369,728,782,375,751,789,408,0,,
2,1778967548752,8671,17535,20191,5716476,-243124,-1990198,0,0,0,280,390,364,258,265,317,328,205,285,329,371,307,0,,
1,1778967548768,-928,-406,10959,574213,315206,7330,0,0,0,493,332,619,346,231,411,734,772,395,755,792,408,0,,
2,1778967548768,5589,24144,17018,1984090,-1001818,-885754,0,0,0,272,377,384,227,209,312,332,211,281,314,365,297,0,,
1,1778967548784,-880,172,10787,466701,213802,19547,0,0,0,510,357,631,353,217,388,751,755,379,751,789,462,0,,
2,1778967548784,5336,19583,12969,-1070235,-2140471,1110553,0,0,0,269,382,371,227,213,312,326,206,279,321,377,293,0,,
1,1778967548800,-875,445,10911,527787,74525,9773,0,0,0,533,450,623,360,233,440,736,734,407,755,789,483,0,,
2,1778967548800,9786,12921,6231,-1242499,-1345125,2157576,0,0,0,278,387,377,247,220,309,319,192,259,330,382,301,0,,
1,1778967548816,-818,330,10873,662177,-84299,0,0,0,0,529,431,620,433,322,450,739,713,383,733,764,462,0,,
2,1778967548816,7087,12668,5278,-1274264,276111,2120924,0,0,0,284,386,375,259,221,319,293,179,239,338,361,304,0,,
1,1778967548832,-966,162,10576,775798,-200363,-1221,0,0,0,547,422,624,381,270,433,739,682,412,725,744,476,0,,
2,1778967548832,2172,12744,6958,-2475225,228463,1988977,0,0,0,296,385,377,269,210,319,296,178,242,345,353,301,0,,
1,1778967548848,-1253,57,10284,814894,-183259,7330,0,0,0,557,450,621,388,292,433,702,643,391,705,735,479,0,,
2,1778967548848,1660,10265,6853,-3777590,-296880,1726305,0,0,0,316,393,388,278,218,315,323,198,271,349,368,288,0,,
1,1778967548864,-1287,-4,10107,799011,-51312,23212,0,0,0,566,484,631,412,302,441,692,599,398,693,700,521,0,,
2,1778967548864,2335,7374,6494,-4539950,-138055,1047023,0,0,0,316,403,399,272,225,344,312,197,249,345,374,291,0,,
1,1778967548880,-1072,-129,9954,759916,69638,28099,0,0,0,587,512,614,420,316,444,687,538,388,683,678,539,0,,
2,1778967548880,813,5762,7700,-5021312,207694,206472,0,0,0,324,396,397,279,216,322,317,200,255,344,386,277,0,,
1,1778967548896,-914,-301,9863,725707,86742,21991,0,0,0,605,531,600,406,343,440,673,502,411,660,645,548,0,,
2,1778967548896,-134,4766,8949,-5390274,278554,-259006,0,0,0,324,396,407,283,216,312,355,198,266,361,377,284,0,,
1,1778967548912,-947,-435,9834,700051,56199,25656,0,0,0,622,563,594,411,367,435,647,438,433,638,607,563,0,,
2,1778967548912,-181,4072,10346,-5674938,354301,-339641,0,0,0,350,386,415,306,239,339,380,201,297,369,385,325,0,,
1,1778967548928,-990,-555,9815,669508,37873,35430,0,0,0,636,601,597,439,386,435,636,352,429,627,572,581,0,,
2,1778967548928,148,3374,12333,-5948605,559552,-92851,0,0,0,320,379,409,303,218,341,386,195,294,368,379,330,0,,
1,1778967548944,-1014,-660,9796,629191,32986,48869,0,0,0,642,624,620,454,407,450,638,312,440,622,529,598,0,,
2,1778967548944,526,2555,14089,-6194173,731816,195476,0,0,0,306,376,411,297,211,338,385,194,290,367,375,329,0,,
1,1778967548960,-1062,-741,9892,596204,36651,75747,0,0,0,667,650,629,482,432,475,619,270,442,640,485,615,0,,
2,1778967548960,1033,1837,16161,-6393315,889419,535117,0,0,0,317,379,413,294,219,336,389,208,298,362,372,322,0,,
1,1778967548976,-1134,-760,10160,608421,54977,118507,0,0,0,700,663,615,545,507,481,629,258,438,651,445,645,0,,
2,1778967548976,1828,1005,18889,-6527705,1053131,839328,0,0,0,336,382,412,298,220,334,392,211,299,370,375,317,0,,
1,1778967548992,-1196,-818,10433,679282,86742,163711,0,0,0,716,686,595,469,510,516,578,231,455,571,483,683,0,,
2,1778967548992,2345,-713,22143,-6577796,1258382,850324,0,0,0,333,385,414,299,217,340,390,208,299,369,373,319,0,,
1,1778967549008,-1167,-942,10701,795346,117286,204028,0,0,0,732,718,595,530,518,496,550,226,451,549,432,705,0,,
2,1778967549008,1464,-4278,25986,-6691417,1396437,637743,0,0,0,316,388,421,297,216,345,385,210,301,359,362,326,0,,
1,1778967549024,-1115,-1057,11093,956614,152716,239459,0,0,0,738,738,592,547,573,501,524,260,470,487,396,713,0,,
2,1778967549024,421,-10031,28963,-6780604,1361007,597426,0,0,0,311,392,417,299,216,340,377,207,289,364,363,335,0,,
1,1778967549040,-1191,-1263,11562,1204626,182037,284663,0,0,0,768,757,580,539,626,541,494,269,473,450,365,739,0,,
2,1778967549040,-583,-18430,29983,-6530149,1299921,805120,0,0,0,296,406,398,291,226,341,369,206,282,351,368,336,0,,
1,1778967549056,-1057,-1454,11907,1501506,191811,342084,0,0,0,781,763,514,547,630,543,467,237,465,460,358,743,0,,
2,1778967549056,-3239,-29997,28623,-5595525,1166752,918741,0,0,0,304,414,405,289,230,355,366,210,293,335,364,326,0,,
1,1778967549072,-660,-1478,12227,1833817,202807,365297,0,0,0,790,776,510,539,624,550,406,201,444,438,364,755,0,,
2,1778967549072,-4838,-38875,23991,-4386012,613308,709825,0,0,0,325,400,416,298,247,373,371,213,293,339,368,319,0,,
1,1778967549088,-497,-1478,13017,2200336,218689,335975,0,0,0,791,781,463,539,624,557,365,193,471,410,353,748,0,,
2,1778967549088,-3718,-44421,16037,-2722015,62308,487470,0,0,0,332,398,406,310,289,373,369,223,286,328,372,314,0,,
1,1778967549104,-1134,-1622,14156,2728124,276111,333532,0,0,0,780,777,393,541,612,554,334,191,487,378,347,735,0,,
2,1778967549104,-3900,-47030,10830,-979827,18325,590095,0,0,0,276,389,372,286,215,353,417,290,303,336,516,304,0,,
1,1778967549120,-1517,-1852,14970,3370754,379958,399505,0,0,0,773,773,362,539,614,546,318,205,490,340,328,713,0,,
2,1778967549120,-6609,-43263,12222,857654,103847,987158,0,0,0,328,325,235,263,255,274,332,613,234,407,746,227,0,,
1,1778967549136,-1373,-1971,15587,4023158,481361,486248,0,0,0,767,767,370,538,639,555,315,216,497,305,282,690,0,,
2,1778967549136,-5838,-16960,15616,2864957,-444709,921184,0,0,0,284,419,184,277,316,307,410,682,218,535,798,256,0,,
1,1778967549152,-1909,-2115,16884,4721988,542448,596204,0,0,0,749,749,393,545,647,574,304,209,507,284,243,672,0,,
2,1778967549152,-2158,8523,15314,3958406,-1350012,-23212,0,0,0,284,356,209,299,261,319,490,754,290,631,826,295,0,,
1,1778967549168,-2775,-2756,19502,5514891,654847,773355,0,0,0,718,720,397,532,607,562,289,200,502,266,238,648,0,,
2,1778967549168,574,6542,14419,4064697,-1303586,-956614,0,0,0,271,392,270,281,264,354,600,800,318,717,863,325,0,,
1,1778967549184,-4398,-3345,24302,6414085,896750,988379,0,0,0,679,654,343,461,529,513,290,184,461,241,223,612,0,,
2,1778967549184,612,-1746,18128,3683517,-194255,-757472,0,0,0,288,382,303,292,284,380,666,821,312,760,876,305,0,,
1,1778967549200,-6235,-3378,27997,7147123,918741,1232726,0,0,0,603,477,276,351,376,393,292,193,430,228,193,545,0,,
2,1778967549200,923,-3048,19808,2976135,359188,-524122,0,0,0,331,365,377,316,266,378,690,829,274,805,880,286,0,,
1,1778967549216,-7236,-2861,31375,7722558,333532,1604132,0,0,0,447,305,253,243,195,304,294,176,371,263,243,411,0,,
2,1778967549216,1765,-646,17013,2040289,204028,-349414,0,0,0,339,356,440,322,266,394,703,821,282,821,883,294,0,,
1,1778967549232,-6302,2077,31863,7610159,-155159,2010968,0,0,0,391,264,325,227,140,324,396,207,388,254,312,436,0,,
2,1778967549232,1478,86,12610,1298699,-1221,-185703,0,0,0,368,354,495,318,259,392,719,819,270,822,879,292,0,,
1,1778967549248,-6317,10878,23761,6503271,590095,2258979,0,0,0,408,278,319,224,160,335,359,191,384,278,331,468,0,,
2,1778967549248,1105,28,10500,801455,-7330,-90408,0,0,0,386,378,507,295,248,358,730,822,250,830,875,300,0,,
1,1778967549264,-8442,16659,15276,3717725,1637118,1982868,0,0,0,418,272,318,213,162,325,380,207,376,295,324,436,0,,
2,1778967549264,1124,315,10562,560774,-20769,-72082,0,0,0,374,420,502,287,264,334,738,823,252,839,882,327,0,,
1,1778967549280,-7657,14094,13156,178372,1517389,818559,0,0,0,400,260,321,193,148,313,339,223,355,280,364,460,0,,
2,1778967549280,1052,703,10480,412944,-67195,-69638,0,0,0,403,446,528,310,288,324,744,822,247,831,884,321,0,,
1,1778967549296,-6302,9920,11055,-1511280,1455080,-400727,0,0,0,400,257,369,191,145,334,343,213,379,282,376,467,0,,
2,1778967549296,914,856,10193,375071,-84299,-76969,0,0,0,435,445,544,299,285,312,738,805,249,808,861,294,0,,
1,1778967549312,-6709,8513,7585,-1725083,1241278,-1343903,0,0,0,405,249,388,201,157,347,343,204,379,297,380,475,0,,
2,1778967549312,861,804,10026,389732,-57421,-81855,0,0,0,374,443,552,281,289,332,722,780,256,804,851,327,0,,
1,1778967549328,-5762,9183,6015,-2296853,415388,-1966986,0,0,0,413,248,381,209,165,345,360,234,368,294,393,471,0,,
2,1778967549328,832,866,9968,426383,-26878,-87964,0,0,0,430,422,562,320,284,332,682,755,227,792,851,326,0,,
1,1778967549344,-4020,8805,6322,-3342654,0,-2405587,0,0,0,417,254,379,200,161,336,381,263,373,279,411,456,0,,
2,1778967549344,861,1072,10002,538783,7330,-100181,0,0,0,405,450,508,304,288,327,685,739,258,765,837,290,0,,
1,1778967549360,-3627,7207,7145,-4480085,-40317,-2494773,0,0,0,448,257,376,207,162,323,385,265,378,279,423,437,0,,
2,1778967549360,938,1043,10026,707381,19547,-119729,0,0,0,367,429,551,313,293,347,659,705,299,764,850,303,0,,
1,1778967549376,-3981,4967,7709,-5308418,-401949,-1890017,0,0,0,467,260,373,230,166,321,380,262,375,287,427,424,0,,
2,1778967549376,971,770,9911,825889,8552,-135612,0,0,0,428,477,527,303,277,327,665,632,270,738,834,326,0,,
1,1778967549392,-3192,3029,8580,-5842315,-944397,-938289,0,0,0,436,273,369,233,168,329,374,266,367,287,428,418,0,,
2,1778967549392,971,502,9667,839328,-23212,-134390,0,0,0,397,461,543,346,301,385,643,619,303,711,811,341,0,,
1,1778967549408,-1555,1675,10074,-6104987,-1263269,-53756,0,0,0,422,301,361,229,178,330,371,275,362,283,426,413,0,,
2,1778967549408,933,320,9514,780685,-65973,-122173,0,0,0,422,467,538,347,286,425,645,589,334,676,802,379,0,,
1,1778967549424,-871,737,11883,-6212499,-1280373,299323,0,0,0,408,328,359,219,182,335,363,272,364,287,427,430,0,,
2,1778967549424,885,110,9504,687834,-97738,-108734,0,0,0,451,509,559,381,336,433,621,569,317,657,786,358,0,,
1,1778967549440,-808,-14,13653,-6318790,-1391551,304210,0,0,0,427,326,348,223,187,327,369,271,371,288,434,398,0,,
2,1778967549440,928,-19,9533,592539,-114842,-98960,0,0,0,406,550,582,396,335,453,581,538,319,625,772,369,0,,
1,1778967549456,-794,-531,15104,-6434854,-1632231,-28099,0,0,0,427,320,365,224,178,359,372,260,385,291,427,417,0,,
2,1778967549456,995,-105,9566,510683,-142942,-101403,0,0,0,421,583,569,410,386,470,581,489,367,617,743,384,0,,
1,1778967549472,-918,-1115,16501,-6440963,-1859473,-620639,0,0,0,406,316,359,220,178,346,390,270,379,279,437,423,0,,
2,1778967549472,1009,-167,9619,445931,-180816,-118507,0,0,0,422,585,563,407,410,476,610,430,394,630,716,407,0,,
1,1778967549488,-1407,-1947,18382,-6323676,-2047620,-1123992,0,0,0,420,317,327,227,185,340,412,271,366,287,439,409,0,,
2,1778967549488,957,-224,9705,412944,-210137,-142942,0,0,0,412,602,571,406,415,500,632,385,405,623,671,443,0,,
1,1778967549504,-1512,-3287,21033,-6219829,-2175901,-1199739,0,0,0,397,323,321,213,184,330,390,264,372,289,411,392,0,,
2,1778967549504,1005,-220,9897,420275,-224798,-171042,0,0,0,453,649,587,416,464,510,613,362,410,586,636,482,0,,
1,1778967549520,-234,-6360,24067,-6245486,-2090380,-915076,0,0,0,398,331,310,219,184,319,400,256,365,319,396,376,0,,
2,1778967549520,1124,-148,10236,498466,-233350,-215024,0,0,0,502,665,594,435,509,504,602,307,401,553,603,502,0,,
1,1778967549536,2019,-11471,25776,-6227160,-1948660,-741590,0,0,0,401,336,303,227,185,323,409,246,352,326,391,369,0,,
2,1778967549536,1148,-119,10533,645073,-246789,-273667,0,0,0,548,660,596,470,501,545,601,235,408,516,545,528,0,,
1,1778967549552,5369,-19339,25450,-5924171,-1825265,-758694,0,0,0,395,339,304,230,189,331,415,262,361,305,392,378,0,,
2,1778967549552,1158,-196,10806,802676,-237015,-331088,0,0,0,609,690,594,493,517,599,552,233,446,456,517,585,0,,
1,1778967549568,6623,-27815,22828,-5045746,-1253495,-663399,0,0,0,398,339,306,242,186,335,431,278,373,315,401,387,0,,
2,1778967549568,1234,-306,11533,1017701,-218689,-393397,0,0,0,619,719,511,497,620,598,504,242,476,430,480,617,0,,
1,1778967549584,4450,-33524,18717,-3916867,-436157,-284663,0,0,0,402,340,308,245,181,334,437,288,376,340,406,378,0,,
2,1778967549584,1311,-459,12730,1404990,-237015,-452040,0,0,0,697,724,442,527,629,576,455,197,436,443,414,668,0,,
1,1778967549600,3067,-36338,13965,-2572964,-211359,69638,0,0,0,400,317,286,248,173,322,456,348,367,365,443,374,0,,
2,1778967549600,1139,-569,13697,1899790,-252898,-502131,0,0,0,729,744,422,496,649,557,455,214,460,379,384,686,0,,
1,1778967549616,4766,-39535,11998,-1028697,-185703,124616,0,0,0,405,253,259,267,146,312,507,485,351,425,561,384,0,,
2,1778967549616,708,-488,14376,2498438,-257785,-500909,0,0,0,734,739,328,510,688,574,434,256,457,379,429,667,0,,
1,1778967549632,6925,-41253,14189,1087340,1003040,50090,0,0,0,418,228,288,248,133,314,536,659,382,498,678,366,0,,
2,1778967549632,550,-373,15127,3213151,-245567,-467922,0,0,0,732,739,320,504,640,544,354,180,441,370,403,710,0,,
1,1778967549648,3565,-22019,16506,3369532,3123964,224798,0,0,0,417,269,262,236,147,288,563,720,406,554,707,347,0,,
2,1778967549648,1210,-526,16400,4025601,-222354,-480140,0,0,0,698,743,335,520,636,555,297,269,439,347,405,670,0,,
1,1778967549664,-1244,2871,16147,3505144,3163060,28099,0,0,0,413,222,276,251,147,307,591,743,356,623,747,363,0,,
2,1778967549664,2995,-660,19047,5024977,-301767,-646295,0,0,0,598,735,324,529,634,531,312,193,415,302,308,531,0,,
1,1778967549680,-291,7044,15046,3260798,2058615,-354301,0,0,0,409,246,262,267,150,311,661,758,343,661,759,337,0,,
2,1778967549680,5025,-737,22402,6026796,-549778,-952949,0,0,0,514,692,317,491,619,525,268,212,390,271,262,454,0,,
1,1778967549696,3670,-421,15295,3066543,739146,-386066,0,0,0,428,252,337,278,151,332,687,786,366,686,769,355,0,,
2,1778967549696,6159,-1067,25881,6874677,-951728,-1331686,0,0,0,426,607,283,421,532,438,253,169,351,255,267,355,0,,
1,1778967549712,2110,-2057,15754,2555860,-29321,35430,0,0,0,413,274,438,280,166,324,727,812,384,718,788,376,0,,
2,1778967549712,5388,-124,29198,7599163,-812450,-1668883,0,0,0,331,463,275,307,343,336,297,170,317,308,270,300,0,,
1,1778967549728,-1325,-1186,15305,1795943,-215024,162490,0,0,0,435,305,520,283,182,333,751,813,386,735,790,379,0,,
2,1778967549728,4106,1416,33026,7916813,-722042,-1788613,0,0,0,276,395,273,249,261,326,293,181,307,292,281,301,0,,
1,1778967549744,-1363,-512,13519,1125213,-37873,9773,0,0,0,447,331,578,300,215,359,755,804,364,741,786,399,0,,
2,1778967549744,6704,6795,28686,7426899,-1262047,-1721418,0,0,0,258,381,283,239,254,329,264,163,291,299,316,305,0,,
1,1778967549760,-583,-263,11878,730594,10995,-36651,0,0,0,470,352,599,321,232,396,763,803,394,747,791,428,0,,
2,1778967549760,10390,18396,18870,5175250,-1770287,-1496619,0,0,0,271,367,316,252,248,326,236,165,274,315,369,319,0,,
1,1778967549776,-502,86,10815,559552,-59864,-4886,0,0,0,497,353,607,346,243,409,773,806,434,752,797,441,0,,
2,1778967549776,9471,24618,14343,1445307,-1510058,-664621,0,0,0,288,361,341,263,261,345,236,191,275,291,402,323,0,,
1,1778967549792,-784,469,10667,507018,-98960,-1221,0,0,0,500,386,628,358,258,408,771,798,433,751,793,447,0,,
2,1778967549792,7197,18990,10619,-821002,-1391551,652404,0,0,0,289,360,335,273,270,334,278,201,267,306,405,301,0,,
1,1778967549808,-741,670,10782,518013,-136833,-8552,0,0,0,498,433,631,355,264,428,765,776,430,744,786,477,0,,
2,1778967549808,7451,14051,6599,-1361007,-1014036,1546710,0,0,0,285,359,316,291,258,305,293,200,243,337,399,308,0,,
1,1778967549824,-598,689,10772,615752,-210137,-9773,0,0,0,515,403,588,359,261,442,764,747,430,729,776,517,0,,
2,1778967549824,6106,13625,5805,-1758070,-197920,1847256,0,0,0,254,356,306,224,247,310,276,186,267,319,371,318,0,,
1,1778967549840,-722,545,10485,733038,-278554,0,0,0,0,502,433,581,367,233,432,745,709,431,721,751,513,0,,
2,1778967549840,3062,12280,6872,-3193603,-84299,1962099,0,0,0,265,368,284,248,259,295,301,169,250,334,375,306,0,,
1,1778967549856,-933,392,10184,794124,-274889,15882,0,0,0,529,420,579,383,256,417,737,684,442,702,722,530,0,,
2,1778967549856,2713,9088,6858,-4236961,-256563,1723861,0,0,0,309,379,311,276,277,315,318,183,247,349,360,314,0,,
1,1778967549872,-985,296,10021,788016,-193033,29321,0,0,0,545,402,535,430,271,438,735,648,459,685,687,497,0,,
2,1778967549872,2675,6355,7097,-4775744,-63529,1055575,0,0,0,278,378,359,262,280,331,293,181,278,349,373,337,0,,
1,1778967549888,-890,229,9944,774577,-108734,36651,0,0,0,571,461,554,413,321,427,721,558,419,656,657,454,0,,
2,1778967549888,1536,4948,8423,-5182580,151494,302989,0,0,0,292,382,348,297,275,351,313,165,288,364,374,355,0,,
1,1778967549904,-871,129,9944,778242,-56199,39095,0,0,0,576,440,582,407,294,445,715,535,493,656,630,533,0,,
2,1778967549904,976,4005,9734,-5564982,212581,-136833,0,0,0,273,383,355,270,265,364,286,173,304,357,371,352,0,,
1,1778967549920,-933,-67,9940,780685,-12217,37873,0,0,0,586,500,553,452,342,459,705,423,488,633,574,552,0,,
2,1778967549920,1110,3297,11261,-5886297,359188,-184481,0,0,0,277,371,362,263,251,363,311,185,309,351,359,347,0,,
1,1778967549936,-894,-325,9834,735481,18325,42760,0,0,0,608,544,553,442,386,462,702,417,486,634,550,565,0,,
2,1778967549936,1311,2459,13237,-6162408,615752,9773,0,0,0,338,374,367,275,232,373,312,184,317,365,355,356,0,,
1,1778967549952,-847,-473,9772,670730,17104,52534,0,0,0,613,561,581,444,401,487,706,348,498,620,522,598,0,,
2,1778967549952,1555,1512,15309,-6342002,833220,392175,0,0,0,376,390,355,285,230,361,288,187,313,384,366,351,0,,
1,1778967549968,-856,-512,9863,607200,-2443,72082,0,0,0,645,536,601,488,408,503,710,301,512,602,476,620,0,,
2,1778967549968,2301,684,17382,-6410419,954171,808785,0,0,0,342,408,358,274,228,365,282,177,308,378,372,368,0,,
1,1778967549984,-1000,-497,10074,588874,-18325,102625,0,0,0,664,537,599,521,440,504,695,295,515,592,454,650,0,,
2,1778967549984,3306,-282,19770,-6393315,1104444,1054353,0,0,0,285,425,365,271,237,366,310,170,308,375,371,389,0,,
1,1778967550000,-1162,-521,10332,619417,-4886,147829,0,0,0,682,580,603,538,480,522,685,290,525,562,443,681,0,,
2,1778967550000,3871,-1976,23163,-6333450,1350012,926071,0,0,0,261,416,370,268,237,369,325,171,316,379,373,388,0,,
1,1778967550016,-1287,-617,10605,711047,50090,208915,0,0,0,696,621,594,562,503,551,685,283,542,516,418,702,0,,
2,1778967550016,2943,-4953,26886,-6514266,1479515,524122,0,0,0,269,397,356,270,246,371,316,179,318,372,407,365,0,,
1,1778967550032,-1105,-794,10978,875980,127059,276111,0,0,0,695,637,549,580,524,559,674,275,537,490,377,715,0,,
2,1778967550032,1689,-10648,29566,-6802595,1472185,254119,0,0,0,285,386,333,286,262,369,306,187,307,369,440,351,0,,
1,1778967550048,-732,-942,11184,1067792,175929,301767,0,0,0,718,663,508,579,557,560,648,252,523,474,326,728,0,,
2,1778967550048,57,-19148,29145,-6515488,1546710,295658,0,0,0,288,381,321,296,267,366,303,183,300,373,420,351,0,,
1,1778967550064,-411,-1072,11299,1281595,127059,287106,0,0,0,733,671,455,591,575,580,600,244,526,461,293,743,0,,
2,1778967550064,-2866,-28585,27140,-5606521,1605353,382401,0,0,0,260,381,315,288,278,358,297,169,302,363,398,336,0,,
1,1778967550080,-406,-1196,11753,1535715,-31764,254119,0,0,0,749,674,423,599,632,615,569,248,525,429,308,752,0,,
2,1778967550080,-5235,-37425,22100,-4106236,1209513,485026,0,0,0,248,371,353,271,252,380,272,163,315,365,395,363,0,,
1,1778967550096,-665,-1258,12749,1875356,-156381,241902,0,0,0,758,686,393,602,614,616,553,245,555,443,289,761,0,,
2,1778967550096,-4245,-44613,15142,-2456899,700051,529009,0,0,0,269,378,365,277,262,386,290,155,313,385,392,365,0,,
1,1778967550112,-914,-1249,13716,2349387,-101403,257785,0,0,0,775,724,322,614,572,587,507,211,564,460,290,761,0,,
2,1778967550112,-3886,-47906,11060,-626747,604756,557109,0,0,0,258,328,350,252,215,337,290,166,310,318,382,323,0,,
1,1778967550128,-1057,-1383,14142,2868623,18325,282219,0,0,0,765,707,295,597,608,576,468,224,578,392,274,762,0,,
2,1778967550128,-4460,-42033,11639,1346346,547335,840550,0,0,0,259,317,254,250,218,300,362,485,289,393,669,302,0,,
1,1778967550144,-1062,-1689,14572,3514918,111177,326202,0,0,0,754,718,284,590,601,588,430,222,558,356,255,747,0,,
2,1778967550144,-4082,-9428,17946,2792875,-377514,1335351,0,0,0,225,305,192,256,254,281,471,671,267,474,771,223,0,,
1,1778967550160,-1407,-1804,15324,4144109,108734,390953,0,0,0,746,695,292,602,616,594,391,213,566,347,246,721,0,,
2,1778967550160,-3522,16314,16367,3507588,-1821600,1309695,0,0,0,237,365,189,257,343,320,478,763,294,576,811,296,0,,
1,1778967550176,-1914,-1923,16802,4839274,80634,510683,0,0,0,717,687,316,604,614,613,374,215,572,325,257,693,0,,
2,1778967550176,-5010,10059,12132,4008497,-2448347,288328,0,0,0,267,373,196,285,358,273,557,801,258,607,837,276,0,,
1,1778967550192,-2847,-2507,20483,5714033,131946,675616,0,0,0,691,653,313,557,576,581,332,201,537,294,249,662,0,,
2,1778967550192,-4307,-4230,14658,4076914,-1488067,-681725,0,0,0,272,385,260,327,344,347,605,812,288,686,854,291,0,,
1,1778967550208,-4422,-2761,24383,6483723,204028,845437,0,0,0,631,559,278,455,496,495,303,204,510,239,223,594,0,,
2,1778967550208,349,-3105,18841,3546683,-202807,-926071,0,0,0,285,390,297,355,315,393,644,831,305,732,870,305,0,,
1,1778967550224,-5824,-1928,27925,7177666,63529,1111774,0,0,0,512,437,292,341,320,402,338,203,451,207,207,515,0,,
2,1778967550224,2909,387,18836,2734232,199142,-613308,0,0,0,305,380,349,336,309,400,680,842,296,749,874,307,0,,
1,1778967550240,-5063,-320,31725,7568620,-362853,1400103,0,0,0,429,355,308,277,189,339,381,214,385,227,267,423,0,,
2,1778967550240,1785,186,14716,1820378,36651,-216246,0,0,0,314,383,425,309,325,383,699,838,299,762,871,302,0,,
1,1778967550256,-4938,2531,31390,7595498,-287106,1651779,0,0,0,419,319,286,259,175,310,396,248,365,257,340,366,0,,
2,1778967550256,674,-430,11672,1263269,28099,-91629,0,0,0,333,374,462,316,298,363,712,832,282,777,870,300,0,,
1,1778967550272,-7063,8523,21306,6963863,585208,1826487,0,0,0,423,300,285,251,178,302,408,264,372,273,321,394,0,,
2,1778967550272,981,-110,10772,926071,87964,-108734,0,0,0,363,366,478,327,267,356,718,828,289,779,869,312,0,,
1,1778967550288,-8939,14654,15180,4152661,1189965,1422094,0,0,0,430,302,305,244,177,298,399,251,380,310,297,408,0,,
2,1778967550288,1316,387,10576,667064,50090,-100181,0,0,0,368,383,526,309,278,345,719,827,329,762,864,324,0,,
1,1778967550304,-6489,13859,14898,331088,1380555,284663,0,0,0,459,299,313,235,179,304,393,200,393,353,326,419,0,,
2,1778967550304,1129,689,10423,511905,-13439,-76969,0,0,0,358,397,546,312,278,339,728,822,294,744,854,303,0,,
1,1778967550320,-5034,9930,11883,-1593136,1923003,-629191,0,0,0,429,302,301,227,170,307,364,202,377,363,333,408,0,,
2,1778967550320,784,722,10136,521678,35430,-78190,0,0,0,376,426,502,350,316,358,724,805,274,741,852,267,0,,
1,1778967550336,-6010,8183,7470,-1521054,1971872,-937067,0,0,0,428,310,317,224,162,307,380,246,375,341,328,430,0,,
2,1778967550336,741,727,9944,591317,139277,-87964,0,0,0,412,397,495,347,284,350,727,799,261,734,850,291,0,,
1,1778967550352,-5111,9313,5776,-1951103,1108109,-1120326,0,0,0,433,314,311,244,158,298,353,258,360,340,378,432,0,,
2,1778967550352,909,698,9935,659734,218689,-97738,0,0,0,388,396,459,338,265,336,713,759,232,714,844,328,0,,
1,1778967550368,-2967,9337,5977,-3089756,719599,-1453859,0,0,0,438,338,301,240,224,316,406,256,370,337,390,424,0,,
2,1778967550368,1086,593,9949,698829,229685,-107512,0,0,0,390,431,475,339,310,344,723,739,282,703,838,329,0,,
1,1778967550384,-2814,7666,6250,-4188092,879645,-1654223,0,0,0,441,330,306,234,211,338,404,256,374,330,393,439,0,,
2,1778967550384,1229,502,9877,719599,177150,-120951,0,0,0,400,431,524,352,289,389,710,694,282,696,832,333,0,,
1,1778967550400,-4087,5522,6269,-4846604,552222,-1309695,0,0,0,449,334,311,230,211,317,382,259,360,317,391,435,0,,
2,1778967550400,1296,387,9748,720820,70860,-134390,0,0,0,352,460,533,329,353,423,696,671,312,655,826,317,0,,
1,1778967550416,-4158,3843,6939,-5343849,-122173,-663399,0,0,0,450,346,322,228,215,305,362,258,359,312,394,416,0,,
2,1778967550416,1268,229,9600,686612,-56199,-146607,0,0,0,347,441,541,357,311,435,689,651,334,628,820,350,0,,
1,1778967550432,-2852,2852,8662,-5780006,-572991,-39095,0,0,0,444,350,323,228,210,303,330,254,364,315,399,403,0,,
2,1778967550432,1177,90,9528,637743,-153938,-161268,0,0,0,390,463,527,377,326,479,705,612,381,652,794,357,0,,
1,1778967550448,-2244,1928,10346,-6147747,-670730,265115,0,0,0,438,343,313,233,209,302,351,257,368,313,405,399,0,,
2,1778967550448,1139,14,9629,603534,-201585,-168598,0,0,0,393,429,515,377,334,507,690,560,411,599,755,357,0,,
1,1778967550464,-2550,789,11820,-6372546,-759916,284663,0,0,0,435,335,310,238,212,302,407,266,373,303,408,402,0,,
2,1778967550464,1129,-38,9791,583987,-227241,-171042,0,0,0,382,426,513,386,351,507,682,525,408,565,730,392,0,,
1,1778967550480,-2699,-339,13409,-6444628,-1084896,90408,0,0,0,437,337,322,234,209,303,417,270,376,296,408,415,0,,
2,1778967550480,1086,-181,9863,560774,-251676,-174707,0,0,0,390,480,535,414,360,517,689,476,416,579,716,435,0,,
1,1778967550496,-2163,-899,15285,-6437297,-1429424,-384845,0,0,0,442,349,334,234,207,305,427,277,378,301,410,417,0,,
2,1778967550496,1009,-363,9763,527787,-261450,-178372,0,0,0,406,529,558,434,422,530,693,430,425,589,695,447,0,,
1,1778967550512,-1966,-1282,17439,-6420193,-1654223,-970053,0,0,0,421,348,336,241,200,302,434,281,377,318,398,391,0,,
2,1778967550512,971,-469,9710,500909,-257785,-184481,0,0,0,422,555,569,435,487,546,689,390,418,563,654,449,0,,
1,1778967550528,-2469,-2215,20636,-6428745,-1876578,-1406211,0,0,0,405,322,361,260,183,335,442,254,378,411,367,411,0,,
2,1778967550528,1038,-421,9887,507018,-239459,-200363,0,0,0,454,598,564,437,488,566,684,324,445,517,599,487,0,,
1,1778967550544,-2459,-4627,24139,-6569244,-2122145,-1358564,0,0,0,391,316,353,268,195,331,449,256,378,330,402,404,0,,
2,1778967550544,1330,-325,10308,593761,-212581,-246789,0,0,0,511,642,530,452,526,557,668,263,506,477,562,544,0,,
1,1778967550560,-832,-9485,26527,-6762278,-2214997,-878424,0,0,0,411,333,346,255,203,347,444,247,390,351,394,431,0,,
2,1778967550560,1612,-440,10748,755029,-193033,-348193,0,0,0,580,656,518,472,579,574,646,261,482,472,541,582,0,,
1,1778967550576,2139,-16812,26881,-6671870,-2097711,-392175,0,0,0,417,313,314,268,176,333,439,242,390,415,335,431,0,,
2,1778967550576,1167,-607,11174,979827,-197920,-431270,0,0,0,610,644,490,469,577,627,594,237,472,469,451,620,0,,
1,1778967550592,4412,-25254,24905,-5909510,-1621236,-146607,0,0,0,430,319,294,299,179,348,489,252,392,352,413,432,0,,
2,1778967550592,679,-693,11710,1252273,-183259,-438601,0,0,0,650,689,434,529,608,620,527,208,485,410,435,664,0,,
1,1778967550608,3938,-32490,21177,-4651127,-879645,91629,0,0,0,412,323,306,302,201,357,499,226,401,345,423,434,0,,
2,1778967550608,708,-780,12687,1645670,-78190,-403171,0,0,0,667,703,358,542,666,582,509,228,475,372,377,668,0,,
1,1778967550624,3441,-36376,16185,-3153286,-579100,273667,0,0,0,405,325,280,278,202,315,481,267,352,369,435,409,0,,
2,1778967550624,1105,-851,13701,2167349,14660,-415388,0,0,0,705,694,329,515,667,566,440,199,507,403,441,722,0,,
1,1778967550640,4967,-40219,13074,-1591914,-546113,134390,0,0,0,405,294,263,288,185,304,516,451,337,428,530,395,0,,
2,1778967550640,1148,-770,14558,2792875,-6108,-447153,0,0,0,707,694,297,544,695,597,349,220,523,349,421,722,0,,
1,1778967550656,6341,-45709,14654,631634,398284,-239459,0,0,0,413,260,272,282,163,317,559,635,337,496,647,405,0,,
2,1778967550656,1397,-818,15314,3517362,-138055,-480140,0,0,0,698,685,328,538,686,588,325,179,499,350,429,690,0,,
1,1778967550672,3795,-31840,16415,3057991,2326174,-256563,0,0,0,422,246,276,257,142,314,586,718,337,556,713,397,0,,
2,1778967550672,2105,-981,16865,4342030,-196698,-582765,0,0,0,658,703,320,563,672,610,302,143,487,327,361,605,0,,
1,1778967550688,-234,598,17200,3585778,3042108,-256563,0,0,0,419,242,268,302,161,297,631,739,362,613,733,366,0,,
2,1778967550688,3522,-985,19899,5382944,-266337,-783129,0,0,0,565,698,352,550,669,615,394,147,471,304,263,524,0,,
1,1778967550704,81,9619,16008,3302337,2360383,-307876,0,0,0,412,250,282,334,183,304,669,760,382,660,756,363,0,,
2,1778967550704,5446,-1234,24527,6416528,-500909,-1128878,0,0,0,515,641,352,467,637,525,345,148,442,284,229,461,0,,
1,1778967550720,2928,990,15860,3189938,972497,-234572,0,0,0,407,264,322,278,154,338,680,787,387,696,783,376,0,,
2,1778967550720,6427,-1062,28341,7213096,-718377,-1461189,0,0,0,435,515,278,382,509,374,274,122,355,292,247,362,0,,
1,1778967550736,2507,-2507,16003,2792875,-78190,72082,0,0,0,411,277,378,281,155,349,719,810,407,731,798,372,0,,
2,1778967550736,5532,177,31409,7935139,-474031,-1764178,0,0,0,332,387,252,297,325,289,263,155,285,278,313,299,0,,
1,1778967550752,-1139,-1225,15467,2031737,-309097,244346,0,0,0,416,301,534,292,166,366,742,812,434,753,800,390,0,,
2,1778967550752,5805,3345,32328,8156272,65973,-1887573,0,0,0,271,331,276,242,224,290,304,218,286,254,373,324,0,,
1,1778967550768,-2029,-449,13730,1254717,-17104,62308,0,0,0,426,344,527,309,209,390,763,827,451,770,809,393,0,,
2,1778967550768,8327,11280,25058,7522194,444709,-2067167,0,0,0,269,330,290,246,236,316,298,229,287,264,393,339,0,,
1,1778967550784,-985,-272,11878,741590,140499,-65973,0,0,0,461,321,593,339,191,364,770,820,467,770,802,448,0,,
2,1778967550784,7575,23766,17994,4875926,179594,-1944994,0,0,0,290,356,307,252,260,324,247,226,264,271,413,313,0,,
1,1778967550800,-382,76,10902,521678,70860,-52534,0,0,0,466,344,635,299,197,393,768,809,450,767,806,469,0,,
2,1778967550800,4163,25647,16305,386066,-1374446,-381179,0,0,0,295,400,308,236,268,292,254,218,252,272,427,291,0,,
1,1778967550816,-660,717,10772,464257,-17104,-6108,0,0,0,470,354,645,331,236,421,761,801,436,760,800,463,0,,
2,1778967550816,6575,18578,10758,-1871691,-2295631,1070235,0,0,0,293,404,334,232,265,306,269,215,259,297,436,299,0,,
1,1778967550832,-722,1081,10882,543670,-81855,4886,0,0,0,489,350,648,360,255,443,759,786,441,751,786,426,0,,
2,1778967550832,9705,13065,5206,-1865582,-1048244,1481959,0,0,0,307,394,338,229,247,305,257,217,267,311,430,311,0,,
1,1778967550848,-574,990,10830,691499,-175929,4886,0,0,0,489,394,637,348,268,449,758,752,441,749,777,446,0,,
2,1778967550848,4292,13907,6805,-2483778,357967,1323134,0,0,0,314,396,328,261,264,299,241,211,268,290,442,279,0,,
1,1778967550864,-689,751,10557,806342,-277332,8552,0,0,0,495,447,626,351,255,428,747,712,419,742,756,447,0,,
2,1778967550864,1110,12514,8490,-3897320,73303,1414763,0,0,0,344,379,342,262,223,288,254,212,252,294,426,275,0,,
1,1778967550880,-957,579,10275,864985,-289550,17104,0,0,0,496,467,620,374,255,419,740,674,420,721,727,446,0,,
2,1778967550880,1895,8485,8509,-5158146,-250454,1160643,0,0,0,286,395,389,230,252,310,274,222,286,276,410,283,0,,
1,1778967550896,-1072,507,10054,871093,-193033,30543,0,0,0,502,491,613,383,286,423,730,623,435,706,688,470,0,,
2,1778967550896,1694,5474,9054,-5820323,-51312,505796,0,0,0,313,391,329,236,257,297,289,221,274,300,421,281,0,,
1,1778967550912,-966,425,9882,862541,-72082,43982,0,0,0,537,498,600,395,314,427,718,557,435,697,659,490,0,,
2,1778967550912,598,3761,10256,-6157521,150272,-226020,0,0,0,275,397,375,228,261,322,300,215,302,331,420,290,0,,
1,1778967550928,-847,272,9844,852767,3665,47647,0,0,0,578,481,586,419,314,430,721,485,443,686,629,501,0,,
2,1778967550928,-81,2924,11964,-6398202,280998,-680503,0,0,0,259,371,370,211,230,325,283,209,296,320,418,306,0,,
1,1778967550944,-842,-67,9887,816115,26878,37873,0,0,0,592,514,587,422,318,445,729,412,472,676,592,536,0,,
2,1778967550944,-263,2220,13787,-6576575,442266,-737925,0,0,0,285,360,370,216,217,325,281,204,296,301,415,296,0,,
1,1778967550960,-871,-296,9858,752585,36651,34208,0,0,0,610,531,610,462,346,466,712,357,463,650,596,567,0,,
2,1778967550960,71,1244,15549,-6685309,663399,-414166,0,0,0,273,379,372,223,224,330,289,208,301,286,419,294,0,,
1,1778967550976,-856,-354,9830,685390,39095,43982,0,0,0,640,557,625,514,394,482,695,318,477,621,554,597,0,,
2,1778967550976,861,488,17195,-6688974,913854,204028,0,0,0,279,388,377,211,219,323,295,220,308,272,415,305,0,,
1,1778967550992,-890,-354,9925,645073,29321,65973,0,0,0,643,612,610,526,445,488,689,313,488,595,510,608,0,,
2,1778967550992,2177,-138,19344,-6665761,1170417,813672,0,0,0,288,390,383,210,218,325,292,226,312,269,414,333,0,,
1,1778967551008,-1038,-373,10126,642630,21991,106290,0,0,0,667,607,626,536,444,487,644,335,511,580,463,655,0,,
2,1778967551008,3254,-1493,22282,-6648657,1469741,1000597,0,0,0,268,387,381,206,227,330,286,226,316,267,415,341,0,,
1,1778967551024,-1215,-440,10437,698829,47647,172263,0,0,0,686,620,601,548,461,485,673,238,482,550,449,677,0,,
2,1778967551024,2536,-4675,26010,-6693861,1642005,684169,0,0,0,248,375,367,197,237,333,278,231,316,261,412,321,0,,
1,1778967551040,-1229,-569,10859,816115,103847,240680,0,0,0,714,657,586,560,500,501,641,219,481,531,377,695,0,,
2,1778967551040,1129,-9399,28944,-6778160,1576032,431270,0,0,0,250,360,346,212,246,343,274,230,307,271,407,318,0,,
1,1778967551056,-947,-679,11289,993266,164933,289550,0,0,0,736,676,550,576,504,502,623,204,475,516,353,719,0,,
2,1778967551056,-344,-16807,29432,-6601009,1453859,552222,0,0,0,265,351,326,228,242,326,293,211,303,297,406,334,0,,
1,1778967551072,-435,-847,11485,1264491,173485,290771,0,0,0,746,685,471,572,534,510,594,220,463,495,348,736,0,,
2,1778967551072,-2014,-25417,27949,-5900958,1369559,712268,0,0,0,308,351,299,229,248,293,301,214,281,297,426,295,0,,
1,1778967551088,-268,-1005,11643,1518610,64751,246789,0,0,0,759,705,427,561,556,538,566,218,471,464,331,748,0,,
2,1778967551088,-3589,-34094,23598,-4515515,1087340,678060,0,0,0,247,357,290,207,275,315,295,228,300,278,425,290,0,,
1,1778967551104,-550,-1134,12266,1824043,-32986,212581,0,0,0,769,716,405,565,560,550,539,213,479,438,304,759,0,,
2,1778967551104,-3642,-41119,16927,-2883283,704938,442266,0,0,0,278,365,292,225,278,301,347,245,289,302,441,290,0,,
1,1778967551120,-1095,-1249,13467,2228436,-41538,224798,0,0,0,764,710,368,570,584,551,497,215,487,415,298,758,0,,
2,1778967551120,-5168,-46886,11950,-1128878,482583,256563,0,0,0,272,304,252,224,238,281,376,291,286,303,551,282,0,,
1,1778967551136,-1239,-1229,14194,2726902,20769,291993,0,0,0,766,711,357,579,589,554,446,203,498,392,277,748,0,,
2,1778967551136,-7599,-46159,13912,724486,-51312,428827,0,0,0,261,295,276,261,214,275,422,625,270,407,724,303,0,,
1,1778967551152,-1028,-1330,14606,3302337,83077,359188,0,0,0,766,720,354,574,571,542,395,195,495,355,248,732,0,,
2,1778967551152,-5106,-20526,18018,2999348,-1678657,665843,0,0,0,358,287,236,301,240,327,443,692,301,481,758,310,0,,
1,1778967551168,-961,-1579,15151,3903428,149051,395840,0,0,0,741,715,313,544,587,533,346,207,498,315,249,715,0,,
2,1778967551168,-1124,8576,17272,4018271,-2899166,463035,0,0,0,339,312,240,343,297,339,497,749,291,593,792,318,0,,
1,1778967551184,-1641,-1713,16946,4642575,189368,467922,0,0,0,716,690,290,523,604,538,305,208,524,303,248,696,0,,
2,1778967551184,-1469,6508,15596,3922976,-2370157,-28099,0,0,0,326,336,295,304,309,371,528,778,306,652,818,351,0,,
1,1778967551200,-2904,-2201,20100,5463578,279776,615752,0,0,0,692,651,304,498,569,500,290,181,512,284,244,647,0,,
2,1778967551200,-2440,-507,16233,3794694,-1086118,-348193,0,0,0,307,382,293,288,311,387,568,785,302,693,831,369,0,,
1,1778967551216,-4623,-2569,23991,6234490,543670,818559,0,0,0,626,589,262,475,503,471,288,168,473,253,195,608,0,,
2,1778967551216,-1713,-2187,17353,3408628,2443,-469144,0,0,0,317,372,333,303,316,388,623,804,279,730,845,354,0,,
1,1778967551232,-6058,-1742,27073,6976081,726929,1123992,0,0,0,527,443,308,359,350,434,277,152,449,223,181,523,0,,
2,1778967551232,650,-205,15716,2658485,268780,-491135,0,0,0,347,365,397,311,322,393,676,812,298,753,855,367,0,,
1,1778967551248,-6030,-655,29561,7588167,689055,1436755,0,0,0,396,351,278,247,226,325,307,198,382,203,275,379,0,,
2,1778967551248,1608,402,13227,1909564,238237,-361632,0,0,0,371,369,448,311,292,395,702,810,333,762,853,375,0,,
1,1778967551264,-6661,2234,30696,7937582,474031,1761735,0,0,0,415,308,289,240,186,310,347,196,362,262,362,405,0,,
2,1778967551264,1340,-392,11658,1258382,119729,-190589,0,0,0,375,375,475,304,249,369,708,815,337,773,848,332,0,,
1,1778967551280,-8327,9629,23732,7439116,593761,2084272,0,0,0,407,325,305,236,198,319,339,188,355,261,377,397,0,,
2,1778967551280,1268,-378,11275,717155,-30543,-74525,0,0,0,373,391,479,287,247,328,718,813,315,781,856,307,0,,
1,1778967551296,-9576,18233,15534,4735427,872315,2120924,0,0,0,405,333,322,273,213,317,382,188,342,276,391,423,0,,
2,1778967551296,875,469,10677,337197,-141720,-26878,0,0,0,365,382,467,290,243,316,713,808,286,770,862,323,0,,
1,1778967551312,-7666,19439,14850,153938,667064,1337794,0,0,0,421,319,305,256,188,306,380,192,342,314,407,449,0,,
2,1778967551312,674,952,10337,291993,-100181,-47647,0,0,0,357,393,450,303,259,335,707,806,299,767,856,320,0,,
1,1778967551328,-5307,12763,12342,-2434908,880867,158824,0,0,0,439,312,302,256,180,303,388,200,350,314,408,455,0,,
2,1778967551328,646,1081,10165,344527,-46425,-65973,0,0,0,393,418,460,296,245,344,697,789,270,778,854,344,0,,
1,1778967551344,-5891,8839,8155,-2601064,937067,-632856,0,0,0,460,309,306,260,185,309,368,212,348,298,402,438,0,,
2,1778967551344,617,995,10031,443488,-7330,-75747,0,0,0,410,425,485,323,282,352,727,782,260,782,858,373,0,,
1,1778967551360,-5522,9150,6422,-2505769,45204,-1248608,0,0,0,460,313,310,258,193,317,355,223,342,296,403,423,0,,
2,1778967551360,550,938,9944,516791,26878,-78190,0,0,0,375,417,541,282,287,371,712,765,298,763,850,381,0,,
1,1778967551376,-3517,9054,6925,-3147177,-507018,-1830152,0,0,0,442,323,320,253,197,317,372,226,338,295,408,416,0,,
2,1778967551376,617,875,9954,575435,73303,-81855,0,0,0,395,385,468,304,254,322,705,731,274,758,848,330,0,,
1,1778967551392,-2134,6929,7910,-4185648,-423940,-2334726,0,0,0,431,326,326,247,196,314,383,229,337,288,412,409,0,,
2,1778967551392,799,760,9920,620639,84299,-92851,0,0,0,375,415,491,308,282,378,683,711,311,715,837,331,0,,
1,1778967551408,-3115,4580,8164,-4739092,-393397,-2108706,0,0,0,431,322,315,247,206,318,384,234,339,290,417,399,0,,
2,1778967551408,918,626,9763,621860,8552,-102625,0,0,0,364,435,488,295,276,362,668,692,296,704,833,349,0,,
1,1778967551424,-3125,3163,9198,-5307197,-927293,-1213178,0,0,0,440,322,313,253,212,314,391,215,346,284,409,397,0,,
2,1778967551424,904,483,9590,596204,-97738,-113620,0,0,0,408,416,535,320,255,448,667,671,371,702,796,429,0,,
1,1778967551440,-1962,1952,10758,-5909510,-1331686,-395840,0,0,0,454,315,315,245,188,305,403,216,349,271,403,405,0,,
2,1778967551440,751,406,9538,557109,-188146,-124616,0,0,0,412,441,547,332,249,439,644,649,362,651,801,421,0,,
1,1778967551456,-947,703,12222,-6175847,-1458746,-19547,0,0,0,422,319,316,239,195,309,402,216,349,276,406,437,0,,
2,1778967551456,674,368,9624,538783,-224798,-124616,0,0,0,411,440,537,341,265,416,630,633,368,633,805,393,0,,
1,1778967551472,-52,-215,13740,-6252816,-1562593,39095,0,0,0,430,322,307,247,187,297,417,216,345,279,389,402,0,,
2,1778967551472,679,272,9705,533896,-246789,-123394,0,0,0,395,492,557,366,329,430,627,606,371,662,794,408,0,,
1,1778967551488,674,-746,15410,-6245486,-1593136,-329867,0,0,0,406,334,309,238,192,297,398,215,347,282,410,376,0,,
2,1778967551488,703,134,9791,532674,-263893,-128281,0,0,0,387,527,573,405,360,486,612,566,394,671,768,428,0,,
1,1778967551504,425,-957,16793,-6208834,-1606575,-879645,0,0,0,414,336,317,242,193,310,419,207,351,298,404,392,0,,
2,1778967551504,674,-9,9916,531452,-270002,-139277,0,0,0,413,546,575,419,381,519,599,512,423,653,741,434,0,,
1,1778967551520,-134,-1091,18726,-6168517,-1712866,-1331686,0,0,0,421,326,296,254,201,316,422,216,353,301,401,407,0,,
2,1778967551520,636,-67,10011,546113,-260228,-146607,0,0,0,469,593,586,409,422,514,592,418,432,606,695,438,0,,
1,1778967551536,-502,-1598,21406,-6239377,-1835039,-1431868,0,0,0,418,329,321,251,201,318,421,215,358,299,407,394,0,,
2,1778967551536,670,-47,10165,601091,-234572,-156381,0,0,0,507,628,589,422,458,525,595,307,446,550,628,459,0,,
1,1778967551552,153,-4292,24288,-6442184,-1789835,-1156978,0,0,0,420,334,337,253,199,321,433,221,353,287,412,385,0,,
2,1778967551552,899,19,10471,723264,-200363,-197920,0,0,0,504,641,573,442,533,548,625,272,478,560,603,523,0,,
1,1778967551568,1646,-10074,25982,-6481280,-1556484,-888198,0,0,0,412,337,337,254,201,317,443,209,348,321,391,388,0,,
2,1778967551568,1258,-47,10753,885754,-180816,-295658,0,0,0,583,661,568,452,603,561,582,242,480,500,565,568,0,,
1,1778967551584,3062,-17693,25541,-6085439,-1273043,-860098,0,0,0,401,337,328,256,206,314,439,200,343,333,360,396,0,,
2,1778967551584,1258,-301,11050,1039692,-180816,-419053,0,0,0,604,691,542,507,610,563,545,212,464,446,510,615,0,,
1,1778967551600,2890,-25360,23440,-5285206,-761138,-753807,0,0,0,410,336,310,264,203,320,443,219,344,295,349,395,0,,
2,1778967551600,851,-416,11820,1265712,-230907,-481361,0,0,0,658,709,483,504,629,587,541,208,470,492,432,622,0,,
1,1778967551616,1866,-31595,19679,-4320038,-251676,-439822,0,0,0,424,338,305,263,186,320,475,223,360,312,350,382,0,,
2,1778967551616,454,-492,12821,1627344,-316428,-470366,0,0,0,682,719,464,512,678,587,402,196,468,378,411,663,0,,
1,1778967551632,2345,-36530,14658,-2971248,-168598,-161268,0,0,0,416,331,299,253,181,302,460,237,353,332,379,376,0,,
2,1778967551632,335,-593,13692,2164906,-327423,-426383,0,0,0,686,721,394,487,671,602,474,181,445,394,424,699,0,,
1,1778967551648,4757,-39937,11696,-1265712,-219911,-268780,0,0,0,400,285,269,248,168,306,446,343,339,433,529,388,0,,
2,1778967551648,526,-583,14386,2729345,-284663,-410501,0,0,0,693,734,344,456,639,584,336,153,483,358,409,678,0,,
1,1778967551664,4063,-41373,12816,636521,248011,-423940,0,0,0,408,252,265,248,161,329,492,597,315,510,633,390,0,,
2,1778967551664,1052,-574,15233,3424510,-301767,-456927,0,0,0,699,715,318,471,657,563,299,148,490,342,400,657,0,,
1,1778967551680,416,-24187,15060,2866179,1188743,-86742,0,0,0,464,228,269,244,164,298,549,686,334,563,691,358,0,,
2,1778967551680,1823,-713,16831,4263839,-399505,-571769,0,0,0,695,715,308,515,636,514,287,156,463,341,376,620,0,,
1,1778967551696,-1981,-1962,15678,3859446,1794722,172263,0,0,0,411,237,248,228,174,288,572,740,356,575,748,391,0,,
2,1778967551696,2991,-708,19813,5249775,-593761,-783129,0,0,0,620,705,318,495,619,492,261,153,470,314,328,538,0,,
1,1778967551712,-1526,7547,15372,3819129,1770287,144164,0,0,0,425,238,276,245,164,297,575,752,371,604,772,373,0,,
2,1778967551712,5082,-1038,23838,6266255,-894306,-1114218,0,0,0,549,647,334,457,559,500,218,148,496,256,265,450,0,,
1,1778967551728,875,976,16391,3633426,867428,-12217,0,0,0,425,232,275,288,155,319,655,771,367,681,792,390,0,,
2,1778967551728,6680,-1139,27025,7101919,-1104444,-1491732,0,0,0,451,553,290,351,450,412,193,173,394,255,327,381,0,,
1,1778967551744,1292,-2483,17449,3231477,-17104,86742,0,0,0,406,267,311,274,169,320,706,798,402,731,803,382,0,,
2,1778967551744,5747,311,29925,7811744,-970053,-1875356,0,0,0,329,408,238,234,276,320,223,180,286,246,352,313,0,,
1,1778967551760,-1076,-1478,17023,2447126,-412944,270002,0,0,0,405,303,372,292,181,336,730,807,405,759,801,356,0,,
2,1778967551760,5699,2684,31729,8002334,-860098,-2012190,0,0,0,277,326,251,233,191,301,305,170,282,260,317,298,0,,
1,1778967551776,-2555,-526,14903,1645670,-300545,175929,0,0,0,426,348,413,316,191,342,753,811,381,774,802,371,0,,
2,1778967551776,8992,9217,25001,7307169,-994488,-2079385,0,0,0,282,325,285,250,217,293,332,173,283,282,327,286,0,,
1,1778967551792,-1832,-574,12567,1111774,-183259,12217,0,0,0,449,366,449,319,207,348,774,818,379,777,808,387,0,,
2,1778967551792,11165,19497,17477,4923573,-1081231,-1832595,0,0,0,278,317,295,226,224,280,306,173,275,250,330,253,0,,
1,1778967551808,-1354,-402,11251,780685,-190589,-34208,0,0,0,468,360,486,310,220,375,771,815,399,772,810,392,0,,
2,1778967551808,7958,22268,15032,833220,-1197295,-248011,0,0,0,274,304,279,240,210,263,326,167,282,249,324,267,0,,
1,1778967551824,-1464,138,10806,575435,-205250,-9773,0,0,0,483,380,493,315,216,392,762,807,417,764,802,410,0,,
2,1778967551824,7776,16716,9925,-1441641,-1588249,1720196,0,0,0,303,292,266,269,215,273,341,168,271,286,336,259,0,,
1,1778967551840,-1536,579,10681,502131,-185703,0,0,0,0,490,386,505,367,232,408,766,799,415,759,790,412,0,,
2,1778967551840,10509,12136,4580,-1382998,-812450,2704911,0,0,0,291,303,305,281,225,298,349,184,257,339,333,259,0,,
1,1778967551856,-1474,722,10528,579100,-163711,0,0,0,0,489,374,535,401,284,436,741,777,399,755,784,448,0,,
2,1778967551856,6628,12902,5096,-1728748,689055,2662150,0,0,0,288,316,335,260,206,278,345,203,247,318,342,254,0,,
1,1778967551872,-1483,569,10265,686612,-122173,2443,0,0,0,516,356,530,366,250,431,727,756,393,731,774,454,0,,
2,1778967551872,2187,12242,7011,-2982244,730594,2452013,0,0,0,315,307,344,258,196,280,343,209,249,311,345,279,0,,
1,1778967551888,-1541,411,10083,733038,-47647,15882,0,0,0,483,378,551,342,246,402,719,731,412,740,747,458,0,,
2,1778967551888,2115,9083,7164,-4076914,364075,1837482,0,0,0,276,308,334,227,190,277,343,215,265,289,341,287,0,,
1,1778967551904,-1526,296,9987,718377,43982,31764,0,0,0,516,429,520,359,269,418,711,697,481,724,725,452,0,,
2,1778967551904,1483,6207,7810,-4850269,504574,835663,0,0,0,255,321,310,219,197,263,359,224,266,250,350,259,0,,
1,1778967551920,-1387,196,9873,682947,112399,48869,0,0,0,514,420,546,375,268,442,709,663,475,716,704,518,0,,
2,1778967551920,-679,4412,9389,-5340183,725707,-213802,0,0,0,283,324,323,246,212,292,331,224,264,255,358,270,0,,
1,1778967551936,-1210,100,9786,647517,112399,57421,0,0,0,521,433,557,391,289,428,667,618,493,715,702,481,0,,
2,1778967551936,-2258,3656,10882,-5649281,692721,-728151,0,0,0,283,314,320,247,217,297,336,231,266,265,363,296,0,,
1,1778967551952,-1158,23,9753,621860,90408,47647,0,0,0,546,472,590,404,332,441,687,609,480,718,681,508,0,,
2,1778967551952,-3072,3244,12634,-5889962,741590,-786794,0,0,0,262,325,322,238,218,289,339,234,262,269,368,294,0,,
1,1778967551968,-1239,-67,9734,598647,89186,35430,0,0,0,537,495,609,436,327,499,686,584,489,711,652,539,0,,
2,1778967551968,-2847,2665,14467,-6078109,834441,-343306,0,0,0,262,326,315,236,218,280,342,229,253,275,366,271,0,,
1,1778967551984,-1320,-239,9772,570548,113620,35430,0,0,0,565,500,619,446,321,510,680,524,506,691,621,565,0,,
2,1778967551984,-2110,1828,16080,-6251594,910189,235793,0,0,0,281,327,308,244,221,279,363,232,254,281,362,255,0,,
1,1778967552000,-1320,-406,9916,537561,136833,53756,0,0,0,607,527,629,461,355,499,671,469,511,654,587,587,0,,
2,1778967552000,-1086,1081,17717,-6365215,984714,877202,0,0,0,286,329,310,235,212,273,382,236,265,289,365,267,0,,
