sole_id,timestamp,accel_x,accel_y,accel_z,gyro_x,gyro_y,gyro_z,magn_x,magn_y,magn_z,pressure_01,pressure_02,pressure_03,pressure_04,pressure_05,pressure_06,pressure_07,pressure_08,pressure_09,pressure_10,pressure_11,pressure_12,corrupt,brick
1,1786460761920,-344,-1215,11605,1167974,470366,398284,0,0,0,572,588,318,393,437,359,438,186,308,370,264,531,0,
2,1786460761920,2569,-35089,21014,-5257106,169820,-1297477,0,0,0,289,236,218,224,155,207,270,186,197,226,251,150,0,
1,1786460761936,0,-1311,11854,1397659,452040,411723,0,0,0,575,592,294,401,435,363,429,184,316,370,255,536,0,
2,1786460761936,-4350,-40779,15424,-3071430,1081231,-553443,0,0,0,287,241,221,225,160,213,272,188,202,230,255,157,0,
1,1786460761952,19,-1330,12467,1704314,415388,411723,0,0,0,576,588,296,396,437,376,413,185,327,370,250,541,0,
2,1786460761952,-10844,-43526,12371,-1095892,1100779,943175,0,0,0,274,231,212,216,158,204,282,219,196,225,266,152,0,
1,1786460761968,105,-1320,13189,2064724,432492,410501,0,0,0,591,591,288,398,422,358,402,193,311,350,239,554,0,
2,1786460761968,-6771,-43225,11643,488692,285884,2047620,0,0,0,260,214,199,209,151,196,303,291,190,232,330,146,0,
1,1786460761984,167,-1493,13639,2568077,482583,400727,0,0,0,575,575,272,388,413,357,397,188,311,326,230,534,0,
2,1786460761984,-492,-25833,15333,2141693,-529009,2067167,0,0,0,265,211,174,232,163,194,323,374,178,271,443,142,0,
1,1786460762000,23,-1631,14094,3068986,497244,394618,0,0,0,567,567,243,381,429,339,374,197,289,323,228,512,0,
2,1786460762000,330,5934,15946,3325550,-1629788,1209513,0,0,0,269,200,138,250,167,175,344,458,147,309,520,124,0,
1,1786460762016,-559,-1785,15080,3657861,502131,438601,0,0,0,548,539,226,401,412,337,338,186,288,300,195,487,0,
2,1786460762016,-3024,10083,12548,4146553,-2383596,134390,0,0,0,266,199,157,246,167,198,344,548,154,317,563,139,0,
1,1786460762032,-1124,-1876,17386,4364021,660956,571769,0,0,0,523,513,218,399,414,328,334,187,281,289,189,456,0,
2,1786460762032,-3728,406,13960,4618141,-1853365,-503352,0,0,0,274,209,216,246,158,235,366,593,193,367,643,160,0,
1,1786460762048,-2837,-2163,20153,5176472,1011592,755029,0,0,0,483,480,225,369,388,322,318,203,283,273,186,426,0,
2,1786460762048,-1062,-4589,19904,4338364,-476474,-613308,0,0,0,303,215,269,265,157,239,456,629,201,434,669,166,0,
1,1786460762064,-5675,-2881,23230,6108652,1562593,1106887,0,0,0,439,431,224,353,355,313,310,200,284,278,179,407,0,
2,1786460762064,1292,-2072,21210,3281568,-63529,-487470,0,0,0,316,220,246,316,166,233,484,632,183,440,681,142,0,
1,1786460762080,-6293,-2986,25517,6863681,1843591,1583362,0,0,0,403,387,213,315,309,289,316,199,274,271,194,377,0,x
2,1786460762080,1344,-1028,17865,2153910,-128281,-271224,0,0,0,295,218,241,284,158,237,484,602,158,450,671,139,0,x
1,1786460762096,-5967,-1919,28810,7490429,1518610,1980425,0,0,0,341,343,222,247,259,251,332,222,272,255,243,342,0,
2,1786460762096,-191,-569,11801,1126435,-40317,-80634,0,0,0,317,237,245,295,165,240,547,582,157,472,665,149,0,
1,1786460762112,-7207,842,32093,7794640,1489289,2315179,0,0,0,293,303,245,214,224,236,348,241,278,254,280,322,0,
2,1786460762112,397,0,10179,858876,300545,-81855,0,0,0,308,235,275,280,165,245,531,574,177,460,657,168,0,
1,1786460762128,-9748,7159,23847,6774495,3312111,2324953,0,0,0,301,286,254,226,205,248,350,234,278,263,276,318,0,
2,1786460762128,1273,268,10193,728151,350636,-54977,0,0,0,302,261,268,280,192,239,512,565,186,451,631,181,0,
1,1786460762144,-12400,11562,15707,3938859,4327369,1275486,0,0,0,309,282,257,221,199,251,345,230,287,267,277,325,0,
2,1786460762144,1244,315,10366,626747,151494,-20769,0,0,0,302,291,256,291,224,244,502,550,162,443,599,185,0,
1,1786460762160,-10701,11304,14075,-7330,2221106,-1170417,0,0,0,309,283,266,215,203,262,344,234,315,260,282,332,0,
2,1786460762160,928,402,10294,581543,25656,-23212,0,0,0,303,301,256,287,235,248,516,498,174,452,559,182,0,
1,1786460762176,-7035,8628,12462,-2069611,905302,-3252246,0,0,0,312,271,270,216,185,256,350,234,299,268,280,332,0,
2,1786460762176,622,483,10088,610865,39095,-46425,0,0,0,294,291,242,284,232,254,517,446,196,444,524,182,0,
1,1786460762192,-5843,6097,8858,-2217440,1039692,-4469090,0,0,0,310,279,266,214,192,254,341,250,301,264,296,324,0,
2,1786460762192,588,440,9949,658512,141720,-50090,0,0,0,294,283,234,299,239,257,510,411,197,414,491,184,0,
1,1786460762208,-6968,6355,6365,-2073276,833220,-4339586,0,0,0,308,278,264,215,191,253,343,250,314,258,292,317,0,
2,1786460762208,708,402,9877,685390,227241,-46425,0,0,0,299,290,240,314,252,261,503,390,188,381,461,182,0,
1,1786460762224,-4709,6972,6618,-2839301,-114842,-3681073,0,0,0,315,284,272,217,190,241,344,251,281,261,287,306,0,
2,1786460762224,914,368,9863,702495,244346,-56199,0,0,0,303,299,249,312,253,271,492,373,197,365,442,186,0,
1,1786460762240,-2483,6633,7355,-3795916,-403171,-3005456,0,0,0,308,275,263,218,191,243,349,249,279,285,272,303,0,
2,1786460762240,1124,220,9806,702495,166155,-80634,0,0,0,304,296,253,308,249,287,481,349,216,360,428,195,0,
1,1786460762256,-2234,5273,7657,-4667010,-277332,-2168571,0,0,0,310,271,259,224,196,247,353,250,279,273,280,310,0,
2,1786460762256,1234,-14,9609,659734,35430,-101403,0,0,0,299,295,271,310,250,305,448,321,226,343,413,200,0,
1,1786460762272,-2402,3383,7906,-5318192,-519235,-1045801,0,0,0,318,272,265,229,198,254,359,253,273,269,287,313,0,
2,1786460762272,1110,-268,9361,537561,-101403,-114842,0,0,0,303,304,300,300,244,303,411,301,242,338,404,209,0,
1,1786460762288,-1593,2062,8935,-5715255,-875980,-168598,0,0,0,316,273,267,229,196,255,366,251,273,279,286,312,0,
2,1786460762288,933,-406,9279,401949,-169820,-118507,0,0,0,300,308,275,306,251,304,458,329,230,348,405,213,0,
1,1786460762304,-1043,1416,10538,-5954714,-982271,48869,0,0,0,314,274,267,228,196,254,370,249,275,282,285,313,0,
2,1786460762304,832,-425,9341,278554,-182037,-114842,0,0,0,303,321,296,314,258,317,456,327,233,357,399,235,0,
1,1786460762320,-1488,655,11959,-6173404,-1029918,-119729,0,0,0,312,279,267,228,196,254,370,252,276,280,286,314,0,
2,1786460762320,861,-344,9485,207694,-189368,-111177,0,0,0,311,337,304,312,263,318,462,319,244,359,393,232,0,
1,1786460762336,-2536,-569,13156,-6311459,-1210734,-553443,0,0,0,311,281,267,229,198,255,374,255,277,281,287,311,0,
2,1786460762336,985,-287,9700,200363,-216246,-123394,0,0,0,320,331,290,315,265,310,446,295,233,334,392,228,0,
1,1786460762352,-3086,-1718,14228,-6241821,-1501506,-1006705,0,0,0,311,279,266,230,199,256,379,256,279,280,286,307,0,
2,1786460762352,1148,-272,9930,245567,-254119,-166155,0,0,0,299,324,258,330,297,326,437,250,238,340,360,253,0,
1,1786460762368,-3115,-2072,15864,-6072000,-1715309,-1468520,0,0,0,306,282,268,229,197,259,376,254,287,283,289,305,0,
2,1786460762368,1143,-320,10031,312763,-288328,-233350,0,0,0,330,346,267,344,277,337,442,241,234,321,346,232,0,
1,1786460762384,-3378,-2033,18324,-6029239,-1860695,-1879021,0,0,0,302,285,267,231,200,262,378,251,288,283,291,300,0,
2,1786460762384,976,-368,10059,382401,-306654,-285884,0,0,0,338,388,284,378,316,376,464,209,243,359,341,252,0,
1,1786460762400,-3508,-2617,21588,-6188064,-2053728,-1888795,0,0,0,298,282,259,237,203,264,372,251,285,282,289,297,0,
2,1786460762400,957,-387,10232,471587,-315206,-317649,0,0,0,365,388,285,390,309,387,448,190,253,330,312,265,0,
1,1786460762416,-2364,-4680,24867,-6360328,-2199114,-1589471,0,0,0,296,282,265,242,209,266,322,239,288,280,280,297,0,
2,1786460762416,1115,-392,10605,642630,-343306,-357967,0,0,0,384,396,274,409,328,398,415,179,255,307,275,286,0,
1,1786460762432,148,-9255,26819,-6404311,-2097711,-1205847,0,0,0,300,295,264,241,202,258,385,246,299,284,278,289,0,
2,1786460762432,1416,-507,10978,877202,-353080,-436157,0,0,0,403,413,292,407,357,407,417,174,277,300,245,329,0,
1,1786460762448,3244,-16989,26484,-6042678,-1890017,-907745,0,0,0,299,291,266,246,202,288,394,246,320,284,279,306,0,
2,1786460762448,1311,-670,11873,1185078,-299323,-547335,0,0,0,446,419,297,409,375,408,392,176,270,295,249,340,0,
1,1786460762464,5613,-24943,25101,-5380501,-1404990,-502131,0,0,0,306,291,256,254,205,280,401,245,309,285,279,302,0,
2,1786460762464,737,-679,13247,1645670,-232128,-608421,0,0,0,473,412,260,424,386,413,364,166,264,309,256,339,0,
1,1786460762480,4379,-33562,20291,-4291939,-243124,94073,0,0,0,309,288,256,258,205,280,409,234,305,292,272,303,0,
2,1786460762480,148,-612,14462,2282192,-195476,-569326,0,0,0,466,416,222,424,406,428,329,168,282,304,247,368,0,
1,1786460762496,1761,-40799,13625,-2828306,54977,603534,0,0,0,316,286,258,261,201,279,420,228,310,310,277,306,0,
2,1786460762496,76,-603,15041,2922379,-190589,-489913,0,0,0,459,431,223,402,411,417,261,180,269,277,255,389,0,
1,1786460762512,1832,-44814,9212,-1132544,-48869,742812,0,0,0,299,276,254,249,193,270,425,266,301,316,342,287,0,
2,1786460762512,545,-670,15544,3714060,-173485,-431270,0,0,0,454,424,227,393,392,379,215,155,238,263,250,365,0,
1,1786460762528,1923,-41234,8992,866206,-87964,245567,0,0,0,280,253,220,229,179,249,444,371,290,328,430,260,0,
2,1786460762528,1493,-746,16625,4564385,-112399,-485026,0,0,0,437,407,217,395,384,371,171,133,233,222,211,326,0,
1,1786460762544,1325,-19372,15931,2667037,894306,-489913,0,0,0,276,232,189,222,163,241,473,474,288,370,493,247,0,
2,1786460762544,3522,-871,19377,5660277,-122173,-726929,0,0,0,394,393,221,388,351,374,144,111,244,204,192,300,0,
1,1786460762560,1119,4848,16740,3775147,2618168,-957836,0,0,0,280,222,191,233,155,252,497,525,287,431,530,238,0,
2,1786460762560,6302,-1636,22895,6758613,-252898,-1148426,0,0,0,340,363,209,356,350,346,146,122,206,198,174,236,0,
1,1786460762576,2569,9035,14577,4124562,3543018,-821002,0,0,0,290,221,217,250,154,257,519,548,291,491,561,222,0,
2,1786460762576,7992,-2450,28006,7804414,-405614,-1716531,0,0,0,309,311,188,326,307,288,164,126,192,192,176,194,0,
1,1786460762592,3364,-550,18329,3875329,2557081,-349414,0,0,0,305,238,281,267,164,273,535,539,302,549,583,220,0,
2,1786460762592,7494,-789,32754,8533787,35430,-2161241,0,0,0,272,277,178,257,227,221,222,150,169,200,196,167,0,
1,1786460762608,2029,-4259,21990,2934596,1226617,-45204,0,0,0,305,268,342,262,183,279,588,578,305,573,603,235,0,
2,1786460762608,5762,2096,36903,8828224,583987,-2474004,0,0,0,263,203,192,198,138,179,232,170,167,203,223,162,0,
1,1786460762624,464,-1775,18994,1853365,759916,-59864,0,0,0,323,286,379,266,189,299,608,572,337,612,618,274,0,
2,1786460762624,8131,11849,28020,7867944,466701,-2634050,0,0,0,266,225,189,225,171,176,244,175,170,205,222,148,0,
1,1786460762640,670,215,13271,1263269,631634,-114842,0,0,0,328,283,436,278,200,314,617,572,335,613,615,304,0,
2,1786460762640,9207,24134,17200,5100724,118507,-2395813,0,0,0,263,216,191,196,148,172,252,180,163,204,222,151,0,
1,1786460762656,717,339,10825,954171,321315,-51312,0,0,0,351,308,440,284,216,308,629,573,317,619,631,309,0,
2,1786460762656,5599,27772,14635,684169,-774577,-882089,0,0,0,253,201,186,181,133,164,268,185,170,198,218,152,0,
1,1786460762672,62,-134,11227,722042,0,8552,0,0,0,346,328,448,293,231,313,641,556,331,613,639,312,0,
2,1786460762672,5719,18473,11227,-2013411,-2095267,1313360,0,0,0,280,213,197,209,141,171,271,179,165,223,228,157,0,
1,1786460762688,-330,320,11184,555887,-107512,-10995,0,0,0,361,348,461,304,244,316,643,522,332,604,633,318,0,
2,1786460762688,8939,12170,5963,-2266310,-1742187,2196671,0,0,0,279,218,201,202,146,180,252,180,169,214,229,160,0,
1,1786460762704,-277,871,10863,579100,-129503,-30543,0,0,0,374,352,479,313,247,321,636,499,334,585,616,332,0,
2,1786460762704,7418,11993,4613,-2370157,36651,2017077,0,0,0,280,219,214,200,143,186,247,180,171,211,230,161,0,
1,1786460762720,-119,818,10672,744033,-175929,-20769,0,0,0,383,357,483,321,252,322,625,473,325,576,595,352,0,
2,1786460762720,2335,11318,7580,-3699399,306654,1887573,0,0,0,282,216,213,201,139,184,245,178,174,208,228,164,0,
1,1786460762736,-81,569,10495,851546,-251676,-8552,0,0,0,387,364,473,322,257,324,622,448,331,552,563,360,0,
2,1786460762736,1474,8193,9026,-4890587,-252898,1711644,0,0,0,278,210,213,199,137,184,245,178,176,207,228,166,0,
1,1786460762752,-191,411,10385,879645,-324980,1221,0,0,0,392,373,467,324,261,327,616,417,349,520,530,363,0,
2,1786460762752,2727,4881,9466,-5580864,-427605,1123992,0,0,0,278,209,212,201,135,182,252,180,172,214,227,160,0,
1,1786460762768,-301,435,10337,889419,-349414,9773,0,0,0,405,394,454,345,289,335,602,382,351,499,497,376,0,
2,1786460762768,2139,2574,10930,-6018244,-125838,114842,0,0,0,284,216,209,213,140,181,269,188,169,225,238,156,0,
1,1786460762784,-378,358,10189,926071,-334754,19547,0,0,0,417,407,426,354,304,342,579,349,350,479,459,390,0,
2,1786460762784,1110,1541,12682,-6271142,-18325,-516791,0,0,0,288,219,210,220,143,184,275,190,171,232,247,163,0,
1,1786460762800,-507,148,10016,945619,-312763,39095,0,0,0,422,403,409,336,293,334,557,315,356,458,431,398,0,
2,1786460762800,1244,1186,14362,-6440963,57421,-453262,0,0,0,288,216,215,215,139,188,265,180,174,237,237,168,0,
1,1786460762816,-703,-138,9877,929736,-255341,78190,0,0,0,422,406,409,339,315,336,549,288,352,450,407,406,0,
2,1786460762816,1871,636,16104,-6614448,255341,19547,0,0,0,291,217,218,218,142,193,270,182,175,241,227,162,0,
1,1786460762832,-732,-344,9772,867428,-124616,129503,0,0,0,422,409,423,351,316,347,545,279,354,438,375,414,0,
2,1786460762832,3005,-315,17463,-6756169,527787,796568,0,0,0,291,216,221,217,138,193,278,189,177,226,232,161,0,
1,1786460762848,-579,-488,9691,779464,-1221,167377,0,0,0,429,415,424,360,315,355,546,252,351,440,358,430,0,
2,1786460762848,4326,-1081,18760,-6769608,874759,1533271,0,0,0,297,220,218,226,141,194,280,176,176,230,234,162,0,
1,1786460762864,-473,-583,9724,692721,46425,179594,0,0,0,435,419,397,367,337,352,560,249,359,419,363,434,0,
2,1786460762864,5259,-1976,20775,-6715852,1226617,1976759,0,0,0,296,219,217,217,140,189,274,177,175,228,236,158,0,
1,1786460762880,-473,-646,9887,648738,63529,189368,0,0,0,460,449,403,383,323,368,556,226,360,419,330,444,0,
2,1786460762880,5211,-4154,23527,-6640105,1530828,1973094,0,0,0,288,218,221,211,136,190,258,173,173,220,229,158,0,
1,1786460762896,-488,-689,10102,658512,81855,206472,0,0,0,471,456,411,376,338,376,537,225,382,412,322,465,0,
2,1786460762896,4039,-8743,26202,-6626666,1646892,1696983,0,0,0,288,222,221,209,140,193,253,171,174,212,226,176,0,
1,1786460762912,-492,-746,10361,713490,101403,226020,0,0,0,481,463,392,388,341,387,543,225,384,397,304,473,0,
2,1786460762912,2852,-14491,27810,-6585127,1623679,1557706,0,0,0,298,222,238,228,145,214,265,163,186,232,227,191,0,
1,1786460762928,-598,-813,10772,831998,113620,263893,0,0,0,487,472,362,390,353,370,536,213,377,386,286,495,0,
2,1786460762928,2148,-22876,27700,-6240599,1441641,1524719,0,0,0,307,224,220,239,147,204,294,163,179,243,227,176,0,
1,1786460762944,-622,-928,11036,1021366,98960,321315,0,0,0,500,481,348,395,359,372,533,212,379,369,261,502,0,
2,1786460762944,1584,-33108,23814,-5163032,1233947,1178969,0,0,0,294,222,215,232,154,214,272,166,177,231,230,166,0,
1,1786460762960,-311,-1139,10940,1226617,30543,367740,0,0,0,506,487,323,424,388,396,533,200,382,358,239,526,0,
2,1786460762960,-397,-41545,17592,-3534466,1032362,637743,0,0,0,290,220,218,221,150,213,266,167,185,225,230,171,0,
1,1786460762976,191,-1282,11093,1433089,-138055,340862,0,0,0,520,479,273,447,405,390,517,184,372,363,223,545,0,
2,1786460762976,-2498,-46513,11696,-1638340,679282,442266,0,0,0,298,224,221,229,149,212,279,170,184,233,233,172,0,
1,1786460762992,-38,-1368,12055,1666440,-287106,294437,0,0,0,536,479,229,440,413,384,508,181,360,359,211,559,0,
2,1786460762992,-3096,-47451,9083,54977,398284,813672,0,0,0,291,214,212,231,151,200,294,253,177,228,296,154,0,
1,1786460763008,-349,-1383,13390,2036624,-298102,293215,0,0,0,554,480,210,423,420,391,486,180,359,345,200,562,0,
2,1786460763008,-2541,-38415,12624,1866804,239459,1583362,0,0,0,280,192,185,235,153,191,322,353,163,248,412,140,0,
1,1786460763024,-382,-1416,14606,2619390,-219911,299323,0,0,0,570,473,206,427,420,398,437,177,354,326,190,545,0,
2,1786460763024,-3038,-6546,17879,3679852,-896750,2090380,0,0,0,276,192,163,242,164,190,341,446,150,293,508,138,0,
1,1786460763040,-631,-1536,15147,3242472,-162490,312763,0,0,0,561,483,202,438,414,410,404,181,339,303,186,533,0,
2,1786460763040,-6015,13309,16252,4680449,-2361605,1522276,0,0,0,280,217,175,245,173,197,359,546,151,326,576,141,0,
1,1786460763056,-885,-1536,16190,3969402,-117286,379958,0,0,0,534,488,202,421,402,410,370,178,347,293,187,527,0,
2,1786460763056,-7432,4063,15908,5028642,-2536312,-83077,0,0,0,300,225,214,259,163,211,412,598,157,373,635,137,0,
1,1786460763072,-1340,-1430,18296,4813618,-50090,472809,0,0,0,505,459,199,418,404,397,328,181,350,267,170,487,0,
2,1786460763072,-2388,-4704,21871,4223522,-1251052,-799011,0,0,0,317,219,241,274,154,211,459,601,159,433,650,127,0,
1,1786460763088,-3359,-1742,21359,5801998,37873,626747,0,0,0,422,461,204,404,428,402,307,200,380,250,184,427,0,
2,1786460763088,1971,-4666,22976,2850297,-381179,-689055,0,0,0,315,233,254,263,153,230,466,584,174,434,652,143,0,
1,1786460763104,-6518,-2196,25407,7026171,-57421,1029918,0,0,0,385,405,220,376,367,391,306,196,380,242,173,394,0,
2,1786460763104,1407,-1038,16415,1698205,-302989,-223576,0,0,0,320,251,267,266,174,241,467,587,168,447,661,148,0,
1,1786460763120,-6800,-1722,30289,8124507,-373849,1547932,0,0,0,345,359,213,317,300,328,322,186,357,250,177,381,0,
2,1786460763120,-291,574,10504,995710,-199142,-15882,0,0,0,317,259,253,290,182,239,472,606,144,443,649,142,0,
1,1786460763136,-6077,555,34792,8791572,-868650,1938886,0,0,0,290,268,230,238,201,271,349,213,324,256,234,343,0,
2,1786460763136,-177,86,9518,717155,42760,-43982,0,0,0,317,277,263,282,188,246,482,606,154,451,640,162,0,
1,1786460763152,-6781,5460,34323,8935736,-1324355,2357939,0,0,0,282,268,239,234,201,267,362,226,321,268,257,329,0,
2,1786460763152,684,0,10222,494800,54977,-41538,0,0,0,318,295,273,275,195,253,493,606,164,459,632,183,0,
1,1786460763168,-8446,15247,21722,7881383,-1127657,2868623,0,0,0,298,272,244,239,196,263,375,220,313,276,249,330,0,
2,1786460763168,765,507,10519,364075,-68416,-29321,0,0,0,322,295,272,278,200,245,511,581,166,431,613,175,0,
1,1786460763184,-8399,21287,12170,4163657,-463035,2695137,0,0,0,299,256,238,240,193,256,371,221,294,272,244,325,0,
2,1786460763184,349,952,10471,417831,-128281,-47647,0,0,0,336,294,263,302,201,244,525,537,177,456,592,181,0,
1,1786460763200,-5388,17080,12931,-1455080,207694,1014036,0,0,0,300,255,239,231,198,252,368,234,288,267,253,324,0,
2,1786460763200,148,813,10299,532674,-52534,-65973,0,0,0,320,294,261,286,202,241,505,506,184,430,580,180,0,
1,1786460763216,-4814,9853,11055,-3540574,930958,-417831,0,0,0,304,264,245,227,197,252,370,238,293,272,261,328,0,
2,1786460763216,57,641,10141,605978,59864,-67195,0,0,0,321,298,261,279,198,238,481,463,186,413,563,185,0,
1,1786460763232,-6546,6791,6350,-2917492,759916,-996932,0,0,0,306,264,248,231,191,255,373,235,298,277,264,331,0,
2,1786460763232,110,684,10098,651182,163711,-62308,0,0,0,320,301,255,278,198,240,466,437,179,390,538,186,0,
1,1786460763248,-4848,8217,5096,-2860071,-602313,-1231504,0,0,0,309,264,250,230,186,257,372,233,298,275,264,330,0,
2,1786460763248,215,722,10074,712268,235793,-63529,0,0,0,312,318,253,285,219,250,447,405,182,357,496,187,0,
1,1786460763264,-1325,8528,6791,-3813020,-1268156,-1704314,0,0,0,306,267,252,231,189,263,366,224,299,272,266,325,0,
2,1786460763264,416,564,9983,761138,248011,-75747,0,0,0,310,314,255,307,226,266,460,372,188,347,474,197,0,
1,1786460763280,-397,6934,8667,-4905247,-941954,-2091602,0,0,0,306,267,249,230,189,264,368,228,305,274,270,328,0,
2,1786460763280,598,272,9710,731816,174707,-92851,0,0,0,309,312,259,309,228,273,461,360,193,337,460,203,0,
1,1786460763296,-1316,4704,9327,-5595525,-970053,-1813048,0,0,0,306,271,255,229,191,266,367,232,308,268,264,327,0,
2,1786460763296,641,0,9389,640186,58643,-112399,0,0,0,307,319,258,303,234,274,444,352,200,326,435,206,0,
1,1786460763312,-540,2627,10165,-5997474,-1370781,-1088561,0,0,0,307,270,256,218,182,258,362,234,306,265,261,322,0,
2,1786460763312,564,-134,9274,522900,-37873,-120951,0,0,0,306,312,256,306,240,285,442,336,214,331,409,222,0,
1,1786460763328,1014,1631,11691,-6064670,-1503950,-428827,0,0,0,307,265,252,238,195,272,378,234,315,275,261,327,0,
2,1786460763328,521,-143,9394,434936,-101403,-129503,0,0,0,307,308,270,304,247,301,442,313,231,335,389,233,0,
1,1786460763344,2124,1363,13505,-6181956,-1550375,-75747,0,0,0,299,263,250,232,195,269,381,232,306,273,260,320,0,
2,1786460763344,502,-153,9542,387288,-140499,-145385,0,0,0,322,322,276,322,241,301,439,287,215,335,375,219,0,
1,1786460763360,3177,1186,15247,-6414085,-1598023,-98960,0,0,0,298,264,254,234,194,272,385,232,312,273,260,321,0,
2,1786460763360,536,-201,9686,367740,-174707,-167377,0,0,0,318,314,268,321,259,307,432,272,236,329,373,232,0,
1,1786460763376,3852,445,16568,-6560692,-1529606,-434936,0,0,0,299,270,256,235,197,275,386,237,318,279,265,315,0,
2,1786460763376,540,-248,9801,375071,-213802,-190589,0,0,0,334,325,275,335,266,339,438,230,241,346,352,240,0,
1,1786460763392,3149,-502,18181,-6442184,-1288925,-1025031,0,0,0,295,269,248,237,203,271,385,237,320,281,269,306,0,
2,1786460763392,545,-253,9925,406836,-252898,-213802,0,0,0,375,337,294,367,277,352,431,214,250,338,328,254,0,
1,1786460763408,1569,-1100,20325,-6320011,-1174082,-1389107,0,0,0,293,274,245,239,202,270,385,232,320,279,264,306,0,
2,1786460763408,574,-234,10064,465479,-280998,-243124,0,0,0,353,353,310,363,325,358,424,202,245,321,310,259,0,
1,1786460763424,526,-2904,23158,-6385985,-1262047,-1119105,0,0,0,294,281,247,241,201,270,390,225,316,282,261,305,0,
2,1786460763424,607,-258,10299,561996,-283441,-283441,0,0,0,366,388,294,373,320,382,439,190,250,313,276,261,0,
1,1786460763440,1225,-6752,25891,-6536258,-1277930,-354301,0,0,0,298,284,254,246,201,278,395,223,318,289,262,316,0,
2,1786460763440,693,-325,10705,714712,-257785,-340862,0,0,0,364,374,295,391,347,417,401,169,239,312,262,285,0,
1,1786460763456,2938,-12830,27307,-6575353,-1036027,368962,0,0,0,303,284,258,253,203,284,397,224,320,295,262,321,0,
2,1786460763456,574,-373,11495,967610,-215024,-408057,0,0,0,382,410,276,403,372,412,391,168,249,307,255,311,0,
1,1786460763472,2971,-21229,26010,-6180734,-605978,524122,0,0,0,305,282,251,259,206,280,404,223,312,297,264,304,0,
2,1786460763472,239,-411,12409,1330464,-178372,-438601,0,0,0,431,424,265,414,391,400,385,167,261,314,253,327,0,
1,1786460763488,1263,-30787,22062,-5224119,-147829,448375,0,0,0,304,281,251,263,206,284,420,225,314,301,269,310,0,
2,1786460763488,-14,-507,13170,1771509,-134390,-417831,0,0,0,434,427,256,410,387,410,365,163,280,303,259,355,0,
1,1786460763504,301,-39305,15362,-3552792,-196698,318871,0,0,0,303,284,251,259,207,287,422,226,321,297,269,313,0,
2,1786460763504,95,-617,14170,2346944,-69638,-382401,0,0,0,446,427,242,403,372,429,306,147,277,283,263,388,0,
1,1786460763520,4379,-44077,10878,-1620014,-689055,36651,0,0,0,297,269,237,260,192,281,425,249,319,315,307,301,0,
2,1786460763520,612,-684,15257,3004235,-41538,-387288,0,0,0,438,424,228,392,376,434,242,140,269,259,259,390,0,
1,1786460763536,6312,-44838,10002,134390,-316428,-504574,0,0,0,287,244,213,244,174,262,466,365,305,334,430,272,0,
2,1786460763536,1641,-703,16592,3885102,-85521,-487470,0,0,0,424,418,215,368,389,410,208,133,263,248,257,357,0,
1,1786460763552,2727,-31447,13979,2315179,1447750,-886976,0,0,0,287,231,196,237,158,254,500,476,282,398,483,249,0,
2,1786460763552,3149,-492,19081,5061629,-227241,-746477,0,0,0,417,400,224,357,386,381,175,128,251,232,232,309,0,
1,1786460763568,-402,-5719,16290,3859446,3183829,-835663,0,0,0,284,230,195,232,157,260,495,527,296,432,532,245,0,
2,1786460763568,5135,-272,22191,6255260,-470366,-1117883,0,0,0,375,395,227,349,390,364,147,139,239,203,204,253,0,
1,1786460763584,555,9026,16410,4238183,3773925,-537561,0,0,0,295,226,201,246,152,254,530,560,278,498,558,227,0,
2,1786460763584,6920,-641,26254,7468438,-860098,-1618792,0,0,0,321,380,195,319,372,323,153,141,208,194,204,195,0,
1,1786460763600,2866,2316,18568,4163657,2895501,-273667,0,0,0,303,223,232,274,163,255,580,580,261,545,588,217,0,
2,1786460763600,8068,-416,31390,8619308,-1058018,-2131919,0,0,0,304,286,179,277,254,248,183,127,158,204,214,167,0,
1,1786460763616,3527,-3905,21244,3665191,1530828,-122173,0,0,0,301,247,315,268,174,275,592,579,283,575,611,246,0,
2,1786460763616,7245,1253,36860,9275377,-643851,-2497217,0,0,0,277,224,180,214,166,196,244,145,155,212,257,145,0,
1,1786460763632,2220,-2785,19650,2695137,625526,-24434,0,0,0,311,281,362,280,201,296,608,571,302,601,627,276,0,
2,1786460763632,7681,6312,34816,8925962,-945619,-2623055,0,0,0,266,210,211,193,147,192,237,174,184,209,246,176,0,
1,1786460763648,708,-1038,14950,1624901,362853,24434,0,0,0,324,307,388,288,222,308,627,563,307,624,639,299,0,
2,1786460763648,10902,17784,21550,7307169,-1496619,-2482556,0,0,0,278,220,214,204,158,194,244,184,184,207,236,175,0,
1,1786460763664,-9,-813,11672,857654,268780,-6108,0,0,0,332,322,422,293,232,320,643,557,317,636,651,322,0,
2,1786460763664,11418,27853,12931,3469714,-1306029,-1387885,0,0,0,277,218,214,203,152,190,242,178,175,211,225,173,0,
1,1786460763680,52,-928,10882,487470,136833,-64751,0,0,0,342,335,441,302,240,330,649,553,331,633,654,340,0,
2,1786460763680,6939,23943,12706,-879645,-1277930,1050688,0,0,0,286,224,214,212,156,190,233,172,173,215,230,170,0,
1,1786460763696,119,-191,10830,345749,-36651,-65973,0,0,0,355,350,440,295,245,333,639,551,333,631,651,349,0,
2,1786460763696,6915,14826,9054,-2474004,-1831373,2950479,0,0,0,287,230,216,213,161,192,255,193,183,217,239,194,0,
1,1786460763712,95,478,10772,345749,-150272,-51312,0,0,0,361,355,443,296,251,335,637,540,333,629,641,351,0,
2,1786460763712,10179,10792,3747,-2017077,-1137431,3216816,0,0,0,285,233,212,215,158,191,259,195,176,221,241,169,0,
1,1786460763728,71,727,10763,489913,-226020,-42760,0,0,0,360,350,434,316,262,334,640,498,350,615,611,355,0,
2,1786460763728,5967,11931,5537,-2884505,378736,2690250,0,0,0,285,234,215,213,160,189,266,196,176,224,242,166,0,
1,1786460763744,86,502,10567,646295,-318871,-45204,0,0,0,366,349,405,339,289,343,635,474,358,585,595,353,0,
2,1786460763744,1340,10394,8753,-4473977,309097,2331061,0,0,0,283,224,215,210,151,186,261,192,172,224,237,172,0,
1,1786460763760,52,296,10346,718377,-417831,-45204,0,0,0,373,356,407,338,266,331,626,449,341,551,570,362,0,
2,1786460763760,2407,6326,9250,-5651725,-455705,1583362,0,0,0,284,219,214,210,146,185,260,189,167,224,235,170,0,
1,1786460763776,-90,234,10275,739146,-507018,-42760,0,0,0,379,365,395,324,252,323,606,407,326,520,535,368,0,
2,1786460763776,3402,3302,9619,-6283359,-405614,427605,0,0,0,286,221,216,216,148,187,263,190,167,225,237,165,0,
1,1786460763792,-282,215,10236,783129,-516791,-29321,0,0,0,386,371,386,330,260,333,604,368,357,528,504,384,0,
2,1786460763792,2000,1832,11399,-6586349,74525,-800233,0,0,0,285,221,217,217,149,190,263,189,171,224,239,164,0,
1,1786460763808,-440,110,10112,847880,-472809,-10995,0,0,0,387,375,385,321,262,332,590,333,356,514,472,399,0,
2,1786460763808,1076,1569,13390,-6732956,152716,-1012814,0,0,0,286,221,217,215,148,191,261,189,171,222,240,165,0,
1,1786460763824,-598,-62,9940,874759,-389732,4886,0,0,0,401,379,398,328,264,337,568,301,360,498,450,409,0,
2,1786460763824,1392,1306,15333,-6895446,276111,-599869,0,0,0,289,225,220,217,149,193,263,190,173,224,243,166,0,
1,1786460763840,-775,-311,9753,808785,-278554,47647,0,0,0,414,387,402,336,275,352,559,282,372,484,419,418,0,
2,1786460763840,2632,593,16846,-7018841,533896,360410,0,0,0,287,226,223,218,150,194,267,189,178,228,243,166,0,
1,1786460763856,-737,-536,9619,718377,-167377,100181,0,0,0,425,384,390,349,286,348,561,263,389,511,367,423,0,
2,1786460763856,4302,-540,18147,-6944316,950506,1480737,0,0,0,283,225,228,215,148,195,263,181,178,225,240,167,0,
1,1786460763872,-574,-670,9605,636521,-73303,140499,0,0,0,429,385,380,368,298,355,562,249,383,493,360,439,0,
2,1786460763872,5829,-1655,20358,-6757391,1459967,2305405,0,0,0,281,223,228,211,151,203,252,181,179,218,242,166,0,
1,1786460763888,-531,-741,9753,587652,-14660,152716,0,0,0,430,394,378,396,316,375,553,236,377,463,362,453,0,
2,1786460763888,6001,-3306,23680,-6654765,1886351,2318844,0,0,0,285,232,242,215,161,212,252,182,182,217,246,169,0,
1,1786460763904,-617,-808,9853,559552,26878,167377,0,0,0,443,407,377,407,330,381,545,223,381,446,341,469,0,
2,1786460763904,3914,-6977,27614,-6726848,1941329,1830152,0,0,0,290,241,221,210,161,191,254,172,172,214,227,153,0,
1,1786460763920,-813,-847,9973,554665,78190,206472,0,0,0,461,419,371,406,338,379,550,218,383,417,317,489,0,
2,1786460763920,1809,-12476,29882,-6774495,1653001,1533271,0,0,0,290,241,222,222,161,199,254,170,174,216,229,151,0,
1,1786460763936,-1038,-866,10260,610865,127059,290771,0,0,0,474,432,363,420,345,382,559,217,387,392,290,504,0,
2,1786460763936,459,-21110,29628,-6503271,1350012,1549154,0,0,0,295,238,224,232,172,200,259,176,178,218,229,163,0,
1,1786460763952,-957,-957,10614,719599,160046,394618,0,0,0,495,453,362,422,348,376,553,199,383,394,276,527,0,
2,1786460763952,-660,-32366,26058,-5459913,1191187,1637118,0,0,0,301,236,219,224,162,198,271,177,178,224,230,160,0,
1,1786460763968,-320,-1067,10993,878424,163711,449596,0,0,0,501,464,343,422,365,373,542,180,382,438,249,526,0,
2,1786460763968,-1387,-42182,19640,-3846007,795346,1589471,0,0,0,302,232,215,231,165,203,276,175,176,229,234,161,0,
1,1786460763984,220,-1119,11663,1130100,107512,394618,0,0,0,519,466,319,434,393,392,528,176,388,369,221,548,0,
2,1786460763984,-693,-48408,12830,-2018298,461814,1517389,0,0,0,306,235,220,233,162,203,283,177,178,231,232,161,0,
1,1786460764000,100,-1182,12696,1455080,21991,322536,0,0,0,525,471,279,448,412,399,512,178,393,359,213,579,0,
2,1786460764000,-540,-51088,8547,9773,488692,1591914,0,0,0,286,215,218,219,155,194,281,233,166,238,321,150,0,
1,1786460764016,-172,-1239,13802,1898569,-36651,290771,0,0,0,522,494,221,440,411,399,519,189,381,345,226,561,0,
2,1786460764016,-3043,-37291,14204,2058615,703716,1931555,0,0,0,266,207,193,218,163,183,300,347,157,261,430,142,0,
1,1786460764032,9,-1292,14534,2466673,-64751,278554,0,0,0,526,473,209,441,394,391,476,181,365,323,185,561,0,
2,1786460764032,-5412,-6810,19487,3797138,144164,2090380,0,0,0,260,207,174,221,173,179,311,440,150,293,506,141,0,
1,1786460764048,-186,-1387,15190,3123964,-139277,262672,0,0,0,524,467,201,427,392,401,429,174,340,317,184,563,0,
2,1786460764048,-6336,12514,17233,4758640,-966388,1331686,0,0,0,272,216,217,240,179,201,327,516,158,336,584,147,0,
1,1786460764064,-1148,-1488,16487,3916867,-233350,339641,0,0,0,528,442,212,413,386,405,386,181,364,294,178,537,0,
2,1786460764064,-4757,4522,15668,5502674,-1274264,-277332,0,0,0,289,233,236,256,171,222,376,557,181,385,638,149,0,
1,1786460764080,-2096,-1287,19167,4834387,-238237,500909,0,0,0,488,428,210,408,387,398,344,188,350,277,179,494,0,
2,1786460764080,-789,-5436,21406,5045746,-95294,-878424,0,0,0,295,231,220,258,160,222,428,563,180,424,667,141,0,
1,1786460764096,-4264,-1387,23306,5992587,-76969,769690,0,0,0,425,412,212,386,391,391,313,195,334,247,178,444,0,
2,1786460764096,2459,-4814,22785,3681073,641408,-814894,0,0,0,302,226,232,265,162,223,456,560,162,455,685,141,0,
1,1786460764112,-6542,-1416,27709,7239974,37873,1213178,0,0,0,384,385,214,360,366,363,310,195,329,233,175,394,0,
2,1786460764112,2842,-2153,16994,2149023,346971,-433714,0,0,0,317,242,246,271,163,232,456,535,174,477,683,154,0,
1,1786460764128,-7159,57,31165,8346862,-168598,1683544,0,0,0,345,345,214,315,297,319,335,193,315,242,181,358,0,
2,1786460764128,1914,-871,11447,992045,9773,-123394,0,0,0,321,264,251,275,179,231,442,497,191,478,673,161,0,
1,1786460764144,-6293,2770,34989,9253386,-857654,2141693,0,0,0,310,294,225,258,224,284,357,210,304,263,224,339,0,
2,1786460764144,947,-406,9432,555887,-90408,-4886,0,0,0,317,306,262,279,235,239,526,567,175,494,674,170,0,
1,1786460764160,-6570,7963,33759,9430537,-1404990,2591290,0,0,0,310,259,239,244,197,271,357,233,307,286,280,329,0,
2,1786460764160,1282,-234,10217,478918,-163711,-15882,0,0,0,326,276,290,278,194,245,525,545,185,513,666,177,0,
1,1786460764176,-7379,17846,21971,8106181,-1238834,3066543,0,0,0,316,263,244,245,193,270,361,225,309,282,273,328,0,
2,1786460764176,1397,-23,10744,394618,-331088,-43982,0,0,0,320,318,270,284,217,251,510,513,175,491,646,177,0,
1,1786460764192,-6724,24268,13510,3175277,-423940,2610838,0,0,0,307,268,241,229,187,261,365,231,302,280,269,331,0,
2,1786460764192,942,224,10677,365297,-431270,-76969,0,0,0,320,318,271,283,227,251,494,489,181,456,618,179,0,
1,1786460764208,-5077,18099,13687,-1960877,348193,834441,0,0,0,310,268,242,231,186,253,368,230,289,285,273,324,0,
2,1786460764208,454,378,10394,452040,-306654,-94073,0,0,0,321,320,272,277,218,247,472,475,177,431,583,202,0,
1,1786460764224,-6106,10064,10519,-3662747,868650,-603534,0,0,0,305,273,241,224,205,255,364,244,296,281,280,324,0,
2,1786460764224,349,382,10155,560774,-127059,-94073,0,0,0,321,343,292,277,232,262,450,438,191,442,555,215,0,
1,1786460764240,-7839,6982,5594,-2767219,-4886,-1208291,0,0,0,307,268,240,223,189,252,364,241,296,284,283,337,0,
2,1786460764240,564,358,10035,640186,-26878,-85521,0,0,0,316,322,278,272,219,260,417,383,188,413,505,204,0,
1,1786460764256,-3948,8341,5671,-2970026,-1593136,-1451415,0,0,0,308,268,243,226,189,256,364,240,298,281,281,320,0,
2,1786460764256,713,330,9916,692721,-31764,-85521,0,0,0,317,313,255,280,220,254,404,325,183,395,473,204,0,
1,1786460764272,253,7839,7623,-3898541,-1981646,-1758070,0,0,0,304,268,240,226,190,258,368,244,302,278,281,317,0,
2,1786460764272,765,172,9700,713490,-73303,-102625,0,0,0,314,320,258,287,229,260,406,308,187,386,455,199,0,
1,1786460764288,1143,5776,8863,-4635245,-1561371,-1712866,0,0,0,303,272,243,223,191,257,366,243,298,278,282,315,0,
2,1786460764288,717,-162,9418,668286,-131946,-122173,0,0,0,323,332,268,280,236,261,389,312,184,371,444,198,0,
1,1786460764304,1421,4163,9581,-5059185,-1649336,-972497,0,0,0,302,273,247,225,192,263,365,240,307,282,282,318,0,
2,1786460764304,574,-536,9193,543670,-184481,-130725,0,0,0,334,348,280,286,240,265,390,299,185,370,440,198,0,
1,1786460764320,2651,3172,10868,-5424483,-1842369,-43982,0,0,0,301,276,247,229,195,265,364,241,305,284,284,314,0,
2,1786460764320,497,-579,9231,432492,-199142,-124616,0,0,0,342,350,283,300,239,270,392,266,189,374,438,206,0,
1,1786460764336,4101,2837,12936,-5726250,-1935221,659734,0,0,0,303,279,247,231,195,262,367,243,296,288,285,312,0,
2,1786460764336,564,-507,9428,390953,-199142,-124616,0,0,0,342,353,284,298,242,274,376,240,191,357,420,215,0,
1,1786460764352,5824,2881,15462,-6070778,-2064724,720820,0,0,0,300,278,248,230,196,264,371,246,302,286,286,314,0,
2,1786460764352,708,-488,9710,378736,-228463,-144164,0,0,0,343,378,293,298,261,284,370,228,195,339,385,214,0,
1,1786460764368,7346,2359,17425,-6426302,-2042733,375071,0,0,0,295,277,248,228,197,263,373,247,307,281,288,312,0,
2,1786460764368,789,-512,9940,405614,-295658,-182037,0,0,0,360,394,291,311,284,295,364,220,201,344,371,229,0,
1,1786460764384,7470,1095,18813,-6629109,-1780061,-223576,0,0,0,293,276,244,226,195,259,375,240,300,282,285,304,0,
2,1786460764384,760,-555,10069,461814,-360410,-227241,0,0,0,360,398,308,321,304,322,367,217,215,346,363,254,0,
1,1786460764400,5833,-373,20267,-6653544,-1595580,-615752,0,0,0,289,276,241,226,193,260,382,236,302,282,279,297,0,
2,1786460764400,784,-588,10260,540004,-398284,-278554,0,0,0,384,377,334,356,306,363,375,187,223,339,335,268,0,
1,1786460764416,4082,-2904,21962,-6768386,-1536936,-599869,0,0,0,297,280,247,234,197,268,388,239,310,288,278,302,0,
2,1786460764416,914,-612,10538,651182,-415388,-342084,0,0,0,444,417,317,379,324,359,358,171,212,351,302,285,0,
1,1786460764432,2938,-7135,24039,-6897890,-1442863,-149051,0,0,0,302,289,258,239,204,276,385,237,308,287,277,314,0,
2,1786460764432,875,-727,10988,830776,-434936,-431270,0,0,0,506,443,324,414,330,391,339,180,243,329,262,314,0,
1,1786460764448,3139,-13816,25790,-6789156,-1213178,262672,0,0,0,294,308,251,235,228,276,385,244,309,279,278,322,0,
2,1786460764448,425,-827,11782,1080009,-450818,-481361,0,0,0,490,460,297,413,419,374,333,192,227,326,281,313,0,
1,1786460764464,3819,-23345,25762,-6436076,-952949,373849,0,0,0,294,283,254,243,204,280,387,233,311,281,267,322,0,
2,1786460764464,272,-770,13275,1543045,-460592,-456927,0,0,0,489,458,283,381,422,389,294,168,244,300,256,344,0,
1,1786460764480,4560,-35773,22809,-5517334,-641408,254119,0,0,0,294,281,252,243,203,281,388,231,312,285,272,320,0,
2,1786460764480,598,-751,14721,2153910,-507018,-445931,0,0,0,494,444,232,424,395,359,287,171,212,347,261,343,0,
1,1786460764496,5159,-43038,16989,-3745825,-197920,-34208,0,0,0,299,283,253,248,203,282,394,230,310,292,273,321,0,
2,1786460764496,679,-756,15434,2811201,-563217,-480140,0,0,0,494,490,241,368,414,355,222,178,201,290,265,352,0,
1,1786460764512,5331,-44297,11691,-1894903,155159,-700051,0,0,0,286,275,228,241,192,265,417,285,303,320,369,299,0,
2,1786460764512,660,-722,16300,3654195,-576656,-530231,0,0,0,480,466,240,338,366,356,184,178,221,271,280,323,0,
1,1786460764528,2986,-44498,10495,-61086,345749,-1802052,0,0,0,291,255,207,251,176,252,468,413,276,362,448,269,0,
2,1786460764528,1421,-603,18176,4681671,-597426,-624304,0,0,0,464,442,233,343,370,339,158,152,211,245,237,312,0,
1,1786460764544,928,-36544,12959,2236988,1172861,-2182010,0,0,0,288,229,200,245,160,254,497,503,278,392,492,254,0,
2,1786460764544,3895,-516,22201,5968153,-834441,-901637,0,0,0,427,420,235,329,363,317,146,136,196,208,205,267,0,
1,1786460764560,1794,-9222,16190,4062253,2836858,-1452637,0,0,0,287,219,211,241,150,261,516,538,283,449,533,233,0,
2,1786460764560,7063,-875,27035,7231422,-1320690,-1375668,0,0,0,360,395,210,307,328,283,155,145,179,194,201,205,0,
1,1786460764576,4077,5661,18061,3766595,3233920,-405614,0,0,0,290,233,252,251,157,265,554,562,281,522,578,219,0,
2,1786460764576,8925,-875,31777,8252789,-1826487,-1948660,0,0,0,300,337,183,269,268,241,174,154,168,197,213,166,0,
1,1786460764592,3584,3273,19736,3224146,2401922,195476,0,0,0,306,264,309,264,175,271,587,571,299,587,613,234,0,
2,1786460764592,8375,1794,36276,8954062,-1811826,-2395813,0,0,0,273,260,194,220,192,209,205,168,174,199,235,158,0,
1,1786460764608,1335,-4273,20516,2484999,1243721,205250,0,0,0,347,293,357,276,190,281,594,557,314,633,635,266,0,
2,1786460764608,8671,7355,35577,8996823,-1844813,-2597398,0,0,0,273,225,219,207,148,206,243,183,192,203,245,173,0,
1,1786460764624,1129,-3239,17339,1573588,855211,72082,0,0,0,355,306,394,287,211,302,604,558,299,637,644,294,0,
2,1786460764624,11873,17674,22991,7420790,-2293188,-2409252,0,0,0,275,225,216,220,150,202,260,182,189,215,245,171,0,
1,1786460764640,1368,-110,12778,894306,453262,43982,0,0,0,340,316,416,293,240,332,621,553,327,639,654,321,0,
2,1786460764640,12476,25685,15927,2778215,-1651779,-1004262,0,0,0,276,231,214,218,156,190,259,192,170,220,248,167,0,
1,1786460764656,780,588,10658,669508,-50090,53756,0,0,0,345,340,424,299,244,337,608,540,338,629,649,334,0,
2,1786460764656,8748,23656,13888,-1486845,-1137431,1309695,0,0,0,276,230,223,205,154,197,244,192,178,214,251,173,0,
1,1786460764672,-9,-52,10696,522900,-340862,-1221,0,0,0,338,363,428,304,258,330,621,529,340,635,650,334,0,
2,1786460764672,8523,14745,9183,-2985909,-1435533,3540574,0,0,0,280,230,228,212,148,198,260,190,178,220,249,179,0,
1,1786460764688,-248,105,10902,433714,-398284,-46425,0,0,0,350,370,425,301,255,326,624,513,347,614,616,342,0,
2,1786460764688,10413,11261,5144,-2613281,-401949,3902207,0,0,0,286,225,223,218,146,194,260,190,174,220,247,163,0,
1,1786460764704,-76,794,10902,516791,-370184,-46425,0,0,0,358,370,415,315,259,326,616,505,338,611,609,348,0,
2,1786460764704,6470,10993,6250,-3216816,811229,3513696,0,0,0,284,225,222,217,146,196,260,191,168,221,247,164,0,
1,1786460764720,-14,756,10634,685390,-414166,-31764,0,0,0,369,379,416,323,263,323,624,472,323,589,574,349,0,
2,1786460764720,2115,9657,8868,-4597371,546113,2954144,0,0,0,284,225,221,217,146,193,258,194,176,222,248,165,0,
1,1786460764736,-47,454,10351,799011,-485026,-26878,0,0,0,368,399,398,329,281,340,604,447,335,554,529,378,0,
2,1786460764736,3015,6044,9112,-5676159,-131946,1979203,0,0,0,287,221,225,214,144,196,258,198,181,220,243,168,0,
1,1786460764752,-153,344,10289,830776,-540004,-29321,0,0,0,387,368,386,350,272,333,590,409,333,541,498,383,0,
2,1786460764752,3570,3263,9566,-6249151,-32986,724486,0,0,0,281,224,231,210,145,206,254,191,197,216,244,173,0,
1,1786460764768,-320,354,10241,883311,-553443,-21991,0,0,0,383,352,371,367,264,336,585,374,334,518,469,381,0,
2,1786460764768,2081,1952,11462,-6511823,312763,-375071,0,0,0,282,228,237,210,148,211,255,201,202,218,256,179,0,
1,1786460764784,-502,244,10093,944397,-527787,-9773,0,0,0,383,360,368,359,263,338,582,331,342,495,440,388,0,
2,1786460764784,1124,1521,13524,-6692639,431270,-768468,0,0,0,282,237,240,209,159,209,255,225,208,216,268,176,0,
1,1786460764800,-760,38,9892,965167,-443488,12217,0,0,0,393,377,379,350,270,338,578,296,344,478,416,399,0,
2,1786460764800,1493,1292,15740,-6889338,549778,-360410,0,0,0,282,236,247,209,153,212,263,214,213,217,259,175,0,
1,1786460764816,-1062,-277,9686,884532,-267558,83077,0,0,0,394,382,383,354,274,346,578,281,345,462,397,407,0,
2,1786460764816,2852,536,17295,-7026171,814894,579100,0,0,0,283,234,244,214,149,216,272,196,211,223,251,177,0,
1,1786460764832,-1009,-593,9562,772133,-92851,161268,0,0,0,401,379,381,362,282,355,578,264,350,448,379,420,0,
2,1786460764832,4871,-598,18942,-7088480,1231504,1650557,0,0,0,285,240,233,221,155,216,274,194,205,229,251,176,0,
1,1786460764848,-665,-799,9523,664621,36651,199142,0,0,0,420,387,388,374,301,363,571,241,360,434,355,438,0,
2,1786460764848,6561,-2426,21430,-7039611,1806939,2106263,0,0,0,284,242,233,221,155,213,270,188,200,228,246,176,0,
1,1786460764864,-588,-775,9657,598647,95294,196698,0,0,0,436,394,403,375,302,363,568,228,371,430,334,450,0,
2,1786460764864,6647,-5364,24723,-6972415,2334726,1963320,0,0,0,283,236,233,221,157,212,268,184,197,223,244,175,0,
1,1786460764880,-746,-741,9897,581543,138055,217468,0,0,0,459,418,399,389,312,356,569,219,354,426,314,454,0,
2,1786460764880,4752,-9748,28116,-6919881,2498438,1533271,0,0,0,283,231,229,226,158,219,267,182,198,224,242,173,0,
1,1786460764896,-904,-737,10236,637743,177150,282219,0,0,0,473,427,399,397,335,366,579,204,387,420,291,486,0,
2,1786460764896,2263,-16721,29585,-6750060,2241875,1445307,0,0,0,283,231,225,229,158,213,273,178,185,228,239,168,0,
1,1786460764912,-1005,-775,10600,741590,206472,361632,0,0,0,491,432,401,413,346,385,565,192,355,420,279,518,0,
2,1786460764912,-86,-26972,28542,-6141639,2046398,1653001,0,0,0,283,237,225,224,162,214,271,176,188,229,246,165,0,
1,1786460764928,-583,-947,11016,917519,210137,447153,0,0,0,520,447,368,421,340,383,560,198,361,414,255,534,0,
2,1786460764928,-2861,-38511,24551,-4746422,1933999,1798387,0,0,0,286,263,228,230,180,218,280,183,192,239,256,171,0,
1,1786460764944,282,-1148,11337,1125213,157603,432492,0,0,0,524,444,336,427,349,387,562,185,354,387,238,540,0,
2,1786460764944,-3359,-46896,17827,-2927266,1112996,1593136,0,0,0,282,254,221,234,175,216,284,176,186,247,261,173,0,
1,1786460764960,483,-1244,12108,1404990,-13439,321315,0,0,0,539,466,290,439,372,393,537,180,372,377,213,555,0,
2,1786460764960,-1306,-52691,11280,-1199739,327423,1281595,0,0,0,276,248,221,227,171,216,297,188,192,239,262,172,0,
1,1786460764976,-33,-1229,13385,1808161,-221133,237015,0,0,0,540,457,243,450,376,398,518,170,378,365,196,568,0,
2,1786460764976,-454,-51595,9246,678060,279776,1225395,0,0,0,277,241,206,231,175,198,325,350,165,250,396,142,0,
1,1786460764992,-344,-1220,14568,2381152,-332310,249233,0,0,0,542,447,225,439,380,393,496,165,364,351,190,578,0,
2,1786460764992,-4292,-23613,17970,3273015,127059,2008524,0,0,0,259,236,166,230,189,188,340,455,150,280,475,127,0,
1,1786460765008,-358,-1258,15276,3004235,-354301,268780,0,0,0,538,437,211,437,386,402,468,165,354,333,183,567,0,
2,1786460765008,-7451,12902,19550,5126381,-1236391,2273640,0,0,0,265,223,170,246,186,196,318,499,143,311,557,138,0,
1,1786460765024,-880,-1421,15783,3726277,-368962,300545,0,0,0,531,423,199,426,382,402,413,166,371,319,172,540,0,
2,1786460765024,-7575,8537,16970,5499008,-1640784,748920,0,0,0,277,223,205,250,163,218,372,539,181,380,614,155,0,
1,1786460765040,-1493,-1363,17305,4510628,-377514,405614,0,0,0,509,415,205,415,385,400,353,171,390,295,165,500,0,
2,1786460765040,-3732,-4053,20535,5257106,-619417,-687834,0,0,0,298,214,229,259,149,219,458,557,180,427,662,149,0,
1,1786460765056,-3129,-1301,21124,5627290,-246789,610865,0,0,0,459,408,220,411,394,406,319,180,378,257,169,445,0,
2,1786460765056,2426,-7173,24278,4061032,450818,-1071457,0,0,0,296,208,232,261,154,213,488,571,163,454,674,126,0,
1,1786460765072,-5920,-1651,26149,6877120,-53756,951728,0,0,0,398,382,214,379,369,379,313,186,347,239,171,394,0,
2,1786460765072,3728,-3067,19372,2612059,227241,-510683,0,0,0,302,217,249,261,156,226,489,573,175,499,665,137,0,
1,1786460765088,-7336,-1368,30969,7914370,-63529,1363451,0,0,0,361,355,215,339,321,339,323,195,327,241,185,377,0,
2,1786460765088,2349,-665,13467,1521054,10995,-90408,0,0,0,327,228,269,272,157,241,505,571,187,535,655,165,0,
1,1786460765104,-6915,985,35214,8834333,-630412,1804495,0,0,0,308,309,215,268,245,277,351,216,295,253,228,331,0,
2,1786460765104,866,-119,9466,833220,37873,46425,0,0,0,335,228,273,280,151,241,516,576,177,540,644,170,0,
1,1786460765120,-6829,5551,37740,9489180,-1415985,2282192,0,0,0,284,273,241,228,197,264,358,237,300,271,281,319,0,
2,1786460765120,1517,-402,9830,571769,12217,10995,0,0,0,327,231,270,278,144,235,514,567,170,537,639,166,0,
1,1786460765136,-8006,15625,25934,8780576,-1424537,2831971,0,0,0,299,282,243,231,205,259,369,245,322,271,293,332,0,
2,1786460765136,1923,-86,10581,394618,-221133,-12217,0,0,0,332,254,272,284,166,238,522,546,180,521,629,183,0,
1,1786460765152,-7887,23799,16238,5342627,-867428,2720793,0,0,0,298,273,245,226,192,248,357,237,292,271,282,322,0,
2,1786460765152,1469,497,10715,389732,-415388,-35430,0,0,0,333,279,279,289,190,246,524,526,185,483,593,200,0,
1,1786460765168,-5814,23718,15127,-421497,-90408,1275486,0,0,0,304,270,250,221,187,247,367,239,299,271,284,328,0,
2,1786460765168,784,603,10447,527787,-343306,-61086,0,0,0,326,286,268,287,187,240,517,483,179,450,563,182,0,
1,1786460765184,-5173,15458,13476,-3832568,850324,-433714,0,0,0,302,267,254,221,189,257,370,241,317,276,289,330,0,
2,1786460765184,435,454,10160,664621,-103847,-69638,0,0,0,322,289,283,282,186,251,485,431,187,420,534,188,0,
1,1786460765200,-7231,9715,7532,-3253468,485026,-1059240,0,0,0,309,269,249,225,190,254,371,244,308,276,288,322,0,
2,1786460765200,655,449,10102,750142,98960,-67195,0,0,0,314,281,275,275,184,246,460,398,188,415,495,192,0,
1,1786460765216,-5211,9514,5642,-2928487,-1062905,-1188743,0,0,0,311,272,249,227,191,253,373,247,305,276,291,318,0,
2,1786460765216,1062,507,10141,855211,193033,-79412,0,0,0,328,273,293,292,187,270,438,327,196,384,446,198,0,
1,1786460765232,-157,9126,7781,-3874107,-1677435,-1568701,0,0,0,306,272,248,224,190,252,371,245,304,278,292,317,0,
2,1786460765232,1330,378,9973,922406,108734,-107512,0,0,0,327,302,292,304,198,267,444,298,201,391,449,211,0,
1,1786460765248,1689,7020,9370,-4798957,-1264491,-1837482,0,0,0,308,272,248,228,189,253,370,244,301,280,292,317,0,
2,1786460765248,1215,-67,9581,882089,-47647,-128281,0,0,0,334,345,299,305,240,265,431,318,195,377,434,209,0,
1,1786460765264,770,4761,9834,-5329188,-1025031,-1458746,0,0,0,312,276,250,234,191,255,372,246,300,280,292,317,0,
2,1786460765264,1043,-492,9370,779464,-161268,-135612,0,0,0,322,319,310,318,239,309,411,260,227,352,395,223,0,
1,1786460765280,1847,3728,11103,-5753128,-1354899,-598647,0,0,0,307,278,252,230,189,253,375,247,304,280,293,318,0,
2,1786460765280,1024,-646,9447,679282,-199142,-139277,0,0,0,327,330,292,314,242,307,393,237,218,343,382,232,0,
1,1786460765296,3326,3101,12921,-6131865,-1392772,35430,0,0,0,310,278,253,232,189,256,379,247,310,283,295,319,0,
2,1786460765296,1129,-612,9619,632856,-223576,-161268,0,0,0,342,371,292,323,265,310,369,213,212,342,360,236,0,
1,1786460765312,4431,2703,15190,-6405532,-1351233,245567,0,0,0,314,279,256,236,191,254,379,246,301,286,298,316,0,
2,1786460765312,1105,-603,9739,638965,-280998,-204028,0,0,0,366,377,288,343,278,315,370,193,213,344,336,241,0,
1,1786460765328,5513,2306,17324,-6618113,-1391551,90408,0,0,0,317,283,259,242,196,260,382,244,306,291,298,320,0,
2,1786460765328,1033,-674,9853,670730,-317649,-238237,0,0,0,385,383,278,370,308,333,368,182,210,332,310,253,0,
1,1786460765344,5982,1569,19248,-6795264,-1320690,-334754,0,0,0,311,281,255,231,192,255,385,250,310,288,303,317,0,
2,1786460765344,1028,-780,10122,747699,-322536,-277332,0,0,0,395,393,271,375,330,351,360,197,221,318,287,279,0,
1,1786460765360,5077,555,21383,-6955311,-1136209,-788016,0,0,0,314,289,258,234,194,261,383,251,312,289,311,307,0,
2,1786460765360,1095,-866,10495,863763,-312763,-318871,0,0,0,414,389,275,367,317,358,358,193,234,308,266,297,0,
1,1786460765376,3048,-1612,23661,-7183775,-1055575,-770911,0,0,0,315,283,258,247,194,262,395,240,309,296,308,301,0,
2,1786460765376,1258,-938,10949,1045801,-313984,-381179,0,0,0,439,398,283,385,308,378,358,162,239,306,244,310,0,
1,1786460765392,717,-5723,25843,-7393912,-1025031,-228463,0,0,0,310,280,261,241,193,263,392,235,307,291,285,302,0,
2,1786460765392,1134,-1052,11385,1274264,-340862,-450818,0,0,0,460,428,279,411,335,398,352,157,250,312,235,327,0,
1,1786460765408,-617,-12428,28044,-7409795,-1087340,704938,0,0,0,305,278,258,244,194,271,397,231,306,286,273,310,0,
2,1786460765408,559,-1177,11682,1527163,-357967,-472809,0,0,0,475,451,264,418,380,397,323,158,255,307,237,327,0,
1,1786460765424,311,-22675,28317,-6941872,-1092227,1244943,0,0,0,306,278,257,246,195,273,405,231,306,289,271,322,0,
2,1786460765424,287,-1220,12553,1874134,-311541,-411723,0,0,0,471,467,242,427,375,394,291,151,247,303,244,345,0,
1,1786460765440,2388,-34481,25699,-5915618,-993266,1361007,0,0,0,310,280,253,255,199,273,419,234,303,303,281,323,0,
2,1786460765440,703,-1320,13835,2323731,-287106,-356745,0,0,0,489,464,230,393,371,375,250,157,234,292,249,365,0,
1,1786460765456,5623,-43220,19664,-4246735,-729373,1044579,0,0,0,312,280,254,263,199,277,431,236,306,311,284,322,0,
2,1786460765456,1517,-1450,14955,2982244,-337197,-381179,0,0,0,492,459,249,364,366,388,226,150,255,277,241,372,0,
1,1786460765472,7796,-46776,12825,-2085493,-365297,127059,0,0,0,311,265,246,265,186,274,443,237,308,318,304,322,0,
2,1786460765472,2167,-1478,15841,3826459,-450818,-533896,0,0,0,489,475,240,358,338,344,175,147,226,253,225,325,0,
1,1786460765488,6709,-47906,9370,-283441,-54977,-922406,0,0,0,301,242,220,258,169,257,471,316,300,347,390,296,0,
2,1786460765488,2890,-1426,17300,4730540,-572991,-753807,0,0,0,473,477,274,372,352,352,167,148,222,252,219,321,0,
1,1786460765504,2541,-39932,12529,1451415,410501,-1643227,0,0,0,282,224,197,241,159,252,509,450,300,391,489,263,0,
2,1786460765504,4225,-1464,20483,5799554,-717155,-1082453,0,0,0,418,481,258,356,365,370,174,138,241,231,234,282,0,
1,1786460765520,866,-13859,16865,3320663,1925447,-1815491,0,0,0,274,208,200,233,149,264,538,520,308,442,528,251,0,
2,1786460765520,6403,-2211,26532,7021285,-1104444,-1527163,0,0,0,346,435,265,317,318,342,155,119,242,214,216,219,0,
1,1786460765536,4489,8939,17798,4062253,3490483,-1196074,0,0,0,288,206,234,246,146,267,569,562,298,514,560,237,0,
2,1786460765536,8820,-2440,32160,8063421,-1440420,-1957212,0,0,0,308,336,191,281,273,253,188,142,173,200,212,179,0,
1,1786460765552,5273,4254,20574,3921754,3231477,-12217,0,0,0,303,219,301,264,152,275,602,577,286,580,598,250,0,
2,1786460765552,9121,-650,37185,8971166,-1071457,-2447126,0,0,0,276,242,201,206,173,198,222,174,177,201,220,182,0,
1,1786460765568,1794,-4154,22871,3204599,2150245,470366,0,0,0,334,265,362,290,178,289,631,581,304,630,630,260,0,
2,1786460765568,8868,4431,37851,9112887,-890641,-2753780,0,0,0,265,216,213,195,142,191,231,175,179,208,223,179,0,
1,1786460765584,210,-4776,20473,2070833,1290147,180816,0,0,0,338,297,429,277,200,303,655,574,334,641,646,288,0,
2,1786460765584,11031,16855,26345,7610159,-1558928,-2685363,0,0,0,265,220,219,193,145,193,229,170,181,216,224,181,0,
1,1786460765600,1517,-722,14505,1204626,687834,-14660,0,0,0,352,326,446,301,231,317,653,559,309,626,651,314,0,
2,1786460765600,12352,26767,17487,3100751,-1667662,-1341460,0,0,0,267,218,217,200,145,193,238,170,173,219,225,176,0,
1,1786460765616,1450,1014,11083,800233,21991,-1221,0,0,0,349,341,439,296,242,315,662,556,317,632,655,321,0,
2,1786460765616,9451,25982,15032,-1452637,-1488067,877202,0,0,0,270,220,216,200,145,189,238,177,170,219,232,173,0,
1,1786460765632,181,516,10758,703716,-471587,12217,0,0,0,356,353,458,300,256,324,658,546,320,631,648,339,0,
2,1786460765632,9064,16764,10547,-3309667,-1784948,2888170,0,0,0,273,227,217,203,149,191,243,185,174,222,238,171,0,
1,1786460765648,-516,397,10906,662177,-585208,-45204,0,0,0,358,358,456,310,262,334,650,526,329,622,614,344,0,
2,1786460765648,10811,12041,5747,-3343876,-1021366,3332880,0,0,0,279,227,227,212,151,197,251,186,175,223,236,168,0,
1,1786460765664,-536,689,10839,678060,-533896,-59864,0,0,0,361,367,451,304,256,326,601,461,339,600,582,350,0,
2,1786460765664,7968,11883,5809,-3751934,574213,2868623,0,0,0,283,218,229,216,149,199,249,180,171,221,232,166,0,
1,1786460765680,-382,871,10619,753807,-492357,-32986,0,0,0,368,376,448,318,263,330,606,445,332,569,550,362,0,
2,1786460765680,2234,10940,9361,-5145928,1000597,2412917,0,0,0,286,214,218,216,146,197,250,178,168,223,231,165,0,
1,1786460765696,-402,808,10457,840550,-508239,-7330,0,0,0,374,377,417,331,274,332,610,433,326,531,516,370,0,
2,1786460765696,1703,7078,10849,-6432410,150272,1695761,0,0,0,290,216,218,218,143,197,252,179,170,222,232,163,0,
1,1786460765712,-454,732,10375,918741,-526565,6108,0,0,0,379,370,409,334,270,332,593,403,326,499,476,381,0,
2,1786460765712,2407,3019,11395,-7156897,-124616,354301,0,0,0,283,215,216,214,142,196,245,177,166,217,232,160,0,
1,1786460765728,-473,684,10323,993266,-521678,12217,0,0,0,383,369,415,337,269,337,578,362,330,473,444,394,0,
2,1786460765728,1038,1564,13003,-7176444,204028,-796568,0,0,0,288,216,225,211,141,199,251,184,173,218,227,164,0,
1,1786460765744,-713,569,10169,1084896,-477696,20769,0,0,0,385,388,393,345,291,342,564,329,335,453,430,406,0,
2,1786460765744,129,1483,15094,-7143458,390953,-1123992,0,0,0,294,221,222,219,141,194,261,177,173,234,237,166,0,
1,1786460765760,-1191,406,9935,1115439,-375071,62308,0,0,0,390,402,391,347,304,346,551,313,338,443,403,419,0,
2,1786460765760,722,1727,17559,-7233866,575435,-515570,0,0,0,298,223,219,221,139,191,269,176,172,235,237,162,0,
1,1786460765776,-1550,-100,9700,1037249,-174707,166155,0,0,0,405,401,378,355,292,348,553,250,340,432,366,430,0,
2,1786460765776,2861,789,19014,-7367034,933402,636521,0,0,0,297,229,228,216,143,200,261,176,180,220,235,162,0,
1,1786460765792,-1268,-593,9715,916297,52534,265115,0,0,0,426,411,379,382,306,371,544,226,352,419,326,449,0,
2,1786460765792,4938,-555,20468,-7308391,1461189,1601688,0,0,0,294,225,224,223,148,202,267,177,181,226,232,165,0,
1,1786460765808,-1033,-636,9906,849102,230907,328645,0,0,0,451,434,377,403,322,373,540,219,354,406,305,456,0,
2,1786460765808,5924,-1727,23067,-7086036,2041511,1899790,0,0,0,291,220,224,220,144,203,268,173,185,223,232,167,0,
1,1786460765824,-1095,-559,10141,862541,324980,377514,0,0,0,451,466,374,392,341,363,523,218,353,408,305,467,0,
2,1786460765824,4493,-3919,27580,-6978524,2458121,1451415,0,0,0,291,211,217,221,137,200,275,173,186,224,228,159,0,
1,1786460765840,-952,-827,10351,927293,361632,447153,0,0,0,479,494,362,410,352,364,526,219,353,378,299,482,0,
2,1786460765840,1670,-7786,31505,-7042054,2458121,1038470,0,0,0,290,213,217,229,143,207,284,170,185,240,222,163,0,
1,1786460765856,-612,-1048,10629,1016479,365297,486248,0,0,0,502,503,357,404,370,364,519,220,355,378,298,493,0,
2,1786460765856,-1440,-15324,33223,-7089701,2193006,1103222,0,0,0,282,229,210,230,164,207,280,180,186,236,233,164,0,
1,1786460765872,-397,-1028,11107,1161865,345749,489913,0,0,0,501,508,354,406,375,388,501,210,352,375,277,515,0,
2,1786460765872,-3484,-27877,31256,-6357885,1847256,1525941,0,0,0,276,250,207,233,193,211,272,186,186,229,242,162,0,
1,1786460765888,67,-1014,11476,1339016,310319,469144,0,0,0,516,491,320,419,376,395,491,199,337,364,251,531,0,
2,1786460765888,-2938,-42416,25096,-4693888,994488,1600466,0,0,0,273,261,207,232,205,216,273,186,186,226,246,158,0,
1,1786460765904,741,-1129,11710,1572367,212581,372627,0,0,0,539,487,301,422,391,400,479,194,336,364,241,555,0,
2,1786460765904,-794,-51806,16290,-2720793,460592,1111774,0,0,0,274,259,207,234,204,217,285,187,188,230,252,158,0,
1,1786460765920,722,-1282,12347,1811826,73303,239459,0,0,0,553,477,283,421,401,400,473,194,337,356,229,563,0,
2,1786460765920,-2273,-56022,10696,-689055,525344,850324,0,0,0,274,246,211,234,191,210,296,235,187,230,287,160,0,
1,1786460765936,-47,-1330,13553,2205223,1221,167377,0,0,0,557,480,250,429,406,400,456,190,336,337,211,559,0,
2,1786460765936,-5034,-50844,11395,1328021,740368,1288925,0,0,0,271,222,196,229,169,195,312,324,169,252,368,146,0,
1,1786460765952,-660,-1421,14357,2746450,6108,183259,0,0,0,555,490,218,432,413,401,418,184,329,319,198,552,0,
2,1786460765952,-3484,-20138,19411,3060434,120951,1762957,0,0,0,265,202,157,238,162,182,341,399,145,310,472,129,0,
1,1786460765968,-722,-1531,14950,3357315,26878,240680,0,0,0,543,482,198,422,425,391,377,186,316,301,194,532,0,
2,1786460765968,-2177,18784,18391,4072027,-1514945,1419650,0,0,0,260,199,148,250,166,185,357,500,144,326,577,141,0,
1,1786460765984,-1416,-1603,16319,4164879,48869,345749,0,0,0,523,481,193,420,434,383,335,197,314,280,191,501,0,
2,1786460765984,-4283,11935,14194,4862487,-2029294,122173,0,0,0,286,200,180,266,162,207,390,573,156,381,646,153,0,
1,1786460766000,-2732,-1727,18621,5057964,131946,564439,0,0,0,485,463,202,422,402,402,307,189,321,257,171,458,0,
2,1786460766000,-3010,-4201,18951,5324301,-1174082,-932180,0,0,0,292,200,288,255,150,239,406,570,201,431,686,180,0,
1,1786460766016,-4685,-2220,22794,6179512,387288,922406,0,0,0,426,436,215,389,400,408,302,196,334,232,175,426,0,
2,1786460766016,2091,-7485,25441,4437325,-156381,-972497,0,0,0,303,208,310,268,154,271,465,598,223,476,677,186,0,
1,1786460766032,-7284,-2785,27279,7279070,580321,1330464,0,0,0,383,404,219,359,354,361,293,185,313,225,167,408,0,
2,1786460766032,3273,-2617,21129,2816088,-206472,-405614,0,0,0,306,220,295,273,170,260,505,606,215,456,685,174,0,
1,1786460766048,-9011,-2172,31284,8295549,158824,1870469,0,0,0,340,372,200,300,301,299,318,194,293,243,192,365,0,
2,1786460766048,1095,9,13759,1503950,-226020,-29321,0,0,0,309,226,263,265,170,238,489,616,180,451,685,182,0,
1,1786460766064,-7403,933,36300,8990714,-869872,2463008,0,0,0,285,276,217,224,200,242,341,226,276,252,257,339,0,
2,1786460766064,-100,239,9767,908967,166155,-37873,0,0,0,327,252,266,284,190,257,515,589,196,466,687,186,0,
1,1786460766080,-6226,7963,35458,9093339,-862541,2961474,0,0,0,291,263,229,233,197,249,364,231,285,270,261,329,0,
2,1786460766080,1143,148,10083,800233,375071,-75747,0,0,0,325,274,295,298,198,297,546,582,205,468,677,243,0,
1,1786460766096,-7365,18932,21670,7391469,994488,3097086,0,0,0,297,280,241,233,206,251,375,231,283,270,267,318,0,
2,1786460766096,1794,320,10504,684169,284663,-57421,0,0,0,326,296,279,298,199,279,546,566,202,437,654,198,0,
1,1786460766112,-9136,20904,15367,2179567,1626123,1781283,0,0,0,301,289,248,229,206,252,368,237,284,267,277,322,0,
2,1786460766112,1440,679,10547,610865,111177,-51312,0,0,0,321,274,267,287,189,259,538,521,198,411,606,185,0,
1,1786460766128,-7776,16032,14343,-2386039,1123992,-94073,0,0,0,309,278,253,229,201,253,364,241,288,267,279,326,0,
2,1786460766128,1043,866,10318,718377,140499,-84299,0,0,0,314,257,262,294,186,263,531,485,192,403,557,189,0,
1,1786460766144,-6221,8954,11246,-3717725,941954,-1688431,0,0,0,312,268,256,227,196,253,363,243,292,267,277,324,0,
2,1786460766144,1019,789,10174,862541,228463,-103847,0,0,0,307,260,282,301,199,277,521,440,206,391,503,192,0,
1,1786460766160,-6781,7800,6939,-2946813,612086,-2186897,0,0,0,319,269,253,228,194,252,362,244,291,271,281,322,0,
2,1786460766160,1182,665,10117,957836,279776,-112399,0,0,0,306,260,285,302,203,281,507,382,222,371,455,197,0,
1,1786460766176,-5393,8269,5953,-3187494,-211359,-2393370,0,0,0,334,269,250,235,195,252,364,244,291,278,283,323,0,
2,1786460766176,1344,550,10021,1006705,282219,-129503,0,0,0,305,255,262,301,198,278,480,340,221,341,423,200,0,
1,1786460766192,-2488,7437,7499,-4241848,-681725,-2505769,0,0,0,336,273,249,236,194,252,366,240,307,277,282,323,0,
2,1786460766192,1469,330,9777,1005484,211359,-153938,0,0,0,299,262,258,301,208,288,457,325,221,315,394,205,0,
1,1786460766208,-1813,5422,8719,-4923573,-452040,-2276083,0,0,0,334,275,249,235,193,251,366,240,316,278,283,323,0,
2,1786460766208,1488,14,9490,934623,84299,-158824,0,0,0,305,268,260,312,218,295,476,306,224,321,362,211,0,
1,1786460766224,-1933,3809,9739,-5472130,-416610,-1665218,0,0,0,330,276,255,235,194,255,367,241,304,279,285,324,0,
2,1786460766224,1464,-186,9270,821002,-35430,-160046,0,0,0,310,260,262,312,212,294,484,261,228,325,338,210,0,
1,1786460766240,-1646,2675,11088,-6048787,-667064,-789237,0,0,0,330,277,256,238,197,257,375,241,303,281,285,324,0,
2,1786460766240,1450,-335,9212,690277,-116064,-167377,0,0,0,299,267,252,315,226,301,482,234,235,308,319,208,0,
1,1786460766256,-1143,1622,12668,-6508158,-873537,-160046,0,0,0,337,282,265,242,200,269,380,244,330,289,286,331,0,
2,1786460766256,1469,-540,9337,566882,-172263,-186924,0,0,0,312,273,256,335,232,318,485,225,256,318,309,217,0,
1,1786460766272,-947,244,14859,-6844134,-1128878,171042,0,0,0,333,282,266,242,201,280,376,241,353,288,287,339,0,
2,1786460766272,1450,-622,9413,476474,-217468,-205250,0,0,0,317,308,272,347,241,336,471,220,238,321,295,224,0,
1,1786460766288,-689,-751,16635,-7027393,-1361007,74525,0,0,0,324,281,282,239,199,291,378,241,357,286,289,344,0,
2,1786460766288,1440,-607,9471,420275,-238237,-232128,0,0,0,318,303,272,355,264,365,463,194,256,284,254,242,0,
1,1786460766304,-942,-1823,18128,-7116580,-1433089,-404392,0,0,0,300,292,275,229,202,281,373,242,353,276,292,326,0,
2,1786460766304,1483,-583,9700,411723,-245567,-280998,0,0,0,304,315,269,382,295,386,491,193,256,326,268,271,0,
1,1786460766320,-2077,-2751,19660,-7040832,-1541823,-917519,0,0,0,311,286,267,233,201,280,377,236,353,275,283,320,0,
2,1786460766320,1588,-607,9987,443488,-271224,-333532,0,0,0,319,362,266,377,310,387,489,193,260,304,264,272,0,
1,1786460766336,-2962,-3924,22268,-6857573,-1893682,-1227839,0,0,0,317,282,264,243,203,278,382,235,343,280,279,313,0,
2,1786460766336,1670,-646,10270,527787,-335975,-394618,0,0,0,355,383,276,411,339,420,501,179,265,330,266,311,0,
1,1786460766352,-1981,-7111,25431,-6785491,-2194227,-1072679,0,0,0,303,283,258,241,202,271,384,225,320,282,284,300,0,
2,1786460766352,1407,-655,10528,689055,-423940,-447153,0,0,0,431,401,298,409,339,415,491,174,273,319,260,330,0,
1,1786460766368,220,-12476,27145,-6768386,-2335948,-607200,0,0,0,292,286,259,237,204,270,385,225,313,275,275,297,0,
2,1786460766368,971,-732,10954,894306,-436157,-459370,0,0,0,416,406,280,420,357,428,466,177,288,292,231,351,0,
1,1786460766384,4417,-20282,27303,-6538701,-2441017,117286,0,0,0,289,290,254,239,215,268,393,238,311,275,274,297,0,
2,1786460766384,775,-765,12208,1260825,-266337,-427605,0,0,0,412,408,230,443,385,424,423,172,310,280,220,354,0,
1,1786460766400,7274,-28595,25455,-5729915,-1776396,592539,0,0,0,289,289,247,248,222,272,403,240,310,283,278,295,0,
2,1786460766400,1028,-842,13701,1806939,-10995,-414166,0,0,0,423,422,197,452,406,427,397,164,337,283,235,367,0,
1,1786460766416,5053,-37410,19837,-4393342,-623082,803898,0,0,0,292,286,251,254,217,278,407,234,312,287,274,298,0,
2,1786460766416,832,-847,14903,2492330,182037,-425162,0,0,0,441,425,198,459,407,449,379,154,342,280,225,386,0,
1,1786460766432,2622,-45388,12514,-2538755,-403171,1060462,0,0,0,296,287,254,252,209,273,410,236,309,291,277,300,0,
2,1786460766432,526,-646,15730,3390302,232128,-367740,0,0,0,458,400,212,461,403,448,333,150,344,274,208,403,0,
1,1786460766448,3311,-49265,8193,-654847,-519235,1059240,0,0,0,308,275,250,256,201,274,427,253,312,301,300,305,0,
2,1786460766448,1411,-708,16104,4265061,255341,-342084,0,0,0,426,374,207,440,407,437,274,140,359,266,203,408,0,
1,1786460766464,3182,-45656,8202,1066570,-588874,477696,0,0,0,327,243,235,259,179,270,469,335,299,325,386,288,0,
2,1786460766464,2799,-804,17051,5148372,283441,-465479,0,0,0,393,372,198,410,408,437,221,118,346,239,183,360,0,
1,1786460766480,2383,-21952,15558,2736676,294437,-588874,0,0,0,284,221,192,236,157,255,508,449,291,376,481,238,0,
2,1786460766480,4436,-1158,19999,6130643,215024,-772133,0,0,0,366,385,205,376,417,421,202,133,322,218,191,315,0,
1,1786460766496,2608,12175,18956,3457497,2894279,-1977981,0,0,0,287,221,196,248,160,263,519,503,304,400,514,234,0,
2,1786460766496,6585,-1909,25111,7149566,100181,-1175304,0,0,0,318,316,198,326,368,369,226,148,283,196,176,274,0,
1,1786460766512,7169,21411,15185,3522248,4768414,-2520429,0,0,0,293,210,197,252,148,260,564,575,302,477,565,232,0,
2,1786460766512,8226,-1995,30902,8038986,243124,-1645670,0,0,0,307,267,191,271,265,273,203,138,206,189,168,234,0,
1,1786460766528,9380,1933,17319,3458718,3921754,-1025031,0,0,0,301,195,260,252,136,277,581,604,321,554,601,228,0,
2,1786460766528,7920,-425,35807,8732929,817337,-2068389,0,0,0,270,186,172,223,146,193,231,159,180,183,201,142,0,
1,1786460766544,4412,-7269,21756,2790432,2236988,332310,0,0,0,306,223,294,263,154,279,611,615,294,614,623,242,0,
2,1786460766544,7169,5417,36142,8839220,1745852,-2359161,0,0,0,238,217,223,195,140,194,248,163,177,214,220,170,0,
1,1786460766560,-282,-2531,20641,1879021,1032362,251676,0,0,0,316,246,337,268,167,279,636,605,290,647,647,267,0,
2,1786460766560,6202,19162,25613,7167892,1907121,-2539977,0,0,0,291,207,207,219,133,178,290,166,169,235,216,161,0,
1,1786460766576,1311,914,15003,1387885,559552,-178372,0,0,0,325,262,385,272,182,298,648,599,310,651,653,283,0,
2,1786460766576,2636,29006,19870,3297450,118507,-1736079,0,0,0,291,203,226,204,133,194,272,171,184,219,216,185,0,
1,1786460766592,1737,947,11586,1089783,57421,-152716,0,0,0,335,278,407,284,191,314,650,593,313,654,655,301,0,
2,1786460766592,3512,25044,17071,-1139874,-3050661,360410,0,0,0,281,202,213,202,132,183,273,176,178,218,216,169,0,
1,1786460766608,153,-387,11155,845437,-333532,41538,0,0,0,345,292,396,290,207,310,656,580,309,649,654,302,0,
2,1786460766608,9145,15975,10562,-2197893,-3336545,1357342,0,0,0,287,202,211,206,128,179,266,167,166,237,231,166,0,
1,1786460766624,-708,33,11203,580321,-371406,6108,0,0,0,350,298,383,299,230,310,656,563,304,637,643,294,0,
2,1786460766624,8939,13491,7480,-2488664,-2119702,1319468,0,0,0,302,202,212,225,125,175,285,168,164,254,235,167,0,
1,1786460766640,-512,875,10911,496022,-309097,-54977,0,0,0,351,303,379,317,252,320,643,542,301,630,628,302,0,
2,1786460766640,4364,13476,8260,-3613878,-1430646,1084896,0,0,0,301,204,211,226,124,175,291,171,165,251,236,164,0,
1,1786460766656,-162,1186,10605,667064,-295658,-53756,0,0,0,357,313,373,324,262,323,637,508,309,614,613,320,0,
2,1786460766656,4359,9968,8743,-5150815,-2046398,983493,0,0,0,308,207,211,228,126,173,305,171,160,252,234,160,0,
1,1786460766672,-157,1033,10476,853989,-332310,-29321,0,0,0,363,324,391,322,248,325,632,468,313,583,582,340,0,
2,1786460766672,5848,5565,8647,-6229603,-1880243,416610,0,0,0,318,206,216,235,129,177,313,169,164,253,231,165,0,
1,1786460766688,-272,827,10442,967610,-376292,-17104,0,0,0,370,326,407,321,246,314,619,443,306,552,531,345,0,
2,1786460766688,4699,3163,9911,-6618113,-1199739,-378736,0,0,0,312,203,227,233,129,183,303,168,167,245,229,164,0,
1,1786460766704,-382,693,10375,1039692,-403171,-17104,0,0,0,378,341,383,330,259,317,616,413,315,488,504,355,0,
2,1786460766704,3527,1512,11600,-6809925,-886976,-893084,0,0,0,302,205,226,225,128,179,292,167,163,238,229,155,0,
1,1786460766720,-588,492,10169,1091005,-365297,-3665,0,0,0,386,349,388,336,267,327,608,362,323,483,482,378,0,
2,1786460766720,3953,760,13218,-6813590,-766025,-822224,0,0,0,305,210,212,226,127,176,292,168,161,240,235,153,0,
1,1786460766736,-813,244,9944,1121548,-259006,19547,0,0,0,372,364,402,352,283,345,604,314,331,476,465,371,0,
2,1786460766736,5312,363,15199,-6890559,-321315,-131946,0,0,0,313,213,212,232,130,174,299,168,158,246,235,149,0,
1,1786460766752,-990,-4,9767,1100779,-111177,63529,0,0,0,392,372,401,354,303,344,591,297,338,455,470,394,0,
2,1786460766752,6369,-268,16822,-7066489,226020,847880,0,0,0,309,216,215,229,135,175,285,163,159,243,233,148,0,
1,1786460766768,-933,-325,9691,998153,19547,141720,0,0,0,409,392,393,358,304,345,594,271,336,441,416,412,0,
2,1786460766768,7245,-1191,17913,-7072597,747699,1874134,0,0,0,300,219,212,238,147,181,270,159,162,243,237,146,0,
1,1786460766784,-670,-612,9739,886976,116064,204028,0,0,0,441,408,389,380,319,341,591,253,337,449,383,431,0,
2,1786460766784,7796,-2081,19669,-6903998,1268156,2574186,0,0,0,297,221,210,237,147,185,307,173,166,240,235,143,0,
1,1786460766800,-612,-674,9868,827111,167377,226020,0,0,0,464,424,399,392,340,347,588,232,339,449,360,453,0,
2,1786460766800,7140,-3680,22703,-6762278,1738522,2660928,0,0,0,308,229,230,242,145,203,300,165,174,235,229,155,0,
1,1786460766816,-732,-703,10021,806342,208915,257785,0,0,0,468,449,393,417,379,358,581,229,358,438,357,471,0,
2,1786460766816,5068,-7398,26403,-6825808,1891238,2062281,0,0,0,291,230,204,244,155,185,311,174,164,235,229,140,0,
1,1786460766832,-842,-760,10351,838107,238237,317649,0,0,0,474,462,386,418,374,364,573,217,370,416,332,495,0,
2,1786460766832,3541,-12514,28906,-6863681,1762957,1374446,0,0,0,286,218,194,249,153,185,318,167,158,230,222,133,0,
1,1786460766848,-947,-847,10887,960280,248011,390953,0,0,0,497,464,379,410,357,378,562,205,378,389,293,515,0,
2,1786460766848,3479,-20995,29265,-6615670,1373225,806342,0,0,0,279,218,184,236,151,171,323,182,178,215,226,124,0,
1,1786460766864,-880,-1038,11337,1171639,230907,489913,0,0,0,518,479,350,413,377,399,546,203,383,368,271,525,0,
2,1786460766864,4029,-32045,25130,-5648059,1108109,474031,0,0,0,270,219,178,221,160,180,294,180,191,205,220,120,0,
1,1786460766880,-86,-1215,11591,1412320,177150,546113,0,0,0,525,497,304,425,404,401,529,197,382,355,258,533,0,
2,1786460766880,52,-41526,19272,-3948632,1413542,397062,0,0,0,275,213,176,230,160,187,294,171,177,207,221,127,0,
1,1786460766896,689,-1196,12237,1674992,134390,466701,0,0,0,534,482,266,443,398,385,517,192,387,346,235,535,0,
2,1786460766896,-5647,-47494,14783,-1958433,1486845,945619,0,0,0,279,214,180,260,180,197,289,165,162,210,219,128,0,
1,1786460766912,780,-1162,13275,2013411,72082,334754,0,0,0,525,494,241,436,398,392,504,187,382,340,227,546,0,
2,1786460766912,-3397,-50408,11768,-129503,687834,1626123,0,0,0,287,208,182,240,163,176,301,242,160,247,324,128,0,
1,1786460766928,248,-1263,14060,2447126,-32986,256563,0,0,0,533,504,237,441,406,415,486,181,362,343,211,571,0,
2,1786460766928,-1785,-40861,15357,1949881,312763,1808161,0,0,0,274,197,154,236,165,172,314,393,147,271,453,111,0,
1,1786460766944,-277,-1454,14587,3031113,-153938,255341,0,0,0,535,483,206,428,393,436,443,176,374,304,180,564,0,
2,1786460766944,-4474,-7772,18210,3748269,-278554,1501506,0,0,0,274,190,148,252,161,186,337,481,150,312,557,119,0,
1,1786460766960,-851,-1588,15506,3728721,-219911,310319,0,0,0,515,460,222,428,383,451,409,170,358,291,166,560,0,
2,1786460766960,-6044,11361,16645,4806287,-1236391,439822,0,0,0,276,187,167,262,151,200,375,556,162,388,650,130,0,
1,1786460766976,-1450,-1550,17549,4537506,-186924,449596,0,0,0,499,434,230,421,384,446,366,177,359,261,156,494,0,
2,1786460766976,-3038,3407,18353,5374392,-1060462,-924849,0,0,0,281,199,206,252,149,211,419,633,183,432,694,133,0,
1,1786460766992,-2675,-1574,20851,5519778,-124616,657290,0,0,0,448,411,231,398,382,439,332,182,379,239,157,460,0,
2,1786460766992,1497,-5364,23574,5136154,222354,-1198517,0,0,0,290,209,230,256,150,219,468,665,189,436,692,136,0,
1,1786460767008,-4594,-1698,25048,6615670,-40317,932180,0,0,0,396,391,234,374,352,406,312,188,361,228,160,404,0,
2,1786460767008,3871,-4178,22392,3601661,692721,-735481,0,0,0,294,210,236,272,154,238,487,662,191,455,689,147,0,
1,1786460767024,-6781,-1378,29542,7772649,-42760,1317025,0,0,0,364,359,215,332,316,338,326,192,322,235,170,374,0,
2,1786460767024,3259,-1311,15931,2090380,282219,-284663,0,0,0,310,221,248,279,154,249,503,656,190,492,694,149,0,
1,1786460767040,-7566,382,33213,8732929,-878424,1821600,0,0,0,316,294,219,261,234,276,348,210,297,244,219,331,0,
2,1786460767040,1612,-33,10897,1227839,-14660,-94073,0,0,0,329,234,251,286,153,237,546,648,163,511,701,139,0,
1,1786460767056,-6910,4603,36319,9250943,-2063502,2425134,0,0,0,292,264,248,228,190,264,361,224,304,252,259,321,0,
2,1786460767056,1368,95,9729,808785,-67195,-46425,0,0,0,314,234,257,279,161,242,539,625,172,506,700,154,0,
1,1786460767072,-6728,14414,28647,8665734,-2343279,3120299,0,0,0,296,267,266,228,187,272,363,221,326,257,260,332,0,
2,1786460767072,1832,71,10653,649960,-183259,-59864,0,0,0,313,244,303,274,164,257,559,593,190,507,679,190,0,
1,1786460767088,-6542,21325,16965,4864930,-1141096,3086091,0,0,0,301,264,261,228,187,267,368,222,324,261,256,333,0,
2,1786460767088,1521,425,10772,579100,-357967,-87964,0,0,0,307,248,310,276,170,268,564,559,203,483,640,205,0,
1,1786460767104,-5001,19913,14060,-322536,84299,1800830,0,0,0,304,263,255,227,189,259,371,232,304,263,265,333,0,
2,1786460767104,966,607,10490,605978,-353080,-114842,0,0,0,305,268,286,279,183,281,525,524,221,468,593,201,0,
1,1786460767120,-4972,12213,12567,-3398854,1106887,-89186,0,0,0,304,271,267,219,184,250,360,231,299,257,264,326,0,
2,1786460767120,631,588,10251,695164,-128281,-125838,0,0,0,311,268,286,288,175,306,502,453,247,455,567,213,0,
1,1786460767136,-7623,8088,7695,-2968805,680503,-1178969,0,0,0,308,276,270,220,185,253,359,235,308,259,264,322,0,
2,1786460767136,603,603,10155,800233,142942,-120951,0,0,0,311,275,279,287,187,293,482,419,242,417,530,206,0,
1,1786460767152,-6489,8284,5240,-2596177,-1004262,-1720196,0,0,0,308,277,268,219,186,253,359,235,301,260,270,321,0,
2,1786460767152,875,727,10174,900415,304210,-111177,0,0,0,315,277,273,298,191,282,462,362,207,394,461,211,0,
1,1786460767168,-1325,8714,7001,-3423288,-1868025,-2155132,0,0,0,306,279,270,217,189,255,363,237,303,257,272,317,0,
2,1786460767168,1287,626,10126,994488,285884,-135612,0,0,0,309,279,261,305,205,272,433,318,180,376,457,211,0,
1,1786460767184,469,6676,8633,-4411668,-1233947,-2449569,0,0,0,306,275,270,218,188,258,375,237,312,260,272,320,0,
2,1786460767184,1478,272,9830,1027475,122173,-172263,0,0,0,323,303,268,292,192,261,429,298,188,362,447,206,0,
1,1786460767200,0,4498,9116,-4985882,-1004262,-2135584,0,0,0,301,274,266,219,187,256,375,239,306,258,273,316,0,
2,1786460767200,1301,-191,9375,954171,-109955,-182037,0,0,0,329,314,266,308,208,278,420,251,188,365,397,197,0,
1,1786460767216,435,2986,9724,-5299866,-1417207,-1249830,0,0,0,299,273,265,220,189,256,377,240,306,255,271,313,0,
2,1786460767216,1067,-569,9193,802676,-219911,-157603,0,0,0,324,309,270,337,235,302,418,232,198,358,352,199,0,
1,1786460767232,2431,2412,11744,-5594303,-1710422,-295658,0,0,0,299,276,265,223,196,259,374,240,303,255,275,310,0,
2,1786460767232,990,-717,9227,673173,-226020,-146607,0,0,0,339,317,275,360,255,316,432,220,208,347,330,214,0,
1,1786460767248,3996,2316,14146,-5952270,-1733635,190589,0,0,0,299,277,266,222,196,261,371,241,303,253,279,310,0,
2,1786460767248,1057,-693,9418,598647,-180816,-160046,0,0,0,355,332,267,370,277,321,437,196,210,353,320,232,0,
1,1786460767264,5288,1923,16305,-6381098,-1717753,100181,0,0,0,300,280,266,228,196,261,382,242,299,260,282,309,0,
2,1786460767264,1158,-622,9715,585208,-160046,-189368,0,0,0,356,334,263,371,291,346,424,177,223,345,293,261,0,
1,1786460767280,6087,823,17942,-6655987,-1578475,-370184,0,0,0,298,281,265,233,198,262,386,242,298,263,282,305,0,
2,1786460767280,1311,-646,9964,613308,-157603,-230907,0,0,0,374,330,274,376,288,378,406,165,241,319,257,287,0,
1,1786460767296,5283,-473,18923,-6643770,-1174082,-994488,0,0,0,298,278,263,254,215,264,382,242,300,263,282,300,0,
2,1786460767296,1368,-751,10112,668286,-147829,-291993,0,0,0,408,338,271,389,293,380,390,155,245,318,247,297,0,
1,1786460767312,2450,-1545,20138,-6594901,-674395,-1440420,0,0,0,297,273,255,261,221,267,379,239,303,268,285,298,0,
2,1786460767312,1335,-780,10543,779464,-149051,-354301,0,0,0,422,350,263,416,315,415,380,153,256,309,234,336,0,
1,1786460767328,-1182,-3038,22225,-6691417,-576656,-1196074,0,0,0,295,272,252,239,203,272,380,234,305,278,288,300,0,
2,1786460767328,1416,-813,11246,1001818,-210137,-410501,0,0,0,468,379,261,429,318,411,373,150,275,328,237,359,0,
1,1786460767344,-3096,-6082,25015,-6855129,-719599,-312763,0,0,0,301,275,262,244,197,278,386,230,305,280,281,303,0,
2,1786460767344,1330,-1005,11797,1317025,-257785,-461814,0,0,0,456,401,248,402,340,428,319,161,277,312,239,375,0,
1,1786460767360,-2201,-12361,26661,-6828251,-825889,667064,0,0,0,301,275,257,252,201,276,395,226,302,280,268,303,0,
2,1786460767360,918,-1167,12222,1650557,-271224,-478918,0,0,0,464,416,262,408,363,442,311,121,289,312,261,389,0,
1,1786460767376,162,-21296,26168,-6409198,-1016479,1117883,0,0,0,296,272,252,258,207,284,398,218,305,292,264,309,0,
2,1786460767376,483,-1153,13065,2056172,-251676,-430049,0,0,0,461,449,223,410,382,439,288,118,320,344,280,384,0,
1,1786460767392,3000,-31648,23125,-5429370,-1056796,992045,0,0,0,299,278,260,258,205,287,407,227,309,279,263,307,0,
2,1786460767392,804,-1095,14113,2615724,-234572,-365297,0,0,0,461,462,188,438,405,402,237,162,271,285,255,366,0,
1,1786460767408,4790,-38975,17535,-3882659,-719599,806342,0,0,0,304,282,264,262,208,291,410,235,310,282,274,316,0,
2,1786460767408,1450,-1215,14859,3286454,-234572,-372627,0,0,0,467,459,213,387,390,420,192,149,298,269,268,371,0,
1,1786460767424,6762,-44393,12490,-2151467,-447153,604756,0,0,0,301,279,257,283,234,285,411,240,310,283,286,319,0,
2,1786460767424,2349,-1349,15927,4216191,-248011,-518013,0,0,0,456,445,214,381,392,409,154,138,283,246,235,333,0,
1,1786460767440,7240,-47044,9523,-377514,59864,61086,0,0,0,287,247,220,251,182,259,458,364,284,318,401,276,0,
2,1786460767440,3412,-1373,17707,5123937,-287106,-759916,0,0,0,408,432,219,376,397,422,145,131,282,217,205,312,0,
1,1786460767456,3651,-37913,12859,1640784,1064127,-869872,0,0,0,281,213,194,242,155,256,500,463,285,379,481,247,0,
2,1786460767456,4776,-1794,20827,6109874,-439822,-1100779,0,0,0,379,416,225,364,390,402,159,140,269,183,173,262,0,
1,1786460767472,1837,-12356,15941,3380528,2734232,-1496619,0,0,0,282,210,184,265,172,249,524,522,299,431,530,228,0,
2,1786460767472,6503,-2708,25953,7160562,-813672,-1494176,0,0,0,326,386,198,319,357,325,154,138,214,178,184,220,0,
1,1786460767488,4484,10016,16592,3942524,4087910,-1318247,0,0,0,291,213,209,246,150,243,558,554,301,486,575,220,0,
2,1786460767488,8710,-3091,32012,8062199,-1082453,-1891238,0,0,0,281,311,197,272,271,297,183,142,184,189,190,194,0,
1,1786460767504,5527,4302,18932,3850894,3437949,-260228,0,0,0,295,221,267,254,148,264,589,569,295,572,608,220,0,
2,1786460767504,8705,-1483,37449,8703607,-857654,-2302961,0,0,0,275,226,200,233,168,230,243,150,176,217,210,177,0,
1,1786460767520,2876,-3718,21794,3472158,2001194,335975,0,0,0,319,253,331,286,174,285,603,578,292,623,626,248,0,
2,1786460767520,9069,6412,35175,8588765,-817337,-2519208,0,0,0,276,194,201,215,130,187,265,156,179,235,227,171,0,
1,1786460767536,1038,-4441,20803,2498438,967610,200363,0,0,0,339,284,388,299,201,296,621,584,300,641,640,277,0,
2,1786460767536,11744,20004,23220,7182553,-967610,-2480112,0,0,0,273,200,205,206,137,192,250,157,186,235,229,171,0,
1,1786460767552,1402,-1139,15357,1381777,519235,24434,0,0,0,344,301,403,301,221,303,640,587,314,655,654,295,0,
2,1786460767552,10882,29389,16109,3148399,-1018923,-1361007,0,0,0,273,210,206,200,145,189,243,160,182,225,230,166,0,
1,1786460767568,1086,282,11758,783129,97738,2443,0,0,0,345,319,391,307,233,316,651,586,324,660,660,312,0,
2,1786460767568,6111,24091,16558,-1513724,-1997529,1166752,0,0,0,272,220,203,200,157,180,250,168,170,216,234,157,0,
1,1786460767584,181,220,10677,591317,-312763,0,0,0,0,341,338,415,309,242,336,656,573,325,665,660,321,0,
2,1786460767584,7154,15041,11969,-3532022,-3220481,2951700,0,0,0,278,224,205,205,165,182,259,173,171,223,239,161,0,
1,1786460767600,-244,387,10796,574213,-449596,-39095,0,0,0,353,350,427,308,247,331,635,536,326,660,644,329,0,
2,1786460767600,10083,11548,6637,-3429397,-2293188,2797762,0,0,0,285,228,209,220,161,188,272,171,177,235,241,164,0,
1,1786460767616,-301,746,10916,627969,-456927,-56199,0,0,0,357,366,431,317,270,329,644,526,335,630,610,335,0,
2,1786460767616,7518,11117,6417,-3943745,-834441,2193006,0,0,0,293,227,206,226,163,183,280,175,169,239,247,157,0,
1,1786460767632,-196,866,10787,759916,-442266,-45204,0,0,0,356,345,405,333,251,333,638,502,333,610,566,348,0,
2,1786460767632,2593,9471,9375,-5363396,-492357,1639562,0,0,0,288,227,213,224,163,187,290,175,176,236,241,163,0,
1,1786460767648,-272,684,10562,872315,-486248,-28099,0,0,0,359,346,403,339,249,339,628,453,351,591,517,354,0,
2,1786460767648,3244,5656,9897,-6290690,-981049,957836,0,0,0,291,225,212,224,164,188,281,174,175,234,237,162,0,
1,1786460767664,-344,612,10466,955393,-525344,-9773,0,0,0,362,347,401,345,247,346,618,404,370,573,468,360,0,
2,1786460767664,3981,2613,10375,-6745173,-856433,-52534,0,0,0,288,226,209,224,170,187,281,174,171,236,244,161,0,
1,1786460767680,-378,564,10418,1039692,-554665,2443,0,0,0,373,345,371,338,255,349,610,352,376,487,451,386,0,
2,1786460767680,2986,1464,12117,-6825808,-392175,-888198,0,0,0,293,231,224,227,167,194,286,181,178,233,244,166,0,
1,1786460767696,-569,411,10246,1134987,-548556,4886,0,0,0,381,376,370,346,274,361,599,326,367,461,417,398,0,
2,1786460767696,2517,1368,14572,-6922324,-222354,-748920,0,0,0,300,228,229,227,157,194,287,173,177,238,244,161,0,
1,1786460767712,-947,148,10007,1167974,-487470,28099,0,0,0,388,383,354,358,296,362,548,301,376,444,400,416,0,
2,1786460767712,3383,1043,16467,-7115358,-8552,-3665,0,0,0,294,210,228,226,138,196,290,166,176,241,241,164,0,
1,1786460767728,-1249,-268,9724,1093448,-366519,97738,0,0,0,400,385,365,364,299,367,548,258,383,436,380,435,0,
2,1786460767728,5005,201,17678,-7299839,432492,1208291,0,0,0,286,211,228,215,138,198,258,162,180,224,239,169,0,
1,1786460767744,-1335,-598,9595,951728,-229685,197920,0,0,0,408,400,360,371,307,370,555,234,380,418,340,450,0,
2,1786460767744,6580,-904,18750,-7206988,1004262,2293188,0,0,0,299,210,226,222,129,198,270,157,177,232,236,162,0,
1,1786460767760,-1344,-717,9715,851546,-74525,293215,0,0,0,429,414,339,385,327,367,563,217,371,398,304,467,0,
2,1786460767760,7944,-2110,20703,-6989520,1621236,2844188,0,0,0,304,210,225,230,127,197,280,154,175,235,231,157,0,
1,1786460767776,-1340,-727,9901,830776,96516,373849,0,0,0,450,417,332,392,342,369,568,203,374,386,284,487,0,
2,1786460767776,7968,-4077,24015,-6853907,2262644,2552194,0,0,0,304,217,222,234,134,197,279,154,169,232,231,160,0,
1,1786460767792,-1119,-875,10102,835663,213802,444709,0,0,0,460,424,327,396,348,380,565,204,378,377,272,504,0,
2,1786460767792,5388,-8226,28738,-6917437,2583959,1703092,0,0,0,303,224,216,240,143,199,283,155,168,228,234,159,0,
1,1786460767808,-818,-1052,10528,897971,259006,489913,0,0,0,475,437,320,411,354,391,563,200,376,375,261,516,0,
2,1786460767808,2723,-14438,31394,-7007846,2312735,1087340,0,0,0,294,231,213,232,156,204,278,168,178,219,245,158,0,
1,1786460767824,-765,-1119,11026,1067792,265115,518013,0,0,0,497,445,319,424,368,390,545,188,381,381,246,533,0,
2,1786460767824,440,-25575,29935,-6564357,1859473,675616,0,0,0,283,231,210,222,168,212,270,183,182,209,253,158,0,
1,1786460767840,-454,-1186,11270,1287703,268780,540004,0,0,0,513,459,293,427,394,389,527,184,384,370,228,547,0,
2,1786460767840,-3321,-38075,25943,-5307197,1555262,191811,0,0,0,281,224,208,229,168,213,277,182,177,209,247,156,0,
1,1786460767856,387,-1325,11256,1499063,237015,497244,0,0,0,523,477,273,430,392,376,512,179,403,356,210,553,0,
2,1786460767856,-6843,-48891,19344,-3382971,867428,-228463,0,0,0,284,223,213,227,163,207,285,175,182,216,236,161,0,
1,1786460767872,952,-1474,11639,1695761,140499,356745,0,0,0,529,478,232,437,416,376,495,186,411,359,209,552,0,
2,1786460767872,-4580,-55084,12304,-1486845,-94073,-298102,0,0,0,282,219,214,225,158,206,295,194,182,222,251,160,0,
1,1786460767888,86,-1531,13333,2046398,14660,196698,0,0,0,543,456,225,423,401,402,474,174,392,333,193,560,0,
2,1786460767888,-1296,-53357,9270,636521,-224798,17104,0,0,0,273,206,202,236,161,202,319,285,167,240,368,138,0,
1,1786460767904,-1086,-1651,14644,2544864,-28099,199142,0,0,0,544,461,217,434,400,392,455,175,359,319,185,551,0,
2,1786460767904,-2268,-26412,17420,2649933,-119729,810007,0,0,0,261,181,163,233,158,179,324,397,150,263,485,124,0,
1,1786460767920,-1062,-1670,15242,3183829,-31764,304210,0,0,0,539,460,217,425,386,393,434,179,351,306,183,548,0,
2,1786460767920,-3263,8250,19305,4047593,-1105666,1266934,0,0,0,261,199,155,220,156,168,312,441,153,321,589,142,0,
1,1786460767936,-799,-1579,16099,3871663,-18325,384845,0,0,0,527,453,217,416,389,410,374,188,348,280,170,521,0,
2,1786460767936,-5015,16266,15056,5021312,-2128254,532674,0,0,0,264,200,233,223,156,228,366,576,202,357,653,163,0,
1,1786460767952,-1344,-1651,17645,4709770,0,478918,0,0,0,493,446,224,407,391,416,333,184,350,264,169,484,0,
2,1786460767952,-4393,-1923,18693,5602855,-1160643,-654847,0,0,0,299,193,218,263,146,204,461,618,150,454,675,133,0,
1,1786460767968,-3082,-2124,20473,5678603,-4886,659734,0,0,0,431,434,221,392,396,400,301,207,350,246,203,421,0,
2,1786460767968,1043,-7805,25618,4470311,420275,-1016479,0,0,0,305,206,268,260,148,225,462,624,189,504,697,153,0,
1,1786460767984,-6484,-2828,26527,6956533,-10995,1056796,0,0,0,394,410,226,363,371,367,292,202,329,232,194,379,0,
2,1786460767984,4848,-3766,22627,2531425,367740,-596204,0,0,0,315,225,257,257,156,220,476,624,172,534,696,158,0,
1,1786460768000,-9638,-2684,31141,8029212,-267558,1571145,0,0,0,353,369,221,314,311,317,310,211,304,237,186,355,0,
2,1786460768000,2378,-425,13859,1244943,-134390,-114842,0,0,0,323,230,254,264,156,236,502,612,192,544,691,185,0,
1,1786460768016,-9681,124,36247,9056688,-1403768,2417804,0,0,0,308,306,224,264,239,283,347,232,315,270,225,337,0,
2,1786460768016,95,684,8815,667064,0,25656,0,0,0,324,227,248,277,165,233,498,616,177,537,690,168,0,
1,1786460768032,-7599,6982,37755,9418320,-2251649,3196046,0,0,0,298,265,244,245,199,276,372,223,328,297,260,328,0,
2,1786460768032,847,143,9562,613308,338419,-42760,0,0,0,326,240,250,285,172,234,513,606,166,523,679,155,0,
1,1786460768048,-6570,18836,25604,8233241,-1571145,3777590,0,0,0,299,273,239,242,205,263,368,226,294,281,260,318,0,
2,1786460768048,1828,315,10614,515570,186924,-50090,0,0,0,326,260,264,278,179,241,514,577,177,506,654,166,0,
1,1786460768064,-6695,22589,16400,3429397,53756,3018896,0,0,0,302,271,242,232,197,257,368,235,294,267,264,322,0,
2,1786460768064,1722,837,10677,497244,-84299,-50090,0,0,0,322,263,274,276,182,254,492,540,188,487,619,176,0,
1,1786460768080,-5953,18219,14687,-1506393,985936,1193630,0,0,0,304,276,249,236,200,265,371,240,305,268,270,334,0,
2,1786460768080,1191,923,10346,612086,-136833,-72082,0,0,0,329,266,278,293,186,266,486,482,188,465,592,176,0,
1,1786460768096,-6475,10624,12031,-3384193,1354899,-675616,0,0,0,304,275,251,233,200,266,370,246,302,264,276,330,0,
2,1786460768096,837,832,10150,736703,-78190,-87964,0,0,0,340,284,300,310,205,275,481,415,193,442,567,186,0,
1,1786460768112,-7451,8164,6862,-2576629,284663,-1679879,0,0,0,309,270,250,235,196,269,360,250,302,263,277,330,0,
2,1786460768112,871,823,10122,821002,20769,-86742,0,0,0,344,292,333,322,220,287,475,368,203,424,528,200,0,
1,1786460768128,-4091,9002,6106,-2662150,-1084896,-2193006,0,0,0,310,271,250,233,196,265,363,251,299,269,284,329,0,
2,1786460768128,1057,827,10117,904080,68416,-85521,0,0,0,336,304,342,317,217,293,453,319,210,400,497,210,0,
1,1786460768144,392,8619,7997,-3711617,-1224173,-2720793,0,0,0,311,279,257,231,197,263,359,250,296,261,282,320,0,
2,1786460768144,1234,646,9935,962723,52534,-97738,0,0,0,314,319,342,313,226,311,418,285,216,345,451,213,0,
1,1786460768160,263,6365,9002,-4637688,-442266,-2855184,0,0,0,306,280,253,229,197,258,356,248,293,257,279,309,0,
2,1786460768160,1287,196,9571,945619,-10995,-117286,0,0,0,318,361,346,299,221,298,405,247,220,336,413,223,0,
1,1786460768176,-981,4436,9451,-5266880,-387288,-2334726,0,0,0,308,281,255,233,199,261,359,247,289,264,277,309,0,
2,1786460768176,1282,-287,9351,838107,-79412,-133168,0,0,0,312,348,314,309,254,313,402,224,223,334,366,241,0,
1,1786460768192,33,3484,10801,-5810550,-897971,-1358564,0,0,0,308,284,254,235,201,263,360,250,290,265,280,308,0,
2,1786460768192,1392,-459,9471,741590,-138055,-167377,0,0,0,325,324,255,323,247,309,383,191,215,332,345,221,0,
1,1786460768208,1521,2938,12730,-6356663,-1088561,-586430,0,0,0,305,288,257,233,201,266,360,251,298,261,281,309,0,
2,1786460768208,1545,-373,9748,720820,-232128,-224798,0,0,0,353,336,267,324,260,331,372,178,257,332,335,257,0,
1,1786460768224,2464,2340,14926,-6847799,-1025031,-210137,0,0,0,298,286,257,233,202,273,362,249,306,258,279,311,0,
2,1786460768224,1445,-363,9825,745255,-362853,-295658,0,0,0,348,370,261,344,293,352,369,172,243,329,338,242,0,
1,1786460768240,3072,1450,16822,-7070154,-1056796,-367740,0,0,0,292,281,255,237,205,280,351,241,311,260,274,314,0,
2,1786460768240,1220,-488,9858,769690,-426383,-348193,0,0,0,357,366,278,353,321,370,373,182,259,323,322,264,0,
1,1786460768256,3354,536,18736,-7079928,-1054353,-823446,0,0,0,292,283,256,236,204,278,347,234,315,263,270,314,0,
2,1786460768256,1033,-665,10136,818559,-405614,-370184,0,0,0,379,386,277,361,366,380,356,184,278,303,294,282,0,
1,1786460768272,2421,-138,20937,-6987076,-910189,-1442863,0,0,0,294,287,252,233,200,270,374,234,313,266,272,309,0,
2,1786460768272,957,-751,10433,910189,-381179,-382401,0,0,0,395,386,267,390,365,394,354,179,270,325,260,296,0,
1,1786460768288,-100,-1229,23541,-7053050,-818559,-1711644,0,0,0,294,286,244,239,203,271,382,231,312,273,272,305,0,
2,1786460768288,971,-856,10868,1064127,-357967,-401949,0,0,0,417,402,289,393,367,408,345,172,268,317,248,306,0,
1,1786460768304,-2914,-4441,26771,-7275404,-933402,-1411098,0,0,0,297,286,248,241,203,282,383,227,334,275,266,312,0,
2,1786460768304,933,-971,11390,1309695,-332310,-431270,0,0,0,442,413,299,382,365,421,317,159,291,284,248,345,0,
1,1786460768320,-4154,-10681,29059,-7513642,-1044579,-575435,0,0,0,292,286,242,246,210,281,390,242,336,268,274,310,0,
2,1786460768320,670,-1028,11677,1594358,-293215,-443488,0,0,0,465,410,267,397,359,424,294,158,296,287,266,374,0,
1,1786460768336,-3374,-19363,29131,-7378030,-1075122,175929,0,0,0,309,286,243,266,207,277,409,238,318,289,262,303,0,
2,1786460768336,349,-1076,12055,1914451,-237015,-406836,0,0,0,467,439,246,408,375,428,288,163,278,293,283,374,0,
1,1786460768352,-4,-29978,26475,-6371324,-1055575,486248,0,0,0,303,277,248,260,200,277,407,217,304,280,241,299,0,
2,1786460768352,579,-1177,13084,2322509,-213802,-345749,0,0,0,456,467,258,394,387,440,261,172,260,262,277,388,0,
1,1786460768368,3058,-39573,20914,-4779409,-662177,307876,0,0,0,311,295,240,281,222,277,388,233,301,294,249,298,0,
2,1786460768368,1373,-1354,14189,2890614,-240680,-345749,0,0,0,478,448,253,392,393,433,188,195,240,234,282,400,0,
1,1786460768384,3613,-46666,13630,-2787988,-315206,-100181,0,0,0,312,285,250,276,211,291,419,245,318,292,281,321,0,
2,1786460768384,2239,-1536,15022,3576005,-312763,-460592,0,0,0,473,460,243,388,429,416,158,174,250,235,267,379,0,
1,1786460768400,3139,-50681,8997,-817337,-118507,-456927,0,0,0,284,246,210,257,183,266,456,332,283,330,388,281,0,
2,1786460768400,2890,-1665,16444,4423886,-448375,-701273,0,0,0,465,485,216,398,442,407,147,167,290,244,243,358,0,
1,1786460768416,1229,-47437,10993,1110553,279776,-803898,0,0,0,277,218,185,251,162,261,486,442,264,385,482,245,0,
2,1786460768416,3795,-1770,19133,5312084,-613308,-988379,0,0,0,427,458,227,370,377,362,147,165,208,220,207,264,0,
1,1786460768432,660,-20784,15573,3554013,2010968,-1022588,0,0,0,282,212,184,243,152,260,510,535,306,445,541,232,0,
2,1786460768432,5848,-2297,23326,6360328,-880867,-1368338,0,0,0,396,423,237,342,345,359,166,144,233,200,176,228,0,
1,1786460768448,2962,5565,17257,4565606,3572339,-857654,0,0,0,289,208,205,244,145,260,537,576,310,497,573,227,0,
2,1786460768448,8772,-3570,28887,7474547,-1185078,-1874134,0,0,0,309,343,217,294,310,318,157,143,210,184,189,195,0,
1,1786460768464,5192,7264,19894,4439768,3406184,-235793,0,0,0,292,216,265,251,141,273,560,596,300,552,608,228,0,
2,1786460768464,10078,-3077,34309,8431162,-850324,-2436130,0,0,0,281,256,201,255,193,230,228,145,193,178,195,159,0,
1,1786460768480,3335,-1426,22761,3991393,1893682,289550,0,0,0,309,251,351,261,163,288,594,597,310,604,637,250,0,
2,1786460768480,8686,1785,38248,8743925,-224798,-2861292,0,0,0,270,211,207,205,148,195,233,170,175,204,227,169,0,
1,1786460768496,741,-4546,21287,3158173,680503,346971,0,0,0,332,287,410,283,200,301,626,576,302,627,649,283,0,
2,1786460768496,9739,11959,31950,8030434,-427605,-3018896,0,0,0,266,206,206,197,141,189,230,168,168,214,234,171,0,
1,1786460768512,138,-1943,16319,2072054,432492,144164,0,0,0,338,310,433,299,227,315,630,570,310,630,664,309,0,
2,1786460768512,12270,24450,19679,5131268,-1080009,-2448347,0,0,0,275,209,210,199,139,184,233,167,164,218,240,170,0,
1,1786460768528,507,-583,12514,1149648,245567,21991,0,0,0,362,333,453,316,237,326,647,571,318,635,657,326,0,
2,1786460768528,9289,25862,15965,287106,-1247386,-122173,0,0,0,276,210,212,202,137,184,236,169,167,218,242,173,0,
1,1786460768544,497,-124,10859,696386,-174707,-36651,0,0,0,366,340,451,331,250,353,648,557,326,632,646,342,0,
2,1786460768544,7384,18157,11931,-2588846,-1777617,2537534,0,0,0,276,212,216,197,131,186,229,163,168,217,255,169,0,
1,1786460768560,-43,201,10835,675616,-474031,-48869,0,0,0,374,355,437,333,266,348,651,533,364,640,614,352,0,
2,1786460768560,9983,13314,6489,-2488664,-1045801,3279124,0,0,0,279,214,223,195,131,191,231,165,172,218,261,166,0,
1,1786460768576,-339,540,10997,741590,-563217,-39095,0,0,0,381,366,432,325,263,329,651,528,348,614,589,350,0,
2,1786460768576,8245,12065,5111,-2718350,455705,3188716,0,0,0,279,215,223,198,138,194,238,177,177,218,262,166,0,
1,1786460768592,-363,650,10916,844215,-557109,-18325,0,0,0,388,367,430,333,261,343,634,480,347,567,549,365,0,
2,1786460768592,2517,11347,7743,-3775147,1134987,2802649,0,0,0,274,215,223,199,142,194,237,182,178,217,266,167,0,
1,1786460768608,-411,492,10614,940732,-558330,1221,0,0,0,383,371,409,339,273,348,621,404,346,538,518,387,0,
2,1786460768608,1095,8207,9365,-5001764,357967,2265088,0,0,0,274,212,229,205,141,198,241,177,179,220,261,168,0,
1,1786460768624,-464,421,10466,1004262,-544891,17104,0,0,0,383,358,379,343,271,352,612,356,364,529,491,397,0,
2,1786460768624,1789,4661,10064,-5970596,0,1166752,0,0,0,279,213,224,209,142,197,247,176,180,223,260,168,0,
1,1786460768640,-478,416,10375,1065348,-535117,28099,0,0,0,386,358,357,356,273,356,586,322,369,482,438,403,0,
2,1786460768640,1014,2742,11237,-6464175,290771,-105068,0,0,0,276,210,232,206,140,205,243,173,184,220,258,174,0,
1,1786460768656,-559,186,10136,1111774,-541226,41538,0,0,0,392,366,355,351,273,351,556,326,375,453,399,413,0,
2,1786460768656,-526,2340,13141,-6715852,471587,-906524,0,0,0,280,213,217,205,138,191,245,177,177,217,255,160,0,
1,1786460768672,-784,-248,9734,1054353,-498466,70860,0,0,0,395,373,350,349,279,346,555,291,376,437,363,426,0,
2,1786460768672,-1148,2493,15309,-6913772,654847,-1049466,0,0,0,284,216,221,211,144,197,249,181,181,216,259,161,0,
1,1786460768688,-1052,-526,9437,929736,-399505,117286,0,0,0,407,378,341,354,286,343,566,246,378,421,334,436,0,
2,1786460768688,-837,2134,17425,-7105584,908967,-449596,0,0,0,282,217,221,206,142,197,243,177,178,217,267,166,0,
1,1786460768704,-1196,-665,9404,791681,-234572,184481,0,0,0,418,380,336,362,295,357,561,226,379,404,312,451,0,
2,1786460768704,-62,1091,19047,-7192327,1144761,315206,0,0,0,276,211,212,211,142,193,241,173,178,210,256,153,0,
1,1786460768720,-1191,-789,9495,686612,-70860,248011,0,0,0,429,386,344,372,306,373,548,213,374,393,292,465,0,
2,1786460768720,1048,-248,20885,-7127575,1403768,979827,0,0,0,286,212,219,213,149,201,240,173,173,216,259,155,0,
1,1786460768736,-1033,-904,9705,624304,51312,299323,0,0,0,448,397,354,384,317,373,550,212,375,389,282,474,0,
2,1786460768736,1335,-2057,24115,-7087258,1673770,950506,0,0,0,288,212,217,221,147,201,250,169,170,227,256,159,0,
1,1786460768752,-861,-904,9949,616973,158824,321315,0,0,0,456,412,337,399,339,390,558,217,382,379,276,499,0,
2,1786460768752,119,-4986,28020,-7188662,1798387,401949,0,0,0,288,212,241,218,143,214,246,165,186,223,255,168,0,
1,1786460768768,-751,-981,10088,641408,250454,335975,0,0,0,486,439,334,417,359,390,542,194,378,377,254,515,0,
2,1786460768768,-2091,-9523,30997,-7369478,1650557,-161268,0,0,0,298,225,226,227,157,209,257,167,183,231,256,162,0,
1,1786460768784,-641,-1148,10217,686612,296880,343306,0,0,0,498,459,323,451,395,384,554,200,391,367,246,522,0,
2,1786460768784,-3704,-17731,31552,-7208209,1299921,-135612,0,0,0,297,226,228,231,160,210,263,167,185,233,254,163,0,
1,1786460768800,-559,-1196,10624,780685,270002,345749,0,0,0,498,457,347,419,376,392,546,200,387,367,249,531,0,
2,1786460768800,-3292,-28643,29054,-6398202,895528,164933,0,0,0,302,221,218,247,161,210,277,162,177,240,251,160,0,
1,1786460768816,-287,-1239,11088,944397,211359,345749,0,0,0,508,468,281,432,379,383,556,178,382,369,215,542,0,
2,1786460768816,-3091,-39870,22871,-4748866,821002,371406,0,0,0,301,224,219,250,166,214,282,163,175,240,253,161,0,
1,1786460768832,153,-1306,11562,1163087,127059,315206,0,0,0,513,484,265,439,403,391,526,167,384,353,207,556,0,
2,1786460768832,-6920,-47159,16429,-2681698,878424,494800,0,0,0,288,227,221,233,170,217,269,174,181,227,245,170,0,
1,1786460768848,291,-1335,12409,1430646,40317,240680,0,0,0,530,485,240,443,422,397,500,176,375,335,196,556,0,
2,1786460768848,-8714,-51777,12328,-878424,500909,590095,0,0,0,272,225,208,220,175,209,273,251,177,216,303,159,0,
1,1786460768864,-291,-1383,13577,1847256,8552,180816,0,0,0,526,473,217,437,413,395,466,174,353,327,189,559,0,
2,1786460768864,-7934,-49045,14170,882089,-277332,394618,0,0,0,261,216,186,222,171,197,309,380,166,236,435,134,0,
1,1786460768880,-823,-1512,14367,2441017,8552,196698,0,0,0,520,471,212,431,405,407,436,176,346,308,185,559,0,
2,1786460768880,-4996,-17018,19526,2746450,-2310292,272445,0,0,0,263,201,151,246,161,191,337,469,145,291,520,132,0,
1,1786460768896,-933,-1588,14974,3112969,-18325,267558,0,0,0,526,469,207,427,397,405,419,176,341,295,179,554,0,
2,1786460768896,-1287,13467,16654,4058588,-3969402,360410,0,0,0,281,216,157,260,181,193,331,583,138,302,612,141,0,
1,1786460768912,-1234,-1550,16137,3831346,-25656,356745,0,0,0,520,466,203,424,391,393,369,177,359,279,172,532,0,
2,1786460768912,-2895,6216,15812,4823391,-2951700,233350,0,0,0,293,210,187,242,172,208,338,622,151,333,655,141,0,
1,1786460768928,-2043,-1584,18257,4710992,52534,502131,0,0,0,492,464,204,419,394,397,327,179,367,265,165,485,0,
2,1786460768928,-4580,-4053,19971,4904026,-962723,-155159,0,0,0,310,207,259,258,156,236,415,639,185,427,675,150,0,
1,1786460768944,-4111,-1952,21947,5793445,287106,772133,0,0,0,449,444,209,405,394,400,323,180,346,256,163,428,0,
2,1786460768944,-2005,-3914,21679,3996280,243124,-559552,0,0,0,318,231,228,272,150,227,475,623,165,489,685,143,0,
1,1786460768960,-6417,-2450,26733,6919881,634078,1130100,0,0,0,398,406,213,373,366,365,307,187,333,238,170,388,0,
2,1786460768960,1134,-909,17611,2839301,290771,-459370,0,0,0,295,219,229,258,153,223,502,626,165,476,701,137,0,
1,1786460768976,-8289,-2469,31112,8015773,707381,1585806,0,0,0,344,368,212,320,310,319,323,195,312,233,180,363,0,
2,1786460768976,1718,-76,12950,1830152,130725,-201585,0,0,0,324,230,252,256,150,220,497,631,163,512,711,136,0,
1,1786460768992,-8336,-545,35352,8785463,-113620,2109928,0,0,0,289,296,215,261,218,272,371,198,298,264,205,326,0,
2,1786460768992,1014,-909,10595,1092227,21991,-40317,0,0,0,314,239,253,275,159,235,518,606,143,536,706,148,0,
1,1786460769008,-8198,4881,35836,8956506,-489913,2638937,0,0,0,304,265,243,252,193,269,395,210,304,304,246,314,0,
2,1786460769008,938,-804,10571,602313,-47647,-21991,0,0,0,319,244,250,292,174,238,536,604,152,544,698,142,0,
1,1786460769024,-7992,15405,23426,7749436,911410,3040887,0,0,0,304,268,246,238,191,266,365,214,297,261,248,313,0,
2,1786460769024,861,-28,10586,311541,-108734,-25656,0,0,0,327,250,262,289,165,244,506,560,180,531,691,161,0,
1,1786460769040,-8872,18616,14869,3558900,2372600,2415361,0,0,0,307,267,242,235,197,264,378,216,298,271,248,326,0,
2,1786460769040,693,555,10447,290771,-74525,-30543,0,0,0,330,255,265,287,166,240,506,545,177,516,665,165,0,
1,1786460769056,-8633,15037,13433,-828333,1944994,1098335,0,0,0,312,272,261,230,190,264,369,211,313,269,250,329,0,
2,1786460769056,545,756,10256,381179,12217,-31764,0,0,0,334,265,270,279,173,235,499,541,168,496,634,168,0,
1,1786460769072,-6207,9069,10930,-2315179,1177748,-274889,0,0,0,313,271,251,230,190,259,372,220,299,269,255,326,0,
2,1786460769072,464,646,10078,493579,120951,-28099,0,0,0,322,266,267,271,180,245,475,511,167,476,610,170,0,
1,1786460769088,-4919,7532,7384,-2108706,1084896,-1243721,0,0,0,310,273,246,228,192,252,373,225,293,270,263,324,0,
2,1786460769088,531,550,10002,548556,206472,-17104,0,0,0,314,264,257,270,182,249,439,461,185,458,585,173,0,
1,1786460769104,-4824,8762,5628,-2366491,983493,-2134363,0,0,0,309,275,252,224,188,251,371,220,304,268,260,326,0,
2,1786460769104,722,516,9925,599869,266337,-13439,0,0,0,316,269,261,274,189,259,436,437,203,440,559,198,0,
1,1786460769120,-4450,8016,6255,-3532022,634078,-2897944,0,0,0,310,274,255,248,204,259,370,220,315,267,258,329,0,
2,1786460769120,938,516,9834,637743,252898,-24434,0,0,0,321,283,271,285,202,278,462,424,200,433,536,222,0,
1,1786460769136,-4235,6264,6968,-4403116,467922,-3252246,0,0,0,316,277,253,243,201,261,371,224,312,267,260,330,0,
2,1786460769136,1076,402,9686,646295,149051,-52534,0,0,0,335,290,267,302,202,272,468,390,191,433,511,208,0,
1,1786460769152,-4536,4517,7547,-4939456,386066,-3032335,0,0,0,318,280,260,225,190,260,375,226,307,266,260,327,0,
2,1786460769152,1100,186,9509,615752,19547,-80634,0,0,0,327,283,259,307,200,260,477,378,189,426,496,192,0,
1,1786460769168,-4757,3340,8317,-5373170,129503,-2382374,0,0,0,313,278,262,228,194,261,380,229,309,269,263,327,0,
2,1786460769168,995,-14,9356,544891,-75747,-97738,0,0,0,322,303,277,299,226,266,459,368,188,426,515,188,0,
1,1786460769184,-4225,2134,9863,-5838649,-271224,-1480737,0,0,0,306,277,253,231,198,259,381,231,304,272,268,325,0,
2,1786460769184,880,-119,9337,459370,-116064,-100181,0,0,0,326,294,252,301,215,259,456,351,185,449,473,183,0,
1,1786460769200,-3608,1134,11696,-6208834,-524122,-781907,0,0,0,302,279,250,230,198,255,377,231,293,268,268,318,0,
2,1786460769200,837,-153,9428,400727,-128281,-102625,0,0,0,320,310,252,323,228,271,474,351,191,425,465,182,0,
1,1786460769216,-3441,191,13759,-6614448,-697608,-395840,0,0,0,298,284,250,230,202,255,381,241,290,264,280,315,0,
2,1786460769216,890,-172,9629,384845,-130725,-116064,0,0,0,338,327,258,342,249,293,491,315,203,422,448,193,0,
1,1786460769232,-3436,-1009,15573,-7010289,-939510,-305432,0,0,0,304,287,250,238,206,257,373,244,288,269,286,311,0,
2,1786460769232,947,-248,9796,406836,-135612,-138055,0,0,0,314,317,257,350,270,309,464,278,209,368,435,205,0,
1,1786460769248,-3268,-2368,17085,-7127575,-1181413,-569326,0,0,0,301,288,250,246,212,258,391,242,291,271,281,305,0,
2,1786460769248,961,-291,9940,458148,-133168,-160046,0,0,0,310,310,279,360,297,352,459,242,226,362,401,222,0,
1,1786460769264,-3790,-2943,19052,-6912551,-1310916,-1053131,0,0,0,303,285,248,245,205,265,401,225,294,280,265,305,0,
2,1786460769264,1028,-248,10117,549778,-97738,-188146,0,0,0,328,329,279,358,297,369,442,227,254,334,366,253,0,
1,1786460769280,-5178,-3900,22364,-6735400,-1651779,-1530828,0,0,0,308,298,247,248,207,269,402,224,299,278,257,304,0,
2,1786460769280,1167,-291,10366,663399,-51312,-234572,0,0,0,339,337,317,369,344,398,459,198,268,398,293,266,0,
1,1786460769296,-6063,-7030,25977,-6764721,-2146580,-1689653,0,0,0,307,282,245,253,206,273,403,220,308,277,243,308,0,
2,1786460769296,1363,-421,10624,799011,-20769,-305432,0,0,0,364,369,293,380,369,396,444,188,255,330,286,276,0,
1,1786460769312,-5460,-14204,27566,-6748839,-2169793,-1556484,0,0,0,301,278,247,249,198,270,406,213,313,271,227,305,0,
2,1786460769312,1411,-583,11026,994488,-21991,-404392,0,0,0,393,370,275,419,359,397,428,176,267,294,270,305,0,
1,1786460769328,-3464,-22416,26470,-6393315,-2108706,-1364672,0,0,0,294,269,234,256,210,269,409,211,304,273,232,302,0,
2,1786460769328,1110,-626,11782,1275486,-50090,-465479,0,0,0,406,382,274,446,388,410,396,168,290,289,255,337,0,
1,1786460769344,1234,-30289,23689,-5490456,-2118480,-1359786,0,0,0,305,278,239,265,202,270,429,208,303,290,246,303,0,
2,1786460769344,1062,-722,13117,1773952,-51312,-465479,0,0,0,432,431,272,439,428,432,369,162,296,286,261,364,0,
1,1786460769360,4063,-37578,18013,-3843564,-1139874,-1715309,0,0,0,309,282,244,266,198,271,432,216,309,295,258,309,0,
2,1786460769360,1186,-832,14376,2356718,-17104,-483805,0,0,0,459,457,245,427,437,436,345,162,287,292,265,373,0,
1,1786460769376,871,-45120,10433,-1910786,122173,-1728748,0,0,0,307,277,244,266,197,271,428,218,306,290,261,311,0,
2,1786460769376,1306,-756,15491,3053104,-28099,-527787,0,0,0,452,445,209,431,421,413,303,172,279,293,250,384,0,
1,1786460769392,-3929,-47867,5474,-329867,196698,-1056796,0,0,0,296,257,232,253,184,266,447,255,301,297,322,299,0,
2,1786460769392,1943,-717,16290,3846007,-106290,-605978,0,0,0,433,448,208,422,401,395,255,166,270,273,229,394,0,
1,1786460769408,-3436,-40430,7767,1350012,-871093,-621860,0,0,0,285,230,207,238,165,261,481,372,301,343,436,274,0,
2,1786460769408,3216,-794,18147,4878369,-138055,-827111,0,0,0,410,408,207,389,397,375,192,142,257,239,201,328,0,
1,1786460769424,488,-18133,17295,3249803,-494800,-1045801,0,0,0,288,219,190,241,154,260,511,486,300,402,499,248,0,
2,1786460769424,5331,-574,22124,6139195,-226020,-1196074,0,0,0,386,384,212,378,383,377,174,141,264,209,173,278,0,
1,1786460769440,4608,6757,17965,4461759,2085493,-1666440,0,0,0,290,213,197,248,152,262,547,532,299,442,537,229,0,
2,1786460769440,7925,-823,26901,7445225,-405614,-1678657,0,0,0,302,371,231,334,364,341,165,144,250,179,174,228,0,
1,1786460769456,7307,8772,17439,4842939,3221703,-1265712,0,0,0,307,203,244,260,143,264,562,579,280,501,572,217,0,
2,1786460769456,9475,-550,32782,8730485,-409279,-2266310,0,0,0,277,291,213,279,261,256,173,142,185,176,170,168,0,
1,1786460769472,5675,-3886,22311,4151440,2225992,59864,0,0,0,302,246,350,251,162,280,597,602,297,583,616,260,0,
2,1786460769472,8619,1660,38549,9597914,397062,-2735454,0,0,0,280,213,178,204,143,181,224,168,158,195,226,141,0,
1,1786460769488,86,-7116,24972,2670702,1047023,667064,0,0,0,317,284,421,286,227,328,605,586,320,619,620,300,0,
2,1786460769488,8207,8882,37750,9404881,1396437,-3034778,0,0,0,292,221,194,236,154,184,256,180,163,225,226,154,0,
1,1786460769504,-1177,-2412,17999,1372003,1022588,234572,0,0,0,338,319,451,286,223,322,636,570,318,620,636,320,0,
2,1786460769504,9873,22373,25360,7480655,1718974,-3197268,0,0,0,290,225,195,235,162,189,257,177,163,224,225,155,0,
1,1786460769520,540,382,11892,829554,813672,-75747,0,0,0,352,352,454,294,245,329,647,544,332,621,645,326,0,
2,1786460769520,7963,32902,15673,2753780,795346,-2282192,0,0,0,294,226,200,234,156,179,269,183,160,222,229,151,0,
1,1786460769536,1009,421,10390,730594,186924,-98960,0,0,0,365,365,496,309,260,331,643,530,333,612,631,353,0,
2,1786460769536,6585,25675,12495,-1507615,-1271821,356745,0,0,0,296,228,201,240,155,177,277,183,159,236,235,154,0,
1,1786460769552,90,114,11055,757472,-274889,-41538,0,0,0,372,380,501,315,268,348,638,512,351,598,608,363,0,
2,1786460769552,11179,15486,6188,-2651155,-1681101,2236988,0,0,0,290,229,206,232,157,183,270,186,165,235,241,163,0,
1,1786460769568,-430,406,11261,828333,-403171,-19547,0,0,0,380,392,500,321,276,354,627,476,356,583,590,373,0,
2,1786460769568,9925,13529,4029,-2412917,808785,2229658,0,0,0,288,232,206,226,159,185,263,188,167,229,243,162,0,
1,1786460769584,-335,717,11079,970053,-376292,-8552,0,0,0,401,399,492,336,287,356,620,437,359,558,554,381,0,
2,1786460769584,1995,13558,7106,-3247359,2185675,2026850,0,0,0,288,243,200,228,172,181,264,194,166,229,245,155,0,
1,1786460769600,-248,492,10839,1122770,-432492,10995,0,0,0,411,400,460,345,289,355,607,383,363,531,504,398,0,
2,1786460769600,-2584,10873,10088,-4703662,1240056,1986533,0,0,0,291,244,200,229,173,180,266,192,163,232,247,156,0,
1,1786460769616,-339,210,10567,1202182,-500909,31764,0,0,0,417,399,416,350,286,351,585,325,366,505,446,420,0,
2,1786460769616,-1617,6274,10662,-5767789,593761,1251052,0,0,0,298,235,203,230,161,177,268,187,159,236,247,156,0,
1,1786460769632,-449,114,10332,1189965,-510683,51312,0,0,0,424,406,388,359,294,352,560,278,380,483,382,437,0,
2,1786460769632,-2971,3560,12294,-6361550,816115,-2443,0,0,0,302,231,202,233,156,172,271,189,160,239,245,153,0,
1,1786460769648,-622,-95,10045,1166752,-488692,85521,0,0,0,426,414,374,366,307,361,549,244,389,454,332,453,0,
2,1786460769648,-5527,2890,14558,-6681643,825889,-1020144,0,0,0,305,229,207,238,158,179,274,187,166,242,244,160,0,
1,1786460769664,-875,-459,9820,1115439,-398284,141720,0,0,0,429,414,358,374,318,372,543,226,384,420,304,468,0,
2,1786460769664,-6140,3015,16420,-6922324,642630,-1324355,0,0,0,308,228,217,247,159,192,278,187,167,242,246,170,0,
1,1786460769680,-1057,-693,9830,1022588,-196698,213802,0,0,0,435,424,343,386,331,373,516,214,389,410,294,476,0,
2,1786460769680,-5776,2818,18214,-7144679,619417,-1065348,0,0,0,307,229,209,244,159,181,277,192,162,239,245,152,0,
1,1786460769696,-1038,-837,9978,945619,10995,277332,0,0,0,452,431,375,375,319,363,506,220,377,397,292,486,0,
2,1786460769696,-4388,1899,19593,-7318165,673173,-375071,0,0,0,311,229,200,246,158,178,277,191,157,240,246,147,0,
1,1786460769712,-851,-947,9997,916297,153938,316428,0,0,0,464,445,343,370,316,356,496,208,366,403,274,497,0,
2,1786460769712,-2340,607,21540,-7362147,899193,455705,0,0,0,303,227,200,262,157,193,289,183,157,248,234,151,0,
1,1786460769728,-421,-1072,9858,891863,217468,329867,0,0,0,468,451,338,377,347,379,497,193,366,406,269,513,0,
2,1786460769728,-2038,-952,24627,-7301061,1180191,682947,0,0,0,302,226,208,251,156,200,282,183,171,237,234,157,0,
1,1786460769744,-162,-1210,9796,873537,228463,307876,0,0,0,484,449,325,401,345,368,497,204,357,397,274,524,0,
2,1786460769744,-3761,-4173,28978,-7296174,1100779,175929,0,0,0,302,225,217,240,155,208,275,183,186,227,235,165,0,
1,1786460769760,-483,-1359,9935,891863,229685,294437,0,0,0,495,456,340,388,352,367,498,197,354,388,256,526,0,
2,1786460769760,-5005,-9638,32538,-7375586,695164,-382401,0,0,0,301,228,213,242,157,195,264,175,170,227,235,162,0,
1,1786460769776,-851,-1407,10442,974940,279776,348193,0,0,0,506,461,310,396,356,371,481,191,358,380,251,528,0,
2,1786460769776,-4479,-19545,33074,-7329161,290771,-563217,0,0,0,318,228,214,253,155,200,286,182,180,239,234,159,0,
1,1786460769792,-918,-1474,11098,1114218,370184,425162,0,0,0,531,478,294,394,382,376,462,183,353,369,248,524,0,
2,1786460769792,-2751,-31978,29131,-6440963,289550,-503352,0,0,0,324,225,210,259,158,201,294,189,180,236,239,155,0,
1,1786460769808,-358,-1598,11591,1334129,452040,480140,0,0,0,548,492,291,395,394,374,454,183,339,359,244,531,0,
2,1786460769808,-3503,-43751,22187,-4605923,571769,-477696,0,0,0,311,228,212,247,156,195,289,187,176,228,240,154,0,
1,1786460769824,497,-1646,12041,1590693,450818,464257,0,0,0,553,485,255,407,417,379,445,189,338,353,233,544,0,
2,1786460769824,-7973,-49729,14955,-2255314,742812,-125838,0,0,0,304,229,214,241,154,194,291,191,176,226,241,154,0,
1,1786460769840,990,-1622,13060,1926668,350636,366519,0,0,0,561,482,234,415,427,381,433,185,331,345,217,554,0,
2,1786460769840,-8466,-52007,11165,-315206,245567,531452,0,0,0,304,207,212,226,135,190,297,242,168,230,320,147,0,
1,1786460769856,516,-1684,14582,2449569,218689,261450,0,0,0,564,486,227,420,404,377,418,177,320,333,194,551,0,
2,1786460769856,-6034,-44814,13318,1290147,-230907,680503,0,0,0,284,183,181,221,132,179,319,343,156,253,420,141,0,
1,1786460769872,19,-1770,15242,3119077,140499,250454,0,0,0,555,487,214,421,383,378,389,176,313,310,176,534,0,
2,1786460769872,-3072,-12227,19301,2853962,-1321912,521678,0,0,0,269,180,157,229,139,172,358,457,152,294,513,137,0,
1,1786460769888,-52,-1775,15836,3842342,86742,271224,0,0,0,542,482,211,420,390,389,342,182,308,277,169,504,0,
2,1786460769888,-406,14845,14400,3747047,-2629163,300545,0,0,0,277,192,178,230,140,178,401,565,162,344,611,138,0,
1,1786460769904,-531,-1861,17224,4741535,113620,329867,0,0,0,518,466,214,429,397,396,317,182,316,260,158,456,0,
2,1786460769904,-1751,7580,14233,4508185,-2338392,51312,0,0,0,295,200,212,236,141,194,447,647,171,414,681,145,0,
1,1786460769920,-2244,-2301,20354,5619960,311541,470366,0,0,0,480,440,211,416,387,378,323,182,320,256,157,408,0,
2,1786460769920,-1890,-4359,22301,4188092,-1270599,-270002,0,0,0,310,201,245,257,142,222,498,687,175,488,706,159,0,
1,1786460769936,-5120,-2794,25934,6740287,641408,759916,0,0,0,411,398,210,375,360,357,315,190,322,243,162,388,0,
2,1786460769936,344,-4991,23866,2866179,-744033,-354301,0,0,0,296,205,301,239,139,239,529,703,201,507,709,173,0,
1,1786460769952,-7260,-2282,30610,7721336,726929,1189965,0,0,0,361,373,209,305,315,315,324,199,312,226,178,359,0,
2,1786460769952,502,-33,16166,1565036,-580321,-83077,0,0,0,313,226,283,244,144,206,548,701,161,537,717,146,0,
1,1786460769968,-6824,-23,34974,8555778,349414,1698205,0,0,0,307,300,225,254,235,264,372,238,290,274,284,310,0,
2,1786460769968,-210,1215,10471,971275,-145385,-29321,0,0,0,324,222,297,246,139,221,565,697,163,571,719,165,0,
1,1786460769984,-6178,5001,35333,8908858,283441,2109928,0,0,0,282,264,241,223,197,258,373,233,298,258,287,302,0,
2,1786460769984,397,311,9834,691499,189368,-73303,0,0,0,337,235,283,245,136,222,561,678,159,585,732,146,0,
1,1786460770000,-6479,14879,23354,7823961,1563815,2183232,0,0,0,305,272,253,228,195,260,366,233,299,269,271,311,0,
2,1786460770000,1014,167,10681,505796,184481,-42760,0,0,0,316,231,308,246,144,237,538,652,178,522,717,175,0,
1,1786460770016,-8614,20042,16357,3144734,2658485,1067792,0,0,0,314,274,258,264,214,253,370,242,292,273,289,315,0,
2,1786460770016,976,794,10677,401949,96516,-1221,0,0,0,313,233,336,241,143,238,569,628,220,496,685,164,0,
1,1786460770032,-8241,16458,16305,-2386039,2355496,-871093,0,0,0,312,270,256,241,200,249,370,245,286,269,299,315,0,
2,1786460770032,693,1306,10284,470366,83077,0,0,0,0,311,270,298,263,169,238,474,489,222,487,641,160,0,
1,1786460770048,-7039,9901,13208,-3446501,2313957,-1929112,0,0,0,312,274,258,223,191,249,366,247,283,268,303,312,0,
2,1786460770048,655,1196,10026,618195,140499,-26878,0,0,0,299,278,300,249,169,235,510,499,193,425,595,159,0,
1,1786460770064,-7317,7657,9030,-3252246,2125811,-2315179,0,0,0,315,277,261,223,194,253,366,251,289,270,306,312,0,
2,1786460770064,674,1000,9834,715934,194255,-42760,0,0,0,303,295,304,248,184,241,487,476,188,400,561,172,0,
1,1786460770080,-6743,8308,7212,-3502701,1367116,-2390926,0,0,0,312,275,260,224,194,255,369,250,297,272,306,313,0,
2,1786460770080,746,976,9753,753807,224798,-46425,0,0,0,310,277,328,261,165,258,486,428,212,408,536,192,0,
1,1786460770096,-4800,7547,8250,-4537506,930958,-2530203,0,0,0,309,273,261,221,189,251,342,239,294,271,302,311,0,
2,1786460770096,928,966,9753,802676,210137,-53756,0,0,0,314,249,304,273,164,260,493,399,213,389,510,195,0,
1,1786460770112,-4737,5202,9399,-5409822,1167974,-2445904,0,0,0,309,276,263,219,189,250,328,237,290,268,300,308,0,
2,1786460770112,1139,784,9767,856433,131946,-72082,0,0,0,318,260,281,264,168,255,489,428,200,352,491,192,0,
1,1786460770128,-5924,3201,9873,-5984035,1123992,-1933999,0,0,0,308,279,265,224,195,252,373,250,291,272,305,309,0,
2,1786460770128,1244,512,9672,871093,6108,-96516,0,0,0,324,281,278,280,181,256,480,426,194,335,490,186,0,
1,1786460770144,-6298,1048,10471,-6354220,618195,-952949,0,0,0,306,282,266,225,197,253,373,249,289,275,307,311,0,
2,1786460770144,1158,229,9428,807563,-128281,-134390,0,0,0,319,292,258,317,220,270,468,382,187,335,486,186,0,
1,1786460770160,-5886,-617,11605,-6431189,168598,-149051,0,0,0,308,283,262,228,195,254,373,244,289,277,300,309,0,
2,1786460770160,1067,76,9361,720820,-200363,-167377,0,0,0,301,295,236,329,247,293,460,349,194,326,462,196,0,
1,1786460770176,-5556,-1646,13194,-6415306,-151494,185703,0,0,0,306,285,257,225,195,251,374,244,289,272,300,313,0,
2,1786460770176,985,-33,9480,629191,-230907,-201585,0,0,0,287,312,233,327,270,311,459,311,211,309,422,199,0,
1,1786460770192,-5819,-2450,14658,-6541144,-467922,-94073,0,0,0,316,282,260,241,192,251,404,244,295,297,310,320,0,
2,1786460770192,933,-172,9672,572991,-230907,-235793,0,0,0,295,352,243,333,311,326,469,266,212,312,391,206,0,
1,1786460770208,-6369,-3225,15721,-6615670,-825889,-674395,0,0,0,308,289,264,228,196,258,377,250,298,273,313,320,0,
2,1786460770208,890,-306,9877,555887,-221133,-265115,0,0,0,317,333,258,344,295,337,503,244,229,324,386,220,0,
1,1786460770224,-7236,-3718,17071,-6505714,-1364672,-1514945,0,0,0,308,288,262,230,198,254,379,247,294,276,304,310,0,
2,1786460770224,914,-248,10050,587652,-194255,-283441,0,0,0,340,325,240,371,329,349,485,207,236,319,331,236,0,
1,1786460770240,-7867,-3948,19751,-6339559,-2035402,-2129476,0,0,0,304,283,256,218,186,243,378,236,288,270,280,302,0,
2,1786460770240,1162,-196,10332,671951,-153938,-317649,0,0,0,360,340,255,419,336,367,502,195,241,311,314,288,0,
1,1786460770256,-7872,-5652,23000,-6279694,-2673146,-2337170,0,0,0,303,282,250,231,194,250,388,236,290,274,274,298,0,
2,1786460770256,1746,-311,10653,830776,-86742,-417831,0,0,0,349,420,270,388,426,415,483,198,304,293,276,319,0,
1,1786460770272,-6417,-10629,25699,-6300464,-3059213,-2072054,0,0,0,297,290,243,233,211,255,399,239,293,278,269,301,0,
2,1786460770272,1435,-536,11222,1073901,-32986,-575435,0,0,0,364,427,247,448,424,428,472,188,316,286,260,335,0,
1,1786460770288,-2900,-18061,24838,-6151412,-3015230,-1642005,0,0,0,296,285,247,239,206,267,399,228,297,276,265,309,0,
2,1786460770288,631,-593,11916,1391551,-2443,-623082,0,0,0,404,431,259,467,406,447,466,163,312,295,266,355,0,
1,1786460770304,2651,-25699,23244,-5584530,-3148399,-1310916,0,0,0,300,282,245,248,203,275,404,228,298,275,274,308,0,
2,1786460770304,325,-545,12792,1822821,46425,-561996,0,0,0,461,437,255,495,455,483,471,181,311,288,247,398,0,
1,1786460770320,9633,-33093,21493,-4306599,-2401922,-1094670,0,0,0,306,283,242,253,204,273,419,234,298,279,278,303,0,
2,1786460770320,689,-622,13711,2364048,78190,-509461,0,0,0,454,415,235,492,406,456,445,190,318,296,243,427,0,
1,1786460770336,6915,-39191,16286,-2871066,142942,-792903,0,0,0,313,278,246,252,195,270,426,232,299,284,275,306,0,
2,1786460770336,1072,-674,14673,2981022,56199,-505796,0,0,0,447,414,236,470,396,454,419,186,305,289,232,435,0,
1,1786460770352,129,-44043,10155,-1572367,1534493,-211359,0,0,0,317,268,244,249,187,267,420,233,299,286,282,309,0,
2,1786460770352,2005,-914,15357,3706730,13439,-585208,0,0,0,459,390,213,450,382,434,390,165,310,282,220,413,0,
1,1786460770368,-4221,-43962,6384,-218689,869872,211359,0,0,0,311,254,230,249,180,259,434,278,293,305,325,298,0,
2,1786460770368,2833,-1105,16118,4447098,28099,-751364,0,0,0,442,381,218,453,362,422,355,144,332,260,196,375,0,
1,1786460770384,-2957,-34194,10050,1397659,-836885,-216246,0,0,0,283,240,203,244,167,240,491,446,285,372,484,272,0,
2,1786460770384,3450,-1148,18607,5445252,97738,-1039692,0,0,0,388,359,242,444,353,433,330,135,333,241,167,342,0,
1,1786460770400,1828,-8509,18248,3220481,-1214400,-1105666,0,0,0,294,207,188,250,145,240,525,516,269,440,519,240,0,
2,1786460770400,5465,-1876,23412,6546031,191811,-1367116,0,0,0,336,314,241,416,340,417,317,132,291,221,147,303,0,
1,1786460770416,4680,13266,17295,4216191,687834,-1155757,0,0,0,294,199,208,242,136,244,548,561,272,485,554,226,0,
