foot,step_id,surface,contact_time_sec,stance_duration,time_to_peak_frac,impact_mag,impact_mag_norm,accel_mag_strike,loading_rate,loading_rate_norm,heel_pmax_ratio,fore_pmax_ratio,heel_mean_ratio,fore_mean_ratio,heel_fore_ratio,total_pmax,total_p_mean,midstance_diff,heel_impulse,heel_impulse_norm,rise_slope,fall_slope,slope_asym,heel_skew,heel_kurt,gyro_mag_strike,gyro_x_strike,gyro_y_strike,gyro_z_strike,gyro_x_std,gyro_y_std,gyro_z_std,pressure_01_mean_ratio,pressure_02_mean_ratio,pressure_03_mean_ratio,pressure_04_mean_ratio,pressure_05_mean_ratio,pressure_06_mean_ratio,pressure_07_mean_ratio,pressure_08_mean_ratio,pressure_09_mean_ratio,pressure_10_mean_ratio,pressure_11_mean_ratio,pressure_12_mean_ratio,accel_spec_centroid,accel_hf_frac,accel_spec_entropy,accel_zcr,accel_jerk_ratio,gyro_hf_frac,heel_ripple_frac,impact_mag_roll3_std,loading_rate_roll3_std,stance_duration_roll3_std,source_user,source_recording
right,167,grass,165.328,1.0879999999999939,0.014705882352941176,3986.0,-0.282555346639297,31432.984586259066,656.25,0.18171680491411574,0.26700776956604133,0.36611711199545194,0.1710628958752459,0.3479820393477133,0.49158541686741625,5277.0,3882.8840579710145,-0.4000000000000057,644.1594202898551,0.16589715548356035,12.0,-0.5671641791044776,11.432835820895523,0.9945014813230205,-0.6552756924706729,7756602.496969985,7670023.0,398284.0,1084896.0,3881307.8952268246,1065919.6725947037,856585.2826223413,0.09291987503685815,0.08003165135731322,0.06894247888354317,0.07188739880336967,0.05815190412027516,0.06640813081565697,0.12458989470698234,0.0780235817541869,0.07150295425109829,0.10484885357141524,0.09303931412105897,0.08965396257824193,3.7937132068155637,0.1443151844755932,0.5093578396503131,0.08823529411764706,0.5832675106815493,0.20953695422508556,0.0009256442793371996,8659.322971995753,200.50820667316086,0.05768882040741944,Sam,REC_20260810_144155_new.csv
right,168,grass,166.432,1.0560000000000116,0.030303030303030304,9719.0,0.18495293563119675,37461.94553143229,687.5,0.1903699861005022,0.2758343385605147,0.4087253719340571,0.18380729139187651,0.34106137461655,0.5389273165229927,4974.0,3960.507462686567,-2.5999999999999943,707.8880597014926,0.1787367064374383,2.0,-0.765625,1.234375,0.636649559471513,-1.1981889476566694,9454950.300522685,8462927.0,2405587.0,3462384.0,3861763.3325134474,753846.9915767,1038798.6313792289,0.09454916828086254,0.08399345779600081,0.07246169268222828,0.06697468287645937,0.061423607708947295,0.06360559855890621,0.11121746798616189,0.08004401667206824,0.06506402767623627,0.10935957249560964,0.10376327471980826,0.0875434325467112,4.500072467993173,0.2594595749286787,0.5991870728096589,0.07575757575757576,0.5683434037426756,0.18621716975416197,0.0005756154193418111,6893.939536530138,209.57205521068752,0.040265783654770064,Sam,REC_20260810_144155_new.csv
right,169,grass,167.504,0.960000000000008,1.0,16338.0,0.7247117565536453,35757.104049405345,1770.8333333333335,0.490346933895233,0.23891092679408582,0.4038946988820772,0.1818451439417906,0.332936570705473,0.5461855498671705,5546.0,4145.573770491803,23.30000000000001,732.188524590164,0.1766193451439418,0.11666666666666667,0.0,0.11666666666666667,0.839570743169525,-0.7936737702308951,9649598.875729136,8596095.0,3433062.0,2726902.0,4401619.682574546,1190649.6792027964,1094390.249588423,0.09463777285669092,0.08150901613413478,0.07910866814299274,0.06585336918696616,0.05687282505536224,0.06143625434988928,0.11288358114520722,0.0783177791838026,0.06726510597912054,0.11255536222714332,0.103527364757988,0.0860329009807023,4.4654982583579965,0.28354890784380316,0.563230752252776,0.05,0.4415516089052701,0.1907216763722883,0.002052930103448787,6181.29374268311,634.67625350194,0.06661331198291115,Sam,REC_20260810_144155_new.csv
right,170,grass,168.48,1.0080000000000098,1.0,16051.0,0.7013078010309466,33894.55875210651,2208.3333333333335,0.6114914705046435,0.266069044440206,0.3751668891855808,0.1734495207466263,0.3360921932147812,0.5160772081238212,5243.0,3964.5,2.3000000000000114,666.3203125,0.16807171459200404,0.9682539682539683,0.0,0.9682539682539683,0.8773712437974536,-0.7849432582118183,8981648.5540031,8169711.0,2564412.0,2711019.0,4213492.749457786,919476.6154165418,1258924.0034795858,0.09594132299155,0.07805602850296381,0.07163182620759238,0.06918826459831,0.05523631605498802,0.06501844494892169,0.11814226258040106,0.07606964938832135,0.06859313910959768,0.11113475848152352,0.09737987135830496,0.09360811577752554,4.441765187125139,0.23230607035906653,0.5831027530892612,0.07936507936507936,0.47476095465187806,0.22501767402031414,0.002534380276162108,3741.3846367354477,782.9379912535517,0.04800000000000174,Sam,REC_20260810_144155_new.csv
right,171,grass,169.504,0.960000000000008,0.0,8844.0,0.11359941269613971,32607.66977261638,1090.2777777777778,0.3018998769472611,0.250926416093171,0.3559202399858832,0.16186223489647603,0.36205950204489273,0.447059762227408,5667.0,3972.311475409836,6.099999999999994,620.7704918032787,0.15627437466726646,0.0,-2.2666666666666666,-2.2666666666666666,1.3392591087122339,0.2860585717457469,8154218.341640908,7630928.0,2265088.0,1769065.0,4076934.051706027,1000879.7462920314,806722.5949000011,0.10238495157050238,0.09147335449071647,0.06469372005398022,0.06945619472496091,0.06620004869774794,0.0657791020630512,0.10727948793079968,0.07082220782382971,0.0691508020684162,0.10632204068325417,0.09104002707264632,0.09539806282009484,3.2542712952599406,0.14834779311205656,0.43437665191915314,0.1,0.48432422688948534,0.3565582623615605,0.003216849482880963,4246.23861003281,563.413752569424,0.02771281292110295,Sam,REC_20260810_144155_new.csv
right,172,grass,170.48,1.024000000000001,0.015625,4163.0,-0.2681215482855769,34725.262806780884,703.125,0.19469657669369544,0.2461018222806688,0.36858914146158184,0.1639900815721172,0.35600899147200593,0.4606346623267704,5323.0,3983.2615384615383,0.19999999999998863,633.1923076923077,0.15896327709801014,9.0,-0.12698412698412698,8.873015873015873,1.0195491109173573,-0.5889856879714643,8917671.334120415,8481252.0,697608.0,2665815.0,4206406.7879066905,1089803.0315101969,1090222.0305189823,0.0962296069707082,0.08489370905944876,0.07563573723890743,0.07094302311209987,0.06218329007539241,0.06879171301446052,0.11184495118032382,0.07383976022741319,0.06919725621060437,0.1026487764182425,0.090150321344704,0.09364185514769498,4.57447888250653,0.22926140600289888,0.584407331690898,0.078125,0.46462216298196135,0.24458366703009032,0.001639935984341,5988.560678493626,781.6209253197054,0.0333066559914555,Sam,REC_20260810_144155_new.csv
right,173,grass,171.52,1.0079999999999814,1.0,15611.0,0.6654271723550322,37320.235824549665,1453.125,0.4023729251669706,0.25629022820362785,0.37994928808269945,0.1723060154834987,0.3467197743191909,0.49696045119349325,5127.0,3899.3125,0.19999999999998863,651.359375,0.16704467133629325,0.031746031746031744,0.0,0.031746031746031744,0.8299670510631948,-0.9565845497844232,9249688.59435284,8494692.0,3268129.0,1648114.0,4138906.6636910066,1073709.308892505,893254.649823129,0.09477231563256343,0.08254660276651332,0.07264101043453172,0.07062943788167786,0.058764365513151354,0.06668242799211399,0.1162504608184135,0.07825498084598247,0.06809694016573434,0.10518280466107807,0.09405103463751623,0.09212761865072369,4.376231822221344,0.16418860144005,0.5202463722655896,0.09523809523809523,0.4707726648305225,0.21411415286959387,0.0015730985243556847,5755.587922474417,375.0656342596198,0.03330665599145095,Sam,REC_20260810_144155_new.csv
right,174,grass,172.544,0.9759999999999991,1.0,13318.0,0.47844016882350565,37263.16955118016,631.9444444444445,0.1749865528802596,0.2677432216905901,0.40410685805422647,0.170993183830646,0.349185560429151,0.4896914512168527,5016.0,3916.2096774193546,-5.300000000000011,648.2096774193549,0.1655196556907807,0.45901639344262296,0.0,0.45901639344262296,1.0012024436923663,-0.5275735977021765,9622674.313884577,8514239.0,3539353.0,2752558.0,4232990.775433693,1497527.2660382963,1042194.4304753669,0.09814872016638868,0.08337966681081528,0.07036510780255761,0.0727785671629497,0.05816601799798192,0.067778670126233,0.11522826959906098,0.07933938757439098,0.0670826383311711,0.10250200778402423,0.09165379625625503,0.09357715038817158,4.094671687175457,0.2576887671855656,0.5116179411812017,0.08196721311475409,0.4603936749699515,0.1820265601178698,0.00215518800728877,6057.069946214372,454.9549751187333,0.02444040370642984,Sam,REC_20260810_144155_new.csv
right,175,grass,173.536,0.9759999999999991,1.0,16338.0,0.7247117565536453,34764.42205761517,1041.6666666666665,0.28843937287954874,0.2741641337386018,0.40283687943262414,0.17503194013506115,0.3409173870480678,0.513414530278124,4935.0,3888.3225806451615,-0.6999999999999886,658.8870967741935,0.16945278667308233,0.26229508196721313,0.0,0.26229508196721313,0.9319903213201957,-0.8128359452758218,9058458.2175097,8436048.0,2433687.0,2228436.0,4190012.751618106,983424.0525113656,908761.420469816,0.09408236406776285,0.08353797142809735,0.07291476546815112,0.06724020640793774,0.0563266355837993,0.06565564386334599,0.11861404702251571,0.07958900927508336,0.06815692976488741,0.10368099686405946,0.09544293085997776,0.09475849939438184,3.948958702122509,0.263071228576447,0.5182254136486721,0.08196721311475409,0.49867846528082554,0.25173840952711823,0.002488263097026198,1576.217941783449,410.5905836464277,0.01847520861405748,Sam,REC_20260810_144155_new.csv
right,176,grass,174.528,0.9920000000000186,1.0,14898.0,0.60728424452338,36077.67678218763,1843.75,0.5105376899968014,0.25565184626978144,0.3916729464958553,0.16872078878289265,0.34841379089570396,0.4842540484664006,5308.0,3966.7301587301586,6.900000000000006,647.7380952380952,0.163292704398489,0.016129032258064516,0.0,0.016129032258064516,1.1131766611640206,-0.3588180030091901,9550889.528819973,8550891.0,2062281.0,3721391.0,4222079.517955268,958661.3095628788,1280927.1846660294,0.09752144823612267,0.08696539471156925,0.07159149113259491,0.06953870286189896,0.05879857865420322,0.06644151354119981,0.11340754849862347,0.07544497086881363,0.0666696011268327,0.10475622639093413,0.093275817914079,0.09558870606312825,4.697014962733962,0.22681715960076582,0.5857606225066068,0.08064516129032258,0.4910377809169898,0.23247507707998402,0.0013979985556108413,1510.5407420302788,616.3985017109641,0.009237604307045302,Sam,REC_20260810_144155_new.csv
right,177,grass,175.536,0.9919999999999902,0.0,16099.0,0.7052220514319554,37243.35529997264,914.0625,0.2531055497018041,0.25502606105733433,0.39110201042442294,0.16657824303564925,0.3530399252490379,0.4718396734251108,5372.0,4009.0793650793653,2.8000000000000114,646.5952380952381,0.16128272334225488,0.0,-1.0483870967741935,-1.0483870967741935,0.9962436338595142,-0.5157902764861872,9864702.049457246,9356011.0,1944994.0,2448347.0,4234296.3014034275,964417.5161567656,917605.2276186848,0.09692285764059357,0.08258239234752862,0.07160334478881268,0.07264859129277988,0.05984432161918185,0.06952472958205977,0.11538491994362003,0.07382845287680344,0.06843989040748777,0.10520564433112141,0.09274979015884578,0.09126506501116513,3.937362160803933,0.13804869006767112,0.4900537314670862,0.04838709677419355,0.49673620231759463,0.1975682381846081,0.002290140381044161,771.6996393243843,503.9740973201644,0.009237604307037088,Sam,REC_20260810_144155_new.csv
right,178,grass,176.544,0.9599999999999795,0.0,11399.0,0.3219516996665063,37112.997480667065,3609.375,0.9994424270276366,0.24820007578628267,0.3728685107995453,0.15869770035785355,0.36114056842523307,0.4394347083456936,5278.0,3880.1475409836066,4.199999999999989,594.5081967213115,0.15321793577225812,0.0,-0.43333333333333335,-0.43333333333333335,1.4337001418424367,0.5500206709189945,9227314.478148071,8504465.0,2906496.0,2090380.0,4194384.265420689,1129288.174298894,865426.9924693283,0.09704295510142001,0.08582992872503581,0.07161296046711085,0.07176083383680695,0.062030766110803624,0.07037927406850339,0.11325832632695224,0.07044687332322161,0.07113976568408334,0.09939625415629792,0.08825082703463194,0.0988512351651323,4.005484450267667,0.23671002885340806,0.4925164218314133,0.06666666666666667,0.4769840915751315,0.20301039129593063,0.003584642206531546,2441.8368086340356,1369.090936895567,0.018475208614082413,Sam,REC_20260810_144155_new.csv
right,179,grass,177.52,0.9919999999999902,0.0,15242.0,0.6353363723972768,36134.91531745993,1093.75,0.30286134152352623,0.25571041424699964,0.3979868370112273,0.16404087848070803,0.3500769687187509,0.4685851773710218,5166.0,3825.5079365079364,3.9000000000000057,606.7222222222222,0.15859912782616273,0.0,-0.3064516129032258,-0.3064516129032258,1.2156296568586418,0.05129456515926556,9387721.613201257,8717046.0,3048217.0,1688431.0,4197402.856221465,1247278.7903132024,929535.6749906371,0.09670258540208376,0.07905164580281901,0.06775736804325186,0.07152489346782458,0.0567037471940649,0.06909757807864501,0.12189687436464501,0.0759106581966499,0.0736991041753974,0.1012958129846851,0.08813022028405815,0.09822951200587535,4.212495082336912,0.25184925686247095,0.5653236542505832,0.04838709677419355,0.3785419086203012,0.21537688918625145,0.003367322121814985,2503.1013430009953,1506.9486947104674,0.018475208614074225,Sam,REC_20260810_144155_new.csv
right,180,grass,178.528,1.0400000000000205,1.0,18162.0,0.8734532717919813,33987.51107392243,648.4375,0.17955350961751912,0.2701309004363348,0.4040063466878223,0.16635098057556202,0.35859211798085616,0.46390027062536693,5042.0,3887.6363636363635,-0.5999999999999943,626.5151515151515,0.16115580082935804,0.8923076923076924,0.0,0.8923076923076924,1.0225260589793124,-0.5460937791374212,9149005.983295945,8640077.0,1701870.0,2481334.0,3992025.808816656,1083889.274701642,1077317.2683139818,0.09275325039753063,0.08192638668038538,0.07149315623733359,0.0723934462008543,0.05986343653540361,0.07143469585009198,0.11840956567829639,0.07701571415209055,0.07297415271412092,0.10237583013749883,0.08933526642347146,0.09002509899292241,3.611702889684897,0.18805699187696287,0.5041075139519441,0.06153846153846154,0.44615298921241114,0.28150935267646177,0.0034115371323275487,3391.981181158496,1596.549573412796,0.04026578365479832,Sam,REC_20260810_144155_new.csv
left,166,grass,164.784,1.024000000000001,0.015625,6542.0,-0.07412151278557608,32529.798846596022,1321.875,0.36602956418414745,0.2698351858949789,0.4536220774243005,0.21554584373885124,0.3475695683196575,0.6201516570646235,5218.0,3449.846153846154,12.0,722.4076923076923,0.20940287192293972,20.0,-0.6507936507936508,19.349206349206348,1.0331091755626625,-0.4198662028358715,7329066.690433237,6845355.0,1742187.0,1954768.0,3916299.649207014,936326.4140370346,854803.4395327813,0.09626739207991439,0.0821173742418837,0.08023992151266501,0.07608811987156618,0.061014983945772386,0.07304227613271495,0.09787727434891187,0.09011327149482697,0.0553068141277203,0.09828754905458438,0.12543257224402427,0.06421245094541563,4.1896581658460885,0.2202886145769022,0.5762395656274855,0.09375,0.5195625499971094,0.1501113737471234,0.002376949139529914,10012.601277057493,512.7190842703246,0.018475208614074225,Sam,REC_20260810_144155_new.csv
left,167,grass,165.824,1.0719999999999743,0.014925373134328358,11686.0,0.34535565518920497,39633.634276962286,1117.1875,0.3093512274133161,0.3037069152395404,0.46759158898764364,0.21664467242773827,0.35598739942956875,0.6085739910308953,4613.0,3454.5588235294117,-29.69999999999999,728.5,0.21088076284534502,17.0,-1.1666666666666667,15.833333333333334,0.8845862007576603,-0.7933808343238793,7976922.190592873,7514864.0,1938886.0,1843591.0,3865990.673251309,719515.5282952046,819641.1408961319,0.09289940828402367,0.07692733387254694,0.07353454514494913,0.07997105274360393,0.06171299646673194,0.07789791835170917,0.10351198331275807,0.09278872759780342,0.0594780979949768,0.09196713635009152,0.12385594482993487,0.06545485505087055,3.9016525596763363,0.18468151357551163,0.527174755419358,0.11940298507462686,0.5960489895073944,0.14167845130447126,0.001988055376864589,8182.961505469764,330.6241631211854,0.040265783654768184,Sam,REC_20260810_144155_new.csv
left,168,grass,166.912,1.039999999999992,1.0,24785.0,1.4135382802478473,38019.72948351948,876.3020833333334,0.24264962243492044,0.3154525386313466,0.46909492273730685,0.23162805122307364,0.3356894568855234,0.6900069289392878,4530.0,3517.590909090909,14.400000000000006,793.8560606060606,0.22568174671887184,1.4923076923076923,0.0,1.4923076923076923,0.6057191790362253,-1.309912775786101,9537069.516607761,8065864.0,2031737.0,4665788.0,3750585.0393405627,694504.0181769553,1246879.7294356802,0.09547684580958904,0.07838525850595061,0.07866092926891252,0.07420712350480915,0.055409823355343925,0.07202329417947029,0.10196803080620777,0.10004264282114568,0.05566395733994944,0.09384005065450268,0.13158540840192798,0.06273663535219094,4.175638064869335,0.2114339053810944,0.541528435313514,0.09230769230769231,0.4647641614444289,0.14316177145366024,0.0015032595595861325,9406.129083386711,223.03138070899638,0.024440403706417542,Sam,REC_20260810_144155_new.csv
left,169,grass,167.968,1.0080000000000098,1.0,20086.0,1.0303494753657525,39650.31587516044,1255.2083333333335,0.34756944431985637,0.30629139072847683,0.5072433774834437,0.20106076888411273,0.3707967899608278,0.5422397774943064,4832.0,3605.875,29.400000000000006,702.265625,0.19475595382535446,0.7936507936507936,0.0,0.7936507936507936,1.1641690444018304,-0.23186655416384028,8585574.233469535,7458664.0,2996904.0,3016452.0,4049394.2275244035,1079495.1977767362,792231.2935615422,0.09683849273754637,0.0755364509307727,0.073049190557077,0.08659046001317294,0.06401012236974382,0.080432973966097,0.11039276181232018,0.0887483967136964,0.06422678268104136,0.08607914167851076,0.11231237217041634,0.06178285436960516,4.715686552851126,0.18336597706779778,0.5382696952639654,0.1111111111111111,0.5576715382826066,0.21083825838194392,0.0011479222112921468,6636.068138086993,191.76612521757167,0.03199999999998224,Sam,REC_20260810_144155_new.csv
left,170,grass,168.992,0.960000000000008,1.0,24599.0,1.398370559943938,38862.61923751409,1864.5833333333335,0.5163064774543924,0.3335548172757475,0.5118493909191584,0.21810095740151988,0.35798393159606173,0.6092478967671937,4515.0,3619.7704918032787,-45.19999999999999,765.0655737704918,0.21135748122786518,0.5666666666666667,0.0,0.5666666666666667,0.827463788237226,-0.8633770022370557,10000303.653842367,8883202.0,2921157.0,3544240.0,4305489.005222556,1071888.5253034001,992546.0291857059,0.09363875981630934,0.0767732760885121,0.07099897647708849,0.08305933715569323,0.06316857331775405,0.07687743992463973,0.1092406909232539,0.0967953769372209,0.0581053051094626,0.09102107732579731,0.12130558046429897,0.05901560645996939,4.663141341920469,0.34797338652035087,0.5508692582145999,0.05,0.4844681511430103,0.22855444212012382,0.0017163354588286867,2660.9010378691983,498.59931575291085,0.04026578365477006,Sam,REC_20260810_144155_new.csv
left,171,grass,169.968,1.024000000000001,1.0,23852.0,1.337455038078238,41391.92845229611,1031.25,0.28555497915075334,0.3134879901457606,0.512009854239376,0.22832926509962242,0.3472807588030102,0.6574774424198904,4871.0,3642.9846153846156,-16.5,808.5923076923077,0.2219587489547877,0.578125,0.0,0.578125,0.7086748061332384,-1.1006649580575054,9799840.664166637,9241169.0,2339613.0,2272418.0,4203170.925684113,985981.2655442209,878027.4281285246,0.08951662626586822,0.07330844531533738,0.0694105424968538,0.07943191128153586,0.061885013978394715,0.07446979230892674,0.11336858197420542,0.10391310590639966,0.0581855959188155,0.09449986063836076,0.1244161591932228,0.0575943647220791,4.46365322739122,0.17626191671616545,0.5325845381248941,0.046875,0.5491373797470969,0.19677071676636293,0.0020187828605651163,2418.9506678172206,431.26551568975236,0.033306655991455575,Sam,REC_20260810_144155_new.csv
left,172,grass,171.008,0.9599999999999795,0.0,19693.0,0.9983015502074926,37136.99010420742,1729.1666666666667,0.47880935898005106,0.3017634238161284,0.4590846047156727,0.2025551570818723,0.3728960072345877,0.5431947598041686,5047.0,3698.0819672131147,23.400000000000006,725.0737704918033,0.19606752281865214,0.0,-1.9833333333333334,-1.9833333333333334,1.1532955995802656,-0.07999193570430263,9098655.72915439,8487361.0,2448347.0,2180788.0,4269525.717188976,1060690.7993774454,880746.9914532289,0.08535217636080733,0.07610502564466294,0.07205330188888347,0.08397352637388457,0.06772673472735091,0.0826081752614337,0.11212281067279006,0.08714309145635975,0.0624825452272556,0.08861483356458599,0.11541206562551257,0.06640571319647315,4.3068965796192895,0.31381787528276667,0.5567775750040255,0.08333333333333333,0.4860313369098167,0.24524059411228408,0.0018135087669866237,2643.3604244093117,447.1893319513677,0.03695041722814017,Sam,REC_20260810_144155_new.csv
left,173,grass,171.984,1.0079999999999814,1.0,26714.0,1.5708422182383903,36443.716948192865,1148.4375,0.3180044085997026,0.30681573855084926,0.4904321651257794,0.2076674097855175,0.3717331604742529,0.5586464482222173,4651.0,3567.453125,23.599999999999994,718.6640625,0.20145017672797033,0.23809523809523808,0.0,0.23809523809523808,0.9451218424067358,-0.6809604956764606,8894562.363276172,8300436.0,2155132.0,2360383.0,4051874.8648093315,1020503.3018482131,902409.6326227026,0.08860487830516343,0.07940714007279352,0.07329283408594191,0.08447465585129448,0.0678793081548899,0.07999842324487445,0.1079814468480227,0.09161385266975301,0.05997363315040054,0.09073349772465476,0.11605355711576448,0.05998677277644678,4.5181187339655535,0.20021751910676305,0.5597777345453167,0.09523809523809523,0.5663129260850811,0.18333548837258706,0.002038179658747428,3530.4099384254764,373.7349659818491,0.03330665599146695,Sam,REC_20260810_144155_new.csv
left,174,grass,173.008,0.9599999999999795,1.0,25829.0,1.4986732264697897,40994.592740994514,1718.75,0.47592496525125555,0.28776252019386106,0.5064620355411955,0.19812180725283848,0.3771006696871785,0.5253817433340667,4952.0,3632.72131147541,13.5,696.4918032786885,0.1917272874961642,0.26666666666666666,0.0,0.26666666666666666,1.1917445967589586,-0.08167061458775304,9417702.359132932,8398175.0,3122743.0,2900388.0,4229551.894493675,1270418.6084696976,949668.3505892974,0.09340421307243812,0.07515027347064027,0.06893626238740772,0.08663513781837218,0.06649488257910792,0.08262784526796513,0.10835033123341575,0.08678405747396163,0.06619253055109298,0.08793480026715284,0.11133774977887687,0.06615191609956858,4.587875946728278,0.3183267453098357,0.5613872470251208,0.1,0.4913707416812784,0.2035462418383907,0.0030410439624444625,3823.788740677677,332.31792499002415,0.02771281292110307,Sam,REC_20260810_144155_new.csv
left,175,grass,173.984,0.9919999999999902,1.0,26690.0,1.568885093037886,41396.487363060165,1507.8125,0.4175159922431469,0.33252266195003316,0.5080698651337607,0.2237328045051861,0.3662925774552682,0.6108035441486285,4523.0,3545.8253968253966,47.5,770.0238095238095,0.2171634875798502,1.1774193548387097,0.0,1.1774193548387097,0.841201656646488,-0.8157748713821009,9861161.47651756,9110444.0,2497217.0,2829527.0,4416711.820249627,973579.6420581891,1004457.4118724331,0.08673736609560986,0.07705014168237186,0.06982501219856124,0.08453938680406649,0.06735844073289851,0.07855425785744023,0.10625058754538089,0.09906574688768818,0.058790350378491146,0.09053346882316339,0.12466705761749788,0.05662818337683034,4.318988160288641,0.2319131399286293,0.5743082992565017,0.06451612903225806,0.5732667778626898,0.21370490609715243,0.001583256711298726,504.169614316489,288.35781221354654,0.024440403706433095,Sam,REC_20260810_144155_new.csv
left,176,grass,174.992,1.0080000000000098,0.0,22091.0,1.193850976491226,41694.21866398266,1395.8333333333335,0.38650875965859544,0.3162682462449757,0.4764121006981172,0.21052422434841736,0.36157483652483363,0.5822424656860589,4727.0,3538.859375,22.900000000000006,722.6875,0.20421481144613157,0.0,-2.0952380952380953,-2.0952380952380953,1.0229454232512523,-0.5209376941787225,9378234.809215644,8393288.0,2773328.0,3132516.0,4052742.0825972278,1110683.9353030645,1003460.8759115706,0.092724968762004,0.07420734964920724,0.06942561824740492,0.08466711113662152,0.06267026363544044,0.07933347167828617,0.11187838595592683,0.09087497295650523,0.060696640425278274,0.09437627766715087,0.11964925139191211,0.059495688494262365,4.465762561539389,0.2017396504469199,0.532602695188465,0.1111111111111111,0.5056653798319213,0.25405308798315995,0.0012438821787198846,2444.8846598561736,163.96602101488287,0.024440403706445513,Sam,REC_20260810_144155_new.csv
left,177,grass,176.016,0.960000000000008,1.0,19583.0,0.9893313930385139,40544.30243573072,2192.708333333333,0.6071648799114502,0.30052687038988407,0.485563751317176,0.21921989401344494,0.3635001778926278,0.6030805687199053,4745.0,3501.8360655737706,45.5,744.5737704918033,0.21262382263168736,0.5666666666666667,0.0,0.5666666666666667,0.9359325556877932,-0.6419488491404781,9043634.933406202,8409170.0,2036624.0,2631607.0,4288098.739855033,818354.5822108503,978314.1818371755,0.09186281669569124,0.0771304982866131,0.0698977585528903,0.08345973072673821,0.06532872685055147,0.0763908394659476,0.10484429713686497,0.09541130648090931,0.06119038256277737,0.09258374997659306,0.12380858753253562,0.05809130573188772,4.362356594026527,0.323710292651674,0.5577162095095737,0.08333333333333333,0.5061796543039089,0.2468273733607987,0.0024502557644184974,3604.4027244468725,431.39915814894545,0.024440403706430035,Sam,REC_20260810_144155_new.csv
left,178,grass,176.992,0.9759999999999991,0.01639344262295082,19640.0,0.993979565389712,37900.69499362775,2484.375,0.6879279043177239,0.30716577540106954,0.49711229946524066,0.21837383444909408,0.36288599862509974,0.6017697989900282,4675.0,3495.8548387096776,70.30000000000001,741.0645161290323,0.21198377802281965,9.0,-1.55,7.45,0.9053430439289647,-0.771655890942331,8983786.076741865,8118399.0,2599842.0,2835636.0,4062865.8393794964,1083570.1912910168,870607.3983340118,0.09255200860004706,0.079287451036481,0.06536312591410103,0.08625422735682352,0.06664113719935592,0.07417540589546144,0.10945220837581836,0.09395920514157319,0.056527777136977896,0.0938254061261494,0.12441462930752088,0.05754741790969028,4.701130458317301,0.3130722334238826,0.5978882116164317,0.08196721311475409,0.44689513352157983,0.27293096806772466,0.002144503466185927,1431.8236623271866,563.4717044269499,0.02444040370643314,Sam,REC_20260810_144155_new.csv
left,179,grass,177.984,1.039999999999992,0.03076923076923077,20459.0,1.0607664628569253,35067.232981802255,1007.8125,0.27906509326096346,0.2919000430848772,0.478888410168031,0.2138683047893968,0.3628834949747417,0.5893580384638651,4642.0,3443.212121212121,-21.80000000000001,715.9469696969697,0.207929963212645,0.5,-0.15873015873015872,0.3412698412698413,0.8874528778193893,-0.8234945541350012,8861813.073542174,8163603.0,2150245.0,2695137.0,4173653.478243563,776800.7028211766,828693.708183324,0.09730607431397745,0.07841955186312992,0.06709291887420132,0.08768239663457308,0.06485751500536849,0.07410275817154525,0.10964920000704065,0.0946746343266506,0.05782127330012497,0.09287927058947777,0.11919367046274622,0.05632073645116435,4.362248315881341,0.25719515057671494,0.5635237895538608,0.09230769230769231,0.47142949497926395,0.25118290320606695,0.0015393327746941244,490.1336552411365,782.0149611421953,0.04233202097702614,Sam,REC_20260810_144155_new.csv
right,0,grass,0.976,0.976,0.0,21210.0,1.146024092033217,36085.34756656779,812.5,0.228078630813434,0.2463707132337471,0.4374079528718704,0.1611781848459617,0.377910074937552,0.4264987771826025,4753.0,3874.1935483870966,-0.30000000000001137,605.6209677419355,0.1563218151540383,0.0,-0.14754098360655737,-0.14754098360655737,1.0680176093215272,-0.38868925345589744,9147450.742043326,8428718.0,1569923.0,3188716.0,4135093.010261778,820856.0352760155,1080625.769854783,0.09502497918401333,0.08108659450457952,0.0697127393838468,0.07398001665278935,0.06631557035803498,0.07759783513738551,0.11320149875104081,0.0763946711074105,0.07893005828476271,0.08872189841798503,0.0847835137385512,0.09425062447960034,4.082847114274662,0.28487700221739437,0.5201079719585502,0.08196721311475409,0.4553261343895211,0.22642388801933908,0.00241772242395991,0.0,0.0,0.0,Sam,REC_20260813_181957.csv
right,1,grass,1.968,1.008,0.015873015873015872,21990.0,1.2106807903181502,36615.8025994242,416.6666666666667,0.11696340041714563,0.24899513433467316,0.4506029193991961,0.16554633240038594,0.3711535854683476,0.446031882438571,4727.0,3919.03125,0.09999999999999432,630.9375,0.1609932301509461,12.0,-0.9354838709677419,11.064516129032258,0.818114600793361,-0.9437724280376565,9174560.985223271,8528900.0,1021366.0,3222925.0,4152435.185675126,1074892.415172017,1113238.9450528321,0.09483769107480325,0.07866261592070745,0.07294133594877561,0.0743646787710611,0.06228819303239799,0.0770558731829454,0.11369598673141482,0.07798483362438102,0.07878222456123564,0.09185146201628272,0.08756149877600491,0.08997360635999012,4.931003403668458,0.24106302969583732,0.5805326158528384,0.1111111111111111,0.4525799532740396,0.25096839352415146,0.0008439103546184889,551.5432893255071,279.8964342196751,0.02262741699796954,Sam,REC_20260813_181957.csv
right,2,grass,2.992,0.96,1.0,13802.0,0.5319512447322082,34947.87026415201,2285.714285714286,0.6416277965740561,0.24107517849643006,0.43427131457370854,0.1597319078040943,0.3771774012353268,0.423492784246439,4762.0,3867.032786885246,-0.8000000000000114,599.0491803278688,0.15491184413007814,0.36666666666666664,0.0,0.36666666666666664,1.050495577403615,-0.5075565674409419,9406689.631958205,8205141.0,2506990.0,3857003.0,4237446.403857992,1138685.8846897446,1254677.1418545123,0.09828351470394975,0.08450584808956756,0.0744121175637694,0.07576444853299645,0.0643607798583232,0.07759157909016529,0.10878421630512657,0.07389068587344047,0.07495474566427429,0.0904196465286639,0.08584122193065383,0.0911911958590693,4.005002874827084,0.2964106665135264,0.5280413230341653,0.08333333333333333,0.45171314698543064,0.20572915106712195,0.0017704915092105168,4519.037655666673,984.9182167129416,0.024440403706431156,Sam,REC_20260813_181957.csv
right,3,grass,3.968,0.976,0.01639344262295082,15692.0,0.6886193982687776,37516.4466467708,726.5625,0.2039549294773977,0.24165971643035863,0.4170141784820684,0.16183322319718274,0.3771800684238262,0.42906090948375414,4796.0,3856.4193548387098,-0.30000000000001137,605.5322580645161,0.15701929752653723,2.0,-0.23333333333333334,1.7666666666666666,1.0576964221367269,-0.44744707710539267,8885228.171248108,8382292.0,1464854.0,2557081.0,4318121.948368058,1024654.2648472544,1003726.1064102798,0.09495687960585199,0.08087060535847226,0.07480196404821453,0.07575554793431981,0.06437945946850246,0.0783695388501786,0.11161950329990213,0.07624906941923396,0.07780491681235309,0.08997565851659152,0.0855841537779488,0.08963270290843085,4.384077459077495,0.3277981170480598,0.5654410436087609,0.09836065573770492,0.4661130907781051,0.22201995875833544,0.0019432936892053833,4287.195042604586,1001.6926275627154,0.024440403706431156,Sam,REC_20260813_181957.csv
right,4,grass,4.96,0.96,0.016666666666666666,16300.0,0.739018465649854,36773.527190086075,733.3333333333334,0.20585558473417634,0.24775433465636099,0.4411949028619177,0.15544527555378204,0.38611066301016295,0.4025925477991429,4787.0,3861.6721311475408,-8.599999999999994,581.4016393442623,0.15055696589432932,23.0,-0.7796610169491526,22.220338983050848,1.1355430284929082,-0.291509904749121,9263814.014526522,8532565.0,1573588.0,3246137.0,4300615.929758616,1358777.3616585429,1082264.272814311,0.09442949202333144,0.08501371188901435,0.06900943276080182,0.07542387991271939,0.06764248902624362,0.07891765225291007,0.11349453647022865,0.07353053548534993,0.07911292992927553,0.08923340776525926,0.0819147400684321,0.0922771924164339,4.370268738896696,0.30295665265219646,0.5705086079990542,0.08333333333333333,0.4697384431664794,0.2463307544459008,0.002624868583416791,1302.674684383377,898.228511793748,0.009237604307033943,Sam,REC_20260813_181957.csv
right,5,grass,5.936,0.992,0.0,17453.0,0.8345943286274542,37589.842005520586,1054.6875,0.29606360730589987,0.23805567095970087,0.42625675114250106,0.15734968377188838,0.3783271758918701,0.41590901684724046,4814.0,3862.4920634920636,-9.300000000000011,589.6031746031746,0.15264838475036677,0.0,-0.06451612903225806,-0.06451612903225806,0.9487667955648796,-0.7378185070755103,9699811.659286689,9045692.0,2013411.0,2864957.0,4382852.319419156,910929.5547293295,927925.5229251016,0.09468350476910622,0.0801768740471034,0.0712756383122994,0.07613720889137286,0.0638538323395127,0.07969605937444778,0.11472566851732371,0.07456326000567115,0.07846320123943337,0.09105479232504715,0.08278642376621721,0.09258353641246501,4.5988920406881695,0.22600013640427544,0.575123809203602,0.11290322580645161,0.46004243754828333,0.2312182952114653,0.0010130114685158375,894.4452657001048,187.5190480293737,0.015999999999999973,Sam,REC_20260813_181957.csv
right,6,grass,6.944,0.96,0.0,16984.0,0.7957174164535648,37481.88294363025,781.25,0.21930637578214807,0.2401094276094276,0.4332912457912458,0.15842851977112712,0.38012039223193583,0.41678511074026137,4752.0,3853.5245901639346,-0.9000000000000057,591.8688524590164,0.15359155978133707,0.0,-0.13333333333333333,-0.13333333333333333,1.1111773227818038,-0.3458840638314893,9586555.72150629,8952840.0,1689653.0,2982244.0,4326009.4073217865,1255677.2641425454,1146746.6744887521,0.09474400697679364,0.082908982621828,0.07245230042754132,0.07534511730797865,0.06595197073149979,0.07903345883053624,0.11237317337757641,0.0735200901878204,0.07688086274009318,0.09008146682832407,0.08490842958330674,0.09180014038670155,4.100675225595222,0.29270733620267575,0.5141201582502911,0.05,0.4524635221675483,0.2650293048823735,0.0014982050430046067,579.8312973040782,173.3650165521301,0.018475208614068015,Sam,REC_20260813_181957.csv
right,7,grass,7.92,0.9440000000000008,0.01694915254237288,19061.0,0.9678865989379324,36813.866015402404,750.0,0.21053412075086214,0.23580246913580247,0.4195473251028807,0.15474024270111456,0.38479440092572276,0.40213745919572363,4860.0,3874.45,-6.900000000000006,580.6833333333333,0.14987503602661884,8.0,-0.3793103448275862,7.620689655172414,1.142937553370412,-0.2439343333198667,9438865.185589897,9009040.0,1602910.0,2315179.0,4285544.460208925,1046384.181497326,874126.86623256,0.0931271965483273,0.08185247798612276,0.0695367514528944,0.0785487832681628,0.06533400439632292,0.07969733338495358,0.11498836393982802,0.07253072479104561,0.07936180189016076,0.09015473163932947,0.08220951791006896,0.0926583127927835,4.129771541155677,0.2629239516256665,0.5247591299903657,0.06779661016949153,0.45221892357207943,0.2759712366109487,0.002416271601239019,1089.3081902443082,167.62015668493845,0.024440403706430754,Sam,REC_20260813_181957.csv
right,8,grass,8.88,0.9759999999999991,0.0,19114.0,0.9722799386931906,38194.62818250755,1328.125,0.3728208388296517,0.23277276456111567,0.4155045118949959,0.15766422747579267,0.3791012466201674,0.41588949886427906,4876.0,3859.467741935484,-0.09999999999999432,590.2741935483871,0.15294186478998023,0.0,-0.16393442622950818,-0.16393442622950818,1.122754986085751,-0.26987878780473107,9434105.531915838,8719490.0,1042136.0,3447723.0,4331654.155832878,934010.5354716601,1074634.2273623508,0.08958698132368244,0.08241149749046124,0.07765570214846607,0.07542825143029082,0.0648175621742928,0.07894285941150167,0.11596534705186659,0.07364378340653692,0.07750107611362088,0.09062757274737031,0.08402044406925574,0.08939892263265452,4.387602130026014,0.3282116618128863,0.5457268931591399,0.09836065573770492,0.4337430566990532,0.2238278888557436,0.0016966635593180692,1214.7453779839336,325.1351882294502,0.015999999999999084,Sam,REC_20260813_181957.csv
right,9,grass,9.872,0.9760000000000009,1.0,20244.0,1.0659492580034147,38548.39067976768,1015.625,0.2850982885167925,0.24777801864296553,0.46824192499458056,0.16468673039195225,0.3818758609174771,0.4312572415448622,4613.0,3864.032258064516,-0.09999999999999432,618.0887096774194,0.1599595107901657,0.3442622950819672,0.0,0.3442622950819672,0.8065174671924473,-0.9240016120557808,9630281.89071187,9028588.0,2119702.0,2594955.0,4453506.23856878,1032130.6182443617,896465.7809878765,0.0910422840923321,0.08035647201235548,0.06491213424051426,0.07664983094711358,0.06664023041282298,0.07962182243185709,0.11607045957340234,0.07771423800976751,0.07860750511332805,0.0898276077973035,0.08697249238218475,0.09158492298701841,4.3165165892014565,0.3075178275130939,0.5555066049916867,0.08196721311475409,0.45465045627162365,0.2517398937898011,0.001672674230247987,668.2312473986815,289.37904964768967,0.01847520861406749,Sam,REC_20260813_181957.csv
right,10,grass,10.864,0.9599999999999991,0.0,21373.0,1.1595356841107094,39150.43465914523,731.25,0.20527076773209058,0.24087591240875914,0.4358706986444213,0.15486736884816313,0.3865914892897598,0.40059694312614047,4795.0,3878.622950819672,-0.5,581.8934426229508,0.15002578234627806,0.0,-0.31666666666666665,-0.31666666666666665,1.1422889833450105,-0.1983775791268152,9456778.028097995,9108000.0,956614.0,2357939.0,4450880.121576938,939624.4976917102,893533.8118886593,0.0919711237721686,0.08327275186393684,0.07162420328323386,0.07725827993710797,0.0667171042621177,0.08015773723985191,0.11462154896955147,0.07273157618894656,0.07918561598674534,0.08909702615428831,0.08213579265921656,0.09122723968283487,4.564705781754578,0.3170262208514174,0.5592159063376673,0.08333333333333333,0.46187691173377565,0.25126269540831125,0.0015224491385495767,1129.500036889477,298.5479180550419,0.009237604307034533,Sam,REC_20260813_181957.csv
right,11,grass,11.84,0.9760000000000009,0.0,18985.0,0.9615867155152978,37705.455003222014,609.375,0.17105897311007548,0.24052206339341206,0.4226227470478558,0.15949088949234055,0.38202358989241514,0.4174896360121342,4827.0,3890.4032258064517,-0.19999999999998863,601.991935483871,0.15473767127547108,0.0,-0.47540983606557374,-0.47540983606557374,1.0394864865678461,-0.4705805578495088,9289038.525366874,8906415.0,943175.0,2464230.0,4302010.990177415,1132504.375430909,1052892.8836029,0.09180157956924608,0.08285483302584937,0.07108061607346448,0.07619245040525695,0.06680624365166558,0.0786385025186045,0.11370825646234531,0.07430194233121204,0.07753156029103873,0.09065732468232417,0.0851889471611285,0.09123774382786426,4.609120296128749,0.3142330548100435,0.5583114189358481,0.11475409836065574,0.4386567286857404,0.2988888676308233,0.000952119361496476,1194.5896087499382,208.47130847752933,0.009237604307035054,Sam,REC_20260813_181957.csv
right,12,grass,12.832,0.9919999999999991,1.0,15190.0,0.647007010398218,36659.00897460268,546.875,0.15351446304750366,0.24935622317596567,0.43433476394849785,0.16030509348912808,0.37376408887505985,0.42889378156017416,4660.0,3877.031746031746,-0.5,603.3253968253969,0.15561528415208822,0.532258064516129,0.0,0.532258064516129,0.8600509296876657,-0.7656097457784874,9253161.296097081,8855102.0,985936.0,2497217.0,4442984.690848915,1325765.6807010358,1067135.3546826316,0.09034484735090255,0.07913106492038992,0.0748035848075561,0.07468894957277904,0.062468014722439444,0.07786598322231457,0.1200681260823818,0.07705534834781969,0.07961007643713691,0.09078291771237201,0.0832497451413084,0.0899313416825996,4.007009020795163,0.19507981969930854,0.5324357177264436,0.04838709677419355,0.45349291271014763,0.2410722806123192,0.0012228487858452711,3118.0671897827983,93.76735950389701,0.016000000000000028,Sam,REC_20260813_181957.csv
right,13,grass,13.84,0.9920000000000009,0.0,17808.0,0.8640214156673919,35902.885190469024,796.875,0.22369250329779103,0.23609716924312388,0.4224051395302148,0.15783136450909566,0.3806908783234078,0.4145919261425201,4981.0,3902.095238095238,-11.400000000000006,597.4603174603175,0.15311269484851445,0.0,-0.5161290322580645,-0.5161290322580645,1.0401082641766004,-0.5507636466219634,9529444.765047595,8691390.0,1273043.0,3694512.0,4314731.736898369,1094087.191704789,1137956.0122031975,0.09196931237593152,0.08151095056786749,0.07080038400208272,0.07605600572748869,0.06488984347033747,0.07821194962413355,0.11689690520355366,0.07483159230694132,0.08002212893358066,0.09194083764522112,0.0829997722021543,0.08987031794070748,4.486830876240979,0.22080904915059454,0.5580328458893837,0.08064516129032258,0.44455694191678613,0.24771273883968037,0.0009698352754423121,1942.5617965288336,130.10412496663233,0.009237604307033565,Sam,REC_20260813_181957.csv
right,14,grass,14.848,0.9919999999999991,0.016129032258064516,18903.0,0.9547894728750869,35970.0098693342,882.8125,0.2478162046338273,0.23871635610766045,0.4532091097308489,0.16160729740718227,0.37877439949761893,0.42665844793475793,4830.0,3943.126984126984,0.30000000000001137,619.0714285714286,0.15700012479017136,1.0,-0.26229508196721313,0.7377049180327868,0.8743837200100547,-0.7751950462204515,9744637.820640847,9038362.0,2445904.0,2698802.0,4388076.488659982,905625.1144445405,1006595.4179647254,0.0897201077220963,0.08010321354818711,0.06941553919417753,0.07469295579610091,0.06710893376862291,0.0778891943788066,0.11775764138525141,0.07531690665292633,0.07898010200590137,0.09179323476251626,0.08629039075425594,0.09093178003115729,4.56423498362638,0.18297472524095054,0.5377492378024518,0.06451612903225806,0.4411625624423183,0.23065632579801354,0.001284055432659461,1907.8486138405563,174.5180304975673,1.0175362097255202e-15,Sam,REC_20260813_181957.csv
right,15,grass,15.856,0.9440000000000008,1.0,19569.0,1.0099963460260686,37253.95534705006,835.9375,0.23465782208689842,0.24396496475112156,0.45780816064943386,0.1564764138649987,0.3783120493441056,0.4136173144264904,4681.0,3837.0,-3.5,581.4083333333333,0.1515268004517418,0.0847457627118644,0.0,0.0847457627118644,1.0760199938094053,-0.37702840218327394,9206910.954509065,8587543.0,1732413.0,2831971.0,4341321.423538035,1237678.9640655539,1091140.0337177087,0.09234210754930067,0.08022326470332725,0.07446790026930762,0.07442880722786899,0.06458604812787769,0.07938493614803233,0.1161845191555903,0.07352097993223873,0.07968899313699938,0.09027886369559551,0.08295543393275998,0.09193814612110156,4.202971897026078,0.322960556722267,0.5212163425101579,0.0847457627118644,0.45813906216405437,0.2882086587939298,0.0018390756064645213,889.1664636051005,43.02789490067185,0.027712812921101563,Sam,REC_20260813_181957.csv
right,16,grass,16.816,1.0080000000000027,0.0,16764.0,0.7774809118090964,35085.266907920195,843.75,0.23685088584471992,0.23684753455745822,0.4309882401485455,0.15403292692210607,0.38448932819943665,0.4006169108602818,4847.0,3899.734375,-17.5,582.8984375,0.1494713181586887,0.0,-0.30158730158730157,-0.30158730158730157,0.99908428659765,-0.6718451820525035,8885020.98987757,8256454.0,1836260.0,2720793.0,4201205.7517724065,1013164.0916199458,1015023.217510126,0.09172900397863637,0.08137172804237468,0.0705296434452667,0.0765516882159442,0.0664428266348269,0.08007356270258792,0.11697912117411843,0.07363882956771896,0.08004952260370297,0.09031865151071988,0.08039409735438711,0.09192132476971589,4.506881748447333,0.21761020101684755,0.5629209985386092,0.09523809523809523,0.44355160830177925,0.25604314347621004,0.0008897219358684991,1465.5432439883855,25.113673856751355,0.033306655991458614,Sam,REC_20260813_181957.csv
right,17,grass,17.84,0.9600000000000009,0.0,18923.0,0.9564473369336749,36726.396678683304,945.3125,0.26536071469639916,0.22670125723408502,0.40351227299940134,0.1577763081824572,0.3825495260555091,0.4124336783506006,5011.0,3941.4590163934427,-6.5,603.5,0.15311588868231368,0.0,-0.5166666666666667,-0.5166666666666667,0.8802215183182468,-0.8021273106806159,9219049.126008062,8703607.0,1232726.0,2778215.0,4273730.026013947,958289.7987334903,1062266.9834011784,0.09245972823577855,0.08291844993740355,0.07144728797274871,0.075564927691751,0.06661010111093088,0.0793373511514834,0.11342641694637502,0.0738970756439531,0.0781186961639403,0.09070453231515334,0.08387923253850409,0.0916362002919781,4.929724277616079,0.38863388311766306,0.6178275788902281,0.05,0.5081113808925017,0.2760976223843846,0.000779721914731309,1468.9351018112861,61.01757559302045,0.033306655991459176,Sam,REC_20260813_181957.csv
right,18,grass,18.816,0.9920000000000009,1.0,20521.0,1.088910675214859,36143.17408584918,668.4027777777778,0.18762878816917114,0.23120112291959094,0.42530579506717464,0.155271147235519,0.3932237285957529,0.3948671861433953,4987.0,3952.6349206349205,-0.30000000000001137,595.7936507936508,0.15073328621454044,0.7419354838709677,0.0,0.7419354838709677,1.0856331692310832,-0.3735765876233086,9533235.897864323,8935736.0,1668883.0,2872288.0,4286003.947294743,1039964.4948234014,1004783.3320989815,0.0939377389404697,0.08856860603334725,0.06321280560285283,0.07765364474571916,0.07005975519645324,0.07887846564076204,0.11183618723294889,0.07328444758569731,0.0780632569794712,0.08882160182478234,0.08198669964982169,0.09369679056767437,4.1724856266629144,0.17215759860805216,0.5171506848532548,0.06451612903225806,0.4769561201371192,0.25557576368759066,0.0017388578179960493,1885.4678464508486,140.083655963432,0.024440403706431982,Sam,REC_20260813_181957.csv
right,19,grass,19.824,0.9599999999999973,0.0,16511.0,0.7565089314679577,37698.47969083104,1031.25,0.28948441603243547,0.23197429202651135,0.414541072504519,0.15304328948302282,0.3847248953145157,0.3977992881323871,4979.0,3926.6721311475408,-7.800000000000011,582.2213114754098,0.14827347230166119,0.0,-0.4166666666666667,-0.4166666666666667,1.0964969258038784,-0.349971318669954,9297763.297755111,8713381.0,1378111.0,2937040.0,4343843.086048917,1071918.52866448,1089373.0746187696,0.09459476384708196,0.08363984018503134,0.07139069916961345,0.07748187051981614,0.0670279342203593,0.07923532628889436,0.1136656827831518,0.0714908966421322,0.07733992410041457,0.09196040529877633,0.0815523928408906,0.09062026410383799,4.227314683489099,0.27107996296221354,0.5349264937643472,0.08333333333333333,0.4220006338289494,0.26343202856085784,0.0021467237986416325,2018.7226984737988,189.61467719290647,0.018475208614069115,Sam,REC_20260813_181957.csv
right,20,grass,20.8,0.9600000000000009,0.016666666666666666,20421.0,1.0806213549219188,37721.12638827213,1414.0625,0.396944540165688,0.23120567375886525,0.4166160081053698,0.15501456164429417,0.3836323770628996,0.40407059182800714,4935.0,3917.7704918032787,-4.800000000000011,588.9754098360655,0.1503343320054899,5.0,-0.6779661016949152,4.322033898305085,1.0900365096402143,-0.37560413412120575,9222646.125183705,8790350.0,1044579.0,2587625.0,4375110.911062915,940232.8997184531,1026335.0139863846,0.09306480768587018,0.08398470190473002,0.07279985270980484,0.07575402537408363,0.06676597596491815,0.07884209821578013,0.11308288420982159,0.07198808288420983,0.07828557560338768,0.09172580591169284,0.08302647876008436,0.09067971077561679,4.603329482799129,0.31729819908243406,0.5755133999462732,0.05,0.44904221473823097,0.27710408394756203,0.0015907275455215991,2286.853733844822,372.87440650866944,0.018475208614069115,Sam,REC_20260813_181957.csv
right,21,grass,21.776,0.9920000000000009,0.016129032258064516,18918.0,0.9560328709190279,38585.46424497184,1046.875,0.2938705435480784,0.2247596153846154,0.4072516025641026,0.1608084182126956,0.3839303995920973,0.41884783904436534,4992.0,3953.6349206349205,-0.10000000000002274,618.1349206349206,0.15634597858510754,12.0,-0.14754098360655737,11.852459016393443,0.9494329742160044,-0.49758628532267046,9897975.291731436,9255830.0,2058615.0,2839301.0,4311298.300386754,929714.7382440909,1092333.6062325714,0.09331979010675329,0.0883133463680198,0.06957631915978464,0.0741050028304273,0.06901023370095431,0.07690732659116184,0.11112137113124751,0.07483569469927212,0.07559449010153405,0.09096712288069247,0.08597272351342346,0.09027657891672924,4.262900260287589,0.19828942116123416,0.5238458499035323,0.0967741935483871,0.4443575282792306,0.22826353112110878,0.0015850795024515188,1972.340318842906,216.64725974784494,0.018475208614069066,Sam,REC_20260813_181957.csv
right,22,grass,22.784,0.9760000000000026,0.0,20153.0,1.0584059765368392,39986.373041324965,390.625,0.10965318789107403,0.2348784036582831,0.44024111411348993,0.1572469042889632,0.37962814454739485,0.41421297800860496,4811.0,3921.9193548387098,-5.0,598.5403225806451,0.15261413313922165,0.0,-0.11475409836065574,-0.11475409836065574,0.9199156384450339,-0.7681014691313091,9895992.36083527,9436646.0,1760513.0,2404365.0,4360759.948057596,931689.0883736034,829365.1135573204,0.09168075210047746,0.08130071270238816,0.07277542677836313,0.07532108620285491,0.06431594142104549,0.07901825554472587,0.11563627091738327,0.07387758627071175,0.07967214867638046,0.09140932476280952,0.08336931801825143,0.0916231766046085,4.189447747240562,0.2566932106219321,0.49999015555476983,0.04918032786885246,0.47293852786997814,0.2048069344124383,0.0015245633838700424,801.67096325945,518.4777460769973,0.016000000000000014,Sam,REC_20260813_181957.csv
right,23,grass,23.776,0.9280000000000008,0.017241379310344827,23158.0,1.3075000513396917,37252.8633261928,968.75,0.2719399059698636,0.23625,0.43291666666666667,0.15608848728710673,0.38069738804675846,0.41000671974095754,4800.0,3909.0169491525426,-2.5,591.3644067796611,0.15128212910610844,1.0,-0.8771929824561403,0.1228070175438597,0.9607866492952185,-0.6227346102432914,9378610.507026134,8892976.0,1938886.0,2261423.0,4407627.864606943,1045191.8078881098,990942.7772866375,0.09630927191369801,0.07969405806653022,0.06953068091158209,0.07863175968642686,0.06569773491969891,0.07903499947969059,0.11528755766762634,0.07349370425613097,0.07763883589441188,0.09021731589718686,0.08259478303097575,0.09186929827604148,4.429025623857804,0.2828527387639451,0.5453182515372385,0.034482758620689655,0.43230623971927556,0.23357209319153885,0.0014784264551880733,2180.705161180668,358.4680584910365,0.03330665599145846,Sam,REC_20260813_181957.csv
right,24,grass,24.72,0.9600000000000009,1.0,18822.0,0.9480751234378053,39107.98022143307,921.875,0.2587815234229347,0.2340956340956341,0.4158004158004158,0.15427847866965627,0.38407659656813053,0.40168674698768336,4810.0,3896.934426229508,-4.199999999999989,582.9590163934427,0.14959425862279305,0.4166666666666667,0.0,0.4166666666666667,1.0850160060264507,-0.3703784592490993,9499356.62122204,8977275.0,1562593.0,2684141.0,4346328.375489116,868988.2799969382,1022955.348525631,0.09478657036005603,0.08286463087841221,0.07127502492501463,0.07639043720789356,0.06700517010007867,0.07818251420831003,0.11403667447720571,0.07241505512950491,0.07963384417343604,0.09022224278857278,0.08186342354015136,0.09132441221136413,4.22442069190276,0.28839570079727683,0.5416218368690634,0.1,0.46759891549880034,0.24969252001155992,0.002330952195057345,2221.2039528147798,321.105471704132,0.024440403706431992,Sam,REC_20260813_181957.csv
right,25,grass,25.696,0.9759999999999991,1.0,20081.0,1.0524376659259222,38760.90996093874,800.0,0.2245697288009196,0.2334963325183374,0.41972290138549306,0.15714238457149002,0.38577890984874175,0.40733793517379896,4908.0,3900.6129032258063,-1.1999999999999886,594.6209677419355,0.1524429576824155,0.3114754098360656,0.0,0.3114754098360656,1.049491337152415,-0.5006726913884618,9783772.189527566,8967501.0,2327396.0,3144734.0,4411982.566528257,1059455.3274982078,1137022.8275144377,0.0943027977406363,0.0856068938711038,0.07109304575790405,0.07538517519992723,0.0678842861750428,0.07906118972204533,0.11097098057377253,0.07303649550525558,0.07784136488062257,0.08990315831258942,0.08410588906623442,0.09080872319486598,4.794166114567821,0.3180930098154679,0.5762165236332367,0.09836065573770492,0.461850329040253,0.22390639911697285,0.0018443584897049386,2230.6167308616696,87.1084991547892,0.024440403706430452,Sam,REC_20260813_181957.csv
right,26,grass,26.688,0.9600000000000009,0.016666666666666666,17970.0,0.877450114541955,35141.99160548531,895.8333333333334,0.25147131089686314,0.23993358239933582,0.43129929431299296,0.1567416488204644,0.3855074785424009,0.40658523516326617,4818.0,3888.72131147541,-3.5,591.139344262295,0.15201381043117548,8.0,-1.0338983050847457,6.966101694915254,1.0966828873928702,-0.3193971132067004,9388925.506966705,8903971.0,1064127.0,2781880.0,4248043.766946971,906301.4516735496,1036014.0104325445,0.09483499991568724,0.08427061025580494,0.0706667453585822,0.07680893040824241,0.06740805692798003,0.07851626393268468,0.11242685867494055,0.07337740080603006,0.07850361701768882,0.08882349965431766,0.08336424801443434,0.09099876903360707,4.249105209065562,0.29339698387891583,0.5398496802693195,0.08333333333333333,0.4322487277527315,0.26801002437946164,0.001957341576114243,1062.0189891585442,64.18165860217242,0.00923760430703319,Sam,REC_20260813_181957.csv
right,27,grass,27.664,0.9759999999999991,1.0,19875.0,1.0353616661224654,40648.174780671274,425.0,0.11930266842548855,0.2365702479338843,0.4450413223140496,0.15400566124679085,0.3900911724047133,0.394794017760832,4840.0,3920.2580645161293,-8.199999999999989,585.6048387096774,0.14937915542097294,0.6721311475409836,0.0,0.6721311475409836,1.0186874072929448,-0.4838865940281347,9139294.175944934,8754920.0,1501506.0,2150245.0,4259684.505462293,999676.1464267035,915438.5836169387,0.09233263116318872,0.0845977881640445,0.06873313145941676,0.07681357382660786,0.0693420446316898,0.080565795536831,0.11274767954710024,0.07266226713185439,0.07877197024554011,0.09177720360739912,0.08134339411493646,0.09031252057139096,4.113138748983161,0.282132689549364,0.5096776776788136,0.08196721311475409,0.45762935965706614,0.2562014700715524,0.0010762625763013386,1163.8858764214538,248.8282726284515,0.00923760430703319,Sam,REC_20260813_181957.csv
right,28,grass,28.656,0.9760000000000026,0.0,19621.0,1.0143067925783973,38694.044942342225,656.25,0.18421735565700437,0.24117769889329713,0.44205470870745456,0.16115892139988525,0.37958364068518974,0.4245676160038615,4789.0,3935.8064516129034,2.3999999999999773,616.1532258064516,0.1565506925661831,0.0,-1.0,-1.0,0.8965497154278776,-0.7160228147040071,9484490.23106656,9118996.0,1469741.0,2153910.0,4303964.640171612,803971.9597336797,813528.2761330247,0.09027948528809113,0.0814031636751086,0.074469305794607,0.07460454061142528,0.06699041062208017,0.0788378001803131,0.1146586345381526,0.0758667322350627,0.0777477255962626,0.09036144578313252,0.08529218916482255,0.08948856651094171,4.179788473160088,0.28317987788117954,0.5071824421007822,0.08196721311475409,0.4389141282057597,0.23372227381859875,0.0009460833968623309,1034.3550325363803,235.42895739794025,0.009237604307034209,Sam,REC_20260813_181957.csv
right,29,grass,29.648,0.9759999999999991,1.0,21344.0,1.1571317812257567,40333.41256328306,697.9166666666667,0.19591369569871897,0.24072132522541415,0.43573076116586285,0.15617115028780787,0.3763451889110893,0.4149678404008969,4769.0,3931.2741935483873,-5.199999999999989,595.7903225806451,0.15155145462974737,0.7213114754098361,0.0,0.7213114754098361,0.999301681214404,-0.5834202668066513,10102208.944776088,9314473.0,2680476.0,2847853.0,4374213.838460025,995366.5012062249,1050091.123034518,0.09666077238357423,0.08078723552652632,0.0721919758430124,0.07701270621443429,0.06457727323079195,0.07739426189489576,0.11388821649387254,0.07281149098010577,0.07657371204444098,0.09298060630428451,0.08335965930770207,0.09176208977635913,4.0587488870058595,0.2641001223600811,0.5084231640401946,0.08196721311475409,0.46888383486150526,0.23193499016563346,0.001491546228996295,930.1618138797164,147.02390993505855,2.059156955057807e-15,Sam,REC_20260813_181957.csv
right,30,grass,30.64,0.9600000000000009,0.016666666666666666,21923.0,1.2051269457218805,38527.820013595374,953.125,0.2675537784542206,0.2342741935483871,0.4221774193548387,0.15427247497687285,0.3867604530415288,0.39888378908328126,4960.0,3934.065573770492,0.0,587.9508196721312,0.14945119969330523,9.0,-0.01694915254237288,8.983050847457626,1.1100592408220358,-0.30380914749855936,9648308.146317933,9188634.0,1445307.0,2563190.0,4380691.663175508,1035334.549443635,936662.3339981008,0.0942378051321371,0.08260340531215361,0.0687938060988924,0.07771962429889406,0.06818124994791189,0.07961563143288133,0.11353540741234612,0.07208994157797798,0.07864054204968787,0.089633216378168,0.0821825333988949,0.09276683696005467,4.268147298401442,0.26550341144045364,0.529537687238415,0.05,0.44059798808204487,0.1946312636221606,0.002352305561351803,1197.4399080260089,160.72863784387607,0.009237604307034037,Sam,REC_20260813_181957.csv
right,31,grass,31.616,0.9440000000000026,0.0,22234.0,1.2309067318329243,38350.1037677866,1208.3333333333335,0.3391938612097224,0.24436168011587006,0.4276846679081316,0.15439061494603082,0.380933306629281,0.4052956574264009,4833.0,3911.1833333333334,0.5,584.175,0.14936016806507832,0.0,-0.01694915254237288,-0.01694915254237288,1.168581087417077,-0.06372059652530915,9826388.33498519,9382890.0,1290147.0,2618168.0,4392531.532627369,991720.2607276471,968431.6520022114,0.0945962645576147,0.07961358668092776,0.06889219375210401,0.07725283481981156,0.06587520400901688,0.07943887399806537,0.1152421901300118,0.07337932680220394,0.0787528071214594,0.0910892270455233,0.0810112881438269,0.09485620293943435,4.372713065967659,0.2975259134587911,0.5484366002096134,0.06779661016949153,0.4341408277061487,0.26250489410337086,0.0020582009852848733,451.6750306728667,255.20833333333306,0.01599999999999825,Sam,REC_20260813_181957.csv
right,32,grass,32.576,0.9759999999999991,1.0,16980.0,0.7953858436418472,37527.71245359888,491.31944444444446,0.13791934299188424,0.25098039215686274,0.4297213622291022,0.15883265632009352,0.3805637524230489,0.4173614941220747,4845.0,3919.016129032258,-0.4000000000000057,603.1854838709677,0.15391247803308103,0.6721311475409836,0.0,0.6721311475409836,1.1034240107588786,-0.2647970240192228,8755436.67257282,8429940.0,1216843.0,2028072.0,4188702.6958666923,1224122.4604594642,900332.1572488163,0.09365418410644542,0.08151321719160914,0.07029825622790446,0.07661567460562435,0.0666271570794184,0.07880104865029489,0.11479592886628062,0.07516698973985406,0.07700665489610214,0.09160873984994587,0.08366566658023944,0.0902464822062812,4.404201130914442,0.29991540153528967,0.5598787597334047,0.09836065573770492,0.45678415233907527,0.3212143947818435,0.0018632316632910628,2947.72471577656,363.4337586145789,0.01599999999999825,Sam,REC_20260813_181957.csv
right,33,grass,33.568,0.9759999999999991,0.0,20602.0,1.0956250246521406,39069.3715076145,1177.0833333333335,0.33042160617843647,0.24345392764341395,0.42174695182890265,0.15803557567388693,0.3792518813272651,0.4167034719002721,5003.0,3947.967741935484,-5.0,604.8225806451613,0.15319846062081757,0.0,-1.1147540983606556,-1.1147540983606556,1.0456263166490791,-0.5341724021885521,9797609.426346868,9426872.0,1172861.0,2398256.0,4369027.33644238,1068304.1755503372,994707.3741086798,0.0913985962561383,0.08025362170818795,0.06995023981305204,0.07727127881229215,0.06596697361647888,0.07896672032160278,0.11743077287620417,0.07486089208821199,0.07679328686870338,0.09292245091390426,0.08317468358567495,0.09101048313954914,4.781788632066881,0.3189721446114423,0.5608368157532955,0.06557377049180328,0.454378322754186,0.29230993836545227,0.001395064260546755,2689.0774130421264,405.248399269629,0.018475208614066003,Sam,REC_20260813_181957.csv
right,34,grass,34.56,0.9759999999999991,0.0,18635.0,0.9325740944900072,37183.13065087446,1050.0,0.294747769051207,0.24188851913477538,0.43427620632279534,0.15920450030322675,0.3742236349568163,0.4254260966747541,4808.0,3856.3709677419356,-1.5,595.4032258064516,0.15439469666868816,0.0,-0.4262295081967213,-0.4262295081967213,1.0072354913154706,-0.48047069418544286,9372010.16046803,8880758.0,1676214.0,2481334.0,4333417.085073981,926564.3569518848,822158.8829571089,0.09051213952612978,0.07811121102490642,0.0740542462201217,0.07520023421652482,0.062355967293335285,0.07847508312595411,0.11947970471988122,0.07477362554633096,0.08008113929609569,0.09233986490725445,0.0844308747568958,0.09018590936656977,4.097016587314294,0.25801734822617167,0.49572707071485794,0.08196721311475409,0.4294742034079736,0.22163132005826838,0.001668436445723966,1813.2382634391995,364.816448841283,0.0,Sam,REC_20260813_181957.csv
right,35,grass,35.552,0.9600000000000009,0.016666666666666666,19291.0,0.9869520356116948,36906.761900768266,1093.75,0.3070289260950073,0.23901213897028045,0.4271661783172876,0.15597245070114396,0.3766950097398636,0.4140549958672096,4778.0,3896.44262295082,0.4000000000000057,589.2786885245902,0.15123504836273524,9.0,-0.3898305084745763,8.610169491525424,0.9549760383279327,-0.6354171922410918,9211806.483490303,8987049.0,690277.0,1901012.0,4258664.169083389,1078542.8059776707,840523.14734121,0.09270330650488254,0.07870987828325963,0.07232322042384183,0.07709848832268189,0.062452931004741606,0.07908432660308057,0.11812371940778263,0.0733834561159191,0.0793493855260999,0.09315348594556615,0.08258899458522485,0.09102880727691925,4.192917482677392,0.28746169106740677,0.5247521940506894,0.05,0.4393314065443683,0.2923920454716511,0.0012976204835113212,1001.5110250682899,64.56092801320192,0.009237604307032994,Sam,REC_20260813_181957.csv
right,36,grass,36.528,0.9600000000000009,0.03333333333333333,19822.0,1.0309683263672071,35786.68211779348,1437.5,0.40352373143915243,0.23340867063899734,0.42716252311485514,0.15718509115507637,0.38588703952697906,0.4073344659298492,4867.0,3925.934426229508,0.30000000000001137,598.7459016393443,0.15251041831953968,5.5,-0.3793103448275862,5.120689655172414,1.1146419056077284,-0.3636309932525781,9495418.284406854,9100670.0,1128878.0,2463008.0,4273321.351845512,919899.6134694328,985645.6120659047,0.09407387611595026,0.0855387878838493,0.06907408489990897,0.07594725282067129,0.06868992241588096,0.07871572811317762,0.11184974236059496,0.07298669628615095,0.07699534829339992,0.0905913596846527,0.08419839486892544,0.09133880625683768,4.055195393404794,0.27606085605004255,0.512407539358511,0.05,0.4452851765990235,0.23349697741174336,0.00192419084761318,594.5959412351689,212.22408557937047,0.009237604307032994,Sam,REC_20260813_181957.csv
right,37,grass,37.504,0.9600000000000009,1.0,20224.0,1.0642913939448266,37430.494372904024,1333.3333333333335,0.3742828813348661,0.23415637860082306,0.42818930041152264,0.15849568228275834,0.37474865462433776,0.42293862920343983,4860.0,3929.6721311475408,1.0999999999999943,604.327868852459,0.1537858245379834,0.3,0.0,0.3,0.9867378583132005,-0.6204404259505965,9361226.00360535,8627860.0,1997529.0,3033556.0,4344470.314307553,881202.6763669107,1105099.3958113554,0.09258270410078845,0.08091443827958783,0.07796504109131867,0.07411455508739727,0.0636101956530808,0.07799841475115765,0.11427141128864045,0.073864252638605,0.07811105085311419,0.0924617245838722,0.08463142964415335,0.08947478202828418,4.502760787468449,0.29195831930523003,0.5548903570565111,0.08333333333333333,0.4195341568736619,0.2589828018978233,0.0015580117456161103,467.9839740845872,176.2644464791259,0.0,Sam,REC_20260813_181957.csv
right,38,grass,38.48,0.9600000000000009,0.016666666666666666,20095.0,1.053598170766934,35189.1999766974,914.5833333333334,0.25673466391563465,0.2301062337141712,0.4163158949689317,0.15331680433906864,0.38563223403062435,0.3975725855084835,4989.0,3947.3606557377047,-1.6999999999999886,586.7377049180328,0.1486405109867976,2.0,-0.711864406779661,1.288135593220339,1.1277575210520911,-0.24987906116826197,8716276.010013107,8505687.0,463035.0,1847256.0,4170089.0899411514,1245221.2700718525,898413.3035674457,0.09494619770836708,0.08360431747297427,0.07166025026060162,0.07690550648077778,0.06687182554020325,0.0800202667065356,0.11199847169098257,0.0711660416381147,0.07823031783013344,0.09051493216052228,0.08215076270095395,0.0919311098098335,4.260194338567808,0.2911321637659742,0.5223356995755086,0.08333333333333333,0.42446083945821184,0.3085343572538628,0.0015709644389704667,205.25350179717668,276.7803272218547,0.0,Sam,REC_20260813_181957.csv
right,39,grass,39.456,0.9759999999999991,0.0,19880.0,1.0357761321371124,37317.151338225165,375.0,0.10526706037543107,0.23144654088050315,0.4238993710691824,0.15502958579881657,0.3758629191321499,0.4124631026563292,4770.0,3925.1612903225805,1.5999999999999943,590.7903225806451,0.1505136423405654,0.0,-0.16393442622950818,-0.16393442622950818,0.891587649868704,-0.799332021951872,9086852.898902953,8708494.0,1392772.0,2189341.0,4223970.233867724,989103.3627537952,850548.1149555779,0.09079963839579223,0.07845989480604865,0.07691896778435241,0.07564924391847469,0.06314924391847469,0.07903517422748192,0.11987179487179488,0.07334812623274162,0.07956936226166995,0.0932034845496384,0.08168145956607496,0.08831360946745562,4.355475158310811,0.27412265597252916,0.5536587067375722,0.04918032786885246,0.4319294476889126,0.25205413158259266,0.001642739223200602,173.78243102608727,480.4346146787103,0.009237604307032994,Sam,REC_20260813_181957.csv
right,40,grass,40.448,0.9759999999999991,1.0,20205.0,1.0627164230891681,38489.42906825197,1468.75,0.41229598647043836,0.24317162657969832,0.45474928658785163,0.15517635439028968,0.37827424923883146,0.4102218290101265,4906.0,3951.9032258064517,-2.4000000000000057,594.7016129032259,0.15048486233664465,1.4262295081967213,0.0,1.4262295081967213,1.0392848175040759,-0.3209010876145073,9992426.218507195,9622349.0,1290147.0,2365270.0,4492975.036412188,1033179.6747885863,986369.0581811198,0.08994033091446342,0.07761470585834511,0.07460268225191619,0.07735350055914259,0.06421160894301643,0.08017778285676971,0.1209788668587614,0.07381090368870859,0.0789166510215576,0.08995257491286354,0.0813654507015811,0.09107494143287433,4.277569295227598,0.2662504726079471,0.5255883526928686,0.04918032786885246,0.4549762103265371,0.21102573192020047,0.0016835587905660563,165.30275254817536,546.8912034636554,0.009237604307032994,Sam,REC_20260813_181957.csv
right,41,grass,41.44,0.9759999999999991,0.01639344262295082,18860.0,0.9512250651491226,35110.406391837736,1929.6875,0.5416867481819058,0.24135172965406917,0.4253149370125975,0.15719695420677698,0.3875084855275749,0.4056606760305074,5001.0,3944.0967741935483,-0.30000000000001137,601.0967741935484,0.15240416465603965,8.0,-1.0333333333333334,6.966666666666667,1.0764089338217362,-0.3886433717900144,9205313.457423924,8442157.0,2210110.0,2929709.0,4278585.172589414,837146.1965829156,1019354.5909101873,0.0925515470241357,0.0807658648695069,0.06810095937579233,0.07778059492749474,0.06840766519175248,0.08053685786025665,0.11394734474551597,0.0746890003026164,0.08001750267856414,0.0895744559038825,0.08250795390416057,0.09112025321632165,4.2927676006245346,0.2828066305537329,0.5418808890382254,0.08196721311475409,0.4459710810419153,0.20368043198997088,0.001985789029462889,701.7893796099625,798.520054440557,0.0,Sam,REC_20260813_181957.csv
right,42,grass,42.432,1.0079999999999956,0.0,18985.0,0.9615867155152978,37739.43324958657,750.0,0.21053412075086214,0.23518668831168832,0.4257305194805195,0.15765249668442818,0.3804863884986934,0.4143446426727182,4928.0,3982.15625,-3.4000000000000057,609.875,0.15315195128267506,0.0,-0.38095238095238093,-0.38095238095238093,0.8536738978663696,-0.8154030348551697,9242289.51005177,8390844.0,2521651.0,2941926.0,4223964.017353468,1333780.734903826,1036920.5177380627,0.09131359423679068,0.08004849759473903,0.07438259736794607,0.07528113694684883,0.06531480275290553,0.07958157091399917,0.11591945318569556,0.07451208123739494,0.08026038029020081,0.09150585816415416,0.08314041544703325,0.08873961186229194,4.5309943323479045,0.19929153824589224,0.5360118691173076,0.09523809523809523,0.4401977119173425,0.2908181955248979,0.0009040712688210038,743.0847865486161,594.5204705001757,0.01847520861406599,Sam,REC_20260813_181957.csv
right,43,grass,43.456,0.9759999999999991,0.0,15510.0,0.6735328353356266,35950.13895661601,706.25,0.19825296370706186,0.2259765625,0.411328125,0.16095037052943775,0.38601509669420486,0.4169535645307556,5120.0,3980.7903225806454,0.5,622.4596774193549,0.15636585375735892,0.0,-0.8360655737704918,-0.8360655737704918,0.8496091806489843,-0.8705974049110576,9577503.50185475,9191078.0,1800830.0,2002416.0,4260412.757309872,842336.1287891865,926868.2186522147,0.09177136976366339,0.08615163952692162,0.06806072712097208,0.07487166189239453,0.06912632845641771,0.0778658800935136,0.1114586583147292,0.07556045363013504,0.07799958672495735,0.09013042474139922,0.0853899168993027,0.0916133528355935,4.324320807357196,0.30552137973091154,0.5101035430452578,0.03278688524590164,0.45297419061265126,0.20781203947525864,0.0008021122046596553,1971.1988737821464,694.0672369641742,0.01847520861406599,Sam,REC_20260813_181957.csv
right,44,grass,44.448,0.9279999999999973,1.0,21052.0,1.1329269659703713,37771.86135207001,552.34375,0.15504960767797868,0.24106015986537652,0.44699200673117373,0.15861161849660466,0.3803978290698386,0.4169624702757625,4754.0,3878.677966101695,-6.199999999999989,596.1016949152543,0.15368682322300978,0.6551724137931034,0.0,0.6551724137931034,0.8598294505159844,-0.9121013207662889,8958266.634294493,8438492.0,2024407.0,2223549.0,4283375.374482468,1055009.5499027395,933571.2463617071,0.09294622490626721,0.08011204236984469,0.07191861633791,0.07595633668644741,0.06592758322335934,0.07984548290960576,0.11508376958775049,0.07495564625374712,0.07855638388058137,0.08941977434212252,0.08365597224285752,0.09162216725950656,3.969191640138856,0.2329348592167217,0.488688475551332,0.08620689655172414,0.385310336359369,0.20671655009623463,0.0024875008842900302,2800.6510552607824,103.81810170768192,0.04026578365477668,Sam,REC_20260813_181957.csv
right,45,grass,45.392,0.9599999999999937,0.0,14008.0,0.549027244535665,36242.07732732769,604.8611111111111,0.1697918696055564,0.23809523809523808,0.42323481116584566,0.1558093496514642,0.3843708320401299,0.40536205316196666,4872.0,3908.622950819672,-0.30000000000001137,590.0409836065573,0.15095878805163865,0.0,-0.11666666666666667,-0.11666666666666667,1.1030469854349148,-0.29907199177378807,8704613.478991758,8221024.0,784350.0,2751337.0,4250961.804500109,938677.9798958683,1039580.6989570234,0.09280867019536461,0.08216385796851015,0.07194265726053367,0.07548673382936424,0.06730390142014714,0.07997869359885247,0.11474419736102606,0.07364549168295403,0.07943764522325585,0.08865224430221537,0.08216385796851015,0.09167204918926627,4.469883958097059,0.2994302975212673,0.5763883909081016,0.08333333333333333,0.44182306360608037,0.2848462065544538,0.002206579247670836,3710.069720818375,78.23566300741074,0.0244404037064316,Sam,REC_20260813_181957.csv
right,46,grass,46.368,1.0079999999999956,0.031746031746031744,16860.0,0.785438659290319,37021.1162176399,675.0,0.18948070867577593,0.23359840954274355,0.41013916500994035,0.15923886819019595,0.3849244959143153,0.4136885801768719,5030.0,3950.53125,-6.800000000000011,611.296875,0.15473789126462423,7.0,-0.9836065573770492,6.016393442622951,0.9740342431775295,-0.7352736886920335,9260333.362343874,8770803.0,1861917.0,2315179.0,4306992.520258681,923461.5408731254,1050307.7742612502,0.09278419832775656,0.08406701630318707,0.07003013835164575,0.07510065893036538,0.06811979401504545,0.07921798492291385,0.1122831581195567,0.07534192395010164,0.07841904174280358,0.08895559932604001,0.08389694424009429,0.09178354177048972,4.863822238680255,0.2745133691448579,0.6036581162686409,0.07936507936507936,0.4315251915253049,0.2682460004324976,0.0008270355168498969,3543.1789869174454,61.53873118708675,0.04026578365477669,Sam,REC_20260813_181957.csv
right,47,grass,47.392,0.9439999999999955,1.0,19636.0,1.0155501906223383,37035.13676226942,887.5,0.2491320428885202,0.23368334362775375,0.4397776405188388,0.15781466466083613,0.38497071997416216,0.40993939661521156,4857.0,3921.9,0.0,600.1166666666667,0.15301682007870335,0.2033898305084746,0.0,0.2033898305084746,0.994489798264422,-0.5737531385565231,9586028.625783099,9056688.0,1677435.0,2656042.0,4444700.914475384,945375.2908258267,973477.1578322502,0.09072558368817835,0.08166959891889135,0.07158520105051124,0.07550336996523793,0.06753529326771888,0.08066668366523029,0.11464681234435689,0.07339554807618756,0.07959577415708373,0.0900073943751753,0.0844191165846486,0.09024962390677987,4.19722052861419,0.29441249864566815,0.5324078174571357,0.03389830508474576,0.4285985010289681,0.19538881628506344,0.0026762861442464455,2814.0855234575474,147.1736249281262,0.03330665599145848,Sam,REC_20260813_181957.csv
right,48,grass,48.352,0.9600000000000009,0.016666666666666666,20770.0,1.10955108274428,36830.07322827366,510.4166666666667,0.1432801655110034,0.24175365344467642,0.4551148225469729,0.1558647879826327,0.3827083991815414,0.40726774828005124,4790.0,3941.8360655737706,-0.19999999999998863,595.7704918032787,0.15114035233643305,12.0,-0.5423728813559322,11.457627118644067,1.0112749382600152,-0.5038131633363099,9026777.290832317,8527678.0,1835039.0,2322509.0,4327839.122127262,1133143.8858591097,868913.7903125745,0.09139869911666361,0.07864771347295925,0.06984346148087768,0.07630213098664182,0.0666370003160714,0.0797872340425532,0.11689651156987674,0.07364463593565451,0.08133432036331575,0.0902051137025269,0.08222015204697818,0.09308302696588092,4.9645279529463275,0.3207816463381683,0.5988691725733764,0.08333333333333333,0.437090985434021,0.2602583680688845,0.0015151413605110175,2011.642446692089,189.04839058156665,0.03330665599145735,Sam,REC_20260813_181957.csv
right,49,grass,49.328,0.9279999999999973,1.0,17942.0,0.8751291048599317,38729.14154741879,1041.6666666666665,0.29240850104286403,0.23053832299379629,0.4022413448068841,0.1620555049617554,0.37986395255869243,0.426614591540135,4997.0,3964.2203389830506,-0.30000000000001137,622.9745762711865,0.1571493315205076,0.15517241379310345,0.0,0.15517241379310345,0.9649817701253605,-0.7003159531407439,9307261.818508707,8958949.0,1163087.0,2238210.0,4155760.00501731,1086878.6296777346,885108.6493009421,0.09525031104498288,0.08594675251935749,0.0713928401934251,0.07346219788019104,0.06960994317817426,0.07616005883132597,0.10956051802350689,0.07571540346061593,0.07468500014964363,0.09184698724608682,0.08634010150113944,0.09002988597155061,4.285198860207829,0.28881265378262827,0.5318656384876891,0.10344827586206896,0.4473057453495357,0.2919713658061323,0.001654604533660812,1423.2109236980054,273.30866673930063,0.016000000000001912,Sam,REC_20260813_181957.csv
right,50,grass,50.272,0.8960000000000008,1.0,23163.0,1.3079145173543387,45170.11284023984,1546.875,0.43422662404865314,0.23711763498254979,0.43194415931020325,0.1584686951879814,0.38082549423338313,0.4161189247765011,4871.0,3910.8947368421054,-1.9000000000000057,599.5350877192982,0.1532987022308351,0.08928571428571429,0.0,0.08928571428571429,1.0824163465556087,-0.3289469496384596,9948392.29464691,9462302.0,2449569.0,1853365.0,4527098.733994404,1266222.9500919841,974153.7597061435,0.09031450603577051,0.0804455390026063,0.07279260365779805,0.07314698929217077,0.06650786601531485,0.07863323778378888,0.11593344727504362,0.07499517766383607,0.08209186213950233,0.08940386953225582,0.08347351752414532,0.09226138407776746,4.154253716699971,0.2766588482388331,0.4972456238883584,0.05357142857142857,0.43290711867301157,0.2370237587097725,0.002642829324405962,2613.5185095958277,518.2836899011895,0.03200000000000008,Sam,REC_20260813_181957.csv
right,51,grass,51.184,0.9920000000000044,0.016129032258064516,18717.0,0.9393713371302181,40304.67771859738,508.68055555555554,0.1427928180092653,0.2352,0.415,0.15475176675236407,0.3850168098768621,0.40193509161783175,5000.0,3932.873015873016,0.19999999999998863,590.2777777777778,0.15008818626877238,3.0,-0.6229508196721312,2.3770491803278686,1.09518531748633,-0.345495332369004,9351317.496867754,8839220.0,2568077.0,1649336.0,4147322.447220661,1359770.9128705151,824223.1646334787,0.09090652255510129,0.08358121006897498,0.07150150744033805,0.07463746766167147,0.06959652259546113,0.07821738621549737,0.11564710962945622,0.07360425554241619,0.07898422333525716,0.08914683316449462,0.0811475112099479,0.09302945058138361,4.788724683414954,0.22059734589330499,0.5598525758225412,0.11290322580645161,0.4386662214324596,0.23848526966622446,0.0013738926319085318,2817.3977946561486,519.1591533724023,0.04888080741286467,Sam,REC_20260813_181957.csv
right,52,grass,52.192,0.9600000000000009,1.0,20669.0,1.1011788692484106,35490.11046756547,562.5,0.1579005905631466,0.22985255503938598,0.4235507978186225,0.1614402770144912,0.3844237197790165,0.4199539953132659,4951.0,3967.3606557377047,2.6000000000000227,621.8688524590164,0.156746236710205,0.06666666666666667,0.0,0.06666666666666667,0.9752672364555209,-0.4451256095742022,9462497.057428181,9132435.0,1084896.0,2227214.0,4285527.850398171,893795.4779162549,815206.0956640315,0.09015780404860976,0.08261676218653025,0.06996847224689992,0.07477407864996756,0.06935692474246825,0.07904664702552384,0.11316934494171706,0.07720787243449624,0.07862930717452657,0.08865785983165915,0.08423240457999497,0.09218252213760646,3.894208355524586,0.24530055512656154,0.49659813408456854,0.05,0.4208192522784299,0.2442591221215487,0.0013633412067488554,2228.4993455985864,584.4852974627353,0.04888080741286389,Sam,REC_20260813_181957.csv
right,53,grass,53.168,0.9440000000000026,1.0,23637.0,1.3472058955428752,44670.00094022833,560.7638888888889,0.1574132430614085,0.23380281690140844,0.4219315895372233,0.16391406722093727,0.3825175553749661,0.42851384182917285,4970.0,3999.25,0.5,636.2916666666666,0.15910274843199765,0.2542372881355932,0.0,0.2542372881355932,0.8225820110558428,-0.7761145787045565,10528228.99817011,9975429.0,2365270.0,2395813.0,4568357.659514492,1124983.4933170702,1043695.7697031177,0.08827488487424726,0.08137775832968681,0.07120085015940489,0.07378466795857556,0.0681711154174741,0.07988997937113208,0.11364214123481486,0.0776562272092684,0.07929403429809756,0.08910420703881979,0.08625784001166885,0.09134629409680982,4.152423200510641,0.27763437841494015,0.5152117966548001,0.06779661016949153,0.4121707381728167,0.2167999378777105,0.0016576060911012026,2477.4223163064726,30.583820050261792,0.024440403706432322,Sam,REC_20260813_181957.csv
right,54,grass,54.128,1.0080000000000027,0.0,20914.0,1.121487703966114,35823.04532001711,804.6875,0.2258855670556125,0.2414930913590431,0.43204784491647763,0.15966785478338957,0.37826418915978655,0.4221067163083623,4849.0,3949.703125,-6.900000000000006,612.671875,0.1551184622261958,0.0,-0.6666666666666666,-0.6666666666666666,0.889699533296735,-0.831843412693253,9376200.024831649,8836776.0,2072054.0,2351831.0,4278419.497318461,883676.3390105605,898684.5350984234,0.0902045644253326,0.08030271262476214,0.07244610947816489,0.07400872692172275,0.0661521237751255,0.078217904035509,0.11693125670046403,0.07700737001594266,0.07958272180266714,0.09044983602406827,0.08266048476744692,0.09203618942879409,4.2777642932513125,0.19880938803766718,0.5213710653325148,0.06349206349206349,0.44427858345743,0.205613860784354,0.001032930063405369,1647.4109991134553,140.33087525292802,0.033306655991458434,Sam,REC_20260813_181957.csv
right,55,grass,55.152,0.9600000000000009,0.03333333333333333,20215.0,1.0635453551184622,39552.47456228245,867.1875,0.24343007711818435,0.234860883797054,0.4234860883797054,0.16351273757740242,0.37911590844311155,0.43130012203597556,4888.0,3968.5081967213114,-0.5,630.2704918032787,0.15881798916882506,5.0,-0.22413793103448276,4.775862068965517,0.8438779629569071,-0.9052692916605833,9386667.73889286,9020036.0,822224.0,2464230.0,4376999.849130667,797632.2399087074,1005679.7123342764,0.09213934294176694,0.08077528410147101,0.07116685049095543,0.07338100372192548,0.06644525134356966,0.07887920885330822,0.11316140598730166,0.07738796012871832,0.07963516042283718,0.0899541058910521,0.08612477744868412,0.09094964866840989,4.48575405971973,0.2916987776930875,0.5358527455245519,0.05,0.44845634670884293,0.2864783582659359,0.0010830706594033028,1808.0106010013678,161.91582561311083,0.033306655991458434,Sam,REC_20260813_181957.csv
right,56,grass,56.128,1.024000000000001,1.0,17066.0,0.8025146590937757,35876.52872004202,846.3541666666666,0.23758190709732704,0.2388888888888889,0.4095238095238095,0.16030729436910948,0.384667807662224,0.41674216343513226,5040.0,3973.1384615384613,-0.09999999999999432,618.8,0.15574589357764063,0.8125,0.0,0.8125,1.0724349184891673,-0.3987716030036075,8937988.727411833,8481252.0,1458746.0,2414139.0,4212310.059544653,1157147.0748137753,1073975.4586795624,0.09244000092931766,0.08445948562268156,0.07065911854221038,0.07464356796022521,0.0688740542256848,0.07890294051592618,0.11201375390119805,0.0753521726672191,0.07778775933770629,0.08906348013970743,0.08495512170189039,0.09084854445623301,3.9750484441438996,0.17825911562829216,0.5038636439599579,0.046875,0.4258717108689473,0.23569104725806,0.001308983360947841,2049.874223783822,31.82344232607001,0.033306655991458434,Sam,REC_20260813_181957.csv
right,57,grass,57.168,1.0080000000000027,1.0,16563.0,0.7608193780202865,35981.77342766751,621.5277777777778,0.17447040562224225,0.2468025579536371,0.4162669864108713,0.15448396853244,0.3863428884425781,0.3998623325385716,5004.0,3936.59375,-11.900000000000006,588.9609375,0.14961181541783428,0.23809523809523808,0.0,0.23809523809523808,1.223887435929374,-0.07202039501555602,9591234.739827402,8908858.0,2401922.0,2618168.0,4280240.140208304,1207753.7975996977,964668.1031673653,0.09260464710131697,0.08332473347040192,0.06762270681347295,0.07542212096434894,0.06878567289296743,0.07927618261345866,0.11605845789904025,0.07310015797286677,0.07953417850140111,0.08976272316644307,0.08138381055957324,0.0931246080447087,4.14722620755168,0.2227003424676516,0.5426233145886507,0.06349206349206349,0.4846183917365893,0.2691934295531321,0.0022292611772275674,1979.3228640118296,136.2165139529036,0.033306655991458434,Sam,REC_20260813_181957.csv
right,58,grass,58.192,1.1360000000000028,0.0,13764.0,0.5288013030208909,49210.89167044222,919.6428571428571,0.2581549337778429,0.2441860465116279,0.40406976744186046,0.16518734011461123,0.3737960081807321,0.4419184167280754,5160.0,4115.361111111111,-1.8000000000000114,662.7291666666666,0.16103791350833258,0.0,-0.8591549295774648,-0.8591549295774648,0.8792402910349509,-0.49397736316793495,9911774.674673906,8848993.0,3401297.0,2893057.0,4035070.8109565377,1920504.0235741427,1200897.135222154,0.08712277172922586,0.07995788137938482,0.07338697157668087,0.07179064885624996,0.06514886637462622,0.0771904720120416,0.11702429245442211,0.0764311218807584,0.07970813955842945,0.09360255951617584,0.08875621823385284,0.08988005642815199,4.808550635307956,0.45057215978560805,0.6481631803917632,0.08450704225352113,0.38963709747580394,0.21541536223514304,0.0017747474409970185,1779.073447987273,155.3441007555887,0.06974238309665126,Sam,REC_20260813_181957.csv
right,59,grass,59.344,0.9439999999999955,0.01694915254237288,23058.0,1.2992107310467516,37683.57664818986,820.3125,0.23027169457125546,0.2460953143772527,0.42030436523828596,0.16446215004794879,0.3738863001719396,0.4398720947309539,4994.0,3945.1833333333334,1.1999999999999886,628.925,0.1594159122305258,8.0,-1.0517241379310345,6.948275862068965,0.9725228332527831,-0.685498219770416,9277216.238468358,8947954.0,1398881.0,2010968.0,4424197.2985988585,1198599.7015878072,995317.1051359365,0.09150821043382014,0.07970056313394815,0.07270891509055347,0.07424243064327386,0.06421332341969743,0.07752068978627946,0.11459543493965216,0.07840362298330031,0.0782092931887407,0.09133500344301701,0.08605852706464845,0.09150398587306885,4.656946684306294,0.2763296629303673,0.5485669538851631,0.06779661016949153,0.387162380535067,0.27316611090519516,0.001534703961243382,4767.911177863949,151.79728048943858,0.09776161482572779,Sam,REC_20260813_181957.csv
right,60,grass,60.304,0.9600000000000009,0.0,20401.0,1.0789634908633308,35390.01287086514,1078.125,0.3026427985793643,0.24054276315789475,0.4315378289473684,0.1581713414685215,0.37919078049229893,0.41712865819960854,4864.0,3914.72131147541,0.09999999999999432,600.2295081967213,0.15332624226333555,0.0,-0.43333333333333335,-0.43333333333333335,1.1281343633929508,-0.30759386145712586,9250683.660397269,8699942.0,1596801.0,2708576.0,4387293.005117135,987223.5601555958,1037618.0166665661,0.09447734068124523,0.08220336853742494,0.07317481720952436,0.07433060578396804,0.06629452507977453,0.07830886355832126,0.11209892880174875,0.07425941590800593,0.07805341753281016,0.09062889973952881,0.08391192556051558,0.09225789160713238,4.219891754772197,0.2873918210181467,0.5400896903831747,0.08333333333333333,0.3986897319328684,0.2602785592547704,0.0018892133147017385,4786.924099391312,130.03230022508902,0.10653324989567314,Sam,REC_20260813_181957.csv
right,61,grass,61.28,0.8159999999999954,0.0,30495.0,1.915687481232713,40180.4805347074,988.28125,0.2774225653644173,0.2336090377244301,0.41234617712326005,0.16210945005956728,0.37619134545175054,0.4309228588573456,4957.0,4003.230769230769,1.6999999999999886,627.2115384615385,0.1566763383421083,0.0,-1.0588235294117647,-1.0588235294117647,0.9749586198414082,-0.5479890101099354,10329777.92296209,9584475.0,2423913.0,2994461.0,4514043.210031831,1377914.8392777247,1089834.294801941,0.09162311210176396,0.08225567810614504,0.07491545290342415,0.07369048076553553,0.06717170746704584,0.07660159102263556,0.11296164636255332,0.07594827254909496,0.07647188809038853,0.09163752353868031,0.08616117751047231,0.09056146958226048,4.891008330033446,0.24231911660628458,0.5698775053640983,0.058823529411764705,0.41500477891194304,0.20891112394301958,0.0015021305912077173,5232.231104732792,130.8642334297089,0.07892612579706168,Sam,REC_20260813_181957.csv
right,62,grass,62.112,1.1679999999999993,1.0,23053.0,1.2987962650321045,32220.696904319124,312.5,0.08772255031285922,0.21143174250832408,0.38457269700332963,0.138597479040944,0.3910802679166681,0.3543965022300382,5406.0,3912.0675675675675,-1.5999999999999943,527.2297297297297,0.13477009806800164,0.958904109589041,0.0,0.958904109589041,1.6474062294675282,1.3665045902389474,5838688.716750877,5348736.0,2070833.0,1092227.0,3879109.092229356,1385662.0675922816,737003.4840608354,0.09738404728266314,0.08560483327748857,0.07480664472025231,0.07656834534859219,0.07008114185835237,0.07953560189710977,0.11149492388416991,0.06519674050840608,0.07929034553512519,0.08665494502457745,0.07340073853253792,0.09998169213072511,4.949783490192426,0.3976326673272039,0.6378760150221331,0.0684931506849315,0.3825579769219427,0.14380966401818393,0.0020679182558657402,5232.993152425612,418.5159968847507,0.17696704024573032,Sam,REC_20260813_181957.csv
right,63,grass,63.296,0.9600000000000009,1.0,14692.0,0.6057261953393759,38344.16869616552,984.375,0.27632603348550655,0.2458813838550247,0.4520181219110379,0.15603804311328992,0.3792685178967161,0.4114183902700763,4856.0,3905.8360655737706,-0.5,590.2213114754098,0.15111266872607615,0.6833333333333333,0.0,0.6833333333333333,1.1383512746828055,-0.31781712908093596,9390602.971515832,8655960.0,2767219.0,2366491.0,4563139.564008604,1096349.910346297,1003438.0988951495,0.09391159089382849,0.0799769995299174,0.07378198240547983,0.074717950439863,0.06543381908535358,0.07916694647773823,0.11294993620307568,0.07470535894164261,0.07997280236384394,0.08675961990464039,0.08133268417164731,0.09729030958296958,4.469383610038789,0.29278152089448484,0.5419552821306404,0.1,0.42218750564795987,0.2075657755949127,0.0013894560311240249,7905.952335635053,389.039752096025,0.17696704024573032,Sam,REC_20260813_181957.csv
right,64,grass,64.272,0.9599999999999937,0.0,18114.0,0.8893867357637888,37987.84797800476,786.4583333333334,0.2207684182873624,0.24398766700924973,0.4380267214799589,0.15950889709237212,0.3778340038989589,0.42216660079890933,4865.0,3952.2950819672133,-0.5999999999999943,611.5327868852459,0.1547285246173628,0.0,-1.15,-1.15,1.0056849789410174,-0.5746128871175018,9183305.562458487,8717046.0,1083674.0,2678033.0,4354601.033341647,1052388.7313155024,973703.0552406921,0.09252146501306566,0.08101124061553777,0.07514206312995148,0.0730722966527023,0.06517483097598407,0.07889584802355966,0.1139698867642789,0.07579327222199178,0.07967978763117507,0.08909535857978347,0.08371562487038035,0.09192832552158944,4.114378843042043,0.2884805017535909,0.5146358835793207,0.08333333333333333,0.4284219487329274,0.26271889589629144,0.0016590566381117977,4203.37416052073,345.2592080127502,0.12008885599144335,Sam,REC_20260813_181957.csv
right,65,grass,65.248,0.9599999999999937,1.0,20832.0,1.114690461325903,40503.95622652187,1656.25,0.4649295166581539,0.23978146499392958,0.44698502630513964,0.15579116069777477,0.38509112576794263,0.40455661082035344,4942.0,3989.2622950819673,-5.900000000000006,602.5245901639345,0.1510365941358976,0.9333333333333333,0.0,0.9333333333333333,1.012279928020642,-0.5539218342133863,9975152.644572664,9330355.0,2481334.0,2508212.0,4353860.41145272,1059482.0162639585,881781.5084496145,0.09341058990322382,0.0823974193018143,0.06990075818282684,0.07488134130555384,0.06748443567774147,0.07908113994534509,0.11346442293862623,0.07445807392796236,0.08124678953748793,0.08918613491133986,0.0813330867698124,0.09315580759826585,4.203999720843657,0.2664657115959333,0.5169383109973924,0.05,0.44516645984487646,0.20938837254650394,0.0015462921930703534,3076.719248376971,455.91018230426005,4.0943002132167226e-15,Sam,REC_20260813_181957.csv
right,66,grass,66.224,0.9759999999999991,0.01639344262295082,20382.0,1.0773885200076723,37204.06329959135,1072.9166666666665,0.30118075607414996,0.24023125996810207,0.4182615629984051,0.15515933693769696,0.383524029316212,0.4045622309877951,5016.0,3976.6612903225805,-6.400000000000006,597.9032258064516,0.15035306810300422,4.0,-0.6,3.4,1.0622986485303938,-0.37570256233331545,8844821.135037271,8638856.0,755029.0,1740965.0,4277556.02054307,979147.7518591721,714478.2126854593,0.09192749631924982,0.08171468203591115,0.07096242998462805,0.07661638674037631,0.06858160314415157,0.07857134165879141,0.11584121872376325,0.07416660920775656,0.0780400157369815,0.09169630870441649,0.08099272772994041,0.0908891800140335,4.196783561025285,0.2601518292099351,0.4997352985183471,0.08196721311475409,0.43103554136827227,0.251928361575546,0.0012218354634399246,1456.814332713686,443.25946087227265,0.009237604307037113,Sam,REC_20260813_181957.csv
right,67,grass,67.216,0.960000000000008,0.016666666666666666,18171.0,0.8941116483307647,37864.488389518745,1359.375,0.38159309386093765,0.23879380603096984,0.4264466177669112,0.15633909036663796,0.3843979977458065,0.40671151068252587,4908.0,3956.1967213114754,-0.09999999999999432,599.672131147541,0.1515779354239873,6.0,-0.6779661016949152,5.322033898305085,1.0918615378781167,-0.3853610874604634,9350564.895911155,8677951.0,2128254.0,2756223.0,4379668.200807614,1010308.5788277144,1064256.3345172738,0.09373549691705894,0.08428777431545448,0.07104438772127561,0.07636080355366968,0.06823907710667639,0.07839952264138433,0.11319863422396076,0.07428893456208978,0.07711082012862164,0.08968292116952861,0.08205015580454816,0.09160147185573163,4.097172547183478,0.2777789542475865,0.5215189939434584,0.08333333333333333,0.42153399965200183,0.22605265940209635,0.001957018340306509,1424.309306295519,291.68216724684294,0.009237604307033019,Sam,REC_20260813_181957.csv
right,68,grass,68.192,0.9760000000000133,0.01639344262295082,21196.0,1.1448635871922053,39973.68379321576,814.2361111111111,0.22856597831517209,0.23399014778325122,0.4277504105090312,0.1568924413383191,0.3775044496334155,0.4156042173557635,4872.0,3951.032258064516,-7.300000000000011,601.7177419354839,0.1522938064368642,5.0,-0.36666666666666664,4.633333333333334,0.9323899384423449,-0.7599191172657371,10709794.759984246,9740857.0,2733011.0,3513696.0,4444856.384391428,1063221.032997424,1108487.8284684632,0.09349128851586355,0.08115069969464901,0.07252902467301318,0.07538658741692657,0.06431149066801653,0.07790124263157036,0.11575170229094887,0.07335363563625676,0.07875442922225308,0.09076435721167192,0.08353880570206235,0.09306673633676785,4.0904773333941,0.2730071328786741,0.5131594404981685,0.08196721311475409,0.45675980232310376,0.2118589816140841,0.0018382988501360162,1565.340325083768,272.6873712812449,0.009237604307033019,Sam,REC_20260813_181957.csv
right,69,grass,69.184,0.9920000000000044,1.0,17295.0,0.8214972025646087,36571.72912236992,1662.9464285714284,0.46680928559342943,0.23422873422873422,0.4293854293854294,0.15569892644833658,0.3844943847139658,0.40494460423411055,4914.0,3975.8253968253966,-4.099999999999994,601.0,0.15116357988957072,0.4838709677419355,0.0,0.4838709677419355,1.0063900128994292,-0.5886821522599894,9423539.857684266,9071348.0,813672.0,2419026.0,4273823.937337326,876259.4460848148,969759.8195970554,0.09326604837969155,0.08223509543790448,0.07050946793517968,0.07517656311757168,0.06751917341712015,0.07988358212530491,0.11353936688797775,0.07287295839538162,0.07967997061606455,0.08904610004112154,0.08282596805295496,0.09344570559372717,4.142387441353625,0.17903090487990803,0.5024673954329457,0.04838709677419355,0.4081636690651103,0.23685607613671505,0.0011279313268724386,2046.778037143587,430.04674617757235,0.015999999999998266,Sam,REC_20260813_181957.csv
right,70,grass,70.192,0.960000000000008,1.0,18516.0,0.9227098033414084,37379.27075265113,1875.0,0.5263353018771554,0.23070834982192323,0.43529877324891175,0.15706982846191492,0.38813010738094944,0.4046834437083477,5054.0,3986.1147540983607,0.09999999999999432,607.1065573770492,0.15230533861395912,0.25,0.0,0.25,1.0482414561699587,-0.41235123941274754,10077031.43439024,9391442.0,2582738.0,2583959.0,4412277.541462082,1179046.9310484817,1009731.0633133256,0.09380513503843259,0.08616796831624533,0.06303438575711588,0.0761249090079086,0.0693020443918027,0.07783576595805934,0.1110370836469219,0.07333242855321546,0.0786994197069335,0.08988579207330363,0.08373739990869947,0.09703766764136161,4.224416905352376,0.261917181097832,0.5132488144250968,0.05,0.45294199586681255,0.22059812802821735,0.002030539851410727,1995.4549188927708,561.3222407984396,0.015999999999998266,Sam,REC_20260813_181957.csv
right,71,grass,71.168,0.9599999999999937,0.0,18803.0,0.9465001525821467,39951.178931290626,814.0625,0.22851724356499828,0.23911290322580644,0.41995967741935486,0.1595388497633224,0.38529794989361876,0.41406617867358786,4960.0,3975.8032786885246,-1.1999999999999886,615.2868852459017,0.1547578796325312,0.0,-0.8833333333333333,-0.8833333333333333,0.9590487530560594,-0.6677981260516841,9375160.215923993,9056688.0,1419650.0,1963320.0,4392003.077641549,985539.0122432475,910160.7967869134,0.09166515478880441,0.08551730962708845,0.06732941894410449,0.07592238293942043,0.06845920403753857,0.07769540334152497,0.11365885438142204,0.07562962840791014,0.07770364994804638,0.0893519816595471,0.08390922135541225,0.09315779056918078,4.32692999999242,0.27457161879836933,0.5234180072039756,0.08333333333333333,0.4541050644529578,0.23963529853766066,0.0018152828156641346,800.7573498466014,561.4206711918031,0.018475208614070107,Sam,REC_20260813_181957.csv
right,72,grass,72.144,0.9759999999999991,0.01639344262295082,20153.0,1.0584059765368392,36240.860999705845,700.0,0.19649851270080468,0.23134178233755784,0.42365721182860594,0.15345784136403356,0.38313248115105575,0.4005346685900786,4971.0,3968.3064516129034,-9.800000000000011,590.7096774193549,0.14885686995752637,13.0,-0.38333333333333336,12.616666666666667,1.0435729738350832,-0.5438011753740701,9183724.800591588,8702386.0,1835039.0,2289522.0,4300174.364154307,1019032.131314754,884403.9919564291,0.09221452232405958,0.08127298961529864,0.0716483427154673,0.07735078342512243,0.0661328672749812,0.07974475176296054,0.11469506371044769,0.07160363362936167,0.07863108907269291,0.09003597049200317,0.08185420773467189,0.09481577824293291,4.530833069641445,0.2853055964393815,0.5360763770866753,0.08196721311475409,0.4377603326117052,0.2578058608534543,0.001878602859753974,874.1317597098005,647.9742321024422,0.009237604307032994,Sam,REC_20260813_181957.csv
right,73,grass,73.136,0.9759999999999991,0.01639344262295082,16941.0,0.7921530087276005,35653.571223651634,989.5833333333334,0.2777880759907209,0.23069084980639903,0.42266150397391483,0.15643298151848356,0.38311860777751894,0.40831475773482245,4907.0,3947.2741935483873,0.0,599.2822580645161,0.15182179617620978,4.0,-0.05,3.95,1.0870145754901452,-0.35491344878789466,8973742.981588563,8404283.0,1924225.0,2488664.0,4287138.088616442,886469.3927219496,1020895.953491011,0.09297146663070882,0.08459900870751969,0.0735092816194107,0.07542975757055706,0.0676538730279368,0.07860467206851604,0.11218848449930739,0.07380348219065014,0.0768312964029894,0.08934299291875569,0.08262949932783342,0.09243618503581483,4.1544986377262845,0.3053493075194664,0.5531133006127573,0.08196721311475409,0.4565231089390553,0.23980073518827644,0.0022132097048006756,1612.786822036115,145.8745601448472,0.00923760430703709,Sam,REC_20260813_181957.csv
right,74,grass,74.128,0.9920000000000044,0.03225806451612903,23345.0,1.3230010802874899,37747.7232823385,575.0,0.16140949257566098,0.22673267326732674,0.42475247524752474,0.1560360331619937,0.3857135451351642,0.40453864047531163,5050.0,3980.4603174603176,-9.600000000000023,603.4920634920635,0.15161363645426668,8.5,-0.9166666666666666,7.583333333333333,0.9313399806091276,-0.7481461556046676,9056604.636761727,8439714.0,1852143.0,2713463.0,4210087.207159858,902596.6882541784,1134356.8625131203,0.0930298402115094,0.08357492353520571,0.06997675151234801,0.07615773879546515,0.06591723857414593,0.08058013550319218,0.11235838560587633,0.07196663064413863,0.07948350872715527,0.08979977588936432,0.08406940251785508,0.093085668483744,4.726870228181428,0.23566373271106733,0.5661358424855755,0.11290322580645161,0.4394895915942265,0.20426341103483653,0.0008972578894083844,3202.005205075931,212.66673741726143,0.009237604307037113,Sam,REC_20260813_181957.csv
right,75,grass,75.136,1.0080000000000098,1.0,19071.0,0.9687155309672264,35937.905809882686,1453.125,0.4079098589547954,0.2271801140994295,0.42991035044824777,0.1569845586396599,0.38188062640660164,0.41108280385088236,4908.0,3999.0,-3.9000000000000057,610.796875,0.1527374031007752,0.8888888888888888,0.0,0.8888888888888888,0.8434269614676557,-0.9429808376091806,9671806.72803701,9266825.0,1549154.0,2295631.0,4211949.577831375,841570.2586741145,895516.4650901022,0.09337490622655664,0.08358730307576895,0.07190469492373093,0.0762495311327832,0.06593445236309077,0.07837506251562891,0.1126609777444361,0.07337771942985746,0.07773427731932983,0.08996780445111278,0.08360683920980246,0.09322643160790198,4.289881871232955,0.15413228936723916,0.5038906722965567,0.06349206349206349,0.4473882527344933,0.23697553408386693,0.0011266157030742966,3261.267442779472,439.2899066749439,0.016000000000005357,Sam,REC_20260813_181957.csv
right,76,grass,76.16,0.960000000000008,1.0,22373.0,1.2424288870401112,37731.927515036914,1007.8125,0.282905224758971,0.24419321685508735,0.44542651593011306,0.15553096152969315,0.38778699362904195,0.40107317698842954,4865.0,3954.934426229508,0.09999999999999432,596.2295081967213,0.15075585178921538,1.2,0.0,1.2,1.019161851740327,-0.4930238148471249,9778810.514712717,9401216.0,1483180.0,2245540.0,4319641.725962095,878183.3284165574,864971.9452987408,0.09167630393241893,0.0812141711329694,0.066105425469739,0.07819656706086194,0.06702562890931023,0.08127634704104854,0.11372802599781971,0.07308570741675682,0.08007427948485188,0.08942139099941554,0.08244525411293632,0.09575089844187175,3.588949220276981,0.21216940090841901,0.44423661505360884,0.05,0.5009754512191048,0.186000998927741,0.0023616721623556406,2240.352055667446,439.0773277448777,0.024440403706431548,Sam,REC_20260813_181957.csv
right,77,grass,77.136,0.960000000000008,0.016666666666666666,20703.0,1.10399723814801,40260.817974800266,1031.25,0.28948441603243547,0.23961661341853036,0.41054313099041534,0.15627021915490155,0.38417638568608264,0.4067668523553913,5008.0,3952.590163934426,-0.8000000000000114,598.655737704918,0.15145909716807407,3.0,-1.305084745762712,1.694915254237288,1.237406484846422,0.05444559780083447,9932114.931833904,9205739.0,2378709.0,2871066.0,4495770.863451311,1187232.1325550051,1108063.9014653717,0.09356802760588616,0.0836430147485774,0.07026311860245202,0.07560097549645801,0.067260314879639,0.07919687442971615,0.11251389418849644,0.0729341208089321,0.07847520613169204,0.0889393964530418,0.08333609834596944,0.09426895830913948,4.667381987311268,0.3375674325755562,0.5576290430536016,0.1,0.46154854583252686,0.2307752802046801,0.0015839307414828932,1651.0364421578802,250.60960831789725,0.02771281292110307,Sam,REC_20260813_181957.csv
right,78,grass,78.112,0.9759999999999991,1.0,20665.0,1.1008472964366929,39529.936314140454,578.125,0.16228671807878955,0.23938144329896907,0.43463917525773194,0.15714029816719186,0.37884413395539707,0.41478878536783137,4850.0,3961.8387096774195,-1.1000000000000227,604.0564516129032,0.15246871361456474,0.4426229508196721,0.0,0.4426229508196721,0.9346271761809863,-0.6870571611468002,9875214.26807768,9370672.0,1870469.0,2492330.0,4436484.598602983,995231.0821300171,858528.9615430642,0.09244241432374997,0.07929276891635521,0.07103658288347704,0.0762760855581882,0.06464495957400035,0.07941897294348502,0.11688935570808602,0.07297849646221614,0.07921134696336826,0.0917869676022049,0.0841618017049757,0.09186024735989318,4.040799568882906,0.24248173524388486,0.4764450821104919,0.04918032786885246,0.44467655914305876,0.2043768082878251,0.00152563696192635,975.3296878491992,255.11531042762294,0.009237604307028876,Sam,REC_20260813_181957.csv
right,79,grass,79.104,0.9599999999999937,0.0,21344.0,1.1571317812257567,38623.92836053837,1250.0,0.3508902012514369,0.23046251993620415,0.42105263157894735,0.1565122397293062,0.38474033280280184,0.4067996682048534,5016.0,4006.7049180327867,0.19999999999998863,608.5737704918033,0.15188884206391748,0.0,-0.8666666666666667,-0.8666666666666667,1.0512771422155311,-0.38826081393589096,10132347.742375309,9674883.0,1789835.0,2420248.0,4395722.921986638,989069.5714140444,1024911.271173464,0.09129778363317227,0.08189551121276221,0.07106121296678927,0.07735394359454847,0.06815624629207599,0.08010343317962923,0.11447205299313855,0.07282465048341101,0.07723119852378595,0.09042629363075828,0.0836875892458952,0.09149008424403357,4.368958522184152,0.290493038245715,0.5484477834680052,0.05,0.45747144638427656,0.2536277321354454,0.0023305452498083848,381.52457325841584,342.683003116582,0.00923760430703297,Sam,REC_20260813_181957.csv
right,80,grass,80.08,0.9759999999999991,0.01639344262295082,17946.0,0.8754606776716494,38259.88783308179,2609.375,0.7324832951123745,0.23339579429523213,0.4361857172600458,0.1552682093190893,0.3751771728478055,0.4138530287981341,4803.0,3982.8064516129034,2.5999999999999943,600.3951612903226,0.15074675824309328,8.0,-0.016666666666666666,7.983333333333333,1.0258952289191212,-0.5783153700472434,9553595.183017699,9095783.0,1478293.0,2520429.0,4281540.609130696,1078094.6969984178,959992.0459296039,0.09234046344367319,0.07962856471769784,0.07627139235585216,0.07578543254472854,0.06418314205415211,0.07854730413794778,0.11707581782986547,0.07294661731474808,0.07703272939327917,0.09279807559914795,0.08232159200434123,0.0910688686045664,4.339675718147712,0.27975199426937375,0.5433851593141751,0.09836065573770492,0.4484206750006208,0.2961377353611338,0.0017146668327018618,1798.166010133663,1034.8343642623847,0.009237604307037066,Sam,REC_20260813_181957.csv
right,81,grass,81.072,0.9759999999999991,0.0,19554.0,1.0087529479821276,38650.84159497695,1895.8333333333335,0.5321834718980126,0.2295641695119502,0.4336212090781281,0.15722315298050227,0.38520134511311727,0.4081583695774241,4979.0,4014.532258064516,-0.5,612.8467741935484,0.15265708052599228,0.0,-0.21311475409836064,-0.21311475409836064,0.995354596765689,-0.6051796977798216,9912881.963019887,9362120.0,1992642.0,2577851.0,4318397.205324553,1078905.876000263,952882.6302389858,0.09275977195752527,0.08608241831089469,0.06985508294462457,0.07559230376736131,0.06718333795364421,0.07832833134459082,0.11308913985881937,0.0740776453288657,0.0780149537366262,0.08987107323795406,0.0831455076516366,0.09200043390745717,4.308049206006794,0.27124228586568483,0.5158190842428334,0.04918032786885246,0.4424052895301122,0.25282915695819486,0.0011922895334898916,1699.8121464836488,679.9684790658685,0.009237604307037066,Sam,REC_20260813_181957.csv
right,82,grass,82.064,0.960000000000008,0.0,20406.0,1.0793779568779778,38734.2095052939,2375.0,0.6666913823777301,0.22734530938123754,0.43193612774451096,0.15371564302680693,0.3939020252095972,0.3902382653273122,5010.0,3961.5409836065573,-7.400000000000006,590.7213114754098,0.14911402252807734,0.0,-0.9,-0.9,1.0651041156838559,-0.44862858767886005,9384748.69596368,9001710.0,1169196.0,2382374.0,4301919.137697657,925546.509230116,887805.5705473918,0.09115512261332319,0.08408716594800832,0.06685591796535542,0.0782937588452912,0.06968227300189526,0.07980004469199764,0.11271073518336135,0.07228102990225695,0.08203878272240477,0.08772459797892855,0.08143461312454997,0.09393595802262739,4.253901739128512,0.29797945235268475,0.5161159086062034,0.08333333333333333,0.4464223749111719,0.250152773686499,0.0017045190783114038,1249.2109509606526,363.7018112728497,0.009237604307028876,Sam,REC_20260813_181957.csv
right,83,grass,83.04,0.9759999999999991,1.0,12782.0,0.44740017774421836,38342.670355623384,1151.0416666666665,0.3231113936523648,0.23227783452502554,0.43861082737487234,0.15407392486655253,0.38988014905831403,0.39518278947669405,4895.0,4003.6290322580644,-0.09999999999999432,598.8629032258065,0.14958001812871388,0.7049180327868853,0.0,0.7049180327868853,1.0411543358234625,-0.43805362033483286,9716497.426174207,9446420.0,475253.0,2224771.0,4411090.897428753,928645.4317581749,1007081.2820244427,0.09281095780038272,0.08452009265787089,0.06653237989727062,0.07688186121462383,0.06925571558062242,0.0796132541041394,0.113820122872394,0.07158021955886797,0.07960922550105752,0.0893141303253097,0.08249370530768456,0.09356833517977642,3.865085960227364,0.24741279718663026,0.48834540676776383,0.04918032786885246,0.4605190401410917,0.23387015500648975,0.0021635074961780416,4177.544414286143,616.7643151853982,0.009237604307028876,Sam,REC_20260813_181957.csv
right,84,grass,84.032,0.960000000000008,0.016666666666666666,18257.0,0.9012404637826933,38712.01034562788,815.625,0.22895585631656257,0.22779088050314467,0.4158805031446541,0.14829874008322233,0.3886135951886566,0.3816097581741391,5088.0,3963.311475409836,-7.300000000000011,569.2295081967213,0.14362472183386968,6.0,-0.8813559322033898,5.11864406779661,1.2421978374642886,-0.03725650109851353,9381062.704540301,8891754.0,981049.0,2824640.0,4219158.782056472,971797.3988199092,1084095.0007804958,0.09590010009844392,0.08637833902763876,0.06961805411934051,0.07720402710103326,0.06829857463124892,0.07914395148948139,0.11384336661675533,0.06861706968009862,0.07758870293925431,0.0883182634160869,0.07968167040312374,0.09540788047749439,4.202560684188634,0.28632447726550264,0.5274548824596719,0.06666666666666667,0.4141954700512358,0.24407096784710006,0.0022558475926685194,3931.055880209967,820.7952173186372,0.009237604307028876,Sam,REC_20260813_181957.csv
right,85,grass,85.008,1.0080000000000098,0.047619047619047616,8451.0,0.08838971585697902,36589.92267004673,846.875,0.2377281113478485,0.23170731707317074,0.43434959349593494,0.14991268962721588,0.3828949625033131,0.391524319481798,4920.0,4008.6875,-1.3000000000000114,583.2109375,0.1454867553282714,2.3333333333333335,-0.03333333333333333,2.3000000000000003,1.0164209509676723,-0.5144759775082495,8968198.474098185,8763472.0,284663.0,1883908.0,4244909.374292577,1101746.9782509066,865415.0435283013,0.09460702536678152,0.07965902181200206,0.06856982491152029,0.07838444628073403,0.06609473175447075,0.07988119552846162,0.11594739550039758,0.07036670356569326,0.07887556712764465,0.09170707369930932,0.07954598606152263,0.0963610283914623,4.411796444135841,0.27092461472836954,0.5883518369944956,0.06349206349206349,0.45237855343446404,0.27062479219675983,0.0021766242000636365,4914.109312310151,185.29178066358085,0.0244404037064331,Sam,REC_20260813_181957.csv
right,86,grass,86.032,0.9440000000000026,0.01694915254237288,22641.0,1.2646442654251908,38387.20009326025,1031.25,0.28948441603243547,0.2306320586487022,0.4226273033485239,0.14983726911775722,0.39072059398852976,0.3834895611416381,5047.0,4004.5666666666666,-5.399999999999977,581.0666666666667,0.14510100968061465,5.0,-0.8103448275862069,4.189655172413794,1.2110829709295174,-0.0538381593793682,9600769.872933837,9095783.0,1759291.0,2519208.0,4418049.805368483,1035877.5110636227,1029683.0397638764,0.09426737807669577,0.08424548640302322,0.06947484954676743,0.07797348027668412,0.07022815618835164,0.08059548681921473,0.11258812855323506,0.07012827022482665,0.07767798430125607,0.08971424290601562,0.07970899889293057,0.0933975378109991,4.301708813285726,0.26603339701310313,0.5438659903478884,0.0847457627118644,0.4178439710978009,0.24612376575099523,0.0019130930009156957,7265.594630402481,116.52241826503736,0.03330665599146128,Sam,REC_20260813_181957.csv
right,87,grass,86.992,0.9759999999999991,1.0,19928.0,1.0397550058777238,43001.91403879599,875.0,0.24562314087600584,0.22939284278246883,0.4324487334137515,0.15476618596024777,0.3834364380583717,0.403629312706546,4974.0,3991.6612903225805,-6.5,599.4354838709677,0.15017193100132128,0.13114754098360656,0.0,0.13114754098360656,1.0116435188072286,-0.5689608326961912,10012229.025924698,9233838.0,2509434.0,2946813.0,4389014.1278742775,1155495.432741467,1079985.8705567927,0.09232553347098589,0.08282993175288808,0.07360101501921344,0.07571429148668798,0.06662679860838926,0.07972668829778208,0.11347042019047773,0.07287369233442297,0.0785387279126243,0.09044661653527718,0.0818924936258248,0.09195379076542631,4.479759682046268,0.31319954664605393,0.5812092331945121,0.08196721311475409,0.42466191786923135,0.27879436570602517,0.0024445413193582657,7532.573685888068,99.33044074367325,0.032000000000003574,Sam,REC_20260813_181957.csv
right,88,grass,87.984,0.960000000000008,0.016666666666666666,19985.0,1.0444799184446996,41108.51537090582,458.3333333333333,0.1286597404588602,0.23446611703197265,0.4252966016489041,0.15207636685815543,0.3891957880640038,0.39074515069790255,4973.0,4015.1311475409834,-3.6000000000000227,592.016393442623,0.14744634027837322,11.0,-0.8983050847457628,10.101694915254237,1.094616852058963,-0.28018139600458847,9964552.37557478,9362120.0,2087937.0,2698802.0,4384630.274539179,999674.3231760175,987186.9124526177,0.0911551793829081,0.08338539051048698,0.07041396683855743,0.07739167003507225,0.06780906652294803,0.08118878178039629,0.11425223437570176,0.07067119053743422,0.07942087921510026,0.08937094515419132,0.08140517632072121,0.0935355193264822,4.65812540699621,0.30089401103609703,0.5743652026393976,0.08333333333333333,0.45775396196232354,0.24280433068562607,0.0020136379773362766,1550.1588090687324,296.15836995194167,0.015999999999998255,Sam,REC_20260813_181957.csv
right,89,grass,88.96,0.9760000000000133,1.0,20052.0,1.0500337630409695,39097.360652606716,1484.375,0.4166821139860813,0.2347417840375587,0.42518881404368236,0.1574154607937927,0.3840845007746983,0.4098459075442591,4899.0,3986.983870967742,0.19999999999998863,609.3145161290323,0.15282592953683966,0.5081967213114754,0.0,0.5081967213114754,1.0194796847792524,-0.5290789987925835,9656228.750301901,9131213.0,1347568.0,2836858.0,4364539.9482805515,1296119.4375617548,1040012.3946165893,0.0910098586934096,0.08124825541176328,0.07070588568446518,0.07653533878386523,0.06633682992641378,0.08041085305813676,0.11392312889119027,0.07368331627513723,0.07955322359451926,0.08984477715792923,0.08373214451865546,0.0930163880045147,4.6556150959674865,0.31913341049492283,0.5901589961491578,0.09836065573770492,0.44959372784528495,0.3052663260549784,0.0016552569116672087,62.06716791822606,516.0281813157458,0.009237604307033052,Sam,REC_20260813_181957.csv
right,90,grass,89.952,0.9759999999999991,0.01639344262295082,22072.0,1.2174780329583612,38880.202892989124,583.3333333333334,0.1637487605840039,0.2321675558190081,0.4236316933412369,0.1539581350333144,0.3866910359059678,0.3981424981122497,5061.0,4032.935483870968,-0.6999999999999886,602.5645161290323,0.14941089896897322,6.0,-1.1666666666666667,4.833333333333333,1.0171634795039115,-0.38544596305984236,9853876.849652324,9480628.0,1264491.0,2370157.0,4304454.707962545,984567.5316840879,913977.6452787619,0.08961294502523576,0.08037049775637693,0.06888442741619408,0.0783548363874869,0.06815654969965046,0.08029850985034513,0.11730029355068348,0.07195991073499651,0.07951064221210837,0.090808744130986,0.08199822429831788,0.09274441893761849,4.386704704069124,0.3167247963597367,0.5624141583548152,0.06557377049180328,0.4532695391393006,0.27126941473907934,0.0023630662534248337,1186.0619713994947,559.8009448017435,0.009237604307033052,Sam,REC_20260813_181957.csv
right,91,grass,90.944,0.9920000000000044,0.016129032258064516,18444.0,0.9167414927304914,36989.71227246841,775.0,0.2175519247758909,0.21912428823875907,0.4150795209110544,0.15089974899874894,0.39227797405009013,0.38467555912120915,5093.0,4034.6349206349205,-2.6999999999999886,591.2460317460317,0.14654263480498225,2.0,-0.2459016393442623,1.7540983606557377,1.0772549243150389,-0.3472374387062023,9312661.276509846,8812341.0,1631010.0,2531425.0,4095698.101096307,1074088.0111029,1025871.2997085362,0.08987261096379759,0.08332218646481655,0.07052427001125178,0.07696060303247279,0.06962727494472465,0.08133148688734844,0.1152166557820774,0.07044952042237453,0.08103642272072767,0.08693770605314302,0.0804502285763744,0.09427103414089116,4.273508899506951,0.23229163742111728,0.5491287601685191,0.04838709677419355,0.4192584390233628,0.26057693227315687,0.00199461018196967,1817.8947530958408,474.6621757990185,0.009237604307032994,Sam,REC_20260813_181957.csv
right,92,grass,91.952,1.024000000000001,1.0,15343.0,0.6596896704464165,50302.385559732655,572.9166666666667,0.16082467557357527,0.2485606511812587,0.4292237442922374,0.15985443387171133,0.37652954024986585,0.4245468596315904,5037.0,4071.107692307692,1.6999999999999886,632.4615384615385,0.15535367429767744,1.90625,0.0,1.90625,0.81496274630737,-0.7968629228435855,10742055.574351493,8666956.0,5437922.0,3271794.0,4499814.697464901,2042454.2901070255,1242024.42274904,0.0901096658630046,0.07587048695875626,0.06933663867705633,0.07891256206966919,0.06095487147705029,0.08090786102440461,0.11847465441270946,0.07408303164513912,0.07988375871998549,0.09288343372811028,0.08577140222657224,0.09281163319754217,5.165827423431324,0.39417379080121606,0.6647093479772043,0.09375,0.40190568859855336,0.2101199927411497,0.0025191867307938543,3367.9376973651683,113.78509837016951,0.02444040370643154,Sam,REC_20260813_181957.csv
right,122,grass,121.568,1.0079999999999956,1.0,18525.0,0.923455842167773,41204.908166382316,908.8541666666666,0.2551264171598989,0.2223932281646787,0.4217006540977299,0.15832497048973582,0.384041002926034,0.4122605901019575,5198.0,4063.734375,0.09999999999999432,625.609375,0.15394937692008967,0.5714285714285714,0.0,0.5714285714285714,0.8851854065010836,-0.7723117046101584,10181218.783519978,9806830.0,1094670.0,2506990.0,4243346.308253629,1121125.8428495217,940420.3407634317,0.08737345191268807,0.08205199189477043,0.06898288596926319,0.07673437686241488,0.06706039318822357,0.07896446848842083,0.11827175588955663,0.07532326716113182,0.0792297724922043,0.09168368072777887,0.083001703328604,0.09132225208494342,4.0504198694727815,0.17855505721466094,0.49066469290874015,0.047619047619047616,0.46571175733509773,0.23037890877885872,0.0015641770578240636,2648.84811443264,492.74751356434166,0.024440403706433123,Sam,REC_20260813_181957.csv
right,123,grass,122.592,0.9759999999999991,0.03278688524590164,20004.0,1.0460548893003583,38024.37772008899,1023.4375,0.28729135227461394,0.23445647813878862,0.4314079422382672,0.1587236482665796,0.3829811804620862,0.4144424226667461,4986.0,4050.3548387096776,-2.6000000000000227,624.5322580645161,0.154191986365193,1.5,-1.0,0.5,0.8524227373457491,-0.8191469352389449,9548457.047124734,8995601.0,2014633.0,2488664.0,4312036.655782517,949553.1380633367,862416.1585450624,0.0895222242575322,0.08009254465956785,0.06997395688151575,0.07655243268212263,0.06697939646864871,0.07990140250555507,0.11679980248644084,0.07486401032167632,0.07945540414619189,0.0914416100540773,0.08385963794490328,0.09055757759176815,4.06676182570663,0.2679071097310629,0.5139762556778701,0.08196721311475409,0.43268793647746645,0.22609508733744527,0.0015481596608545782,2429.0352680299548,182.14900171351815,0.015999999999998245,Sam,REC_20260813_181957.csv
right,124,grass,123.584,1.024000000000001,0.984375,18037.0,0.8830039591382249,38185.71004970315,937.5,0.2631676509385777,0.22888446215139444,0.42191235059760956,0.15378480634687852,0.38774090886756296,0.3966174391965123,5020.0,4070.3230769230768,-8.5,608.5384615384615,0.14950618170547794,0.47619047619047616,-4.0,-3.5238095238095237,0.9690180245389421,-0.6376520206849707,9480013.388369028,8999266.0,1477072.0,2588846.0,4124965.38916308,1044090.9294326336,968214.5591090489,0.09180522430651886,0.08231438819825303,0.06880572700711719,0.07818695170672522,0.06755842477066648,0.08038673928737465,0.11572318961639787,0.07198445785819307,0.07929440490454359,0.09029712251153756,0.08180034848868546,0.09184302134398707,4.256245426460461,0.1931679989584466,0.5248905499920119,0.109375,0.44093886150215467,0.24313144998879835,0.0005984583732751199,1024.2618480317185,59.63105727636702,0.024440403706431538,Sam,REC_20260813_181957.csv
right,125,grass,124.624,1.0080000000000098,0.9841269841269841,11289.0,0.3236406257706214,39222.02184997607,1101.5625,0.3092219898528288,0.2289820830872219,0.4258712344949793,0.15552379602205457,0.38521546885117763,0.40373195937788237,5079.0,4077.953125,0.6000000000000227,616.21875,0.1511098168888344,0.24193548387096775,-7.0,-6.758064516129032,0.8689406130621525,-0.727071404713207,9682725.052174361,9365785.0,1401324.0,2018298.0,4238884.5155158965,1007206.3450178803,788748.5480131421,0.08721440367218541,0.07965469809072413,0.07144362406078417,0.0773442558881792,0.06595680277712854,0.08154366659131228,0.11802029970611788,0.07371191889313343,0.08071604550383349,0.0914176459544272,0.08181187712892114,0.09116476173325312,3.9687455268181826,0.16495957839128145,0.5051879432821896,0.09523809523809523,0.4803412581417028,0.19594913524760404,0.0008346574527884741,4570.846347596181,82.06224612806346,0.024440403706433095,Sam,REC_20260813_181957.csv
right,126,grass,125.648,0.9759999999999991,0.0,19770.0,1.0266578798148782,40627.74167979313,1385.4166666666667,0.38890330638700926,0.22857142857142856,0.439067055393586,0.1564730170429104,0.3842758249030167,0.4071893335530564,5145.0,4070.3709677419356,-0.4000000000000057,618.008064516129,0.15183089438626104,0.0,-0.14754098360655737,-0.14754098360655737,0.9719266858557201,-0.5876213246237181,10443531.131002627,9887464.0,2393370.0,2361605.0,4393855.31863145,1150193.323826131,767426.6593820571,0.08744546546046766,0.0788705158838657,0.06915435305492486,0.07671092830565494,0.06554447363520009,0.08190186358539088,0.11810764652504527,0.07349334094142168,0.08124804349290506,0.09206975666004921,0.08297967610148872,0.0924739363535859,3.9656985247121495,0.24978176634652532,0.48625546527464564,0.04918032786885246,0.49298857867172236,0.20305076136210742,0.0022404586424536284,4480.813802573518,226.61238275892183,0.024440403706433095,Sam,REC_20260813_181957.csv
