foot,step_id,surface,contact_time_sec,stance_duration,time_to_peak_frac,impact_mag,impact_mag_norm,accel_mag_strike,loading_rate,loading_rate_norm,heel_pmax_ratio,fore_pmax_ratio,heel_mean_ratio,fore_mean_ratio,heel_fore_ratio,total_pmax,total_p_mean,midstance_diff,heel_impulse,heel_impulse_norm,rise_slope,fall_slope,slope_asym,heel_skew,heel_kurt,gyro_mag_strike,gyro_x_strike,gyro_y_strike,gyro_z_strike,gyro_x_std,gyro_y_std,gyro_z_std,pressure_01_mean_ratio,pressure_02_mean_ratio,pressure_03_mean_ratio,pressure_04_mean_ratio,pressure_05_mean_ratio,pressure_06_mean_ratio,pressure_07_mean_ratio,pressure_08_mean_ratio,pressure_09_mean_ratio,pressure_10_mean_ratio,pressure_11_mean_ratio,pressure_12_mean_ratio,accel_spec_centroid,accel_hf_frac,accel_spec_entropy,accel_zcr,accel_jerk_ratio,gyro_hf_frac,heel_ripple_frac,impact_mag_roll3_std,loading_rate_roll3_std,stance_duration_roll3_std,source_user,source_recording
right,63,brick,64.896,0.9759999999999991,1.0,21162.0,1.118093921855034,36488.432427277556,375.0,0.10383817423663758,0.2685278168306889,0.3974693713597108,0.17026883218891734,0.35216763371930976,0.4834880207205558,4979.0,3819.3870967741937,-0.19999999999998863,629.1129032258065,0.16471566963116865,0.7213114754098361,0.0,0.7213114754098361,1.023862945922424,-0.6349466832202779,9436834.53845483,8820894.0,1381777.0,3055547.0,4263508.154839431,1076345.5652565535,1139878.8258874547,0.09443754698017753,0.08260065371069501,0.06707713617283638,0.07214888387766995,0.05795981452859351,0.0679090548221721,0.11930642477681776,0.07538365385427488,0.07154922678017922,0.10642646599268588,0.09488517833464244,0.09031596016925532,4.602097572023832,0.3194234310175767,0.5796478397974275,0.09836065573770492,0.45519840502788383,0.22503602434648692,0.0038389573632794105,1337.8344441671384,981.6968684357703,0.018475208614071262,Sam,REC_20260810_144155.csv
right,64,brick,65.888,0.9599999999999937,0.016666666666666666,22287.0,1.2098341656286788,36147.06717010386,1755.2083333333333,0.4860203433020397,0.27340446949869135,0.414737265955305,0.1679480364574555,0.3588872610666701,0.4679687876303099,4967.0,3793.3278688524592,-5.900000000000006,615.4262295081967,0.16223913428668973,2.0,-1.2203389830508475,0.7796610169491525,1.0578891591404536,-0.4267664238898865,9238769.285949184,8640077.0,2043955.0,2554638.0,4310970.22691691,991024.158452333,894265.8894969701,0.09203822068947634,0.08155389316012152,0.06307018794864148,0.0732303915848794,0.058666424654159804,0.06943165955754926,0.12381100551874948,0.07522267311457131,0.07600489210996011,0.10507664449659238,0.09272536334288417,0.08916864382241467,4.374028353104655,0.2692643474726441,0.5570922056433676,0.05,0.4099814256665655,0.17801443104229614,0.004095254813100982,675.7146833785176,754.7593277786982,0.016000000000003282,Sam,REC_20260810_144155.csv
right,65,brick,66.864,0.9599999999999937,1.0,21761.0,1.1669405049842902,35713.78799567472,1283.3333333333333,0.3553573073876041,0.26614520657841956,0.4019253910950662,0.16912513594227416,0.36025134216023064,0.46946427715716327,4986.0,3798.622950819672,-2.5,620.9262295081967,0.1634608745188075,0.48333333333333334,0.0,0.48333333333333334,1.0870925919684968,-0.5038343673270238,9506143.591185754,8930849.0,1352455.0,2962696.0,4376753.927514851,1040020.9229515153,1025040.6779517803,0.09286799357834591,0.08600182982616651,0.06829912479069206,0.07105681092371696,0.05958155673324242,0.06914498782992974,0.11623711785116264,0.07604567660411884,0.074466156847175,0.10225879956498472,0.09307945933815533,0.09096048611230989,4.637945985532849,0.3532190197360128,0.5974010305626953,0.06666666666666667,0.43662944832357997,0.25373377034344663,0.0034379747449899225,562.894602330961,701.5115232448928,0.009237604307039422,Sam,REC_20260810_144155.csv
right,66,brick,67.84,0.9440000000000026,0.01694915254237288,18434.0,0.8956340240643648,38421.804954999185,1187.5,0.32882088508268564,0.26686567164179104,0.3920398009950249,0.17287871602660876,0.36707142515303526,0.4709675125335926,5025.0,3830.8166666666666,1.6999999999999886,640.2333333333333,0.16712711388781332,13.0,-0.43103448275862066,12.568965517241379,1.191824709521757,-0.12463839435072632,9267311.89805442,8493470.0,2172236.0,3004235.0,4307355.236505169,1182792.119240755,1061299.027272014,0.09259557361572163,0.08817092961030937,0.0666132982958377,0.07302185347771799,0.06375054927365358,0.06973708826229394,0.11252169902849263,0.07859072695552298,0.07239100452906039,0.09803827730379511,0.09428798907108579,0.09028101057650893,4.440008034576711,0.3031948714716566,0.554059289350041,0.0847457627118644,0.4521292127152832,0.2492891882566765,0.0031116987640288046,2089.3066633056355,303.90316306867805,0.00923760430703173,Sam,REC_20260810_144155.csv
right,67,brick,68.8,0.9759999999999991,0.01639344262295082,16788.0,0.7614078540631032,36705.93780303127,585.0694444444445,0.16200678110067993,0.2661642205474018,0.406981356604522,0.17835423032346434,0.36052260035823414,0.49471026267455354,5042.0,3827.016129032258,-0.5,661.0564516129032,0.17273416921293855,3.0,-0.23333333333333334,2.7666666666666666,1.0254472682082945,-0.6449962000004144,8929758.175185932,8458040.0,649960.0,2789210.0,4232950.13792704,1077579.442860353,1019869.6257380381,0.09000526814877252,0.08384364134443156,0.06678326835949848,0.07264987883257824,0.06206722157833737,0.06909703930038984,0.1158529132862712,0.08213254662311663,0.07286481930249711,0.09907069855652723,0.0962216837003477,0.08941102096723212,4.891230905617093,0.3217394817670376,0.5641451605177897,0.11475409836065574,0.48958061606487174,0.2358790923374084,0.002185302079490556,2533.409231319197,378.5232402752798,0.015999999999999744,Sam,REC_20260810_144155.csv
right,68,brick,69.792,0.9440000000000026,0.0,21904.0,1.1786017093039625,36212.47289263742,1078.125,0.298534750930333,0.26503871351995234,0.4038117927337701,0.17447270202239387,0.35828921100598904,0.48696052424350184,5037.0,3840.3333333333335,0.4000000000000057,647.875,0.16870280357607845,0.0,-0.1864406779661017,-0.1864406779661017,1.036153896110717,-0.5673281350490775,9105336.358790157,8524013.0,1298699.0,2926044.0,4354621.197685889,1082504.6095879606,1057103.655619282,0.0936984636750282,0.08320458293550907,0.0713609929693603,0.07139571217776235,0.05974307785782484,0.06912160402742817,0.11625292943320892,0.0802491103202847,0.07482423400746463,0.09748285739085148,0.0942235917021092,0.08844284350316811,4.258023793768824,0.2598064475220352,0.5088200310410687,0.0847457627118644,0.4287588745533366,0.2203089428865891,0.0022552133841973456,2611.630142267467,320.93333829010044,0.01847520861406743,Sam,REC_20260810_144155.csv
right,69,brick,70.752,0.9280000000000115,0.034482758620689655,21584.0,1.15250670663057,37559.37148036426,781.25,0.2163295296596616,0.26128968645237627,0.399329520804575,0.1750946649837336,0.3612557998968907,0.4846833325128119,5071.0,3813.6271186440677,13.5,645.3983050847457,0.16923476915965938,5.0,-0.05357142857142857,4.946428571428571,1.1451928852634545,-0.31524673464570707,9313902.604531411,8906415.0,1167974.0,2461786.0,4389619.03984643,980776.9031897327,1087880.7380612562,0.09159837158450518,0.08484293612557998,0.06844767204138592,0.07222538265986383,0.06197223160477147,0.06836322909814938,0.11717569465431726,0.07994524541785925,0.07385202040852606,0.09860269150770654,0.09514941956587439,0.08782510533146079,4.364332964011324,0.30244210122966,0.5378828158319272,0.05172413793103448,0.41461647681329544,0.25836404750632497,0.0025299398145060565,2865.8178588319233,248.23555911918265,0.024440403706426535,Sam,REC_20260810_144155.csv
right,70,brick,71.696,0.9759999999999991,1.0,19382.0,0.9729404694842895,35776.76535127233,656.25,0.18171680491411574,0.26667986537319344,0.3957632152049099,0.18255320030666583,0.3531795860011189,0.5168849150470285,5051.0,3892.016129032258,5.199999999999989,689.0806451612904,0.17704979175731958,0.6229508196721312,0.0,0.6229508196721312,0.8883577164262704,-0.7766748739033416,9221436.973051976,8655960.0,2149023.0,2343279.0,4183568.030074904,1264014.3856242585,1010154.692188442,0.09070263774061872,0.08538157104079899,0.07134539276019974,0.07115476264478565,0.06045875551687698,0.06689459397857483,0.11520689583721845,0.08191293176685108,0.06928990282008247,0.10594061457491556,0.10064026853981475,0.08107167277926276,4.491507587976771,0.28200988163956964,0.5422661395523032,0.08196721311475409,0.41105550436110216,0.26283557130793705,0.0011375246558406392,1373.0554735091089,216.6942089866099,0.024440403706426535,Sam,REC_20260810_144155.csv
right,71,brick,72.688,0.9759999999999991,0.0,22962.0,1.2648783118928657,37032.80559179928,1306.25,0.3617029735909542,0.2701994761233125,0.4303848478742696,0.17987276368716024,0.35737667670868606,0.5033142211282338,4963.0,3833.3548387096776,4.900000000000006,668.0725806451613,0.17427882592524024,0.0,-0.3770491803278688,-0.3770491803278688,0.8948349837204957,-0.8727967481544998,9678941.631560188,9075013.0,1810604.0,2836858.0,4354272.7402691115,911165.6505482083,1079907.5193983635,0.0882786071326388,0.08189996129053974,0.06482993082787754,0.07253816247875187,0.05872898328761129,0.0692141979568137,0.11928825083730245,0.08151286668798491,0.07499537169496945,0.10337950418230472,0.09835989699917531,0.08697426662403016,4.588700262992357,0.2795380277389421,0.5371187642287291,0.06557377049180328,0.4403958906024437,0.2459198688141745,0.0014936028738366848,1805.7356764857159,344.9033681095802,0.02771281292109575,Sam,REC_20260810_144155.csv
right,72,brick,73.68,0.9119999999999919,0.0,22067.0,1.1918938512907216,37780.10640535571,1793.75,0.49669260009858307,0.2656907960697814,0.4054541808702627,0.16871105340398393,0.3625810934992616,0.465305710718764,4987.0,3771.189655172414,-1.1999999999999886,613.8534482758621,0.1627744834932725,0.0,-0.9298245614035088,-0.9298245614035088,1.1398962240771673,-0.291788640661959,9596214.794875477,9169087.0,1372003.0,2476447.0,4364997.135148875,905824.1507752453,956666.5007267463,0.09377357369164581,0.0859053897745612,0.06839970922922886,0.0725509648926297,0.06086069977003507,0.06976212573549918,0.11546251297267394,0.07488718917016032,0.07350191332653648,0.10270243086193417,0.09382386423382359,0.08836962634127161,4.176268744469763,0.28528975823143676,0.5078158806278044,0.03508771929824561,0.42699893223405755,0.22666925249315825,0.003233779554693021,1863.091069522187,570.6812449461894,0.0369504172281409,Sam,REC_20260810_144155.csv
right,73,brick,74.608,0.9599999999999937,1.0,20306.0,1.0482897897037096,37060.68469416074,2165.7986111111113,0.5997135294453952,0.25546285260230434,0.4145808502185141,0.17063275370727463,0.3660688384157267,0.466122039902708,5034.0,3842.688524590164,0.4000000000000057,634.655737704918,0.16515929762290746,0.1,0.0,0.1,0.9745042935245253,-0.7871271264912552,9295174.960309999,8752477.0,1569923.0,2707354.0,4308363.03373263,1097529.8033697589,1067393.4067802674,0.09154707257555332,0.0864788996774799,0.06501168922032047,0.07418815378577157,0.06275916793228785,0.06944847357553625,0.1151473524342588,0.07451238033480657,0.07319414344465112,0.10347946280780192,0.09612037337246805,0.08811283083906418,4.765645330382426,0.3205498609610809,0.606319933011287,0.05,0.41698436940502026,0.2938452504573799,0.0026900647914768682,1351.325398759798,431.0646188784119,0.033306655991462146,Sam,REC_20260810_144155.csv
right,74,brick,75.584,0.9599999999999937,0.0,21942.0,1.1817004908714277,37340.273298410655,377.60416666666663,0.10455927266883643,0.24970737417089348,0.3930940304330862,0.1697667438470114,0.36420975902581254,0.46612354457766647,5126.0,3823.27868852459,-3.5,628.2622950819672,0.16432552954292085,0.0,-0.36666666666666664,-0.36666666666666664,0.9999120915142639,-0.6363477260582422,9558845.648108823,8951619.0,1185078.0,3136182.0,4330933.389885686,871223.2398486121,1104754.8442422515,0.09177600548838007,0.08681931223737244,0.06708687076580053,0.07245090472515221,0.060260698053340195,0.07047851813738101,0.11605351170568563,0.07462481776863049,0.07420032587256667,0.1031986965097333,0.09514192607838093,0.08790841265757653,4.7143587477574425,0.3378899882191958,0.6038620019534932,0.06666666666666667,0.452469836229128,0.27118753201925266,0.0037225073637080102,982.6191191572278,943.5331262016401,0.027712812921104227,Sam,REC_20260810_144155.csv
right,75,brick,76.56,1.0079999999999956,0.015873015873015872,18980.0,0.9401586223758404,35663.70914529222,1046.875,0.2898815697439466,0.26255753452071245,0.40704422653592154,0.1804163984730167,0.35982479364269726,0.5014006862796637,4997.0,3859.734375,-1.3000000000000114,676.3359375,0.1752286224359675,18.0,-0.6935483870967742,17.306451612903224,0.9361824074649486,-0.7813212573037793,9059023.226569684,8350527.0,1800830.0,3015230.0,4184610.3182467567,1162682.0332433127,1213327.4151965524,0.08922650927241593,0.0856600397533833,0.06776292086162017,0.07116746213915304,0.06264194022418965,0.0695724689603802,0.11571796958177984,0.0799277800042911,0.07078288256559105,0.1013549345607494,0.10048861846872559,0.08569647360772074,4.512013894750595,0.275440109664523,0.5987429873748961,0.09523809523809523,0.4601125268133947,0.24988346401713496,0.0015117789809640722,1483.701227785879,903.4704262817716,0.02771281292110373,Sam,REC_20260810_144155.csv
right,76,brick,77.584,0.9759999999999991,1.0,18406.0,0.893350711330443,35480.27515394997,1027.7777777777778,0.28459351457448817,0.2586448131121327,0.3865680591645013,0.1738579220094106,0.36390361363771734,0.477758163133736,5003.0,3791.1935483870966,11.0,638.4677419354839,0.16840811047674153,0.4262295081967213,0.0,0.4262295081967213,1.152686968052798,-0.19210033440001295,9247585.817335354,8615643.0,1202182.0,3137403.0,4199973.866194039,1000864.9666382122,1155443.4121010958,0.09358275119759715,0.08874131050737277,0.06921813710891966,0.07158780535536514,0.06255158389136115,0.07014132922647563,0.11236566916538328,0.07739498157870107,0.07088158465714263,0.0975775779182656,0.09646294043070953,0.08949432896270645,4.291837559914479,0.305508225837428,0.5570018226591531,0.08196721311475409,0.5246116847644633,0.2338796657011504,0.003241629467072089,1897.6395864336282,381.0104716042502,0.024440403706432186,Sam,REC_20260810_144155.csv
right,77,brick,78.576,0.9760000000000133,0.0,15065.0,0.6209025740435566,34767.83762329777,546.875,0.15143067076176311,0.26243093922651933,0.4129834254143646,0.16406357035210306,0.3690916563912865,0.44450631031890825,5068.0,3767.2258064516127,-1.0,596.8870967741935,0.15844208110700098,0.0,-0.5573770491803278,-0.5573770491803278,1.2026261771751754,-0.21597623489223627,8583056.288665127,7842287.0,1841147.0,2962696.0,4133044.8782369867,1070424.7094464712,974383.8102702252,0.09234569804082751,0.08566670091793398,0.06347616111796137,0.0735032196191259,0.06268410056172079,0.07091724893821072,0.11868064118372382,0.07273684751335799,0.07632038635429511,0.09795434306069324,0.09132672283874504,0.09438792985340458,4.395204703778077,0.2995515035954884,0.5798917709196226,0.09836065573770492,0.471468502875377,0.24522636592555677,0.004235390164076139,2114.197326016029,283.32319165309684,0.0184752086140626,Sam,REC_20260810_144155.csv
right,78,brick,79.568,0.9759999999999991,0.01639344262295082,18267.0,0.8820156945441882,36387.68497720073,1791.6666666666665,0.4961157213528239,0.25316209379256666,0.381980930142051,0.16982637437787318,0.3628957022065186,0.46797571132739674,5139.0,3820.7903225806454,-2.0,627.9758064516129,0.16435756831258522,7.0,-0.06666666666666667,6.933333333333334,1.075513458918624,-0.4903931320290562,9528566.107627159,8792794.0,2211332.0,2930931.0,4356713.71220358,1105810.11774886,1093958.6417992634,0.0929718138030892,0.08598119794502909,0.06781235093229318,0.07238411239019119,0.06151404244181874,0.0696275470790117,0.11654825677849119,0.07533064008881796,0.07338880235046794,0.10012706373027029,0.09449573428905521,0.08981843817146427,4.6455851787989815,0.32587343294671384,0.6066092940784603,0.08196721311475409,0.45799584090885925,0.2306777527930954,0.0028388138654719505,1890.079627952218,627.7340213876492,5.931472034594235e-09,Sam,REC_20260810_144155.csv
right,79,brick,80.56,0.9599999999999937,1.0,19808.0,1.0076794417932429,36950.222651561926,708.3333333333333,0.19613877355809317,0.26958433253397285,0.3966826538768985,0.17464742819888138,0.36164344782623614,0.4829271185432075,5004.0,3822.032786885246,-0.09999999999999432,645.7868852459017,0.16896424527330747,0.8,0.0,0.8,0.9453442456642854,-0.7619073101778309,9957676.15769352,8875871.0,2502104.0,3756821.0,4459864.887341929,1191853.0160975568,1428906.55032766,0.09160433037092955,0.08467728099372061,0.06565899186768692,0.07249596815701884,0.061554232577291285,0.06879010397007858,0.11614710222008716,0.07742854201695089,0.07412586212812683,0.10132364547232613,0.09721888618193048,0.08897505404385272,4.586744668679241,0.33211678113375254,0.597780218220808,0.05,0.44490837976715275,0.262125577992811,0.0033822606994416645,2419.488031244075,676.9030208624994,0.00923760430704336,Sam,REC_20260810_144155.csv
right,80,brick,81.536,0.9599999999999937,0.03333333333333333,17042.0,0.7821207624351083,37631.435330053515,1070.3125,0.2963714556337364,0.25955077750047995,0.3897101171050106,0.1700423928403203,0.37004667494540316,0.4595160674401098,5209.0,3828.3606557377047,-0.5,629.2950819672132,0.16437716781569822,0.5,-0.9827586206896551,-0.48275862068965514,1.1348284105181978,-0.2901774110407209,9404210.79153849,8602204.0,1830152.0,3330437.0,4229046.802147563,1176972.8376947888,1154057.3749203263,0.09036954566865071,0.08731640474457243,0.06623988352674175,0.07239755063589261,0.06497666252729843,0.07041921808761188,0.11506444568149703,0.07592172311908534,0.07493683895002784,0.09873249689547382,0.09412066972123496,0.08950456044191324,4.640897854450611,0.29430916627153597,0.5883568686130346,0.08333333333333333,0.41865628241608865,0.2692314618648663,0.003505574451763841,1386.0051707455248,551.5118406071265,0.009237604307039514,Sam,REC_20260810_144155.csv
right,81,brick,82.512,0.9599999999999937,0.0,21119.0,1.114587405870797,36358.160830823115,973.2142857142858,0.26948478551889277,0.24909333842336323,0.37526245466692115,0.17312854608786782,0.3604092308881702,0.4803665701377701,5239.0,3816.8360655737706,-0.09999999999999432,639.4590163934427,0.16753641115506362,0.0,-0.1,-0.1,1.0384744903349408,-0.4875655642143921,9221950.912892455,8816007.0,1857030.0,1968207.0,4282921.657647596,1010250.2333022684,815663.1690036093,0.09326667439772879,0.08614121214463959,0.06796033106126008,0.07228113577892598,0.060972309912510146,0.06960962431333136,0.11332019052773089,0.07566991800779119,0.07140494873876312,0.10176225265970011,0.09745862808007663,0.09015277437754211,4.757074723949546,0.3301205562387797,0.6033099763553111,0.06666666666666667,0.4119298756590778,0.2598905567507957,0.00363997146136729,2081.3219356937548,187.35834615890803,0.0,Sam,REC_20260810_144155.csv
right,82,brick,83.488,0.9599999999999937,0.0,17319.0,0.8047092491242636,35027.8551584307,546.875,0.15143067076176311,0.2572044697118212,0.38521858459125663,0.16684032806872667,0.36351727030217085,0.4589612150474197,5101.0,3791.688524590164,0.4000000000000057,611.1639344262295,0.16118516340745287,0.0,-0.13333333333333333,-0.13333333333333333,1.148429077616437,-0.332662446022554,8978951.990203869,8323649.0,1842369.0,2818532.0,4280222.837414196,1101810.6363791975,1167778.8374894182,0.09541144781727073,0.08612452603407798,0.06786197593528555,0.07365981676920615,0.06142425408464588,0.06947897255861613,0.11406743827093774,0.07410081584829631,0.0728297008556247,0.10108390656007747,0.09273951222043036,0.091217633045531,4.552113718187635,0.3224701206501096,0.5927910063471987,0.06666666666666667,0.4501038301718039,0.24394229232077355,0.003183920486590897,2278.1080600650466,278.44211432153776,0.0,Sam,REC_20260810_144155.csv
right,83,brick,84.464,1.0079999999999956,0.031746031746031744,19985.0,1.022113240146963,38683.5076098329,989.5833333333333,0.27401740423557136,0.2626664017484602,0.3914166501092788,0.17051450106504998,0.355460429297067,0.4797003745314814,5033.0,3814.375,0.19999999999998863,629.9140625,0.16514214320825824,3.0,-0.2459016393442623,2.7540983606557377,0.9504147540923342,-0.8157411323385602,9790123.803877098,9027366.0,1695761.0,3387858.0,4399648.920000528,1067946.803828598,1264546.6259281302,0.09388415533344258,0.07978043585122072,0.06902343109945928,0.07253809601835164,0.05734884483041127,0.0693265607078486,0.11727019498607243,0.07658528592495494,0.07646649188923481,0.10414959855808618,0.09392921514009503,0.08969768966082255,4.953364731411145,0.2708793709686721,0.6002119703059374,0.1111111111111111,0.4328133086616368,0.29236481549776555,0.0015340054309713848,1950.7909507000827,251.0059098461288,0.027712812921103724,Sam,REC_20260810_144155.csv
right,167,brick,166.8,1.0079999999999814,1.0,17712.0,0.8367571742825234,40242.12483207118,1033.8541666666665,0.28627607758295215,0.28006522625356706,0.40705258866693844,0.17095356067230155,0.35414035428608437,0.48272827031193255,4906.0,3859.875,-0.9000000000000057,639.125,0.1655817869749668,1.492063492063492,0.0,1.492063492063492,0.9725692355558224,-0.7399729778130828,9724793.320066294,9167865.0,2122145.0,2453234.0,4157758.522533111,1422691.7486395182,1006992.315663594,0.09270458887917354,0.0825561060915185,0.06905987888208814,0.07174778976003109,0.0583527640143787,0.06815311376663752,0.12230804106350594,0.07813157809514557,0.07333058065351858,0.10181272061919104,0.092821982577156,0.08902085559765537,3.8614462741643787,0.17023250423063938,0.4945078158467725,0.031746031746031744,0.41067750733747005,0.1807901779203418,0.0035849833508694176,1169.7397146374133,155.88179996825292,0.018475208614058655,Sam,REC_20260810_144155.csv
right,181,brick,181.024,1.039999999999992,1.0,18162.0,0.8734532717919813,33987.51107392243,648.4375,0.17955350961751912,0.2701309004363348,0.4040063466878223,0.16635098057556202,0.35859211798085616,0.46390027062536693,5042.0,3887.6363636363635,-0.5999999999999943,626.5151515151515,0.16115580082935804,0.8923076923076924,0.0,0.8923076923076924,1.0225260589793124,-0.5460937791374212,9149005.983295945,8640077.0,1701870.0,2481334.0,3992025.808816656,1083889.274701642,1077317.2683139818,0.09275325039753063,0.08192638668038538,0.07149315623733359,0.0723934462008543,0.05986343653540361,0.07143469585009198,0.11840956567829639,0.07701571415209055,0.07297415271412092,0.10237583013749883,0.08933526642347146,0.09002509899292241,3.611702889684898,0.1880569918769629,0.5041075139519442,0.06153846153846154,0.44615298921241114,0.2815093526764617,0.0034115371323275513,3391.981181158496,1596.549573412796,0.04026578365476844,Sam,REC_20260810_144155.csv
right,290,brick,284.976,0.9759999999999991,1.0,21095.0,1.1126302806702926,40923.23909467578,1234.375,0.34180065686226535,0.2449019996040388,0.4080380122747971,0.16111926635768362,0.3595845222583252,0.4480706381511636,5051.0,3911.548387096774,0.5,610.6451612903226,0.15611341107390853,0.7540983606557377,0.0,0.7540983606557377,0.9499970186969909,-0.7643931737456753,9570963.160828277,9046914.0,1800830.0,2552194.0,4357587.806516811,1135154.0708153243,979071.6353804844,0.09415461247917664,0.08023800491513962,0.07457239934684722,0.07261788912896469,0.05909713173563806,0.07181794190898745,0.11848702766003068,0.07476207755364594,0.07581355456959542,0.09771314057629187,0.08635718880403767,0.09436903132164476,4.508178296023201,0.2843226595442017,0.5530756722951612,0.08196721311475409,0.424584617821901,0.2004088613267677,0.0029476213049381833,1435.2481783069306,431.0527553149154,0.04026578365479747,Sam,REC_20260810_144155.csv
right,291,brick,285.968,0.94399999999996,1.0,24579.0,1.3967396222768511,40382.227452184954,875.0,0.24228907321882098,0.25423391113767685,0.41482367005379556,0.16660331137016388,0.3670890353100186,0.4538498711337073,5019.0,3946.0,-0.5,636.4666666666667,0.1612941375232303,0.6440677966101694,0.0,0.6440677966101694,0.9695454759361357,-0.6635854332427527,10176320.746111238,9558819.0,1861917.0,2952922.0,4522167.076768872,1118097.5705210238,1043603.2038461919,0.09448808920425748,0.08055414766007772,0.06722841696232472,0.07596722419327588,0.0621599932421017,0.07303176212198007,0.11637100861632033,0.07682885622571381,0.07537590809258321,0.09712366953877344,0.08977445514445008,0.09109646899814157,4.177103848882393,0.2657640797267628,0.5082929114546163,0.05084745762711865,0.4552486183967945,0.17737326077358137,0.002532144179417638,1751.5277141208373,194.6635050756321,0.04026578365479741,Sam,REC_20260810_144155.csv
right,292,brick,286.928,0.9440000000000168,0.01694915254237288,25077.0,1.4373499701873178,38039.37704537234,3208.333333333333,0.8883932684690102,0.2552093669378845,0.4098035324469141,0.16607930993975398,0.3680125526523352,0.4512870790484612,5039.0,3972.6,0.09999999999999432,638.7583333333333,0.1607910016949437,10.0,-0.7068965517241379,9.293103448275861,0.905277675876108,-0.8064809924417702,9570390.91114642,8877093.0,1635897.0,3180164.0,4397050.855134785,952155.6306294767,1083998.7891583873,0.09206397153837118,0.08066086022588062,0.06735723036130829,0.0759703972209636,0.06244860628639514,0.07247982010102536,0.11857054154290222,0.07601654667807818,0.07645286881807044,0.09870110255248453,0.09006276326167582,0.08921529141284466,4.824402551567399,0.3242987956895585,0.5642571813112262,0.0847457627118644,0.42127554462012723,0.25264800232770296,0.001453862999859982,2169.5845992570476,1256.32442312257,0.018475208614075988,Sam,REC_20260810_144155.csv
right,293,brick,287.888,0.9279999999999973,0.0,23148.0,1.280046032196775,39235.17117332356,2250.0,0.6230290454198254,0.24488204328329108,0.3991031390134529,0.16874960161478805,0.3684903856368852,0.4579484518246322,5129.0,3988.5593220338983,-0.4000000000000057,652.3220338983051,0.16354828428768725,0.0,-1.103448275862069,-1.103448275862069,0.9481133638072563,-0.6296878214735693,9916157.843291776,9270490.0,1997529.0,2897944.0,4406785.897762403,1093537.0148237525,1122185.205270732,0.09263784128333157,0.08355253372994795,0.06841602039732285,0.07311165409539998,0.06317645808987571,0.07218102624030595,0.11514288749601614,0.07812174652076914,0.07646871348135557,0.095667693615213,0.09062785509401891,0.09089556995644323,4.359164343341078,0.29442304282443854,0.5185142311088659,0.05172413793103448,0.41927764698436565,0.24464182355826977,0.002457179918344198,1001.3995206709598,1172.8506740858802,0.009237604307033217,Sam,REC_20260810_144155.csv
right,294,brick,288.832,0.9599999999999795,1.0,24211.0,1.36673036920245,37718.54924304486,908.8541666666666,0.2516633528374063,0.2637385086823289,0.41144024514811034,0.17068671136467747,0.36324907341856494,0.4698889105434251,4895.0,3936.55737704918,0.09999999999999432,651.4344262295082,0.16548327989005956,1.3833333333333333,0.0,1.3833333333333333,0.8431799687413142,-0.9377515446622238,9838920.622793742,9315694.0,1610240.0,2725680.0,4352212.148203532,1031340.7881684235,1035757.5001824726,0.09257901969766377,0.08233040436430267,0.07007870736684296,0.07311456294507142,0.06097530504310166,0.07231916045475367,0.11676591846083371,0.07874901095240079,0.07450964061133554,0.09695581559988341,0.0919377004122767,0.08968475409153376,4.568073837558177,0.29295236647071277,0.5362485069931585,0.06666666666666667,0.43970103825844836,0.2540033879687643,0.0015167142603559653,966.1751049025023,1155.0381928735205,0.015999999999993478,Sam,REC_20260810_144155.csv
right,295,brick,289.808,0.9599999999999795,0.0,22096.0,1.1942587109079978,40363.99452482373,1276.0416666666665,0.3533382317774472,0.2526439482961222,0.4114766940853897,0.16576561590285288,0.36694668551942117,0.45174305272193255,5106.0,3941.967213114754,0.0,632.9754098360655,0.16057348415536887,0.0,-1.3833333333333333,-1.3833333333333333,0.9538726330494705,-0.656358719737673,9959152.376914414,9382890.0,1927890.0,2725680.0,4387893.071677508,989780.7119067445,978575.5799297668,0.09228146053397654,0.07978873825168427,0.06606088330699493,0.07423687931464693,0.061548698328204275,0.07282292273143143,0.12029859436080845,0.07827913166431007,0.07854944689345421,0.09622390418364801,0.0874864842385428,0.09242285619229809,4.184616328963103,0.23867149797770498,0.4899250634815545,0.06666666666666667,0.41725650651713175,0.2378300668352694,0.0017259813768098705,1057.5047675227574,693.072103210655,0.0184752086140597,Sam,REC_20260810_144155.csv
right,296,brick,290.784,0.896000000000015,1.0,21091.0,1.112304093136875,40522.21136611377,715.625,0.19815784916825002,0.26004922067268255,0.4362182116488925,0.15780414280371474,0.37249636141614134,0.423639420808495,4876.0,3893.4561403508774,-3.5999999999999943,592.5964912280701,0.1522032019537956,0.8928571428571429,0.0,0.8928571428571429,1.087218872260184,-0.322359480232858,10211088.98921589,9654114.0,1734857.0,2838079.0,4628915.533330836,918786.9537818746,1048207.2515965613,0.09491409337304609,0.08227029608835337,0.06830624484627829,0.07616017879753252,0.06177256485240642,0.07330338354503958,0.11836324557174206,0.07347010503453838,0.07898993813280943,0.09590090435143088,0.08433403776917635,0.0922150076376466,4.2667106142419255,0.284542219916134,0.5085818813769498,0.05357142857142857,0.4490921946389554,0.19839841297930688,0.003600030424942824,1592.5686798377105,284.6726222888028,0.036950417228116664,Sam,REC_20260810_144155.csv
right,297,brick,291.696,0.9599999999999795,0.0,22756.0,1.2480796539218695,39884.09339573861,1117.1875,0.3093512274133161,0.25039154267815195,0.4193422083007048,0.16290154925436182,0.37397865582202416,0.43559049886466344,5108.0,3958.5409836065573,-0.19999999999998863,624.0491803278688,0.15764625979931338,0.0,-0.3333333333333333,-0.3333333333333333,0.9979305595795953,-0.6972471796876896,9858453.24835722,9217956.0,2026850.0,2847853.0,4406242.0599677935,1134464.4927696688,1072515.7448558523,0.09203175536606881,0.0822003470396031,0.0657221778184544,0.0770817199580902,0.06254995423881128,0.07390535509440058,0.11819638797205462,0.07534238065854698,0.07824127949111902,0.097191795288047,0.08755916859581482,0.0899776784789892,4.647500317714488,0.30308740491500163,0.5501260085973894,0.08333333333333333,0.40256199475105964,0.2404599472719269,0.0015743619101965564,838.4360440725505,288.83499555725825,0.036950417228116664,Sam,REC_20260810_144155.csv
right,298,brick,292.672,0.9119999999999777,0.0,19478.0,0.9807689702863072,38075.532799949106,1184.8958333333335,0.32809978665048684,0.2502482621648461,0.42720953326713007,0.1565394212241491,0.3781800261061829,0.41392831566437727,5035.0,3883.344827586207,0.09999999999999432,586.4741379310345,0.15102293614640774,0.0,-0.6140350877192983,-0.6140350877192983,1.1586092479802248,-0.23738696735788656,9793911.536004243,8847772.0,3006678.0,2932153.0,4513602.931244355,1176636.6763617944,981533.4461865654,0.09226848521981584,0.08332223376577248,0.06586483390607102,0.07672465080760453,0.06382251347487501,0.073772165836419,0.11773089320440075,0.07221378655087597,0.08053846222151186,0.09647300141186499,0.08432563467327313,0.09294333892751538,4.585354417996018,0.30448841261317894,0.547906369056032,0.07017543859649122,0.44238236678410303,0.19484196098921044,0.004124551528283203,1639.0687396608355,253.6572407884204,0.033306655991445645,Sam,REC_20260810_144155.csv
right,299,brick,293.6,0.94399999999996,0.01694915254237288,21804.0,1.1704470209685274,38871.70662577089,710.9375,0.19685987199029206,0.2506294789850862,0.399767576990122,0.16002709913767865,0.3740391933824575,0.4278351091778304,5163.0,3985.366666666667,-2.3000000000000114,616.775,0.15475991334967087,14.0,-0.9482758620689655,13.051724137931034,1.0518817047237456,-0.459555305622406,9913469.610258762,9409768.0,1392772.0,2791654.0,4521806.2562092785,949134.870570565,1044299.0490291152,0.09059392276745762,0.08146887362936074,0.06824131614824232,0.07482791211180903,0.06262911819071436,0.07478191048920635,0.11820326026045282,0.07312585207550958,0.080331378961367,0.09581301595001715,0.08690124706216909,0.09308219235369392,4.681099101792679,0.32963728193226516,0.6030362311906157,0.06779661016949153,0.46680810681638835,0.23806823382269668,0.0025120096066296874,1686.3107661401045,256.33961283125564,0.024440403706431652,Sam,REC_20260810_144155.csv
right,300,brick,294.56,0.9599999999999795,0.03333333333333333,22512.0,1.2281822143834078,39256.41983166575,1968.75,0.5451504147423473,0.24902496099843993,0.4128315132605304,0.1620618724669559,0.3782000366591312,0.4285083467956259,5128.0,4024.6721311475408,-0.09999999999999432,631.7295081967213,0.15696421661473292,3.5,-0.7586206896551724,2.7413793103448274,0.9492545843715049,-0.674896707177699,9697625.874010505,9175195.0,1411098.0,2805093.0,4344314.507158562,988059.5047651578,979407.128983219,0.09093501150689397,0.08365613734954482,0.06734689721186941,0.07508604712734976,0.06384391356591516,0.07459725871163521,0.11584285452434778,0.07383556343048003,0.08101667990468626,0.09425469949695527,0.08822630903647584,0.09135862813384657,4.604469261685171,0.32660615898432993,0.5706832232329632,0.1,0.4328131031534435,0.2576469801253168,0.0018964287913040149,1587.2773334655033,635.2369822217323,0.024440403706431652,Sam,REC_20260810_144155.csv
right,301,brick,295.536,0.9279999999999973,1.0,20655.0,1.0767496519943782,38954.98336541809,750.0,0.20767634847327515,0.2562804284323272,0.39279454722492696,0.16102822572019013,0.3720900382076218,0.4327668284154091,5135.0,3961.406779661017,-2.4000000000000057,616.1949152542373,0.15554951801919367,1.2241379310344827,0.0,1.2241379310344827,1.0484338972989096,-0.493221817378259,10129786.738734089,9768956.0,643851.0,2601064.0,4414278.631157934,909946.5253732533,1042691.5088168896,0.09221172071212504,0.08062107708697902,0.06784526982795873,0.07523863719017812,0.06257407272711714,0.07421605918116744,0.11893566315681382,0.07437008766788035,0.0794401920221801,0.09613088998515336,0.08665813805230978,0.09175819239013705,4.049378440557824,0.28918627019260656,0.4932406887302569,0.05172413793103448,0.44718638681292966,0.2547164715660258,0.003992463888139847,937.1867476655993,715.1887544047937,0.015999999999993506,Sam,REC_20260810_144155.csv
right,302,brick,296.48,0.9279999999999973,0.0,22622.0,1.2371523715523864,38376.70353222121,281.25,0.07787863067747818,0.2536764705882353,0.40325077399380804,0.16145862076284678,0.37316239679069474,0.432676556242884,5168.0,3992.6271186440677,-2.0,622.8983050847457,0.15601214102264768,0.0,-0.9655172413793104,-0.9655172413793104,1.1463749272750112,-0.1558510588844415,9406416.329850491,9128770.0,489913.0,2214997.0,4434304.038503737,736438.9361123446,922919.9315207908,0.09278543077282278,0.08227877655848705,0.06804491329357078,0.07465030883195721,0.062420138815189014,0.07467153439602658,0.11658777832020886,0.07504085921083353,0.07914163818903487,0.09603718718824954,0.08641776155201325,0.09192367287160658,4.288729768497838,0.3059044209517748,0.5266227868893822,0.05172413793103448,0.4371376821061283,0.25851070606777,0.0028104106053336653,1105.2630154553062,871.0849915478951,0.01847520861405997,Sam,REC_20260810_144155.csv
right,303,brick,297.424,0.9279999999999973,0.0,21186.0,1.1200510470555385,37334.89576790057,1149.3055555555557,0.3182447747437689,0.24926340601060695,0.4005107051659792,0.16131691813475046,0.3726953505459393,0.43283855808326505,5091.0,3967.6610169491523,-5.0,619.0084745762712,0.15601344770432138,0.0,-0.9482758620689655,-0.9482758620689655,0.9664252626684473,-0.7162337656628521,9152471.3328577,8679173.0,1351233.0,2571742.0,4233468.115357425,956627.08168442,915117.2916029943,0.09596654306853715,0.0844924217828888,0.06652939869794783,0.07533790133793551,0.06372280983544931,0.07171112212292603,0.1136006356475232,0.07296703860020846,0.07743109546673958,0.09890555849836817,0.08834987953454199,0.09098559540693403,4.998078488052082,0.34113281774183773,0.5959924174969414,0.10344827586206896,0.44466556792494855,0.3132184835191114,0.0022280500888172392,1017.607160614231,434.4904940901792,0.0,Sam,REC_20260810_144155.csv
right,304,brick,298.368,0.9279999999999973,1.0,22641.0,1.238701762336119,39154.49342029596,572.9166666666667,0.15864165508375186,0.24613578556055565,0.3918998239092154,0.15705412599822538,0.3724024498452615,0.4217322578392701,5111.0,3915.8474576271187,-6.699999999999989,594.0254237288135,0.15169779470642974,0.7068965517241379,0.0,0.7068965517241379,1.1215469768101376,-0.3858605709939593,9447028.427600872,8795237.0,1958433.0,2838079.0,4407203.283126271,911157.0238723214,1066724.2041604517,0.09626679940268791,0.08377085722942411,0.06985088839353344,0.07517475707143939,0.06255329279113554,0.07347371610362066,0.11474019088016967,0.07221416668470144,0.07742982664964182,0.09522366740969983,0.08483995931352392,0.09446187807042222,4.17248396991326,0.27129124833780505,0.5075021908011236,0.08620689655172414,0.438186516875573,0.22833178767035256,0.0030084802957908744,834.6138827825453,441.7416370100379,0.0,Sam,REC_20260810_144155.csv
right,305,brick,299.312,0.94399999999996,0.0,21249.0,1.1251885007068625,39725.42921102301,1354.1666666666665,0.3749711847434134,0.24289554531490015,0.3995775729646697,0.15652549915198735,0.3767568974492452,0.41545489999415086,5208.0,3970.0666666666666,-11.300000000000011,600.6,0.1512820943393058,0.0,-0.5423728813559322,-0.5423728813559322,1.1335641351139523,-0.3627025009433553,9625814.622955764,9106778.0,1855808.0,2505769.0,4336588.933418251,1017323.5196391095,960466.0761381127,0.09548538227737569,0.08400362714312103,0.0698392974089436,0.07568302799281287,0.06352538160568252,0.07486020385887726,0.11346996691911136,0.07166546321640274,0.07868465684875149,0.09504458363419589,0.08486003593558462,0.09287837315914091,4.622324378216938,0.2996488917630736,0.5218908778417046,0.1016949152542373,0.436921556524315,0.27767767314745073,0.0017830888053031986,822.46154925323,405.08101835316563,0.009237604307017106,Sam,REC_20260810_144155.csv
right,306,brick,300.272,0.9600000000000364,0.0,20344.0,1.051388571271175,35835.868637442014,925.0,0.25613416311703935,0.2465861864239066,0.4171779141104294,0.16253893048837054,0.3678558412298721,0.4418549667305372,5053.0,3958.2950819672133,-2.5,623.1147540983607,0.15741998542177457,0.0,-0.3333333333333333,-0.3333333333333333,1.0144373558963173,-0.5563770559363079,9604832.056367982,9099448.0,981049.0,2913827.0,4346281.444135329,985968.4144145891,1122392.3929403867,0.09371479689881386,0.08218888741634085,0.0690312106553575,0.07460572526671526,0.06202372274865813,0.07261364389371149,0.11732158240010603,0.07437794049433437,0.07642386190444636,0.09677953747266582,0.08816098999403617,0.09275810085481412,4.342785657854267,0.30993097020815236,0.5208714471915703,0.05,0.4202042105980283,0.2627136820964075,0.001970649169558632,1157.0723111946616,391.2582829557449,0.016000000000021927,Sam,REC_20260810_144155.csv
left,64,brick,65.36,0.9759999999999991,1.0,30313.0,1.8643294514306992,37851.89842002644,975.0,0.26997925301525766,0.30500894454382826,0.45684257602862255,0.21780970117917886,0.3478552974129201,0.6261503067479149,4472.0,3264.983870967742,43.5,689.4516129032259,0.21116539626239325,0.6229508196721312,0.0,0.6229508196721312,0.8069698336553042,-0.9614793297184829,9965798.070100106,8879537.0,3374419.0,3014009.0,4297261.9341281,1258275.1150607343,1134903.5766705303,0.0969525117448587,0.08159898038324549,0.06508948816622125,0.08165332042345712,0.060030924422884074,0.06847833067396471,0.11241472318689516,0.09030326682441744,0.056093741509368716,0.10359681666164433,0.12750643435476142,0.056281461648281614,5.328414314543327,0.32930369133743165,0.612839058077649,0.09836065573770492,0.5244679457359389,0.2114877281658125,0.002829710991014149,1616.478889438402,664.9778171966955,0.018475208614069802,Sam,REC_20260810_144155.csv
left,65,brick,66.352,0.9599999999999937,1.0,29073.0,1.763211316071304,39321.76407538197,1645.8333333333333,0.4557342091496871,0.30519197207678883,0.4640052356020942,0.22158416524253005,0.34582633577447586,0.6407382617234783,4584.0,3328.6393442622953,29.099999999999994,714.9180327868852,0.2147778593133609,0.5666666666666667,0.0,0.5666666666666667,0.7015347105681247,-1.1328569483087536,9971470.698640095,8688947.0,3646865.0,3260798.0,4468787.621905034,1115962.963744451,1019457.5592219449,0.0934857446798032,0.07966135919269922,0.06396056085536846,0.07995685727934912,0.059074992489423626,0.06831915763345432,0.11779046230675656,0.09211660354499204,0.05881396917954956,0.10198131467098749,0.129467561697538,0.05537141647007836,5.170135855405596,0.335971194775278,0.610420172759048,0.05,0.489399657706011,0.21587281948240497,0.0023401683863683597,1099.148761542317,639.4963647792238,0.01600000000000502,Sam,REC_20260810_144155.csv
left,66,brick,67.328,0.9279999999999973,1.0,29466.0,1.795259241229564,39372.05417551896,3703.125,1.025401970586796,0.3372960372960373,0.48065268065268063,0.2187356249738636,0.35320223309496923,0.6192928709905943,4290.0,3242.4406779661017,-16.900000000000006,685.1271186440678,0.21129981599966544,0.8448275862068966,0.0,0.8448275862068966,0.9571086660144744,-0.7345584288282354,9630160.989299037,8790350.0,2701246.0,2858849.0,4556604.704578097,951574.7024781478,1064145.4476121557,0.09544494626353867,0.08036423702588551,0.07075649228453143,0.07594195625810228,0.059674653953916273,0.07596286538702797,0.103186551248275,0.092799941454439,0.061258520470037214,0.09616108392924351,0.12593568351942458,0.06251306820557856,4.8581146520013245,0.322602553793387,0.5929082879007223,0.08620689655172414,0.5058943011877972,0.22293651791675073,0.002816814879789498,633.7005076006666,1421.5679359116239,0.024440403706431326,Sam,REC_20260810_144155.csv
left,67,brick,68.272,0.9759999999999991,0.04918032786885246,30337.0,1.8662865766312036,41869.330804301135,1734.375,0.4802515558444488,0.32902201043793966,0.4651690492398457,0.2142013147043362,0.3497036368985324,0.6125224107014484,4407.0,3344.3064516129034,23.80000000000001,693.6693548387096,0.20741799977814965,1.6666666666666667,-1.4137931034482758,0.25287356321839094,0.8416515474221308,-0.9908485089530972,10269963.331478551,9331577.0,3214372.0,2839301.0,4504166.524881472,1155391.883715669,945466.1960099085,0.08933816259699923,0.07556415091609717,0.06700362194774942,0.07931149232928376,0.05918098646230714,0.0750481077613855,0.1140696513573864,0.0916241855440397,0.06059889942945883,0.10267811928795689,0.1225771291602965,0.06300549320703941,5.464859762500785,0.34719202550001027,0.6390824838683463,0.08196721311475409,0.45394048425846306,0.2736850894091518,0.0015265888539926194,646.888192297048,1163.0609894420993,0.024440403706431326,Sam,REC_20260810_144155.csv
left,68,brick,69.264,0.960000000000008,0.016666666666666666,29839.0,1.8256762287207369,39581.16534413811,2979.166666666667,0.8249366064355097,0.32043060009161706,0.4956481905634448,0.21402088321690405,0.3490360642788378,0.6131769897730179,4366.0,3320.5737704918033,16.599999999999994,688.1147540983607,0.20722766655969985,4.0,-0.711864406779661,3.288135593220339,0.7870408579159531,-1.07747570868191,9606942.759561442,8741481.0,2686585.0,2943148.0,4373630.647452791,862534.0788123023,1049426.5167435296,0.09687739132581273,0.07657179531485275,0.07166448618893634,0.07911431463059417,0.057485621189306606,0.07472538322924638,0.10700797314309693,0.09078028189874354,0.061138949914837946,0.10046653995211177,0.1232406013181605,0.060926661894300314,4.393274148558499,0.28182198556137295,0.5174015228342302,0.08333333333333333,0.4901517566685902,0.1982820916095205,0.0024544654104239633,436.9923721683744,995.7910192660523,0.024440403706432873,Sam,REC_20260810_144155.csv
left,69,brick,70.24,0.9280000000000115,1.0,28001.0,1.6757930571154398,39001.75488359466,2500.0,0.6922544949109172,0.32434333958724204,0.47842401500938087,0.2089826232448848,0.36070010542492537,0.5793805438412944,4264.0,3231.4745762711864,-1.9000000000000057,651.9915254237288,0.20176285161310628,0.22413793103448276,0.0,0.22413793103448276,0.923556700559282,-0.804630597332106,9557610.197091164,8702386.0,2581516.0,2992017.0,4465905.64340772,942374.5755868289,1157508.8054628766,0.09565869598283828,0.08086773630131598,0.0700052974713753,0.08165448947586504,0.061497873143918136,0.07619442244449456,0.10607006299270418,0.08762856858127423,0.06048558405933168,0.09733185773404596,0.12135405466361056,0.061251357149226096,4.769915262179043,0.3405965139446833,0.5796803728161543,0.08620689655172414,0.4656284879991596,0.21676215157294232,0.0034145683720603224,1230.3890983478932,627.8652494062999,0.024440403706425137,Sam,REC_20260810_144155.csv
left,70,brick,71.184,0.9920000000000044,0.03225806451612903,29538.0,1.8011306168310772,40127.35043583117,851.5625,0.23579918732903116,0.32544653212711666,0.4783112966829042,0.22298298897639315,0.34445994949324243,0.6473408281695481,4311.0,3287.3174603174602,13.900000000000006,711.1269841269841,0.21632440210332157,7.5,-0.55,6.95,0.7498781093378213,-1.1738298384890304,9278725.617206978,8297993.0,2656042.0,3191160.0,4257065.333149635,865269.5349147368,1003698.2524641089,0.09525786934877187,0.07736804747442069,0.06859937904693846,0.07805853182746582,0.057208801502648475,0.07380939734718808,0.10577930574936867,0.09323470190873052,0.05801517134151936,0.09998020289617145,0.12974828706766264,0.062940304489114,5.19835881037196,0.2521204887702378,0.5951126990355863,0.11290322580645161,0.4742552997055975,0.2737347711651299,0.002057854167775301,985.8341645530486,1116.067977011858,0.031999999999996316,Sam,REC_20260810_144155.csv
left,71,brick,72.192,0.9440000000000026,0.01694915254237288,30121.0,1.8486724498266638,37925.18241221787,1239.5833333333335,0.34324285372666313,0.31823434250057775,0.4645250751097758,0.21871638580136252,0.3468051045606735,0.6306608032146397,4327.0,3300.3166666666666,-10.599999999999994,699.1083333333333,0.21183068291426582,9.0,-0.3103448275862069,8.689655172413794,0.7017500184929595,-1.101379564778385,9755552.069017828,8863654.0,2902831.0,2860071.0,4417993.833912647,977503.1706519058,953084.3081593585,0.09794009665739146,0.07614420838404395,0.0676601740237048,0.08005292421434307,0.058019684979724165,0.07238194314686974,0.11056009776839597,0.09440508234058348,0.06020634383569253,0.09878345007297279,0.12431130346077901,0.059534691115499014,4.386089560580394,0.24796097500939293,0.5058537251571553,0.06779661016949153,0.47481035917591485,0.20554072896366204,0.0029538629821136537,1095.19085094791,861.8349157580441,0.03330665599145544,Sam,REC_20260810_144155.csv
left,72,brick,73.152,0.9920000000000044,0.0,27575.0,1.6410540848064863,37692.178366340144,898.4375,0.24877895910861084,0.3048725972284309,0.46714349575324093,0.21697906925893362,0.3570647648024862,0.6076742671004784,4474.0,3411.8571428571427,15.900000000000006,718.968253968254,0.21072636510395587,0.0,-0.6451612903225806,-0.6451612903225806,0.7501914303532093,-1.0836167563746368,9068602.882525787,8299215.0,1933999.0,3101973.0,4255975.0000071945,702448.7718793323,1126170.2374183137,0.09328346057400197,0.08096879695925042,0.07159439303642294,0.07599547795503078,0.061275570256854026,0.07649327508641665,0.10145291630029729,0.09149232136294064,0.06233164454493433,0.09629350491051283,0.12548674789599298,0.06333189111734522,4.520934794048902,0.177590976420853,0.5393410199813123,0.0967741935483871,0.44585984627966246,0.20803041707012068,0.0019655267846280214,1333.8774306509602,211.7931035729558,0.027712812921102885,Sam,REC_20260810_144155.csv
left,73,brick,74.16,0.9120000000000061,0.9824561403508771,29997.0,1.8385606362907243,39082.15150167657,1024.7395833333335,0.28375223307025615,0.31742299553256526,0.47472372442981425,0.21986388523698647,0.3600863784919667,0.6105865102634104,4253.0,3265.5,-13.400000000000006,694.9741379310345,0.21282319336427333,0.39285714285714285,-11.0,-10.607142857142858,0.8602137466112666,-0.8456632896286185,9701685.601952167,8848993.0,2419026.0,3156951.0,4600171.780319702,797112.2654508852,1179334.7081628484,0.09636270518851736,0.08685895912861208,0.06980501481000427,0.07490007866989794,0.06231289499944561,0.0734322778895348,0.09708076600193243,0.09202794101341612,0.06258216780447626,0.0944302768230033,0.12783594422357034,0.06237097344758948,4.622029869259483,0.3034953369675787,0.536272036021406,0.08771929824561403,0.48723659249392637,0.1855746751054347,0.0030081564150538386,1435.4776208635253,172.47730902406482,0.04026578365477652,Sam,REC_20260810_144155.csv
left,74,brick,75.088,0.960000000000008,0.016666666666666666,28456.0,1.7128968890416696,39686.05989513194,2020.8333333333335,0.5595723833863248,0.3177700348432056,0.4801393728222996,0.2174396752612193,0.3592422761783057,0.6052730696793343,4305.0,3271.2295081967213,-17.900000000000006,689.1147540983607,0.2106592497932797,9.0,-0.3559322033898305,8.64406779661017,0.8628624652052318,-0.8643733724560252,9826613.086847268,9001710.0,2560747.0,2995683.0,4443353.4839489665,916627.5252685697,989260.8801239617,0.0956826780926608,0.08443208298879952,0.06723295497256258,0.07775689694053972,0.06266756871883535,0.07314139667744118,0.10468315417574983,0.09320203462878048,0.06124433085268987,0.09676514069508131,0.12423764063243879,0.05895412062442056,4.650263890114529,0.3053702326761163,0.5701319245322992,0.08333333333333333,0.4400495398495139,0.23049094671901463,0.0021652396530905454,1225.8959988514553,614.8072030763557,0.04026578365477652,Sam,REC_20260810_144155.csv
left,75,brick,76.064,1.024000000000001,0.984375,28059.0,1.6805227763499921,39055.591891558885,1466.1458333333335,0.40597841732796497,0.31520223152022314,0.4702463970246397,0.22102937544026569,0.3511284523689724,0.6294829540267979,4302.0,3363.353846153846,17.599999999999994,722.8538461538461,0.2149205463411064,0.5238095238095238,-8.0,-7.476190476190476,0.7162524323034789,-1.192435773174938,9303692.358113632,8721933.0,1831373.0,2670702.0,4229337.0037933765,771227.7616358543,969546.4693795403,0.0981483683868666,0.08094484443184001,0.06724972326157956,0.07796247335535043,0.06031525308986451,0.07224473739582285,0.10264479594543909,0.09250839363638859,0.05966114409609456,0.0999734697051478,0.12852098180387708,0.05982581489172895,4.611622592282488,0.17876573699007348,0.537151231765739,0.09375,0.5109588420709534,0.240293239479028,0.0016408638296102928,1023.7296192517533,499.11930086643105,0.05619015334854501,Sam,REC_20260810_144155.csv
left,76,brick,77.104,0.9440000000000026,0.01694915254237288,30878.0,1.9104034405259074,38463.59012104824,1299.4791666666665,0.3598281176672371,0.313969571230982,0.46357768556938683,0.21014455263185125,0.35969495980050287,0.5842299062189309,4338.0,3221.4333333333334,29.5,654.75,0.20324803658826815,8.0,-0.8620689655172413,7.137931034482759,0.8355638912442137,-0.9756110378935787,10119367.809334781,8647408.0,4097684.0,3291341.0,4387321.906008827,1054070.554893221,979043.3136568308,0.09500946783522862,0.08246329273718737,0.06689568825471064,0.08068354666142401,0.06132880808749728,0.07511666649421064,0.10953198886623967,0.08943224030710968,0.06010264582018356,0.09631323530933435,0.12071231232474157,0.062410107302132596,4.477003488599978,0.2448074940590618,0.5088538958399819,0.1016949152542373,0.47144245449004335,0.23336422878483568,0.001515154104068112,1525.9125138748964,377.670013415897,0.04233202097703132,Sam,REC_20260810_144155.csv
left,77,brick,78.064,0.9760000000000133,1.0,28566.0,1.721867046210648,39647.11574629357,1593.75,0.44131224050570966,0.31343283582089554,0.4466304839439168,0.21563410428681848,0.361852666627029,0.5959168583629513,4422.0,3255.2903225806454,-25.5,680.0483870967741,0.20890560279049486,0.9180327868852459,0.0,0.9180327868852459,0.9387483002766004,-0.596955816977069,9817486.363057807,8998044.0,2747671.0,2805093.0,4336175.157154578,835600.9072881937,1030942.9936769427,0.09478863190439384,0.08591969399686862,0.06814218047049962,0.07883445309867808,0.06411895277166696,0.07517291951562717,0.10010008522107934,0.08912539389975623,0.05780664724418812,0.09783578096200725,0.12650871038706224,0.0616465505281725,4.3812668643600325,0.2608910430297174,0.5261072705020586,0.04918032786885246,0.5286164978389174,0.17848664730510275,0.00349316520944795,1502.7282965770423,147.56689131778057,0.04026578365477555,Sam,REC_20260810_144155.csv
left,78,brick,79.056,0.9759999999999991,0.03278688524590164,24886.0,1.4217745154666368,38684.11681814644,1119.7916666666665,0.3100723258455149,0.3081510934393638,0.449083278109123,0.20648451366147538,0.3650026248031398,0.5657069281972019,4527.0,3226.048387096774,19.599999999999994,643.8790322580645,0.19958753093517986,7.5,-0.2711864406779661,7.228813559322034,1.1278829458319077,-0.2588168794202286,9538239.550217692,8818450.0,2199114.0,2894279.0,4425685.400648657,763724.1074145276,1047132.1278754206,0.09452291078169138,0.08402869784766143,0.06951478639102067,0.08055895807814413,0.06354023448241382,0.07735419843511737,0.10205234607404445,0.08497362697797665,0.05952053595980302,0.1010374221933355,0.12151088668349874,0.06138539609529285,5.170688724009683,0.34015503662643065,0.6265623896517264,0.09836065573770492,0.522669018518334,0.19365458502190824,0.0034062409610607683,3021.914624869473,239.27648677595147,0.018475208614069722,Sam,REC_20260810_144155.csv
left,79,brick,80.048,0.9920000000000044,0.0,29801.0,1.8225774471532714,40186.989449323024,794.2708333333333,0.21993502182065594,0.29537291358546375,0.42087470948658356,0.2129715165511932,0.3568514241724403,0.5968072484085104,4733.0,3299.0476190476193,24.30000000000001,680.547619047619,0.2062860854503464,0.0,-0.27419354838709675,-0.27419354838709675,0.8794390633748062,-0.7704865568899919,9889103.748074949,9092118.0,2287079.0,3145955.0,4401593.466462313,806402.3011175601,1010844.9496209503,0.09373556581986142,0.08128367975365666,0.06650789068514242,0.08117782909930715,0.06114799846035412,0.07485565819861431,0.10888664357197844,0.0887750192455735,0.05838625866050808,0.10339684372594302,0.1241964973056197,0.05765011547344111,5.375013613008261,0.2676678609179737,0.6108377092585439,0.0967741935483871,0.52587467681572,0.20083569325286088,0.0024845936196954254,2556.8486462831556,402.02969471673066,0.00923760430703222,Sam,REC_20260810_144155.csv
left,80,brick,81.056,0.9440000000000026,1.0,25087.0,1.4381654390208614,41451.01525897768,1812.5,0.5018845088104149,0.3000423190859077,0.46593313584426577,0.20464114662427432,0.37876286879542487,0.5402883003683215,4726.0,3281.516666666667,-7.800000000000011,648.1083333333333,0.19750267914734548,0.423728813559322,0.0,0.423728813559322,1.2560109588898856,0.0605020041983928,9609077.786734844,8764694.0,2313957.0,3187494.0,4435154.913166552,946451.6109815317,1092575.8945043106,0.09216774763701743,0.08514863553946092,0.06509185285259356,0.08376716051012996,0.06797669776678467,0.0798004987531172,0.10221899426586284,0.08498610906542198,0.06206987622593211,0.09341209095387804,0.11965503755885235,0.0637052988709489,4.346534208592497,0.2832643500461521,0.5306080209814428,0.0847457627118644,0.5400636698160912,0.22001646394414248,0.005047567265883132,2781.469096239133,520.0319355344383,0.024440403706431246,Sam,REC_20260810_144155.csv
left,81,brick,82.016,0.9279999999999973,0.0,29040.0,1.7605202689206105,39489.43476425055,1281.25,0.35478042864184506,0.3185682326621924,0.46442953020134226,0.21781012632311694,0.3742552668754991,0.5819827951690486,4470.0,3311.3898305084745,36.5,697.9661016949152,0.2107773887762832,0.0,-1.7241379310344827,-1.7241379310344827,1.0455867853575675,-0.38443607585221073,9855240.054706836,9024923.0,2951700.0,2638937.0,4442317.1777659,1042415.4006695382,787824.0518470784,0.0886002088323813,0.08280613393935671,0.06555187027823844,0.08108633785803493,0.06676494072845648,0.08085600802571505,0.10188768093687939,0.09259771103331083,0.06274184632393588,0.09163544417828554,0.12521241528980612,0.06025940257559937,5.11006762434023,0.33568643745415505,0.6113094672655199,0.06896551724137931,0.44575734761264224,0.23202321603837373,0.003138274208682549,2530.715511471016,509.2749596432908,0.03330665599146105,Sam,REC_20260810_144155.csv
left,82,brick,82.96,0.9920000000000044,1.0,25967.0,1.50992669637269,39315.660925386976,2140.625,0.5927429112674728,0.3229045061872519,0.48330609385944434,0.22452842122676164,0.35137909727391703,0.6389919689831036,4283.0,3262.4285714285716,15.199999999999989,710.936507936508,0.2179163443339999,0.7741935483870968,0.0,0.7741935483870968,0.6872119001591603,-1.2361498078687638,9504271.100474933,8785463.0,1932777.0,3067765.0,4332263.715727238,695575.6065304733,1035194.1882188162,0.09369784900721538,0.08231281594683092,0.06825181357738173,0.07912111437092828,0.06183435263437015,0.07278636520656051,0.1028739910379355,0.09446658200872853,0.055324449115227235,0.10019315633012703,0.1300618392180331,0.05907567154666161,5.006643471186363,0.2650368042234149,0.5975257317445597,0.0967741935483871,0.528244986812378,0.22654686244475378,0.002427939625498713,2075.4091162949067,433.66999142012537,0.03330665599146105,Sam,REC_20260810_144155.csv
left,83,brick,83.968,0.9599999999999937,1.0,25211.0,1.4482772525568008,38365.121881730025,1770.8333333333335,0.490346933895233,0.3048302872062663,0.47019147084421237,0.20991288436294203,0.37043537929114123,0.5666653243663061,4596.0,3296.9180327868853,4.599999999999994,669.172131147541,0.20296899240224353,0.15,0.0,0.15,1.1625744460425718,-0.1567525337947635,9663848.969582565,8533787.0,2825862.0,3546683.0,4360638.473898979,1061257.4451710698,1113471.3890167223,0.09171506424280997,0.08392338597398465,0.06300966625561875,0.08278471697362663,0.06674887624806078,0.07521182226818887,0.10811388678945065,0.08851784080512351,0.061766577827280324,0.0954741636501054,0.12139504355781854,0.06133895540793189,4.280144779125925,0.29859340019625713,0.5387561120826859,0.08333333333333333,0.494555690353283,0.20506887070561458,0.0031214790922760196,2027.975427201557,431.07677344816415,0.032000000000003345,Sam,REC_20260810_144155.csv
left,84,brick,84.944,0.9920000000000044,0.06451612903225806,22751.0,1.2476719195050976,37065.578222928074,626.6741071428571,0.1735271870055714,0.32437357630979496,0.48792710706150344,0.2201817809191995,0.3457936352847536,0.6367433013557157,4390.0,3330.3650793650795,-4.199999999999989,712.0714285714286,0.2138118229089713,7.25,-2.5172413793103448,4.732758620689655,0.7877733081541038,-1.0439594790621394,9418316.046118118,8444601.0,2575407.0,3280346.0,4237992.583100396,749921.185956442,998935.3988226665,0.09091429034425894,0.07827446345078713,0.06832751068808891,0.07841268176900383,0.05744162659129796,0.07236443880979729,0.11357732838289333,0.09440311134200455,0.05930042466386735,0.0973438252157874,0.12577866957719494,0.06386162916501836,4.556836546391586,0.27908061528828765,0.5864356806087412,0.0967741935483871,0.4536406993063316,0.2205733460545302,0.0016557600426823536,1681.5564218901495,789.2922481138651,0.018475208614073767,Sam,REC_20260810_144155.csv
left,181,brick,180.48,1.0400000000000205,0.03076923076923077,20459.0,1.0607664628569253,35067.232981802255,1007.8125,0.27906509326096346,0.2919000430848772,0.478888410168031,0.2138683047893968,0.3628834949747417,0.5893580384638651,4642.0,3443.212121212121,-21.80000000000001,715.9469696969697,0.207929963212645,0.5,-0.15873015873015872,0.3412698412698413,0.8874528778193893,-0.8234945541350012,8861813.073542174,8163603.0,2150245.0,2695137.0,4173653.478243563,776800.7028211766,828693.708183324,0.09730607431397745,0.07841955186312992,0.06709291887420132,0.08768239663457308,0.06485751500536849,0.07410275817154525,0.10964920000704065,0.0946746343266506,0.05782127330012497,0.09287927058947777,0.11919367046274622,0.05632073645116435,4.362248315881341,0.2571951505767151,0.563523789553861,0.09230769230769231,0.47142949497926395,0.25118290320606695,0.0015393327746941227,490.1336552411973,782.0149611421953,0.0423320209770421,Sam,REC_20260810_144155.csv
left,290,brick,284.512,0.9279999999999973,1.0,26278.0,1.5352877770958933,39011.414457822466,1366.6666666666665,0.378432457217968,0.3304591004427872,0.4819389419715684,0.1990849229928282,0.3725497142914986,0.5343848494724551,4291.0,3348.7966101694915,10.099999999999994,643.7033898305085,0.1922193148057233,2.1206896551724137,0.0,2.1206896551724137,1.0968987795371452,-0.24111474648941256,9297257.221032502,8803789.0,1756848.0,2417804.0,4508882.4204563415,866832.8782193798,971296.70915254,0.09814808253913623,0.08554552862399344,0.0715460651182565,0.08497866676114364,0.06759321587820569,0.07536732142586004,0.10298665343988987,0.08643125028469625,0.059064981602295785,0.09403833403347522,0.11265367270813194,0.061646227584915406,4.31921327015199,0.26972800891874643,0.5236873545882301,0.08620689655172414,0.48843005786682925,0.22848269222430778,0.0029506367366923187,2926.3103617582005,168.95028409378494,0.009237604307048614,Sam,REC_20260810_144155.csv
left,291,brick,285.456,0.94399999999996,0.0,31332.0,1.9474257255687828,42610.24482445507,1244.7916666666665,0.3446850505910608,0.3222912353347136,0.4690591212330343,0.20504533032139652,0.3634291707425298,0.5641961263106464,4347.0,3305.366666666667,8.699999999999989,654.9166666666666,0.19813737255574265,0.0,-1.0508474576271187,-1.0508474576271187,0.8606455740727186,-0.827157962544923,10072353.586726094,9258273.0,2861292.0,2747671.0,4575962.158311115,894954.0212138158,971519.2226908904,0.09676183176853803,0.07677413499258781,0.06823247042688153,0.08690412561390062,0.06242373513780619,0.07693548875061769,0.10764816813061587,0.09033793527697381,0.06039168624761751,0.10033178366494891,0.11470739504442269,0.058551244945089294,4.665141359238661,0.2943776810375978,0.5620282529923594,0.0847457627118644,0.47233723307940895,0.18274342326126303,0.0030649310330242863,2527.9495643703167,169.7831456621245,0.00923760430701581,Sam,REC_20260810_144155.csv
left,292,brick,286.416,0.9599999999999795,0.0,31217.0,1.9380478339830323,40354.36543919381,2093.75,0.5797631394878932,0.30193345323741005,0.4606564748201439,0.20442768745390877,0.36883720703077305,0.5542490929790814,4448.0,3356.6721311475408,13.300000000000011,664.6229508196722,0.19800055675752234,0.0,-0.9,-0.9,0.8255331320856817,-0.9223248908961392,9928636.49975212,8839220.0,3175277.0,3219259.0,4491304.160916439,921606.0308492013,1049412.173068893,0.09328618801799206,0.0779655884780496,0.07319407883491162,0.08519855243044196,0.06383664538941282,0.0807249569001304,0.10514903031398196,0.08773814814633933,0.06111146383273833,0.09464877879632932,0.11668953930756946,0.060457029552103234,5.252949713701908,0.28634714634273617,0.5904443676042606,0.11666666666666667,0.4343477441116672,0.2315450894302823,0.0018222391785147301,2885.303623537751,459.02685850470965,0.01599999999999277,Sam,REC_20260810_144155.csv
left,293,brick,287.392,0.896000000000015,0.03571428571428571,28901.0,1.7491852521343556,39218.67130589714,388.8888888888889,0.10768403254169823,0.2870433401406853,0.4644883140458362,0.19700117423900282,0.381075092849894,0.5169615593755041,4407.0,3301.877192982456,25.099999999999994,628.7631578947369,0.19042596715318771,8.0,-0.7222222222222222,7.277777777777778,1.0120932544711438,-0.5423255855825002,10108717.944601828,9441533.0,1905899.0,3067765.0,4561472.533151039,706482.421685111,1078307.0184691804,0.09718554570233838,0.08463553427874627,0.06920040168537833,0.08688837290855282,0.06895598994723894,0.07993857826754584,0.09947557742273136,0.08198419824979943,0.060656617447810125,0.09338653716386745,0.11501697598920338,0.06267567093678769,4.5073187187976265,0.286647840648046,0.5412028122477657,0.05357142857142857,0.45167775897769347,0.20640587384525583,0.0027088134635917614,1371.5466938217621,852.4329127975253,0.03330665599143605,Sam,REC_20260810_144155.csv
left,294,brick,288.304,0.9440000000000168,0.0,29069.0,1.7628851285378866,38933.808046478065,1625.0,0.44996542169209613,0.2881750465549348,0.4725325884543762,0.19733184823946134,0.3788193503717752,0.5209127993214763,4296.0,3321.9,-4.099999999999994,635.1916666666667,0.19121336183108062,0.0,-0.6271186440677966,-0.6271186440677966,0.8664863568299714,-0.8997550493487863,9651735.135592202,9007818.0,1705535.0,3017674.0,4521838.320392903,709347.96733386,1114705.4294921122,0.09537212639352981,0.08429914607102362,0.07075769890725188,0.08456004094042566,0.06878593575965562,0.08070682440771848,0.10076060888848751,0.08312010194968743,0.060467403192951824,0.09271300560923969,0.11421174628977392,0.06424536159025457,5.412968895553662,0.36945800311306304,0.6536974961069969,0.06779661016949153,0.4437009240894464,0.2706661808295837,0.002364438097507194,1291.3806565068535,880.7429297371013,0.033306655991445146,Sam,REC_20260810_144155.csv
left,295,brick,289.264,0.9599999999999795,0.9833333333333333,28183.0,1.6906345898859316,39656.02079129977,708.3333333333334,0.1961387735580932,0.2985179957657022,0.4921195012938132,0.19389127961616462,0.3778107533264085,0.5131968264770325,4251.0,3314.2622950819673,15.800000000000011,622.2868852459017,0.1877603007370035,0.8813559322033898,-7.0,-6.11864406779661,0.9785169078698945,-0.6453568609629996,9694122.617443055,8789129.0,2752558.0,3025004.0,4397160.171398833,825309.8888332078,1041725.627112708,0.09560271059009744,0.08300440223574218,0.07273581639214521,0.08482959885245091,0.06698817826581589,0.08126823960033636,0.10109808576940199,0.08151555621506652,0.06172033437206312,0.0929069594895385,0.11237572340109808,0.06595439481624375,4.795194352187678,0.3222480817025542,0.5938188824257234,0.1,0.48806083954443985,0.2102641241228931,0.002320928840004095,470.59253429416617,641.6506331169832,0.033306655991445146,Sam,REC_20260810_144155.csv
left,296,brick,290.24,0.9279999999999973,0.034482758620689655,30456.0,1.8759906557503714,39870.70740531199,1307.2916666666667,0.36199141296383375,0.3013603873645377,0.4908923218814849,0.19634468994865908,0.37719569975472145,0.5205379861864278,4337.0,3337.6101694915255,12.199999999999989,634.0169491525423,0.18996135466867087,13.5,-1.3035714285714286,12.196428571428571,0.953502195981663,-0.6768913002390571,9773530.83001742,8750033.0,2581516.0,3506366.0,4498378.019714182,944992.2453219227,1072373.3315016082,0.09542502247116835,0.08239428394415978,0.07434528917981505,0.08553263016773394,0.06694630787278018,0.08048486941331208,0.10285955138914984,0.08422244679284376,0.061837608356735504,0.09121009145892472,0.11212224315581533,0.06261965579756143,5.035272372907124,0.3236978111625246,0.5991796018774977,0.08620689655172414,0.4527909118818264,0.1912221751074642,0.00235357018738384,1145.665308892642,465.46884033138537,0.015999999999992742,Sam,REC_20260810_144155.csv
left,297,brick,291.184,0.94399999999996,1.0,28188.0,1.6910423243027035,43250.12935240772,1085.9375,0.30069804622692964,0.3037974683544304,0.47562119081106424,0.19445271835984634,0.38146900983950843,0.5097470917532778,4266.0,3301.3166666666666,0.4000000000000057,620.9916666666667,0.1881042412370822,1.305084745762712,0.0,1.305084745762712,1.0130214858195117,-0.6324583324051778,9741502.475619765,8958949.0,2434908.0,2950479.0,4572343.986566214,818012.7875172753,990520.8059028088,0.09619899131154741,0.08361815235335397,0.07354641329974404,0.08709656248264583,0.0688967533155963,0.08198748983991236,0.09951584973672122,0.07983178428808708,0.059870051848000046,0.0929831027014474,0.11462093407175925,0.06183391475118513,4.8334074332477295,0.3285388053133898,0.592913262640261,0.1016949152542373,0.46223147321625524,0.20930214196814517,0.00283057388781602,1310.8761700989937,302.8568580628402,0.015999999999992742,Sam,REC_20260810_144155.csv
left,298,brick,292.144,0.9440000000000168,1.0,29279.0,1.7800099740423003,39667.30505088542,638.3928571428571,0.17677212995046632,0.31097560975609756,0.4803523035230352,0.19468296561319817,0.38244384814152255,0.5090498031517672,4428.0,3354.0,21.599999999999994,630.7833333333333,0.18806897237129794,1.5593220338983051,0.0,1.5593220338983051,1.168355113145638,-0.15644455607873153,9774247.867677748,8823337.0,2614503.0,3293785.0,4417468.952927908,965715.2708158738,1120234.7872923112,0.09607433909759491,0.08426754124428543,0.07006062413039157,0.08782548201152852,0.0689723712979527,0.08107235142118864,0.10090439276485788,0.08461538461538462,0.06030610216656729,0.09269032001590141,0.11006758099781357,0.06314351023653349,5.118873094267959,0.3114497807854261,0.6003775593364545,0.1016949152542373,0.5157772221029252,0.19794172963093895,0.003572816676555995,1134.2717193571416,340.76372357622364,0.009237604307031915,Sam,REC_20260810_144155.csv
left,299,brick,293.104,0.9279999999999973,0.034482758620689655,30040.0,1.8420671522749614,39243.05239147434,1341.517857142857,0.37146870664416176,0.30800542740841247,0.4626865671641791,0.20075422809625196,0.37846482947013216,0.5304435510616925,4422.0,3375.322033898305,16.30000000000001,655.6610169491526,0.19425139597477203,11.5,-1.9821428571428572,9.517857142857142,1.0874223766240771,-0.3535041443594813,9923092.983114136,8869763.0,2581516.0,3623652.0,4453884.396799848,947339.7399065818,1130199.7847322717,0.0955288635359338,0.08403466838066927,0.07071265014261037,0.08576206162374965,0.06963805085767083,0.07990700196842486,0.09823544771622544,0.0851343751255373,0.05912304663961756,0.09292270919535613,0.11561985297071466,0.06338127184349014,5.7243920402911455,0.36601917268623085,0.665240977373638,0.08620689655172414,0.4455466052160262,0.2164147560410429,0.0026478888686754837,930.8872112130846,355.9031450484817,0.009237604307031915,Sam,REC_20260810_144155.csv
left,300,brick,294.048,0.9599999999999795,0.9833333333333333,29451.0,1.7940360379792486,39602.842120231726,1421.875,0.3937197439805841,0.30135104190519807,0.46164414930158004,0.2002068799615107,0.3749001683906663,0.534027180677944,4367.0,3407.377049180328,26.80000000000001,661.5983606557377,0.19416646620158767,1.6779661016949152,-22.0,-20.322033898305087,0.9134660344798491,-0.8372581048554233,9758596.327160839,8947954.0,2301740.0,3141069.0,4475290.032666905,998054.4048957517,1147228.7310884036,0.0967428433966803,0.08532114505653116,0.07229732980514794,0.08402213134471974,0.06811161895597787,0.07789752225162377,0.09993745489535723,0.08381044022131344,0.059547750781813805,0.0945393312484965,0.11639643974019726,0.06137599230214097,5.035208633938196,0.33354603752460105,0.6133361059790308,0.1,0.4383047503115726,0.23803103420375535,0.0017387450259572811,399.08770965800744,431.0232600469854,0.015999999999992732,Sam,REC_20260810_144155.csv
left,301,brick,295.024,0.9119999999999777,0.03508771929824561,30523.0,1.881454296935113,40111.67343804045,1031.25,0.28555497915075334,0.29591378536147284,0.44881005837449484,0.19990785747933265,0.38160462576159937,0.523861200791796,4454.0,3330.6724137931033,19.19999999999999,643.6637931034483,0.19325340746147357,2.0,-1.1090909090909091,0.8909090909090909,1.0102774210823562,-0.6142928504512302,9401675.68284234,8811120.0,1637118.0,2841745.0,4470410.518043545,749682.2491511976,1153074.5489521674,0.09552798181997008,0.08703844620792114,0.07056149995599936,0.08420687548853655,0.0706546777858877,0.08011740406565933,0.09722071239627497,0.08419134585022181,0.059587222213594644,0.0930328865974045,0.11571651162911083,0.06214443598941914,5.116147715869915,0.3212400642908543,0.6082954091971337,0.07017543859649122,0.44157908549886143,0.22424348233125227,0.002984361430740969,536.872734764401,206.28108016699957,0.024440403706431246,Sam,REC_20260810_144155.csv
left,302,brick,295.952,0.9279999999999973,1.0,23302.0,1.292604252233345,38953.92828714455,781.25,0.2163295296596616,0.2979715551410585,0.4721380275122406,0.19570340780143664,0.3788528386364686,0.5165684082126384,4289.0,3301.0,16.900000000000006,624.5762711864406,0.18920820090470786,0.4482758620689655,0.0,0.4482758620689655,0.9993522959173877,-0.6456964693270564,9090501.900350166,8232019.0,2411695.0,3009122.0,4411535.853220492,895176.9338170051,1071130.2797665969,0.10021616459316385,0.0892949748150278,0.0700558125683537,0.0841244820521773,0.06875163663810145,0.07783465719170873,0.09766942734353741,0.08201931618051027,0.058847087939453376,0.09483515524314666,0.11368409162092638,0.06266719381389306,5.1209989417263175,0.3151501856251988,0.6204925623022814,0.08620689655172414,0.45599058085944616,0.27904565818647453,0.0029954897697072624,3896.6273023389613,322.87466124643595,0.024440403706431246,Sam,REC_20260810_144155.csv
left,303,brick,296.896,0.94399999999996,0.9830508474576272,27595.0,1.6426850224735734,40096.366942654546,987.3511904761904,0.2733993198651152,0.30487249544626593,0.46675774134790526,0.20629708515757503,0.3757099751508697,0.5490859939893057,4392.0,3380.4,28.599999999999994,675.6833333333333,0.1998826568847868,1.0,-18.0,-17.0,0.9012432822222868,-0.7131020757179964,9718541.3875967,8878315.0,2230879.0,3263242.0,4492618.596276858,866034.788666288,1229108.7458418435,0.0964925255393839,0.08805664023981383,0.07020865380822783,0.08288466848104761,0.06927188103971917,0.07708653808227822,0.09955922376050172,0.08639017078846685,0.05841024730801088,0.09132548416360982,0.11990691436910818,0.06040705241983197,5.09900578408404,0.3354169126706542,0.6233006700182373,0.1016949152542373,0.44936824554164834,0.2288757688821903,0.0021454064555672635,3631.938738470141,133.48208755816782,0.015999999999993176,Sam,REC_20260810_144155.csv
left,304,brick,297.856,0.9279999999999973,0.017241379310344827,33515.0,2.125442571931331,39675.33231114769,906.25,0.25094225440520745,0.3083159601575168,0.4720870975214269,0.20298895583853163,0.3801862785273777,0.5339197317289682,4317.0,3350.186440677966,15.5,657.7796610169491,0.19634121045628627,10.0,-0.42105263157894735,9.578947368421053,0.9751373150597683,-0.5695839811465091,9231720.727395624,8669399.0,1670105.0,2697580.0,4520086.213372126,667253.2856895435,1095601.8395440343,0.09367047621938572,0.08646622247180778,0.06558704043792149,0.0846853957027436,0.07024653320584233,0.0785283895153824,0.10234188838465859,0.08864672343051992,0.06025973763160158,0.09496562296052331,0.1143422324080117,0.06025973763160158,5.124424078295526,0.32828663224449584,0.6194401505641742,0.10344827586206896,0.433360856043192,0.241310045987071,0.0027637254837237024,5128.053854371405,103.82686214107176,0.009237604307015763,Sam,REC_20260810_144155.csv
left,305,brick,298.8,0.896000000000015,0.03571428571428571,30054.0,1.8432088086419223,40625.11239369068,1325.5208333333335,0.3670391019892259,0.2987278509768287,0.46660608814175375,0.1947217105915378,0.38149676759560247,0.5104150995003885,4402.0,3362.3333333333335,-18.30000000000001,631.9122807017544,0.18793861823190872,2.5,-0.46296296296296297,2.037037037037037,1.118974162139345,-0.30145923889944504,10078013.724225672,9244834.0,2550973.0,3097086.0,4720070.834528913,893027.9561838852,1244461.615229706,0.09467109828700829,0.08594178019650096,0.07396179553672522,0.08367727090105555,0.0680187630770194,0.0813762372621352,0.09999843467099392,0.08389119919855155,0.062482716158891324,0.09247963767851274,0.11083051139298628,0.06267055563961951,5.384194755408817,0.32030568084779243,0.6263868075270569,0.08928571428571429,0.4350088947159454,0.2180316695493413,0.0023687467506098227,2974.099359470038,222.38260653313077,0.024440403706406644,Sam,REC_20260810_144155.csv
left,306,brick,299.712,0.9920000000000186,0.0,27925.0,1.669595493980509,38329.51120220554,1270.8333333333335,0.3518960349130496,0.2971979788700046,0.47657326596233346,0.20367596301496588,0.3747716610863532,0.5434668203684563,4354.0,3380.1746031746034,17.400000000000006,668.1111111111111,0.1976557987518255,0.0,-0.3870967741935484,-0.3870967741935484,0.8053739744858692,-1.0090665137340116,9848477.018282065,8850215.0,2989574.0,3119077.0,4431185.411056793,890289.7613529597,1083497.9494330129,0.0947401045310893,0.08247437203863799,0.06994097233635906,0.08373757343238585,0.06801095087602312,0.08020154871308421,0.1015257030960174,0.08612309874102492,0.06034721602622199,0.09410615587623443,0.11755286427394095,0.0612394400589807,4.9672422014522795,0.31152583457332633,0.6173799209573204,0.0967741935483871,0.44437943038610705,0.23491741845701183,0.0013041283154570083,2821.3253977519307,227.92533912253114,0.04888080741286679,Sam,REC_20260810_144155.csv
left,307,brick,300.72,0.9759999999999991,0.03278688524590164,22407.0,1.2196197916312008,35171.22440291211,1166.6666666666665,0.3230520976250946,0.2944290976058932,0.4631675874769797,0.20549342656672814,0.36734596134964914,0.5594002607557408,4344.0,3367.6612903225805,-24.19999999999999,671.8064516129032,0.19948753562106372,1.5,-0.7966101694915254,0.7033898305084746,0.8180511561888287,-0.9323748151009501,8662787.752142841,7919256.0,1827708.0,2998126.0,4308090.683223837,694261.6880363743,1009784.4907171042,0.09470533298211165,0.08615627768864197,0.06924495318374482,0.08162072846571997,0.06479561292176537,0.07562441629349362,0.10617591417419,0.08843123638018152,0.05914892598002826,0.09552910749778491,0.11706219018654662,0.06150530424579133,4.874377436366141,0.3292782801257088,0.5912828698226031,0.08196721311475409,0.4569649079368477,0.2593982812228778,0.001291158177821693,3946.6773789269146,80.70116001650395,0.05143280405862752,Sam,REC_20260810_144155.csv
right,0,brick,0.304,0.96,1.0,23225.0,1.1424823105921604,33776.08575604935,1132.8125,0.293941161272414,0.2425514897020596,0.42491501699660067,0.16703822937625754,0.37360965794768614,0.44709291053588596,5001.0,4073.7704918032787,0.10000000000002274,660.7131147540983,0.1621871227364185,0.25,0.0,0.25,0.6819624803450532,-1.162513647947092,9045070.891680285,8494692.0,1678657.0,2614503.0,4214980.28837497,989568.7043652539,1075791.2601141194,0.08862374245472837,0.08398390342052313,0.0691066398390342,0.07488933601609658,0.06289336016096579,0.07406438631790745,0.11825352112676056,0.07784708249496981,0.07777867203219316,0.09320321931589537,0.08919114688128774,0.09016498993963783,4.282168014277643,0.24462473859218847,0.4995258343344928,0.06666666666666667,0.4302082884281681,0.1659177185371445,0.0007114848699194019,0.0,0.0,0.0,Sam,REC_20260810_145528.csv
right,1,brick,1.28,0.9600000000000002,0.016666666666666666,20138.0,0.9089451691517145,33193.06175995219,1250.0,0.3243488676109396,0.23893458676067372,0.4206815511163337,0.16488098337412035,0.3782297503514625,0.43592811834817713,5106.0,4092.967213114754,0.19999999999998863,655.0,0.16003060026995528,3.0,-0.2542372881355932,2.7457627118644066,0.899778310383924,-0.7044818618868622,9362531.844236419,8445822.0,2858849.0,2855184.0,4019751.694444657,1042841.6512606946,1153765.4404536914,0.09164059902832127,0.08809993952040886,0.06878652306435269,0.07595996331171823,0.06559432212792035,0.07315627365613148,0.1143464799676374,0.07552739405057055,0.07541925173528363,0.0932587284866885,0.0893535893235498,0.08885693572741728,4.3208808826257235,0.2953810529335939,0.5346171426635673,0.05,0.43190434887897605,0.22285818289600381,0.001389195737036123,2182.838633522872,82.86407592029853,1.5700924586837752e-16,Sam,REC_20260810_145528.csv
right,2,brick,2.256,0.9920000000000004,0.03225806451612903,22986.0,1.1244015276947628,35801.666455627455,1204.6875,0.312591221160043,0.23744647722849357,0.41747761775009734,0.16543273304475517,0.3789294491582285,0.43657924558819505,5138.0,4139.984126984127,1.6000000000000227,665.7301587301587,0.16080500270302392,6.0,-0.23333333333333334,5.766666666666667,0.8349320648844671,-0.7088870171793009,9244397.50318332,8514239.0,2037846.0,2968805.0,4114497.0595793407,1093751.9223107405,1112803.9214804557,0.09065290488806413,0.08706420927923196,0.06835008185753338,0.07597989410280692,0.06762927547456282,0.07310050264742983,0.11378772252021516,0.07557348199325968,0.07515556765419697,0.09496624095637204,0.08985925105149548,0.08788086757483157,4.70591348971608,0.2528510061728942,0.5742996442357832,0.08064516129032258,0.43787399108314307,0.2347960816601734,0.0016207971932804212,1717.4493684919314,59.09335613741475,0.018475208614068216,Sam,REC_20260810_145528.csv
right,3,brick,3.264,0.9760000000000004,0.01639344262295082,24522.0,1.2406027098303394,37684.19647544578,1437.5,0.3730011977525805,0.23364126250962278,0.4133949191685912,0.15809026300445958,0.38100978584597933,0.41492441632001853,5196.0,4094.1290322580644,-0.09999999999999432,627.7903225806451,0.15333916386958507,6.0,-0.16666666666666666,5.833333333333333,0.9896118041029213,-0.4965116553947482,9852302.260285461,9297368.0,1109331.0,3065321.0,4260532.697176206,1029575.3644236071,1017631.2746644042,0.09237854362659355,0.08612647536204479,0.06699995272538174,0.07801493877936935,0.06551474180179329,0.07437479317354513,0.11776107407932682,0.07327959785058069,0.07697883672922676,0.09455711561795806,0.08481066515387889,0.08920326510030098,4.491149464863464,0.2815785933158813,0.532514239279042,0.04918032786885246,0.4341793673702568,0.23607502466119173,0.0014257337324067416,2224.479564602321,123.43090699692418,0.01600000000000008,Sam,REC_20260810_145528.csv
right,4,brick,4.256,0.976,0.01639344262295082,22737.0,1.1055642266845034,39105.824182594595,1329.8611111111113,0.3450711563749719,0.23292102759276878,0.4146527117031399,0.15782489165656519,0.38925201435600026,0.4054568398768076,5255.0,4071.5806451612902,0.0,623.0,0.15301182864703414,14.0,-0.06666666666666667,13.933333333333334,1.086676706408397,-0.37243533512435123,9905886.11556008,9304699.0,1467298.0,3065321.0,4234109.656937192,995813.7704479655,1076646.3785233044,0.09170568614867809,0.08878615739310247,0.06416228935421767,0.07814195960988442,0.06829003557309121,0.07592359311989479,0.11499457292483699,0.0730753690014974,0.07811026866002742,0.09251776673876358,0.08474952265506779,0.08954277882093821,4.407044334522407,0.2505046300680245,0.4997397420850825,0.06557377049180328,0.4649817922291569,0.23140845806623134,0.0016907153270438082,966.7403994868505,116.51625314098197,0.009237604307034013,Sam,REC_20260810_145528.csv
right,5,brick,5.248,0.96,0.0,22890.0,1.1171389538112892,36747.80592089819,799.1071428571429,0.2073515975084221,0.2413860610806578,0.42149569303054035,0.15962606397167592,0.3794044183621505,0.4207280048573534,5108.0,4056.098360655738,0.19999999999998863,627.2868852459017,0.1546527794618102,0.0,-0.08333333333333333,-0.08333333333333333,0.9970636142062205,-0.5131087762769675,9747760.349849088,9068905.0,1177748.0,3374419.0,4280735.77736934,851902.6622931564,1147398.8397859852,0.09214621173541561,0.0856997356742731,0.06844985490376765,0.07681208623323714,0.06503059550080428,0.07464978862025204,0.11735819773504376,0.07375253615280776,0.07721221233358393,0.09359313238111405,0.08587352781886817,0.0894221209108325,4.4681815003106635,0.2903254515386678,0.5163454917756198,0.06666666666666667,0.4592266404640684,0.21139530331971074,0.0014264343210119448,989.364947832697,341.76779282372155,0.009237604307034237,Sam,REC_20260810_145528.csv
right,6,brick,6.224,0.96,1.0,19320.0,0.8470619875196171,34538.24257254558,1187.5,0.30813142423039264,0.2526416906820365,0.4165225744476465,0.15660608494828798,0.3892920976001607,0.40228426395913763,5205.0,4081.55737704918,-0.30000000000001137,618.2213114754098,0.15146701476051813,1.1833333333333333,0.0,1.1833333333333333,1.2250871088306365,0.19789609342762837,9689452.50750041,9158091.0,1246165.0,2908940.0,4306449.883448096,999833.1355226507,945311.1073399937,0.09190882618736822,0.08936640224922182,0.06750075308765942,0.07806004618937644,0.06799477859222813,0.07630083341700974,0.11217190480971986,0.07147705592931017,0.07757003715232454,0.09077216588010845,0.0851290290189778,0.09174816748669545,4.154472126266936,0.28509465842403986,0.5388855227370488,0.05,0.5154694754908432,0.21185626346721032,0.0032786693025876,2018.4233946325521,274.71666381131564,0.009237604307034237,Sam,REC_20260810_145528.csv
right,7,brick,7.2,1.008,0.015873015873015872,21804.0,1.0349810867544949,40764.234838887875,1226.5625,0.31826732634323446,0.23899593424076365,0.3843026339048966,0.1516774515436485,0.39419355326418914,0.3847791276330208,5657.0,4133.875,-1.3999999999999773,606.0234375,0.14659936197877294,3.0,-0.22580645161290322,2.774193548387097,1.4139521599177824,0.5816831872329464,9976451.694629459,9556375.0,1541823.0,2414139.0,4387760.175834866,1239117.5924575063,920585.0319100566,0.09082731093707477,0.08734994405975023,0.065204408696441,0.08067113180732363,0.0688745426506607,0.07670995736445829,0.11725151945813553,0.07050361343775513,0.08058797738199631,0.0919461159323879,0.08117383810589338,0.08889964016812313,4.2939877350784545,0.2473972059715821,0.5646975276494629,0.047619047619047616,0.47830762174550084,0.23671673865832774,0.003208820054576255,1830.0524582645153,236.323567993817,0.02771281292110207,Sam,REC_20260810_145528.csv
right,17,brick,16.928,1.024000000000001,1.0,20914.0,0.9676509747097923,36244.04164824889,1635.4166666666665,0.4243564351243126,0.2511389521640091,0.39882308276385725,0.16803194871546978,0.3754271541770938,0.4475753734001318,5268.0,4137.4,-0.8999999999999773,675.123076923077,0.1631756844692505,0.53125,0.0,0.53125,0.881503505146052,-0.8425860493963757,9542578.911929626,8862432.0,1437976.0,3232698.0,3953673.1614355864,1227118.623552132,1067490.110518103,0.09042468142385966,0.08637159717548369,0.07044929740342319,0.07533530905697,0.06672343463565004,0.07263573184199665,0.11393257006444032,0.07851084478918385,0.0743610814669934,0.09607297039017444,0.08952110392628593,0.0856613778255389,4.923335870162805,0.24172437791430768,0.5867883771768567,0.078125,0.4163963887157614,0.3025646144220128,0.0006236980358760537,2032.1873273232789,406.6837961727075,0.05619015334854892,Sam,REC_20260810_145528.csv
right,18,brick,17.968,0.9439999999999991,0.01694915254237288,23373.0,1.1536787786625156,39026.187694931206,1406.25,0.364892476062307,0.2553437319468515,0.42422491815906027,0.1679412603021289,0.3738714326432463,0.4491952196365662,5193.0,4151.65,-0.8000000000000114,675.7416666666667,0.1627646036314879,3.0,-1.206896551724138,1.793103448275862,0.7630829968017123,-0.8593159514946023,10109657.93468414,9579588.0,2052507.0,2494773.0,4319785.561506592,1217027.7213919028,1030596.0264583837,0.0882861834049916,0.08195536714318405,0.06627084010774834,0.07662013898088713,0.06505847072850554,0.07327608701761147,0.12045010216821425,0.07890437135436112,0.0769613687730581,0.09587352819561702,0.08903688894776776,0.08730665317805371,4.362366735910651,0.302458424223233,0.530839740811022,0.05084745762711865,0.45334211685355047,0.23473362817353344,0.0015432086752919054,2037.6801351864162,367.15363811554613,0.05768882040742491,Sam,REC_20260810_145528.csv
right,19,brick,18.928,0.9759999999999991,1.0,21421.0,1.006006443031887,37992.951372590156,939.7321428571429,0.24384084511465282,0.24416176191380293,0.41731535978735523,0.16136537530644432,0.3856513795849534,0.41842291729905917,5267.0,4131.677419354839,0.19999999999998863,646.0967741935484,0.15637638387907746,0.26229508196721313,0.0,0.26229508196721313,1.01892786105065,-0.5205361308419616,9854815.65039174,9431759.0,1282817.0,2552194.0,4221476.275543101,1032988.5006177376,962074.1538906499,0.08856826095782389,0.08574585031464217,0.06531362720757015,0.07930076045033649,0.06819849783732296,0.07514326759419745,0.11696413235271154,0.07540091503880327,0.07726300338845427,0.0947322808825596,0.08596446026764104,0.0874049437079371,4.510812604841537,0.31643384535610647,0.5312247648764756,0.06557377049180328,0.41351849515597544,0.2774460705889801,0.0015302072521837763,1298.3344458702977,354.52626343999736,0.04026578365477824,Sam,REC_20260810_145528.csv
right,20,brick,19.92,0.9759999999999991,1.0,22225.0,1.0668304993059778,38365.770238586374,674.1071428571429,0.17491671074732815,0.25085453854918344,0.4060007595898215,0.16523994811932555,0.37786031521440083,0.4373043197866931,5266.0,4103.709677419355,-0.19999999999998863,656.983870967742,0.16009511456982273,0.39344262295081966,0.0,0.39344262295081966,0.978016091494213,-0.4962248310589348,9819544.779207384,9293703.0,1753183.0,2641381.0,4343984.10216838,902836.1080867532,984797.9826359198,0.09105058365758754,0.08572495381833903,0.06657626852179381,0.07683056243367527,0.06527532130644971,0.07281374051802067,0.11779664347757732,0.07646110914593404,0.07721573713791612,0.09635656172621153,0.08877883897339149,0.0851196792831034,4.214622604136889,0.2519060592937064,0.4919231102961362,0.06557377049180328,0.49014866583023964,0.20559901965791388,0.0014781269484074725,981.0389051068936,370.63655039303,0.01847520861406807,Sam,REC_20260810_145528.csv
right,21,brick,20.912,0.9440000000000026,0.0,21636.0,1.0222715824584163,40338.35351126766,1687.5,0.43787097127476843,0.2529108608513075,0.41610994464592477,0.1608743258039661,0.3834827040837017,0.4195086873298735,5239.0,4109.833333333333,0.6000000000000227,639.475,0.15559633399570139,0.0,-0.7966101694915254,-0.7966101694915254,0.9837294950846148,-0.5927289771731448,10122968.020153427,9553932.0,1607797.0,2934596.0,4461538.038900955,977858.943796445,1004069.2165419501,0.08958189707611826,0.08278924530597348,0.06539600145991321,0.07822701650512998,0.06573664787704288,0.07611825297051786,0.11881665923192344,0.07464211849628939,0.08061154142503751,0.09410357273206538,0.08623220730767671,0.08774483961231194,4.517027291094649,0.29125412582277765,0.5053103811893074,0.06779661016949153,0.4204178100081417,0.26828315502096645,0.0013184701490418888,416.24552049641756,525.4646343490024,0.01847520861406599,Sam,REC_20260810_145528.csv
right,22,brick,21.872,0.9759999999999991,0.0,22306.0,1.0729582960201587,35278.29879685243,1427.0833333333333,0.37029829052248936,0.2351125635439361,0.39034132171387076,0.1570773692581158,0.3881755387158138,0.40465550657228694,5508.0,4137.677419354839,0.30000000000001137,629.4435483870968,0.15212484797455328,0.0,-0.8032786885245902,-0.8032786885245902,1.0791963824158357,-0.24043743291988529,9597847.56052413,8967501.0,2367713.0,2469117.0,4213836.634359964,868219.4808269973,900540.7425716182,0.09231842704337792,0.08755886113449964,0.06464979574016902,0.07809040446565005,0.06919886487666448,0.07459771727944615,0.11415551813390712,0.07259409985343188,0.07872969095955343,0.09433763682290204,0.08448326940468394,0.08928571428571427,4.160210730319946,0.24713315858716894,0.4917313387009414,0.06557377049180328,0.42986316184459655,0.23873760373267097,0.0015711962145681603,365.6915822565964,526.2691115468679,0.01847520861406599,Sam,REC_20260810_145528.csv
right,23,brick,22.864,0.9280000000000008,0.017241379310344827,24436.0,1.2340966540597278,39587.93271945379,1101.5625,0.2858324395821405,0.24165219069677668,0.4199961397413627,0.1626860419383552,0.3829141567823801,0.42486295963904525,5181.0,4093.9830508474574,0.19999999999998863,645.0338983050848,0.15755656295928297,9.0,-0.2982456140350877,8.701754385964913,0.8676226753137748,-0.764815845758207,10001849.751028907,9591805.0,1902234.0,2101376.0,4426918.766527421,1033935.9799196206,1029487.4022573502,0.0899708128920077,0.08507731478606471,0.06665838663603055,0.07811380902109338,0.06704754807592789,0.07491357718023557,0.11826367757560703,0.07589062079529695,0.07776190771905857,0.09304684427332383,0.08679542114305823,0.08646007990229565,3.907726151852216,0.24493267635242158,0.472394278479489,0.05172413793103448,0.41404490694661916,0.1719942110000623,0.002778500621387547,1462.0647500481405,293.5709474494072,0.024440403706430153,Sam,REC_20260810_145528.csv
right,24,brick,23.808,0.9600000000000009,0.016666666666666666,20497.0,0.9361041694034541,40257.337691407265,2171.875,0.5635561574740076,0.23664702528036494,0.4086675536970158,0.15927985004835224,0.38031128497578404,0.41881441950478165,5261.0,4119.360655737705,0.9000000000000057,636.0409836065573,0.15440283984861566,1.0,-0.6440677966101694,0.35593220338983056,0.9774067243211195,-0.6449724039121563,9888999.102223592,9303477.0,1916895.0,2750115.0,4300317.828653098,937464.2814001283,1059394.3355200274,0.09221150823182014,0.08545413302239324,0.06955559712035529,0.07763022273868697,0.06545660037965464,0.0746216387231824,0.11734671543013597,0.07442663790736267,0.07714869011186679,0.09385906614507264,0.08485321214098956,0.08743597804847959,4.502190745099156,0.2652881694081053,0.5170365639377468,0.06666666666666667,0.41586126547436597,0.2288303689314075,0.0015962981720661837,1971.678726364921,548.6722287070834,0.024440403706430486,Sam,REC_20260810_145528.csv
right,25,brick,24.784,0.9280000000000008,1.0,23163.0,1.1377918982924171,38262.96184301472,1239.5833333333333,0.3216459603808484,0.24067127344521225,0.42645607107601186,0.1573383032602609,0.37914636490518416,0.4149803817834449,5065.0,4056.0338983050847,0.19999999999998863,617.542372881356,0.15225276424327014,0.06896551724137931,0.0,0.06896551724137931,1.0259055897737175,-0.4666786744676843,9762373.754708944,9216734.0,1824043.0,2651155.0,4393714.360487269,1054041.6046139556,1035058.4585343788,0.09329059864775643,0.0847868419513092,0.06943829239551035,0.07758267657309051,0.06511328591844752,0.0744862226605267,0.11502845728899401,0.07234252379798249,0.07717733780181023,0.09466958622015327,0.08499577946227843,0.09108839728214085,4.140491028048242,0.2876311722367317,0.5028518635641017,0.05172413793103448,0.43648746498211544,0.25756340411586226,0.0023572354132873237,2010.1329143450516,582.2064853964883,0.018475208614068376,Sam,REC_20260810_145528.csv
right,26,brick,25.728,0.9439999999999991,1.0,22804.0,1.1106328980406777,39335.98263676656,1523.4375,0.39530018240083264,0.2391803906549215,0.40425124473381846,0.16355664238836906,0.3805916671052685,0.42974309877106764,5222.0,4116.616666666667,1.1999999999999886,652.6833333333333,0.15854848439454727,0.4067796610169492,0.0,0.4067796610169492,0.9507619352022172,-0.6205875078794891,10183164.515785307,9215512.0,3088534.0,3038443.0,4329375.558850231,1113746.9639489634,1131917.5796408365,0.09152337882646347,0.08692818131394309,0.06952311161674028,0.07657987748839054,0.06857168305687923,0.07370534864795929,0.11251553662595092,0.0753652878375041,0.07480657659809632,0.09449507483896566,0.08819135455086499,0.08779458859824209,4.644090159651466,0.3090031062037421,0.5448833405324178,0.05084745762711865,0.4165842985323762,0.266906713030535,0.0015249561274779204,1446.7599432294674,477.8793660671397,0.016000000000000326,Sam,REC_20260810_145528.csv
right,27,brick,26.688,0.9600000000000009,0.0,22354.0,1.0765895829618954,37948.88120880509,1078.125,0.2797508983144354,0.2372530573847601,0.40733772342427094,0.15529270120716326,0.39045830741998755,0.39771903492894434,5315.0,4112.065573770492,-6.699999999999989,618.5245901639345,0.150417005533496,0.0,-1.2666666666666666,-1.2666666666666666,0.9800935075021181,-0.5426672954969063,9642892.721687512,8829446.0,2723237.0,2758667.0,4289678.950922532,944550.0944200743,1123329.848301702,0.09200433749541533,0.08774657545168954,0.06684048541676632,0.07964566489658582,0.06900524645585163,0.07603374316286338,0.11408649476151748,0.07214275462852221,0.07802707745299717,0.09139437720263438,0.08314994657864103,0.08992329649651565,4.55298882267103,0.29855746410155143,0.5357312624789483,0.08333333333333333,0.44126517509697366,0.22415309433255207,0.0014392605891214603,405.35211031069053,225.4422335444477,0.016000000000000326,Sam,REC_20260810_145528.csv
right,28,brick,27.664,0.9439999999999991,0.03389830508474576,19688.0,0.8749018540729323,38065.22734727852,906.25,0.2351529290179312,0.23749022673964035,0.4151681000781861,0.1608128896445632,0.3788843008663266,0.4244379861523906,5116.0,4117.0,-3.3000000000000114,642.1333333333333,0.1559711764229617,12.5,-0.22807017543859648,12.271929824561404,0.8666696650321335,-0.8765280705886407,9834385.840418404,9303477.0,1424537.0,2851518.0,4467525.408224266,911332.6037182125,1088300.9142114292,0.09383045907213991,0.08527649583029713,0.06898631689741722,0.07728928831673548,0.06569508541818475,0.07404258764472511,0.11509189539308558,0.07543923568941785,0.07658084365638411,0.09411788519148248,0.08537365395514533,0.08827625293498502,4.775795101707741,0.3108511214735869,0.5603248315129483,0.05084745762711865,0.44974809041714486,0.24112311263605216,0.0016468027844390558,1684.216533980512,318.52907989629995,0.009237604307035456,Sam,REC_20260810_145528.csv
right,29,brick,28.624,0.9600000000000009,0.016666666666666666,21713.0,1.0280967719274523,40278.3929297086,2359.375,0.6122084876156485,0.23394495412844038,0.40538990825688076,0.16224918708858752,0.38289713696565947,0.42374092523715184,5232.0,4134.098360655737,1.5,650.811475409836,0.15742525180426678,11.0,-0.06779661016949153,10.932203389830509,0.8806411268792385,-0.6938961731815136,9711652.77124687,9076235.0,1970651.0,2838079.0,4305119.566102967,1050522.1014668944,1050674.8035921117,0.09134348481243558,0.08847648505036086,0.06864541200729639,0.0769965897374891,0.0686057577920533,0.0741851058767547,0.11428344833055754,0.07559283051788405,0.07463319850900152,0.09252121500515505,0.08665635657070347,0.08806011579030851,5.072906325723909,0.35093270935262016,0.5817264653658829,0.06666666666666667,0.47228761725583895,0.25939876535636947,0.0011594494256564323,1391.585546537951,794.0103739614069,0.009237604307035319,Sam,REC_20260810_145528.csv
right,30,brick,29.6,0.9279999999999973,0.0,23833.0,1.1884786118541597,39814.93967093257,840.2777777777778,0.21803451656068717,0.23947470065662418,0.4130938586326767,0.15718607791168673,0.381994799219883,0.41148748159030946,5178.0,4067.186440677966,0.8999999999999773,618.8305084745763,0.15215198946508643,0.0,-1.103448275862069,-1.103448275862069,1.008949979502413,-0.3954699630082006,9926434.7309935,9324247.0,2179567.0,2615724.0,4362134.472948895,969304.5213851053,1069129.0675903787,0.09271390708606292,0.08631711423380173,0.07049807471120668,0.07803670550582588,0.06781850610924972,0.07435698688136554,0.11650080845460153,0.07256505142438033,0.07546548648964012,0.09271390708606292,0.08462102648730643,0.08839242553049624,4.227315361850837,0.29543884668265286,0.5254085478551551,0.05172413793103448,0.4332596775452965,0.23405198190858023,0.0025436554521331457,2072.681435564406,858.6404923184489,0.01600000000000209,Sam,REC_20260810_145528.csv
right,31,brick,30.544,0.9439999999999991,1.0,23134.0,1.1355979957651179,40643.04195062176,1296.875,0.3365119501463498,0.24201001155179053,0.4073931459376203,0.15913408311919636,0.3831629088859021,0.4153170346832327,5194.0,4079.6833333333334,0.0,628.875,0.1541479935125684,1.2372881355932204,0.0,1.2372881355932204,1.085975367186529,-0.3205556599421491,9977649.435598247,9421985.0,1447750.0,2946813.0,4462408.417842412,1096522.6764583348,1186275.6493485232,0.09284625849228495,0.0869144255477345,0.06877576282472904,0.07753052728765714,0.06822016414672707,0.07452784325580826,0.11431034271450807,0.07370261580759944,0.07596994864797513,0.09345905115184594,0.0854314673115969,0.08831159281153358,4.469319528910825,0.30607955175449747,0.5421130764572111,0.1016949152542373,0.44848327168063606,0.23736222984913982,0.002865891358888287,1080.2964099418848,779.4275296549728,0.01600000000000209,Sam,REC_20260810_145528.csv
right,32,brick,31.504,0.9439999999999991,1.0,24790.0,1.2608773952550365,40009.82955474817,1953.125,0.5067951056420931,0.2474884080370943,0.4142194744976816,0.16599700367877174,0.3771568868949309,0.44012719758424795,5176.0,4127.283333333334,-0.8999999999999773,664.0,0.16088064384562886,0.4745762711864407,0.0,0.4745762711864407,0.887847626443619,-0.7536660181772299,10279919.92607243,9755517.0,1409876.0,2918714.0,4518241.948021539,922575.9520104721,1189787.8184227988,0.09062458356384546,0.0855566817559573,0.06927074710160436,0.076495031033327,0.0672758917286189,0.07366427472469785,0.11612965752290651,0.0764344585017586,0.07416500765232982,0.09591458465415102,0.08956254517701312,0.08490653658378998,4.511676318103915,0.2922205673242627,0.5357849238289218,0.05084745762711865,0.4408418998009394,0.2236966270304521,0.001920974815971211,831.3428895467816,559.4005758918447,0.009237604307035657,Sam,REC_20260810_145528.csv
right,33,brick,32.464,0.9280000000000044,0.0,22895.0,1.1175172128677202,39880.8188732378,1312.5,0.34056631099148654,0.23869767441860465,0.40651162790697676,0.1611849931496173,0.3846223265048281,0.41907341836925976,5375.0,4131.8983050847455,-0.5,644.9152542372881,0.15608207332780927,0.0,-1.3448275862068966,-1.3448275862068966,0.915191167751972,-0.6433834522055335,10117822.293092027,9459859.0,2130697.0,2888170.0,4445739.427005367,1023627.4676866372,1025625.3465161958,0.09186486286928486,0.08542468270832138,0.06644461034859014,0.07829946427545922,0.06937345661287544,0.074911191146188,0.11554175451838118,0.07496451747873101,0.07661353176198407,0.0933662042316496,0.08622047567088628,0.08697524837764888,4.390133095495774,0.26341011656339974,0.5089187524127772,0.05172413793103448,0.42781693463310283,0.22710828856823884,0.0016495288790854346,1032.027292920747,374.45707225038933,0.009237604307031539,Sam,REC_20260810_145528.csv
right,34,brick,33.408,0.9439999999999955,1.0,7891.0,-0.01756256367016485,40606.17375473833,995.8333333333334,0.2583979311967152,0.24904361132364192,0.41009946442234124,0.15645968512134836,0.38098595301823607,0.41067048242001286,5228.0,4066.116666666667,-1.8000000000000114,615.1916666666667,0.15129710165719135,1.4406779661016949,0.0,1.4406779661016949,1.127919555108647,-0.3028294299585417,9515585.231598422,9095783.0,840550.0,2665815.0,4389691.193206847,1051201.116157343,1049318.4139404981,0.09197145515582024,0.08381051535658511,0.06892735492915025,0.07840814536392217,0.06678772129017449,0.07472322076346391,0.1206597613611677,0.07358372238868371,0.07725635024409039,0.09241003906266011,0.08287596273266466,0.08858575135161723,4.3926116385243335,0.23766926339180097,0.49385165487240945,0.05084745762711865,0.4605708629883364,0.1780025199962481,0.002276235837035851,9258.214748715505,487.69620042813233,0.00923760430703052,Sam,REC_20260810_145528.csv
right,35,brick,34.368,0.9279999999999973,0.0,24833.0,1.2641304231403423,41556.98991746154,906.25,0.2351529290179312,0.23954302561267735,0.3957987838584853,0.15992707578850332,0.38150227167972606,0.4192034691805492,5427.0,4118.5084745762715,-0.19999999999998863,637.1694915254237,0.154708796997432,0.0,-1.103448275862069,-1.103448275862069,1.046029120249502,-0.41287782069331413,9701000.2156339,9147096.0,1237612.0,2984687.0,4396364.5542815095,1030067.7331308513,1108202.2373710095,0.09305244617106737,0.08356653716994797,0.0665289392243366,0.07948409824191742,0.06733143477974583,0.07479258576414037,0.11714377428063474,0.07453743333113846,0.07632761572397445,0.0937191347863304,0.08538964245736484,0.08812635806940146,4.925700265024436,0.32622607298084605,0.5552499843185167,0.10344827586206896,0.44217555521512913,0.24900405043105497,0.0015976905984615658,9272.784766904348,213.44086374172826,0.009237604307031674,Sam,REC_20260810_145528.csv
right,36,brick,35.312,0.9440000000000026,1.0,22833.0,1.112826800567977,37083.72792748863,986.1111111111111,0.2558752177819634,0.2484270734032412,0.4026692087702574,0.1604779621742465,0.37890618625675165,0.4235295384314494,5245.0,4085.4,2.5999999999999943,634.45,0.15529691095119205,1.11864406779661,0.0,1.11864406779661,1.0869037297292599,-0.2641437513202285,9688572.484234095,8907636.0,2062281.0,3204599.0,4192326.3787889066,1208177.8795237243,1190888.4599279538,0.09289992004046932,0.08496516049020088,0.06659486627176449,0.07760969958062042,0.06638680830926387,0.07364435958943229,0.11756498751652225,0.07428893131639497,0.0763001582872342,0.09467861164145494,0.08618903085785154,0.08887746609879082,3.954254511894075,0.255162114674934,0.483650689580162,0.0847457627118644,0.4066061838738568,0.269621069569896,0.0017232390826247162,9258.282130071431,49.1553528518722,0.009237604307035633,Sam,REC_20260810_145528.csv
right,170,brick,163.36,0.9599999999999795,0.0,21048.0,0.9777883174221408,43302.5900957437,1629.1666666666667,0.42273469078625797,0.23540047007774362,0.40535165431205933,0.16025912390332567,0.3874508219960153,0.4136244261339465,5531.0,4221.0327868852455,0.6999999999999886,655.155737704918,0.1552121887658603,0.0,-0.08333333333333333,-0.08333333333333333,1.0182686876373193,-0.4712056121241126,10002366.341336684,9547823.0,2008524.0,2202780.0,4305256.02874858,1119575.9581104608,986162.1240966666,0.09040596854937996,0.08521339272884036,0.06287017006948031,0.07859159633839904,0.06755397443714732,0.07565548016762273,0.11669896653371292,0.07595064528531982,0.08043637832400587,0.09248765937945419,0.08430847861800586,0.08982728956863172,4.264684939625059,0.2645361574271279,0.5082065635183073,0.06666666666666667,0.39792251235703846,0.2637662553407825,0.002065982167355688,3427.7162951446285,361.7585258808069,0.009237604307030096,Sam,REC_20260810_145528.csv
right,171,brick,164.336,0.9439999999999884,0.0,21167.0,0.9867908829651966,39857.71757138133,713.5416666666667,0.1851491452612447,0.2432381667918858,0.41172051089406464,0.1643339922208761,0.37784145252821527,0.43492843657354,5324.0,4182.133333333333,0.0,666.4333333333333,0.1593524835809475,0.0,-1.5254237288135593,-1.5254237288135593,0.9431566600610822,-0.7108835739667674,9812562.715695273,9115331.0,2200336.0,2890614.0,4190465.070818263,1237816.2467857723,1118598.688030619,0.08922878275840082,0.0868097621628515,0.06877670088631002,0.07334773321430849,0.06668845246445194,0.0739813811133074,0.11754766307466684,0.07803832174966524,0.07701412357329593,0.09236514059809986,0.08629567047121087,0.08990626793343111,4.0426104011911175,0.2396318511767137,0.4684507100247465,0.03389830508474576,0.3781366199721581,0.24953000421498323,0.002310301779680951,2508.4266649302936,482.7204417509783,0.009237604307030096,Sam,REC_20260810_145528.csv
right,172,brick,165.296,0.9759999999999991,1.0,19143.0,0.8336716169219628,38527.9697362838,1302.0833333333333,0.3378634037613954,0.23793299261783077,0.4077228847245883,0.15869600804471365,0.3781093363890773,0.4197093083184618,5283.0,4138.1612903225805,1.3999999999999773,636.7822580645161,0.15388048299462906,0.7049180327868853,0.0,0.7049180327868853,1.0258686781513287,-0.5462275112666841,9494527.166238505,9022479.0,1303586.0,2653598.0,4289449.81670083,982363.528054122,1077264.3091756764,0.09115003546845646,0.08456693404426152,0.0735327362160224,0.07477997864097347,0.06474747238527319,0.07480336443644131,0.11735771692274112,0.07522041112228432,0.0792115868821278,0.09148133423758409,0.08347559692242933,0.08967283272140501,4.1997328126375475,0.2748716608491644,0.49407265621793395,0.06557377049180328,0.4012425825245534,0.2510917920989128,0.0013471896295023354,1135.764206749512,463.9924462338128,0.016000000000006048,Sam,REC_20260810_145528.csv
right,173,brick,166.288,0.9919999999999902,0.0,16649.0,0.6449959995742232,36491.41292139837,1812.5,0.4703058580358624,0.23538175046554935,0.4171322160148976,0.16126942273283737,0.3823975892268575,0.42173232069479427,5370.0,4213.888888888889,-2.1000000000000227,659.6190476190476,0.15653451360768433,0.0,-0.22580645161290322,-0.22580645161290322,0.9009247771647106,-0.7545492504594771,8829490.73433168,8466592.0,1782504.0,1760513.0,4183987.0352602196,1042523.793228058,869659.9510592245,0.08956775590921934,0.08421885299934082,0.06863546473302572,0.07624823429701479,0.06565589980224128,0.07635370562199831,0.1174950560316414,0.07689236274602129,0.07992089650626236,0.09255485450607402,0.08437705998681609,0.08807985686034467,4.011215045140099,0.15255998579168986,0.4929079387996966,0.0967741935483871,0.41396764889723653,0.21418081762937355,0.0012391070179337996,2263.070775148953,549.9417977411597,0.024440403706433567,Sam,REC_20260810_145528.csv
right,174,brick,167.296,0.9120000000000061,1.0,25470.0,1.3123206269296406,42316.17067977678,281.25,0.07297849521246141,0.26150262085032033,0.42147155892059796,0.16738612651834725,0.3743281966769563,0.44716408756857406,5151.0,4205.741379310345,1.1999999999999886,681.4741379310345,0.16203424710883726,1.456140350877193,0.0,1.456140350877193,0.8704634362774041,-0.8014046822547503,10417517.694284134,9909455.0,1897347.0,2593733.0,4704783.089530135,1295636.364048587,977995.0909991114,0.09056175261239766,0.0830432946751772,0.06822365157645746,0.0754838418746131,0.06315668646718567,0.07495500813748036,0.11714282200440283,0.0783329848769949,0.07768936552250003,0.09464484100142252,0.08905314164135233,0.08771260961001585,4.264450858508555,0.2496293556577212,0.5028351830874968,0.05263157894736842,0.42974967302747374,0.18994254442040476,0.0025140616696561423,4547.17872238747,779.6743369890148,0.04233202097702638,Sam,REC_20260810_145528.csv
right,175,brick,168.224,0.9279999999999973,0.0,26465.0,1.3875941791593924,40954.491731677,1526.0416666666665,0.3959759092083554,0.25213516524322316,0.409023393984404,0.16592429401161626,0.3794912878029241,0.4372282035040554,5386.0,4231.35593220339,0.0,679.5847457627119,0.1606068495894252,0.0,-1.0517241379310345,-1.0517241379310345,0.9853534237334052,-0.5937760666909027,10317763.633023292,9821491.0,1243721.0,2906496.0,4552727.331961726,1041116.8390616146,1052346.384584069,0.08824354095734027,0.0843260564790707,0.06707790907270178,0.07667534548367715,0.06549569397156019,0.07540957340276387,0.11779691568195474,0.07757660725015021,0.07758461846585218,0.09492489485279391,0.08834768676146605,0.08654115762066894,4.791458440454147,0.2817469259452693,0.5418505887442653,0.06896551724137931,0.4258825932605059,0.25237517662930625,0.001293854626287885,5402.991794675747,814.0732187216427,0.04233202097702638,Sam,REC_20260810_145528.csv
right,176,brick,169.168,0.9120000000000061,1.0,23603.0,1.1710786952583376,40679.3192298003,1697.9166666666667,0.44057387850485963,0.25070001866716446,0.4121709912264327,0.16726471128528567,0.3847814993978732,0.43470050287482004,5357.0,4223.5344827586205,4.100000000000023,683.6896551724138,0.16187618639397466,0.8070175438596491,0.0,0.8070175438596491,1.1133297860463593,-0.27229757853308056,9868681.646470312,9425650.0,1121548.0,2700024.0,4615021.3084332505,1104127.6479514625,1054731.5846739726,0.08940460882166841,0.0864286734839671,0.06418467944400222,0.07852550364337763,0.06734431449390729,0.07564754148551835,0.11488580001224666,0.0776396628089727,0.07683546629110281,0.09193558263425387,0.08962504847631295,0.08754311840467006,4.192757409336539,0.2723487835837742,0.49621342888442244,0.05263157894736842,0.43877776993933704,0.21311507336792634,0.0015767577137643764,1452.9715528301147,773.0881529588789,0.009237604307030113,Sam,REC_20260810_145528.csv
right,177,brick,170.096,0.9120000000000061,0.0,25929.0,1.3470448083099986,42552.11838440009,677.0833333333333,0.1756889699559256,0.2501392757660167,0.40798514391829155,0.16464445854916976,0.373542720255523,0.4407647361898514,5385.0,4210.431034482759,-2.5,670.6465517241379,0.15928216047992463,0.0,-1.3157894736842106,-1.3157894736842106,0.9544805643182993,-0.6389325346300012,10324024.581411699,9777509.0,1593136.0,2906496.0,4658388.524272925,1045431.7305980212,1019735.8616601287,0.09215208533813803,0.08207448659937347,0.0647980180585983,0.07754140988104256,0.06206670625089576,0.07440879588870006,0.11955119674044347,0.07666100202698552,0.07745132163551115,0.09750005118650314,0.08798345652218421,0.08781146987162423,4.758125177189287,0.28065636448423026,0.5333230422076783,0.05263157894736842,0.42229579693297664,0.2471687598554379,0.001482705926844835,1521.4366018121036,546.5607562759393,0.009237604307030113,Sam,REC_20260810_145528.csv
right,178,brick,171.024,0.8959999999999866,0.0,25436.0,1.3097484653459104,43143.85389600702,1346.875,0.3494859048507874,0.2380242311276794,0.4177073625349487,0.16466675280397788,0.38040320597515076,0.4328742508406505,5365.0,4209.245614035088,0.0,671.0350877192982,0.15941932337752732,0.0,-0.6428571428571429,-0.6428571428571429,0.9647165113581457,-0.5939303935449987,10210209.156312617,9788504.0,1372003.0,2559525.0,4677223.151754599,1060117.8375946167,970661.505810167,0.0905108637210485,0.08601366248900706,0.06741633913648735,0.07711512251643209,0.06480721219370891,0.07455601078661427,0.11611865275688023,0.07657745897710554,0.07791119798938845,0.09401192862829111,0.08808929382687233,0.0868722569781642,4.609613778831417,0.2775469261087659,0.5122074178386891,0.05357142857142857,0.4250193747370915,0.253146043445717,0.0011964479667525723,1225.643640432873,518.6443583864688,0.00923760430704654,Sam,REC_20260810_145528.csv
right,179,brick,171.936,0.8959999999999866,1.0,23230.0,1.1428605696485914,41245.59725594964,1416.6666666666667,0.3675953832923982,0.23965223965223964,0.4091854091854092,0.1612035306680905,0.3804520122805847,0.42371580505428263,5291.0,4205.754385964912,3.6999999999999886,655.9473684210526,0.1559642594940933,0.42857142857142855,0.0,0.42857142857142855,1.0659180514118198,-0.29619656230124436,10159123.899230927,9706648.0,1670105.0,2489886.0,4640882.668283391,1058218.4786893795,1024270.4227795607,0.09213775612360675,0.0867858573049456,0.06795618367483149,0.07858906760995796,0.06511546419275178,0.07391710605352733,0.11704515117132751,0.07430921711272777,0.076044517119402,0.09401905492891945,0.08689431355536274,0.08718631115263965,4.318394708950276,0.28063441330469907,0.5059916343100346,0.05357142857142857,0.414941781822713,0.21714093941051058,0.0018169895701719181,1437.2477169925191,408.3452910664106,0.00923760430704654,Sam,REC_20260810_145528.csv
right,180,brick,172.848,0.8959999999999866,0.017857142857142856,27231.0,1.4455434666046083,42714.00634452357,2046.875,0.5311212707129136,0.24014336917562723,0.4225617807960762,0.16149701775138034,0.3853307641829224,0.4191127020281604,5301.0,4197.350877192983,1.1999999999999886,655.8947368421053,0.15626397602497816,2.0,-0.7272727272727273,1.2727272727272727,0.9761843007905956,-0.5400556600616384,10166126.817815475,9729861.0,1109331.0,2729345.0,4656201.344042311,1032013.9247905951,1029404.4200936242,0.09073392156289055,0.085149781190308,0.06391667258797319,0.07973701039502777,0.06560946963205698,0.07708705156552378,0.11700780358538593,0.07549456842034867,0.07774745140000584,0.09291992860994193,0.08600244933103168,0.08859389171950562,4.664461008814142,0.304952175346982,0.5557697605565542,0.05357142857142857,0.41753183977746544,0.22461786158335414,0.002152563103232091,2004.0152195031424,385.58038939994884,0.0,Sam,REC_20260810_145528.csv
right,181,brick,173.76,0.9440000000000168,0.0,23953.0,1.1975568292085015,40427.066811729,1323.4375,0.3434043635830823,0.23050974512743627,0.41098200899550225,0.16135987325638185,0.37937716153061185,0.425328379297446,5336.0,4197.45,0.30000000000001137,656.95,0.1565116916222945,0.0,-0.3050847457627119,-0.3050847457627119,0.8090370852223939,-0.9421977776334152,9772260.670899544,9373116.0,1091005.0,2539977.0,4395250.6102493005,1084021.0056197266,985137.3493595527,0.09139279006698511,0.08412647361294755,0.06864485183464564,0.07858739631601727,0.06471786441768217,0.07510512334869981,0.11712666817551927,0.07572057638169206,0.07684030383526508,0.09412857806525392,0.08563929687468978,0.08797007707060239,4.9384673768645095,0.30174618461512537,0.5614610561133776,0.0847457627118644,0.42253778414295623,0.3001795986196451,0.0010142097409457484,2132.1356273308556,393.5344197835807,0.027712812921119892,Sam,REC_20260810_145528.csv
right,182,brick,174.72,0.896000000000015,0.03571428571428571,23354.0,1.152241394248078,41436.28590981581,882.8125,0.2290713877502261,0.23587976258855065,0.4150871146850469,0.16430479997658345,0.3800047669425081,0.43237562859662354,5223.0,4195.561403508772,-0.10000000000002274,668.061403508772,0.1592305151224979,6.5,-0.4444444444444444,6.055555555555555,0.8045520751929145,-0.8549287305701632,9804208.263572384,9450085.0,1186300.0,2326174.0,4562073.821857582,952870.1979963328,1013068.086043886,0.09177618786771316,0.08477212760352419,0.06548273655952197,0.07942813416016091,0.06514403274973134,0.0750626183895261,0.11566107875072654,0.07633380305836995,0.07559785403956562,0.09419311134992285,0.08797099691821347,0.08857731855302388,4.660823260054017,0.30845264281179363,0.5360279733887987,0.05357142857142857,0.43798373464490026,0.25651891790769077,0.0013076622693578557,2087.071872265114,587.7292050677628,0.02771281292111168,Sam,REC_20260810_145528.csv
right,183,brick,175.632,0.9279999999999973,1.0,23886.0,1.1924881578523272,41621.9016144145,2312.5,0.6000454050802383,0.23468606431852987,0.42323889739663095,0.1574575142844307,0.3865393490628842,0.40735183795923596,5224.0,4149.949152542373,0.19999999999998863,632.771186440678,0.1524768528918059,0.22413793103448276,0.0,0.22413793103448276,0.9728521757214273,-0.6341808780882578,10198420.63835151,9419541.0,2254092.0,3193603.0,4562402.79513735,1033802.2787293303,1087929.358809337,0.09367890968645726,0.08472638014760238,0.06283107409933551,0.08056051330014255,0.06603307371542229,0.07699093719751518,0.11724056247370808,0.07324574121798512,0.07822844470220178,0.09253942257818147,0.08421177306644557,0.08971316781500284,4.321861679850652,0.25597931643129784,0.4974092538818307,0.05172413793103448,0.40177471173546625,0.1772555730388158,0.0017499155452474291,328.20572816475783,732.1658927669679,0.02444040370643044,Sam,REC_20260810_145528.csv
right,184,brick,176.576,0.9120000000000061,0.0,22746.0,1.106245092986079,40693.30645204442,1601.5625,0.41557198662651634,0.23539453717754172,0.4178679817905918,0.16183383337557125,0.3849235221503724,0.4204311351807966,5272.0,4218.0344827586205,-0.10000000000002274,661.5172413793103,0.1568306859707496,0.0,-0.5964912280701754,-0.5964912280701754,0.9306104757241703,-0.6016298217663674,9934631.470159374,9305921.0,1975538.0,2862514.0,4642070.116672198,1048196.6287303373,1146563.0543306062,0.09146685414844306,0.08812733500649919,0.06598105017045038,0.07821096604890332,0.06677812022268911,0.07512896184691349,0.11458188566336668,0.07460575688954653,0.07667813902536727,0.09295880578468482,0.08722807648602471,0.08825404870711151,4.7704985860809455,0.3103885953784641,0.561534525375406,0.08771929824561403,0.4378570449791351,0.22672540386497042,0.0016956360268870743,570.4220659594746,714.8473075958842,0.01599999999999182,Sam,REC_20260810_145528.csv
right,185,brick,177.504,0.9440000000000168,1.0,22617.0,1.0964860093301614,40495.782669310145,947.65625,0.24589698525754358,0.23262331838565023,0.4020926756352765,0.16057113434727502,0.3813173320659062,0.4210958192674602,5352.0,4208.0,2.3999999999999773,655.2083333333334,0.15570540240811154,0.559322033898305,0.0,0.559322033898305,0.9921620427456891,-0.4694370012704998,10101600.05865947,9363342.0,2691472.0,2669481.0,4419633.62575776,1051131.8526459462,1004142.9701391645,0.09180529150823828,0.08679895437262357,0.06806875792141952,0.07712690114068442,0.06608048162230672,0.07422370088719898,0.11469027249683143,0.07399001901140685,0.07708729404309252,0.09340541825095057,0.08658111533586818,0.09014179340937896,4.444868577282864,0.2931646333608576,0.5370342111292378,0.05084745762711865,0.4325540858707921,0.23087911242990247,0.0017526797400215495,698.4031786870183,682.6204380436445,0.016000000000006044,Sam,REC_20260810_145528.csv
right,186,brick,178.464,0.9439999999999884,0.0,25388.0,1.3061171784041736,42243.023352975106,1345.8333333333335,0.34921561412777835,0.23759398496240602,0.4424812030075188,0.16008448728356045,0.385445646776952,0.41532311655889387,5320.0,4229.433333333333,1.1000000000000227,656.25,0.1551626301395774,0.0,-0.5084745762711864,-0.5084745762711864,0.8631058066258563,-0.6785374875536356,10411176.440593109,9966877.0,1367116.0,2680476.0,4615460.890465785,857406.403702321,999488.6795243704,0.08887321390572417,0.0838843659119031,0.06535154433612067,0.07832412537534579,0.06499294625757587,0.07725227177793716,0.12063475800540654,0.0755380941497285,0.08099193745419009,0.09166318576956724,0.08454639313383194,0.08794716392266891,4.085454144876894,0.2650494373665659,0.4988803593923175,0.05084745762711865,0.4328204783632309,0.20123277945756476,0.002366267941400294,1563.929133091869,329.52890115156185,0.018475208614066596,Sam,REC_20260810_145528.csv
right,187,brick,179.424,0.9439999999999884,0.03389830508474576,24790.0,1.2608773952550365,40423.85804200287,1686.1979166666667,0.4375331078710071,0.23492957746478874,0.4112676056338028,0.16036742706074184,0.38315075432569773,0.4185491617858644,5325.0,4211.266666666666,0.39999999999997726,654.7416666666667,0.1554738083553642,9.0,-0.19298245614035087,8.807017543859649,0.900003388400721,-0.7246136476050324,9542375.355163148,9153204.0,575435.0,2635272.0,4468953.430222634,882435.1803847204,1013287.0594052194,0.09156390001424751,0.08465386502873246,0.06677721667273503,0.07851161170827463,0.06563741708749546,0.0758045876933306,0.116208108407605,0.0740869730405737,0.07854327280786462,0.09373268533616173,0.08628045402016814,0.08819990818281119,4.730910736587483,0.28580064104632996,0.5342715451162581,0.0847457627118644,0.4262422065643626,0.20765071056068854,0.0015868792947057175,1458.1937457005433,369.647767629829,4.731677806221882e-09,Sam,REC_20260810_145528.csv
