sole_id,timestamp,accel_x,accel_y,accel_z,gyro_x,gyro_y,gyro_z,magn_x,magn_y,magn_z,pressure_01,pressure_02,pressure_03,pressure_04,pressure_05,pressure_06,pressure_07,pressure_08,pressure_09,pressure_10,pressure_11,pressure_12,corrupt,grass,transition,brick,dirt,asphalt
1,1791322968576,-15616,43919,15888,4541172,1367116,1240056,0,0,0,193,209,112,309,213,302,346,281,151,387,412,220,0,,,,,
2,1791322968576,3512,-2282,17037,5308418,188146,-753807,0,0,0,421,271,152,306,308,399,199,126,232,173,107,582,0,,,,,
1,1791322968592,-5565,18367,12457,5297423,2160019,1265712,0,0,0,203,211,119,323,217,316,347,290,148,407,432,238,0,,,,,
2,1791322968592,5211,-3752,18918,6029239,23212,-1059240,0,0,0,408,241,148,301,255,377,190,118,235,166,100,538,0,,,,,
1,1791322968608,717,-8882,18344,5428148,2012190,74525,0,0,0,213,212,126,324,213,323,399,339,176,425,438,257,0,,,,,
2,1791322968608,4953,-6494,24465,6690196,57421,-1341460,0,0,0,384,215,147,359,217,314,184,111,211,124,72,473,0,,,,,
1,1791322968624,2067,-6393,19621,4095240,792903,-168598,0,0,0,211,197,133,306,193,323,434,390,208,415,419,275,0,,,,,
2,1791322968624,4125,-8088,30964,7294952,335975,-1417207,0,0,0,318,158,137,214,153,268,190,123,181,124,55,403,0,,,,,
1,1791322968640,-52,2215,14457,2776993,-4886,488692,0,0,0,235,201,145,325,214,331,414,324,175,431,416,294,0,,,,,
2,1791322968640,4685,-6274,32897,7858170,822224,-1403768,0,0,0,252,108,116,187,113,235,194,108,165,118,51,281,0,,,,,
1,1791322968656,-2675,2608,10490,1971872,13439,728151,0,0,0,255,222,172,315,206,341,416,327,184,438,442,335,0,,,,,
2,1791322968656,7006,-1119,31457,8310210,1094670,-1799608,0,0,0,162,90,98,157,78,196,198,126,146,87,51,146,0,,,,,
1,1791322968672,-2254,-880,11045,1236391,353080,259006,0,0,0,293,241,205,339,222,346,433,365,220,449,431,351,0,,,,,
2,1791322968672,8332,6116,27700,8168489,615752,-2493551,0,0,0,157,89,97,165,84,199,191,113,149,77,36,141,0,,,,,
1,1791322968688,-1287,-1359,11375,637743,472809,-18325,0,0,0,298,257,245,321,227,353,435,364,231,443,418,385,0,,,,,
2,1791322968688,8078,12495,17918,6750060,-390953,-2954144,0,0,0,162,90,98,166,82,202,191,112,148,74,42,142,0,,,,,
1,1791322968704,-952,-114,10768,388510,356745,-24434,0,0,0,313,284,243,321,242,352,424,336,209,443,417,400,0,,,,,
2,1791322968704,7236,15252,8097,2891836,-695164,-2271196,0,0,0,165,88,98,163,78,199,197,109,147,90,54,150,0,,,,,
1,1791322968720,-947,483,10198,312763,217468,15882,0,0,0,318,293,247,322,246,353,428,344,217,449,398,409,0,,,,,
2,1791322968720,5896,14041,8327,-1748296,-535117,-1064127,0,0,0,167,89,101,163,79,198,200,113,150,100,55,156,0,,,,,
1,1791322968736,-894,301,10174,295658,114842,23212,0,0,0,320,310,254,325,256,361,427,325,222,459,379,417,0,x,,,,
2,1791322968736,5053,9648,11031,-3468492,-574213,-419053,0,0,0,169,93,104,166,81,200,200,117,148,102,60,158,0,x,,,,
1,1791322968752,-847,263,10279,284663,-3665,23212,0,0,0,329,324,253,337,264,368,399,256,187,455,366,429,0,,,,,
2,1791322968752,4771,7547,8485,-3641978,-685390,-289550,0,0,0,167,92,102,165,80,200,202,114,146,102,67,158,0,,,,,
1,1791322968768,-856,344,10275,298102,-134390,34208,0,0,0,346,311,257,349,259,372,390,219,170,445,347,439,0,,,,,
2,1791322968768,4522,7915,4541,-3816686,-519235,-315206,0,0,0,167,91,101,161,83,199,207,120,149,103,66,159,0,,,,,
1,1791322968784,-899,354,10169,340862,-235793,39095,0,0,0,355,299,260,355,258,377,408,244,204,440,327,446,0,,,,,
2,1791322968784,3723,7896,4886,-4845383,-50090,-134390,0,0,0,167,91,100,162,83,199,210,124,152,105,66,160,0,,,,,
1,1791322968800,-985,291,10088,381179,-305432,36651,0,0,0,354,306,264,356,263,382,417,258,238,431,309,453,0,,,,,
2,1791322968800,2732,6661,6566,-5767789,239459,111177,0,0,0,165,88,99,166,79,202,211,119,150,109,68,161,0,,,,,
1,1791322968816,-1148,196,10083,409279,-342084,35430,0,0,0,359,310,279,352,264,388,408,224,230,410,286,459,0,,,,,
2,1791322968816,2780,5427,6963,-5982814,184481,282219,0,0,0,167,88,102,166,82,204,214,127,149,110,61,161,0,,,,,
1,1791322968832,-1306,124,10083,427605,-326202,50090,0,0,0,372,320,286,364,275,395,397,188,209,400,269,458,0,,,,,
2,1791322968832,3522,4771,7059,-6042678,285884,421497,0,0,0,166,90,105,168,76,202,212,121,151,105,50,156,0,,,,,
1,1791322968848,-1392,33,10021,432492,-276111,69638,0,0,0,387,338,289,381,280,393,402,180,221,405,258,456,0,,,,,
2,1791322968848,4091,4340,7920,-6123313,696386,588874,0,0,0,169,91,104,167,81,203,209,109,152,103,48,157,0,,,,,
1,1791322968864,-1311,-43,9978,415388,-210137,80634,0,0,0,404,331,296,391,280,394,432,216,279,375,231,457,0,,,,,
2,1791322968864,3924,3823,9629,-6218608,1105666,817337,0,0,0,166,88,102,165,80,203,199,105,143,107,56,160,0,,,,,
1,1791322968880,-1234,-86,10035,405614,-173485,81855,0,0,0,402,339,300,385,279,407,397,154,239,367,215,456,0,,,,,
2,1791322968880,4063,3412,11385,-6291911,1397659,1051909,0,0,0,161,87,96,176,84,209,223,118,160,106,53,162,0,,,,,
1,1791322968896,-1239,-124,10141,412944,-172263,84299,0,0,0,416,353,308,404,307,412,395,131,227,380,212,448,0,,,,,
2,1791322968896,4469,3158,13189,-6379876,1670105,1205847,0,0,0,168,95,103,172,84,209,213,104,151,106,62,163,0,,,,,
1,1791322968912,-1383,-191,10169,425162,-164933,103847,0,0,0,421,356,286,393,305,413,428,156,284,354,186,459,0,,,,,
2,1791322968912,4498,2890,15750,-6466619,1951103,1317025,0,0,0,164,96,105,167,84,207,221,120,159,105,63,148,0,,,,,
1,1791322968928,-1536,-268,10189,443488,-122173,139277,0,0,0,438,355,304,413,300,431,407,124,256,354,174,462,0,,,,,
2,1791322968928,4216,2517,18616,-6502049,2062281,1463633,0,0,0,160,95,103,167,88,206,221,120,165,99,49,153,0,,,,,
1,1791322968944,-1608,-373,10265,491135,-67195,193033,0,0,0,440,356,291,427,304,435,400,121,255,360,175,461,0,,,,,
2,1791322968944,4125,1679,21794,-6532592,2045176,1706757,0,0,0,160,95,106,163,82,205,213,112,156,108,65,164,0,,,,,
1,1791322968960,-1622,-464,10342,559552,-30543,252898,0,0,0,439,370,265,424,326,440,410,138,280,356,178,464,0,,,,,
2,1791322968960,4015,-794,25632,-6615670,2149023,2122145,0,0,0,159,95,110,165,83,208,214,122,159,103,55,162,0,,,,,
1,1791322968976,-1560,-545,10409,625526,-20769,309097,0,0,0,443,377,259,425,342,451,404,124,271,354,179,470,0,,,,,
2,1791322968976,3019,-5154,29538,-6695083,2310292,2528982,0,0,0,157,94,107,168,85,208,210,119,157,109,63,157,0,,,,,
1,1791322968992,-1450,-670,10533,713490,-54977,349414,0,0,0,443,376,255,436,338,458,400,114,266,357,176,475,0,,,,,
2,1791322968992,76,-13180,33270,-6654765,2229658,2647489,0,0,0,156,92,107,168,86,210,210,114,156,106,57,154,0,,,,,
1,1791322969008,-1378,-808,10605,836885,-108734,381179,0,0,0,449,382,236,446,343,463,400,118,271,358,173,480,0,,,,,
2,1791322969008,-3565,-22383,34778,-6334672,1505171,2455678,0,0,0,157,93,108,171,86,213,220,114,159,103,52,162,0,,,,,
1,1791322969024,-1186,-938,10370,949284,-144164,393397,0,0,0,457,391,219,450,376,467,396,121,269,357,181,486,0,,,,,
2,1791322969024,-2651,-31002,31686,-5555208,64751,2236988,0,0,0,155,95,106,172,84,214,229,117,165,102,50,169,0,,,,,
1,1791322969040,-1057,-990,10433,1018923,-131946,354301,0,0,0,454,400,210,451,408,472,409,145,286,360,195,488,0,,,,,
2,1791322969040,7403,-43728,20272,-4045149,-856433,1419650,0,0,0,156,100,108,170,82,214,230,119,169,99,47,173,0,,,,,
1,1791322969056,-1555,-985,11529,1154535,-64751,327423,0,0,0,465,396,213,455,394,476,397,138,276,369,193,496,0,,,,,
2,1791322969056,8212,-54199,12160,-2364048,682947,-433714,0,0,0,155,103,109,172,86,215,226,120,162,103,56,169,0,,,,,
1,1791322969072,-1847,-1043,12974,1524719,74525,376292,0,0,0,476,389,213,444,375,482,348,124,249,340,186,509,0,,,,,
2,1791322969072,-11237,-53481,15606,-212581,1744631,-1703092,0,0,0,143,95,96,181,92,212,250,150,157,130,92,147,0,,,,,
1,1791322969088,-1282,-1162,14022,2019520,189368,400727,0,0,0,485,393,213,457,367,480,357,128,276,336,175,505,0,,,,,
2,1791322969088,-20794,-40349,22177,2174680,-208915,-1174082,0,0,0,138,84,82,193,90,208,327,233,160,204,173,138,0,,,,,
1,1791322969104,-866,-1273,15027,2660928,189368,318871,0,0,0,454,385,254,436,342,463,327,115,253,336,172,507,0,,,,,
2,1791322969104,-5269,-4364,22742,4140444,-2885727,84299,0,0,0,159,93,92,193,86,219,357,281,156,259,234,181,0,,,,,
1,1791322969120,-1363,-1311,15721,3301115,133168,270002,0,0,0,483,389,213,419,334,471,258,84,210,336,169,501,0,,,,,
2,1791322969120,8892,25881,13778,4967556,-3185051,533896,0,0,0,159,94,87,205,88,241,389,334,169,286,280,202,0,,,,,
1,1791322969136,-1876,-1273,16046,3976732,69638,322536,0,0,0,476,400,214,412,341,458,232,81,220,327,161,499,0,,,,,
2,1791322969136,5685,12093,12524,5462356,-1903456,1029918,0,0,0,172,87,91,212,81,242,432,376,192,350,301,218,0,,,,,
1,1791322969152,-2431,-1273,16759,4734205,69638,453262,0,0,0,461,383,187,416,361,466,215,84,209,314,163,485,0,,,,,
2,1791322969152,-4929,-6877,21808,4852713,-1061683,1133765,0,0,0,195,93,109,207,70,240,461,381,194,383,316,254,0,,,,,
1,1791322969168,-4412,-1579,17956,5584530,230907,713490,0,0,0,442,395,179,407,379,452,237,110,235,287,162,465,0,,,,,
2,1791322969168,-5795,-6173,22067,3253468,-916297,230907,0,0,0,226,107,125,218,81,228,459,381,190,366,317,259,0,,,,,
1,1791322969184,-6144,-2727,21167,6514266,680503,1182635,0,0,0,419,371,171,385,358,408,241,110,219,263,151,445,0,,,,,
2,1791322969184,918,1742,13984,1569923,-658512,-557109,0,0,0,230,101,141,210,60,246,460,371,187,361,319,269,0,,,,,
1,1791322969200,-5072,-5135,28236,7308391,1475850,1467298,0,0,0,384,332,170,345,316,365,229,96,175,237,138,420,0,,,,,
2,1791322969200,2330,2187,9686,1056796,-326202,-211359,0,0,0,248,104,161,209,61,246,473,379,201,350,320,281,0,,,,,
1,1791322969216,-4838,-6135,33577,7966904,1963320,1502728,0,0,0,323,288,168,297,269,323,267,108,170,206,123,385,0,,,,,
2,1791322969216,995,373,9763,896750,-270002,42760,0,0,0,263,110,189,205,70,246,483,371,207,348,307,293,0,,,,,
1,1791322969232,-5963,-2991,33529,8585100,1981646,1576032,0,0,0,247,236,172,261,224,288,321,132,190,194,119,304,0,,,,,
2,1791322969232,172,-464,11074,671951,-349414,40317,0,0,0,269,112,204,213,74,253,482,346,206,345,306,302,0,,,,,
1,1791322969248,-8255,2148,29882,8938180,2448347,1756848,0,0,0,208,211,180,254,209,274,320,134,184,202,133,226,0,,,,,
2,1791322969248,512,469,10600,419053,-311541,-17104,0,0,0,279,118,215,218,81,257,484,339,203,352,310,312,0,,,,,
1,1791322969264,-11251,6661,21560,8222246,2863736,1837482,0,0,0,224,228,166,268,232,271,303,136,168,205,140,231,0,,,,,
2,1791322969264,612,842,10054,339641,-238237,-12217,0,0,0,290,138,222,226,88,262,486,321,203,358,308,327,0,,,,,
1,1791322969280,-10772,8758,12873,5459913,1562593,1496619,0,0,0,223,231,157,267,239,264,293,132,158,199,138,228,0,,,,,
2,1791322969280,430,713,10107,344527,-160046,1221,0,0,0,300,141,233,225,85,263,489,290,210,347,285,344,0,,,,,
1,1791322969296,-6968,10782,9600,1010371,-81855,796568,0,0,0,227,233,156,270,242,263,319,142,170,202,140,228,0,,,,,
2,1791322969296,349,708,10260,360410,-79412,-6108,0,0,0,306,123,254,220,82,265,495,270,219,334,251,355,0,,,,,
1,1791322969312,-4422,9203,10547,-2298075,-223576,83077,0,0,0,221,206,159,255,197,262,321,134,173,205,126,228,0,,,,,
2,1791322969312,402,756,10227,409279,-9773,-25656,0,0,0,310,123,272,233,93,276,499,247,218,330,227,368,0,,,,,
1,1791322969328,-4584,7001,8533,-3246137,41538,-232128,0,0,0,223,201,156,262,193,262,309,124,162,207,124,229,0,,,,,
2,1791322969328,478,684,10155,475253,36651,-40317,0,0,0,321,132,272,235,95,284,506,221,218,315,202,382,0,,,,,
1,1791322969344,-4838,6288,5364,-3214372,-47647,-233350,0,0,0,231,203,161,279,195,270,321,127,170,208,124,229,0,,,,,
2,1791322969344,569,516,10141,537561,53756,-58643,0,0,0,322,129,242,242,106,295,481,204,221,295,184,388,0,,,,,
1,1791322969360,-3522,7197,4536,-3734830,-410501,-207694,0,0,0,223,201,157,266,192,270,349,141,187,211,129,231,0,,,,,
2,1791322969360,650,382,10141,570548,43982,-78190,0,0,0,331,130,252,246,109,297,480,203,220,287,177,415,0,,,,,
1,1791322969376,-2215,7796,5364,-4667010,-568104,-289550,0,0,0,217,209,153,261,208,268,348,148,185,211,135,232,0,,,,,
2,1791322969376,674,248,10088,590095,17104,-98960,0,0,0,339,147,250,253,121,313,490,192,244,270,154,430,0,,,,,
1,1791322969392,-1876,6929,6259,-5407379,-481361,-382401,0,0,0,217,206,155,264,200,270,354,146,188,213,131,232,0,,,,,
2,1791322969392,588,143,10050,588874,0,-105068,0,0,0,349,141,248,262,115,317,464,168,231,264,139,454,0,,,,,
1,1791322969408,-2043,5786,6767,-5814215,-486248,-405614,0,0,0,219,203,160,269,195,274,325,129,173,215,131,232,0,,,,,
2,1791322969408,497,67,10107,583987,21991,-96516,0,0,0,360,151,249,267,132,324,454,152,239,285,135,455,0,,,,,
1,1791322969424,-2206,4943,7456,-6013357,-756251,-381179,0,0,0,219,202,161,272,197,277,317,126,169,216,131,232,0,,,,,
2,1791322969424,574,23,10198,594982,72082,-92851,0,0,0,366,154,247,276,148,328,448,137,247,231,109,484,0,,,,,
1,1791322969440,-1450,4154,8681,-6195395,-1087340,-400727,0,0,0,224,205,166,270,194,277,331,132,177,215,129,231,0,,,,,
2,1791322969440,751,-19,10275,625526,118507,-111177,0,0,0,370,159,233,283,160,331,437,125,248,208,74,489,0,,,,,
1,1791322969456,-1110,3713,10136,-6449515,-1334129,-474031,0,0,0,226,210,169,267,193,277,332,134,179,215,129,232,0,,,,,
2,1791322969456,880,-167,10284,680503,149051,-155159,0,0,0,372,170,233,286,173,348,432,120,259,191,65,498,0,,,,,
1,1791322969472,-1876,3354,11902,-6715852,-1650557,-516791,0,0,0,218,210,161,270,196,282,336,138,185,216,132,235,0,,,,,
2,1791322969472,871,-306,10246,717155,171042,-195476,0,0,0,379,169,228,283,171,357,427,122,274,192,70,519,0,,,,,
1,1791322969488,-2258,2828,13610,-6787934,-1955990,-426383,0,0,0,217,215,161,269,198,285,339,138,189,214,134,237,0,,,,,
2,1791322969488,842,-397,10270,739146,191811,-221133,0,0,0,382,166,233,288,184,373,417,121,290,188,71,538,0,,,,,
1,1791322969504,-1952,2589,15328,-6745173,-2128254,-244346,0,0,0,220,220,163,268,197,285,341,140,191,212,130,237,0,,,,,
2,1791322969504,871,-488,10366,774577,202807,-243124,0,0,0,388,169,201,296,192,382,397,115,288,179,54,550,0,,,,,
1,1791322969520,-1512,2756,18018,-6817256,-2206445,-96516,0,0,0,216,218,163,276,204,286,340,141,192,215,134,238,0,,,,,
2,1791322969520,928,-598,10528,829554,191811,-260228,0,0,0,403,178,152,310,203,375,396,114,281,186,76,563,0,,,,,
1,1791322969536,-1196,2512,21536,-6963863,-2221106,-133168,0,0,0,223,221,164,293,209,293,337,140,191,213,132,236,0,,,,,
2,1791322969536,1129,-760,10777,943175,164933,-294437,0,0,0,416,180,132,326,214,374,402,120,273,194,93,576,0,,,,,
1,1791322969552,-1124,229,26034,-7126353,-2277305,-592539,0,0,0,210,220,159,277,206,289,314,124,178,213,128,236,0,,,,,
2,1791322969552,1229,-918,10897,1103222,153938,-349414,0,0,0,428,185,129,331,215,380,397,130,265,192,80,588,0,,,,,
1,1791322969568,-976,-5149,30796,-7208209,-2658485,-1295034,0,0,0,212,225,159,281,210,289,280,106,163,213,131,237,0,,,,,
2,1791322969568,933,-1024,10863,1270599,158824,-387288,0,0,0,444,198,133,330,222,384,384,136,263,190,75,600,0,,,,,
1,1791322969584,1545,-14529,34974,-7128797,-3226590,-1904677,0,0,0,208,226,168,277,207,293,314,121,190,214,128,239,0,,,,,
2,1791322969584,770,-1110,11251,1462411,146607,-379958,0,0,0,467,197,135,330,227,385,369,150,275,195,79,613,0,,,,,
1,1791322969600,5398,-25494,35065,-6571688,-2482556,-2229658,0,0,0,209,227,176,273,205,302,342,133,213,214,130,244,0,,,,,
2,1791322969600,1320,-1172,12447,1725083,83077,-365297,0,0,0,481,201,139,332,227,390,367,178,302,208,88,623,0,,,,,
1,1791322969616,1962,-36439,28958,-5199684,-812450,-2288301,0,0,0,217,231,180,265,220,297,329,126,197,216,132,248,0,,,,,
2,1791322969616,1435,-1215,13610,2135584,-7330,-420275,0,0,0,493,209,147,325,217,387,339,129,265,191,74,635,0,,,,,
1,1791322969632,-5474,-46149,19506,-3477044,-682947,-1067792,0,0,0,219,234,181,278,220,304,309,116,181,223,138,255,0,,,,,
2,1791322969632,674,-1239,14319,2629163,-42760,-437379,0,0,0,493,233,146,310,224,373,303,133,255,201,91,630,0,,,,,
1,1791322969648,-382,-52179,14711,-1853365,-1649336,526565,0,0,0,198,225,157,289,218,298,309,160,167,268,215,236,0,,,,,
2,1791322969648,244,-1287,14864,3149621,0,-355523,0,0,0,506,214,155,299,208,376,267,117,257,183,82,637,0,,,,,
1,1791322969664,18032,-50720,17764,489913,-1868025,1307251,0,0,0,180,213,116,288,220,284,326,238,152,330,327,209,0,,,,,
2,1791322969664,1162,-1411,15654,3778812,40317,-309097,0,0,0,503,218,161,284,206,366,236,121,242,172,73,613,0,,,,,
1,1791322969680,13184,-21354,20622,3544240,634078,559552,0,0,0,193,216,98,297,218,298,335,282,153,359,382,222,0,,,,,
2,1791322969680,2354,-1598,16798,4554611,-14660,-383623,0,0,0,477,215,146,285,221,385,195,114,224,175,77,589,0,,,,,
1,1791322969696,-2871,16879,16319,6225938,3492927,542448,0,0,0,209,228,113,312,228,324,331,301,161,377,409,257,0,,,,,
2,1791322969696,4187,-2067,17841,5428148,-229685,-636521,0,0,0,451,232,153,273,230,366,179,116,225,154,71,548,0,,,,,
1,1791322969712,-5125,9652,16477,6627887,3308446,602313,0,0,0,218,226,129,317,221,338,346,316,167,393,429,272,0,,,,,
2,1791322969712,5805,-3115,19770,6262590,-497244,-995710,0,0,0,412,217,147,266,225,354,180,122,217,149,87,515,0,,,,,
1,1791322969728,717,-5159,20196,6289468,643851,-43982,0,0,0,223,225,132,307,211,341,356,327,164,403,426,274,0,,,,,
2,1791322969728,7049,-5384,24733,7044497,-713490,-1428202,0,0,0,367,193,142,240,198,309,181,123,196,132,78,452,0,,,,,
1,1791322969744,4292,-6159,20583,5596747,-1783726,-64751,0,0,0,235,213,132,310,202,347,438,397,215,421,424,317,0,,,,,
2,1791322969744,6685,-7303,31595,7765318,-674395,-1841147,0,0,0,310,149,133,203,142,256,182,112,174,119,67,352,0,,,,,
1,1791322969760,-1167,-1129,17037,4131892,-1441641,821002,0,0,0,262,229,125,327,218,363,414,316,187,445,410,360,0,,,,,
2,1791322969760,6006,-6015,35170,8339532,-500909,-2117258,0,0,0,220,104,112,174,101,210,194,121,156,104,67,217,0,,,,,
1,1791322969776,-5230,-1215,14012,2133141,-366519,904080,0,0,0,297,250,192,356,246,372,388,246,153,459,399,409,0,,,,,
2,1791322969776,8102,-153,33084,8502022,-524122,-2362826,0,0,0,164,86,102,164,86,196,204,123,149,90,52,140,0,,,,,
1,1791322969792,-4106,-2737,11284,430049,329867,243124,0,0,0,320,268,206,359,257,375,394,241,159,453,393,435,0,,,,,
2,1791322969792,11414,7638,23594,7898487,-575435,-2774549,0,0,0,163,86,105,168,82,205,207,110,149,95,45,147,0,,,,,
1,1791322969808,-1718,-1368,9992,163711,173485,-57421,0,0,0,340,284,189,356,260,368,404,265,170,455,390,445,0,,,,,
2,1791322969808,12084,12620,10691,5499008,-73303,-2990796,0,0,0,164,84,104,168,78,204,210,106,151,105,59,159,0,,,,,
1,1791322969824,-1469,-234,9796,295658,28099,-14660,0,0,0,351,296,188,355,268,369,407,284,176,458,388,449,0,,,,,
2,1791322969824,7317,13653,9136,1073901,612086,-2074498,0,0,0,169,82,103,164,72,197,212,108,153,99,54,156,0,,,,,
1,1791322969840,-1976,-320,9992,278554,108734,43982,0,0,0,360,301,199,358,272,376,408,279,188,465,374,454,0,,,,,
2,1791322969840,3254,11485,11710,-2525316,234572,-660956,0,0,0,172,86,108,168,73,198,214,115,153,93,37,148,0,,,,,
1,1791322969856,-1895,-402,10145,208915,141720,34208,0,0,0,368,302,215,360,271,382,412,270,202,457,348,461,0,,,,,
2,1791322969856,3546,8064,10686,-3584557,-853989,324980,0,0,0,172,87,108,165,76,200,220,118,157,88,29,147,0,,,,,
1,1791322969872,-1617,-272,10212,233350,15882,23212,0,0,0,372,305,228,358,271,386,418,275,221,432,325,464,0,,,,,
2,1791322969872,5407,7068,5905,-3429397,-1149648,549778,0,0,0,173,93,106,167,74,200,220,117,158,110,57,157,0,,,,,
1,1791322969888,-1584,-205,10203,317649,-139277,40317,0,0,0,378,312,220,362,275,386,428,287,248,422,315,466,0,,,,,
2,1791322969888,5575,7394,3622,-3782477,-632856,587652,0,0,0,172,89,104,167,77,201,223,119,158,110,60,171,0,,,,,
1,1791322969904,-1703,-287,10160,405614,-245567,57421,0,0,0,386,319,196,369,285,383,438,289,255,407,302,465,0,,,,,
2,1791322969904,4020,7336,4924,-4706105,95294,695164,0,0,0,167,85,107,162,71,201,212,105,157,100,51,156,0,,,,,
1,1791322969920,-1804,-411,10098,450818,-290771,59864,0,0,0,404,321,199,386,291,387,418,243,243,397,265,460,0,,,,,
2,1791322969920,2866,6446,6283,-5369505,421497,844215,0,0,0,170,84,107,167,78,204,222,122,166,105,41,154,0,,,,,
1,1791322969936,-1971,-516,9983,467922,-302989,72082,0,0,0,418,330,203,386,297,387,374,177,209,394,251,461,0,,,,,
2,1791322969936,2780,5565,6757,-5582086,477696,955393,0,0,0,170,81,111,164,75,202,213,111,161,111,69,175,0,,,,,
1,1791322969952,-2081,-617,9849,458148,-245567,95294,0,0,0,422,327,215,390,298,399,403,168,222,387,235,461,0,,,,,
2,1791322969952,3072,5384,7432,-5749463,673173,1051909,0,0,0,164,76,104,163,76,205,216,108,156,109,73,171,0,,,,,
1,1791322969968,-2053,-713,9777,441044,-160046,113620,0,0,0,428,334,204,403,303,400,423,192,254,383,223,458,0,,,,,
2,1791322969968,3101,5422,8829,-6102543,946841,1180191,0,0,0,170,88,110,164,81,206,224,123,169,102,64,167,0,,,,,
1,1791322969984,-1928,-760,9858,423940,-103847,116064,0,0,0,437,331,202,395,299,397,441,190,275,373,201,471,0,,,,,
2,1791322969984,3340,4910,10653,-6520375,1154535,1298699,0,0,0,169,90,111,167,80,208,219,121,169,101,61,167,0,,,,,
1,1791322970000,-1895,-827,10021,417831,-118507,116064,0,0,0,435,339,214,402,303,415,405,128,225,382,189,464,0,,,,,
2,1791322970000,3799,4063,12347,-6773273,1370781,1303586,0,0,0,168,88,110,164,77,208,216,120,165,97,55,160,0,,,,,
1,1791322970016,-1976,-890,10165,428827,-161268,129503,0,0,0,431,340,219,419,312,428,388,104,210,386,180,459,0,,,,,
2,1791322970016,3780,3450,14099,-6877120,1596801,1191187,0,0,0,170,88,112,164,77,207,214,119,165,95,52,158,0,,,,,
1,1791322970032,-2100,-966,10294,486248,-226020,173485,0,0,0,431,344,205,431,327,433,380,105,211,382,174,463,0,,,,,
2,1791322970032,3441,3177,16463,-6958976,1727526,1049466,0,0,0,170,88,115,167,78,207,213,118,166,97,50,160,0,,,,,
1,1791322970048,-2129,-1072,10308,560774,-287106,216246,0,0,0,432,354,198,432,341,436,376,105,216,370,169,468,0,,,,,
2,1791322970048,3153,3182,19224,-7062823,1784948,1015258,0,0,0,171,87,116,167,76,209,218,121,168,102,52,162,0,,,,,
1,1791322970064,-2177,-1177,10279,635299,-321315,250454,0,0,0,433,358,204,430,346,441,390,115,246,358,167,474,0,,,,,
2,1791322970064,2603,2656,23000,-7268074,1820378,1275486,0,0,0,171,85,113,169,76,211,222,120,169,102,55,164,0,,,,,
1,1791322970080,-2340,-1296,10342,715934,-311541,288328,0,0,0,437,364,204,430,348,445,409,131,277,360,175,482,0,,,,,
2,1791322970080,1909,47,27250,-7429343,1893682,1767844,0,0,0,167,83,110,171,79,213,219,112,162,98,49,157,0,,,,,
1,1791322970096,-2651,-1397,10480,808785,-249233,344527,0,0,0,448,369,200,433,348,448,399,124,266,362,177,488,0,,,,,
2,1791322970096,406,-6499,31591,-7261965,2086715,2147802,0,0,0,169,86,113,173,80,216,219,114,166,107,58,165,0,,,,,
1,1791322970112,-2804,-1536,10442,923628,-158824,444709,0,0,0,454,354,195,445,341,455,372,111,242,362,169,497,0,,,,,
2,1791322970112,-3613,-15338,35678,-6839247,1993864,2211332,0,0,0,171,87,114,170,80,212,222,115,168,112,69,176,0,,,,,
1,1791322970128,-2641,-1732,10145,1027475,-92851,547335,0,0,0,464,351,194,443,339,471,337,94,222,358,163,508,0,,,,,
2,1791322970128,-6508,-23962,36396,-6243042,849102,2247984,0,0,0,156,84,109,171,74,217,231,117,171,109,63,178,0,,,,,
1,1791322970144,-2239,-1904,9753,1078788,-62308,603534,0,0,0,477,348,197,443,339,477,332,94,229,355,161,516,0,,,,,
2,1791322970144,0,-33931,30734,-5290092,-817337,2371378,0,0,0,156,86,112,176,84,222,228,110,167,99,45,165,0,,,,,
1,1791322970160,-2220,-1962,10227,1110553,19547,602313,0,0,0,482,355,208,450,342,473,330,101,245,364,168,515,0,,,,,
2,1791322970160,9897,-47738,20153,-3673743,-508239,1134987,0,0,0,159,84,113,180,78,223,230,112,176,105,56,173,0,,,,,
1,1791322970176,-2742,-2014,11567,1254717,164933,616973,0,0,0,487,365,219,456,346,464,311,98,215,375,175,512,0,,,,,
2,1791322970176,1493,-55994,15343,-1653001,1161865,-1043357,0,0,0,159,89,114,179,87,221,234,113,175,111,60,183,0,,,,,
1,1791322970192,-2541,-2091,13170,1624901,321315,671951,0,0,0,489,361,216,443,352,450,297,96,217,377,179,511,0,,,,,
2,1791322970192,-16946,-51964,18090,458148,707381,-1600466,0,0,0,136,89,103,191,96,216,269,161,167,127,100,138,0,,,,,
1,1791322970208,-1560,-2115,14606,2146580,400727,662177,0,0,0,493,386,220,423,373,455,286,106,224,354,182,511,0,,,,,
2,1791322970208,-15668,-37343,21756,2474004,-1356120,-685390,0,0,0,139,89,89,188,102,218,340,288,170,223,225,146,0,,,,,
1,1791322970224,-1100,-2067,15683,2819753,362853,546113,0,0,0,491,386,216,417,369,441,258,96,205,342,175,507,0,,,,,
2,1791322970224,4704,5618,22100,4256508,-2893057,133168,0,0,0,153,97,90,199,100,234,371,348,176,285,288,184,0,,,,,
1,1791322970240,-2014,-1933,16137,3583335,268780,494800,0,0,0,485,390,213,418,353,441,237,89,213,331,170,501,0,,,,,
2,1791322970240,11060,30533,13941,5298645,-3068986,426383,0,0,0,163,94,89,210,92,245,410,371,188,325,312,206,0,,,,,
1,1791322970256,-2565,-1703,16601,4410447,232128,561996,0,0,0,477,403,207,419,363,452,211,87,219,323,174,494,0,,,,,
2,1791322970256,3273,9672,14118,6047565,-2158797,1428202,0,0,0,155,101,84,204,77,242,431,366,196,343,335,224,0,,,,,
1,1791322970272,-3675,-1718,17530,5342627,438601,709825,0,0,0,457,402,196,416,380,452,208,97,229,313,178,481,0,,,,,
2,1791322970272,-5939,-7666,20138,5335296,-803898,1858252,0,0,0,173,99,93,201,75,247,453,368,204,362,345,242,0,,,,,
1,1791322970288,-6317,-2828,19104,6321233,918741,1017701,0,0,0,434,395,186,403,374,432,236,115,248,292,173,462,0,,,,,
2,1791322970288,-6561,-5747,19449,3896098,-185703,918741,0,0,0,188,94,103,207,75,250,472,375,206,364,369,261,0,,,,,
1,1791322970304,-7834,-5656,24445,7186218,1598023,1503950,0,0,0,416,387,176,371,352,394,240,119,218,260,162,440,0,,,,,
2,1791322970304,-713,1330,14582,2425134,-172263,-216246,0,0,0,204,94,117,210,70,251,488,368,208,360,372,282,0,,,,,
1,1791322970320,-7623,-8566,31533,7910704,2067167,1842369,0,0,0,369,332,178,324,305,353,244,116,180,228,144,413,0,,,,,
2,1791322970320,1990,1201,11533,1345125,-287106,-180816,0,0,0,233,97,138,213,67,253,506,366,215,358,346,299,0,,,,,
1,1791322970336,-7714,-8662,34520,8725599,2012190,2120924,0,0,0,291,289,172,280,265,311,286,131,182,197,128,375,0,,,,,
2,1791322970336,741,-626,10839,792903,-294437,147829,0,0,0,256,105,156,220,65,253,515,365,214,350,332,316,0,,,,,
1,1791322970352,-8537,-3244,32758,9410989,1654223,2414139,0,0,0,210,231,150,260,222,263,343,159,185,205,139,226,0,,,,,
2,1791322970352,-258,-483,10768,594982,-237015,172263,0,0,0,278,112,176,228,72,260,519,345,205,350,320,340,0,,,,,
1,1791322970368,-10696,4627,22766,8658403,1221730,2785545,0,0,0,218,222,157,263,215,278,349,152,196,210,134,231,0,,,,,
2,1791322970368,177,402,10471,515570,-224798,52534,0,0,0,292,120,199,228,84,271,519,347,213,341,303,367,0,,,,,
1,1791322970384,-9724,5819,14735,6680422,583987,2976135,0,0,0,226,222,158,278,215,278,280,112,152,210,134,231,0,,,,,
2,1791322970384,397,545,10308,463035,-244346,24434,0,0,0,312,123,199,236,90,271,524,339,219,334,295,377,0,,,,,
1,1791322970400,-5623,6992,10844,2889392,122173,2207666,0,0,0,229,213,157,278,210,270,299,121,160,207,129,241,0,,,,,
2,1791322970400,196,363,10313,423940,-241902,35430,0,0,0,305,112,196,235,99,270,524,298,211,325,253,386,0,,,,,
1,1791322970416,-3383,7853,10088,-1293812,129503,841772,0,0,0,224,206,153,264,203,263,318,130,170,208,128,238,0,,,,,
2,1791322970416,43,392,10323,415388,-202807,20769,0,0,0,334,134,210,239,105,281,519,269,225,326,236,409,0,,,,,
1,1791322970432,-4182,6317,10074,-3538131,276111,-180816,0,0,0,224,202,155,261,200,265,307,124,165,209,127,237,0,,,,,
2,1791322970432,33,459,10289,439822,-149051,-7330,0,0,0,346,142,229,246,110,291,492,248,224,311,224,423,0,,,,,
1,1791322970448,-4656,4800,8499,-4155105,332310,-496022,0,0,0,222,200,153,261,199,269,315,126,171,211,129,240,0,,,,,
2,1791322970448,76,344,10251,476474,-97738,-23212,0,0,0,348,141,227,249,115,301,492,233,239,278,181,438,0,,,,,
1,1791322970464,-4125,4871,6508,-4109901,390953,-219911,0,0,0,219,199,155,259,197,269,323,131,174,213,131,237,0,,,,,
2,1791322970464,191,191,10265,518013,-68416,-37873,0,0,0,354,138,223,253,121,311,476,205,231,265,162,460,0,,,,,
1,1791322970480,-3464,6092,6657,-4681671,439822,53756,0,0,0,216,196,156,261,195,269,324,130,173,215,130,234,0,,,,,
2,1791322970480,296,105,10284,555887,-83077,-53756,0,0,0,357,183,219,258,139,310,470,190,231,244,144,474,0,,,,,
1,1791322970496,-3316,6508,7566,-5511226,441044,157603,0,0,0,214,193,154,265,191,272,325,128,175,219,131,236,0,,,,,
2,1791322970496,291,23,10265,591317,-105068,-73303,0,0,0,365,172,218,290,133,311,468,171,237,234,119,486,0,,,,,
1,1791322970512,-3637,5857,8451,-6224716,326202,116064,0,0,0,213,193,153,265,188,271,327,130,175,221,132,235,0,,,,,
2,1791322970512,201,-71,10217,615752,-102625,-90408,0,0,0,368,146,211,295,130,319,462,150,240,221,101,491,0,,,,,
1,1791322970528,-3689,4977,8997,-6752504,25656,-97738,0,0,0,212,193,152,265,189,269,328,131,173,221,132,232,0,,,,,
2,1791322970528,167,-162,10236,640186,-57421,-102625,0,0,0,369,146,194,281,138,332,452,142,243,197,90,496,0,,,,,
1,1791322970544,-3699,4029,9619,-7071376,-310319,-499687,0,0,0,209,192,152,268,189,274,332,134,177,221,134,233,0,,,,,
2,1791322970544,153,-253,10318,692721,-2443,-119729,0,0,0,377,147,172,284,143,340,451,148,254,189,84,515,0,,,,,
1,1791322970560,-4134,2904,10390,-7155675,-717155,-1023810,0,0,0,209,191,161,267,185,281,333,133,184,222,135,238,0,,,,,
2,1791322970560,148,-368,10337,762359,51312,-134390,0,0,0,386,142,150,291,150,339,447,140,260,197,75,532,0,,,,,
1,1791322970576,-4843,1981,11452,-7187440,-1310916,-1466076,0,0,0,210,191,159,268,187,282,337,134,187,224,136,241,0,,,,,
2,1791322970576,162,-521,10203,811229,108734,-141720,0,0,0,395,138,136,299,154,335,433,122,257,200,64,540,0,,,,,
1,1791322970592,-4924,1363,13012,-7169114,-2021963,-1681101,0,0,0,208,191,173,275,187,298,336,133,198,220,133,245,0,,,,,
2,1791322970592,234,-641,10088,818559,130725,-142942,0,0,0,395,141,131,298,159,342,431,117,261,190,63,551,0,,,,,
1,1791322970608,-4259,1062,14682,-7087258,-2315179,-1700648,0,0,0,205,186,176,274,179,304,336,131,203,221,133,250,0,,,,,
2,1791322970608,315,-741,10078,805120,112399,-147829,0,0,0,382,152,132,295,167,357,420,111,264,181,79,560,0,,,,,
1,1791322970624,-4321,1273,16592,-7059158,-2243097,-1496619,0,0,0,204,185,177,275,182,305,337,133,204,221,134,249,0,,,,,
2,1791322970624,349,-842,10136,810007,101403,-162490,0,0,0,394,149,125,309,171,353,417,130,255,185,68,571,0,,,,,
1,1791322970640,-4680,1493,19095,-7225314,-2293188,-1156978,0,0,0,204,185,178,275,181,304,340,133,207,220,134,249,0,,,,,
2,1791322970640,363,-952,10284,855211,113620,-184481,0,0,0,401,161,130,350,205,361,419,134,261,197,92,586,0,,,,,
1,1791322970656,-4158,-95,22828,-7579615,-2554638,-937067,0,0,0,200,186,179,276,181,306,340,133,210,220,133,250,0,,,,,
2,1791322970656,469,-1052,10576,959058,142942,-201585,0,0,0,417,159,130,330,205,369,404,135,268,197,56,579,0,,,,,
1,1791322970672,-2962,-5441,26915,-7703010,-2784323,-1150870,0,0,0,197,188,180,275,184,310,338,135,214,220,135,253,0,,,,,
2,1791322970672,622,-1229,10725,1098335,182037,-237015,0,0,0,422,171,137,321,216,377,396,124,272,191,64,599,0,,,,,
1,1791322970688,-942,-14568,30614,-7401243,-2885727,-1497841,0,0,0,204,195,185,282,191,316,338,138,216,222,139,255,0,,,,,
2,1791322970688,555,-1411,10945,1273043,251676,-282219,0,0,0,431,184,130,323,217,386,393,120,276,192,75,614,0,,,,,
1,1791322970704,2368,-24718,31706,-6676757,-2712241,-1433089,0,0,0,208,200,186,282,194,315,334,132,209,225,138,258,0,,,,,
2,1791322970704,818,-1545,11777,1502728,340862,-317649,0,0,0,449,194,133,324,228,391,356,108,257,199,91,633,0,,,,,
1,1791322970720,7169,-32868,28963,-5542991,-2036624,-842994,0,0,0,207,203,185,279,195,313,307,116,189,229,138,260,0,,,,,
2,1791322970720,1713,-1689,13046,1872912,439822,-405614,0,0,0,471,202,140,322,219,397,335,121,258,201,68,635,0,,,,,
1,1791322970736,10179,-39616,24953,-4196644,-911410,-191811,0,0,0,213,201,182,292,196,315,282,106,168,239,152,256,0,,,,,
2,1791322970736,1670,-1675,14271,2393370,465479,-564439,0,0,0,483,231,150,312,213,391,315,130,261,200,87,645,0,,,,,
1,1791322970752,8332,-45130,21086,-2762332,422718,312763,0,0,0,209,187,166,291,184,302,321,137,172,277,196,242,0,,,,,
2,1791322970752,1105,-1641,15161,2965139,382401,-653625,0,0,0,480,224,150,309,203,383,286,116,251,203,85,653,0,,,,,
1,1791322970768,7977,-49456,20918,-536339,1227839,345749,0,0,0,181,195,145,281,191,291,340,223,160,340,307,198,0,,,,,
2,1791322970768,674,-1689,15515,3615100,295658,-668286,0,0,0,476,230,145,311,215,386,246,115,247,197,79,646,0,,,,,
1,1791322970784,8686,-35462,22306,2875953,1932777,-357967,0,0,0,177,192,106,283,189,287,373,299,153,373,406,186,0,,,,,
2,1791322970784,-449,-1536,15850,4272391,311541,-593761,0,0,0,466,258,146,309,238,402,198,112,236,184,89,623,0,,,,,
1,1791322970800,3957,-1641,23010,5233893,2256536,-722042,0,0,0,198,190,122,308,196,311,373,293,167,392,392,233,0,,,,,
2,1791322970800,-784,-1689,17133,5023755,279776,-401949,0,0,0,443,261,145,311,236,404,199,119,240,179,93,582,0,,,,,
1,1791322970816,-1134,19956,23058,5507560,2305405,-278554,0,0,0,211,198,134,312,200,323,334,255,145,403,402,255,0,,,,,
2,1791322970816,2177,-3321,19832,5811771,129503,-355523,0,0,0,421,235,141,303,220,381,219,132,255,175,88,535,0,,,,,
1,1791322970832,-808,6116,19435,4295604,1477072,-291993,0,0,0,206,189,144,297,185,329,381,292,174,409,405,272,0,,,,,
2,1791322970832,5704,-5929,24752,6598566,53756,-586430,0,0,0,391,199,143,263,195,338,190,115,230,158,85,478,0,,,,,
1,1791322970848,1253,-2737,12175,3170390,420275,-649960,0,0,0,205,180,153,294,178,338,417,333,199,422,417,290,0,,,,,
2,1791322970848,8341,-7336,31160,7308391,364075,-1042136,0,0,0,328,160,134,208,143,275,181,110,192,138,73,391,0,,,,,
1,1791322970864,2368,277,6834,3018896,-180816,-516791,0,0,0,225,197,165,302,188,352,418,316,190,442,435,308,0,,,,,
2,1791322970864,8236,-5369,34773,8090299,1199739,-1628566,0,0,0,235,102,117,179,95,229,190,105,161,110,60,255,0,,,,,
1,1791322970880,358,875,11256,2883283,-218689,-31764,0,0,0,254,219,186,307,200,349,414,307,185,447,445,336,0,,,,,
2,1791322970880,8121,-942,33280,8610756,2103819,-2200336,0,0,0,139,79,102,158,70,198,192,113,154,67,36,117,0,,,,,
1,1791322970896,-1273,-689,14974,1955990,24434,141720,0,0,0,283,239,211,310,210,354,419,318,196,458,450,367,0,,,,,
2,1791322970896,8542,3761,22139,7750658,2605951,-2742784,0,0,0,156,75,106,165,74,212,141,66,127,62,27,130,0,,,,,
1,1791322970912,-770,-890,13227,801455,206472,2443,0,0,0,310,261,229,317,223,362,421,314,198,470,452,389,0,,,,,
2,1791322970912,6288,6920,13361,5225341,2371378,-2900388,0,0,0,162,76,103,172,72,210,204,109,154,86,46,136,0,,,,,
1,1791322970928,-95,229,10490,272445,118507,-75747,0,0,0,327,274,238,321,229,362,419,302,192,474,448,398,0,,,,,
2,1791322970928,2349,9428,13720,1109331,1022588,-1588249,0,0,0,162,78,103,168,72,206,214,115,154,102,60,143,0,,,,,
1,1791322970944,-201,1033,9887,267558,-62308,-23212,0,0,0,332,279,240,315,226,362,418,302,192,478,442,402,0,,,,,
2,1791322970944,3316,8403,15596,-1800830,-801455,392175,0,0,0,161,78,104,168,72,209,212,123,156,103,53,144,0,,,,,
1,1791322970960,-387,847,10346,239459,-98960,13439,0,0,0,331,294,236,320,236,364,414,292,188,477,436,409,0,,,,,
2,1791322970960,6877,6159,12280,-2734232,-1577254,1186300,0,0,0,161,81,108,169,75,206,208,114,153,89,53,139,0,,,,,
1,1791322970976,-373,722,10318,171042,-109955,17104,0,0,0,338,276,245,322,232,367,420,302,201,475,423,408,0,,,,,
2,1791322970976,7130,6135,7480,-2808758,-900415,667064,0,0,0,163,83,106,166,79,201,211,116,155,95,59,147,0,,,,,
1,1791322970992,-325,808,10112,157603,-133168,17104,0,0,0,338,276,245,326,236,368,398,247,164,467,409,417,0,,,,,
2,1791322970992,3225,7513,6561,-3813020,-411723,-105068,0,0,0,158,79,107,164,76,202,210,114,156,100,58,148,0,,,,,
1,1791322971008,-320,885,10074,185703,-162490,24434,0,0,0,338,277,254,336,251,359,411,267,193,459,401,421,0,,,,,
2,1791322971008,1799,7456,6920,-4943121,-671951,-608421,0,0,0,158,78,107,162,74,202,211,122,158,105,56,147,0,,,,,
1,1791322971024,-306,866,10131,226020,-196698,31764,0,0,0,343,296,238,332,248,374,414,281,202,449,398,431,0,,,,,
2,1791322971024,2632,6542,6345,-5569869,-620639,-1080009,0,0,0,160,77,108,164,73,201,215,121,159,104,53,148,0,,,,,
1,1791322971040,-335,827,10136,268780,-240680,37873,0,0,0,351,286,241,332,252,374,402,229,177,440,365,436,0,,,,,
2,1791322971040,2048,6312,5876,-5712811,-4886,-1339016,0,0,0,160,76,107,170,74,203,219,115,159,100,52,149,0,,,,,
1,1791322971056,-425,780,10112,310319,-265115,47647,0,0,0,350,294,245,334,249,374,413,250,211,432,340,444,0,,,,,
2,1791322971056,325,6513,6484,-5718920,524122,-1053131,0,0,0,155,72,104,170,72,203,221,117,161,103,53,151,0,,,,,
1,1791322971072,-526,727,10093,353080,-259006,59864,0,0,0,364,296,242,342,249,375,422,260,238,423,320,454,0,,,,,
2,1791322971072,402,6245,7939,-5867971,711047,-109955,0,0,0,151,70,104,168,66,203,220,116,162,102,51,152,0,,,,,
1,1791322971088,-574,655,10102,394618,-229685,65973,0,0,0,378,299,243,351,255,378,430,263,259,407,295,456,0,,,,,
2,1791322971088,1909,5407,9274,-6019466,978606,816115,0,0,0,153,74,105,172,72,208,220,119,162,94,39,151,0,,,,,
1,1791322971104,-598,583,10141,434936,-200363,67195,0,0,0,393,308,247,356,262,381,414,221,235,400,276,457,0,,,,,
2,1791322971104,3441,4144,10595,-6041457,1435533,1457524,0,0,0,152,69,104,171,76,211,211,117,161,101,43,153,0,,,,,
1,1791322971120,-622,531,10179,475253,-171042,61086,0,0,0,409,316,248,364,270,392,392,171,201,398,262,457,0,,,,,
2,1791322971120,3823,3335,12361,-6007248,1837482,1633453,0,0,0,157,78,111,173,69,212,209,114,156,112,57,149,0,,,,,
1,1791322971136,-593,459,10236,504574,-160046,59864,0,0,0,420,323,249,374,280,402,397,169,221,384,240,455,0,,,,,
2,1791322971136,3866,3306,14070,-6144082,1935221,1505171,0,0,0,156,75,110,174,75,215,218,116,158,106,53,158,0,,,,,
1,1791322971152,-512,339,10332,542448,-206472,67195,0,0,0,430,332,251,380,285,405,417,176,269,363,212,455,0,,,,,
2,1791322971152,4139,3278,16061,-6488610,1944994,1127657,0,0,0,152,74,108,173,75,214,216,114,155,99,58,158,0,,,,,
1,1791322971168,-622,263,10466,599869,-280998,87964,0,0,0,431,334,247,391,289,413,433,162,298,356,179,464,0,,,,,
2,1791322971168,3866,2158,18348,-6783047,2032959,741590,0,0,0,152,74,109,167,66,210,209,103,151,104,70,158,0,,,,,
1,1791322971184,-947,196,10691,684169,-342084,140499,0,0,0,434,342,243,415,294,440,402,114,252,365,172,461,0,,,,,
2,1791322971184,2780,-358,20693,-6845355,2118480,608421,0,0,0,143,74,105,174,73,217,215,119,164,102,45,155,0,,,,,
1,1791322971200,-1306,47,11069,808785,-376292,239459,0,0,0,435,346,233,426,309,443,404,115,268,345,156,471,0,,,,,
2,1791322971200,1363,-4235,22895,-6670648,2157576,935845,0,0,0,142,72,107,175,72,212,219,117,166,109,53,156,0,,,,,
1,1791322971216,-1373,-110,11495,1017701,-438601,354301,0,0,0,441,344,223,442,322,451,388,100,252,371,163,472,0,,,,,
2,1791322971216,14,-9767,25149,-6464175,2151467,1444085,0,0,0,142,75,105,175,73,214,222,116,171,102,49,157,0,,,,,
1,1791322971232,-1038,-311,11533,1354899,-529009,443488,0,0,0,453,346,220,447,325,470,388,106,262,348,154,488,0,,,,,
2,1791322971232,-1545,-18032,27432,-6205169,2003637,1786169,0,0,0,135,77,106,168,74,211,221,113,169,101,57,158,0,,,,,
1,1791322971248,-737,-449,11160,1604132,-570548,455705,0,0,0,463,357,216,448,322,466,384,103,272,344,153,497,0,,,,,
2,1791322971248,-4034,-30342,28714,-5551543,1534493,1607797,0,0,0,138,78,106,171,72,211,224,111,161,104,60,158,0,,,,,
1,1791322971264,-760,-574,10926,1743409,-529009,411723,0,0,0,474,358,215,451,319,466,377,109,270,346,154,510,0,,,,,
2,1791322971264,-6795,-41832,27839,-4478863,763581,1095892,0,0,0,142,78,106,174,71,213,222,111,158,107,56,162,0,,,,,
1,1791322971280,-1373,-746,11734,1872912,-395840,390953,0,0,0,480,365,219,456,326,478,351,108,273,346,157,514,0,,,,,
2,1791322971280,-6704,-49384,24039,-2981022,-239459,660956,0,0,0,145,76,107,172,70,213,225,118,161,106,49,162,0,,,,,
1,1791322971296,-1828,-957,13079,2136806,-238237,432492,0,0,0,485,361,221,451,344,483,346,113,281,346,165,518,0,,,,,
2,1791322971296,-4632,-52773,20148,-1165530,-794124,505796,0,0,0,143,76,100,178,76,211,258,148,165,127,83,153,0,,,,,
1,1791322971312,-1679,-1134,14362,2547308,-105068,491135,0,0,0,491,350,221,440,340,479,313,103,261,344,163,521,0,,,,,
2,1791322971312,-3637,-48327,19483,916297,-746477,642630,0,0,0,137,78,86,191,87,212,326,212,169,196,178,151,0,,,,,
1,1791322971328,-1325,-1182,15372,3139847,-25656,513126,0,0,0,493,350,229,433,328,470,285,94,260,343,163,526,0,,,,,
2,1791322971328,-2134,-17999,21229,3224146,-1293812,933402,0,0,0,143,81,79,195,81,219,391,299,177,266,268,166,0,,,,,
1,1791322971344,-1038,-1119,15979,3756821,-17104,510683,0,0,0,488,374,231,427,341,466,285,106,283,339,174,521,0,,,,,
2,1791322971344,1536,22440,16917,4372573,-2679254,1064127,0,0,0,151,86,86,198,81,228,405,335,193,282,299,181,0,,,,,
1,1791322971360,-818,-1019,16391,4516737,-59864,496022,0,0,0,477,395,215,420,364,468,262,113,277,328,179,503,0,,,,,
2,1791322971360,722,22632,19573,4213748,-3360980,878424,0,0,0,167,91,91,215,89,241,398,309,228,317,316,198,0,,,,,
1,1791322971376,-646,-1009,17152,5324301,-47647,471587,0,0,0,461,381,201,425,369,457,219,101,256,319,171,488,0,,,,,
2,1791322971376,-2526,196,23297,2806314,-2169793,713490,0,0,0,198,99,113,215,85,236,431,328,208,313,318,204,0,,,,,
1,1791322971392,-1091,-1521,18702,6075665,146607,437379,0,0,0,444,400,188,412,374,445,227,106,237,295,166,465,0,,,,,
2,1791322971392,-3292,-6034,16549,1048244,-449596,504574,0,0,0,220,105,142,213,78,235,459,347,195,329,323,220,0,,,,,
1,1791322971408,-2890,-3732,22732,6851464,641408,447153,0,0,0,428,358,182,387,342,412,217,95,185,274,152,448,0,,,,,
2,1791322971408,-1043,1962,8686,676838,199142,125838,0,0,0,230,109,188,213,78,244,466,341,189,321,323,237,0,,,,,
1,1791322971424,-5163,-5675,28437,7507533,1169196,555887,0,0,0,399,321,180,358,315,376,242,100,185,250,139,426,0,,,,,
2,1791322971424,751,4790,8054,845437,272445,-106290,0,0,0,238,118,182,216,81,244,482,353,199,322,333,253,0,,,,,
1,1791322971440,-7537,-5273,32175,8360301,1685988,949284,0,0,0,330,292,180,301,274,331,279,118,186,208,125,399,0,,,,,
2,1791322971440,894,2684,10772,810007,189368,-133168,0,0,0,248,122,187,216,87,244,487,350,203,319,327,253,0,,,,,
1,1791322971456,-8767,-3665,31428,9204517,1921782,1403768,0,0,0,228,251,164,271,241,285,300,125,172,208,134,277,0,,,,,
2,1791322971456,603,1746,10882,510683,266337,-119729,0,0,0,254,118,202,219,85,247,496,348,204,331,327,278,0,,,,,
1,1791322971472,-9806,138,24096,9033475,1401324,1770287,0,0,0,218,240,166,283,235,297,303,128,167,199,130,241,0,,,,,
2,1791322971472,894,2297,9973,356745,333532,-122173,0,0,0,269,135,217,229,116,253,493,349,204,328,329,284,0,,,,,
1,1791322971488,-8777,1311,16908,7815409,551000,2084272,0,0,0,224,238,164,283,228,286,288,123,158,202,134,235,0,,,,,
2,1791322971488,1234,2603,9753,329867,270002,-105068,0,0,0,279,135,222,232,111,259,492,341,207,330,318,289,0,,,,,
1,1791322971504,-5063,1493,12691,5591860,85521,2059837,0,0,0,225,232,163,278,224,278,296,126,163,202,131,230,0,,,,,
2,1791322971504,1273,2493,9873,296880,171042,-83077,0,0,0,275,124,251,234,102,273,495,327,217,329,304,302,0,,,,,
1,1791322971520,-2345,4264,10270,2298075,401949,1275486,0,0,0,224,227,163,258,224,262,292,122,160,205,130,231,0,,,,,
2,1791322971520,1148,2426,9873,265115,92851,-67195,0,0,0,277,125,251,236,107,279,496,311,225,339,294,323,0,,,,,
1,1791322971536,-2340,5211,9183,-1188743,762359,196698,0,0,0,224,223,170,258,218,267,289,118,163,206,131,234,0,,,,,
2,1791322971536,1062,2421,9767,255341,52534,-62308,0,0,0,282,126,227,238,109,279,492,297,215,345,287,338,0,,,,,
1,1791322971552,-3847,4063,9341,-3029891,712268,-491135,0,0,0,226,217,171,274,211,277,302,124,172,205,128,234,0,,,,,
2,1791322971552,1052,2407,9681,268780,40317,-67195,0,0,0,279,124,240,243,114,287,491,295,209,327,272,341,0,,,,,
1,1791322971568,-3977,4077,8619,-3786142,524122,-664621,0,0,0,226,210,161,273,208,270,320,134,175,208,125,235,0,,,,,
2,1791322971568,1028,2354,9696,289550,40317,-84299,0,0,0,284,133,259,247,122,291,497,289,223,319,246,343,0,,,,,
1,1791322971584,-3651,4757,7800,-4502076,505796,-609643,0,0,0,223,203,164,265,200,269,332,133,179,212,126,237,0,,,,,
2,1791322971584,995,2330,9753,320093,69638,-105068,0,0,0,300,137,234,251,123,291,493,259,221,340,241,357,0,,,,,
1,1791322971600,-3627,4905,7767,-5133711,561996,-365297,0,0,0,227,198,165,276,198,274,324,127,175,209,124,229,0,,,,,
2,1791322971600,1110,2297,9763,360410,103847,-109955,0,0,0,306,140,231,253,125,298,486,248,225,304,227,371,0,,,,,
1,1791322971616,-3699,4809,7437,-5600412,526565,-105068,0,0,0,214,189,156,269,194,272,300,114,161,212,125,228,0,,,,,
2,1791322971616,1268,2234,9767,397062,108734,-106290,0,0,0,310,141,230,255,125,304,486,250,233,277,192,372,0,,,,,
1,1791322971632,-3704,4675,7499,-6186843,279776,24434,0,0,0,219,188,159,284,196,276,311,122,167,214,125,228,0,,,,,
2,1791322971632,1349,2120,9777,412944,79412,-103847,0,0,0,330,149,236,276,139,318,473,218,227,280,186,383,0,,,,,
1,1791322971648,-3287,4111,8370,-6802595,-37873,10995,0,0,0,205,186,155,263,187,273,339,132,183,214,126,227,0,,,,,
2,1791322971648,1344,2029,9791,412944,57421,-128281,0,0,0,332,167,241,278,140,314,477,211,227,273,184,389,0,,,,,
1,1791322971664,-2412,2660,9270,-7071376,-163711,-163711,0,0,0,205,180,170,265,178,284,326,121,184,216,123,232,0,,,,,
2,1791322971664,1363,1995,9810,425162,52534,-169820,0,0,0,332,158,228,279,154,320,468,198,238,265,172,415,0,,,,,
1,1791322971680,-2646,1253,9595,-6903998,-150272,-469144,0,0,0,203,179,182,264,178,294,334,125,197,215,123,238,0,,,,,
2,1791322971680,1392,1957,9858,463035,63529,-219911,0,0,0,345,180,231,286,177,331,466,184,239,259,164,427,0,,,,,
1,1791322971696,-4106,1229,10409,-6868568,-604756,-756251,0,0,0,206,182,178,266,177,293,349,131,204,217,123,238,0,,,,,
2,1791322971696,1354,1842,9935,524122,95294,-259006,0,0,0,349,172,234,293,169,334,469,173,249,262,137,433,0,,,,,
1,1791322971712,-4493,1340,11720,-6954089,-1297477,-918741,0,0,0,207,181,164,267,178,286,365,140,207,221,125,235,0,,,,,
2,1791322971712,1493,1756,10026,597426,140499,-295658,0,0,0,351,185,241,294,182,335,459,149,252,264,120,451,0,,,,,
1,1791322971728,-4010,813,13007,-6911329,-1684766,-945619,0,0,0,208,181,165,269,176,288,370,139,211,221,125,235,0,,,,,
2,1791322971728,1689,1651,10112,689055,188146,-365297,0,0,0,363,190,240,294,180,346,461,144,256,234,107,480,0,,,,,
1,1791322971744,-3967,344,14295,-6715852,-1753183,-790459,0,0,0,210,179,170,270,172,293,371,138,213,222,123,237,0,,,,,
2,1791322971744,1737,1483,10241,819781,278554,-482583,0,0,0,360,180,225,297,190,362,457,139,269,219,94,487,0,,,,,
1,1791322971760,-4225,727,16286,-6686530,-1943773,-548556,0,0,0,209,179,171,269,171,294,372,138,213,223,123,238,0,,,,,
2,1791322971760,1718,1344,10404,963945,409279,-597426,0,0,0,361,177,205,306,201,364,452,141,276,205,91,490,0,,,,,
1,1791322971776,-3991,713,18870,-6903998,-2216219,-453262,0,0,0,209,180,173,269,172,294,371,137,214,223,124,240,0,,,,,
2,1791322971776,1923,1249,10524,1098335,549778,-684169,0,0,0,372,180,190,315,211,376,441,136,288,199,89,509,0,,,,,
1,1791322971792,-3000,-1675,21847,-7248526,-2489886,-773355,0,0,0,207,182,174,271,176,297,359,133,208,223,124,240,0,,,,,
2,1791322971792,2225,1062,10519,1233947,647517,-781907,0,0,0,384,179,171,353,225,377,436,129,290,201,85,531,0,,,,,
1,1791322971808,-1421,-8518,24843,-7204544,-2641381,-1426981,0,0,0,204,185,172,276,185,303,338,123,196,223,127,242,0,,,,,
2,1791322971808,2278,866,10342,1318247,604756,-833220,0,0,0,398,185,153,375,242,374,436,131,280,207,86,550,0,,,,,
1,1791322971824,985,-18114,27403,-6734178,-2697580,-1775174,0,0,0,203,190,175,278,188,307,342,127,197,223,127,243,0,,,,,
2,1791322971824,2617,760,10571,1389107,434936,-845437,0,0,0,414,210,141,342,296,392,426,142,275,217,99,571,0,,,,,
1,1791322971840,6188,-28083,27863,-5791002,-2310292,-1345125,0,0,0,202,196,175,284,194,310,341,127,199,222,124,242,0,,,,,
2,1791322971840,3407,679,11313,1552819,216246,-922406,0,0,0,428,226,117,356,376,388,417,160,273,212,109,586,0,,,,,
1,1791322971856,11064,-36085,26015,-4620584,-1235169,-638965,0,0,0,205,202,177,285,197,310,342,128,200,221,132,243,0,,,,,
2,1791322971856,3589,512,12222,1842369,30543,-1088561,0,0,0,451,200,119,362,289,405,403,141,277,221,90,616,0,,,,,
1,1791322971872,8978,-41741,21818,-3203377,514348,136833,0,0,0,200,202,171,285,197,310,347,133,202,220,132,243,0,,,,,
2,1791322971872,3149,248,13175,2190562,-68416,-1227839,0,0,0,466,221,128,359,294,394,377,135,266,221,91,618,0,,,,,
1,1791322971888,2364,-44843,18162,-1815491,1386664,707381,0,0,0,200,207,172,285,199,309,339,130,199,279,130,237,0,,,,,
2,1791322971888,2536,0,14108,2616946,-74525,-1274264,0,0,0,475,219,127,323,256,389,354,129,262,205,85,634,0,,,,,
1,1791322971904,-784,-44187,16286,-133168,973719,941954,0,0,0,189,217,177,295,217,312,360,158,205,288,195,231,0,,,,,
2,1791322971904,2268,-86,14524,3098308,-35430,-1254717,0,0,0,481,216,126,320,237,386,333,165,245,202,105,616,0,,,,,
1,1791322971920,3680,-30715,19004,2013411,89186,593761,0,0,0,177,216,137,292,230,292,239,136,118,344,307,209,0,,,,,
2,1791322971920,1809,-62,14826,3576005,2443,-1204626,0,0,0,480,225,140,304,239,373,318,135,251,207,100,621,0,,,,,
1,1791322971936,5800,6542,21062,3528357,-612086,389732,0,0,0,185,214,124,295,230,291,256,191,113,373,364,217,0,,,,,
2,1791322971936,1028,-33,15381,4046371,-26878,-1042136,0,0,0,473,206,135,285,215,350,277,130,252,190,80,599,0,,,,,
1,1791322971952,1789,29375,15659,4020715,-515570,1116661,0,0,0,197,215,128,307,232,304,353,275,159,381,374,234,0,,,,,
2,1791322971952,1215,-114,15654,4586376,-112399,-836885,0,0,0,452,199,138,271,208,350,235,126,237,169,88,559,0,,,,,
1,1791322971968,-4168,16635,15147,4621806,208915,1723861,0,0,0,203,219,145,311,235,320,382,307,182,389,390,252,0,,,,,
2,1791322971968,2249,-287,15769,5175250,-227241,-737925,0,0,0,414,209,142,269,210,341,209,120,231,154,85,507,0,,,,,
1,1791322971984,-8365,-8423,18578,4327369,696386,1028697,0,0,0,205,220,164,309,231,331,353,280,169,404,404,268,0,,,,,
2,1791322971984,3608,-794,16367,5762902,-442266,-773355,0,0,0,368,195,135,250,198,313,195,113,213,150,90,462,0,,,,,
1,1791322972000,-3493,-2881,13113,3109304,376292,-83077,0,0,0,213,217,158,312,221,330,365,274,168,418,402,279,0,,,,,
2,1791322972000,6097,-2373,19602,6374989,-709825,-987158,0,0,0,337,184,129,226,176,280,193,121,196,136,76,401,0,,,,,
1,1791322972016,1134,4565,6843,2863736,174707,-164933,0,0,0,233,219,151,316,217,328,399,310,188,429,416,298,0,,,,,
2,1791322972016,7824,-3977,25015,6919881,-864985,-1315803,0,0,0,288,148,125,198,135,246,196,117,179,118,53,312,0,,,,,
1,1791322972032,258,3589,8442,3426953,241902,564439,0,0,0,264,227,174,326,230,342,371,269,162,461,427,343,0,,,,,
2,1791322972032,8432,-3618,30346,7329161,-1027475,-1718974,0,0,0,214,100,114,168,87,207,200,109,157,93,44,197,0,,,,,
1,1791322972048,-3287,-2081,15046,2469117,652404,596204,0,0,0,292,242,197,326,233,350,400,279,163,474,433,390,0,,,,,
2,1791322972048,9681,-277,30969,7495316,-1369559,-2062281,0,0,0,168,82,105,156,66,188,204,110,149,77,45,124,0,,,,,
1,1791322972064,-3287,-2737,14979,806342,913854,180816,0,0,0,332,255,234,343,243,359,391,245,160,476,405,416,0,,,,,
2,1791322972064,11217,3350,23115,7044497,-1667662,-2305405,0,0,0,171,85,110,161,69,197,203,109,156,85,50,126,0,,,,,
1,1791322972080,-1249,181,10658,124616,757472,-32986,0,0,0,338,264,227,333,240,356,431,326,223,482,408,424,0,,,,,
2,1791322972080,10973,5886,15678,5535660,-1404990,-2103819,0,0,0,178,87,111,165,72,200,200,107,151,95,57,142,0,,,,,
1,1791322972096,-784,1100,9466,219911,515570,-4886,0,0,0,355,275,234,337,244,369,446,332,235,485,413,438,0,,,,,
2,1791322972096,8317,9667,13969,2459343,-766025,-1084896,0,0,0,173,82,108,163,71,198,208,109,155,93,49,143,0,,,,,
1,1791322972112,-1162,454,10332,351858,359188,37873,0,0,0,369,285,234,345,245,370,449,340,237,485,407,447,0,,,,,
2,1791322972112,6771,10385,14764,-387288,-930958,28099,0,0,0,171,85,106,158,73,197,199,112,155,97,61,138,0,,,,,
1,1791322972128,-1110,258,10524,250454,234572,10995,0,0,0,373,294,237,362,264,365,445,332,245,484,387,456,0,,,,,
2,1791322972128,7140,8537,12754,-1659109,-1246165,359188,0,0,0,173,84,114,158,71,199,208,118,156,103,54,143,0,,,,,
1,1791322972144,-976,449,10313,189368,91629,0,0,0,0,379,297,240,360,263,379,448,314,253,478,369,467,0,,,,,
2,1791322972144,6910,7934,8561,-2013411,-934623,-14660,0,0,0,173,95,114,162,76,199,208,115,157,94,60,143,0,,,,,
1,1791322972160,-1005,574,10174,223576,-45204,21991,0,0,0,384,306,241,356,258,392,449,305,260,462,352,473,0,,,,,
2,1791322972160,5202,9026,6211,-2809980,-306654,-307876,0,0,0,165,98,109,158,78,197,211,124,158,103,59,151,0,,,,,
1,1791322972176,-1052,497,10160,266337,-140499,45204,0,0,0,384,311,247,361,267,399,445,294,266,448,333,475,0,,,,,
2,1791322972176,3464,9370,6436,-4034154,15882,-311541,0,0,0,165,84,108,164,67,200,212,115,150,102,58,159,0,,,,,
1,1791322972192,-1110,402,10155,283441,-204028,57421,0,0,0,389,318,252,373,278,407,432,265,256,438,319,473,0,,,,,
2,1791322972192,3316,7901,6843,-4973664,-10995,-280998,0,0,0,163,83,106,164,72,202,214,121,162,82,45,144,0,,,,,
1,1791322972208,-1225,392,10145,301767,-233350,64751,0,0,0,407,330,251,391,282,416,406,216,227,427,304,466,0,,,,,
2,1791322972208,3804,6561,6613,-5428148,153938,-329867,0,0,0,163,83,109,167,73,206,218,113,161,104,64,159,0,,,,,
1,1791322972224,-1407,397,10145,333532,-206472,75747,0,0,0,420,318,255,396,275,431,397,166,215,423,275,465,0,,,,,
2,1791322972224,3661,6025,6824,-5666385,605978,-322536,0,0,0,164,84,113,169,78,207,216,113,157,88,47,149,0,,,,,
1,1791322972240,-1474,315,10141,355523,-111177,92851,0,0,0,421,325,246,400,280,408,407,177,226,421,247,465,0,,,,,
2,1791322972240,2842,5719,8207,-5959601,1028697,-36651,0,0,0,164,86,117,168,78,207,212,110,161,98,56,154,0,,,,,
1,1791322972256,-1430,239,10131,373849,-14660,109955,0,0,0,435,336,244,401,290,409,411,168,239,407,237,466,0,,,,,
2,1791322972256,2665,5135,9753,-6177069,1260825,415388,0,0,0,163,86,115,168,76,209,215,110,164,108,68,162,0,,,,,
1,1791322972272,-1316,201,10131,390953,57421,119729,0,0,0,437,350,275,394,292,420,413,162,268,396,221,462,0,,,,,
2,1791322972272,3278,4335,11050,-6246707,1468520,803898,0,0,0,162,85,115,165,73,208,218,113,162,98,58,156,0,,,,,
1,1791322972288,-1177,153,10212,405614,73303,119729,0,0,0,436,339,253,396,300,424,409,184,278,372,234,463,0,,,,,
2,1791322972288,3852,3503,12720,-6269920,1769065,1105666,0,0,0,163,85,118,164,71,208,216,116,162,94,53,155,0,,,,,
1,1791322972304,-1158,52,10356,428827,34208,127059,0,0,0,436,345,250,416,312,428,377,140,223,368,209,464,0,,,,,
2,1791322972304,3957,3239,14821,-6301685,2064724,1233947,0,0,0,164,87,120,163,72,207,214,115,164,105,64,164,0,,,,,
1,1791322972320,-1397,-4,10490,475253,-10995,169820,0,0,0,438,348,254,423,313,433,360,126,216,363,199,469,0,,,,,
2,1791322972320,3594,2727,17276,-6444628,2257757,1284038,0,0,0,168,90,119,164,74,206,214,112,164,113,66,169,0,,,,,
1,1791322972336,-1708,-76,10600,553443,-9773,244346,0,0,0,438,362,240,432,331,442,392,139,260,360,193,476,0,,,,,
2,1791322972336,2703,851,19956,-6569244,2404365,1293812,0,0,0,171,90,122,169,75,210,224,120,176,108,54,163,0,,,,,
1,1791322972352,-1943,-205,10744,701273,19547,368962,0,0,0,437,374,218,439,363,445,389,133,258,360,191,476,0,,,,,
2,1791322972352,1115,-2373,22545,-6582683,2455678,1304808,0,0,0,171,93,122,170,73,212,249,133,194,114,69,168,0,,,,,
1,1791322972368,-1818,-387,10878,896750,41538,492357,0,0,0,441,368,209,446,367,452,384,124,254,359,183,479,0,,,,,
2,1791322972368,-1067,-7796,25249,-6541144,2306627,1402546,0,0,0,166,95,120,167,75,212,216,112,160,100,56,159,0,,,,,
1,1791322972384,-1536,-526,10921,1075122,59864,572991,0,0,0,449,355,210,454,351,464,389,120,268,355,169,488,0,,,,,
2,1791322972384,-3038,-15582,27628,-6505714,1933999,1445307,0,0,0,160,99,117,166,77,212,214,109,162,105,69,159,0,,,,,
1,1791322972400,-1172,-607,10748,1233947,54977,612086,0,0,0,459,352,207,458,360,466,362,106,251,354,167,494,0,,,,,
2,1791322972400,-5063,-26034,29006,-6235712,1406211,1180191,0,0,0,162,95,120,166,86,211,206,100,153,92,56,159,0,,,,,
1,1791322972416,-526,-708,10351,1354899,21991,583987,0,0,0,470,356,205,468,372,469,376,117,267,361,168,501,0,,,,,
2,1791322972416,-7949,-38042,28710,-5436700,657290,746477,0,0,0,157,95,111,171,83,214,213,108,155,103,58,152,0,,,,,
1,1791322972432,-421,-823,10638,1424537,15882,497244,0,0,0,476,363,210,458,362,474,373,119,265,359,173,513,0,,,,,
2,1791322972432,-7834,-46819,24670,-3974289,-439822,524122,0,0,0,201,127,133,209,113,218,229,120,168,97,54,152,0,,,,,
1,1791322972448,-1402,-1019,12251,1621236,98960,447153,0,0,0,480,371,218,468,350,467,351,112,255,364,172,506,0,,,,,
2,1791322972448,-4292,-51634,19248,-2163684,-1197295,544891,0,0,0,167,100,123,179,90,219,218,109,170,100,58,162,0,,,,,
1,1791322972464,-2029,-1263,13864,2013411,212581,502131,0,0,0,489,378,220,449,352,467,351,124,265,351,170,514,0,,,,,
2,1791322972464,-1852,-50571,16243,-201585,-867428,723264,0,0,0,134,90,97,188,100,210,272,191,162,154,166,143,0,,,,,
1,1791322972480,-1622,-1421,14831,2542421,272445,587652,0,0,0,490,368,218,463,363,460,305,107,243,352,179,509,0,,,,,
2,1791322972480,-3450,-40622,20004,1789835,-240680,871093,0,0,0,134,89,80,191,101,211,334,287,166,225,248,146,0,,,,,
1,1791322972496,-890,-1306,15458,3207042,244346,605978,0,0,0,488,379,218,444,375,463,306,119,268,346,173,518,0,,,,,
2,1791322972496,-2450,248,20100,4159992,-1062905,799011,0,0,0,145,86,79,198,98,226,371,364,177,271,291,169,0,,,,,
1,1791322972512,-550,-1100,15893,3905872,193033,579100,0,0,0,481,389,216,438,370,465,274,112,266,334,173,512,0,,,,,
2,1791322972512,1823,33519,13869,5448917,-2803871,486248,0,0,0,154,87,88,211,95,244,399,372,196,301,325,194,0,,,,,
1,1791322972528,-579,-1062,16386,4658458,193033,553443,0,0,0,471,404,198,455,407,466,263,118,269,327,179,497,0,,,,,
2,1791322972528,1426,8939,18631,5131268,-2355496,610865,0,0,0,170,91,89,224,94,251,428,360,201,330,343,220,0,,,,,
1,1791322972544,-1177,-1660,17406,5475796,349414,554665,0,0,0,460,411,188,433,428,458,251,131,272,302,183,480,0,,,,,
2,1791322972544,-1268,-8054,22335,3626096,-1147204,906524,0,0,0,191,92,101,230,88,254,449,360,199,342,336,249,0,,,,,
1,1791322972560,-3699,-4278,20172,6312681,744033,695164,0,0,0,443,394,183,399,394,438,225,117,231,279,175,458,0,,,,,
2,1791322972560,-2182,-3316,16377,1784948,-554665,516791,0,0,0,208,94,130,228,78,261,464,353,213,339,329,284,0,,,,,
1,1791322972576,-5403,-7494,25680,6994406,1156978,960280,0,0,0,422,363,177,370,342,405,228,104,191,258,155,435,0,,,,,
2,1791322972576,-526,2775,10284,748920,-315206,-39095,0,0,0,231,100,146,224,76,267,475,363,226,350,334,323,0,,,,,
1,1791322972592,-5618,-8423,30978,7542963,1492954,1219287,0,0,0,384,328,172,326,305,360,257,114,187,224,137,414,0,,,,,
2,1791322972592,1153,2349,9681,563217,-200363,-147829,0,0,0,246,100,160,231,77,271,482,364,227,368,347,343,0,,,,,
1,1791322972608,-6546,-5987,33208,8374962,1544267,1513724,0,0,0,300,280,164,286,277,308,273,118,169,204,125,367,0,,,,,
2,1791322972608,1182,818,10619,466701,-100181,-31764,0,0,0,246,102,169,233,76,283,490,370,225,361,338,351,0,,,,,
1,1791322972624,-7647,-1182,31538,8976053,1740965,1896125,0,0,0,218,239,160,278,235,277,312,138,171,204,134,240,0,,,,,
2,1791322972624,756,818,10696,342084,-21991,39095,0,0,0,257,107,182,245,91,293,496,354,229,365,333,358,0,,,,,
1,1791322972640,-8413,3699,23282,8221024,2373822,2186897,0,0,0,224,239,159,287,237,285,288,122,163,206,133,247,0,,,,,
2,1791322972640,827,1560,10088,263893,-9773,23212,0,0,0,268,111,191,248,91,300,509,346,232,349,341,361,0,,,,,
1,1791322972656,-8346,5441,14347,6140417,2147802,2089159,0,0,0,223,234,159,283,229,279,295,124,165,202,130,242,0,,,,,
2,1791322972656,947,1608,9920,256563,-46425,15882,0,0,0,269,129,199,253,101,300,512,354,230,336,322,367,0,,,,,
1,1791322972672,-5494,6432,11208,2737898,1005484,1346346,0,0,0,223,230,159,279,222,274,303,127,167,199,127,238,0,,,,,
2,1791322972672,880,1430,9997,250454,-64751,23212,0,0,0,289,121,224,259,94,306,518,326,235,329,280,378,0,,,,,
1,1791322972688,-3082,6791,11021,-703716,475253,401949,0,0,0,225,224,158,275,220,269,304,131,167,200,127,236,0,,,,,
2,1791322972688,780,1411,10069,244346,-51312,21991,0,0,0,280,116,238,264,94,313,506,334,234,330,275,389,0,,,,,
1,1791322972704,-3287,5379,10658,-2687807,620639,-329867,0,0,0,217,218,158,261,215,269,323,138,180,203,128,239,0,,,,,
2,1791322972704,760,1474,10007,265115,-21991,6108,0,0,0,284,126,225,260,103,316,497,288,240,308,252,402,0,,,,,
1,1791322972720,-4029,4508,8341,-2880840,599869,-450818,0,0,0,222,215,161,269,213,272,317,134,174,204,129,237,0,,,,,
2,1791322972720,794,1421,9954,296880,-2443,-3665,0,0,0,288,123,213,262,105,319,495,260,245,299,234,407,0,,,,,
1,1791322972736,-3699,4857,6479,-3031113,496022,-317649,0,0,0,225,212,168,261,204,268,316,129,171,204,128,235,0,,,,,
2,1791322972736,871,1335,9954,322536,1221,-15882,0,0,0,286,123,209,264,103,321,498,250,257,289,209,415,0,,,,,
1,1791322972752,-3249,5632,6207,-3584557,518013,-100181,0,0,0,225,208,167,267,204,272,250,96,134,207,130,235,0,,,,,
2,1791322972752,957,1258,9954,334754,-3665,-30543,0,0,0,297,122,202,276,109,330,495,248,257,270,191,430,0,,,,,
1,1791322972768,-3981,5546,6800,-4616919,477696,85521,0,0,0,224,204,163,278,206,276,255,99,138,207,128,235,0,,,,,
2,1791322972768,976,1210,9944,332310,-23212,-35430,0,0,0,310,130,198,288,111,340,503,227,247,261,172,437,0,,,,,
1,1791322972784,-4747,4694,7619,-5525886,182037,216246,0,0,0,219,201,160,269,199,272,330,134,180,206,127,234,0,,,,,
2,1791322972784,981,1177,9954,328645,-51312,-36651,0,0,0,310,136,197,290,110,344,512,199,246,255,145,441,0,,,,,
1,1791322972800,-4627,3675,8322,-6003583,-191811,227241,0,0,0,216,199,157,263,194,271,337,137,184,208,130,235,0,,,,,
2,1791322972800,976,1134,10002,335975,-79412,-41538,0,0,0,303,128,184,287,114,343,496,188,260,237,125,452,0,,,,,
1,1791322972816,-3996,3000,8978,-6277251,-445931,3665,0,0,0,223,195,159,276,196,279,328,132,181,208,129,236,0,,,,,
2,1791322972816,966,1076,10045,351858,-95294,-62308,0,0,0,304,125,160,289,120,344,473,173,275,219,109,467,0,,,,,
1,1791322972832,-3756,2230,9691,-6544810,-605978,-448375,0,0,0,218,195,159,263,191,278,339,139,187,212,129,239,0,,,,,
2,1791322972832,976,1009,10098,371406,-114842,-90408,0,0,0,322,119,136,299,133,351,464,162,271,199,84,483,0,,,,,
1,1791322972848,-4460,1091,10490,-6707300,-899193,-962723,0,0,0,217,194,158,264,191,277,343,138,187,214,130,243,0,,,,,
2,1791322972848,995,947,10122,411723,-136833,-120951,0,0,0,328,116,125,299,137,350,461,152,279,194,72,486,0,,,,,
1,1791322972864,-5719,349,11485,-6728069,-1510058,-1343903,0,0,0,218,194,157,268,192,278,345,138,189,217,130,246,0,,,,,
2,1791322972864,1014,871,10141,477696,-156381,-152716,0,0,0,321,118,121,310,143,363,461,132,290,187,61,498,0,,,,,
1,1791322972880,-5594,95,12845,-6616892,-2164906,-1440420,0,0,0,219,195,157,271,193,278,348,141,191,217,130,240,0,,,,,
2,1791322972880,1143,780,10265,561996,-168598,-194255,0,0,0,315,112,121,314,134,363,477,124,291,194,63,519,0,,,,,
1,1791322972896,-4819,14,14261,-6547253,-2405587,-1370781,0,0,0,219,200,158,272,197,282,349,140,195,216,130,240,0,,,,,
2,1791322972896,1311,674,10380,657290,-175929,-260228,0,0,0,307,114,118,317,138,385,475,126,298,196,66,529,0,,,,,
1,1791322972912,-4752,-52,15931,-6542366,-2428800,-1141096,0,0,0,223,203,157,276,197,283,353,133,192,221,127,240,0,,,,,
2,1791322972912,1354,545,10466,755029,-169820,-350636,0,0,0,313,110,119,307,135,399,458,127,307,180,59,534,0,,,,,
1,1791322972928,-4465,-315,18042,-6571688,-2566855,-860098,0,0,0,224,212,157,278,200,285,352,133,191,221,129,240,0,,,,,
2,1791322972928,1234,392,10557,845437,-122173,-443488,0,0,0,329,121,121,328,153,395,435,120,296,171,48,543,0,,,,,
1,1791322972944,-3187,-1713,20741,-6685309,-2748893,-693942,0,0,0,230,221,162,292,208,292,347,133,190,221,132,245,0,,,,,
2,1791322972944,1225,239,10672,951728,-24434,-508239,0,0,0,340,132,119,335,170,408,436,118,300,182,61,561,0,,,,,
1,1791322972960,-1502,-6121,24158,-6787934,-2896722,-841772,0,0,0,229,226,163,297,212,294,327,125,180,217,131,244,0,,,,,
2,1791322972960,1134,134,10696,1083674,65973,-565661,0,0,0,360,147,120,334,194,429,435,125,323,186,79,582,0,,,,,
1,1791322972976,387,-13486,27662,-6767165,-3164281,-976162,0,0,0,219,228,159,285,211,291,329,128,184,216,131,244,0,,,,,
2,1791322972976,823,71,10935,1230282,116064,-570548,0,0,0,383,154,126,332,188,432,431,123,355,192,71,592,0,,,,,
1,1791322972992,4690,-24469,30007,-6494719,-3436727,-718377,0,0,0,212,228,157,275,210,289,343,137,195,216,133,246,0,,,,,
2,1791322972992,770,-4,11730,1433089,125838,-533896,0,0,0,401,177,134,342,188,429,411,126,371,219,80,606,0,,,,,
1,1791322973008,11806,-35127,28221,-5615073,-2803871,-85521,0,0,0,214,228,159,273,209,292,346,139,197,216,134,245,0,,,,,
2,1791322973008,1091,-148,12897,1738522,116064,-510683,0,0,0,408,186,136,362,201,432,392,137,362,228,88,620,0,,,,,
1,1791322973024,15295,-43584,24015,-4211304,-1216843,422718,0,0,0,217,225,158,278,205,297,347,140,192,231,145,242,0,,,,,
2,1791322973024,1201,-282,13955,2167349,136833,-530231,0,0,0,416,188,137,360,205,442,374,136,325,213,79,630,0,,,,,
1,1791322973040,10346,-49260,19908,-2338392,709825,741590,0,0,0,212,215,147,292,203,291,350,169,181,271,206,234,0,,,,,
2,1791322973040,1062,-330,14922,2764776,182037,-549778,0,0,0,426,215,143,336,215,446,345,128,287,203,84,637,0,,,,,
1,1791322973056,7322,-50911,19205,64751,1876578,737925,0,0,0,181,214,126,284,218,281,362,258,172,319,319,208,0,,,,,
2,1791322973056,631,-296,15166,3323106,243124,-538783,0,0,0,430,230,143,323,238,438,318,132,288,195,101,633,0,,,,,
1,1791322973072,6915,-30854,19100,3279124,2345722,-65973,0,0,0,196,214,97,300,213,283,354,263,149,376,355,213,0,,,,,
2,1791322973072,-430,-320,15233,3903428,329867,-427605,0,0,0,437,215,136,306,229,439,286,127,295,181,96,624,0,,,,,
1,1791322973088,2861,11931,18635,5258327,1693318,-945619,0,0,0,206,216,125,310,215,307,367,279,165,392,377,240,0,,,,,
2,1791322973088,-823,-531,15668,4465424,382401,-223576,0,0,0,415,208,140,312,249,443,222,113,272,161,94,602,0,,,,,
1,1791322973104,1335,18497,20655,5327966,928515,-711047,0,0,0,214,218,133,317,216,317,370,265,151,404,389,258,0,,,,,
2,1791322973104,143,-1115,16951,5077511,343306,-59864,0,0,0,409,220,145,303,250,418,199,113,289,160,86,556,0,,,,,
1,1791322973120,1124,-1153,20693,3756821,646295,161268,0,0,0,223,216,142,315,211,322,350,254,148,392,385,271,0,,,,,
2,1791322973120,2053,-2191,18851,5709146,224798,-21991,0,0,0,409,229,138,333,239,386,194,117,248,160,79,512,0,,,,,
1,1791322973136,-186,-4828,15735,2293188,311541,500909,0,0,0,226,209,146,317,210,322,396,300,172,408,387,270,0,,,,,
2,1791322973136,5427,-4044,21875,6280916,174707,-222354,0,0,0,370,204,133,272,214,349,188,111,235,173,90,477,0,,,,,
1,1791322973152,-1210,2000,8810,1712866,-3665,376292,0,0,0,229,214,167,302,203,329,407,303,176,416,390,284,0,,,,,
2,1791322973152,8021,-5283,26388,6827029,285884,-649960,0,0,0,332,166,124,229,160,287,187,109,202,135,59,394,0,,,,,
1,1791322973168,-1363,2919,8839,1764178,140499,381179,0,0,0,239,219,190,294,198,332,422,336,200,437,398,294,0,,,,,
2,1791322973168,7097,-4048,30236,7335269,305432,-1152091,0,0,0,267,123,113,199,123,240,187,98,167,128,69,307,0,,,,,
1,1791322973184,-1751,62,11801,1302364,513126,425162,0,0,0,260,229,218,299,202,337,437,372,226,445,401,303,0,,,,,
2,1791322973184,6661,-358,30366,7861835,80634,-1505171,0,0,0,184,86,97,163,88,203,190,103,152,97,45,171,0,,,,,
1,1791322973200,-1277,-813,12395,559552,564439,205250,0,0,0,279,240,245,305,210,340,440,378,229,447,402,315,0,,,,,
2,1791322973200,9078,4422,26053,8179485,373849,-1876578,0,0,0,158,82,94,156,77,201,193,114,154,84,38,132,0,,,,,
1,1791322973216,-646,234,10969,239459,290771,15882,0,0,0,290,250,260,304,220,337,439,375,225,453,406,329,0,,,,,
2,1791322973216,9873,8892,16697,7422012,1176526,-2470339,0,0,0,163,79,94,161,77,204,196,116,154,81,47,131,0,,,,,
1,1791322973232,-650,995,10016,241902,37873,-19547,0,0,0,294,259,267,300,232,337,441,377,231,456,405,339,0,,,,,
2,1791322973232,6058,11643,11677,4395786,1056796,-2467895,0,0,0,168,82,99,163,76,201,200,116,156,90,52,139,0,,,,,
1,1791322973248,-827,799,10203,246789,-26878,13439,0,0,0,296,256,276,303,235,341,444,380,245,462,399,348,0,,,,,
2,1791322973248,2407,12337,11974,215024,0,-1512502,0,0,0,170,87,101,161,75,197,204,121,156,92,58,142,0,,,,,
1,1791322973264,-813,641,10308,196698,-69638,21991,0,0,0,307,249,282,307,225,344,445,383,249,461,392,355,0,,,,,
2,1791322973264,3082,9255,12830,-2245540,-1248608,-394618,0,0,0,170,87,100,161,76,197,203,121,155,93,57,140,0,,,,,
1,1791322973280,-789,713,10198,147829,-144164,15882,0,0,0,311,250,288,307,228,339,434,345,228,460,386,361,0,,,,,
2,1791322973280,5465,6652,9313,-2436130,-1321912,-123394,0,0,0,169,85,100,163,80,199,202,116,153,96,50,138,0,,,,,
1,1791322973296,-842,808,10126,151494,-205250,20769,0,0,0,311,255,280,308,229,333,433,344,229,459,376,363,0,,,,,
2,1791322973296,5044,6767,6063,-2522873,-659734,-206472,0,0,0,166,83,100,163,81,199,203,119,148,91,56,140,0,,,,,
1,1791322973312,-885,837,10117,182037,-246789,32986,0,0,0,325,268,278,308,246,333,433,338,228,457,367,363,0,,,,,
2,1791322973312,2641,7623,6030,-3473379,-367740,-157603,0,0,0,169,90,103,159,74,198,201,119,148,96,74,146,0,,,,,
1,1791322973328,-938,808,10088,228463,-266337,43982,0,0,0,324,261,285,308,233,339,432,321,233,455,348,372,0,,,,,
2,1791322973328,2124,7006,6867,-4561941,-619417,0,0,0,0,167,86,97,160,71,198,198,110,147,87,64,136,0,,,,,
1,1791322973344,-1033,784,10026,261450,-267558,57421,0,0,0,316,261,291,309,238,344,430,306,237,455,338,383,0,,,,,
2,1791322973344,3268,5661,7011,-5188689,-731816,53756,0,0,0,162,83,96,165,74,202,174,92,141,83,50,140,0,,,,,
1,1791322973360,-1105,737,10026,285884,-239459,76969,0,0,0,315,274,287,313,252,350,426,292,238,445,326,390,0,,,,,
2,1791322973360,3799,4881,6915,-5435478,-291993,13439,0,0,0,164,91,102,164,73,201,216,116,163,101,46,137,0,,,,,
1,1791322973376,-1124,684,10016,312763,-200363,94073,0,0,0,323,281,299,317,250,357,424,282,243,436,313,394,0,,,,,
2,1791322973376,3426,4508,7508,-5627290,108734,76969,0,0,0,162,81,99,167,75,200,215,124,160,104,59,151,0,,,,,
1,1791322973392,-1115,636,9997,340862,-168598,106290,0,0,0,326,284,298,328,252,366,424,273,248,432,301,408,0,,,,,
2,1791322973392,3450,4077,8638,-5794667,302989,316428,0,0,0,162,87,103,168,78,203,217,117,162,102,65,148,0,,,,,
1,1791322973408,-1057,550,10045,371406,-160046,112399,0,0,0,326,303,304,334,267,375,422,259,252,424,285,415,0,,,,,
2,1791322973408,4154,3675,9964,-5919284,571769,625526,0,0,0,162,84,99,169,72,209,208,110,154,97,61,149,0,,,,,
1,1791322973424,-1038,521,10122,410501,-182037,107512,0,0,0,335,322,306,336,279,378,420,241,254,416,271,421,0,,,,,
2,1791322973424,4675,3278,11466,-6039013,990823,893084,0,0,0,162,82,100,168,75,208,216,114,167,109,58,154,0,,,,,
1,1791322973440,-1148,540,10198,481361,-212581,106290,0,0,0,356,335,295,342,282,377,423,225,255,408,257,433,0,,,,,
2,1791322973440,4833,2703,13242,-6205169,1362229,1099557,0,0,0,158,84,101,164,69,204,217,120,165,99,57,152,0,,,,,
1,1791322973456,-1225,440,10256,592539,-232128,128281,0,0,0,376,346,289,357,285,382,424,208,252,395,240,440,0,,,,,
2,1791322973456,5144,2311,14979,-6324898,1607797,1197295,0,0,0,158,88,102,168,76,206,217,122,164,96,63,144,0,,,,,
1,1791322973472,-1206,239,10299,698829,-271224,161268,0,0,0,391,342,297,373,289,395,415,190,255,385,226,443,0,,,,,
2,1791322973472,5345,2072,17238,-6399424,1815491,1192408,0,0,0,159,88,101,172,81,209,223,126,169,102,66,150,0,,,,,
1,1791322973488,-1320,86,10323,769690,-317649,191811,0,0,0,417,355,319,375,299,402,428,198,280,383,218,448,0,,,,,
2,1791322973488,4828,1081,20181,-6498384,1937664,1218065,0,0,0,159,84,101,171,78,210,223,122,165,106,61,154,0,,,,,
1,1791322973504,-1507,-4,10413,840550,-337197,240680,0,0,0,445,372,283,398,322,414,416,174,259,363,202,453,0,,,,,
2,1791322973504,4000,-1569,23029,-6618113,1940107,1367116,0,0,0,157,79,102,167,74,208,214,116,160,99,46,149,0,,,,,
1,1791322973520,-1593,-119,10648,929736,-355523,311541,0,0,0,451,378,273,394,319,419,442,169,274,339,183,469,0,,,,,
2,1791322973520,3259,-6872,24996,-6593679,1953547,1543045,0,0,0,156,86,105,168,77,211,213,115,158,101,54,152,0,,,,,
1,1791322973536,-1765,-248,10911,1038470,-404392,388510,0,0,0,466,351,243,412,319,426,385,184,275,337,166,486,0,,,,,
2,1791322973536,1450,-14998,26944,-6377433,2090380,1496619,0,0,0,158,100,107,170,78,212,219,114,158,111,76,159,0,,,,,
1,1791322973552,-1971,-435,11127,1165530,-455705,485026,0,0,0,457,387,256,439,344,437,396,128,227,369,179,466,0,,,,,
2,1791322973552,-3038,-25336,28480,-5886297,2037846,1032362,0,0,0,156,100,105,169,73,208,221,111,160,110,75,159,0,,,,,
1,1791322973568,-1713,-626,11040,1295034,-488692,551000,0,0,0,464,371,230,442,358,439,359,94,209,372,177,472,0,,,,,
2,1791322973568,-7585,-34797,26465,-4951673,1105666,486248,0,0,0,153,94,103,171,80,211,221,108,156,107,63,150,0,,,,,
1,1791322973584,-1229,-741,11098,1436755,-498466,537561,0,0,0,464,381,205,457,382,441,372,103,218,363,180,476,0,,,,,
2,1791322973584,-6695,-41057,22632,-3980397,-149051,164933,0,0,0,156,92,102,172,84,210,231,125,168,103,57,146,0,,,,,
1,1791322973600,-1411,-861,12050,1668883,-469144,452040,0,0,0,466,388,198,450,377,451,376,105,234,362,177,483,0,,,,,
2,1791322973600,-2244,-45910,18190,-2561968,-908967,-90408,0,0,0,153,90,109,174,76,209,246,140,168,113,80,150,0,,,,,
1,1791322973616,-1971,-1028,13452,2043955,-408057,419053,0,0,0,472,384,205,437,369,451,351,102,238,348,170,490,0,,,,,
2,1791322973616,-2727,-47757,16817,-445931,-806342,-67195,0,0,0,130,80,80,190,94,208,323,218,168,200,167,147,0,,,,,
1,1791322973632,-2124,-1167,14749,2558303,-305432,439822,0,0,0,477,380,217,433,367,441,322,103,232,348,173,487,0,,,,,
2,1791322973632,-7992,-35927,19760,2483778,-636521,761138,0,0,0,129,85,69,191,96,222,360,290,183,252,258,166,0,,,,,
1,1791322973648,-2014,-1167,15774,3257133,-185703,454483,0,0,0,478,382,221,425,360,434,308,111,234,347,175,485,0,,,,,
2,1791322973648,-4541,-607,16381,4637688,-1386664,1458746,0,0,0,142,93,82,191,96,238,381,339,191,275,303,197,0,,,,,
1,1791322973664,-1856,-966,16444,3948632,-100181,459370,0,0,0,474,381,219,415,348,436,299,117,248,329,170,493,0,,,,,
2,1791322973664,-722,17353,15017,5525886,-2163684,1218065,0,0,0,166,101,92,213,93,242,410,372,190,318,360,206,0,,,,,
1,1791322973680,-1722,-598,17205,4698775,-29321,458148,0,0,0,466,386,210,419,351,433,273,115,252,325,168,484,0,,,,,
2,1791322973680,-1282,3029,19827,4831944,-2183232,431270,0,0,0,168,94,90,209,90,249,417,369,191,345,379,222,0,,,,,
1,1791322973696,-3129,-306,18310,5683490,183259,520457,0,0,0,445,409,183,420,365,430,251,118,243,308,167,464,0,,,,,
2,1791322973696,-1593,-4206,20555,3356093,-1420872,1221,0,0,0,178,95,99,204,80,249,427,363,193,343,361,245,0,,,,,
1,1791322973712,-5833,-847,20066,6663318,643851,783129,0,0,0,422,405,182,394,358,421,261,131,243,281,169,449,0,,,,,
2,1791322973712,-33,-1033,15223,2127032,-703716,-96516,0,0,0,201,97,114,203,79,251,446,395,210,345,380,273,0,,,,,
1,1791322973728,-7355,-3259,25963,7641924,1512502,1230282,0,0,0,410,353,178,354,335,379,262,125,206,256,156,434,0,,,,,
2,1791322973728,1052,2536,10323,1539380,-405614,-28099,0,0,0,226,96,126,210,78,253,464,394,210,368,383,297,0,,,,,
1,1791322973744,-7614,-6848,32825,8493470,2323731,1593136,0,0,0,361,305,176,322,302,342,266,113,177,229,136,408,0,,,,,
2,1791322973744,780,1167,10356,1149648,-395840,-57421,0,0,0,256,107,145,243,91,252,482,375,203,379,373,317,0,,,,,
1,1791322973760,-7250,-7126,34567,9217956,2431243,1872912,0,0,0,274,275,152,278,262,293,315,135,180,197,120,334,0,,,,,
2,1791322973760,531,-81,11289,702495,-332310,-79412,0,0,0,275,118,163,247,92,254,491,361,208,379,367,333,0,,,,,
1,1791322973776,-8628,-2632,31562,9657779,2563190,2151467,0,0,0,225,235,155,262,229,267,330,150,179,208,137,254,0,,,,,
2,1791322973776,574,387,10830,357967,-169820,-50090,0,0,0,284,122,169,224,81,259,491,358,213,383,364,347,0,,,,,
1,1791322973792,-11844,4489,21708,8934514,2274862,2449569,0,0,0,220,229,156,261,221,266,278,124,151,213,143,243,0,,,,,
2,1791322973792,713,990,10117,251676,-74525,-21991,0,0,0,297,125,177,227,83,260,492,361,210,380,356,363,0,,,,,
1,1791322973808,-10337,5403,14457,6737843,955393,2675589,0,0,0,225,224,158,271,222,271,283,125,156,208,139,238,0,,,,,
2,1791322973808,717,1043,9978,267558,-63529,-17104,0,0,0,313,130,190,229,85,265,502,354,209,367,335,375,0,,,,,
1,1791322973824,-5178,7011,10428,3114190,-105068,2274862,0,0,0,232,211,157,275,217,272,305,136,166,206,136,234,0,,,,,
2,1791322973824,641,899,10098,277332,-63529,-21991,0,0,0,320,136,193,237,107,278,514,348,208,359,319,379,0,,,,,
1,1791322973840,-2842,8236,9590,-620639,116064,1102000,0,0,0,239,207,161,273,208,273,315,134,173,203,131,233,0,,,,,
2,1791322973840,622,847,10117,279776,-51312,-26878,0,0,0,326,135,190,245,113,291,496,327,199,353,298,394,0,,,,,
1,1791322973856,-3350,7279,9026,-3170390,445931,-26878,0,0,0,236,202,159,265,203,271,321,136,177,206,130,234,0,,,,,
2,1791322973856,622,851,10074,279776,-23212,-29321,0,0,0,332,133,196,248,117,284,486,292,212,342,264,406,0,,,,,
1,1791322973872,-4742,5632,7456,-3830125,394618,-623082,0,0,0,230,198,153,265,203,269,311,142,177,211,133,238,0,,,,,
2,1791322973872,641,818,10040,280998,-2443,-34208,0,0,0,321,133,186,243,123,288,486,260,223,333,240,433,0,,,,,
1,1791322973888,-4355,5776,5733,-3892433,36651,-676838,0,0,0,230,199,156,272,205,271,290,135,170,211,133,239,0,,,,,
2,1791322973888,670,770,10040,284663,2443,-40317,0,0,0,345,155,205,259,139,312,489,247,211,314,228,443,0,,,,,
1,1791322973904,-3436,6307,5321,-4359134,-194255,-638965,0,0,0,224,197,160,267,200,270,293,123,157,211,136,239,0,,,,,
2,1791322973904,717,746,10040,311541,-1221,-47647,0,0,0,351,168,207,264,137,317,467,232,208,296,219,459,0,,,,,
1,1791322973920,-3000,6202,5987,-5087285,-219911,-553443,0,0,0,225,197,170,275,198,277,296,124,159,212,136,245,0,,,,,
2,1791322973920,741,684,10026,339641,-12217,-53756,0,0,0,359,158,210,268,144,325,465,209,215,284,193,473,0,,,,,
1,1791322973936,-3287,5393,6882,-5767789,-300545,-387288,0,0,0,215,194,165,260,192,273,346,143,189,214,131,245,0,,,,,
2,1791322973936,717,612,10021,340862,-17104,-51312,0,0,0,369,159,207,276,147,328,464,185,226,270,161,484,0,,,,,
1,1791322973952,-3216,4560,7872,-6342002,-591317,-215024,0,0,0,209,188,184,260,190,289,342,139,197,217,131,255,0,,,,,
2,1791322973952,727,564,10064,344527,-13439,-53756,0,0,0,373,175,196,285,165,329,461,179,235,259,142,501,0,,,,,
1,1791322973968,-2421,3852,8982,-6602231,-872315,-195476,0,0,0,217,193,168,271,195,277,313,127,173,215,131,248,0,,,,,
2,1791322973968,756,502,10141,367740,0,-72082,0,0,0,384,184,190,285,180,341,449,160,246,237,118,513,0,,,,,
1,1791322973984,-1909,3139,10131,-6720739,-1076344,-288328,0,0,0,220,198,159,268,196,278,297,117,163,216,133,246,0,,,,,
2,1791322973984,794,425,10208,408057,15882,-101403,0,0,0,391,184,174,306,191,345,438,150,249,231,109,534,0,,,,,
1,1791322974000,-1938,2445,11232,-6710965,-1276708,-417831,0,0,0,222,201,156,265,191,277,332,135,183,219,134,251,0,,,,,
2,1791322974000,885,354,10284,467922,36651,-138055,0,0,0,401,183,152,318,208,351,433,150,248,221,109,545,0,,,,,
1,1791322974016,-2153,1943,12447,-6701191,-1535715,-487470,0,0,0,218,198,156,267,194,279,340,139,188,220,136,249,0,,,,,
2,1791322974016,990,287,10394,548556,81855,-188146,0,0,0,418,187,136,314,220,359,428,152,252,209,110,553,0,,,,,
1,1791322974032,-2656,1765,13792,-6734178,-1879021,-398284,0,0,0,218,196,159,276,198,282,321,129,179,221,136,249,0,,,,,
2,1791322974032,1110,148,10562,658512,169820,-256563,0,0,0,429,194,129,318,227,364,420,147,255,204,111,570,0,,,,,
1,1791322974048,-2278,1579,15769,-6734178,-2224771,-139277,0,0,0,216,198,159,275,199,284,329,134,183,222,136,252,0,,,,,
2,1791322974048,1287,-4,10734,789237,248011,-329867,0,0,0,433,192,130,319,233,367,410,135,255,197,100,580,0,,,,,
1,1791322974064,-1368,1330,18147,-6723182,-2340835,70860,0,0,0,221,205,165,283,203,288,326,134,181,222,135,255,0,,,,,
2,1791322974064,1488,-124,10897,932180,306654,-404392,0,0,0,447,189,135,313,229,365,396,137,262,199,85,590,0,,,,,
1,1791322974080,-502,311,21091,-6803817,-2262644,0,0,0,0,225,214,168,292,208,290,291,116,160,221,137,256,0,,,,,
2,1791322974080,1555,-224,11198,1133765,365297,-502131,0,0,0,467,196,141,310,220,365,375,137,256,192,77,590,0,,,,,
1,1791322974096,129,-2699,24489,-6943094,-2379930,-475253,0,0,0,218,220,162,284,208,287,289,116,159,219,139,253,0,,,,,
2,1791322974096,1493,-406,11251,1342681,373849,-572991,0,0,0,482,206,137,324,239,368,368,142,261,212,85,608,0,,,,,
1,1791322974112,1397,-9571,28327,-6973637,-2864957,-1164309,0,0,0,208,221,158,273,206,287,339,140,190,219,138,248,0,,,,,
2,1791322974112,1316,-564,11079,1499063,293215,-604756,0,0,0,491,251,139,334,241,372,366,142,261,248,110,610,0,,,,,
1,1791322974128,6010,-21138,31074,-6675535,-3042108,-1325577,0,0,0,207,223,160,274,207,289,345,144,195,221,141,249,0,,,,,
2,1791322974128,1397,-670,11533,1632231,179594,-614530,0,0,0,502,252,138,309,236,368,363,147,264,197,70,628,0,,,,,
1,1791322974144,12299,-32868,29983,-5942497,-2234545,-999375,0,0,0,205,227,159,276,212,290,345,153,194,221,148,248,0,,,,,
2,1791322974144,1746,-756,12754,1880243,34208,-645073,0,0,0,525,232,132,325,279,378,341,152,289,197,91,640,0,,,,,
1,1791322974160,13606,-40291,24479,-4710992,-498466,-559552,0,0,0,209,228,163,275,210,294,345,141,194,223,141,251,0,,,,,
2,1791322974160,1756,-880,13993,2260201,-103847,-692721,0,0,0,550,241,143,316,268,367,328,155,266,217,100,647,0,,,,,
1,1791322974176,7705,-45541,19234,-3290120,1104444,-163711,0,0,0,220,226,163,293,210,293,321,130,177,233,149,249,0,,,,,
2,1791322974176,1273,-985,14922,2767219,-185703,-713490,0,0,0,540,223,140,311,237,367,340,199,295,222,98,648,0,,,,,
1,1791322974192,-598,-49102,15750,-1390329,1729970,388510,0,0,0,194,203,144,283,201,299,364,202,181,299,247,233,0,,,,,
2,1791322974192,961,-1009,15405,3273015,-199142,-682947,0,0,0,533,229,155,286,213,363,307,143,265,206,98,632,0,,,,,
1,1791322974208,3833,-41359,18047,1446528,1511280,401949,0,0,0,190,202,103,290,201,283,221,145,88,364,344,211,0,,,,,
2,1791322974208,904,-1000,15793,3897320,-199142,-629191,0,0,0,517,233,163,281,233,362,251,133,251,179,83,610,0,,,,,
1,1791322974224,5345,-10538,18411,4241848,2024407,-191811,0,0,0,199,203,115,300,192,301,308,228,125,408,382,230,0,,,,,
2,1791322974224,981,-947,16372,4489859,-256563,-577878,0,0,0,482,232,162,278,244,361,209,129,242,163,85,587,0,,,,,
1,1791322974240,2445,17549,20129,5027420,2619390,-442266,0,0,0,212,200,142,311,191,328,387,296,170,408,393,249,0,,,,,
2,1791322974240,2579,-1201,17592,5269323,-509461,-605978,0,0,0,442,226,152,269,233,353,188,121,231,154,82,553,0,,,,,
1,1791322974256,1962,10906,23225,4329812,2279749,-309097,0,0,0,214,196,163,311,193,336,415,334,209,404,392,263,0,,,,,
2,1791322974256,5068,-2282,19473,6048787,-901637,-844215,0,0,0,406,210,143,251,216,329,179,119,217,145,82,513,0,,,,,
1,1791322974272,1981,-2479,20296,2629163,1121548,-140499,0,0,0,222,204,175,320,210,342,412,322,211,413,392,298,0,,,,,
2,1791322974272,6704,-4254,23608,6664539,-1329242,-1273043,0,0,0,361,183,137,228,187,292,176,117,198,138,82,458,0,,,,,
1,1791322974288,1301,-1904,12864,1451415,316428,-45204,0,0,0,240,225,182,325,224,351,414,325,206,423,392,346,0,,,,,
2,1791322974288,7413,-5522,29356,7237531,-1662775,-1733635,0,0,0,304,149,127,202,145,255,178,109,173,128,69,373,0,,,,,
1,1791322974304,344,3369,7671,1159422,125838,63529,0,0,0,261,248,193,319,226,352,430,362,221,431,392,380,0,,,,,
2,1791322974304,7642,-4259,31586,7801970,-1588249,-2031737,0,0,0,236,115,113,175,109,221,185,101,147,111,64,259,0,,,,,
1,1791322974320,-272,2641,9145,1088561,280998,184481,0,0,0,286,262,206,326,234,352,430,359,217,440,393,403,0,,,,,
2,1791322974320,8528,148,28906,8246680,-1092227,-2298075,0,0,0,161,92,99,156,85,193,191,114,144,94,60,133,0,,,,,
1,1791322974336,-287,516,11375,718377,293215,149051,0,0,0,300,268,214,330,237,358,432,354,224,437,389,425,0,,,,,
2,1791322974336,9088,5776,21316,7766540,-542448,-2585181,0,0,0,160,88,101,162,85,205,189,110,147,88,70,145,0,,,,,
1,1791322974352,0,464,11328,406836,125838,56199,0,0,0,315,274,225,332,245,362,430,337,214,437,381,470,0,,,,,
2,1791322974352,7628,8777,12524,5280319,13439,-2533869,0,0,0,169,89,109,160,84,200,191,117,148,96,62,142,0,,,,,
1,1791322974368,-9,1282,10375,337197,-25656,32986,0,0,0,323,277,233,340,248,360,436,353,235,450,369,452,0,,,,,
2,1791322974368,4699,10629,9471,1508837,348193,-1696983,0,0,0,171,90,111,159,74,200,200,103,151,105,50,158,0,,,,,
1,1791322974384,-110,1579,10045,362853,-85521,52534,0,0,0,332,292,248,353,257,370,434,338,235,459,364,478,0,,,,,
2,1791322974384,2986,9906,10859,-1940107,107512,-311541,0,0,0,169,86,104,160,74,199,202,112,154,97,47,154,0,,,,,
1,1791322974400,-95,1464,10184,423940,-92851,73303,0,0,0,336,300,266,352,262,382,437,310,247,450,340,476,0,,,,,
2,1791322974400,4077,6345,10227,-3153286,-386066,711047,0,0,0,172,90,110,162,74,199,210,118,157,97,63,160,0,,,,,
1,1791322974416,-57,1363,10236,477696,-117286,81855,0,0,0,340,301,270,369,272,383,442,309,264,459,331,476,0,,,,,
2,1791322974416,4790,5005,7183,-2968805,-430049,963945,0,0,0,167,96,101,163,76,200,207,113,155,107,62,153,0,,,,,
1,1791322974432,-57,1220,10217,500909,-169820,91629,0,0,0,344,312,278,359,278,385,444,291,248,439,319,479,0,,,,,
2,1791322974432,4134,6049,5010,-2982244,-70860,923628,0,0,0,165,85,102,163,80,202,209,109,151,100,54,155,0,,,,,
1,1791322974448,-67,1091,10179,488692,-237015,116064,0,0,0,347,314,273,365,283,396,440,283,250,435,313,481,0,,,,,
2,1791322974448,2790,6853,5838,-3827681,245567,1014036,0,0,0,167,88,105,163,79,201,215,113,158,111,60,158,0,,,,,
1,1791322974464,-110,1043,10150,488692,-298102,150272,0,0,0,353,322,268,373,294,398,436,278,257,426,305,482,0,,,,,
2,1791322974464,2029,6417,7097,-4635245,259006,1152091,0,0,0,151,83,100,156,74,193,214,114,153,98,58,137,0,,,,,
1,1791322974480,-167,1043,10169,526565,-353080,200363,0,0,0,360,326,272,393,291,404,435,259,256,421,283,486,0,,,,,
2,1791322974480,2354,5154,7580,-5024977,164933,1187522,0,0,0,150,77,96,188,72,187,226,115,153,111,61,139,0,,,,,
1,1791322974496,-172,1234,10217,597426,-411723,250454,0,0,0,373,340,271,408,289,415,434,244,258,420,265,487,0,,,,,
2,1791322974496,2737,291,7580,-5038416,414166,541226,0,0,0,161,77,94,214,73,189,234,121,155,126,63,146,0,,,,,
1,1791322974512,-612,1536,10332,729373,-472809,300545,0,0,0,394,351,270,417,317,418,429,230,259,422,250,485,0,,,,,
2,1791322974512,1153,1842,7408,-5105611,890641,-445931,0,0,0,167,79,94,217,75,193,232,122,155,122,60,140,0,,,,,
1,1791322974528,-885,827,10538,864985,-535117,321315,0,0,0,408,350,270,433,340,419,415,192,239,427,236,488,0,,,,,
2,1791322974528,-976,6460,9791,-5914397,1138652,-398284,0,0,0,168,80,96,219,78,196,230,120,151,136,63,136,0,,,,,
1,1791322974544,-502,229,10461,908967,-631634,263893,0,0,0,410,359,260,437,311,430,397,149,206,421,238,492,0,,,,,
2,1791322974544,-4,5819,11825,-6537479,918741,783129,0,0,0,167,78,97,218,77,196,232,121,149,154,68,139,0,,,,,
1,1791322974560,-641,315,10265,877202,-671951,190589,0,0,0,425,345,275,412,308,420,388,139,212,410,223,498,0,,,,,
2,1791322974560,2828,2785,11739,-6065891,1166752,1609019,0,0,0,167,82,98,211,76,199,235,124,159,121,63,153,0,,,,,
1,1791322974576,-1057,373,10251,864985,-627969,188146,0,0,0,429,347,259,413,315,415,356,128,201,374,203,528,0,,,,,
2,1791322974576,3216,2718,12806,-5734802,1661553,1838704,0,0,0,165,85,100,187,79,199,223,127,163,115,68,150,0,,,,,
1,1791322974592,-1244,148,10227,873537,-538783,255341,0,0,0,429,370,239,440,357,413,407,134,214,417,216,509,0,,,,,
2,1791322974592,2684,3871,15405,-6047565,1832595,1870469,0,0,0,155,84,96,170,77,202,222,125,159,105,75,155,0,,,,,
1,1791322974608,-1182,-129,10145,846659,-436157,312763,0,0,0,437,403,246,458,378,422,443,163,265,407,209,512,0,,,,,
2,1791322974608,3603,3177,17741,-6543588,1706757,1802052,0,0,0,153,85,104,168,77,204,223,125,158,104,71,161,0,,,,,
1,1791322974624,-1172,-301,10256,797790,-332310,339641,0,0,0,442,395,246,497,392,434,378,107,221,430,204,500,0,,,,,
2,1791322974624,4407,1186,20090,-6811147,1676214,1590693,0,0,0,155,85,102,172,76,203,223,124,158,110,67,158,0,,,,,
1,1791322974640,-1512,-325,10581,802676,-256563,372627,0,0,0,462,405,218,491,409,438,354,113,207,413,219,507,0,,,,,
2,1791322974640,4316,-2201,22163,-6731734,1712866,1441641,0,0,0,158,85,100,177,76,203,223,123,159,116,63,155,0,,,,,
1,1791322974656,-1890,-555,11007,900415,-204028,486248,0,0,0,467,401,212,474,435,439,377,122,213,413,230,521,0,,,,,
2,1791322974656,4029,-7255,24154,-6483723,1883908,1415985,0,0,0,149,78,98,170,79,207,222,122,166,102,49,153,0,,,,,
1,1791322974672,-1943,-813,11328,1027475,-158824,620639,0,0,0,462,399,212,471,435,453,376,132,225,404,232,525,0,,,,,
2,1791322974672,2282,-15324,26743,-6063448,2276083,1309695,0,0,0,146,82,96,170,80,208,226,114,162,97,57,153,0,,,,,
1,1791322974688,-1856,-918,11548,1187522,-98960,747699,0,0,0,462,407,218,464,422,467,381,137,237,409,229,523,0,,,,,
2,1791322974688,-2191,-24766,28901,-5611408,2249205,971275,0,0,0,148,85,101,170,77,208,225,116,160,104,62,150,0,,,,,
1,1791322974704,-1067,-751,11107,1400103,10995,840550,0,0,0,478,395,205,460,444,462,363,127,225,398,218,548,0,,,,,
2,1791322974704,-5508,-35237,26872,-4839274,1039692,515570,0,0,0,150,83,99,172,78,209,229,118,164,121,75,157,0,,,,,
1,1791322974720,291,-583,10782,1549154,74525,762359,0,0,0,493,386,195,465,454,456,363,129,228,391,213,561,0,,,,,
2,1791322974720,-3168,-43163,21105,-3613878,-204028,52534,0,0,0,151,82,97,172,77,209,244,129,169,116,78,160,0,,,,,
1,1791322974736,569,-631,11835,1743409,92851,566882,0,0,0,492,403,210,485,427,459,386,142,247,408,218,536,0,,,,,
2,1791322974736,124,-46484,15702,-1794722,-481361,-357967,0,0,0,151,84,99,174,79,207,261,147,169,124,90,153,0,,,,,
1,1791322974752,-990,-947,14008,2119702,157603,415388,0,0,0,487,405,213,505,429,457,338,121,218,401,219,533,0,,,,,
2,1791322974752,-3330,-45599,15735,51312,-161268,-204028,0,0,0,147,85,88,181,89,204,309,217,168,187,159,144,0,,,,,
1,1791322974768,-1986,-1253,15309,2689028,387288,463035,0,0,0,488,411,206,486,440,465,303,116,207,388,227,541,0,,,,,
2,1791322974768,-8289,-31457,20732,2406809,-708603,831998,0,0,0,146,84,80,192,94,215,367,308,178,258,256,159,0,,,,,
1,1791322974784,-1852,-1354,15750,3303559,643851,546113,0,0,0,477,395,217,468,415,439,266,95,186,377,204,522,0,,,,,
2,1791322974784,-5465,2345,19444,4684114,-2167349,1649336,0,0,0,156,87,87,202,90,235,396,347,192,295,323,198,0,,,,,
1,1791322974800,-1430,-1311,16037,3885102,781907,602313,0,0,0,475,348,214,495,349,425,258,90,186,391,171,506,0,,,,,
2,1791322974800,-1095,24345,16922,5759237,-3122743,1463633,0,0,0,170,94,86,208,85,240,419,361,192,343,361,221,0,,,,,
1,1791322974816,-1349,-1119,17252,4569271,794124,656069,0,0,0,454,374,198,435,403,404,254,108,198,343,171,495,0,,,,,
2,1791322974816,-2479,5149,22483,4980995,-2311514,806342,0,0,0,178,97,96,207,81,245,441,367,194,395,360,236,0,,,,,
1,1791322974832,-2263,-942,19430,5477017,889419,744033,0,0,0,438,381,190,410,367,397,260,113,209,305,157,458,0,,,,,
2,1791322974832,-2747,-6743,22569,3026226,-1450194,222354,0,0,0,192,91,103,211,72,243,469,377,212,380,365,254,0,,,,,
1,1791322974848,-4359,-1172,22790,6526484,1281595,984714,0,0,0,420,354,172,378,353,380,254,113,196,269,148,432,0,,,,,
2,1791322974848,-550,-1091,13424,1419650,-913854,-23212,0,0,0,222,98,130,209,60,242,469,379,192,376,360,267,0,,,,,
1,1791322974864,-5551,-2029,27604,7612602,1835039,1301142,0,0,0,381,330,163,351,321,354,249,108,172,239,135,412,0,,,,,
2,1791322974864,569,2885,8719,985936,-676838,-34208,0,0,0,245,106,164,212,68,247,490,371,205,413,364,275,0,,,,,
1,1791322974880,-4809,-4063,32720,8542339,2254092,1551597,0,0,0,312,287,158,312,277,314,303,131,181,218,128,378,0,,,,,
2,1791322974880,598,1569,9997,930958,-613308,-13439,0,0,0,259,114,188,215,83,255,482,371,197,418,371,277,0,,,,,
1,1791322974896,-5465,-5417,35295,8990714,3070208,1635897,0,0,0,257,243,162,285,229,281,333,143,187,214,129,296,0,,,,,
2,1791322974896,177,43,11490,652404,-496022,-2443,0,0,0,260,107,195,227,77,256,504,381,210,434,380,285,0,,,,,
1,1791322974912,-9590,-1612,28920,8497135,4080579,1640784,0,0,0,241,225,167,284,210,280,303,128,174,216,131,253,0,,,,,
2,1791322974912,62,617,10782,329867,-262672,-2443,0,0,0,261,110,203,219,75,258,493,379,198,434,377,289,0,,,,,
1,1791322974928,-10619,2613,17851,6596122,3591887,1461189,0,0,0,247,221,169,292,212,282,172,65,97,214,128,253,0,,,,,
2,1791322974928,196,1373,10035,216246,-117286,-8552,0,0,0,267,111,208,228,81,262,504,356,202,417,347,292,0,,,,,
1,1791322974944,-8327,5010,12854,3960850,2211332,910189,0,0,0,257,212,167,297,207,271,138,45,65,213,123,250,0,,,,,
2,1791322974944,191,1435,10050,246789,-63529,-19547,0,0,0,274,118,213,222,84,257,509,331,213,389,315,298,0,,,,,
1,1791322974960,-5388,6489,12141,663399,818559,8552,0,0,0,266,202,159,296,198,265,319,126,166,218,121,249,0,,,,,
2,1791322974960,181,1316,10160,298102,-34208,-30543,0,0,0,283,120,219,222,82,259,513,317,226,371,298,318,0,,,,,
1,1791322974976,-5264,5556,10126,-1330464,302989,-684169,0,0,0,259,197,154,287,193,261,335,133,174,221,119,247,0,,,,,
2,1791322974976,181,1273,10141,362853,-17104,-34208,0,0,0,289,116,222,230,77,273,517,287,229,349,269,324,0,,,,,
1,1791322974992,-5345,5173,6613,-1778839,-23212,-873537,0,0,0,254,197,154,289,192,266,334,133,177,223,121,251,0,,,,,
2,1791322974992,196,1263,10102,434936,-4886,-36651,0,0,0,290,119,222,234,83,282,511,255,223,324,233,326,0,,,,,
1,1791322975008,-4484,6398,4326,-2171015,-368962,-853989,0,0,0,249,198,156,289,192,267,310,141,187,220,120,251,0,,,,,
2,1791322975008,234,1172,10112,482583,0,-50090,0,0,0,298,127,223,242,94,288,498,236,228,306,218,342,0,,,,,
1,1791322975024,-3034,8140,4206,-3205820,-708603,-856433,0,0,0,242,198,150,293,194,269,323,125,167,225,122,251,0,,,,,
2,1791322975024,311,1062,10117,508239,-7330,-67195,0,0,0,307,135,226,254,107,297,473,220,247,293,203,354,0,,,,,
1,1791322975040,-1990,8155,5173,-4376238,-899193,-930958,0,0,0,242,207,158,303,200,271,307,117,159,225,126,251,0,,,,,
2,1791322975040,411,928,10107,530231,-51312,-85521,0,0,0,318,142,228,268,123,304,459,207,250,280,178,368,0,,,,,
1,1791322975056,-1253,7374,5953,-5187467,-935845,-956614,0,0,0,231,204,157,287,195,270,308,117,161,221,126,254,0,,,,,
2,1791322975056,378,827,10088,557109,-117286,-97738,0,0,0,334,140,230,286,129,309,484,191,241,268,157,386,0,,,,,
1,1791322975072,-1062,6599,6618,-5727472,-831998,-893084,0,0,0,224,203,153,286,195,274,319,128,169,221,129,252,0,,,,,
2,1791322975072,220,751,10126,576656,-151494,-100181,0,0,0,346,149,225,295,149,293,489,177,252,255,138,397,0,,,,,
1,1791322975088,-1679,6077,7547,-6157521,-883311,-728151,0,0,0,221,203,153,284,196,275,305,118,162,223,130,255,0,,,,,
2,1791322975088,143,689,10232,598647,-128281,-105068,0,0,0,353,157,235,295,163,309,484,171,257,242,123,424,0,,,,,
1,1791322975104,-2043,5302,8868,-6520375,-1174082,-502131,0,0,0,222,208,156,284,197,276,319,126,174,224,130,254,0,,,,,
2,1791322975104,201,598,10366,659734,-62308,-128281,0,0,0,357,179,223,285,175,324,469,150,261,222,108,452,0,,,,,
1,1791322975120,-1684,4465,10390,-6735400,-1494176,-304210,0,0,0,220,210,154,286,199,279,337,135,186,223,130,253,0,,,,,
2,1791322975120,306,478,10485,751364,1221,-163711,0,0,0,368,175,232,280,175,330,451,134,269,203,79,469,0,,,,,
1,1791322975136,-1445,3799,11782,-6902777,-1692096,-188146,0,0,0,218,210,153,286,201,282,344,139,190,223,129,253,0,,,,,
2,1791322975136,411,354,10557,866206,47647,-210137,0,0,0,376,183,236,284,189,346,439,131,265,200,96,484,0,,,,,
1,1791322975152,-1464,3115,13428,-7067710,-1874134,-120951,0,0,0,218,212,156,284,202,287,337,135,189,221,129,254,0,,,,,
2,1791322975152,473,191,10557,974940,86742,-259006,0,0,0,389,185,221,301,204,358,424,124,250,187,86,500,0,,,,,
1,1791322975168,-1794,2708,14955,-7090923,-2096489,-73303,0,0,0,217,214,158,284,202,290,333,133,188,220,131,254,0,,,,,
2,1791322975168,478,28,10595,1062905,135612,-299323,0,0,0,401,189,181,340,224,354,421,129,267,187,81,529,0,,,,,
1,1791322975184,-2043,2526,16956,-7053050,-2366491,-9773,0,0,0,217,215,158,286,204,291,325,128,180,224,132,257,0,,,,,
2,1791322975184,497,-124,10720,1137431,196698,-329867,0,0,0,414,196,152,326,233,350,418,125,266,189,83,543,0,,,,,
1,1791322975200,-2019,2565,20009,-7081149,-2568077,24434,0,0,0,220,217,158,293,209,293,296,110,160,225,132,258,0,,,,,
2,1791322975200,545,-277,10887,1236391,271224,-372627,0,0,0,425,196,131,328,236,364,412,123,278,203,95,560,0,,,,,
1,1791322975216,-1517,1277,24388,-7279070,-2571742,-250454,0,0,0,228,218,160,309,213,292,318,124,174,224,134,256,0,,,,,
2,1791322975216,536,-421,11088,1352455,342084,-417831,0,0,0,450,211,123,334,244,379,400,125,285,209,104,578,0,,,,,
1,1791322975232,-1119,-3000,29069,-7379252,-2626720,-950506,0,0,0,225,222,164,307,212,296,316,123,174,221,130,253,0,,,,,
2,1791322975232,392,-603,11040,1501506,384845,-442266,0,0,0,475,211,125,332,245,391,384,123,275,202,95,590,0,,,,,
1,1791322975248,583,-12864,33639,-7145901,-3155729,-1744631,0,0,0,226,223,164,312,213,295,309,121,170,229,133,253,0,,,,,
2,1791322975248,268,-727,11055,1648114,360410,-420275,0,0,0,480,201,133,333,241,390,373,129,273,202,82,603,0,,,,,
1,1791322975264,5374,-24316,35692,-6720739,-3330437,-2030516,0,0,0,215,223,157,296,209,289,317,121,171,229,133,252,0,,,,,
2,1791322975264,660,-804,11777,1799608,276111,-383623,0,0,0,487,221,142,335,258,383,359,135,273,249,90,601,0,,,,,
1,1791322975280,10748,-36410,32270,-5717698,-2174680,-2113593,0,0,0,211,222,161,298,210,297,299,112,162,229,134,253,0,,,,,
2,1791322975280,1316,-961,13170,2141693,167377,-425162,0,0,0,506,235,153,332,265,386,334,128,259,274,94,600,0,,,,,
1,1791322975296,4297,-43991,23847,-4017049,-368962,-1991420,0,0,0,220,224,163,309,216,301,312,120,170,231,135,258,0,,,,,
2,1791322975296,952,-1105,14161,2649933,106290,-497244,0,0,0,517,218,157,333,238,380,307,124,257,221,84,633,0,,,,,
1,1791322975312,-4345,-52849,16391,-1980425,251676,-762359,0,0,0,209,220,163,300,213,300,315,123,177,248,150,256,0,,,,,
2,1791322975312,129,-1158,14711,3192381,144164,-450818,0,0,0,514,211,147,331,233,370,276,115,248,225,94,637,0,,,,,
1,1791322975328,6140,-54175,16506,215024,-403171,772133,0,0,0,185,217,138,294,225,285,285,169,150,296,261,222,0,,,,,
2,1791322975328,531,-1296,15285,3771481,182037,-375071,0,0,0,513,220,158,299,245,367,241,119,243,191,89,631,0,,,,,
1,1791322975344,14601,-35290,20918,2541199,-73303,788016,0,0,0,180,209,105,304,218,276,329,251,145,344,360,206,0,,,,,
2,1791322975344,1335,-1325,15994,4350582,118507,-387288,0,0,0,496,230,169,286,223,368,214,129,252,188,79,615,0,,,,,
1,1791322975360,3287,13821,20205,4568050,1159422,163711,0,0,0,197,207,100,323,208,294,390,310,164,382,398,233,0,,,,,
2,1791322975360,2431,-1387,16937,5022533,-194255,-485026,0,0,0,464,232,164,276,238,364,185,116,222,159,91,560,0,,,,,
1,1791322975376,-7097,24225,15429,5585751,2266310,430049,0,0,0,214,214,118,338,223,318,370,314,158,411,430,262,0,,,,,
2,1791322975376,4536,-2091,18085,5776341,-603534,-726929,0,0,0,430,231,161,270,237,353,170,115,218,146,96,514,0,,,,,
1,1791322975392,-4718,2163,19176,5801998,1635897,134390,0,0,0,226,212,131,331,221,319,373,298,148,422,435,279,0,,,,,
2,1791322975392,5680,-3809,23096,6587570,-973719,-1153313,0,0,0,395,215,151,250,204,314,178,109,211,143,87,456,0,,,,,
1,1791322975408,2507,-7958,23613,3969402,68416,-229685,0,0,0,237,221,146,305,237,314,385,298,149,438,432,297,0,,,,,
2,1791322975408,5809,-5187,30313,7288844,-1253495,-1496619,0,0,0,329,169,137,213,150,266,190,112,192,139,86,380,0,,,,,
1,1791322975424,1378,-1627,18071,1955990,-370184,163711,0,0,0,260,243,177,336,253,334,386,293,153,437,422,317,0,,,,,
2,1791322975424,5599,-4848,35166,8002334,-1404990,-1722639,0,0,0,269,123,118,194,115,234,193,110,164,120,63,279,0,,,,,
1,1791322975440,-2440,3445,10485,856433,-210137,406836,0,0,0,292,261,210,336,245,333,429,352,202,434,425,344,0,,,,,
2,1791322975440,7221,-1871,33787,8561887,-1248608,-1866804,0,0,0,178,89,99,171,90,199,193,108,142,103,51,157,0,,,,,
1,1791322975456,-2579,1751,8944,660956,9773,207694,0,0,0,311,273,229,362,256,336,432,346,203,438,419,376,0,,,,,
2,1791322975456,9356,3685,25527,8414057,-883311,-2085493,0,0,0,168,94,106,183,97,191,199,113,147,96,55,130,0,,,,,
1,1791322975472,-1641,90,10390,537561,89186,62308,0,0,0,301,265,262,320,248,352,452,404,259,432,403,395,0,,,,,
2,1791322975472,9064,8088,14228,6707300,-454483,-2205223,0,0,0,175,95,112,175,90,197,200,114,153,99,50,135,0,,,,,
1,1791322975488,-1335,387,11050,371406,74525,20769,0,0,0,311,277,288,343,257,357,446,388,252,439,406,414,0,,,,,
2,1791322975488,5532,10078,10059,2432465,-202807,-1378111,0,0,0,171,88,107,165,83,199,204,116,154,97,45,137,0,,,,,
1,1791322975504,-1459,1229,10251,293215,70860,20769,0,0,0,321,277,293,342,259,363,441,368,254,461,388,424,0,,,,,
2,1791322975504,3900,9810,11619,-1549154,-469144,128281,0,0,0,171,86,106,167,84,199,209,115,157,94,48,142,0,,,,,
1,1791322975520,-1349,1392,9954,310319,53756,17104,0,0,0,330,283,288,354,263,366,445,359,260,455,358,438,0,,,,,
2,1791322975520,5742,7815,10854,-3042108,-630412,1053131,0,0,0,172,87,108,167,79,199,206,110,154,96,47,148,0,,,,,
1,1791322975536,-1186,1234,10193,360410,-43982,23212,0,0,0,346,297,261,362,269,369,443,341,255,446,332,449,0,,,,,
2,1791322975536,6613,6523,7714,-3401297,-310319,1248608,0,0,0,171,86,106,164,74,198,207,113,150,95,43,150,0,,,,,
1,1791322975552,-1143,1196,10342,406836,-179594,39095,0,0,0,359,310,246,374,276,370,425,284,226,426,318,459,0,,,,,
2,1791322975552,4757,6910,5350,-3696956,239459,928515,0,0,0,171,85,106,164,76,198,211,117,156,100,50,150,0,,,,,
1,1791322975568,-1268,1191,10260,470366,-311541,56199,0,0,0,372,319,246,388,285,374,411,235,209,415,303,463,0,,,,,
2,1791322975568,2895,7039,5484,-4416555,461814,714712,0,0,0,173,89,106,164,78,197,209,122,152,102,46,150,0,,,,,
1,1791322975584,-1512,1105,10126,544891,-393397,79412,0,0,0,381,323,267,397,289,382,414,227,228,415,282,460,0,,,,,
2,1791322975584,2211,6140,6613,-5182580,419053,572991,0,0,0,176,89,109,166,71,196,226,115,158,116,56,148,0,,,,,
1,1791322975600,-1636,966,10093,586430,-388510,106290,0,0,0,381,324,307,400,287,395,418,214,248,406,260,459,0,,,,,
2,1791322975600,2479,5355,6680,-5364618,455705,372627,0,0,0,170,82,103,170,77,203,218,109,154,98,49,151,0,,,,,
1,1791322975616,-1641,847,10093,604756,-366519,119729,0,0,0,393,331,331,397,293,412,407,176,240,393,239,459,0,,,,,
2,1791322975616,2488,5163,6853,-5514891,658512,189368,0,0,0,166,83,98,166,74,201,213,117,154,107,56,151,0,,,,,
1,1791322975632,-1631,765,10136,618195,-348193,118507,0,0,0,407,346,323,388,303,414,414,182,254,384,231,464,0,,,,,
2,1791322975632,2096,5369,7843,-5812993,979827,178372,0,0,0,166,83,98,171,76,205,216,118,167,97,59,145,0,,,,,
1,1791322975648,-1689,684,10236,649960,-348193,125838,0,0,0,415,355,265,396,330,410,397,159,220,379,225,452,0,,,,,
2,1791322975648,1794,4838,9370,-6061004,1214400,400727,0,0,0,168,86,105,172,80,206,220,119,159,97,45,145,0,,,,,
1,1791322975664,-1837,559,10342,720820,-359188,157603,0,0,0,419,364,249,393,322,409,412,148,255,368,202,463,0,,,,,
2,1791322975664,2014,4115,10691,-6123313,1392772,673173,0,0,0,168,88,105,171,76,202,222,117,162,105,51,154,0,,,,,
1,1791322975680,-2029,454,10433,788016,-333532,201585,0,0,0,435,364,241,426,333,427,409,133,247,371,189,463,0,,,,,
2,1791322975680,2502,3795,12021,-6145304,1601688,880867,0,0,0,169,84,102,176,80,205,220,115,160,114,53,156,0,,,,,
1,1791322975696,-2206,315,10500,853989,-230907,273667,0,0,0,438,359,245,434,344,430,414,146,286,360,179,468,0,,,,,
2,1791322975696,2699,3627,13936,-6301685,1839926,996932,0,0,0,170,86,103,176,81,206,227,118,162,114,58,156,0,,,,,
1,1791322975712,-2201,157,10504,939510,-117286,350636,0,0,0,442,383,236,438,365,438,419,157,293,354,180,474,0,,,,,
2,1791322975712,2809,3584,16482,-6537479,2012190,1070235,0,0,0,168,87,106,174,81,206,221,115,157,111,62,156,0,,,,,
1,1791322975728,-2124,-14,10447,1032362,-18325,399505,0,0,0,443,397,215,443,378,440,382,125,239,362,185,476,0,,,,,
2,1791322975728,2933,3216,19511,-6791599,2037846,1204626,0,0,0,170,87,108,175,82,207,216,115,156,107,60,155,0,,,,,
1,1791322975744,-2100,-177,10428,1105666,41538,438601,0,0,0,441,396,204,448,380,437,392,128,255,362,185,477,0,,,,,
2,1791322975744,3024,1517,22703,-6962641,2035402,1499063,0,0,0,168,88,109,176,85,211,223,122,168,108,65,159,0,,,,,
1,1791322975760,-2120,-335,10495,1161865,57421,482583,0,0,0,448,377,202,455,365,444,400,125,263,357,176,486,0,,,,,
2,1791322975760,3062,-2852,26384,-6962641,2125811,1952325,0,0,0,161,90,110,176,87,214,226,125,172,111,71,160,0,,,,,
1,1791322975776,-2029,-531,10614,1232726,47647,531452,0,0,0,457,363,190,451,371,448,376,110,249,354,179,494,0,,,,,
2,1791322975776,1813,-11337,30523,-6813590,2331061,2152689,0,0,0,156,90,106,174,84,210,220,118,165,110,65,161,0,,,,,
1,1791322975792,-1928,-760,10720,1336573,34208,569326,0,0,0,461,363,186,452,377,451,370,110,251,355,181,497,0,,,,,
2,1791322975792,-1804,-22493,33677,-6581462,2138028,1907121,0,0,0,155,91,103,172,80,207,222,116,165,108,58,167,0,,,,,
1,1791322975808,-1698,-938,10586,1450194,26878,581543,0,0,0,466,363,189,456,363,456,396,122,272,355,172,504,0,,,,,
2,1791322975808,-5020,-33184,32036,-5830097,941954,1411098,0,0,0,158,89,109,179,85,217,228,114,163,106,49,156,0,,,,,
1,1791322975824,-1273,-1072,10442,1552819,50090,552222,0,0,0,475,359,185,450,357,462,402,128,284,351,172,517,0,,,,,
2,1791322975824,-2014,-41722,25230,-4414112,-630412,1021366,0,0,0,147,86,103,179,85,214,232,117,170,105,53,154,0,,,,,
1,1791322975840,-1124,-1167,11122,1659109,117286,463035,0,0,0,476,365,196,458,364,470,355,114,256,349,175,512,0,,,,,
2,1791322975840,6183,-47269,16448,-2711019,-1031140,480140,0,0,0,150,88,113,181,84,220,236,123,178,99,52,155,0,,,,,
1,1791322975856,-1641,-1273,12620,1875356,191811,395840,0,0,0,478,371,202,457,376,458,344,121,258,349,180,507,0,,,,,
2,1791322975856,2732,-50954,13926,-933402,491135,-530231,0,0,0,151,88,108,189,76,219,238,122,168,110,66,159,0,,,,,
1,1791322975872,-2029,-1416,14180,2364048,265115,411723,0,0,0,480,386,206,453,390,463,343,125,259,350,182,506,0,,,,,
2,1791322975872,-11734,-47901,17520,962723,1098335,-795346,0,0,0,135,89,82,230,95,207,305,198,167,167,136,107,0,,,,,
1,1791322975888,-1612,-1493,15080,2987131,295658,428827,0,0,0,481,388,222,435,379,454,309,115,251,349,182,505,0,,,,,
2,1791322975888,-15884,-27260,23412,2776993,-682947,188146,0,0,0,141,81,77,197,86,207,376,277,164,266,267,159,0,,,,,
1,1791322975904,-1651,-1488,15611,3689626,283441,428827,0,0,0,476,402,219,434,401,446,260,99,226,344,193,500,0,,,,,
2,1791322975904,-416,20698,18741,4100127,-2474004,926071,0,0,0,156,88,84,213,89,234,406,325,180,329,305,192,0,,,,,
1,1791322975920,-2435,-1430,15726,4381125,257785,518013,0,0,0,476,387,199,436,380,447,268,105,244,329,178,496,0,,,,,
2,1791322975920,6867,34558,11351,5099503,-2948035,761138,0,0,0,161,92,87,212,91,242,419,370,190,335,375,209,0,,,,,
1,1791322975936,-2933,-1450,16305,5132489,265115,695164,0,0,0,453,382,195,440,381,455,277,123,273,310,168,479,0,,,,,
2,1791322975936,1698,4407,15199,5743354,-2020742,623082,0,0,0,171,94,91,213,83,245,450,358,196,356,389,218,0,,,,,
1,1791322975952,-4182,-1986,18339,5959601,421497,919963,0,0,0,435,382,190,422,376,442,213,94,213,283,160,458,0,,,,,
2,1791322975952,-4048,-9705,21875,4609589,-818559,645073,0,0,0,177,89,95,206,76,242,463,346,198,359,393,232,0,,,,,
1,1791322975968,-6135,-3713,23498,6856351,878424,1269377,0,0,0,421,358,179,386,355,405,227,110,195,258,154,436,0,,,,,
2,1791322975968,-2440,-2383,18262,2816088,-371406,41538,0,0,0,194,86,108,206,66,246,489,345,201,371,384,255,0,,,,,
1,1791322975984,-5814,-5752,29758,7557624,1341460,1510058,0,0,0,375,333,174,345,329,361,246,114,180,230,144,414,0,,,,,
2,1791322975984,1761,2617,12050,1721418,-331088,-235793,0,0,0,218,93,125,207,63,249,501,335,202,379,377,274,0,,,,,
1,1791322976000,-5058,-6049,33189,8265006,1457524,1576032,0,0,0,296,289,170,305,282,317,288,121,178,206,126,365,0,,,,,
2,1791322976000,2498,1134,9911,1136209,-384845,-61086,0,0,0,234,94,143,207,63,249,507,323,207,401,386,296,0,,,,,
1,1791322976016,-5680,-3235,32907,8841663,1450194,1654223,0,0,0,231,229,167,274,225,280,348,146,199,203,121,283,0,,,,,
2,1791322976016,1253,-378,10667,842994,-492357,61086,0,0,0,251,93,167,214,65,255,520,322,216,427,385,314,0,,,,,
1,1791322976032,-8738,2445,26944,8894197,1529606,1855808,0,0,0,213,201,165,265,197,261,343,142,189,213,131,227,0,,,,,
2,1791322976032,636,0,10734,569326,-533896,53756,0,0,0,274,107,190,223,74,264,513,320,218,417,363,318,0,,,,,
1,1791322976048,-10160,4675,17875,7487986,945619,2158797,0,0,0,222,204,154,274,200,257,307,125,162,216,131,225,0,,,,,
2,1791322976048,741,856,10222,412944,-486248,3665,0,0,0,286,111,197,224,76,268,507,308,214,397,354,329,0,,,,,
1,1791322976064,-7891,5532,11586,4844161,125838,2151467,0,0,0,223,203,147,276,200,254,295,115,148,216,128,222,0,,,,,
2,1791322976064,708,794,10112,375071,-408057,8552,0,0,0,301,118,204,230,85,274,511,294,219,383,336,335,0,,,,,
1,1791322976080,-3441,7327,9021,581543,-230907,1414763,0,0,0,227,197,150,283,199,256,292,111,147,214,126,223,0,,,,,
2,1791322976080,516,646,10236,350636,-300545,8552,0,0,0,304,117,206,230,84,277,513,292,227,389,309,364,0,,,,,
1,1791322976096,-2723,7001,9394,-2280970,244346,453262,0,0,0,223,194,145,278,194,255,284,109,143,216,126,223,0,,,,,
2,1791322976096,430,670,10236,342084,-169820,-15882,0,0,0,310,117,204,250,85,302,500,265,214,371,280,363,0,,,,,
1,1791322976112,-3670,5417,8327,-3682295,681725,-188146,0,0,0,224,193,150,279,194,257,227,86,118,216,125,225,0,,,,,
2,1791322976112,454,670,10150,354301,-65973,-36651,0,0,0,328,124,214,250,88,299,507,270,238,341,244,377,0,,,,,
1,1791322976128,-4546,5082,6006,-3860668,582765,-211359,0,0,0,231,194,152,290,194,261,290,118,159,215,121,225,0,,,,,
2,1791322976128,555,603,10093,381179,-2443,-48869,0,0,0,331,127,230,251,106,300,505,238,242,329,212,407,0,,,,,
1,1791322976144,-4819,5613,4948,-4318817,161268,-100181,0,0,0,223,191,149,282,190,261,335,133,175,220,124,228,0,,,,,
2,1791322976144,713,521,10083,409279,3665,-57421,0,0,0,338,124,221,247,102,315,481,210,242,306,189,424,0,,,,,
1,1791322976160,-4264,5924,5690,-4955338,-368962,-54977,0,0,0,220,188,144,279,187,264,348,136,180,224,128,231,0,,,,,
2,1791322976160,818,440,10078,422718,-48869,-74525,0,0,0,349,137,233,248,102,315,471,199,239,289,177,445,0,,,,,
1,1791322976176,-2962,6087,6609,-5466022,-785572,-142942,0,0,0,218,188,146,278,187,268,349,137,182,225,128,234,0,,,,,
2,1791322976176,732,363,10064,422718,-101403,-85521,0,0,0,355,139,229,251,114,321,467,184,249,271,155,457,0,,,,,
1,1791322976192,-1588,6001,7418,-5872858,-896750,-423940,0,0,0,222,190,152,280,185,268,348,135,180,227,128,234,0,,,,,
2,1791322976192,574,311,10050,406836,-109955,-78190,0,0,0,361,141,225,264,129,335,461,166,254,260,145,472,0,,,,,
1,1791322976208,-1526,5154,8714,-6356663,-850324,-850324,0,0,0,221,190,151,283,184,269,346,134,182,228,128,236,0,,,,,
2,1791322976208,545,287,10107,398284,-84299,-65973,0,0,0,370,146,220,261,130,336,455,154,262,237,119,480,0,,,,,
1,1791322976224,-1746,3886,9959,-6695083,-965167,-1177748,0,0,0,217,189,151,281,184,276,348,135,190,226,127,242,0,,,,,
2,1791322976224,660,234,10222,412944,-63529,-75747,0,0,0,379,145,214,260,133,333,451,151,268,213,101,490,0,,,,,
1,1791322976240,-1521,2579,11021,-6831916,-1259604,-1369559,0,0,0,217,188,159,279,181,281,354,137,197,228,129,248,0,,,,,
2,1791322976240,732,110,10260,443488,-61086,-101403,0,0,0,381,190,195,281,166,339,442,144,268,206,99,506,0,,,,,
1,1791322976256,-1675,2311,12222,-6851464,-1682322,-1334129,0,0,0,214,185,164,284,180,286,355,136,201,230,129,251,0,,,,,
2,1791322976256,789,9,10212,481361,-80634,-138055,0,0,0,385,223,164,305,195,356,427,135,266,196,92,516,0,,,,,
1,1791322976272,-1603,2541,13606,-6883229,-2018298,-1105666,0,0,0,210,184,161,291,181,291,354,135,201,228,126,249,0,,,,,
2,1791322976272,789,-52,10184,525344,-95294,-183259,0,0,0,393,191,137,308,187,369,418,131,263,186,83,522,0,,,,,
1,1791322976288,-894,2957,15381,-6983411,-2095267,-717155,0,0,0,215,189,172,286,184,295,357,137,205,229,129,254,0,,,,,
2,1791322976288,784,-167,10203,560774,-74525,-230907,0,0,0,397,184,127,306,177,370,419,126,270,214,86,538,0,,,,,
1,1791322976304,-636,3235,17779,-7188662,-1973094,-365297,0,0,0,217,190,174,282,184,294,357,133,204,232,130,256,0,,,,,
2,1791322976304,914,-291,10294,594982,-34208,-278554,0,0,0,405,183,126,312,182,376,419,133,281,223,76,540,0,,,,,
1,1791322976320,-942,3000,20961,-7367034,-1947438,-193033,0,0,0,214,190,173,282,184,296,359,136,206,230,129,254,0,,,,,
2,1791322976320,1167,-358,10677,696386,-13439,-354301,0,0,0,417,201,132,316,197,370,404,130,269,192,89,560,0,,,,,
1,1791322976336,-1296,1507,24914,-7505090,-1937664,-287106,0,0,0,218,195,178,292,192,299,323,122,185,229,130,254,0,,,,,
2,1791322976336,1220,-430,11179,880867,4886,-441044,0,0,0,427,234,129,313,208,386,396,134,274,199,95,576,0,,,,,
1,1791322976352,-1598,-3239,28734,-7491651,-1987755,-795346,0,0,0,211,196,175,287,195,299,345,130,198,229,131,256,0,,,,,
2,1791322976352,847,-550,11337,1148426,54977,-510683,0,0,0,443,186,129,318,207,385,385,144,275,196,74,587,0,,,,,
1,1791322976368,-469,-12715,31361,-7108027,-2222327,-1292590,0,0,0,209,200,175,286,198,299,355,136,206,230,133,257,0,,,,,
2,1791322976368,354,-626,11246,1385442,107512,-515570,0,0,0,463,200,141,316,202,413,380,169,296,201,87,602,0,,,,,
1,1791322976384,3105,-24704,32055,-6367659,-2166128,-1437976,0,0,0,207,208,174,287,201,301,357,138,207,229,134,256,0,,,,,
2,1791322976384,387,-660,11596,1579697,119729,-455705,0,0,0,488,195,147,324,203,407,357,153,284,207,89,618,0,,,,,
1,1791322976400,7063,-34998,28992,-5208237,-1376890,-1279151,0,0,0,207,214,175,286,203,302,355,142,207,229,135,257,0,,,,,
2,1791322976400,1076,-813,12682,1860695,61086,-442266,0,0,0,499,202,145,320,199,395,341,146,261,196,87,634,0,,,,,
1,1791322976416,6298,-40401,22483,-3556457,-191811,-1188743,0,0,0,207,217,174,286,204,303,356,142,209,231,138,259,0,,,,,
2,1791322976416,1340,-1028,13759,2273640,-1221,-489913,0,0,0,511,213,154,301,202,377,307,151,254,209,104,633,0,,,,,
1,1791322976432,2627,-42632,17348,-2039068,519235,-1027475,0,0,0,208,217,174,287,205,304,346,135,202,234,142,260,0,,,,,
2,1791322976432,1091,-1225,14587,2800206,-4886,-531452,0,0,0,523,208,155,297,200,372,280,155,257,198,96,630,0,,,,,
1,1791322976448,2579,-43579,15319,-445931,472809,-626747,0,0,0,208,219,178,286,204,305,332,128,195,242,147,260,0,,,,,
2,1791322976448,1167,-1416,15194,3370754,31764,-559552,0,0,0,532,214,155,291,217,375,256,129,254,185,74,625,0,,,,,
1,1791322976464,7217,-40890,15678,1218065,382401,-426383,0,0,0,192,215,166,287,212,300,340,169,181,286,219,241,0,,,,,
2,1791322976464,1521,-1564,15486,3957185,35430,-621860,0,0,0,514,265,154,292,240,383,233,114,251,179,81,613,0,,,,,
1,1791322976480,5977,-23402,18970,2712241,656069,-351858,0,0,0,166,204,123,295,224,290,358,262,153,363,358,207,0,,,,,
2,1791322976480,1201,-1536,16166,4510628,-144164,-700051,0,0,0,498,272,154,291,245,383,203,112,240,164,79,578,0,,,,,
1,1791322976496,-899,13644,18219,3849672,577878,360410,0,0,0,182,198,92,298,196,294,366,307,169,368,381,218,0,,,,,
2,1791322976496,1560,-1919,17659,5105611,-509461,-720820,0,0,0,482,246,151,281,250,365,178,108,229,150,75,546,0,,,,,
1,1791322976512,-5647,36788,11103,4818505,475253,1415985,0,0,0,203,205,105,319,220,317,403,365,193,397,420,256,0,,,,,
2,1791322976512,4742,-3153,18865,5707924,-896750,-841772,0,0,0,438,239,144,267,245,339,171,110,222,147,84,525,0,,,,,
1,1791322976528,-5948,10189,14041,5854532,79412,1138652,0,0,0,218,207,123,323,212,340,351,325,163,419,439,278,0,,,,,
2,1791322976528,7116,-4431,21780,6339559,-1071457,-1345125,0,0,0,384,209,144,244,206,314,171,110,202,136,75,478,0,,,,,
1,1791322976544,-3455,-10610,21684,5742133,-735481,-120951,0,0,0,225,187,113,333,195,347,420,368,201,445,448,295,0,,,,,
2,1791322976544,7121,-4915,27193,6954089,-1182635,-1841147,0,0,0,336,172,138,216,165,281,187,116,187,124,76,404,0,,,,,
1,1791322976560,-95,-6633,23086,4228409,-713490,-504574,0,0,0,241,190,117,338,194,357,420,341,192,456,452,334,0,,,,,
2,1791322976560,7159,-4168,31260,7569842,-1155757,-2183232,0,0,0,260,123,125,191,115,238,222,132,190,121,63,297,0,,,,,
1,1791322976576,-1311,320,16649,2004859,108734,189368,0,0,0,242,198,115,335,203,363,433,383,211,467,470,356,0,,,,,
2,1791322976576,7374,-1756,32577,7991339,-1227839,-2506990,0,0,0,166,91,111,168,79,203,190,114,154,95,39,144,0,,,,,
1,1791322976592,-2938,1253,10878,751364,525344,355523,0,0,0,260,216,120,353,231,368,412,336,200,479,478,393,0,,,,,
2,1791322976592,8834,3149,26484,7663915,-1320690,-2741563,0,0,0,154,81,110,162,72,206,184,97,152,91,44,146,0,,,,,
1,1791322976608,-2483,52,9183,538783,569326,61086,0,0,0,300,238,137,369,239,372,397,283,171,487,464,424,0,,,,,
2,1791322976608,8863,6537,17037,6142860,-899193,-2797762,0,0,0,162,83,114,159,70,202,184,96,150,98,55,146,0,,,,,
1,1791322976624,-1541,110,10342,657290,587652,-101403,0,0,0,340,260,165,382,245,381,401,260,162,488,445,438,0,,,,,
2,1791322976624,5068,8580,12385,2581516,-315206,-2054950,0,0,0,167,87,112,166,70,205,199,102,153,99,57,145,0,,,,,
1,1791322976640,-1311,545,10720,670730,662177,-68416,0,0,0,364,281,184,396,262,397,407,250,183,486,414,453,0,,,,,
2,1791322976640,3608,8336,12644,-631634,-579100,-581543,0,0,0,163,84,111,161,71,206,193,99,149,104,50,150,0,,,,,
1,1791322976656,-1052,497,10528,607200,635299,-14660,0,0,0,381,299,191,404,275,402,419,262,220,483,368,471,0,,,,,
2,1791322976656,5149,6604,10878,-2408030,-874759,737925,0,0,0,159,86,110,164,73,209,204,115,164,113,70,160,0,,,,,
1,1791322976672,-808,291,10457,547335,449596,0,0,0,0,398,312,209,404,281,398,421,255,230,480,329,477,0,,,,,
2,1791322976672,6470,6207,6896,-2500882,-497244,1159422,0,0,0,162,84,111,170,80,209,208,119,164,107,69,160,0,,,,,
1,1791322976688,-746,268,10476,518013,210137,15882,0,0,0,415,325,237,404,284,412,397,187,199,470,307,473,0,,,,,
2,1791322976688,5092,7245,5001,-2864957,217468,1154535,0,0,0,158,76,104,164,77,208,207,112,159,112,73,158,0,,,,,
1,1791322976704,-746,306,10528,521678,28099,35430,0,0,0,433,344,226,411,291,419,413,211,247,457,284,471,0,,,,,
2,1791322976704,3498,7379,5422,-3727499,612086,1174082,0,0,0,168,83,109,192,71,206,213,109,161,131,70,163,0,,,,,
1,1791322976720,-851,272,10576,548556,-124616,57421,0,0,0,433,352,206,442,319,413,405,168,238,462,248,474,0,,,,,
2,1791322976720,3110,6436,6331,-4483750,646295,1171639,0,0,0,175,88,113,215,73,208,195,88,152,127,49,155,0,,,,,
1,1791322976736,-1028,177,10509,538783,-171042,85521,0,0,0,433,373,187,450,339,427,421,209,263,404,238,464,0,,,,,
2,1791322976736,3517,5857,6422,-4840496,775798,993266,0,0,0,169,87,112,208,75,210,199,93,155,126,49,155,0,,,,,
1,1791322976752,-1009,110,10447,504574,-141720,102625,0,0,0,426,345,176,452,325,440,401,142,222,375,206,458,0,,,,,
2,1791322976752,3374,5958,6858,-5241223,1070235,748920,0,0,0,163,87,112,187,71,208,218,113,164,125,63,165,0,,,,,
1,1791322976768,-899,76,10461,487470,-124616,92851,0,0,0,426,344,190,448,312,451,417,155,280,355,175,456,0,,,,,
2,1791322976768,3034,5991,8006,-5761680,1246165,662177,0,0,0,158,82,111,169,73,209,216,118,166,111,67,168,0,,,,,
1,1791322976784,-957,-28,10648,536339,-185703,81855,0,0,0,427,345,197,448,319,446,404,140,254,345,157,452,0,,,,,
2,1791322976784,3192,5446,9533,-6262590,1408655,702495,0,0,0,155,78,110,169,80,214,217,119,172,102,63,165,0,,,,,
1,1791322976800,-985,-172,10973,679282,-267558,84299,0,0,0,427,336,198,447,313,438,404,121,261,334,145,455,0,,,,,
2,1791322976800,3560,4398,10868,-6426302,1601688,829554,0,0,0,155,84,110,171,75,216,222,115,174,94,54,154,0,,,,,
1,1791322976816,-1072,-301,10997,864985,-326202,86742,0,0,0,427,333,198,446,306,434,402,111,256,323,141,457,0,,,,,
2,1791322976816,3919,3905,11993,-6368880,1876578,954171,0,0,0,157,87,108,174,78,220,229,121,179,91,61,155,0,,,,,
1,1791322976832,-1359,-435,10643,1039692,-338419,108734,0,0,0,434,322,182,439,308,440,419,113,279,312,133,464,0,,,,,
2,1791322976832,4115,4087,13481,-6478836,2223549,1104444,0,0,0,156,87,111,180,76,219,223,115,174,98,61,164,0,,,,,
1,1791322976848,-1416,-569,10447,1097113,-310319,161268,0,0,0,436,319,189,441,317,449,419,117,297,307,132,467,0,,,,,
2,1791322976848,4312,3924,15539,-6768386,2484999,1270599,0,0,0,156,89,115,173,76,217,217,106,174,99,50,161,0,,,,,
1,1791322976864,-1301,-708,10447,1134987,-294437,207694,0,0,0,437,322,206,446,320,461,397,111,279,315,141,468,0,,,,,
2,1791322976864,4714,3575,17884,-6957755,2621833,1315803,0,0,0,156,82,113,173,77,224,227,121,179,110,60,169,0,,,,,
