sole_id,timestamp,accel_x,accel_y,accel_z,gyro_x,gyro_y,gyro_z,magn_x,magn_y,magn_z,pressure_01,pressure_02,pressure_03,pressure_04,pressure_05,pressure_06,pressure_07,pressure_08,pressure_09,pressure_10,pressure_11,pressure_12,corrupt,compact ground,transition,brick,asphalt,uneven modular paved,concrete
1,1791323333472,-1631,186,9006,219911,113620,102625,0,0,0,312,254,242,365,249,380,421,272,204,468,380,402,0,,,,,,
1,1791323333488,-1541,-488,9605,323758,-89186,-106290,0,0,0,345,271,284,373,264,403,392,200,159,468,364,432,0,,,,,,
1,1791323333504,-703,-516,10777,445931,42760,-92851,0,0,0,357,296,299,357,278,395,418,266,228,453,354,457,0,,,,,,
1,1791323333520,-574,-43,10442,368962,100181,-12217,0,0,0,367,303,289,361,279,394,429,273,253,435,331,467,0,,,,,,
1,1791323333536,-593,253,10145,345749,0,19547,0,0,0,382,314,295,369,290,399,438,264,265,427,292,468,0,,,,,,
1,1791323333552,-593,157,10189,392175,-158824,8552,0,0,0,389,327,289,369,311,399,441,259,277,401,272,466,0,,,,,,
1,1791323333568,-574,-71,10232,411723,-252898,8552,0,0,0,392,336,279,370,326,406,434,236,280,399,254,463,0,,,,,,
1,1791323333584,-531,-143,10217,417831,-324980,10995,0,0,0,401,330,271,382,314,412,433,209,287,394,220,463,0,,,,,,
1,1791323333600,-770,-134,10126,406836,-334754,10995,0,0,0,403,321,250,395,304,415,438,193,300,374,193,463,0,,,,,,
1,1791323333616,-1148,-215,10078,371406,-262672,42760,0,0,0,402,317,228,403,306,420,434,178,303,370,184,462,0,,,,,,
1,1791323333632,-1258,-344,10193,370184,-161268,106290,0,0,0,410,315,215,413,307,430,422,158,289,368,176,460,0,,,,,,
2,1791323333632,0,0,0,0,0,0,0,0,0,186,111,113,173,92,220,201,106,170,104,51,177,0,,,,,,
1,1791323333648,-1033,-402,10428,443488,-128281,157603,0,0,0,417,316,200,424,313,438,413,145,270,353,163,462,0,,,,,,
2,1791323333648,-536,-483,593,0,-7330,-9773,0,0,0,188,107,113,173,94,222,206,109,173,100,53,177,0,,,,,,
1,1791323333664,-655,-449,10509,565661,-162490,158824,0,0,0,420,316,189,433,318,434,409,145,261,350,156,468,0,,,,,,
2,1791323333664,-6949,-4230,9930,-565661,-532674,-794124,0,0,0,189,111,116,172,93,221,202,103,169,99,56,175,0,,,,,,
1,1791323333680,-674,-531,10370,631634,-196698,106290,0,0,0,423,323,198,432,313,441,388,99,210,357,159,469,0,,,,,,
2,1791323333680,-9954,-2282,19090,-2768441,-1148426,-1891238,0,0,0,191,117,117,173,90,222,200,105,170,92,47,170,0,,,,,,
1,1791323333696,-966,-636,10145,648738,-204028,84299,0,0,0,424,323,204,425,320,441,413,144,277,344,158,470,0,,,,,,
2,1791323333696,-6690,3546,21727,-5987701,-79412,-1312138,0,0,0,191,114,117,172,88,223,203,107,172,82,38,168,0,,,,,,
1,1791323333712,-1220,-756,10050,626747,-207694,125838,0,0,0,426,331,205,429,322,441,420,148,291,347,159,472,0,,,,,,
2,1791323333712,-3546,4570,21904,-7195992,1523497,-161268,0,0,0,182,106,116,171,89,222,203,100,169,91,46,175,0,,,,,,
1,1791323333728,-1440,-847,10064,621860,-207694,193033,0,0,0,428,335,203,441,347,450,412,138,273,349,159,470,0,,,,,,
2,1791323333728,-2737,2962,25130,-7286400,1896125,90408,0,0,0,173,98,110,171,89,218,197,97,166,114,54,178,0,,,,,,
1,1791323333744,-1488,-961,10107,647517,-195476,298102,0,0,0,437,334,212,435,351,462,378,101,231,341,165,478,0,,,,,,
2,1791323333744,-2546,-851,30523,-7402464,1538158,-32986,0,0,0,172,102,113,174,94,221,179,86,163,118,46,165,0,,,,,,
1,1791323333760,-1229,-1052,10160,685390,-191811,362853,0,0,0,447,335,214,452,343,456,388,105,238,355,159,482,0,,,,,,
2,1791323333760,-2115,-7054,34357,-7659028,1464854,86742,0,0,0,169,106,118,174,91,221,199,101,166,93,52,170,0,,,,,,
1,1791323333776,-990,-1110,10385,747699,-222354,393397,0,0,0,452,340,204,450,354,457,402,118,258,350,163,488,0,,,,,,
2,1791323333776,-1363,-16788,35778,-7601607,1279151,313984,0,0,0,170,106,118,169,86,216,201,100,165,98,59,172,0,,,,,,
1,1791323333792,-909,-1196,10696,880867,-296880,399505,0,0,0,460,340,204,450,347,456,409,117,265,344,160,497,0,x,,,,,
2,1791323333792,2579,-28260,32285,-6740287,390953,404392,0,0,0,160,97,115,170,86,226,217,106,175,104,49,176,0,x,,,,,
1,1791323333808,-622,-1316,10610,1011592,-372627,384845,0,0,0,470,339,204,457,339,451,386,108,259,352,155,504,0,,,,,,
2,1791323333808,7748,-40219,23565,-5187467,172263,243124,0,0,0,164,101,117,169,83,225,217,112,181,93,50,183,0,,,,,,
1,1791323333824,-162,-1430,10514,1111774,-436157,305432,0,0,0,483,347,192,454,345,458,362,105,259,349,157,516,0,,,,,,
2,1791323333824,4465,-50370,14989,-3233920,1771509,-343306,0,0,0,165,104,118,172,92,228,216,111,183,100,50,190,0,,,,,,
1,1791323333840,-516,-1502,11691,1265712,-493579,178372,0,0,0,491,358,194,451,358,467,359,111,264,342,164,524,0,,,,,,
2,1791323333840,-14060,-54950,15348,-1116661,2800206,-693942,0,0,0,154,100,114,176,86,223,234,127,179,109,65,176,0,,,,,,
1,1791323333856,-1100,-1521,13385,1590693,-536339,122173,0,0,0,491,360,213,452,371,463,324,108,246,351,175,523,0,,,,,,
2,1791323333856,-20832,-46451,19037,1216843,289550,-128281,0,0,0,154,98,94,190,88,216,311,218,175,202,162,148,0,,,,,,
1,1791323333872,-1359,-1545,14821,2153910,-487470,113620,0,0,0,500,361,217,441,365,461,263,91,220,356,176,532,0,,,,,,
2,1791323333872,-7800,-13754,19325,3665191,-2544864,460592,0,0,0,166,98,97,193,90,236,349,271,187,256,232,188,0,,,,,,
1,1791323333888,-1698,-1593,15764,2838079,-448375,125838,0,0,0,499,373,224,451,371,461,293,110,249,370,177,535,0,,,,,,
2,1791323333888,8356,30222,9715,5727472,-3838677,618195,0,0,0,175,108,99,201,96,253,378,327,197,279,321,217,0,,,,,,
1,1791323333904,-2455,-1507,16616,3646865,-502131,224798,0,0,0,490,374,212,443,392,450,291,121,266,349,190,528,0,,,,,,
2,1791323333904,5135,15750,9710,5959601,-3412293,956614,0,0,0,187,112,104,205,88,261,409,378,205,310,383,239,0,,,,,,
1,1791323333920,-2938,-1363,17965,4546059,-471587,449596,0,0,0,467,406,199,425,412,460,277,129,279,331,207,504,0,,,,,,
2,1791323333920,-3795,-6800,19526,5694485,-2535090,1337794,0,0,0,202,117,116,204,80,262,424,395,202,332,390,252,0,,,,,,
1,1791323333936,-3321,-1378,20033,5650503,-211359,713490,0,0,0,447,400,182,432,398,458,276,138,303,308,181,481,0,,,,,,
2,1791323333936,-7197,-9552,25072,4687779,-2109928,746477,0,0,0,195,108,116,199,74,253,445,389,204,342,381,260,0,,,,,,
1,1791323333952,-4742,-1713,23493,7043276,591317,1020144,0,0,0,425,370,176,406,367,436,252,130,256,272,165,454,0,,,,,,
2,1791323333952,-1320,-875,16802,2763554,-1693318,-167377,0,0,0,193,98,116,200,69,258,464,377,207,362,381,271,0,,,,,,
1,1791323333968,-5407,-4005,29590,8087855,1231504,1187522,0,0,0,397,342,173,373,340,398,274,128,228,246,150,428,0,,,,,,
2,1791323333968,1651,1981,9026,1425759,-1065348,-134390,0,0,0,226,109,131,213,79,276,463,375,199,372,378,283,0,,,,,,
1,1791323333984,-5049,-7154,35261,9132435,1375668,1262047,0,0,0,347,306,178,314,300,349,308,142,223,214,134,406,0,,,,,,
2,1791323333984,205,-473,8638,948062,-667064,196698,0,0,0,246,112,141,223,89,275,482,401,218,364,380,305,0,,,,,,
1,1791323334000,-5379,-2321,35951,10317513,1445307,1440420,0,0,0,261,256,179,283,245,305,306,132,195,202,124,301,0,,,,,,
2,1791323334000,-330,-1110,10677,597426,-527787,118507,0,0,0,272,127,167,229,107,284,485,401,231,364,384,316,0,,,,,,
1,1791323334016,-7547,7307,32912,10301631,1964542,1569923,0,0,0,225,219,177,274,217,290,329,135,194,206,126,252,0,,,,,,
2,1791323334016,-33,-244,10806,263893,-350636,10995,0,0,0,293,151,191,239,134,303,493,394,227,377,386,331,0,,,,,,
1,1791323334032,-11251,13840,22550,8159937,2302961,1580919,0,0,0,234,210,174,282,213,289,324,133,188,208,127,250,0,,,,,,
2,1791323334032,244,258,10088,155159,-199142,0,0,0,0,311,152,192,247,144,308,488,372,211,370,358,340,0,,,,,,
1,1791323334048,-12687,15721,12098,4769635,1442863,1546710,0,0,0,244,212,165,284,210,281,315,132,177,206,124,240,0,,,,,,
2,1791323334048,234,205,9935,150272,-109955,13439,0,0,0,314,150,185,254,145,304,485,335,205,375,358,356,0,,,,,,
1,1791323334064,-8863,15491,9207,85521,-96516,1064127,0,0,0,247,206,157,279,202,271,342,146,184,209,124,231,0,,,,,,
2,1791323334064,138,95,10141,172263,-59864,12217,0,0,0,330,151,185,254,145,291,495,325,219,370,316,365,0,,,,,,
1,1791323334080,-4546,12601,11639,-3259576,-12217,207694,0,0,0,252,202,155,286,196,269,333,140,175,211,124,231,0,,,,,,
2,1791323334080,167,138,10122,188146,-30543,-1221,0,0,0,336,165,193,263,160,296,488,297,217,355,287,383,0,,,,,,
1,1791323334096,-3718,9346,10825,-4320038,789237,-283441,0,0,0,248,197,153,276,186,265,283,117,148,216,127,234,0,,,,,,
2,1791323334096,220,148,10035,218689,-24434,-9773,0,0,0,346,168,196,276,174,304,487,272,210,347,266,391,0,,,,,,
1,1791323334112,-4843,7939,7619,-4172209,1295034,-318871,0,0,0,253,199,159,291,187,270,50,15,22,228,131,238,0,,,,,,
2,1791323334112,277,119,10021,257785,-32986,-19547,0,0,0,353,172,206,286,194,301,476,251,214,329,242,404,0,,,,,,
1,1791323334128,-4934,8427,6307,-4794070,937067,-215024,0,0,0,244,197,152,279,186,266,338,138,174,216,126,233,0,,,,,,
2,1791323334128,368,76,10059,291993,-43982,-39095,0,0,0,374,177,205,301,204,309,468,233,218,318,216,427,0,,,,,,
1,1791323334144,-4067,8068,7432,-5925392,434936,-177150,0,0,0,247,196,154,284,189,267,239,92,118,217,129,233,0,,,,,,
2,1791323334144,430,4,10088,322536,-69638,-70860,0,0,0,382,180,203,308,216,314,468,223,227,311,201,459,0,,,,,,
1,1791323334160,-3129,6073,9160,-6825808,147829,-101403,0,0,0,250,196,155,297,192,272,298,119,150,218,126,234,0,,,,,,
2,1791323334160,315,-114,10035,315206,-94073,-85521,0,0,0,384,219,204,308,233,326,456,206,237,282,176,476,0,,,,,,
1,1791323334176,-2560,4063,10279,-7182553,-12217,19547,0,0,0,240,193,153,283,188,269,314,121,157,217,125,233,0,,,,,,
2,1791323334176,177,-167,10002,282219,-91629,-85521,0,0,0,388,222,205,310,236,333,447,177,242,260,145,487,0,,,,,,
1,1791323334192,-2100,2675,11663,-7253413,-205250,43982,0,0,0,241,194,155,277,182,268,323,123,164,217,125,235,0,,,,,,
2,1791323334192,90,-172,10026,238237,-53756,-79412,0,0,0,394,202,202,314,235,334,435,150,241,249,125,506,0,,,,,,
1,1791323334208,-2435,1703,13735,-7376808,-450818,-30543,0,0,0,231,192,156,280,183,272,328,128,170,217,126,236,0,,,,,,
2,1791323334208,167,-191,10141,221133,-7330,-79412,0,0,0,405,213,192,315,249,345,420,135,245,226,111,521,0,,,,,,
1,1791323334224,-3498,1091,16123,-7506312,-841772,-86742,0,0,0,226,191,158,284,187,275,329,130,172,217,128,237,0,,,,,,
2,1791323334224,402,-239,10241,241902,23212,-96516,0,0,0,417,217,174,320,259,356,417,129,262,204,92,533,0,,,,,,
1,1791323334240,-3819,478,18339,-7551516,-1266934,-10995,0,0,0,227,192,159,285,188,277,327,128,171,218,128,239,0,,,,,,
2,1791323334240,713,-320,10366,306654,69638,-168598,0,0,0,435,227,154,338,261,358,399,121,262,208,85,557,0,,,,,,
1,1791323334256,-3785,-296,20971,-7514864,-1621236,102625,0,0,0,223,193,159,285,188,279,334,133,177,217,126,239,0,,,,,,
2,1791323334256,727,-406,10725,431270,195476,-256563,0,0,0,448,236,133,350,288,365,400,130,265,214,89,572,0,,,,,,
1,1791323334272,-3426,-1220,24814,-7457442,-1898569,98960,0,0,0,220,196,161,284,189,280,346,139,185,215,124,239,0,,,,,,
2,1791323334272,722,-502,11045,665843,432492,-340862,0,0,0,460,227,136,367,271,371,397,134,265,214,92,585,0,,,,,,
1,1791323334288,-2603,-3153,29298,-7517307,-2193006,-194255,0,0,0,218,196,167,285,192,284,340,133,183,215,123,241,0,,,,,,
2,1791323334288,655,-536,11021,900415,602313,-416610,0,0,0,483,256,132,393,284,387,400,141,273,226,98,605,0,,,,,,
1,1791323334304,-1220,-7915,33433,-7689571,-2689028,-872315,0,0,0,215,194,179,286,196,294,332,127,187,212,122,245,0,,,,,,
2,1791323334304,387,-512,11466,1095892,558330,-439822,0,0,0,499,244,123,364,332,395,376,143,270,218,106,617,0,,,,,,
1,1791323334320,1273,-15017,35405,-7671245,-3208264,-1547932,0,0,0,211,198,182,282,196,298,350,137,205,209,124,248,0,,,,,,
2,1791323334320,1086,-732,12155,1361007,376292,-431270,0,0,0,510,248,126,361,318,388,366,140,263,218,107,616,0,,,,,,
1,1791323334336,3905,-24814,33644,-7072597,-2599842,-2222327,0,0,0,209,207,193,285,201,309,312,122,188,209,124,251,0,,,,,,
2,1791323334336,1263,-851,12811,1695761,317649,-481361,0,0,0,539,244,133,346,290,390,345,128,262,221,96,630,0,,,,,,
1,1791323334352,-727,-34548,26743,-5874080,-938289,-2486221,0,0,0,213,220,196,301,211,316,334,138,204,206,135,255,0,,,,,,
2,1791323334352,215,-732,13610,2118480,300545,-491135,0,0,0,545,240,143,337,271,399,328,122,256,209,81,635,0,,,,,,
1,1791323334368,-7571,-45599,16721,-4097684,-1092227,-1095892,0,0,0,218,231,172,305,219,304,340,145,193,213,137,256,0,,,,,,
2,1791323334368,196,-746,14457,2564412,234572,-372627,0,0,0,536,249,143,326,259,394,318,129,262,203,84,637,0,,,,,,
1,1791323334384,2785,-51662,12141,-2313957,-2588846,912632,0,0,0,218,223,174,306,215,306,296,121,171,234,145,258,0,,,,,,
2,1791323334384,1086,-899,15305,3116634,204028,-332310,0,0,0,537,246,151,319,238,370,292,124,258,204,93,634,0,,,,,,
1,1791323334400,22574,-48389,13318,-105068,-1445307,1463633,0,0,0,190,213,107,302,215,271,347,229,155,304,273,194,0,,,,,,
2,1791323334400,1751,-1076,15998,3794694,206472,-425162,0,0,0,516,247,155,310,238,363,259,118,250,195,82,616,0,,,,,,
1,1791323334416,16534,-35094,18712,2278527,1653001,620639,0,0,0,194,201,94,307,201,280,318,237,142,344,337,208,0,,,,,,
2,1791323334416,2617,-1210,16640,4517959,173485,-566882,0,0,0,479,245,154,294,245,368,220,115,249,168,78,582,0,,,,,,
1,1791323334432,-1885,-2699,17540,5490456,3700621,305432,0,0,0,203,207,103,305,199,309,336,282,161,361,374,252,0,,,,,,
2,1791323334432,3981,-1517,17449,5269323,51312,-802676,0,0,0,447,239,153,296,245,360,190,114,242,157,85,540,0,,,,,,
1,1791323334448,-7504,11931,16759,6929655,3133738,89186,0,0,0,208,207,118,305,199,330,400,362,198,390,410,282,0,,,,,,
2,1791323334448,5838,-2560,20660,6256481,-172263,-1231504,0,0,0,414,227,151,287,235,339,175,114,226,150,87,497,0,,,,,,
1,1791323334464,-2579,464,21205,6440963,852767,-1194852,0,0,0,208,190,148,286,189,328,432,396,219,416,423,291,0,,,,,,
2,1791323334464,6972,-4321,27255,7220427,-130725,-1692096,0,0,0,373,199,150,244,205,309,169,111,204,130,79,446,0,,,,,,
1,1791323334480,3957,-6010,24249,4742757,250454,-1587027,0,0,0,212,181,185,271,174,326,434,383,223,431,417,301,0,,,,,,
2,1791323334480,4058,-4632,34989,7995004,-101403,-2102598,0,0,0,323,158,138,214,157,268,174,107,176,125,64,365,0,,,,,,
1,1791323334496,3441,-3096,18549,2516764,875980,-486248,0,0,0,239,206,219,289,181,337,434,368,231,442,410,320,0,,,,,,
2,1791323334496,3469,-918,36554,8828224,-1032362,-2153910,0,0,0,255,118,119,182,108,223,185,110,167,108,60,257,0,,,,,,
1,1791323334512,-952,909,10801,973719,827111,354301,0,0,0,283,253,249,302,217,336,431,355,225,439,402,343,0,,,,,,
2,1791323334512,8633,6829,33428,9439089,-1466076,-2214997,0,0,0,176,95,107,171,93,205,197,127,156,94,73,146,0,,,,,,
1,1791323334528,-1770,435,9140,338419,285884,112399,0,0,0,317,280,274,325,241,340,414,294,186,448,401,368,0,,,,,,
2,1791323334528,11442,15975,21593,8392066,-984714,-2285857,0,0,0,191,103,113,170,85,209,198,130,163,90,52,151,0,,,,,,
1,1791323334544,-746,-497,10313,153938,200363,-98960,0,0,0,313,292,284,336,258,354,401,257,165,451,408,384,0,,,,,,
2,1791323334544,10519,20100,8633,5079955,-233350,-1935221,0,0,0,197,98,113,170,83,207,193,114,158,105,67,167,0,,,,,,
1,1791323334560,-129,62,10772,123394,239459,-47647,0,0,0,325,308,311,342,255,367,417,287,202,450,394,403,0,,,,,,
2,1791323334560,7207,18286,7542,353080,366519,-934623,0,0,0,193,93,110,165,73,204,201,114,164,101,60,160,0,,,,,,
1,1791323334576,-306,703,10251,128281,134390,21991,0,0,0,351,311,300,354,264,357,413,280,197,460,388,405,0,,,,,,
2,1791323334576,5527,13711,11275,-2790432,178372,90408,0,0,0,194,93,110,169,82,207,201,112,165,97,58,156,0,,,,,,
1,1791323334592,-440,703,10021,147829,10995,24434,0,0,0,345,311,293,349,263,363,405,257,190,464,372,421,0,,,,,,
2,1791323334592,6130,9853,10308,-3682295,46425,532674,0,0,0,191,97,109,170,81,206,202,118,163,92,43,156,0,,,,,,
1,1791323334608,-387,564,10189,182037,-70860,18325,0,0,0,344,309,315,350,265,376,398,223,192,462,347,432,0,,,,,,
2,1791323334608,5738,8767,6872,-3496592,674395,394618,0,0,0,188,117,115,170,83,209,204,121,164,102,65,159,0,,,,,,
1,1791323334624,-392,550,10294,238237,-140499,35430,0,0,0,366,316,315,353,269,382,409,246,214,449,335,438,0,,,,,,
2,1791323334624,1943,9026,7446,-4245513,1437976,279776,0,0,0,184,120,110,172,89,212,205,120,166,100,58,154,0,,,,,,
1,1791323334640,-382,526,10217,284663,-191811,46425,0,0,0,365,325,316,353,274,385,415,256,234,431,314,443,0,,,,,,
2,1791323334640,-1043,8317,9920,-5417152,1450194,373849,0,0,0,183,120,110,173,92,211,209,121,170,100,57,157,0,,,,,,
1,1791323334656,-392,469,10169,312763,-224798,48869,0,0,0,370,331,316,368,279,387,411,224,231,422,286,450,0,,,,,,
2,1791323334656,-1306,6216,11409,-6145304,1142317,508239,0,0,0,181,126,111,172,94,212,210,122,170,101,63,164,0,,,,,,
1,1791323334672,-440,421,10189,335975,-233350,54977,0,0,0,385,338,313,371,293,389,416,206,248,416,265,455,0,,,,,,
2,1791323334672,-1450,4685,12117,-6282138,1202182,549778,0,0,0,178,128,109,171,97,213,208,119,165,105,68,168,0,,,,,,
1,1791323334688,-569,368,10236,377514,-226020,81855,0,0,0,391,351,314,369,302,394,426,215,272,400,258,458,0,,,,,,
2,1791323334688,-2641,4216,13232,-6230825,1415985,571769,0,0,0,177,127,107,172,100,214,208,120,165,103,71,168,0,,,,,,
1,1791323334704,-622,311,10246,428827,-196698,119729,0,0,0,395,357,320,380,304,405,429,216,282,378,245,458,0,,,,,,
2,1791323334704,-3828,4134,15242,-6484945,1337794,636521,0,0,0,177,126,109,173,101,217,222,135,178,101,71,167,0,,,,,,
1,1791323334720,-459,224,10141,458148,-161268,128281,0,0,0,405,352,322,385,311,416,431,204,300,366,217,456,0,,,,,,
2,1791323334720,-3642,3747,17262,-6856351,1226617,656069,0,0,0,180,125,111,173,100,216,234,141,188,115,72,171,0,,,,,,
1,1791323334736,-373,143,10059,454483,-146607,106290,0,0,0,418,350,313,387,309,422,425,175,285,364,203,458,0,,,,,,
2,1791323334736,-2928,2909,19162,-7095810,1259604,560774,0,0,0,182,128,114,173,102,215,214,120,173,116,67,172,0,,,,,,
1,1791323334752,-402,47,10078,434936,-142942,76969,0,0,0,433,364,305,388,312,428,415,154,274,357,194,456,0,,,,,,
2,1791323334752,-2584,2019,21445,-7193549,1281595,466701,0,0,0,178,127,116,179,101,220,208,113,173,103,45,160,0,,,,,,
1,1791323334768,-569,-33,10208,434936,-151494,70860,0,0,0,438,368,286,400,318,434,404,134,256,363,187,457,0,,,,,,
2,1791323334768,-2388,1139,24498,-7195992,1213178,496022,0,0,0,177,126,108,174,95,216,206,106,162,95,60,163,0,,,,,,
1,1791323334784,-1067,-76,10466,482583,-191811,122173,0,0,0,446,368,271,431,335,428,407,139,260,370,184,463,0,,,,,,
2,1791323334784,-1986,-770,27791,-7167892,1205847,717155,0,0,0,178,125,113,180,100,218,204,113,163,109,60,161,0,,,,,,
1,1791323334800,-1517,-157,10543,580321,-235793,267558,0,0,0,446,384,240,431,351,431,367,107,208,358,183,465,0,,,,,,
2,1791323334800,-2000,-4647,31146,-7180110,1301142,993266,0,0,0,171,125,110,175,96,212,212,129,170,102,69,157,0,,,,,,
1,1791323334816,-1579,-330,10495,678060,-256563,428827,0,0,0,444,392,222,427,363,440,385,106,221,350,179,473,0,,,,,,
2,1791323334816,-2689,-10710,33428,-7252192,1288925,1175304,0,0,0,167,129,114,176,102,216,209,113,158,102,60,163,0,,,,,,
1,1791323334832,-1282,-454,10634,778242,-259006,558330,0,0,0,446,403,206,435,370,440,400,123,248,384,180,465,0,,,,,,
2,1791323334832,-890,-19937,32902,-7104362,529009,1175304,0,0,0,160,120,108,172,93,212,218,117,167,103,65,160,0,,,,,,
1,1791323334848,-808,-425,10916,918741,-199142,593761,0,0,0,458,396,207,443,379,456,395,120,245,364,172,479,0,,,,,,
2,1791323334848,6920,-32682,26987,-6393315,-507018,751364,0,0,0,164,124,112,180,97,219,222,116,171,115,69,173,0,,,,,,
1,1791323334864,-220,-492,10739,1076344,-101403,561996,0,0,0,468,393,208,442,377,462,403,125,255,352,172,494,0,,,,,,
2,1791323334864,10940,-47594,16597,-4820948,941954,-805120,0,0,0,166,126,111,183,96,223,223,116,172,106,62,169,0,,,,,,
1,1791323334880,339,-564,10949,1177748,-69638,432492,0,0,0,479,398,214,437,373,465,390,123,254,349,172,496,0,,,,,,
2,1791323334880,38,-55974,12074,-2940705,3297450,-2290744,0,0,0,164,126,112,182,93,223,220,115,173,109,64,168,0,,,,,,
1,1791323334896,105,-665,12213,1361007,-90408,280998,0,0,0,486,392,224,444,367,469,346,105,228,352,169,501,0,,,,,,
2,1791323334896,-22909,-56118,14759,-455705,3524692,-2560747,0,0,0,154,114,103,179,93,216,249,153,171,136,106,154,0,,,,,,
1,1791323334912,-617,-823,13893,1717753,-112399,201585,0,0,0,491,377,226,442,365,460,324,103,221,351,172,513,0,,,,,,
2,1791323334912,-19554,-44886,18219,1598023,-608421,-1010371,0,0,0,149,97,86,182,90,214,308,226,167,210,199,149,0,,,,,,
1,1791323334928,-607,-861,15089,2257757,-106290,185703,0,0,0,495,379,223,424,367,443,313,111,227,341,182,518,0,,,,,,
2,1791323334928,-1631,-17348,19430,3832568,-3310889,134390,0,0,0,164,91,88,193,86,232,362,301,178,291,290,189,0,,,,,,
1,1791323334944,-555,-827,16065,2833192,-70860,153938,0,0,0,493,398,228,430,354,439,256,88,189,338,185,507,0,,,,,,
2,1791323334944,12251,25010,14390,6136752,-3791029,652404,0,0,0,181,98,103,205,85,255,393,351,197,321,349,234,0,,,,,,
1,1791323334960,-1651,-842,16932,3547905,43982,193033,0,0,0,486,387,238,425,347,433,294,109,225,331,180,506,0,,,,,,
2,1791323334960,4862,15357,16621,6720739,-2708576,1334129,0,0,0,186,99,105,207,80,261,416,374,204,330,392,244,0,,,,,,
1,1791323334976,-2852,-794,17640,4293160,205250,367740,0,0,0,470,409,213,408,369,429,258,105,224,308,174,497,0,,,,,,
2,1791323334976,-5608,-6590,23483,5980370,-1784948,1865582,0,0,0,194,99,113,203,78,260,434,376,212,338,378,258,0,,,,,,
1,1791323334992,-4067,-593,18822,5242445,483805,702495,0,0,0,454,384,193,408,356,420,252,105,232,299,158,471,0,,,,,,
2,1791323334992,-5876,-6666,19722,3991393,-1620014,651182,0,0,0,206,103,124,201,72,255,452,366,212,332,348,261,0,,,,,,
1,1791323335008,-6412,-789,20555,6329785,993266,1200961,0,0,0,434,376,179,383,364,406,250,117,219,259,158,450,0,,,,,,
2,1791323335008,-335,454,12184,2702467,-1362229,-574213,0,0,0,209,98,134,198,65,259,473,362,213,363,360,286,0,,,,,,
1,1791323335024,-6695,-2526,24914,7542963,1875356,1835039,0,0,0,408,342,164,354,338,377,251,116,199,244,152,437,0,,,,,,
2,1791323335024,3072,2062,9183,2100154,-1007927,-603534,0,0,0,227,96,134,200,65,260,488,366,221,364,346,309,0,,,,,,
1,1791323335040,-3292,-6020,31394,8513017,2775771,2106263,0,0,0,358,302,161,319,300,340,292,134,200,227,139,414,0,,,,,,
2,1791323335040,1229,-1440,10662,1246165,-884532,-24434,0,0,0,238,96,128,215,65,270,490,359,234,378,361,345,0,,,,,,
1,1791323335056,-2033,-7963,35898,9253386,3894876,2014633,0,0,0,285,261,168,301,266,311,245,119,175,206,127,335,0,,,,,,
2,1791323335056,-387,-2191,10940,438601,-719599,160046,0,0,0,257,112,144,219,78,282,484,343,212,374,363,359,0,,,,,,
1,1791323335072,-9432,-2881,35137,9385333,4828278,1716531,0,0,0,239,242,178,285,239,300,306,134,193,205,126,279,0,,,,,,
2,1791323335072,-516,-674,10232,67195,-406836,32986,0,0,0,267,109,149,222,79,280,492,339,218,386,364,367,0,,,,,,
1,1791323335088,-15281,8111,24871,8886867,3764151,1431868,0,0,0,230,240,174,279,230,296,341,144,200,209,131,264,0,,,,,,
2,1791323335088,224,9,10007,168598,-207694,-37873,0,0,0,274,116,165,231,82,288,500,330,234,396,351,386,0,,,,,,
1,1791323335104,-11548,12098,16769,7849618,2372600,800233,0,0,0,238,241,163,287,232,287,330,145,184,210,137,258,0,,,,,,
2,1791323335104,430,-153,10126,282219,-158824,-26878,0,0,0,283,121,164,242,98,295,506,312,235,394,323,401,0,,,,,,
1,1791323335120,-6719,13663,12122,4251622,1861917,-442266,0,0,0,240,235,156,285,227,275,324,141,170,211,137,251,0,,,,,,
2,1791323335120,220,-339,10174,293215,-147829,-19547,0,0,0,293,123,171,249,105,295,512,293,242,378,289,407,0,,,,,,
1,1791323335136,-7188,13572,10232,-106290,1370781,-1319468,0,0,0,238,227,155,279,218,270,317,130,165,211,131,246,0,,,,,,
2,1791323335136,138,-335,10122,299323,-98960,-34208,0,0,0,300,129,170,256,118,292,509,279,246,363,252,413,0,,,,,,
1,1791323335152,-8561,10691,9892,-3182607,175929,-1532050,0,0,0,241,221,159,284,214,272,324,133,170,210,128,247,0,,,,,,
2,1791323335152,172,-339,10074,291993,-41538,-37873,0,0,0,307,137,170,264,127,298,506,251,246,350,230,428,0,,,,,,
1,1791323335168,-5479,8265,8245,-3610213,-784350,-1317025,0,0,0,233,215,154,271,211,269,356,147,187,211,126,246,0,,,,,,
2,1791323335168,201,-378,10064,273667,-4886,-34208,0,0,0,312,137,173,275,133,309,501,231,253,331,206,445,0,,,,,,
1,1791323335184,-2861,7987,6322,-3903428,-823446,-1205847,0,0,0,227,210,150,268,207,266,355,146,188,209,124,243,0,,,,,,
2,1791323335184,234,-416,10069,266337,0,-32986,0,0,0,318,138,174,279,135,316,489,211,255,303,178,458,0,,,,,,
1,1791323335200,-2766,7609,6226,-5032307,-654847,-1119105,0,0,0,225,210,150,269,206,270,346,140,181,209,128,244,0,,,,,,
2,1791323335200,330,-483,10054,278554,-19547,-45204,0,0,0,331,145,180,279,134,321,477,189,258,280,154,477,0,,,,,,
1,1791323335216,-2866,6144,7566,-6009692,-767246,-918741,0,0,0,224,214,156,267,205,279,343,139,187,209,129,249,0,,,,,,
2,1791323335216,373,-564,10031,283441,-53756,-65973,0,0,0,345,152,183,286,141,330,471,174,268,264,134,496,0,,,,,,
1,1791323335232,-1895,4584,8863,-6461732,-902858,-609643,0,0,0,235,216,161,287,212,287,326,131,173,210,127,248,0,,,,,,
2,1791323335232,234,-612,10021,267558,-76969,-67195,0,0,0,352,154,174,297,156,341,466,158,267,246,122,507,0,,,,,,
1,1791323335248,-799,4096,9408,-6620557,-799011,-345749,0,0,0,234,217,159,292,215,288,334,136,174,210,125,244,0,,,,,,
2,1791323335248,191,-598,10088,257785,-51312,-54977,0,0,0,357,155,161,305,163,342,455,149,262,224,106,519,0,,,,,,
1,1791323335264,-311,3383,10662,-6871012,-791681,-194255,0,0,0,226,215,155,280,211,280,349,143,183,213,128,247,0,,,,,,
2,1791323335264,268,-631,10184,267558,15882,-61086,0,0,0,363,152,148,313,169,347,430,115,248,203,85,520,0,,,,,,
1,1791323335280,-488,2306,12701,-7078706,-968832,-153938,0,0,0,224,216,154,273,209,278,346,143,186,211,128,247,0,,,,,,
2,1791323335280,392,-670,10318,287106,134390,-90408,0,0,0,377,154,134,333,174,350,428,113,259,196,58,534,0,,,,,,
1,1791323335296,-1698,1675,14639,-7166670,-1251052,-64751,0,0,0,224,218,156,272,208,281,343,140,184,210,128,247,0,,,,,,
2,1791323335296,488,-713,10433,331088,282219,-125838,0,0,0,377,156,131,361,190,363,428,125,279,195,74,547,0,,,,,,
1,1791323335312,-2703,1081,16367,-7166670,-1566258,142942,0,0,0,225,219,158,273,208,282,346,140,185,214,132,250,0,,,,,,
2,1791323335312,827,-794,10423,422718,428827,-182037,0,0,0,389,159,123,344,206,365,422,118,267,206,74,573,0,,,,,,
1,1791323335328,-2761,76,18741,-7117801,-1858252,419053,0,0,0,235,221,162,284,210,283,330,134,175,214,131,249,0,,,,,,
2,1791323335328,1320,-961,10284,503352,489913,-290771,0,0,0,407,174,126,340,223,375,414,129,281,208,81,583,0,,,,,,
1,1791323335344,-2483,-579,21756,-7033502,-2085493,575435,0,0,0,243,223,166,296,214,286,311,123,165,211,127,248,0,,,,,,
2,1791323335344,1292,-1081,10567,587652,514348,-416610,0,0,0,418,172,127,340,224,380,403,122,275,197,65,599,0,,,,,,
1,1791323335360,-2129,-1306,25953,-6994406,-2293188,553443,0,0,0,236,222,165,290,215,288,321,124,173,211,125,251,0,,,,,,
2,1791323335360,823,-1048,11079,764803,465479,-498466,0,0,0,450,178,133,340,221,395,395,125,286,204,72,611,0,,,,,,
1,1791323335376,-1005,-4551,30796,-7150788,-2695137,174707,0,0,0,220,227,161,274,214,285,330,128,179,209,125,251,0,,,,,,
2,1791323335376,670,-1095,11079,1014036,397062,-504574,0,0,0,451,187,138,347,228,396,390,132,283,208,71,625,0,,,,,,
1,1791323335392,1215,-10868,34199,-7400021,-3412293,-441044,0,0,0,212,230,161,275,216,285,332,131,179,210,129,251,0,,,,,,
2,1791323335392,933,-1210,11596,1230282,397062,-494800,0,0,0,462,201,141,357,238,395,373,128,275,225,73,650,0,,,,,,
1,1791323335408,5814,-20315,35276,-7368256,-3784921,-1139874,0,0,0,210,235,164,279,220,290,331,128,183,210,131,251,0,,,,,,
2,1791323335408,842,-1162,13065,1544267,300545,-476474,0,0,0,478,199,137,361,231,390,358,128,265,236,82,665,0,,,,,,
1,1791323335424,7231,-30519,32155,-6599788,-2752558,-1771509,0,0,0,217,240,172,297,226,305,321,123,183,214,133,259,0,,,,,,
2,1791323335424,344,-1129,14065,1996307,146607,-420275,0,0,0,488,202,140,371,219,393,345,132,264,244,85,662,0,,,,,,
1,1791323335440,1464,-42885,22378,-4904026,-1850921,-1491732,0,0,0,220,242,169,302,234,309,364,144,205,215,135,262,0,,,,,,
2,1791323335440,-43,-1162,14658,2535090,100181,-299323,0,0,0,503,212,153,361,202,394,320,126,265,238,75,656,0,,,,,,
1,1791323335456,4134,-53936,13687,-3027448,-2613281,-74525,0,0,0,208,241,172,282,226,315,345,149,214,274,134,258,0,,,,,,
2,1791323335456,1052,-1320,15448,3153286,178372,-227241,0,0,0,508,217,161,327,193,384,290,116,261,215,70,654,0,,,,,,
1,1791323335472,19995,-56970,11361,-1147204,-2946813,1142317,0,0,0,188,216,135,289,221,286,301,167,152,299,244,220,0,,,,,,
2,1791323335472,2234,-1402,16204,3887546,202807,-317649,0,0,0,490,223,157,314,200,384,261,119,267,196,78,641,0,,,,,,
1,1791323335488,22569,-42938,16927,1310916,-67195,507018,0,0,0,185,196,97,294,201,275,304,220,130,327,326,198,0,,,,,,
2,1791323335488,2876,-1206,17032,4778187,78190,-532674,0,0,0,477,233,151,312,210,386,220,118,267,181,81,602,0,,,,,,
1,1791323335504,2632,-1531,18171,4902804,3688404,-316428,0,0,0,200,200,103,301,198,304,336,270,155,347,367,241,0,,,,,,
2,1791323335504,4498,-1957,17989,5667607,-54977,-786794,0,0,0,456,233,156,311,222,368,190,117,247,178,82,541,0,,,,,,
1,1791323335520,-8758,16817,15041,6502049,4546059,-397062,0,0,0,210,199,119,307,193,328,385,316,177,371,395,277,0,,,,,,
2,1791323335520,6920,-3594,21426,6674313,141720,-1170417,0,0,0,398,215,152,272,205,334,182,109,233,151,68,485,0,,,,,,
1,1791323335536,-3656,2000,17410,6186843,3023782,-1000597,0,0,0,209,182,123,304,174,326,429,380,205,396,410,288,0,,,,,,
2,1791323335536,5163,-4766,30007,7539298,405614,-1539380,0,0,0,354,193,144,230,190,292,192,120,207,129,78,428,0,,,,,,
1,1791323335552,7202,-10318,25656,4745201,1061683,-1475850,0,0,0,214,182,135,296,165,320,444,407,224,415,411,295,0,,,,,,
2,1791323335552,2139,-4891,37123,8199033,76969,-1690874,0,0,0,290,134,135,204,127,259,192,114,183,122,66,336,0,,,,,,
1,1791323335568,5163,-4044,22565,2065946,811229,-439822,0,0,0,235,212,175,293,178,324,438,380,220,427,406,302,0,,,,,,
2,1791323335568,2723,-1828,38463,8883202,-926071,-1660331,0,0,0,200,106,118,165,80,211,193,96,160,93,50,172,0,,,,,,
1,1791323335584,-847,1531,12715,222354,621860,223576,0,0,0,264,236,237,296,182,333,442,380,230,442,403,324,0,,,,,,
2,1791323335584,10064,9021,31686,9104335,-1716531,-1776396,0,0,0,179,106,119,160,76,203,197,110,158,102,65,159,0,,,,,,
1,1791323335600,-2005,1737,8523,219911,425162,0,0,0,0,284,243,286,302,173,339,442,366,247,457,396,357,0,,,,,,
2,1791323335600,14931,18856,18281,7926587,-1202182,-2212553,0,0,0,180,98,111,167,78,208,199,115,158,96,58,164,0,,,,,,
1,1791323335616,-660,440,9672,487470,426383,-229685,0,0,0,307,253,294,318,184,359,444,352,255,454,386,360,0,,,,,,
2,1791323335616,11830,20890,7480,3808133,313984,-2447126,0,0,0,185,104,114,162,74,207,199,109,159,88,49,158,0,,,,,,
1,1791323335632,148,119,11246,458148,438601,-186924,0,0,0,325,263,314,331,198,364,449,349,261,459,371,375,0,,,,,,
2,1791323335632,5886,18860,8829,-862541,770911,-1902234,0,0,0,185,106,113,162,76,205,203,110,158,89,47,155,0,,,,,,
1,1791323335648,-157,512,10667,320093,261450,-54977,0,0,0,344,277,379,326,214,368,474,350,281,447,349,399,0,,,,,,
2,1791323335648,2435,14185,13400,-4053701,-234572,-856433,0,0,0,174,92,106,164,82,204,202,116,162,99,53,157,0,,,,,,
1,1791323335664,-368,746,10122,302989,102625,0,0,0,0,353,288,356,334,233,378,487,353,311,434,332,416,0,,,,,,
2,1791323335664,4474,10342,10308,-4386012,-1108109,-305432,0,0,0,178,91,111,168,84,209,205,119,164,100,56,163,0,,,,,,
1,1791323335680,-339,751,10193,349414,1221,14660,0,0,0,363,279,349,345,228,388,493,335,323,429,299,427,0,,,,,,
2,1791323335680,5843,8681,6786,-4447098,-918741,-172263,0,0,0,180,92,111,167,79,209,209,120,164,99,61,162,0,,,,,,
1,1791323335696,-325,641,10423,395840,-83077,35430,0,0,0,378,295,353,350,245,388,486,305,320,404,266,432,0,,,,,,
2,1791323335696,4800,8078,6680,-5101946,-14660,-120951,0,0,0,178,92,109,165,77,206,208,121,165,94,58,156,0,,,,,,
1,1791323335712,-382,579,10433,448375,-171042,50090,0,0,0,383,297,338,362,252,395,482,281,325,383,237,442,0,,,,,,
2,1791323335712,3163,7102,8647,-5930279,570548,31764,0,0,0,176,92,111,167,81,206,205,118,162,97,59,158,0,,,,,,
1,1791323335728,-626,550,10342,516791,-223576,63529,0,0,0,395,297,315,376,258,407,467,254,327,373,213,453,0,,,,,,
2,1791323335728,2373,5168,10753,-6527705,618195,276111,0,0,0,174,88,111,167,83,207,203,110,158,106,68,167,0,,,,,,
1,1791323335744,-976,449,10346,601091,-186924,118507,0,0,0,405,301,302,383,271,416,446,218,312,370,204,453,0,,,,,,
2,1791323335744,3010,3871,11447,-6548475,579100,415388,0,0,0,174,91,113,167,80,208,206,110,163,101,62,165,0,,,,,,
1,1791323335760,-693,268,10461,748920,-46425,172263,0,0,0,418,304,295,384,276,426,432,183,304,368,195,451,0,,,,,,
2,1791323335760,3646,3326,12490,-6585127,783129,514348,0,0,0,176,93,115,166,77,207,203,113,162,104,61,163,0,,,,,,
1,1791323335776,-210,90,10385,902858,31764,173485,0,0,0,430,301,278,385,275,434,433,167,310,359,178,456,0,,,,,,
2,1791323335776,3752,2900,14496,-6791599,1192408,618195,0,0,0,178,92,113,165,77,204,209,121,164,102,49,158,0,,,,,,
1,1791323335792,-124,4,10198,921184,-15882,136833,0,0,0,430,298,262,391,278,432,444,172,316,345,164,461,0,,,,,,
2,1791323335792,3876,1957,16893,-6988298,1621236,722042,0,0,0,179,92,114,167,79,206,213,120,162,105,58,166,0,,,,,,
1,1791323335808,-167,-67,10198,877202,-114842,101403,0,0,0,429,311,263,394,282,433,438,159,316,340,157,458,0,,,,,,
2,1791323335808,4005,1081,19334,-7034724,2046398,811229,0,0,0,177,92,109,170,83,211,207,111,166,105,57,166,0,,,,,,
1,1791323335824,-382,-181,10318,847880,-246789,68416,0,0,0,431,334,228,404,288,429,408,127,275,345,150,452,0,,,,,,
2,1791323335824,3441,473,22785,-6994406,2311514,1000597,0,0,0,176,94,115,172,87,213,207,114,166,137,78,166,0,,,,,,
1,1791323335840,-737,-344,10198,861319,-298102,85521,0,0,0,429,314,212,410,306,436,410,143,290,348,153,447,0,,,,,,
2,1791323335840,2751,-693,26369,-6999293,2379930,1358564,0,0,0,171,93,113,175,86,213,209,107,164,95,57,166,0,,,,,,
1,1791323335856,-971,-497,10136,858876,-288328,145385,0,0,0,429,344,212,421,334,446,406,136,277,328,160,455,0,,,,,,
2,1791323335856,1943,-4211,29681,-7042054,2515543,1942551,0,0,0,166,89,115,167,80,208,207,103,164,101,53,171,0,,,,,,
1,1791323335872,-952,-631,10246,857654,-251676,233350,0,0,0,429,330,221,434,313,446,397,125,263,327,144,455,0,,,,,,
2,1791323335872,478,-9389,32313,-7053050,2726902,2414139,0,0,0,164,92,112,167,80,210,204,103,160,101,47,164,0,,,,,,
1,1791323335888,-1019,-760,10409,900415,-266337,313984,0,0,0,433,351,221,438,335,446,316,86,205,323,156,465,0,,,,,,
2,1791323335888,-1756,-16276,34065,-6966307,2508212,2637716,0,0,0,162,89,111,168,83,212,211,100,162,91,49,161,0,,,,,,
1,1791323335904,-981,-794,10734,970053,-313984,394618,0,0,0,447,331,203,431,321,458,390,116,275,318,150,467,0,,,,,,
2,1791323335904,-708,-25173,32261,-6475171,1150870,2592512,0,0,0,158,90,113,169,82,216,221,106,172,92,54,166,0,,,,,,
1,1791323335920,-574,-842,10978,1097113,-309097,436157,0,0,0,453,343,213,436,335,461,356,106,245,316,150,484,0,,,,,,
2,1791323335920,5178,-38731,24278,-5503895,-79412,2068389,0,0,0,160,98,115,173,83,221,228,117,179,102,64,176,0,,,,,,
1,1791323335936,-210,-1005,10681,1209513,-277332,411723,0,0,0,461,349,220,444,360,466,326,91,223,338,158,487,0,,,,,,
2,1791323335936,7226,-54941,14175,-4023158,692721,458148,0,0,0,163,100,115,177,87,225,215,110,175,104,64,181,0,,,,,,
1,1791323335952,-19,-1134,10969,1274264,-243124,316428,0,0,0,475,353,233,442,371,466,349,106,246,344,167,494,0,,,,,,
2,1791323335952,-9145,-61162,12553,-1729970,2245540,-1329242,0,0,0,155,91,99,180,89,217,253,149,169,150,105,167,0,,,,,,
1,1791323335968,-378,-1234,12553,1473406,-206472,229685,0,0,0,484,354,233,442,362,475,355,119,265,348,179,510,0,,,,,,
2,1791323335968,-22129,-54237,18066,783129,1106887,-1660331,0,0,0,153,89,87,190,89,218,337,247,173,235,210,164,0,,,,,,
1,1791323335984,-516,-1349,14036,1913229,-197920,182037,0,0,0,487,350,225,436,338,475,333,113,256,350,177,525,0,,,,,,
2,1791323335984,-9380,-21722,22703,4322482,-2491108,-634078,0,0,0,168,97,98,200,88,241,371,311,184,284,303,198,0,,,,,,
1,1791323336000,-459,-1445,14893,2477669,-240680,140499,0,0,0,486,359,221,421,329,457,311,109,241,339,167,527,0,,,,,,
2,1791323336000,6068,15056,18980,6849021,-5072624,102625,0,0,0,183,102,107,203,86,254,397,347,202,330,349,235,0,,,,,,
1,1791323336016,-1162,-1493,15745,3156951,-295658,129503,0,0,0,481,381,222,414,346,456,276,108,237,326,176,514,0,,,,,,
2,1791323336016,7111,17611,19344,6786712,-4825835,1039692,0,0,0,185,98,108,205,78,252,425,371,222,364,359,244,0,,,,,,
1,1791323336032,-1761,-1186,16941,3974289,-335975,241902,0,0,0,474,380,230,404,344,453,231,93,224,309,171,494,0,,,,,,
2,1791323336032,-3910,-2469,23263,4995655,-1798387,1848478,0,0,0,195,96,113,201,67,244,429,367,203,365,370,247,0,,,,,,
1,1791323336048,-1718,-1028,18851,4957782,-208915,375071,0,0,0,461,390,211,401,353,441,250,112,249,299,161,474,0,,,,,,
2,1791323336048,-9073,-8346,18549,3059213,215024,1131322,0,0,0,200,93,121,189,65,238,437,353,209,375,369,276,0,,,,,,
1,1791323336064,-3206,-1258,21325,6096435,17104,511905,0,0,0,438,374,190,390,361,441,264,129,266,277,158,460,0,,,,,,
2,1791323336064,-3196,234,9140,2084272,282219,-602313,0,0,0,239,93,134,210,80,258,467,351,218,414,366,311,0,,,,,,
1,1791323336080,-4532,-2445,26173,7265631,294437,713490,0,0,0,422,354,174,375,342,401,277,134,236,256,159,434,0,,,,,,
2,1791323336080,2292,2732,8571,2179567,-232128,-786794,0,0,0,263,103,146,231,84,264,478,346,210,431,362,323,0,,,,,,
1,1791323336096,-3172,-4503,32093,8224689,1094670,916297,0,0,0,382,306,179,330,294,362,256,110,190,223,137,410,0,,,,,,
2,1791323336096,2349,-440,11457,1550375,-354301,-223576,0,0,0,286,125,166,238,100,272,482,342,213,450,362,339,0,,,,,,
1,1791323336112,-3383,-4627,36137,8892976,2375044,981049,0,0,0,291,267,181,291,253,329,303,123,200,200,119,366,0,,,,,,
2,1791323336112,430,-1474,11371,478918,-201585,59864,0,0,0,292,142,175,243,124,281,488,335,214,463,376,361,0,,,,,,
1,1791323336128,-8671,985,34692,9103113,3287676,1015258,0,0,0,234,226,181,277,220,304,324,130,193,201,121,285,0,,,,,,
2,1791323336128,-47,-368,10064,15882,-106290,41538,0,0,0,304,145,188,252,133,284,490,326,213,486,362,363,0,,,,,,
1,1791323336144,-14764,10007,26805,8730485,3453832,1229060,0,0,0,229,219,173,281,219,293,292,115,166,202,126,255,0,,,,,,
2,1791323336144,430,402,9696,95294,-85521,-28099,0,0,0,315,145,197,251,136,283,496,323,214,481,336,367,0,,,,,,
1,1791323336160,-14869,15735,16008,6288246,1657888,1516167,0,0,0,235,216,169,286,219,288,286,116,157,204,128,253,0,,,,,,
2,1791323336160,545,248,10083,174707,-50090,-19547,0,0,0,326,163,210,255,147,288,499,319,219,463,318,376,0,,,,,,
1,1791323336176,-9954,16755,11495,2469117,-74525,1467298,0,0,0,238,207,170,288,214,286,303,123,162,206,126,251,0,,,,,,
2,1791323336176,435,67,10232,183259,-2443,-7330,0,0,0,336,164,209,259,147,288,491,288,219,443,298,388,0,,,,,,
1,1791323336192,-5436,13548,12017,-1098335,-239459,830776,0,0,0,238,201,162,284,208,280,311,119,161,216,125,250,0,,,,,,
2,1791323336192,392,90,10102,206472,40317,-25656,0,0,0,344,156,204,261,144,288,486,259,225,413,273,403,0,,,,,,
1,1791323336208,-5144,10562,10552,-2652376,189368,135612,0,0,0,245,199,151,284,201,275,214,78,114,224,126,249,0,,,,,,
2,1791323336208,430,124,10059,260228,68416,-46425,0,0,0,356,160,211,264,144,293,488,248,230,382,243,419,0,,,,,,
1,1791323336224,-6101,9825,7011,-2840523,47647,-278554,0,0,0,258,199,153,300,205,280,86,28,60,215,124,246,0,,,,,,
2,1791323336224,473,76,10102,300545,81855,-48869,0,0,0,365,158,213,268,142,302,480,231,228,355,219,433,0,,,,,,
1,1791323336240,-4398,9858,6144,-3633426,-432492,-467922,0,0,0,242,198,153,298,205,281,266,103,134,212,126,244,0,,,,,,
2,1791323336240,569,19,10102,288328,78190,-46425,0,0,0,365,161,210,278,156,313,467,212,233,326,209,447,0,,,,,,
1,1791323336256,-2814,8853,7331,-4913799,-555887,-603534,0,0,0,242,197,153,300,203,280,36,11,10,212,121,243,0,,,,,,
2,1791323336256,684,-14,10088,280998,50090,-56199,0,0,0,383,185,221,281,178,314,461,196,230,309,196,463,0,,,,,,
1,1791323336272,-2885,6987,8815,-5817880,-560774,-544891,0,0,0,240,202,160,297,207,280,312,129,173,212,120,243,0,,,,,,
2,1791323336272,732,-86,10031,290771,1221,-79412,0,0,0,395,190,217,282,191,318,457,193,243,297,178,481,0,,,,,,
1,1791323336288,-2703,5532,9763,-6284581,-786794,-361632,0,0,0,225,198,154,282,199,281,349,137,184,211,120,244,0,,,,,,
2,1791323336288,650,-181,9978,279776,-40317,-89186,0,0,0,404,196,212,297,212,342,453,177,245,267,140,485,0,,,,,,
1,1791323336304,-1665,4675,10859,-6510601,-1076344,-152716,0,0,0,231,202,163,298,202,288,331,128,175,213,121,247,0,,,,,,
2,1791323336304,626,-224,10016,263893,-59864,-96516,0,0,0,419,202,212,297,216,337,448,149,249,265,141,508,0,,,,,,
1,1791323336320,-516,4115,12677,-6769608,-1170417,-13439,0,0,0,231,202,166,302,206,290,317,120,166,214,124,248,0,,,,,,
2,1791323336320,684,-253,10136,263893,-30543,-109955,0,0,0,419,219,194,312,275,334,429,137,249,249,125,509,0,,,,,,
1,1791323336336,-583,3321,14974,-7024950,-1219287,72082,0,0,0,231,202,169,301,207,293,283,111,165,215,123,249,0,,,,,,
2,1791323336336,1110,-315,10150,273667,35430,-151494,0,0,0,434,214,170,314,247,362,416,145,280,230,124,532,0,,,,,,
1,1791323336352,-861,2459,16922,-7119023,-1455080,172263,0,0,0,229,208,175,300,207,296,297,114,171,213,122,252,0,,,,,,
2,1791323336352,1579,-402,10074,294437,149051,-272445,0,0,0,438,210,145,325,247,368,407,135,291,216,98,544,0,,,,,,
1,1791323336368,-684,1617,19296,-7122688,-1786169,310319,0,0,0,229,213,177,300,210,300,334,128,188,209,121,253,0,,,,,,
2,1791323336368,1713,-550,10074,318871,279776,-420275,0,0,0,447,209,133,342,262,363,399,128,283,205,84,567,0,,,,,,
1,1791323336384,-430,1072,22115,-7117801,-1974316,417831,0,0,0,229,217,179,300,212,301,197,81,152,206,122,252,0,,,,,,
2,1791323336384,1502,-583,10997,399505,387288,-558330,0,0,0,467,218,130,352,268,364,395,134,291,210,89,583,0,,,,,,
1,1791323336400,4,71,26097,-7141014,-2128254,389732,0,0,0,226,221,180,299,213,300,64,37,90,202,122,252,0,,,,,,
2,1791323336400,1005,-502,11969,711047,295658,-605978,0,0,0,480,229,134,364,262,368,384,131,295,216,92,598,0,,,,,,
1,1791323336416,890,-2699,29935,-7217983,-2401922,145385,0,0,0,216,220,175,292,212,298,225,99,119,202,120,253,0,,,,,,
2,1791323336416,693,-540,11514,1042136,100181,-577878,0,0,0,498,226,139,367,259,375,380,130,282,236,89,602,0,,,,,,
1,1791323336432,3019,-8705,33390,-7375586,-2922379,-279776,0,0,0,207,220,171,280,212,295,357,143,204,205,123,254,0,,,,,,
2,1791323336432,220,-607,11356,1264491,-1221,-520457,0,0,0,528,227,141,372,270,385,370,130,263,230,85,609,0,,,,,,
1,1791323336448,7145,-17339,34773,-7492873,-3043330,-698829,0,0,0,208,224,171,280,215,295,358,143,203,205,126,253,0,,,,,,
2,1791323336448,277,-626,12505,1514945,26878,-428827,0,0,0,546,233,135,370,287,392,354,132,256,211,85,624,0,,,,,,
1,1791323336464,7609,-26652,33093,-7161784,-2014633,-1103222,0,0,0,204,228,180,280,215,303,364,147,214,205,127,256,0,,,,,,
2,1791323336464,201,-545,13749,1902234,78190,-342084,0,0,0,554,233,133,359,276,394,341,133,260,213,88,639,0,,,,,,
1,1791323336480,-215,-37487,26216,-5911953,-613308,-1156978,0,0,0,204,232,170,280,215,300,374,149,217,206,127,261,0,,,,,,
2,1791323336480,-224,-550,14515,2416582,127059,-219911,0,0,0,565,232,144,351,237,391,319,125,260,213,85,647,0,,,,,,
1,1791323336496,-2991,-48887,16319,-3649308,-1744631,40317,0,0,0,206,232,173,281,215,302,373,147,217,210,126,261,0,,,,,,
2,1791323336496,157,-746,15281,2998126,151494,-76969,0,0,0,567,239,150,327,219,374,294,120,258,208,77,644,0,,,,,,
1,1791323336512,14443,-53079,12486,-1604132,-3324328,1048244,0,0,0,203,229,180,280,212,307,357,136,208,225,133,264,0,,,,,,
2,1791323336512,1368,-823,15807,3629761,102625,-42760,0,0,0,567,265,165,286,206,364,259,125,268,184,69,642,0,,,,,,
1,1791323336528,27245,-49451,13950,205250,-1166752,50090,0,0,0,177,211,129,291,218,277,346,206,167,299,265,198,0,,,,,,
2,1791323336528,2431,-966,16563,4329812,-45204,-167377,0,0,0,543,231,169,292,226,367,223,119,265,186,80,623,0,,,,,,
1,1791323336544,13921,-36826,21670,2546086,2023185,-1088561,0,0,0,185,200,101,299,203,280,363,268,165,335,338,196,0,,,,,,
2,1791323336544,3929,-1679,17760,5122715,-288328,-382401,0,0,0,522,292,180,286,285,368,200,133,255,164,78,576,0,,,,,,
1,1791323336560,-5943,7379,21344,5753128,3192381,-282219,0,0,0,194,201,101,292,189,305,401,319,199,349,368,250,0,,,,,,
2,1791323336560,7011,-3230,18894,5975483,-596204,-789237,0,0,0,472,235,163,282,228,345,171,115,230,146,75,532,0,,,,,,
1,1791323336576,-9265,29528,15108,6735400,3170390,569326,0,0,0,208,208,119,297,191,339,425,361,229,373,393,286,0,,,,,,
2,1791323336576,9006,-4020,22316,6808703,-741590,-1448972,0,0,0,405,222,158,283,196,317,179,111,228,160,70,500,0,,,,,,
1,1791323336592,-708,775,15065,5503895,2746450,-101403,0,0,0,212,195,132,301,179,350,440,401,241,398,412,293,0,,,,,,
2,1791323336592,7666,-3364,28571,7560068,-984714,-2147802,0,0,0,339,174,143,223,157,288,180,116,202,131,71,424,0,,,,,,
1,1791323336608,4800,-13610,21354,5006651,2169793,-681725,0,0,0,208,190,126,303,179,342,451,428,242,423,424,299,0,,,,,,
2,1791323336608,5350,-2263,34400,8228354,-1742187,-2569299,0,0,0,278,139,131,189,120,257,186,114,186,116,65,327,0,,,,,,
1,1791323336624,4230,-5159,23388,4163657,1373225,-118507,0,0,0,232,213,127,322,214,343,453,424,239,452,428,319,0,,,,,,
2,1791323336624,8513,1143,35898,8809898,-1847256,-2649933,0,0,0,200,103,119,168,91,230,197,125,183,106,69,206,0,,,,,,
1,1791323336640,531,311,15266,1855808,640186,393397,0,0,0,274,221,166,335,229,351,452,408,250,465,418,342,0,,,,,,
2,1791323336640,12112,8365,30208,9101892,-1274264,-2767219,0,0,0,179,93,114,163,82,221,202,126,179,93,62,164,0,,,,,,
1,1791323336656,-1014,588,9332,172263,180816,229685,0,0,0,297,229,200,341,232,366,455,408,270,462,409,364,0,,,,,,
2,1791323336656,11351,16731,15668,6962641,-389732,-2673146,0,0,0,184,96,115,166,77,218,210,122,176,91,53,165,0,,,,,,
1,1791323336672,-224,-708,9112,4886,123394,-117286,0,0,0,310,234,217,353,234,378,453,383,270,449,381,376,0,,,,,,
2,1791323336672,6934,19344,9609,2335948,-6108,-1590693,0,0,0,177,90,110,161,73,208,207,121,170,95,55,165,0,,,,,,
1,1791323336688,277,-492,10672,354301,127059,-131946,0,0,0,326,242,288,349,236,374,463,367,276,453,368,402,0,,,,,,
2,1791323336688,4694,15060,12701,-2020742,-663399,328645,0,0,0,175,88,106,158,76,203,202,120,163,103,67,166,0,,,,,,
1,1791323336704,23,143,10672,401949,13439,-30543,0,0,0,317,233,340,344,231,412,474,345,304,436,336,429,0,,,,,,
2,1791323336704,6121,10461,12127,-3489262,-1178969,1431868,0,0,0,185,95,112,163,79,206,205,122,163,109,68,170,0,,,,,,
1,1791323336720,-143,177,10251,328645,-94073,-1221,0,0,0,337,244,365,368,227,412,468,335,343,456,326,413,0,,,,,,
2,1791323336720,7217,8365,7389,-3164281,-796568,1448972,0,0,0,186,97,115,159,76,205,203,126,162,103,57,165,0,,,,,,
1,1791323336736,-153,23,10174,329867,-188146,0,0,0,0,358,274,320,358,250,406,483,299,317,415,290,434,0,,,,,,
2,1791323336736,4594,8580,5704,-3550348,-64751,1043357,0,0,0,188,96,114,161,82,207,201,120,161,96,60,161,0,,,,,,
1,1791323336752,-129,4,10337,388510,-283441,10995,0,0,0,358,267,303,371,251,415,485,277,336,405,267,435,0,,,,,,
2,1791323336752,2407,8164,6724,-4536285,135612,763581,0,0,0,188,99,118,163,85,206,202,112,159,100,60,164,0,,,,,,
1,1791323336768,-167,86,10437,436157,-423940,31764,0,0,0,357,263,318,379,246,428,475,251,341,385,238,447,0,,,,,,
2,1791323336768,2354,6412,8442,-5583308,-50090,511905,0,0,0,183,95,114,169,85,207,206,117,153,108,68,165,0,,,,,,
1,1791323336784,-335,90,10418,477696,-548556,42760,0,0,0,365,262,308,404,244,427,463,213,322,377,205,454,0,,,,,,
2,1791323336784,3216,4852,8987,-5955936,144164,177150,0,0,0,219,125,129,210,108,207,216,130,165,103,62,166,0,,,,,,
1,1791323336800,-550,-71,10390,510683,-602313,51312,0,0,0,380,262,279,411,244,424,460,189,327,361,176,454,0,,,,,,
2,1791323336800,3077,4225,9964,-6159965,576656,-41538,0,0,0,185,96,116,162,78,205,217,130,170,100,38,161,0,,,,,,
1,1791323336816,-770,-253,10346,530231,-608421,68416,0,0,0,402,253,266,421,245,437,458,163,330,347,148,454,0,,,,,,
2,1791323336816,2502,4072,11835,-6401867,978606,-35430,0,0,0,186,100,114,157,78,202,215,124,170,100,58,170,0,,,,,,
1,1791323336832,-909,-363,10308,520457,-566882,98960,0,0,0,414,250,252,428,248,444,462,146,312,335,131,459,0,,,,,,
2,1791323336832,2388,3709,14247,-6681643,1255938,224798,0,0,0,183,97,113,164,81,208,211,126,170,105,71,167,0,,,,,,
1,1791323336848,-957,-430,10423,527787,-478918,138055,0,0,0,404,261,232,432,264,445,452,140,292,329,130,459,0,,,,,,
2,1791323336848,2646,2995,16472,-6896668,1528384,547335,0,0,0,189,101,118,169,81,207,217,131,173,99,58,159,0,,,,,,
1,1791323336864,-1038,-502,10538,601091,-340862,175929,0,0,0,396,275,228,448,290,455,415,123,277,335,140,449,0,,,,,,
2,1791323336864,3072,1909,19081,-7017619,1882686,897971,0,0,0,185,97,116,170,84,207,214,123,171,109,71,167,0,,,,,,
1,1791323336880,-1201,-598,10418,719599,-116064,229685,0,0,0,413,291,223,454,300,447,409,116,260,336,155,452,0,,,,,,
2,1791323336880,3216,871,21986,-7053050,2127032,1169196,0,0,0,178,93,111,166,80,208,211,120,167,109,66,172,0,,,,,,
1,1791323336896,-1340,-698,10169,762359,45204,316428,0,0,0,423,320,207,451,327,448,419,157,293,339,164,452,0,,,,,,
2,1791323336896,3268,-440,25762,-7037167,2252871,1483180,0,0,0,174,94,112,169,82,210,209,119,165,109,62,169,0,,,,,,
1,1791323336912,-1196,-880,10112,763581,107512,414166,0,0,0,423,330,213,455,325,446,407,121,266,326,151,460,0,,,,,,
2,1791323336912,2876,-2756,29700,-7111693,2399478,1976759,0,0,0,173,97,112,168,79,209,205,112,165,107,60,165,0,,,,,,
1,1791323336928,-866,-1048,10184,764803,105068,481361,0,0,0,427,315,241,454,293,453,407,122,276,342,139,462,0,,,,,,
2,1791323336928,1497,-7150,33385,-7371921,2577851,2530203,0,0,0,189,98,111,171,78,209,209,115,169,99,52,160,0,,,,,,
1,1791323336944,-703,-1177,10299,795346,95294,518013,0,0,0,434,341,219,434,312,471,408,107,290,332,147,475,0,,,,,,
2,1791323336944,-1215,-14558,35582,-7492873,2296853,2827084,0,0,0,191,95,113,175,82,213,217,123,175,96,48,157,0,,,,,,
1,1791323336960,-320,-1301,10490,867428,70860,519235,0,0,0,441,352,214,464,313,461,414,121,291,346,148,488,0,,,,,,
2,1791323336960,-1866,-22933,34855,-7112914,1310916,2891836,0,0,0,168,93,113,170,84,219,222,124,177,101,53,166,0,,,,,,
1,1791323336976,47,-1373,10514,981049,32986,469144,0,0,0,445,350,191,478,320,472,419,124,288,344,146,493,0,,,,,,
2,1791323336976,3417,-34759,27781,-6081774,24434,2654820,0,0,0,166,99,116,174,84,224,227,125,180,119,64,180,0,,,,,,
1,1791323336992,402,-1387,10346,1093448,-10995,365297,0,0,0,453,362,184,477,329,494,411,120,298,347,147,494,0,,,,,,
2,1791323336992,7427,-50983,16477,-4541172,740368,1301142,0,0,0,171,107,121,176,87,227,220,117,177,140,81,186,0,,,,,,
1,1791323337008,-4,-1450,11194,1215621,-25656,237015,0,0,0,466,376,191,466,377,507,352,110,272,337,152,518,0,,,,,,
2,1791323337008,-4388,-61909,11605,-2442239,2463008,-613308,0,0,0,167,104,125,172,89,232,224,124,184,104,73,182,0,,,,,,
1,1791323337024,-875,-1584,12744,1488067,9773,186924,0,0,0,479,370,200,465,364,501,367,119,284,330,153,525,0,,,,,,
2,1791323337024,-24426,-58851,15108,65973,1761735,-1461189,0,0,0,161,97,117,176,89,225,242,150,180,130,92,174,0,,,,,,
1,1791323337040,-856,-1785,13615,1980425,57421,227241,0,0,0,487,364,200,477,347,484,359,117,280,336,156,519,0,,,,,,
2,1791323337040,-16893,-41100,19516,2078163,-1925447,-561996,0,0,0,157,92,87,189,94,215,321,251,161,239,229,153,0,,,,,,
1,1791323337056,-239,-1789,14075,2472782,30543,228463,0,0,0,490,372,203,474,350,473,313,101,253,345,163,515,0,,,,,,
2,1791323337056,4934,-4374,20770,3987728,-4188092,3665,0,0,0,163,93,95,182,78,237,359,302,191,281,265,223,0,,,,,,
1,1791323337072,-296,-1593,15247,3050661,-18325,183259,0,0,0,489,381,206,459,354,467,280,90,231,348,169,514,0,,,,,,
2,1791323337072,14568,25144,12333,5869193,-3550348,357967,0,0,0,173,100,101,204,88,259,382,386,197,299,353,238,0,,,,,,
1,1791323337088,-1306,-1469,16243,3813020,-52534,265115,0,0,0,488,386,190,452,377,465,251,89,217,337,171,514,0,,x,,,,
2,1791323337088,6944,9380,13874,6798930,-1191187,1733635,0,0,0,188,99,111,196,74,255,427,395,208,351,393,256,0,,x,,,,
1,1791323337104,-1225,-1344,16721,4637688,-96516,410501,0,0,0,473,398,190,430,374,476,241,112,261,310,164,498,0,,,,,,
2,1791323337104,-8140,-12945,27623,6161186,486248,2693915,0,0,0,211,102,129,206,77,247,451,393,220,386,411,269,0,,,,,,
1,1791323337120,-708,-1273,17884,5622403,-85521,497244,0,0,0,446,389,186,423,396,467,52,67,194,288,160,468,0,,,,,,
2,1791323337120,-6762,-6417,23531,3086091,-460592,811229,0,0,0,230,101,156,202,67,249,462,350,213,424,386,280,0,,,,,,
1,1791323337136,-2593,-2833,21177,6647435,84299,542448,0,0,0,437,380,194,407,364,431,26,13,71,270,158,458,0,,,,,,
2,1791323337136,808,2115,11854,934623,-995710,-331088,0,0,0,249,107,186,208,66,261,472,342,204,446,373,297,0,,,,,,
1,1791323337152,-3910,-5455,27011,7557624,228463,636521,0,0,0,406,347,170,379,349,401,265,125,215,246,148,434,0,,,,,,
2,1791323337152,2057,1947,8241,469144,-659734,-81855,0,0,0,262,110,199,224,78,286,487,350,202,449,373,313,0,,,,,,
1,1791323337168,-1244,-6829,32797,8313875,752585,789237,0,0,0,356,296,172,336,303,360,306,132,210,221,132,408,0,,,,,,
2,1791323337168,368,-86,9719,370184,-277332,178372,0,0,0,278,117,209,258,101,291,499,348,210,432,367,329,0,,,,,,
1,1791323337184,-124,-4431,36329,9064018,2455678,833220,0,0,0,265,258,173,298,247,319,312,124,186,204,118,322,0,,,,,,
2,1791323337184,-435,-129,10926,260228,-151494,112399,0,0,0,293,130,220,264,107,294,506,342,221,426,360,350,0,,,,,,
1,1791323337200,-9801,1541,31954,9297368,3925420,711047,0,0,0,230,244,165,281,230,299,319,128,180,204,121,273,0,,,,,,
2,1791323337200,162,794,10342,182037,-136833,-3665,0,0,0,300,130,217,247,103,309,506,320,225,432,341,370,0,,,,,,
1,1791323337216,-16889,7647,22895,8615643,2918714,834441,0,0,0,232,238,157,287,232,291,321,132,176,202,125,258,0,,,,,,
2,1791323337216,492,1062,9916,197920,-97738,-18325,0,0,0,307,129,216,250,116,313,505,288,228,422,307,386,0,,,,,,
1,1791323337232,-12342,12467,14247,5736024,196698,1122770,0,0,0,239,229,155,291,225,286,309,128,166,198,123,251,0,,,,,,
2,1791323337232,368,832,10054,240680,-15882,4886,0,0,0,321,146,226,252,132,313,505,268,231,389,273,399,0,,,,,,
1,1791323337248,-4824,13256,13457,1061683,-10995,674395,0,0,0,243,219,156,294,215,285,315,128,166,201,122,248,0,,,,,,
2,1791323337248,277,703,10203,252898,53756,0,0,0,0,343,158,226,262,144,317,493,255,236,354,236,417,0,,,,,,
1,1791323337264,-4039,11083,13773,-2317622,561996,-138055,0,0,0,246,213,157,300,211,288,328,131,170,208,124,249,0,,,,,,
2,1791323337264,397,732,10179,259006,94073,-29321,0,0,0,349,133,227,271,146,324,484,222,247,322,200,441,0,,,,,,
1,1791323337280,-6073,8786,11533,-3249803,405614,-723264,0,0,0,245,212,157,297,210,290,327,132,169,209,128,252,0,,,,,,
2,1791323337280,531,737,10107,306654,95294,-72082,0,0,0,372,153,234,282,167,329,486,184,252,269,140,459,0,,,,,,
1,1791323337296,-5618,8427,7973,-3538131,-223576,-951728,0,0,0,236,212,156,292,214,291,346,147,186,204,127,251,0,,,,,,
2,1791323337296,492,650,10078,370184,65973,-106290,0,0,0,386,189,233,289,222,335,475,162,255,248,123,481,0,,,,,,
1,1791323337312,-3512,8906,6968,-4368908,-288328,-932180,0,0,0,225,214,152,282,221,289,336,143,181,202,129,251,0,,,,,,
2,1791323337312,311,536,10160,436157,40317,-106290,0,0,0,389,163,210,319,205,346,467,152,263,243,107,486,0,,,,,,
1,1791323337328,-3019,7891,8222,-5783672,270002,-808785,0,0,0,215,211,149,250,215,269,333,143,179,204,135,253,0,,,,,,
2,1791323337328,315,449,10270,516791,96516,-74525,0,0,0,398,173,193,328,218,354,459,137,267,236,92,501,0,,,,,,
1,1791323337344,-3819,6235,9384,-6675535,579100,-499687,0,0,0,220,208,151,285,206,292,304,125,163,206,131,253,0,,,,,,
2,1791323337344,349,368,10251,575435,162490,-53756,0,0,0,403,197,152,333,241,358,454,131,271,229,100,524,0,,,,,,
1,1791323337360,-4134,4776,10002,-7020063,290771,-14660,0,0,0,213,219,152,278,228,292,297,129,162,204,140,253,0,,,,,,
2,1791323337360,291,282,10189,585208,184481,-40317,0,0,0,413,173,130,336,231,362,436,125,282,216,84,532,0,,,,,,
1,1791323337376,-2603,3977,11141,-7138571,-309097,361632,0,0,0,222,220,160,291,222,298,181,88,94,203,131,253,0,,,,,,
2,1791323337376,492,229,10256,570548,177150,-46425,0,0,0,410,171,120,344,232,370,429,124,282,208,79,535,0,,,,,,
1,1791323337392,-1258,3316,12969,-7258300,-604756,469144,0,0,0,216,212,161,280,206,295,317,134,176,206,129,253,0,,,,,,
2,1791323337392,813,153,10571,583987,250454,-91629,0,0,0,416,175,121,343,234,372,420,129,278,211,83,555,0,,,,,,
1,1791323337408,-1564,2651,15060,-7359704,-693942,357967,0,0,0,214,210,160,278,204,291,358,146,201,210,129,253,0,,,,,,
2,1791323337408,1239,19,10959,700051,432492,-184481,0,0,0,428,177,128,335,235,375,405,129,279,213,83,579,0,,,,,,
1,1791323337424,-2368,1914,17133,-7439116,-982271,251676,0,0,0,222,214,163,291,208,294,345,143,193,209,130,253,0,,,,,,
2,1791323337424,1320,-57,11146,862541,559552,-295658,0,0,0,438,179,132,337,237,382,393,127,277,205,71,587,0,,,,,,
1,1791323337440,-2689,1196,19459,-7424456,-1466076,257785,0,0,0,228,218,170,299,209,298,338,139,188,207,129,253,0,,,,,,
2,1791323337440,899,-95,11232,1027475,519235,-351858,0,0,0,448,204,133,342,241,385,386,132,276,203,71,591,0,,,,,,
1,1791323337456,-2244,760,22612,-7354817,-1860695,342084,0,0,0,229,220,173,299,210,298,332,136,186,205,127,253,0,,,,,,
2,1791323337456,923,-258,11213,1183856,338419,-331088,0,0,0,460,226,133,334,245,386,385,140,285,213,95,607,0,,,,,,
1,1791323337472,-1134,339,27154,-7379252,-2002416,381179,0,0,0,227,223,174,298,213,298,323,133,181,201,125,253,0,,,,,,
2,1791323337472,1249,-469,11208,1340238,234572,-342084,0,0,0,474,196,139,331,242,392,383,142,288,215,96,621,0,,,,,,
1,1791323337488,-186,-1789,31433,-7578394,-2063502,162490,0,0,0,220,222,173,290,212,298,330,136,186,200,124,253,0,,,,,,
2,1791323337488,1311,-665,11251,1522276,206472,-393397,0,0,0,484,208,144,340,255,403,376,133,277,212,94,635,0,,,,,,
1,1791323337504,1469,-8858,35261,-7823961,-2737898,-353080,0,0,0,208,223,168,275,208,294,362,150,207,202,125,255,0,,,,,,
2,1791323337504,1340,-808,11557,1705535,164933,-432492,0,0,0,492,223,147,341,252,400,363,135,277,218,86,650,0,,,,,,
1,1791323337520,5853,-18501,37214,-7864279,-3307224,-833220,0,0,0,209,227,164,275,210,294,363,148,204,202,125,253,0,,,,,,
2,1791323337520,1320,-899,12347,1954768,97738,-463035,0,0,0,509,212,143,346,245,407,342,132,264,224,92,659,0,,,,,,
1,1791323337536,6580,-30179,34065,-7182553,-1909564,-1407433,0,0,0,211,229,163,282,210,295,346,133,191,206,124,257,0,,,,,,
2,1791323337536,665,-933,13237,2312735,65973,-438601,0,0,0,527,224,149,350,245,399,331,141,267,212,103,666,0,,,,,,
1,1791323337552,-2249,-43043,25182,-5591860,-431270,-1398881,0,0,0,218,237,165,302,222,309,354,141,197,206,124,262,0,,,,,,
2,1791323337552,134,-947,14309,2739119,109955,-340862,0,0,0,527,227,146,349,229,408,299,125,261,208,82,658,0,,,,,,
1,1791323337568,-641,-53610,16185,-3450166,-1643227,282219,0,0,0,207,237,165,284,219,305,355,141,197,210,133,262,0,,,,,,
2,1791323337568,914,-1024,15841,3338989,207694,-228463,0,0,0,511,240,148,312,212,380,273,123,268,207,78,652,0,,,,,,
1,1791323337584,18631,-57726,12199,-1451415,-2439795,1623679,0,0,0,204,230,181,292,219,311,291,110,161,260,165,258,0,,,,,,
2,1791323337584,2311,-1091,16721,4150218,232128,-322536,0,0,0,494,244,156,334,212,382,248,131,272,192,78,628,0,,,,,,
1,1791323337600,30839,-53409,13385,287106,-326202,778242,0,0,0,186,223,113,296,227,279,304,221,139,313,302,217,0,,,,,,
2,1791323337600,2421,-981,17520,4955338,162490,-478918,0,0,0,454,240,152,300,232,386,200,120,261,184,99,592,0,,,,,,
1,1791323337616,8547,-19985,13050,3156951,2234545,-753807,0,0,0,194,219,102,306,218,303,324,266,153,342,355,245,0,,,,,,
2,1791323337616,3871,-1292,18382,5863084,-32986,-670730,0,0,0,412,260,142,280,231,366,177,117,248,165,97,547,0,,,,,,
1,1791323337632,-12581,23077,7561,6153856,2977357,-830776,0,0,0,210,230,110,309,219,326,353,313,176,357,405,271,0,,,x,,,
2,1791323337632,5431,-2699,21320,6811147,-136833,-978606,0,0,0,381,236,142,255,213,330,167,115,224,143,80,491,0,,,x,,,
1,1791323337648,-7724,8509,11237,6586349,1693318,-1126435,0,0,0,220,235,114,311,216,341,384,350,196,388,419,285,0,,,,,,
2,1791323337648,5747,-4996,29083,7607715,191811,-1215621,0,0,0,345,193,141,226,180,291,170,111,200,126,58,421,0,,,,,,
1,1791323337664,4072,-9030,19736,6210056,29321,-1944994,0,0,0,223,221,126,314,207,348,405,365,200,423,423,298,0,,,,,,
2,1791323337664,5719,-4067,35170,8574104,910189,-1413542,0,0,0,288,153,125,201,145,259,183,111,186,119,56,327,0,,,,,,
1,1791323337680,7805,-5398,22445,5463578,-134390,-742812,0,0,0,234,208,152,313,189,352,429,395,218,437,430,307,0,,,,,,
2,1791323337680,6068,-335,37032,9500176,1199739,-1824043,0,0,0,216,115,105,179,113,227,199,121,175,105,60,215,0,,,,,,
1,1791323337696,540,157,18583,4299269,524122,966388,0,0,0,245,204,177,309,173,361,456,435,257,440,428,316,0,,,,,,
2,1791323337696,8188,8624,30973,9491624,559552,-2421469,0,0,0,168,94,98,167,94,206,200,124,167,91,56,143,0,,,,,,
1,1791323337712,-4761,86,13079,2673146,983493,904080,0,0,0,246,211,182,329,199,374,449,412,246,462,437,350,0,,,,,,
2,1791323337712,11103,17549,16740,7687128,334754,-3059213,0,0,0,171,97,105,165,90,208,187,115,160,93,57,146,0,,,,,,
1,1791323337728,-1679,-1464,10983,1089783,794124,-23212,0,0,0,283,243,190,359,239,379,436,376,227,476,436,391,0,,,,,,
2,1791323337728,11069,19966,6982,3262020,852767,-3546683,0,0,0,178,100,105,166,81,203,199,118,158,93,51,146,0,,,,,,
1,1791323337744,823,-1383,10638,186924,405614,-261450,0,0,0,304,262,212,356,257,386,453,401,265,471,420,397,0,,,,,,
2,1791323337744,6393,16338,11452,-1512502,966388,-3215594,0,0,0,180,97,105,170,85,201,210,121,161,99,44,143,0,,,,,,
1,1791323337760,435,-392,10524,102625,127059,-20769,0,0,0,327,280,247,362,260,387,455,385,264,480,410,415,0,,,,,,
2,1791323337760,3062,11959,14017,-3948632,307876,-2486221,0,0,0,177,97,104,167,85,204,209,120,162,101,59,152,0,,,,,,
1,1791323337776,-469,-90,10222,221133,53756,50090,0,0,0,337,285,248,369,272,391,455,380,276,477,389,429,0,,,,,,
2,1791323337776,2881,8839,10399,-4188092,-592539,-1662775,0,0,0,179,98,103,168,87,204,205,115,155,94,50,143,0,,,,,,
1,1791323337792,-536,-196,10160,252898,2443,1221,0,0,0,343,291,268,365,281,400,459,366,287,477,376,443,0,,,,,,
2,1791323337792,3886,8212,6010,-4175874,-667064,-1022588,0,0,0,173,93,105,169,88,206,210,120,162,90,49,144,0,,,,,,
1,1791323337808,-296,-268,10232,250454,-95294,-20769,0,0,0,360,297,266,368,280,399,458,353,288,458,353,441,0,,,,,,
2,1791323337808,3752,7786,5685,-4845383,-180816,-441044,0,0,0,177,102,106,165,82,203,204,117,158,98,66,148,0,,,,,,
1,1791323337824,-282,-263,10217,267558,-205250,-1221,0,0,0,367,296,255,377,286,401,455,339,291,431,335,449,0,,,,,,
2,1791323337824,3024,6585,7590,-5617516,327423,124616,0,0,0,173,98,105,168,88,203,201,112,157,93,54,155,0,,,,,,
1,1791323337840,-421,-277,10160,285884,-273667,17104,0,0,0,370,296,242,381,290,402,453,318,291,412,307,455,0,,,,,,
2,1791323337840,2632,5273,8896,-6023131,576656,594982,0,0,0,177,101,107,168,87,204,209,120,166,98,50,154,0,,,,,,
1,1791323337856,-488,-335,10141,289550,-318871,24434,0,0,0,377,299,235,386,300,405,447,285,289,400,283,460,0,,,,,,
2,1791323337856,2732,3972,10112,-6183177,665843,1022588,0,0,0,177,102,105,166,87,207,208,120,163,97,56,151,0,,,,,,
1,1791323337872,-540,-378,10155,289550,-345749,35430,0,0,0,372,305,232,389,300,412,442,255,289,392,259,461,0,,,,,,
2,1791323337872,3326,2967,11758,-6311459,755029,1376890,0,0,0,180,102,106,167,89,207,209,125,166,96,56,147,0,,,,,,
1,1791323337888,-641,-411,10093,288328,-318871,54977,0,0,0,368,310,227,391,297,422,435,233,294,386,239,456,0,,,,,,
2,1791323337888,4091,2234,13615,-6504493,915076,1569923,0,0,0,182,104,109,166,84,206,207,123,165,100,60,154,0,,,,,,
1,1791323337904,-679,-488,9992,279776,-234572,81855,0,0,0,375,313,219,393,304,425,434,216,306,375,217,453,0,,,,,,
2,1791323337904,4747,1148,15635,-6794043,1227839,1631010,0,0,0,182,105,107,166,84,205,206,121,164,105,65,160,0,,,,,,
1,1791323337920,-622,-545,9983,267558,-158824,87964,0,0,0,388,317,209,400,313,425,432,193,306,364,193,456,0,,,,,,
2,1791323337920,5374,19,17750,-6999293,1704314,1594358,0,0,0,184,107,108,168,90,206,207,123,164,108,71,162,0,,,,,,
1,1791323337936,-569,-579,10040,257785,-118507,86742,0,0,0,399,324,197,411,316,432,419,162,288,357,178,458,0,,,,,,
2,1791323337936,5049,-875,20473,-6993185,2175901,1517389,0,0,0,181,107,110,167,86,206,208,119,165,110,72,164,0,,,,,,
1,1791323337952,-536,-598,10117,257785,-118507,81855,0,0,0,406,324,182,422,322,434,413,138,268,347,165,460,0,,,,,,
2,1791323337952,3694,-2067,23876,-6891781,2251649,1659109,0,0,0,175,101,108,164,78,206,210,113,167,102,51,159,0,,,,,,
1,1791323337968,-574,-646,10131,271224,-133168,76969,0,0,0,419,322,177,435,331,434,406,120,254,342,157,457,0,,,,,,
2,1791323337968,2866,-4158,26647,-6896668,2158797,1993864,0,0,0,176,102,111,169,85,208,212,118,170,97,47,158,0,,,,,,
1,1791323337984,-760,-689,10184,288328,-158824,86742,0,0,0,417,324,174,434,325,435,406,109,253,339,154,464,0,,,,,,
2,1791323337984,2249,-8805,29432,-7040832,2205223,2415361,0,0,0,173,104,109,169,87,210,207,110,166,106,66,166,0,,,,,,
1,1791323338000,-904,-722,10433,329867,-219911,131946,0,0,0,428,337,173,439,349,452,345,77,217,327,157,472,0,,,,,,
2,1791323338000,823,-14888,31796,-7128797,2274862,2497217,0,0,0,172,104,107,169,89,212,209,108,164,101,56,165,0,,,,,,
1,1791323338016,-957,-756,10658,444709,-291993,189368,0,0,0,436,334,187,454,341,474,321,70,203,335,151,478,0,,,,,,
2,1791323338016,-1048,-21823,32624,-6885672,1808161,2164906,0,0,0,171,104,107,170,89,215,214,111,169,101,57,164,0,,,,,,
1,1791323338032,-928,-827,10696,616973,-313984,255341,0,0,0,446,336,180,467,347,484,360,86,237,336,150,488,0,,,,,,
2,1791323338032,435,-31643,27681,-5973040,719599,1624901,0,0,0,170,103,103,173,89,218,223,121,175,107,64,171,0,,,,,,
1,1791323338048,-794,-923,10715,741590,-280998,282219,0,0,0,457,339,178,473,358,469,362,91,252,336,152,496,0,,,,,,
2,1791323338048,3464,-45111,18626,-4763527,307876,609643,0,0,0,169,103,112,173,83,219,216,111,175,99,54,170,0,,,,,,
1,1791323338064,-942,-981,11414,904080,-252898,300545,0,0,0,469,348,189,468,349,470,377,98,265,340,155,506,0,,,,,,
2,1791323338064,-1033,-57602,10897,-2962696,1433089,-1065348,0,0,0,173,108,115,177,88,223,222,106,176,110,59,175,0,,,,,,
1,1791323338080,-1373,-1038,12567,1222952,-223576,353080,0,0,0,486,352,185,472,354,469,339,88,226,377,164,499,0,,,,,,
2,1791323338080,-16070,-56147,12596,-499687,1770287,-1715309,0,0,0,154,104,87,180,102,196,287,189,172,185,155,148,0,,,,,,
1,1791323338096,-1387,-1153,13620,1626123,-213802,420275,0,0,0,499,350,184,474,369,476,341,96,237,375,168,515,0,,,,,,
2,1791323338096,-19353,-40502,18985,1931555,-228463,-1028697,0,0,0,152,91,82,185,91,215,334,252,174,242,223,169,0,,,,,,
1,1791323338112,-818,-1244,14697,2135584,-233350,443488,0,0,0,505,347,185,454,370,476,360,113,266,346,165,539,0,,,,,,
2,1791323338112,-2995,-1363,18664,4751309,-3094643,163711,0,0,0,172,96,96,196,87,241,363,298,193,270,271,213,0,,,,,,
1,1791323338128,-1000,-1148,16018,2778215,-279776,401949,0,0,0,497,351,196,436,351,465,349,115,266,340,167,535,0,,,,,,
2,1791323338128,8021,17463,14189,6418971,-4194200,922406,0,0,0,186,102,106,207,90,263,391,348,209,299,314,241,0,,,,,,
1,1791323338144,-1880,-947,17171,3615100,-311541,437379,0,0,0,482,359,208,432,342,458,330,113,260,343,172,524,0,,,,,,
2,1791323338144,3843,3196,16156,6426302,-3169168,1696983,0,0,0,192,100,111,197,79,258,430,385,223,329,344,257,0,,,,,,
1,1791323338160,-1923,-660,17922,4538728,-344527,587652,0,0,0,468,361,196,429,353,453,303,105,244,329,170,509,0,,,,,,
2,1791323338160,-7025,-7824,24967,5056742,-1783726,1738522,0,0,0,201,97,121,187,66,243,461,379,223,351,342,259,0,,,,,,
1,1791323338176,-2412,-320,18942,5519778,-370184,752585,0,0,0,447,365,180,429,360,455,295,107,248,297,161,482,0,,,,,,
2,1791323338176,-6728,-4407,21890,3037221,-1182635,603534,0,0,0,218,99,141,192,63,240,473,359,211,367,337,266,0,,,,,,
1,1791323338192,-3474,-354,21502,6720739,-289550,1007927,0,0,0,421,358,175,405,362,447,301,122,259,273,146,449,0,,,,,,
2,1791323338192,157,1282,11758,1263269,-731816,-139277,0,0,0,244,108,166,202,67,247,479,355,207,379,347,293,0,,,,,,
1,1791323338208,-3833,-2167,27427,7957130,-43982,1142317,0,0,0,399,325,173,372,324,398,281,122,223,246,137,425,0,,,,,,
2,1791323338208,1828,1277,8140,616973,-477696,17104,0,0,0,274,117,187,213,81,258,493,358,215,382,344,316,0,,,,,,
1,1791323338224,-3680,-3871,34247,9076235,-213802,1082453,0,0,0,352,298,170,323,295,350,312,133,207,222,129,407,0,,,,,,
2,1791323338224,-162,-770,10232,432492,-376292,194255,0,0,0,303,133,199,222,99,269,505,359,215,377,331,321,0,,,,,,
1,1791323338240,-2876,-2766,36410,9689544,-283441,1126435,0,0,0,267,244,180,282,240,314,311,121,187,193,109,347,0,,,,,,
2,1791323338240,-449,-162,10758,216246,-232128,57421,0,0,0,330,138,207,235,113,285,521,352,215,388,329,333,0,,,,,,
1,1791323338256,-5264,2943,33515,9814160,646295,1386664,0,0,0,240,204,171,285,208,285,317,121,174,214,124,255,0,,,,,,
2,1791323338256,52,588,10227,128281,-122173,-15882,0,0,0,356,145,227,241,123,286,510,340,219,420,327,334,0,,,,,,
1,1791323338272,-11959,12337,25613,9118996,1598023,1843591,0,0,0,232,204,157,285,209,279,332,134,177,218,129,245,0,,,,,,
2,1791323338272,306,689,9892,145385,-78190,-4886,0,0,0,360,151,218,254,141,285,508,320,216,370,303,359,0,,,,,,
1,1791323338288,-13496,16027,14687,6743952,505796,2337170,0,0,0,244,203,149,293,207,272,316,126,164,215,124,239,0,,,,,,
2,1791323338288,110,488,10102,172263,-41538,6108,0,0,0,363,157,219,256,141,289,516,309,226,361,275,367,0,,,,,,
1,1791323338304,-8408,17047,8657,2640159,-711047,2156354,0,0,0,249,199,149,292,205,267,279,109,141,215,124,239,0,,,,,,
2,1791323338304,33,459,10227,190589,1221,-8552,0,0,0,377,150,220,275,139,314,498,271,214,343,247,370,0,,,,,,
1,1791323338320,-2971,14783,10031,-2074498,-290771,1020144,0,0,0,251,198,153,291,203,268,293,114,147,215,123,239,0,,,,,,
2,1791323338320,100,497,10174,218689,32986,-34208,0,0,0,383,158,224,278,155,310,494,257,224,316,216,387,0,,,,,,
1,1791323338336,-2833,10619,10854,-4432438,847880,31764,0,0,0,246,196,153,285,203,268,298,115,151,215,125,240,0,,,,,,
2,1791323338336,181,478,10117,248011,35430,-51312,0,0,0,391,157,225,275,160,309,491,218,239,299,188,408,0,,,,,,
1,1791323338352,-5518,7642,8375,-4510628,1253495,-206472,0,0,0,245,194,157,287,203,269,311,121,158,218,125,241,0,,,,,,
2,1791323338352,248,402,10102,283441,4886,-68416,0,0,0,384,153,221,281,173,318,484,199,244,275,162,419,0,,,,,,
1,1791323338368,-5972,7001,6293,-4674340,574213,58643,0,0,0,243,196,159,282,200,267,328,129,165,217,127,240,0,,,,,,
2,1791323338368,253,311,10131,346971,-51312,-87964,0,0,0,391,183,224,291,199,325,477,181,242,269,153,450,0,,,,,,
1,1791323338384,-4814,6671,6781,-5419596,-102625,306654,0,0,0,239,198,157,277,197,265,328,129,163,214,128,239,0,,,,,,
2,1791323338384,181,210,10174,428827,-90408,-98960,0,0,0,405,189,220,302,208,339,472,161,241,259,138,463,0,,,,,,
1,1791323338400,-3541,5532,8628,-6280916,-461814,452040,0,0,0,239,198,159,288,202,272,334,133,169,214,125,239,0,,,,,,
2,1791323338400,28,129,10160,498466,-81855,-90408,0,0,0,411,197,207,309,213,342,469,150,251,245,118,471,0,,,,,,
1,1791323338416,-3067,3957,9834,-6602231,-593761,471587,0,0,0,230,197,156,278,203,269,315,124,157,215,126,241,0,,,,,,
2,1791323338416,19,71,10150,513126,-9773,-61086,0,0,0,413,214,186,317,222,342,471,146,266,236,107,490,0,,,,,,
1,1791323338432,-2766,3091,10734,-6662096,-774577,393397,0,0,0,232,197,156,292,209,274,315,127,158,216,129,240,0,,,,,,
2,1791323338432,134,23,10222,532674,72082,-52534,0,0,0,426,215,163,364,234,343,471,144,270,227,102,509,0,,,,,,
1,1791323338448,-2531,2684,12524,-6806260,-1031140,188146,0,0,0,223,196,152,278,202,270,341,136,172,215,125,240,0,,,,,,
2,1791323338448,291,-28,10308,594982,182037,-75747,0,0,0,439,220,142,404,251,339,462,142,269,219,98,529,0,,,,,,
1,1791323338464,-2708,1990,14855,-7042054,-1304808,-10995,0,0,0,237,200,158,297,207,277,332,136,168,217,129,244,0,,,,,,
2,1791323338464,406,-124,10332,656069,285884,-114842,0,0,0,426,225,124,337,258,362,453,136,280,209,92,543,0,,,,,,
1,1791323338480,-3412,708,17372,-7238753,-1651779,-128281,0,0,0,235,201,160,299,210,281,340,139,174,213,127,245,0,,,,,,
2,1791323338480,512,-258,10351,691499,383623,-164933,0,0,0,435,221,127,339,264,370,438,134,284,208,101,568,0,,,,,,
1,1791323338496,-3933,-569,19928,-7219205,-2063502,-59864,0,0,0,235,204,160,299,212,285,335,138,174,213,129,245,0,,,,,,
2,1791323338496,689,-402,10581,730594,453262,-218689,0,0,0,450,203,127,342,257,372,427,136,284,223,96,583,0,,,,,,
1,1791323338512,-3613,-1253,22756,-7116580,-2357939,28099,0,0,0,233,206,160,299,214,287,316,135,167,213,133,246,0,,,,,,
2,1791323338512,1009,-497,10916,840550,492357,-283441,0,0,0,462,201,133,388,263,377,416,138,289,225,100,594,0,,,,,,
1,1791323338528,-2718,-2163,26982,-7114136,-2483778,-32986,0,0,0,231,205,161,300,213,289,322,132,173,223,131,251,0,,,,,,
2,1791323338528,1148,-579,11356,1049466,497244,-388510,0,0,0,493,206,133,349,263,393,417,138,289,218,94,615,0,,,,,,
1,1791323338544,-1402,-4800,30830,-7263187,-2744006,-350636,0,0,0,229,205,162,302,213,292,150,54,77,218,128,251,0,,,,,,
2,1791323338544,804,-665,11639,1254717,419053,-450818,0,0,0,492,209,129,367,280,422,390,135,282,224,88,632,0,,,,,,
1,1791323338560,1153,-10035,33290,-7412238,-3434284,-884532,0,0,0,227,211,170,288,210,291,203,75,108,208,125,251,0,,,,,,
2,1791323338560,674,-808,11868,1451415,277332,-443488,0,0,0,495,222,139,370,265,412,381,127,273,220,88,643,0,,,,,,
1,1791323338576,7212,-17937,34644,-7228979,-3793473,-1485624,0,0,0,217,215,172,278,209,293,343,136,190,207,126,253,0,,,,,,
2,1791323338576,760,-899,12601,1740965,197920,-427605,0,0,0,514,237,151,364,263,402,367,135,271,230,89,657,0,,,,,,
1,1791323338592,9279,-26207,32409,-6579018,-2550973,-1971872,0,0,0,211,221,168,279,212,295,347,139,194,208,128,257,0,,,,,,
2,1791323338592,373,-885,13448,2103819,202807,-397062,0,0,0,519,230,148,352,251,395,339,130,264,218,81,653,0,,,,,,
1,1791323338608,636,-39884,22718,-5247332,-977384,-1550375,0,0,0,224,232,174,285,215,294,347,135,191,212,128,261,0,,,,,,
2,1791323338608,-138,-856,14328,2579073,278554,-296880,0,0,0,515,221,141,339,238,390,313,135,262,204,77,667,0,,,,,,
1,1791323338624,-210,-53007,13314,-3484375,-1618792,140499,0,0,0,227,233,177,294,220,301,343,131,191,216,130,265,0,,,,,,
2,1791323338624,784,-1009,15328,3165503,367740,-195476,0,0,0,516,226,151,332,228,386,297,129,265,206,74,667,0,,,,,,
1,1791323338640,17607,-56147,10528,-1464854,-2550973,1400103,0,0,0,201,222,161,277,213,293,357,161,194,237,164,250,0,,,,,,
2,1791323338640,2110,-1225,16018,3821572,414166,-250454,0,0,0,513,232,157,315,219,382,276,123,265,197,72,642,0,,,,,,
1,1791323338656,28925,-46671,14505,855211,23212,222354,0,0,0,169,204,97,275,207,259,367,262,159,320,313,175,0,,,,,,
2,1791323338656,2651,-1220,16889,4641354,398284,-464257,0,0,0,489,229,151,300,220,380,240,127,262,176,69,605,0,,,,,,
1,1791323338672,10710,-22971,22732,3521027,3587000,-1303586,0,0,0,190,192,94,279,180,285,347,268,151,344,353,211,0,,,,,,
2,1791323338672,3938,-1143,18119,5607742,329867,-739146,0,0,0,450,245,150,315,237,369,206,129,257,165,74,564,0,,,,,,
1,1791323338688,-7063,11581,21186,6228381,4983438,-675616,0,0,0,213,216,107,314,212,328,347,292,151,376,405,266,0,,,,,,
2,1791323338688,5838,-1564,20626,6582683,224798,-1094670,0,0,0,403,254,150,313,240,339,188,123,243,153,88,511,0,,,,,,
1,1791323338704,-5374,12744,18463,7075041,4311486,-109955,0,0,0,215,219,123,304,195,341,427,381,213,395,404,293,0,,,,,,
2,1791323338704,6489,-3732,27987,7579615,245567,-1452637,0,0,0,358,190,140,239,189,307,183,115,219,133,71,439,0,,,,,,
1,1791323338720,4331,-4048,19535,5927836,1511280,-999375,0,0,0,216,192,163,303,184,352,439,395,235,404,411,311,0,,x,,,,
2,1791323338720,4441,-5565,36405,8411614,386066,-1722639,0,0,0,308,159,134,209,158,267,191,119,193,118,68,344,0,,x,,,,
1,1791323338736,7695,-6494,19004,4386012,-800233,-994488,0,0,0,235,196,185,311,176,364,450,405,260,453,419,338,0,,,,,,
2,1791323338736,4158,-1502,39191,9064018,-235793,-1925447,0,0,0,229,112,109,182,117,221,200,121,169,102,61,213,0,,,,,,
1,1791323338752,1780,-737,15644,2320066,-1282817,510683,0,0,0,255,219,248,315,195,390,453,404,279,456,415,375,0,,,,,,
2,1791323338752,9116,7724,35520,9533162,-1224173,-2157576,0,0,0,175,104,103,167,96,205,203,124,161,84,50,135,0,,,,,,
1,1791323338768,-3268,-105,12500,774577,-185703,821002,0,0,0,280,252,277,326,229,395,462,397,288,459,408,403,0,,,,,,
2,1791323338768,15060,18640,21378,8842885,-1016479,-2527760,0,0,0,177,107,101,169,96,205,209,119,169,101,66,149,0,,,,,,
1,1791323338784,-2206,-641,10241,109955,493579,168598,0,0,0,309,288,298,333,255,400,469,373,287,476,407,426,0,,,,,,
2,1791323338784,13026,21402,8255,4919908,423940,-2772106,0,0,0,180,97,98,169,90,205,204,112,155,99,52,148,0,,,,,,
1,1791323338800,416,-579,10074,261450,265115,-241902,0,0,0,330,302,368,336,264,411,472,348,294,491,395,449,0,,,,,,
2,1791323338800,7016,19774,8638,-128281,970053,-2269975,0,0,0,178,96,98,169,88,205,211,122,162,100,58,146,0,,,,,,
1,1791323338816,28,-4,10346,334754,-3665,-65973,0,0,0,347,303,432,343,266,418,477,340,305,486,374,469,0,,,,,,
2,1791323338816,3345,14821,13271,-3615100,-228463,-1077566,0,0,0,174,100,99,164,87,200,212,123,165,110,70,155,0,,,,,,
1,1791323338832,-684,191,10332,280998,-36651,68416,0,0,0,375,317,411,353,271,417,485,336,302,466,358,479,0,,,,,,
2,1791323338832,4670,10624,11179,-4555832,-1424537,-239459,0,0,0,176,101,109,167,88,208,213,126,167,99,60,147,0,,,,,,
1,1791323338848,-665,119,10246,245567,-12217,56199,0,0,0,399,329,382,360,289,416,479,310,297,447,334,481,0,,,,,,
2,1791323338848,6829,9006,6518,-4467868,-1393994,-42760,0,0,0,178,98,106,169,85,201,214,126,169,101,60,147,0,,,,,,
1,1791323338864,-392,76,10289,298102,-105068,28099,0,0,0,388,340,395,360,304,415,471,299,308,414,304,487,0,,,,,,
2,1791323338864,6135,8322,5781,-5055520,-482583,-2443,0,0,0,177,99,108,164,83,197,210,122,162,105,62,147,0,,,,,,
1,1791323338880,-373,43,10327,357967,-218689,41538,0,0,0,393,326,375,363,294,420,474,272,322,399,273,486,0,,,,,,
2,1791323338880,4422,7173,7714,-5880188,301767,129503,0,0,0,174,99,110,163,83,199,207,117,159,104,61,148,0,,,,,,
1,1791323338896,-492,4,10356,403171,-309097,50090,0,0,0,388,354,362,371,298,429,456,242,322,393,261,473,0,,,,,,
2,1791323338896,3172,5374,9897,-6385985,737925,368962,0,0,0,174,98,110,167,86,205,212,121,163,98,59,150,0,,,,,,
1,1791323338912,-588,-14,10399,452040,-409279,53756,0,0,0,401,327,332,377,289,424,450,207,316,366,222,470,0,,,,,,
2,1791323338912,2488,4187,11414,-6549697,966388,601091,0,0,0,179,98,112,168,86,208,216,124,165,94,55,152,0,,,,,,
1,1791323338928,-794,-110,10385,521678,-518013,79412,0,0,0,417,322,276,379,291,424,450,193,321,358,197,469,0,,,,,,
2,1791323338928,2244,3570,13271,-6676757,1064127,857654,0,0,0,182,98,112,165,79,205,214,118,168,99,57,156,0,,,,,,
1,1791323338944,-1014,-258,10256,604756,-598647,120951,0,0,0,418,322,262,386,294,426,453,173,325,350,175,469,0,,,,,,
2,1791323338944,3019,3019,15429,-6902777,1138652,1053131,0,0,0,180,97,113,166,79,208,219,123,174,109,69,162,0,,,,,,
1,1791323338960,-1086,-416,10054,642630,-590095,155159,0,0,0,419,327,223,390,307,427,443,162,313,340,172,466,0,,,,,,
2,1791323338960,4034,2301,17449,-7127575,1369559,1121548,0,0,0,185,98,111,176,93,211,225,131,176,110,71,162,0,,,,,,
1,1791323338976,-1019,-564,10136,645073,-477696,171042,0,0,0,423,326,201,398,308,431,424,134,296,337,166,466,0,,,,,,
2,1791323338976,4388,1493,20057,-7307169,1802052,1073901,0,0,0,206,116,116,207,110,213,224,127,172,113,65,164,0,,,,,,
1,1791323338992,-914,-650,10351,664621,-234572,162490,0,0,0,429,343,201,409,325,433,404,112,258,332,166,467,0,,,,,,
2,1791323338992,3953,751,23297,-7406130,2108706,1082453,0,0,0,175,89,106,173,86,209,220,123,173,93,56,156,0,,,,,,
1,1791323339008,-1172,-698,10332,698829,-7330,167377,0,0,0,432,352,201,414,345,440,401,114,243,370,166,458,0,,,,,,
2,1791323339008,3125,-598,26877,-7430564,2208888,1285260,0,0,0,181,96,113,167,84,207,210,116,173,105,65,164,0,,,,,,
1,1791323339024,-1469,-827,10184,741590,142942,223576,0,0,0,437,344,196,418,347,447,401,116,253,376,160,457,0,,,,,,
2,1791323339024,2158,-3661,30332,-7398799,2329840,1715309,0,0,0,176,95,105,173,90,215,210,116,173,105,73,164,0,,,,,,
1,1791323339040,-1569,-1019,10002,769690,161268,315206,0,0,0,443,344,196,422,347,445,385,109,251,324,159,473,0,,,,,,
2,1791323339040,95,-9131,33653,-7403686,2596177,2087937,0,0,0,176,100,113,175,91,215,217,111,174,103,66,169,0,,,,,,
1,1791323339056,-1454,-1249,9973,775798,122173,414166,0,0,0,446,354,204,419,351,448,381,107,256,322,161,479,0,,,,,,
2,1791323339056,-2842,-15218,36037,-7397578,2406809,2166128,0,0,0,171,96,110,174,85,216,224,111,172,112,66,169,0,,,,,,
1,1791323339072,-1158,-1373,10222,814894,94073,488692,0,0,0,457,349,204,432,343,456,409,113,276,324,156,489,0,,,,,,
2,1791323339072,-2364,-23881,34544,-6924768,1109331,2036624,0,0,0,170,101,110,173,83,217,231,111,170,109,55,169,0,,,,,,
1,1791323339088,-406,-1349,10452,897971,59864,502131,0,0,0,466,353,197,442,349,455,396,106,252,327,162,503,0,,,,,,
2,1791323339088,5130,-38760,25513,-5863084,-227241,1461189,0,0,0,170,97,111,174,86,218,235,114,177,107,62,179,0,,,,,,
1,1791323339104,536,-1311,10653,985936,-31764,364075,0,0,0,468,369,205,453,355,459,389,110,268,340,162,495,0,,,,,,
2,1791323339104,8973,-55472,14079,-4299269,774577,-140499,0,0,0,171,98,112,176,90,221,235,112,177,101,60,175,0,,,,,,
1,1791323339120,-38,-1378,11835,1128878,-118507,188146,0,0,0,488,369,202,447,359,464,321,89,239,351,167,505,0,,,,,,
2,1791323339120,-9274,-61760,12730,-1847256,2895501,-1715309,0,0,0,167,101,112,179,90,221,235,115,178,107,58,168,0,,,,,,
1,1791323339136,-808,-1507,13084,1411098,-157603,123394,0,0,0,486,365,210,450,356,465,367,116,271,345,166,516,0,,,,,,
2,1791323339136,-25297,-55721,16922,674395,1721418,-1580919,0,0,0,155,94,95,184,87,212,292,186,181,170,137,145,0,,,,,,
1,1791323339152,-445,-1526,13917,1857030,-190589,109955,0,0,0,493,371,218,457,360,465,292,88,233,345,166,520,0,,,,,,
2,1791323339152,-12691,-32581,21947,2651155,-2031737,-153938,0,0,0,158,97,87,185,84,218,350,269,184,259,236,162,0,,,,,,
1,1791323339168,-162,-1478,14663,2409252,-296880,19547,0,0,0,487,368,209,437,343,459,292,88,226,345,173,519,0,,,,,,
2,1791323339168,6499,6858,20033,4608367,-4289495,862541,0,0,0,164,105,88,197,91,242,373,315,191,307,305,205,0,,,,,,
1,1791323339184,-1014,-1483,15807,3076317,-432492,-24434,0,0,0,485,385,218,435,345,451,247,77,201,351,181,514,0,,,,,,
2,1791323339184,12983,26465,12237,6221051,-3909537,1773952,0,0,0,168,105,88,212,98,264,397,350,200,321,349,229,0,,,,,,
1,1791323339200,-2431,-1493,16726,3909537,-496022,106290,0,0,0,476,383,217,428,358,447,273,95,237,346,185,509,0,,,,,,
2,1791323339200,-2105,-2029,17980,6753726,-811229,3121521,0,0,0,182,104,100,204,84,261,428,378,211,332,350,245,0,,,,,,
1,1791323339216,-2742,-1349,17300,4774522,-444709,353080,0,0,0,460,373,202,425,367,453,282,110,267,327,176,491,0,,,,,,
2,1791323339216,-11768,-12467,25149,5772676,244346,2522873,0,0,0,196,97,110,196,68,248,467,395,218,356,351,253,0,,,,,,
1,1791323339232,-3819,-1603,18305,5799554,-208915,640186,0,0,0,443,387,186,411,374,449,141,57,139,301,168,467,0,x,,,,,
2,1791323339232,-6202,-4417,22033,3229033,-476474,195476,0,0,0,219,103,138,205,76,259,487,394,211,375,353,265,0,x,,,,,
1,1791323339248,-5269,-3866,21713,6784269,252898,995710,0,0,0,429,384,184,380,368,419,94,42,77,269,160,446,0,,,,,,
2,1791323339248,2388,1550,13012,847880,-624304,-537561,0,0,0,253,118,191,211,73,257,491,359,214,362,342,281,0,,,,,,
1,1791323339264,-5068,-6886,28427,7646811,670730,1275486,0,0,0,404,334,191,349,334,377,250,115,200,237,145,424,0,,,,,,
2,1791323339264,2943,1497,8652,-29321,-210137,-45204,0,0,0,275,136,211,227,117,265,492,357,208,374,347,302,0,,,,,,
1,1791323339280,-2507,-7954,34467,8495913,1065348,1393994,0,0,0,330,283,184,305,278,340,309,133,208,216,128,384,0,,,,,,
2,1791323339280,579,76,9696,151494,-21991,189368,0,0,0,297,153,210,254,151,286,513,361,240,377,356,334,0,,,,,,
1,1791323339296,-3709,-2809,36080,9149539,2169793,1364672,0,0,0,246,239,177,278,238,307,340,135,205,194,112,300,0,,,,,,
2,1791323339296,162,234,10638,267558,-84299,50090,0,0,0,307,155,222,275,162,310,528,347,232,372,316,343,0,,,,,,
1,1791323339312,-9710,5369,32682,9062796,3583335,1207069,0,0,0,243,219,174,293,225,298,332,130,187,207,122,250,0,,,,,,
2,1791323339312,861,837,10260,212581,-130725,-47647,0,0,0,314,184,242,272,178,314,523,332,239,374,314,360,0,,,,,,
1,1791323339328,-15630,11136,22536,7921700,3137403,1259604,0,0,0,238,219,162,294,225,292,332,130,181,205,122,246,0,,,,,,
2,1791323339328,938,866,10026,200363,-95294,-18325,0,0,0,319,166,231,293,192,318,518,294,233,365,275,364,0,,,,,,
1,1791323339344,-14668,14362,13864,5086063,983493,1381777,0,0,0,242,218,158,294,222,280,308,119,159,204,120,238,0,,,,,,
2,1791323339344,703,722,10155,240680,-34208,12217,0,0,0,321,168,255,291,184,324,523,274,245,364,257,383,0,,,,,,
1,1791323339360,-7590,15185,11902,591317,-566882,1091005,0,0,0,234,209,149,276,210,277,325,130,166,202,117,233,0,,,,,,
2,1791323339360,603,703,10279,294437,28099,2443,0,0,0,338,183,265,283,183,318,512,249,246,418,231,381,0,,,,,,
1,1791323339376,-4230,11974,12869,-2883283,86742,398284,0,0,0,233,208,150,275,207,271,321,126,165,204,120,236,0,,,,,,
2,1791323339376,655,703,10323,349414,102625,-7330,0,0,0,337,186,250,287,192,322,493,224,246,347,212,405,0,,,,,,
1,1791323339392,-5374,9026,10691,-3747047,730594,31764,0,0,0,232,206,149,276,208,271,321,126,165,206,122,237,0,,,,,,
2,1791323339392,914,660,10279,423940,178372,-20769,0,0,0,336,191,246,286,198,329,488,196,251,276,179,434,0,,,,,,
1,1791323339408,-5838,8332,7264,-3783699,367740,12217,0,0,0,229,205,149,278,209,272,316,122,161,205,119,235,0,,,,,,
2,1791323339408,1182,564,10141,487470,173485,-59864,0,0,0,337,197,233,288,208,337,479,172,262,255,145,457,0,,,,,,
1,1791323339424,-4493,8360,6355,-4472755,-118507,21991,0,0,0,225,204,150,277,208,271,322,122,164,205,118,235,0,,,,,,
2,1791323339424,1287,464,10035,492357,116064,-106290,0,0,0,337,201,220,292,219,345,464,158,271,236,120,475,0,,,,,,
1,1791323339440,-3436,7446,7556,-5536882,-248011,4886,0,0,0,224,203,151,277,207,273,310,117,157,208,122,237,0,,,,,,
2,1791323339440,1344,349,10002,465479,76969,-177150,0,0,0,342,208,220,289,225,347,458,149,268,219,108,487,0,,,,,,
1,1791323339456,-3694,5541,8887,-6214942,-284663,56199,0,0,0,224,203,152,281,210,276,295,111,151,210,123,237,0,,,,,,
2,1791323339456,1100,282,10198,470366,41538,-243124,0,0,0,349,210,211,293,232,348,451,136,259,214,107,501,0,,,,,,
1,1791323339472,-3555,4379,9868,-6476393,-581543,128281,0,0,0,225,203,153,283,210,280,318,128,175,207,121,240,0,,,,,,
2,1791323339472,732,244,10495,576656,-13439,-234572,0,0,0,353,206,193,296,234,350,429,123,256,197,87,510,0,,,,,,
1,1791323339488,-2617,4302,11452,-6702413,-949284,61086,0,0,0,232,206,161,294,212,294,279,119,174,205,118,244,0,,,,,,
2,1791323339488,928,129,10418,718377,-25656,-185703,0,0,0,362,219,165,297,255,350,423,129,265,183,88,530,0,,,,,,
1,1791323339504,-2062,4020,13740,-7048163,-1166752,-118507,0,0,0,224,205,157,281,209,292,321,124,173,206,122,247,0,,,,,,
2,1791323339504,1311,-28,10342,788016,18325,-202807,0,0,0,376,221,150,302,276,360,420,136,273,192,86,549,0,,,,,,
1,1791323339520,-2742,2761,16195,-7380473,-1352455,-219911,0,0,0,235,209,163,297,215,300,311,120,169,205,122,247,0,,,,,,
2,1791323339520,1603,-239,10370,824668,97738,-295658,0,0,0,395,216,127,314,266,367,414,137,269,197,92,565,0,,,,,,
1,1791323339536,-3536,1277,18583,-7561289,-1721418,-155159,0,0,0,236,212,165,296,214,303,207,71,109,209,123,249,0,,,,,,
2,1791323339536,1732,-406,10370,867428,142942,-408057,0,0,0,415,208,127,325,258,377,406,135,266,242,96,567,0,,,,,,
1,1791323339552,-3460,239,21000,-7527081,-2175901,35430,0,0,0,236,212,165,296,214,304,302,116,166,205,122,249,0,,,,,,
2,1791323339552,1593,-555,10409,922406,162490,-513126,0,0,0,429,282,122,347,325,390,401,147,268,210,134,602,0,,,,,,
1,1791323339568,-2483,-272,24173,-7444003,-2452013,178372,0,0,0,225,210,162,283,213,301,315,122,175,202,119,247,0,,,,,,
2,1791323339568,1258,-583,10629,994488,173485,-565661,0,0,0,432,307,129,331,303,380,395,142,270,185,95,601,0,,,,,,
1,1791323339584,-1244,-1512,29188,-7516085,-2513099,14660,0,0,0,220,212,165,282,215,303,298,113,165,202,118,249,0,,,,,,
2,1791323339584,1488,-775,10744,1132544,204028,-603534,0,0,0,446,249,127,406,296,387,394,132,263,230,80,621,0,,,,,,
1,1791323339600,4,-5072,33261,-7682241,-2803871,-470366,0,0,0,224,216,168,292,217,305,278,105,156,201,118,250,0,,,,,,
2,1791323339600,1134,-780,10964,1286482,229685,-646295,0,0,0,475,265,137,393,305,398,382,133,263,218,102,636,0,,,,,,
1,1791323339616,3421,-12476,36242,-7751879,-3496592,-1125213,0,0,0,215,221,168,287,219,298,303,116,170,201,118,247,0,,,,,,
2,1791323339616,933,-823,11825,1500285,182037,-605978,0,0,0,485,289,139,374,310,399,372,134,263,204,100,645,0,,,,,,
1,1791323339632,8408,-21153,37410,-7556403,-3390302,-1696983,0,0,0,209,227,169,282,220,297,300,112,169,203,120,246,0,,,,,,
2,1791323339632,1014,-880,12983,1804495,140499,-548556,0,0,0,502,295,137,369,310,397,356,135,254,210,97,657,0,,,,,,
1,1791323339648,4699,-31749,32304,-6684087,-1536936,-1935221,0,0,0,214,235,173,292,224,305,304,113,174,205,123,255,0,,,,,,
2,1791323339648,52,-741,13979,2241875,142942,-438601,0,0,0,528,307,141,383,303,394,335,139,252,212,100,666,0,,,,,,
1,1791323339664,-4881,-45594,21966,-5250997,-747699,-1089783,0,0,0,215,239,170,293,227,308,338,131,196,208,125,263,0,,,,,,
2,1791323339664,-224,-780,14826,2762332,162490,-234572,0,0,0,531,311,153,371,283,386,311,141,255,209,97,668,0,,,,,,
1,1791323339680,4158,-55525,14127,-3208264,-2459343,946841,0,0,0,208,237,169,281,223,304,330,126,191,213,131,264,0,,,,,,
2,1791323339680,1727,-1115,15496,3384193,194255,-98960,0,0,0,512,290,159,337,267,377,283,139,269,198,90,660,0,,,,,,
1,1791323339696,27298,-56673,11730,-751364,-2566855,1744631,0,0,0,195,227,150,282,220,294,334,161,177,251,189,242,0,,,,,,
2,1791323339696,3488,-1220,15668,4080579,149051,-302989,0,0,0,485,279,156,320,270,376,246,128,278,183,85,640,0,,,,,,
1,1791323339712,29557,-46819,15735,1401324,663399,173485,0,0,0,174,204,90,294,215,276,344,256,155,333,317,194,0,,,,,,
2,1791323339712,4130,-1225,16094,4781853,-12217,-591317,0,0,0,450,290,156,298,274,380,199,117,250,189,90,603,0,,,,,,
1,1791323339728,3239,-15147,18669,4422664,2682920,-323758,0,0,0,196,199,96,309,201,296,356,282,166,352,351,213,0,,,,,,
2,1791323339728,5417,-1976,16893,5560095,-277332,-938289,0,0,0,430,290,153,290,257,373,169,113,236,174,110,531,0,,,,,,
1,1791323339744,-8858,20559,17726,7068932,3198490,736703,0,0,0,204,214,112,301,205,326,392,361,194,368,405,278,0,,,,,,
2,1791323339744,6633,-3790,20095,6371324,-412944,-1359786,0,0,0,394,277,151,251,222,344,178,112,229,146,88,521,0,,,,,,
1,1791323339760,-4053,16357,18851,6906442,2873510,945619,0,0,0,217,207,129,319,204,342,361,298,158,426,442,294,0,,,,,,
2,1791323339760,6269,-5886,27891,7028615,-183259,-1699427,0,0,0,343,244,141,224,196,300,182,125,214,121,83,436,0,,,,,,
1,1791323339776,1995,-5518,22675,5451361,1937664,-335975,0,0,0,208,183,145,300,170,339,450,433,235,416,415,296,0,,,,,,
2,1791323339776,3747,-5446,35300,7742106,2443,-1904677,0,0,0,278,170,124,203,155,258,183,116,176,115,77,321,0,,,,,,
1,1791323339792,3283,-7590,21191,3808133,1463633,-483805,0,0,0,229,209,123,323,203,342,457,440,234,442,414,321,0,,,,,,
2,1791323339792,2804,-478,36822,8465370,-720820,-1921782,0,0,0,213,104,108,176,99,210,203,117,167,105,61,188,0,,,,,,
1,1791323339808,402,-181,14515,1905899,1242499,257785,0,0,0,274,234,126,349,243,348,459,440,246,453,408,371,0,,,,,,
2,1791323339808,7379,5403,32634,8913745,-1336573,-1893682,0,0,0,171,102,102,166,98,202,195,114,152,91,58,145,0,,,,,,
1,1791323339824,-1258,928,10088,322536,726929,271224,0,0,0,317,252,168,362,260,360,459,431,253,453,402,408,0,,,,,,
2,1791323339824,13022,12581,17760,8250345,-305432,-2392148,0,0,0,168,96,99,163,89,204,193,111,152,93,54,147,0,,,,,,
1,1791323339840,-717,-248,9667,-131946,372627,-37873,0,0,0,356,269,177,376,270,366,459,423,247,454,403,427,0,,,,,,
2,1791323339840,11883,16932,7949,5057964,1152091,-2884505,0,0,0,174,92,103,163,81,202,193,107,150,93,54,141,0,,,,,,
1,1791323339856,-110,-201,10485,62308,222354,-106290,0,0,0,387,291,179,384,288,375,459,410,244,454,401,445,0,,,,,,
2,1791323339856,5407,16616,10524,-74525,1268156,-2377487,0,0,0,178,94,106,162,80,197,206,122,159,97,58,149,0,,,,,,
1,1791323339872,-253,516,10457,200363,116064,-24434,0,0,0,408,304,188,391,296,387,460,397,248,455,384,460,0,,,,,,
2,1791323339872,1914,12806,13539,-3551570,117286,-1325577,0,0,0,177,96,107,162,81,199,209,122,162,103,66,159,0,,,,,,
1,1791323339888,-382,612,10165,173485,42760,0,0,0,0,422,313,184,402,297,387,462,387,247,454,366,466,0,,,,,,
2,1791323339888,3680,8518,10351,-4064697,-1109331,-469144,0,0,0,173,94,103,164,83,201,213,123,161,106,64,161,0,,,,,,
1,1791323339904,-330,492,10141,169820,-47647,-3665,0,0,0,425,324,184,403,300,379,456,362,252,438,353,473,0,,,,,,
2,1791323339904,5106,7638,5575,-3827681,-867428,-213802,0,0,0,175,94,105,164,84,201,220,130,167,109,67,161,0,,,,,,
1,1791323339920,-277,421,10241,210137,-146607,-2443,0,0,0,427,319,194,398,295,379,448,325,275,424,334,482,0,,,,,,
2,1791323339920,4192,7867,4771,-4332256,-118507,-35430,0,0,0,177,96,107,161,81,201,220,129,173,110,70,162,0,,,,,,
1,1791323339936,-320,430,10227,260228,-238237,10995,0,0,0,427,319,207,398,299,385,460,319,266,417,325,481,0,,,,,,
2,1791323339936,2407,7475,6757,-5320636,525344,263893,0,0,0,174,94,103,162,80,204,214,124,171,102,61,161,0,,,,,,
1,1791323339952,-397,402,10169,287106,-298102,21991,0,0,0,430,323,222,405,297,391,452,301,265,421,289,476,0,,,,,,
2,1791323339952,1445,5929,8557,-5958379,685390,613308,0,0,0,177,94,105,167,85,208,214,124,170,90,48,160,0,,,,,,
1,1791323339968,-435,373,10155,295658,-332310,28099,0,0,0,430,322,193,409,303,388,458,290,265,404,263,476,0,,,,,,
2,1791323339968,1292,4675,9418,-6168517,652404,860098,0,0,0,177,92,107,168,86,208,218,127,171,77,41,154,0,,,,,,
1,1791323339984,-521,344,10165,291993,-362853,35430,0,0,0,430,322,179,406,307,386,454,261,266,394,263,480,0,,,,,,
2,1791323339984,1799,3953,10399,-6232047,695164,1000597,0,0,0,170,87,104,164,82,207,217,121,168,99,57,162,0,,,,,,
1,1791323340000,-674,282,10083,285884,-351858,47647,0,0,0,428,326,170,409,319,396,447,243,273,382,246,473,0,,,,,,
2,1791323340000,2388,3512,11945,-6356663,915076,1055575,0,0,0,173,94,107,165,85,206,217,124,168,109,71,173,0,,,,,,
1,1791323340016,-717,215,9987,266337,-277332,54977,0,0,0,432,329,158,407,324,389,448,231,265,369,229,474,0,,,,,,
2,1791323340016,2770,3125,13993,-6587570,1264491,1017701,0,0,0,173,94,102,165,80,206,218,124,174,115,64,177,0,,,,,,
1,1791323340032,-689,162,9983,233350,-175929,54977,0,0,0,429,335,154,407,334,401,450,229,277,360,219,474,0,,,,,,
2,1791323340032,2794,2359,16156,-6820921,1554041,944397,0,0,0,176,97,108,166,85,208,214,117,174,98,62,161,0,,,,,,
1,1791323340048,-727,153,10074,208915,-124616,58643,0,0,0,432,330,158,417,329,412,432,190,258,360,207,471,0,,,,,,
2,1791323340048,2617,1469,18554,-6912551,1742187,917519,0,0,0,174,96,108,167,86,214,220,125,175,100,61,166,0,,,,,,
1,1791323340064,-933,153,10150,218689,-140499,108734,0,0,0,431,329,167,423,325,417,415,159,241,362,196,469,0,,,,,,
2,1791323340064,2517,770,21339,-6855129,1806939,1012814,0,0,0,177,96,111,167,87,211,216,124,172,104,63,163,0,,,,,,
1,1791323340080,-1191,114,10241,256563,-167377,194255,0,0,0,429,335,165,427,335,424,399,137,228,372,193,466,0,,,,,,
2,1791323340080,2627,-713,24809,-6780604,1892460,1260825,0,0,0,174,99,115,174,87,217,211,106,165,103,66,167,0,,,,,,
1,1791323340096,-1421,52,10318,313984,-166155,313984,0,0,0,432,342,154,438,347,431,389,115,209,367,183,473,0,,,,,,
2,1791323340096,2321,-4077,28600,-6809925,2047620,1594358,0,0,0,170,101,113,167,85,212,214,114,169,105,59,161,0,,,,,,
1,1791323340112,-1517,-67,10346,400727,-162490,444709,0,0,0,433,354,156,449,361,436,406,137,237,333,165,490,0,,,,,,
2,1791323340112,1301,-9930,31256,-6922324,2035402,1778839,0,0,0,171,102,112,166,86,211,219,120,175,102,62,165,0,,,,,,
1,1791323340128,-1995,-105,10337,480140,-221133,631634,0,0,0,446,348,158,463,367,430,392,128,235,341,162,481,0,,,,,,
2,1791323340128,449,-16525,32476,-6902777,1644449,1727526,0,0,0,167,96,110,171,84,216,221,111,171,102,66,175,0,,,,,,
1,1791323340144,-1737,-143,10404,536339,-296880,842994,0,0,0,457,349,150,473,356,444,318,86,179,342,160,493,0,,,,,,
2,1791323340144,1062,-24412,31213,-6437297,725707,1494176,0,0,0,166,95,109,177,86,225,218,105,168,137,70,180,0,,,,,,
1,1791323340160,-512,-368,10184,588874,-306654,902858,0,0,0,462,367,162,465,354,466,368,91,219,349,166,502,0,,,,,,
2,1791323340160,4402,-35860,23483,-5233893,276111,1084896,0,0,0,169,95,114,179,88,229,225,116,179,145,70,185,0,,,,,,
1,1791323340176,263,-402,9949,569326,-296880,758694,0,0,0,475,388,151,452,369,453,421,121,255,332,167,520,0,,,,,,
2,1791323340176,3637,-50265,14271,-3767816,1318247,140499,0,0,0,166,93,116,176,85,229,235,121,184,112,59,186,0,,,,,,
1,1791323340192,660,-224,10830,596204,-237015,563217,0,0,0,482,377,180,471,375,452,430,140,274,345,166,510,0,,,,,,
2,1791323340192,-10954,-58324,12557,-1792278,2516764,-827111,0,0,0,164,95,116,173,82,228,233,119,180,104,53,180,0,,,,,,
1,1791323340208,-540,-277,12304,866206,-90408,401949,0,0,0,487,392,189,462,387,460,395,122,253,344,170,513,0,,,,,,
2,1791323340208,-22483,-54060,15285,615752,1098335,-853989,0,0,0,159,94,106,180,85,221,259,157,175,149,100,166,0,,,,,,
1,1791323340224,-1119,-445,13462,1258382,-34208,364075,0,0,0,499,361,190,499,371,453,377,110,253,333,158,528,0,,,,,,
2,1791323340224,-14558,-34500,19344,2786767,-2186897,-19547,0,0,0,151,91,83,193,96,213,332,252,171,258,217,152,0,,,,,,
1,1791323340240,-603,-545,14534,1772730,-70860,340862,0,0,0,509,353,206,469,354,466,387,117,274,334,156,540,0,,,,,,
2,1791323340240,4178,10524,19832,4221078,-3483153,454483,0,0,0,171,98,95,190,87,233,353,289,190,272,262,201,0,,,,,,
1,1791323340256,-933,-545,15697,2388483,-125838,288328,0,0,0,508,356,220,429,331,464,338,107,245,342,165,535,0,,,,,,
2,1791323340256,12103,35496,12189,5246110,-3232698,822224,0,0,0,174,105,93,208,101,261,380,343,191,297,330,234,0,,,,,,
1,1791323340272,-2124,-588,16668,3090978,-144164,354301,0,0,0,496,360,227,428,321,447,306,102,228,348,171,522,0,,,,,,
2,1791323340272,4393,7384,10787,5832541,-1445307,1850921,0,0,0,190,105,106,209,86,266,419,363,206,332,353,255,0,,,,,,
1,1791323340288,-2770,-502,17339,3857003,-172263,587652,0,0,0,480,366,222,432,333,435,315,111,235,336,170,501,0,,,,,,
2,1791323340288,-8284,-14725,24005,5771454,-524122,2239431,0,0,0,195,104,116,197,83,252,440,374,208,362,364,263,0,,,,,,
1,1791323340304,-3043,-363,18736,4713436,-178372,836885,0,0,0,456,367,210,425,350,428,307,114,237,311,161,476,0,,,,,,
2,1791323340304,-8207,-8049,25273,4111123,-1088561,648738,0,0,0,205,104,128,193,69,246,461,378,211,354,375,260,0,,,,,,
1,1791323340320,-4335,-224,20923,5701816,91629,1136209,0,0,0,429,358,190,412,356,415,278,113,227,285,153,454,0,,,,,,
2,1791323340320,306,1493,14606,1968207,-1341460,-530231,0,0,0,221,99,136,199,63,249,486,375,214,367,356,271,0,,,,,,
1,1791323340336,-5508,-90,24048,6800151,846659,1477072,0,0,0,402,338,164,381,341,388,294,133,220,254,147,430,0,,,,,,
2,1791323340336,2995,2440,8298,912632,-1031140,-274889,0,0,0,250,102,146,216,65,253,443,336,243,384,359,296,0,,,,,,
1,1791323340352,-5431,-90,27183,7880161,1386664,1759291,0,0,0,349,300,160,333,300,348,309,136,198,223,132,406,0,,,,,,
2,1791323340352,502,-406,9418,714712,-676838,163711,0,0,0,272,117,161,225,74,265,484,367,230,384,363,324,0,,,,,,
1,1791323340368,-2857,-2196,32677,8607091,2265088,1846034,0,0,0,292,254,162,301,254,312,300,118,172,198,115,372,0,,,,,,
2,1791323340368,-684,-933,10873,456927,-397062,167377,0,0,0,285,126,175,233,89,285,509,384,224,378,365,346,0,,,,,,
1,1791323340384,-5551,-1215,35218,9071348,3993836,1725083,0,0,0,223,192,153,271,199,268,305,118,155,220,127,229,0,,,,,,
2,1791323340384,19,205,10519,246789,-234572,6108,0,0,0,298,132,186,242,102,290,509,361,224,380,353,364,0,,,,,,
1,1791323340400,-12926,8939,28341,8750033,4879591,1612684,0,0,0,242,200,155,297,211,281,314,135,165,213,136,240,0,,,,,,
2,1791323340400,263,430,10035,222354,-167377,-7330,0,0,0,308,135,195,250,107,290,509,319,227,375,316,376,0,,,,,,
1,1791323340416,-15898,16606,18066,7183775,4343251,1565036,0,0,0,235,193,146,281,201,270,360,145,185,207,126,238,0,,,,,,
2,1791323340416,76,272,10035,244346,-114842,8552,0,0,0,315,135,198,254,108,296,512,285,233,364,274,384,0,,,,,,
1,1791323340432,-13926,18367,10428,3415958,2235766,1382998,0,0,0,244,193,151,291,205,271,323,128,163,209,123,235,0,,,,,,
2,1791323340432,-43,177,10189,254119,-54977,1221,0,0,0,320,137,197,264,122,301,510,261,231,372,246,396,0,,,,,,
1,1791323340448,-8513,14644,10533,-764803,219911,873537,0,0,0,248,193,154,291,201,269,314,119,158,214,122,237,0,,,,,,
2,1791323340448,0,220,10193,250454,14660,-24434,0,0,0,325,141,201,275,135,309,506,235,234,362,219,411,0,,,,,,
1,1791323340464,-5178,10787,9873,-2282192,-83077,323758,0,0,0,250,194,159,294,203,275,333,128,171,216,124,239,0,,,,,,
2,1791323340464,71,239,10174,261450,74525,-46425,0,0,0,330,154,205,276,145,318,506,226,248,310,203,428,0,,,,,,
1,1791323340480,-4666,8695,6503,-2064724,554665,-256563,0,0,0,242,192,157,285,201,274,349,136,180,216,123,240,0,,,,,,
2,1791323340480,186,119,10150,304210,108734,-72082,0,0,0,335,164,209,284,166,329,497,222,253,274,193,442,0,,,,,,
1,1791323340496,-5336,9183,4723,-2408030,492357,-653625,0,0,0,239,193,154,283,202,273,334,128,170,216,121,241,0,,,,,,
2,1791323340496,330,-86,10059,346971,103847,-103847,0,0,0,346,166,218,292,177,342,488,176,256,253,121,461,0,,,,,,
1,1791323340512,-5183,8973,5264,-3495370,-19547,-943175,0,0,0,240,194,154,291,205,274,241,85,119,223,125,245,0,,,,,,
2,1791323340512,282,-191,10016,370184,76969,-123394,0,0,0,339,180,187,299,185,345,479,165,264,248,127,481,0,,,,,,
1,1791323340528,-4651,7513,7016,-4698775,-610865,-1114218,0,0,0,239,194,155,299,208,276,228,81,112,224,128,247,0,,,,,,
2,1791323340528,90,-124,10107,406836,91629,-100181,0,0,0,344,168,171,302,188,349,470,152,270,230,110,496,0,,,,,,
1,1791323340544,-4321,5795,8356,-5318192,-983493,-1084896,0,0,0,238,196,156,300,210,278,359,141,185,213,123,242,0,,,,,,
2,1791323340544,76,-81,10208,460592,152716,-72082,0,0,0,351,160,153,319,188,352,460,143,265,230,94,497,0,,,,,,
1,1791323340560,-3905,4790,9499,-5726250,-1240056,-962723,0,0,0,236,198,157,299,210,279,337,128,174,214,124,244,0,,,,,,
2,1791323340560,244,-138,10232,516791,252898,-59864,0,0,0,356,207,141,328,208,353,446,135,272,215,92,518,0,,,,,,
1,1791323340576,-3460,3981,11385,-6210056,-1431868,-777020,0,0,0,229,195,154,292,210,278,318,119,162,213,123,244,0,,,,,,
2,1791323340576,406,-253,10198,529009,337197,-75747,0,0,0,357,198,125,335,218,358,440,128,267,202,90,524,0,,,,,,
1,1791323340592,-3206,2933,13792,-6687752,-1600466,-546113,0,0,0,229,195,150,288,207,278,338,130,176,214,125,245,0,,,,,,
2,1791323340592,507,-349,10246,520457,393397,-101403,0,0,0,364,176,128,334,213,369,436,128,275,193,79,537,0,,,,,,
1,1791323340608,-3508,1818,16396,-7034724,-1860695,-222354,0,0,0,238,200,158,304,213,287,341,130,177,214,125,247,0,,,,,,
2,1791323340608,780,-430,10351,538783,427605,-140499,0,0,0,368,167,126,327,215,375,428,125,279,191,82,549,0,,,,,,
1,1791323340624,-3603,789,18894,-7246083,-2175901,109955,0,0,0,236,201,159,300,210,286,259,132,176,212,125,247,0,,,,,,
2,1791323340624,1172,-536,10342,576656,463035,-216246,0,0,0,378,172,128,324,222,375,423,125,278,188,78,566,0,,,,,,
1,1791323340640,-3206,-143,21555,-7304726,-2453234,335975,0,0,0,235,202,160,301,210,286,327,133,179,212,123,248,0,,,,,,
2,1791323340640,1368,-603,10299,625526,486248,-337197,0,0,0,404,182,130,335,229,379,421,132,278,188,81,584,0,,,,,,
1,1791323340656,-2703,-957,25072,-7259522,-2658485,376292,0,0,0,234,201,162,303,210,289,306,114,161,212,122,248,0,,,,,,
2,1791323340656,1263,-660,10844,741590,432492,-439822,0,0,0,422,194,132,344,235,383,421,138,287,196,87,599,0,,,,,,
1,1791323340672,-2182,-2488,30265,-7224092,-2891836,124616,0,0,0,231,206,163,304,214,292,296,110,157,208,119,248,0,,,,,,
2,1791323340672,1373,-784,11141,937067,348193,-530231,0,0,0,430,202,136,343,241,385,418,138,293,208,83,615,0,,,,,,
1,1791323340688,-851,-5967,34132,-7340156,-3313333,-387288,0,0,0,219,210,162,292,213,291,298,110,161,208,120,250,0,,,,,,
2,1791323340688,760,-818,11189,1155757,294437,-596204,0,0,0,450,211,136,351,253,391,404,134,281,219,81,634,0,,,,,,
1,1791323340704,2278,-13328,36123,-7525859,-3992615,-1229060,0,0,0,213,218,159,287,216,292,315,118,172,210,124,251,0,,,,,,
2,1791323340704,205,-894,11591,1351233,305432,-552222,0,0,0,469,218,138,358,262,392,393,133,281,223,83,645,0,,,,,,
1,1791323340720,5307,-21832,35687,-7356039,-3892433,-1936442,0,0,0,214,226,157,297,222,295,317,118,172,209,124,252,0,,,,,,
2,1791323340720,191,-1043,12366,1609019,427605,-431270,0,0,0,472,211,146,349,247,394,382,129,283,221,86,652,0,,,,,,
1,1791323340736,1947,-34089,28360,-6114761,-2474004,-2083050,0,0,0,217,233,161,306,226,302,307,112,166,212,124,260,0,,,,,,
2,1791323340736,0,-1100,13199,2010968,625526,-299323,0,0,0,489,225,149,351,245,407,351,123,276,222,88,665,0,,,,,,
1,1791323340752,-1009,-46915,18152,-4307821,-2403143,-950506,0,0,0,215,234,165,302,225,307,312,115,172,217,129,269,0,,,,,,
2,1791323340752,291,-1134,14036,2469117,783129,-177150,0,0,0,484,235,155,355,236,410,338,137,284,223,93,670,0,,,,,,
1,1791323340768,11423,-54773,12553,-2472782,-3604104,711047,0,0,0,205,227,160,292,222,302,326,127,173,234,149,263,0,,,,,,
2,1791323340768,1454,-1206,15127,3076317,908967,-151494,0,0,0,489,228,165,330,231,409,304,136,287,205,92,666,0,,,,,,
1,1791323340784,28561,-53242,13390,-277332,-1809382,510683,0,0,0,197,209,146,300,216,297,326,158,147,298,232,237,0,,,,,,
2,1791323340784,2005,-1268,16056,3811799,836885,-257785,0,0,0,461,228,156,311,204,407,277,136,279,208,87,654,0,,,,,,
1,1791323340800,18588,-36845,20928,2321287,1973094,-994488,0,0,0,191,194,92,294,186,275,363,262,154,337,324,198,0,,,,,,
2,1791323340800,2971,-1340,16759,4657236,635299,-404392,0,0,0,435,253,161,304,218,404,219,131,275,194,106,624,0,,,,,,
1,1791323340816,-4982,3694,20339,5286427,4378682,-1199739,0,0,0,196,191,108,310,202,318,382,308,178,375,367,243,0,,,,,,
2,1791323340816,4240,-1560,17841,5464800,388510,-668286,0,0,0,413,259,151,288,224,394,192,121,272,160,89,561,0,,,,,,
1,1791323340832,-8686,16396,16740,6505714,5473352,-652404,0,0,0,195,203,124,306,194,333,404,342,186,387,412,275,0,,,,,,
2,1791323340832,5541,-2928,21225,6252816,157603,-962723,0,0,0,376,246,143,253,201,353,178,108,263,140,87,490,0,,,,,,
1,1791323340848,2297,-684,19688,6010913,4173431,-902858,0,0,0,199,188,135,295,177,337,443,415,231,407,415,279,0,,,,,,
2,1791323340848,7016,-5293,29317,7156897,-14660,-1301142,0,0,0,337,216,133,233,185,305,169,98,212,134,80,422,0,,,,,,
1,1791323340864,8466,-7054,23972,4819726,1307251,-1025031,0,0,0,209,182,156,296,169,333,451,421,236,434,412,290,0,,,,,,
2,1791323340864,7470,-3795,33639,7981565,-13439,-1574810,0,0,0,290,151,118,206,144,254,182,103,178,129,71,335,0,,,,,,
1,1791323340880,3670,-1914,18913,3276681,180816,0,0,0,0,225,208,195,305,192,351,449,409,249,443,406,316,0,,,,,,
2,1791323340880,9576,-1344,33376,8818450,256563,-1977981,0,0,0,214,101,103,173,100,212,199,115,167,110,62,211,0,,,,,,
1,1791323340896,-1564,751,11969,1496619,304210,379958,0,0,0,254,223,228,322,229,369,450,401,261,455,397,353,0,,,,,,
2,1791323340896,11471,5857,30969,9136100,869872,-2912605,0,0,0,164,89,98,161,87,199,202,122,159,101,58,142,0,,,,,,
1,1791323340912,-1584,71,9408,304210,425162,39095,0,0,0,281,232,256,336,251,380,453,397,273,465,390,387,0,,,,,,
2,1791323340912,10748,15338,21785,8415279,1132544,-3738495,0,0,0,173,94,105,169,88,209,199,121,158,106,59,159,0,,,,,,
1,1791323340928,28,-248,10169,130725,298102,-156381,0,0,0,297,244,298,346,262,393,457,393,292,468,384,405,0,,,,,,
2,1791323340928,8777,20315,7815,5589416,846659,-3698178,0,0,0,177,94,111,169,82,208,207,123,164,98,52,158,0,,,,,,
1,1791323340944,224,177,10619,251676,145385,-91629,0,0,0,303,259,338,352,267,406,464,384,309,466,366,422,0,,,,,,
2,1791323340944,5967,18736,6633,185703,419053,-2229658,0,0,0,175,91,111,170,86,206,213,126,169,101,51,152,0,,,,,,
1,1791323340960,-296,492,10356,338419,51312,8552,0,0,0,312,277,361,354,275,412,477,357,309,463,338,445,0,,,,,,
2,1791323340960,3843,13969,11423,-3549127,-185703,-704938,0,0,0,174,93,108,170,86,204,207,116,163,100,52,151,0,,,,,,
1,1791323340976,-272,378,10217,310319,0,3665,0,0,0,326,292,382,360,294,414,478,321,297,455,322,454,0,,,,,,
2,1791323340976,3833,8925,12098,-4453207,-924849,135612,0,0,0,178,96,109,167,85,206,211,112,156,98,66,149,0,,,,,,
1,1791323340992,-129,277,10284,318871,-75747,0,0,0,0,349,312,383,368,291,419,464,300,297,425,306,466,0,,,,,,
2,1791323340992,4771,7652,7307,-4032932,-1025031,145385,0,0,0,172,89,107,169,84,205,213,121,160,118,73,159,0,,,,,,
1,1791323341008,-105,234,10346,395840,-180816,17104,0,0,0,371,312,397,372,287,426,470,282,312,414,286,475,0,,,,,,
2,1791323341008,4728,7724,5283,-4429994,-561996,135612,0,0,0,178,96,115,170,87,208,196,102,154,127,63,153,0,,,,,,
1,1791323341024,-162,205,10308,480140,-280998,31764,0,0,0,370,319,354,380,311,418,466,252,313,409,255,481,0,,,,,,
2,1791323341024,3881,7298,6925,-5448917,61086,237015,0,0,0,173,91,114,171,84,208,213,119,162,101,57,159,0,,,,,,
1,1791323341040,-244,167,10241,543670,-372627,32986,0,0,0,368,343,335,389,313,439,453,214,298,390,239,482,0,,,,,,
2,1791323341040,2948,5570,9160,-6183177,403171,329867,0,0,0,177,92,111,174,84,210,214,113,155,100,57,162,0,,,,,,
1,1791323341056,-354,90,10222,572991,-417831,32986,0,0,0,386,311,333,390,300,434,464,206,327,362,206,481,0,,,,,,
2,1791323341056,2311,4273,10260,-6355441,445931,375071,0,0,0,174,94,105,177,88,212,223,126,169,107,63,156,0,,,,,,
1,1791323341072,-512,-14,10174,598647,-432492,46425,0,0,0,397,330,295,398,322,445,438,168,299,360,197,473,0,,,,,,
2,1791323341072,2378,3713,11246,-6338337,416610,481361,0,0,0,174,93,103,175,89,213,220,123,166,107,68,161,0,,,,,,
1,1791323341088,-617,-114,10150,558330,-384845,80634,0,0,0,419,326,261,407,326,445,438,153,294,351,180,473,0,,,,,,
2,1791323341088,3163,3412,12787,-6438519,581543,658512,0,0,0,174,93,106,172,85,210,221,124,170,105,76,162,0,,,,,,
1,1791323341104,-607,-196,10184,491135,-294437,105068,0,0,0,419,316,241,412,327,445,431,135,285,341,164,471,0,,,,,,
2,1791323341104,4134,2933,14783,-6669426,1048244,819781,0,0,0,175,95,107,173,86,212,220,123,166,109,72,167,0,,,,,,
1,1791323341120,-598,-282,10275,448375,-164933,106290,0,0,0,419,321,199,430,342,447,422,134,281,339,157,466,0,,,,,,
2,1791323341120,4503,2086,17128,-6864903,1584584,951728,0,0,0,173,95,106,173,88,212,222,124,169,109,64,169,0,,,,,,
1,1791323341136,-756,-363,10342,471587,-73303,113620,0,0,0,426,328,166,435,347,446,408,118,266,337,159,468,0,,,,,,
2,1791323341136,4154,1067,20033,-6919881,1949881,1109331,0,0,0,173,95,108,170,86,210,219,122,167,107,62,167,0,,,,,,
1,1791323341152,-698,-449,10514,531452,-30543,152716,0,0,0,435,326,164,437,344,447,403,113,273,336,164,473,0,,,,,,
2,1791323341152,3929,-157,23804,-6882007,1969429,1406211,0,0,0,180,98,110,173,84,210,220,115,160,109,62,166,0,,,,,,
1,1791323341168,-464,-512,10686,638965,-25656,164933,0,0,0,438,333,174,449,356,457,388,118,272,336,167,473,0,,,,,,
2,1791323341168,3938,-2263,27240,-6954089,1954768,1798387,0,0,0,187,98,109,180,83,209,236,113,159,118,60,162,0,,,,,,
1,1791323341184,-440,-631,10476,741590,-32986,162490,0,0,0,431,350,185,450,368,463,365,105,239,328,167,476,0,,,,,,
2,1791323341184,3752,-6245,30169,-7132462,2090380,2265088,0,0,0,184,95,108,185,81,208,248,116,159,124,55,156,0,,,,,,
1,1791323341200,-507,-784,10227,788016,-64751,163711,0,0,0,434,355,177,452,365,464,394,121,270,324,165,482,0,,,,,,
2,1791323341200,2483,-12696,32332,-7183775,2288301,2564412,0,0,0,177,95,108,186,83,213,241,119,164,115,51,159,0,,,,,,
1,1791323341216,-588,-890,10476,814894,-109955,172263,0,0,0,437,359,179,454,373,474,407,131,301,328,171,489,0,,,,,,
2,1791323341216,918,-19751,33424,-6939429,1949881,2603507,0,0,0,166,96,112,176,87,217,229,124,174,100,58,170,0,,,,,,
1,1791323341232,-866,-976,10978,929736,-174707,211359,0,0,0,448,361,189,464,377,484,396,120,280,334,169,493,0,,,,,,
2,1791323341232,2751,-28767,29796,-6109874,825889,2389704,0,0,0,163,93,112,176,83,216,228,115,171,112,55,170,0,,,,,,
1,1791323341248,-775,-1086,10993,1098335,-227241,277332,0,0,0,463,358,177,461,400,488,392,115,280,339,173,507,0,,,,,,
2,1791323341248,6680,-41962,21119,-5004208,425162,1694540,0,0,0,166,96,115,175,80,218,224,117,168,105,63,170,0,,,,,,
1,1791323341264,-258,-1191,10686,1226617,-259006,287106,0,0,0,473,365,188,464,391,486,348,91,247,345,173,513,0,,,,,,
2,1791323341264,3383,-57109,12490,-3387858,1804495,91629,0,0,0,166,96,112,176,89,225,224,119,170,114,74,184,0,,,,,,
1,1791323341280,-253,-1311,11237,1357342,-266337,238237,0,0,0,488,370,178,464,386,472,390,117,293,345,176,528,0,,,,,,
2,1791323341280,-15194,-59176,14950,-669508,2486221,-1257160,0,0,0,146,87,85,180,90,211,312,226,169,190,182,151,0,,,,,,
1,1791323341296,-689,-1392,12529,1590693,-205250,215024,0,0,0,486,379,190,463,386,477,312,92,237,363,185,520,0,,,,,,
2,1791323341296,-19755,-39631,23144,2430021,-542448,-995710,0,0,0,154,91,94,184,89,214,347,276,173,226,215,175,0,,,,,,
1,1791323341312,-665,-1469,13634,1957212,-119729,210137,0,0,0,490,363,198,464,369,483,301,88,232,367,183,526,0,,,,,,
2,1791323341312,-3737,-2727,21459,5441587,-5720142,-92851,0,0,0,165,100,103,188,86,239,384,305,189,266,274,203,0,,,,,,
1,1791323341328,-660,-1512,14649,2465452,-54977,197920,0,0,0,491,361,197,466,362,477,317,106,255,351,175,530,0,,,,,,
2,1791323341328,6475,9542,16941,5657833,-8355414,623082,0,0,0,176,101,104,203,86,249,403,333,198,284,306,216,0,,,,,,
1,1791323341344,-1588,-1344,15893,3169168,-41538,271224,0,0,0,487,371,187,450,379,469,299,107,261,338,180,528,0,,,,,,
2,1791323341344,1153,2230,16477,4494746,-5749463,1816713,0,0,0,181,100,103,199,82,248,421,351,202,298,317,227,0,,,,,,
1,1791323341360,-1914,-1239,17123,3957185,-37873,428827,0,0,0,477,374,180,435,394,465,269,95,250,328,185,514,0,,,,,,
2,1791323341360,-8753,-2689,17879,3649308,-1439198,2345722,0,0,0,192,94,107,202,81,246,439,357,200,315,322,240,0,,,,,,
1,1791323341376,-1560,-1215,18353,4919908,-29321,588874,0,0,0,456,372,174,438,386,462,265,101,252,311,176,487,0,,,,,,
2,1791323341376,-10279,-2718,15888,2951700,712268,1021366,0,0,0,222,100,132,210,79,250,463,354,204,350,328,265,0,,,,,,
1,1791323341392,-1813,-1651,20607,6081774,36651,713490,0,0,0,435,371,166,425,371,448,261,110,253,288,163,462,0,,,,,,
2,1791323341392,-1220,813,11816,2092824,853989,-1028697,0,0,0,256,109,151,228,88,259,491,349,204,381,326,284,0,,,,,,
1,1791323341408,-3125,-3421,25288,7154453,285884,816115,0,0,0,419,354,170,383,354,411,166,70,156,257,153,437,0,,,,,,
2,1791323341408,2522,957,11519,1200961,367740,-662177,0,0,0,286,119,185,246,107,271,510,344,201,396,323,300,0,,,,,,
1,1791323341424,-2182,-4977,31945,7908261,746477,825889,0,0,0,383,312,177,344,314,367,58,20,32,241,144,410,0,,,,,,
2,1791323341424,861,-71,11347,509461,-31764,25656,0,0,0,302,135,239,259,125,295,521,346,206,399,324,321,0,,,,,,
1,1791323341440,-2593,-3646,34687,8675508,961501,697608,0,0,0,325,278,184,315,269,337,297,123,194,204,124,386,0,,,,,,
2,1791323341440,-617,-4,10533,267558,-138055,80634,0,0,0,304,147,259,265,134,313,534,353,217,399,323,344,0,,,,,,
1,1791323341456,-6700,191,32835,9542936,1202182,866206,0,0,0,221,221,157,273,219,293,325,127,180,208,125,252,0,,,,,,
2,1791323341456,-464,492,10064,201585,-102625,-48869,0,0,0,317,142,253,253,132,286,532,342,224,413,326,363,0,,,,,,
1,1791323341472,-12352,6671,27350,9568593,1784948,1384220,0,0,0,229,213,148,277,214,278,327,129,166,217,130,241,0,,,,,,
2,1791323341472,95,679,10098,200363,-48869,-80634,0,0,0,317,150,269,256,146,287,526,319,219,410,322,373,0,,,,,,
1,1791323341488,-14802,13256,16300,7088480,1071457,1942551,0,0,0,242,218,151,293,217,278,314,129,160,211,128,240,0,,,,,,
2,1791323341488,-67,588,10193,201585,-41538,-21991,0,0,0,328,176,225,263,140,274,546,313,224,394,293,372,0,,,,,,
1,1791323341504,-11016,16032,9428,2609616,-513126,2034181,0,0,0,248,203,151,295,210,274,323,122,162,213,122,237,0,,,,,,
2,1791323341504,-301,583,10189,227241,-10995,-6108,0,0,0,331,167,209,268,148,285,533,306,228,386,277,390,0,,,,,,
1,1791323341520,-4431,13960,11103,-1571145,-961501,1339016,0,0,0,251,196,149,297,206,273,341,129,172,215,121,238,0,,,,,,
2,1791323341520,-320,603,10122,271224,45204,-21991,0,0,0,344,165,222,272,156,295,541,289,233,383,264,403,0,,,,,,
1,1791323341536,-3201,10409,11921,-3273015,9773,408057,0,0,0,261,188,146,294,200,271,299,109,150,219,117,237,0,,,,,,
2,1791323341536,-258,588,10141,318871,95294,-18325,0,0,0,355,186,222,289,186,304,516,270,226,343,242,419,0,,,,,,
1,1791323341552,-4723,8499,9571,-3596774,525344,-179594,0,0,0,272,185,147,298,197,273,312,113,154,221,116,236,0,,,,,,
2,1791323341552,-210,521,10189,371406,136833,-1221,0,0,0,359,196,237,283,182,299,493,240,221,413,228,407,0,,,,,,
1,1791323341568,-5163,8504,7202,-3817907,75747,-346971,0,0,0,259,191,151,297,198,276,336,125,167,219,119,236,0,,,,,,
2,1791323341568,-129,421,10174,422718,167377,13439,0,0,0,358,211,231,281,202,306,487,240,237,321,209,434,0,,,,,,
1,1791323341584,-3383,8231,7633,-4827057,-515570,-416610,0,0,0,237,194,155,291,200,280,326,122,166,216,122,239,0,,,,,,
2,1791323341584,4,306,10112,459370,175929,17104,0,0,0,357,204,267,284,195,322,482,213,261,295,195,455,0,,,,,,
1,1791323341600,-2158,7020,8935,-5820323,-707381,-482583,0,0,0,238,193,161,299,200,286,352,133,183,215,122,242,0,,,,,,
2,1791323341600,119,205,10050,480140,158824,13439,0,0,0,360,208,260,288,219,325,485,212,270,276,171,469,0,,,,,,
1,1791323341616,-1856,5628,9897,-6344446,-774577,-494800,0,0,0,234,194,161,294,199,287,357,135,187,215,121,240,0,,,,,,
2,1791323341616,138,148,10069,472809,142942,3665,0,0,0,373,212,242,301,226,341,472,191,257,349,158,465,0,,,,,,
1,1791323341632,-1383,4709,10729,-6568023,-910189,-491135,0,0,0,226,194,154,282,198,281,337,126,174,215,121,240,0,,,,,,
2,1791323341632,81,114,10160,452040,182037,-9773,0,0,0,379,214,217,316,237,345,459,167,248,324,151,487,0,,,,,,
1,1791323341648,-928,3914,12342,-6742730,-998153,-508239,0,0,0,234,200,159,301,208,286,306,115,158,216,125,241,0,,,,,,
2,1791323341648,201,76,10241,454483,299323,-29321,0,0,0,387,219,200,331,252,354,452,151,254,253,137,514,0,,,,,,
1,1791323341664,-1220,3211,14209,-6927211,-1037249,-488692,0,0,0,231,206,160,300,206,291,307,116,158,216,126,243,0,,,,,,
2,1791323341664,569,0,10270,463035,411723,-76969,0,0,0,400,220,197,340,249,368,439,143,258,231,115,530,0,,,,,,
1,1791323341680,-2000,2392,16195,-7079928,-1211956,-376292,0,0,0,218,209,155,283,205,285,325,124,168,217,126,243,0,,,,,,
2,1791323341680,985,-138,10265,456927,472809,-173485,0,0,0,408,222,180,344,269,368,429,147,261,213,103,551,0,,,,,,
1,1791323341696,-2206,1512,18473,-7122688,-1573588,-184481,0,0,0,218,213,154,283,207,286,324,125,169,215,127,245,0,,,,,,
2,1791323341696,1497,-263,10404,478918,472809,-332310,0,0,0,417,233,144,356,319,376,431,146,272,221,103,567,0,,,,,,
1,1791323341712,-1804,847,21354,-7137349,-1842369,-15882,0,0,0,224,213,156,296,212,293,286,107,148,212,125,243,0,,,,,,
2,1791323341712,1852,-315,10528,579100,449596,-527787,0,0,0,435,237,126,365,324,384,418,136,273,214,101,585,0,,,,,,
1,1791323341728,-1349,258,25001,-7235087,-1881464,26878,0,0,0,228,215,160,301,214,295,284,105,148,213,125,244,0,,,,,,
2,1791323341728,1588,-397,10112,599869,579100,-747699,0,0,0,436,244,127,376,301,398,405,144,274,200,82,597,0,,,,,,
1,1791323341744,-1244,-2263,29255,-7489207,-2062281,-221133,0,0,0,225,217,163,299,213,297,306,120,160,210,123,246,0,,,,,,
2,1791323341744,100,-291,10993,591317,613308,-819781,0,0,0,459,210,125,382,292,411,400,139,285,202,73,615,0,,,,,,
1,1791323341760,-421,-7360,32744,-7723780,-2720793,-626747,0,0,0,215,216,160,289,211,296,329,132,174,209,123,248,0,,,,,,
