sole_id,timestamp,accel_x,accel_y,accel_z,gyro_x,gyro_y,gyro_z,magn_x,magn_y,magn_z,pressure_01,pressure_02,pressure_03,pressure_04,pressure_05,pressure_06,pressure_07,pressure_08,pressure_09,pressure_10,pressure_11,pressure_12,corrupt,asphalt,transition,concrete,grass,brick
1,1791322457072,-1253,-162,9351,311541,432492,-91629,0,0,0,282,231,272,316,234,362,440,385,239,430,405,346,0,,,,,
1,1791322457088,330,-234,10256,112399,185703,-178372,0,0,0,296,252,289,334,250,378,436,353,243,438,391,367,0,,,,,
1,1791322457104,-19,392,10701,228463,141720,7330,0,0,0,300,272,299,340,259,390,439,348,259,447,374,396,0,,,,,
1,1791322457120,-469,425,10189,227241,79412,34208,0,0,0,318,286,300,342,267,397,434,331,276,442,356,414,0,,,,,
1,1791322457136,-382,311,10021,215024,-19547,0,0,0,0,333,298,309,353,277,401,435,317,278,434,336,424,0,,,,,
1,1791322457152,-287,306,10203,266337,-113620,0,0,0,0,344,311,324,365,284,406,425,268,258,425,306,434,0,,,,,
1,1791322457168,-301,296,10241,321315,-189368,18325,0,0,0,356,321,327,372,287,413,421,227,265,414,279,446,0,,,,,
2,1791322457168,0,0,0,0,0,0,0,0,0,163,94,93,160,90,178,207,117,136,98,67,126,0,,,,,
1,1791322457184,-382,258,10189,349414,-255341,25656,0,0,0,372,330,314,377,293,418,435,228,293,402,261,456,0,,,,,
2,1791322457184,-2536,-2292,3263,-73303,-131946,-152716,0,0,0,164,93,95,160,86,180,207,118,139,101,64,119,0,,,,,
1,1791322457200,-497,210,10155,361632,-294437,31764,0,0,0,388,339,310,383,303,422,433,203,294,380,238,457,0,,,,,
2,1791322457200,-5800,-4201,10710,-1067792,-965167,-1076344,0,0,0,159,90,92,160,87,181,211,123,145,98,58,118,0,,,,,
1,1791322457216,-631,143,10145,376292,-279776,61086,0,0,0,397,342,324,389,309,432,433,174,303,360,208,452,0,,,,,
2,1791322457216,-2957,239,15147,-4056145,-1721418,-1364672,0,0,0,158,88,92,163,93,184,216,127,144,96,44,121,0,,,,,
1,1791322457232,-617,43,10088,393397,-199142,91629,0,0,0,409,351,263,393,316,423,445,166,308,346,179,460,0,,,,,
2,1791322457232,2244,4283,14309,-6757391,-377514,415388,0,0,0,164,93,94,159,88,180,211,119,140,101,46,124,0,,,,,
1,1791322457248,-536,-14,10074,394618,-118507,103847,0,0,0,417,343,230,408,340,431,411,141,275,339,172,451,0,,,,,
2,1791322457248,4197,3833,14955,-7660250,1049466,1629788,0,0,0,164,96,94,164,90,185,217,127,153,106,71,138,0,,,,,
1,1791322457264,-488,-38,10256,409279,-80634,100181,0,0,0,426,337,211,428,335,438,346,93,210,344,166,448,0,,,,,
2,1791322457264,3776,1679,17989,-7337713,1205847,1342681,0,0,0,164,96,98,164,91,185,212,120,140,100,69,117,0,,,,,
1,1791322457280,-559,-76,10610,483805,-118507,98960,0,0,0,429,352,195,428,346,436,390,116,237,331,169,453,0,,,,,
2,1791322457280,3957,636,21091,-7268074,1174082,1014036,0,0,0,162,95,97,164,87,183,196,104,140,106,60,123,0,,,,,
1,1791322457296,-665,-162,10921,614530,-174707,108734,0,0,0,429,353,189,431,366,441,373,114,231,326,167,460,0,,,,,
2,1791322457296,4331,129,24776,-7401243,1359786,1034805,0,0,0,162,95,99,165,91,183,216,126,153,104,65,124,0,,,,,
1,1791322457312,-655,-258,10954,758694,-183259,129503,0,0,0,436,355,169,432,368,435,377,117,235,321,167,460,0,,,,,
2,1791322457312,3910,-1612,28499,-7498981,1583362,1437976,0,0,0,156,96,96,161,90,184,218,121,146,146,88,134,0,,,,,
1,1791322457328,-665,-358,10854,883311,-177150,155159,0,0,0,436,360,169,445,357,437,342,100,212,325,162,469,0,x,,,,
2,1791322457328,3560,-5747,31739,-7619932,1761735,1964542,0,0,0,151,96,92,164,89,188,218,123,148,114,65,130,0,x,,,,
1,1791322457344,-818,-521,10672,974940,-200363,196698,0,0,0,440,363,178,457,352,438,349,100,218,331,157,476,0,,,,,
2,1791322457344,3254,-12333,33677,-7655363,1876578,2355496,0,0,0,154,98,97,171,86,187,231,121,149,106,57,133,0,,,,,
1,1791322457360,-957,-698,10691,1060462,-237015,254119,0,0,0,447,360,181,458,351,442,364,107,238,327,154,480,0,,,,,
2,1791322457360,3321,-20488,33194,-7324274,1365894,2362826,0,0,0,150,97,94,167,84,192,230,124,154,100,61,135,0,,,,,
1,1791322457376,-976,-837,10902,1171639,-249233,315206,0,0,0,454,358,187,456,350,449,356,102,245,326,156,487,0,,,,,
2,1791322457376,5723,-30265,28872,-6428745,532674,2070833,0,0,0,147,97,96,169,89,201,227,125,155,101,64,140,0,,,,,
1,1791322457392,-760,-1000,10835,1329242,-246789,364075,0,0,0,460,359,194,458,348,454,351,95,249,339,160,495,0,,,,,
2,1791322457392,7575,-43340,19741,-4835609,973719,1082453,0,0,0,148,98,98,171,90,208,231,124,156,102,60,148,0,,,,,
1,1791322457408,-459,-1129,10792,1456302,-257785,367740,0,0,0,469,360,192,462,345,462,329,89,238,349,161,503,0,,,,,
2,1791322457408,-727,-56429,13467,-2908940,2604729,-360410,0,0,0,151,103,100,171,89,207,235,127,158,103,65,153,0,,,,,
1,1791322457424,-382,-1220,11509,1605353,-265115,324980,0,0,0,478,356,189,463,346,461,312,91,225,337,157,515,0,,,,,
2,1791322457424,-17846,-60636,14783,-768468,2783102,-1073901,0,0,0,148,100,92,177,87,197,273,169,159,150,119,141,0,,,,,
1,1791322457440,-469,-1320,12802,1887573,-233350,273667,0,0,0,484,361,191,459,346,460,338,101,249,340,156,519,0,,,,,
2,1791322457440,-16534,-44340,19597,1705535,-331088,-377514,0,0,0,141,87,73,186,86,196,341,249,163,237,209,143,0,,,,,
1,1791322457456,-488,-1416,13921,2278527,-205250,223576,0,0,0,488,367,197,449,345,461,339,115,264,339,165,524,0,,,,,
2,1791322457456,-1076,-7360,18238,4355469,-2853962,312763,0,0,0,154,95,77,197,96,224,366,302,172,270,268,193,0,,,,,
1,1791322457472,-1028,-1421,15305,2878397,-207694,193033,0,0,0,481,369,202,440,338,455,303,106,254,338,175,524,0,,,,,
2,1791322457472,11203,20119,9518,6538701,-3551570,808785,0,0,0,178,113,84,223,111,251,414,364,184,298,334,215,0,,,,,
1,1791322457488,-2230,-1340,16755,3681073,-199142,287106,0,0,0,473,388,209,424,356,455,271,97,231,333,190,505,0,,,,,
2,1791322457488,4589,382,13491,7084815,-1907121,1912008,0,0,0,222,136,103,236,111,263,439,406,197,307,359,239,0,,,,,
1,1791322457504,-2713,-1124,18013,4568050,-153938,518013,0,0,0,458,372,193,423,364,455,268,107,261,315,171,487,0,,,,,
2,1791322457504,-6006,-9858,24924,6787934,-915076,2401922,0,0,0,205,98,107,201,70,240,466,381,200,325,358,246,0,,,,,
1,1791322457520,-3776,-1024,20095,5681046,57421,805120,0,0,0,437,387,178,419,360,456,278,123,285,293,161,464,0,,,,,
2,1791322457520,-6542,-4680,25541,4736649,-1117883,965167,0,0,0,189,93,110,206,80,238,486,389,197,332,348,254,0,,,,,
1,1791322457536,-4881,-1584,23661,6906442,488692,1148426,0,0,0,429,375,178,404,345,435,242,109,229,273,152,447,0,,,,,
2,1791322457536,-335,62,16171,1881464,-970053,-251676,0,0,0,195,91,113,206,77,243,497,404,209,339,354,275,0,,,,,
1,1791322457552,-4929,-3417,28887,7937582,905302,1353677,0,0,0,388,338,179,363,324,393,247,109,201,241,146,423,0,,,,,
2,1791322457552,2790,631,8518,155159,-399505,-204028,0,0,0,229,102,139,206,66,243,506,375,217,344,355,292,0,,,,,
1,1791322457568,-2928,-4072,34697,8929628,928515,1429424,0,0,0,336,300,185,323,291,360,262,111,189,215,132,402,0,,,,,
2,1791322457568,1105,-14,8892,67195,-140499,135612,0,0,0,242,109,160,213,79,255,511,375,223,342,345,318,0,,,,,
1,1791322457584,-1780,-1952,37812,9663888,1566258,1434311,0,0,0,276,260,189,299,252,323,288,118,184,210,129,315,0,,,,,
2,1791322457584,119,4,10519,267558,-182037,134390,0,0,0,262,115,174,237,96,280,517,354,225,347,327,348,0,,,,,
1,1791322457600,-7767,5561,33687,9920451,2681698,1372003,0,0,0,239,239,185,291,233,300,313,131,189,213,134,240,0,,,,,
2,1791322457600,536,344,10404,239459,-211359,1221,0,0,0,281,135,192,243,117,292,515,339,239,356,316,375,0,,,,,
1,1791322457616,-12792,14663,21603,8663290,2583959,1412320,0,0,0,241,248,174,295,239,297,318,137,187,211,135,243,0,,,,,
2,1791322457616,813,449,9987,177150,-162490,-35430,0,0,0,286,142,217,251,123,298,515,320,235,347,287,388,0,,,,,
1,1791322457632,-10748,17295,10911,5287649,1382998,1491732,0,0,0,248,243,154,296,236,283,317,135,174,212,133,232,0,,,,,
2,1791322457632,717,392,9964,184481,-72082,-13439,0,0,0,288,140,214,254,129,298,514,286,240,324,249,397,0,,,,,
1,1791322457648,-5924,14879,10184,180816,467922,1160643,0,0,0,265,228,150,301,227,281,321,136,170,217,134,229,0,,,,,
2,1791322457648,603,378,10131,249233,-2443,-19547,0,0,0,311,141,203,271,138,307,511,257,247,307,220,418,0,,,,,
1,1791322457664,-4173,10921,11552,-2827084,350636,643851,0,0,0,252,226,153,287,220,275,319,132,163,216,135,225,0,,,,,
2,1791322457664,607,368,10117,296880,46425,-31764,0,0,0,324,144,204,285,148,317,496,227,245,283,187,435,0,,,,,
1,1791322457680,-5063,8470,8906,-3332880,171042,348193,0,0,0,250,220,152,288,217,275,308,124,156,216,128,223,0,,,,,
2,1791322457680,746,311,10035,332310,54977,-37873,0,0,0,316,146,207,284,163,318,472,188,246,255,144,443,0,,,,,
1,1791322457696,-4876,8442,5853,-3638313,-543670,339641,0,0,0,250,211,151,292,213,277,43,7,14,212,130,227,0,,,,,
2,1791322457696,856,229,10021,372627,46425,-51312,0,0,0,333,146,207,294,178,327,457,159,252,246,119,464,0,,,,,
1,1791322457712,-3062,8676,5862,-4747644,-1320690,360410,0,0,0,242,211,151,289,213,274,231,87,114,213,130,224,0,,,,,
2,1791322457712,880,129,10059,408057,39095,-69638,0,0,0,349,147,195,307,180,336,446,138,257,231,108,483,0,,,,,
1,1791322457728,-1440,7006,8265,-6108652,-1644449,184481,0,0,0,233,212,153,288,214,281,319,133,170,210,128,227,0,,,,,
2,1791322457728,823,57,10150,431270,63529,-85521,0,0,0,357,157,165,322,191,344,426,112,254,211,99,495,0,,,,,
1,1791322457744,-636,5250,9877,-6638883,-1692096,-70860,0,0,0,222,211,151,276,212,278,331,139,177,211,131,229,0,,,,,
2,1791322457744,713,9,10260,481361,123394,-89186,0,0,0,367,169,145,334,196,343,424,116,265,207,91,513,0,,,,,
1,1791322457760,105,4532,10878,-6710965,-1643227,-331088,0,0,0,226,216,153,281,214,277,342,145,184,211,131,229,0,,,,,
2,1791322457760,641,-33,10323,542448,228463,-68416,0,0,0,366,233,121,324,220,357,415,136,269,198,90,514,0,,,,,
1,1791322457776,445,4283,12227,-6775717,-1479515,-586430,0,0,0,232,221,156,289,217,281,313,137,181,212,131,231,0,,,,,
2,1791322457776,880,-143,10193,561996,318871,-54977,0,0,0,370,229,120,323,223,358,404,135,272,188,72,522,0,,,,,
1,1791322457792,-373,3584,14175,-7055493,-1464854,-596204,0,0,0,229,222,154,284,216,282,282,126,170,213,133,234,0,,,,,
2,1791322457792,1249,-244,10193,554665,360410,-84299,0,0,0,375,229,123,324,229,375,390,129,264,205,106,538,0,,,,,
1,1791322457808,-1038,2608,16463,-7312056,-1663996,-383623,0,0,0,230,222,156,281,215,284,308,134,176,213,133,237,0,,,,,
2,1791322457808,1354,-306,10500,607200,335975,-153938,0,0,0,387,178,127,322,210,363,383,120,271,309,90,518,0,,,,,
1,1791322457824,-1119,1622,18769,-7407351,-1981646,30543,0,0,0,234,225,163,291,217,289,337,141,188,214,131,242,0,,,,,
2,1791322457824,1162,-373,10619,713490,293215,-205250,0,0,0,398,169,128,318,215,364,383,119,286,219,76,555,0,,,,,
1,1791322457840,-650,861,21296,-7354817,-2194227,447153,0,0,0,230,225,158,293,220,289,329,136,182,211,129,241,0,,,,,
2,1791322457840,995,-454,10547,816115,268780,-207694,0,0,0,406,182,136,322,218,376,383,134,295,193,77,582,0,,,,,
1,1791322457856,4,277,24737,-7308391,-2288301,734260,0,0,0,228,225,158,293,220,290,343,145,192,210,131,239,0,,,,,
2,1791322457856,1296,-593,10734,933402,285884,-208915,0,0,0,415,185,135,337,224,383,379,130,281,211,89,600,0,,,,,
1,1791322457872,713,-1225,29308,-7362147,-2410474,734260,0,0,0,223,228,161,293,222,291,344,144,192,207,128,237,0,,,,,
2,1791322457872,1636,-737,10954,1089783,302989,-254119,0,0,0,427,178,134,341,228,403,371,128,283,223,84,611,0,,,,,
1,1791322457888,1832,-4953,33247,-7539298,-2829527,535117,0,0,0,204,225,155,272,218,287,358,149,204,209,130,240,0,,,,,
2,1791322457888,1598,-899,11026,1281595,310319,-327423,0,0,0,450,180,132,342,226,414,365,131,274,233,89,624,0,,,,,
1,1791322457904,4843,-11988,35994,-7777536,-3468492,199142,0,0,0,201,226,154,272,218,289,358,149,203,206,132,232,0,,,,,
2,1791322457904,1430,-1000,11581,1479515,324980,-353080,0,0,0,469,195,141,340,228,401,350,137,259,234,87,635,0,,,,,
1,1791322457920,7116,-21646,35281,-7574728,-2966361,-243124,0,0,0,206,231,171,291,224,303,354,148,204,204,133,241,0,,,,,
2,1791322457920,1454,-1019,12715,1761735,332310,-359188,0,0,0,475,208,156,338,234,386,328,141,258,227,78,642,0,,,,,
1,1791322457936,1938,-33223,30088,-6614448,-1593136,-404392,0,0,0,208,238,171,298,227,306,301,122,174,208,135,246,0,,,,,
2,1791322457936,1139,-1000,13711,2153910,302989,-343306,0,0,0,479,209,153,342,229,382,314,137,256,229,85,652,0,,,,,
1,1791322457952,-3225,-46551,19995,-4640132,-1903456,741590,0,0,0,200,239,164,288,227,302,319,130,184,211,134,247,0,,,,,
2,1791322457952,1062,-1072,14730,2720793,305432,-259006,0,0,0,487,208,150,326,205,377,295,131,255,229,82,663,0,,,,,
1,1791322457968,10083,-54405,13548,-2487443,-3560122,2098932,0,0,0,216,229,162,291,223,301,358,146,209,214,133,243,0,,,,,
2,1791322457968,2163,-1158,15764,3390302,346971,-239459,0,0,0,494,205,156,320,195,385,260,119,240,217,81,658,0,,,,,
1,1791322457984,32548,-54677,12811,-393397,-2857627,1585806,0,0,0,206,209,134,286,208,280,342,181,174,272,225,211,0,,,,,
2,1791322457984,2804,-1091,16367,4145331,313984,-397062,0,0,0,469,215,156,303,190,369,231,131,250,221,90,633,0,,,,,
1,1791322458000,22316,-37496,16534,1913229,1248608,-686612,0,0,0,189,191,106,283,190,276,329,223,149,326,317,201,0,,,,,
2,1791322458000,2991,-933,17099,4949230,130725,-563217,0,0,0,437,216,162,294,203,374,210,132,256,197,83,595,0,,,,,
1,1791322458016,-1966,3455,14233,4602258,4225965,-1802052,0,0,0,195,192,106,292,188,298,338,261,162,345,361,227,0,,,,,
2,1791322458016,4245,-1177,18018,5795889,-219911,-775798,0,0,0,405,219,144,272,202,371,179,122,223,158,95,523,0,,,,,
1,1791322458032,-11911,23981,10260,6227160,5048190,-1716531,0,0,0,207,207,120,301,201,315,349,308,173,369,402,247,0,,,,,
2,1791322458032,5226,-2340,21311,6621779,-586430,-1023810,0,0,0,382,208,139,264,198,339,170,106,205,144,79,459,0,,,,,
1,1791322458048,684,-1871,15534,6031683,2739119,-2219884,0,0,0,209,196,136,303,194,331,397,359,198,394,419,264,0,,,,,
2,1791322458048,5843,-4728,29164,7486764,-736703,-1249830,0,0,0,341,178,136,231,168,290,178,112,195,144,78,402,0,,,,,
1,1791322458064,10662,-9887,24158,5617516,745255,-2157576,0,0,0,200,165,157,290,163,335,425,382,207,418,432,283,0,,,,,
2,1791322458064,6111,-5336,35965,8355414,-487470,-1395216,0,0,0,281,139,115,199,134,243,194,121,166,116,70,306,0,,,,,
1,1791322458080,5939,-2249,22498,4433659,781907,-267558,0,0,0,204,163,178,289,154,336,419,360,194,435,433,292,0,,,,,
2,1791322458080,7413,-282,36836,9348681,-186924,-1688431,0,0,0,186,97,96,167,98,188,203,127,150,96,55,154,0,,,,,
1,1791322458096,-2359,1368,13811,2389704,934623,744033,0,0,0,209,163,205,277,147,334,441,408,233,427,421,308,0,,,,,
2,1791322458096,11141,9609,30121,9613797,-6108,-2146580,0,0,0,162,93,95,161,94,182,201,124,140,89,56,111,0,,,,,
1,1791322458112,-2349,134,9801,1038470,678060,135612,0,0,0,236,194,216,307,193,349,439,377,241,445,414,331,0,,,,,
2,1791322458112,13931,17267,16731,8293106,904080,-2770884,0,0,0,165,93,96,162,89,185,195,107,135,94,61,122,0,,,,,
1,1791322458128,-459,-722,9657,361632,448375,-210137,0,0,0,279,223,248,329,228,365,425,345,229,456,416,349,0,,,,,
2,1791322458128,11720,19789,7097,4310265,2235766,-3280346,0,0,0,173,93,99,170,82,181,215,111,139,98,49,112,0,,,,,
1,1791322458144,459,-430,10787,196698,299323,-106290,0,0,0,297,245,279,328,245,374,438,361,248,451,401,361,0,,,,,
2,1791322458144,4374,18353,10959,-1227839,1998751,-2532647,0,0,0,175,95,101,168,80,177,222,122,143,97,47,108,0,,,,,
1,1791322458160,-248,124,10519,194255,180816,39095,0,0,0,310,264,286,335,254,383,428,314,238,455,389,384,0,,,,,
2,1791322458160,1234,14347,14438,-4421442,533896,-1262047,0,0,0,166,91,96,162,83,175,206,120,138,95,56,118,0,,,,,
1,1791322458176,-550,229,10088,205250,79412,40317,0,0,0,322,279,298,344,261,391,415,272,226,454,362,414,0,,,,,
2,1791322458176,3407,9758,11658,-4746422,-646295,-300545,0,0,0,163,88,93,166,88,177,205,114,133,94,53,116,0,,,,,
1,1791322458192,-378,148,10122,237015,-6108,8552,0,0,0,335,299,299,356,287,389,409,246,221,443,341,434,0,,,,,
2,1791322458192,4852,7733,7977,-4535063,-640186,101403,0,0,0,162,89,95,163,84,180,210,113,137,97,56,119,0,,,,,
1,1791322458208,-287,114,10265,290771,-91629,15882,0,0,0,352,318,309,372,300,399,406,219,221,434,317,449,0,,,,,
2,1791322458208,3895,7542,7178,-4973664,36651,320093,0,0,0,163,90,95,160,79,180,216,119,140,106,62,127,0,,,,,
1,1791322458224,-311,76,10222,333532,-169820,32986,0,0,0,363,325,320,378,293,412,410,212,243,424,291,458,0,,,,,
2,1791322458224,2799,6685,9107,-5854532,349414,586430,0,0,0,162,87,94,161,83,180,207,112,134,103,62,125,0,,,,,
1,1791322458240,-397,14,10131,338419,-232128,29321,0,0,0,370,326,318,371,288,413,420,220,274,410,269,459,0,,,,,
2,1791322458240,2742,5245,10614,-6410419,419053,764803,0,0,0,165,91,101,161,83,182,207,121,138,94,61,120,0,,,,,
1,1791322458256,-454,-23,10126,337197,-266337,28099,0,0,0,387,333,313,376,293,417,422,199,278,398,242,460,0,,,,,
2,1791322458256,3129,4087,11586,-6669426,493579,824668,0,0,0,164,92,97,161,84,182,202,113,137,99,54,120,0,,,,,
1,1791322458272,-545,-67,10131,335975,-279776,43982,0,0,0,393,340,289,380,295,418,424,174,275,386,225,463,0,,,,,
2,1791322458272,3445,3675,13026,-6984633,687834,850324,0,0,0,164,92,104,160,84,184,211,120,154,113,54,127,0,,,,,
1,1791322458288,-574,-124,10126,335975,-266337,70860,0,0,0,403,340,262,396,308,420,416,165,271,378,210,454,0,,,,,
2,1791322458288,4096,2799,15247,-7307169,973719,867428,0,0,0,165,92,101,162,87,183,203,114,141,96,63,122,0,,,,,
1,1791322458304,-526,-191,10069,343306,-218689,84299,0,0,0,403,336,264,385,310,426,448,179,328,348,184,465,0,,,,,
2,1791322458304,4694,1593,17496,-7396356,1356120,840550,0,0,0,163,91,95,163,84,183,205,113,142,104,62,126,0,,,,,
1,1791322458320,-483,-239,10078,333532,-157603,74525,0,0,0,415,337,228,399,321,426,408,132,262,343,171,456,0,,,,,
2,1791322458320,4498,674,19961,-7343821,1786169,855211,0,0,0,167,97,103,165,85,183,221,126,150,101,54,125,0,,,,,
1,1791322458336,-516,-263,10275,331088,-131946,59864,0,0,0,425,343,205,418,325,433,358,94,211,352,168,451,0,,,,,
2,1791322458336,4015,71,22947,-7302283,2052507,1038470,0,0,0,157,91,92,166,86,187,217,121,151,95,41,119,0,,,,,
1,1791322458352,-588,-306,10576,403171,-149051,52534,0,0,0,428,346,201,426,334,435,352,86,215,338,160,455,0,,,,,
2,1791322458352,3910,-1201,26570,-7276626,2090380,1472185,0,0,0,159,98,97,166,85,185,208,115,140,92,61,121,0,,,,,
1,1791322458368,-670,-378,10839,531452,-186924,59864,0,0,0,429,347,188,430,340,442,353,89,216,325,152,461,0,,,,,
2,1791322458368,3742,-4340,29935,-7239974,2184454,2018298,0,0,0,153,97,97,166,87,186,206,114,140,100,66,126,0,,,,,
1,1791322458384,-751,-445,11031,681725,-270002,87964,0,0,0,432,348,185,436,344,445,401,131,268,325,150,470,0,,,,,
2,1791322458384,2842,-9964,32562,-7208209,2372600,2476447,0,0,0,152,96,96,161,84,187,212,121,143,102,67,132,0,,,,,
1,1791322458400,-880,-531,11007,841772,-362853,139277,0,0,0,436,347,179,442,345,444,360,109,239,319,152,475,0,,,,,
2,1791322458400,708,-17238,33792,-7072597,2118480,2520429,0,0,0,152,94,100,164,85,195,217,128,151,97,55,137,0,,,,,
1,1791322458416,-1019,-641,10916,974940,-392175,197920,0,0,0,442,350,178,451,345,444,315,83,212,319,154,480,0,,,,,
2,1791322458416,282,-25025,32294,-6549697,1176526,2351831,0,0,0,151,94,103,169,90,202,236,140,167,105,59,149,0,,,,,
1,1791322458432,-938,-808,10643,1103222,-368962,260228,0,0,0,456,352,178,455,344,451,328,88,231,322,153,492,0,,,,,
2,1791322458432,3139,-39353,23943,-5469687,243124,1731192,0,0,0,153,97,101,166,88,201,243,140,166,110,74,156,0,,,,,
1,1791322458448,-717,-1000,10380,1188743,-335975,287106,0,0,0,468,354,176,452,343,456,337,90,236,329,155,504,0,,,,,
2,1791322458448,751,-56754,14572,-3927863,598647,364075,0,0,0,154,97,101,165,85,199,217,124,152,97,63,148,0,,,,,
1,1791322458464,-799,-1153,10835,1262047,-283441,273667,0,0,0,474,359,181,460,348,461,299,79,219,339,160,508,0,,,,,
2,1791322458464,-12921,-65034,11701,-1615127,1490511,-968832,0,0,0,154,96,98,168,90,193,237,151,151,126,105,140,0,,,,,
1,1791322458480,-1277,-1229,12208,1462411,-189368,289550,0,0,0,486,356,188,460,349,474,309,91,242,327,151,520,0,,,,,
2,1791322458480,-20397,-52107,16946,1340238,-106290,-728151,0,0,0,138,89,73,180,97,186,332,260,152,231,241,128,0,,,,,
1,1791322458496,-1148,-1301,13452,1810604,-87964,328645,0,0,0,493,366,194,464,348,463,301,93,238,342,159,515,0,,,,,
2,1791322458496,-8327,-18702,19660,4140444,-2452013,153938,0,0,0,148,94,80,186,98,214,355,332,175,264,282,172,0,,,,,
1,1791322458512,-607,-1359,14410,2263866,-40317,312763,0,0,0,485,380,215,458,346,469,313,114,270,356,171,512,0,,,,,
2,1791322458512,8657,16353,13017,6539923,-3733608,829554,0,0,0,164,99,79,216,101,241,380,333,173,287,289,200,0,,,,,
1,1791322458528,-1249,-1387,15496,2869844,-58643,282219,0,0,0,483,401,207,445,347,447,299,103,249,343,177,516,0,,,,,
2,1791322458528,6240,4608,13352,7015176,-2408030,1692096,0,0,0,182,105,94,201,96,240,400,373,184,300,338,208,0,,,,,
1,1791322458544,-1694,-1186,16798,3641978,-70860,354301,0,0,0,468,397,207,421,358,442,274,98,226,335,182,499,0,,,,,
2,1791322458544,-4752,-8418,23632,6546031,-860098,2317622,0,0,0,187,97,108,186,72,230,432,369,195,327,357,246,0,,,,,
1,1791322458560,-2033,-904,17750,4517959,21991,465479,0,0,0,449,403,196,418,363,455,282,114,255,321,179,483,0,,,,,
2,1791322458560,-7552,-5398,25541,4466646,-755029,895528,0,0,0,195,95,118,177,66,220,453,377,216,328,352,251,0,,,,,
1,1791322458576,-3216,-933,18645,5466022,194255,660956,0,0,0,436,390,182,416,362,443,244,108,232,296,167,462,0,,,,,
2,1791322458576,-1014,62,16204,2020742,-877202,-411723,0,0,0,215,99,130,193,68,236,464,354,204,345,349,259,0,,,,,
1,1791322458592,-4149,-1727,21808,6566801,560774,966388,0,0,0,408,371,170,391,352,410,249,117,217,264,153,442,0,,,,,
2,1791322458592,2459,971,9150,654847,-643851,-234572,0,0,0,238,101,157,207,75,250,475,348,203,350,358,271,0,,,,,
1,1791322458608,-4383,-4326,29045,7638258,1109331,1144761,0,0,0,369,341,172,351,325,376,239,146,209,236,145,421,0,,,,,
2,1791322458608,1210,-114,8863,294437,-394618,153938,0,0,0,244,111,167,219,81,253,476,342,201,352,358,291,0,,,,,
1,1791322458624,-3541,-5317,34534,8472700,1457524,1222952,0,0,0,319,302,180,310,285,344,261,145,198,212,130,401,0,,,,,
2,1791322458624,-335,-411,10677,260228,-261450,161268,0,0,0,261,121,199,230,101,267,481,337,203,354,351,310,0,,,,,
1,1791322458640,-3823,-2397,34907,8979719,2157576,1276708,0,0,0,254,248,173,276,236,300,310,128,184,205,122,312,0,,,,,
2,1791322458640,181,220,10442,172263,-207694,9773,0,0,0,275,127,224,245,115,277,489,328,208,358,342,327,0,,,,,
1,1791322458656,-8461,3546,32002,9282708,3153286,1346346,0,0,0,219,209,161,265,204,274,323,130,177,212,128,228,0,,,,,
2,1791322458656,660,464,9949,125838,-163711,-25656,0,0,0,285,128,217,253,117,278,493,317,209,361,325,347,0,,,,,
1,1791322458672,-14965,11313,23929,8737816,2844188,1606575,0,0,0,235,207,157,275,201,276,333,137,179,216,130,235,0,,,,,
2,1791322458672,617,363,9906,133168,-113620,2443,0,0,0,293,133,206,258,116,277,493,306,208,348,293,354,0,,,,,
1,1791322458688,-13438,14855,13917,6128200,443488,2157576,0,0,0,250,207,149,287,203,265,339,141,172,215,131,226,0,,,,,
2,1791322458688,445,296,10088,151494,-47647,0,0,0,0,295,144,206,264,122,279,489,293,209,337,274,360,0,,,,,
1,1791322458704,-7532,15903,9696,1944994,-1029918,2169793,0,0,0,244,204,150,280,201,260,311,126,156,214,129,222,0,,,,,
2,1791322458704,440,311,10122,164933,-1221,-20769,0,0,0,298,146,206,270,130,285,481,268,214,332,265,383,0,,,,,
1,1791322458720,-3536,13041,10725,-2138028,-706160,1214400,0,0,0,236,200,147,264,194,253,327,128,162,218,129,222,0,,,,,
2,1791322458720,512,315,10059,185703,15882,-30543,0,0,0,308,144,210,278,132,291,473,229,218,321,225,399,0,,,,,
1,1791322458736,-3522,9241,10189,-3649308,-92851,189368,0,0,0,238,200,148,254,196,242,347,139,172,223,132,226,0,,,,,
2,1791322458736,555,277,10021,212581,15882,-30543,0,0,0,316,149,217,274,138,299,471,206,209,339,197,403,0,,,,,
1,1791322458752,-4412,7657,7240,-3453832,-85521,-366519,0,0,0,240,199,149,270,193,260,321,123,159,223,131,227,0,,,,,
2,1791322458752,579,229,10021,233350,4886,-39095,0,0,0,329,147,228,280,142,307,465,189,224,351,187,415,0,,,,,
1,1791322458768,-3622,8078,5790,-3993836,-542448,-587652,0,0,0,248,201,153,287,197,268,322,126,162,220,130,226,0,,,,,
2,1791322458768,598,181,10026,248011,0,-57421,0,0,0,337,158,224,293,157,321,446,168,227,317,163,432,0,,,,,
1,1791322458784,-2455,7662,6877,-5209458,-849102,-739146,0,0,0,245,201,152,288,198,272,328,130,169,222,131,229,0,,,,,
2,1791322458784,574,129,10016,259006,-1221,-69638,0,0,0,355,160,232,306,173,321,451,168,243,299,147,455,0,,,,,
1,1791322458800,-2029,5742,8877,-6144082,-840550,-758694,0,0,0,244,202,154,288,198,272,333,135,174,222,132,230,0,,,,,
2,1791322458800,536,81,10007,256563,0,-68416,0,0,0,359,161,213,310,178,328,449,160,250,251,129,470,0,,,,,
1,1791322458816,-2043,4316,9968,-6440963,-823446,-640186,0,0,0,237,201,152,278,195,269,317,127,165,222,134,231,0,,,,,
2,1791322458816,521,52,10050,251676,6108,-59864,0,0,0,375,165,206,323,188,336,439,141,249,238,119,486,0,,,,,
1,1791322458832,-2086,4048,10811,-6533814,-949284,-449596,0,0,0,239,201,154,281,197,272,192,94,146,221,137,232,0,,,,,
2,1791322458832,540,23,10122,268780,20769,-56199,0,0,0,376,173,180,330,204,341,423,120,245,220,106,498,0,,,,,
1,1791322458848,-2273,3622,12562,-6849021,-1230282,-210137,0,0,0,243,201,157,289,201,277,167,82,133,221,138,233,0,,,,,
2,1791322458848,641,-4,10232,334754,61086,-65973,0,0,0,388,180,159,356,216,346,415,125,252,205,81,503,0,,,,,
1,1791322458864,-2321,2876,14840,-7231422,-1615127,32986,0,0,0,239,199,155,289,199,279,272,104,143,222,137,233,0,,,,,
2,1791322458864,770,-47,10366,419053,128281,-91629,0,0,0,399,178,137,348,223,352,420,133,260,204,85,520,0,,,,,
1,1791322458880,-2239,1732,17243,-7415904,-1943773,248011,0,0,0,237,197,155,289,199,279,312,123,166,219,133,232,0,,,,,
2,1791322458880,842,-119,10495,515570,230907,-130725,0,0,0,406,178,129,350,231,360,416,134,266,206,84,541,0,,,,,
1,1791322458896,-2325,607,19650,-7369478,-2206445,404392,0,0,0,240,200,160,291,199,281,313,123,165,219,133,233,0,,,,,
2,1791322458896,909,-210,10524,621860,313984,-173485,0,0,0,413,183,128,366,236,368,410,133,267,211,74,559,0,,,,,
1,1791322458912,-2282,47,22545,-7222870,-2419026,477696,0,0,0,235,199,157,292,200,283,251,96,133,219,132,237,0,,,,,
2,1791322458912,1052,-287,10758,737925,342084,-215024,0,0,0,428,195,125,363,252,377,408,135,269,216,81,574,0,,,,,
1,1791322458928,-2033,-354,26853,-7264409,-2570520,454483,0,0,0,225,203,160,287,199,287,299,134,182,212,128,238,0,,,,,
2,1791322458928,1191,-392,11160,921184,348193,-274889,0,0,0,445,206,126,356,273,384,397,138,273,207,92,580,0,,,,,
1,1791322458944,-1282,-2737,31868,-7495316,-2831971,313984,0,0,0,211,206,159,273,202,287,348,143,194,212,129,242,0,,,,,
2,1791322458944,1110,-536,11332,1117883,355523,-328645,0,0,0,451,209,131,358,275,382,383,139,270,204,95,591,0,,,,,
1,1791322458960,1502,-9207,35400,-7723780,-3400075,53756,0,0,0,206,205,167,270,202,294,354,142,204,211,129,247,0,,,,,
2,1791322458960,1076,-641,11663,1318247,334754,-349414,0,0,0,469,213,134,354,269,380,372,147,268,223,96,611,0,,,,,
1,1791322458976,6690,-18061,37525,-7667580,-3544240,-138055,0,0,0,206,219,177,284,212,303,342,137,202,212,134,253,0,,,,,
2,1791322458976,1220,-670,12691,1601688,263893,-357967,0,0,0,482,217,138,347,260,381,366,150,268,227,79,620,0,,,,,
1,1791322458992,7973,-27499,34989,-6956533,-2409252,-208915,0,0,0,206,232,177,291,220,307,334,134,198,214,136,257,0,,,,,
2,1791322458992,1028,-689,13630,1976759,201585,-360410,0,0,0,494,222,148,336,253,384,345,147,266,224,100,639,0,,,,,
1,1791322459008,3608,-42124,24536,-5252219,-1696983,296880,0,0,0,208,237,177,297,225,311,325,128,192,231,137,260,0,,,,,
2,1791322459008,531,-737,14309,2489886,211359,-311541,0,0,0,503,218,147,335,235,374,328,153,278,229,99,649,0,,,,,
1,1791322459024,11375,-54768,15199,-3325550,-2301740,1191187,0,0,0,206,236,171,294,226,310,330,130,187,255,159,263,0,,,,,
2,1791322459024,1148,-780,15228,3043330,295658,-245567,0,0,0,507,224,145,359,238,367,311,147,265,221,92,654,0,,,,,
1,1791322459040,29035,-58473,12021,-1065348,-1452637,839328,0,0,0,194,221,131,289,225,290,327,194,162,293,258,227,0,,,,,
2,1791322459040,2148,-818,16166,3665191,272445,-287106,0,0,0,494,218,156,293,201,367,270,139,260,196,83,640,0,,,,,
1,1791322459056,28107,-43177,14142,1683544,1191187,-781907,0,0,0,190,216,105,296,216,289,328,248,159,326,327,221,0,,,,,
2,1791322459056,3139,-880,16683,4436103,81855,-470366,0,0,0,464,216,152,298,205,362,237,137,246,205,91,620,0,,,,,
1,1791322459072,5762,-1517,13586,4879591,3736051,-1705535,0,0,0,199,224,105,307,217,306,327,269,167,350,360,247,0,,,,,
2,1791322459072,3527,-866,17185,5227784,-166155,-719599,0,0,0,440,219,145,308,211,373,212,127,247,182,93,563,0,,,,,
1,1791322459088,-6259,14266,13826,6549697,4207639,-1806939,0,0,0,209,230,115,310,226,322,326,286,170,370,393,268,0,,,,,
2,1791322459088,3914,-1072,18707,6091548,-450818,-966388,0,0,0,399,230,150,292,213,345,190,117,228,160,81,516,0,,,,,
1,1791322459104,1186,-2952,18272,6020687,1568701,-2161241,0,0,0,215,223,133,308,216,333,350,302,182,389,404,286,0,,,,,
2,1791322459104,5020,-2957,23905,6974859,-612086,-1196074,0,0,0,366,201,141,251,191,297,189,121,204,153,82,449,0,,,,,
1,1791322459120,7939,-6302,22019,5160589,-268780,-1692096,0,0,0,217,204,158,303,194,334,396,333,199,415,406,295,0,,,,,
2,1791322459120,5278,-4728,30691,7679797,-458148,-1345125,0,0,0,317,154,128,214,146,258,186,115,178,136,69,363,0,,,,,
1,1791322459136,4996,-2110,20186,4180761,-128281,-167377,0,0,0,209,190,195,282,178,337,440,390,243,414,400,306,0,,,,,
2,1791322459136,4182,-3268,35563,8399397,-164933,-1494176,0,0,0,243,110,111,184,108,218,193,113,159,118,63,240,0,,,,,
1,1791322459152,-2345,985,13744,2593733,665843,828333,0,0,0,234,214,211,312,210,356,421,323,211,429,401,324,0,,,,,
2,1791322459152,6475,2933,33878,9015149,-610865,-1695761,0,0,0,185,94,97,165,92,191,207,119,149,102,66,152,0,,,,,
1,1791322459168,-2498,-320,10418,1034805,676838,263893,0,0,0,279,237,244,327,239,372,428,343,238,444,396,348,0,,,,,
2,1791322459168,10720,11012,28073,9097005,-747699,-2001194,0,0,0,162,98,93,160,88,185,207,121,142,94,61,130,0,,,,,
1,1791322459184,-134,-1091,10131,100181,409279,-175929,0,0,0,295,260,283,320,248,381,414,318,278,441,388,382,0,,,,,
2,1791322459184,11801,17463,14855,7131240,-17104,-2465452,0,0,0,164,98,96,161,83,185,197,111,137,98,55,129,0,,,,,
1,1791322459200,95,-248,10557,123394,226020,-56199,0,0,0,311,281,310,330,265,396,435,339,275,454,375,409,0,,,,,
2,1791322459200,8360,19550,7954,2800206,690277,-2371378,0,0,0,171,96,102,160,79,184,201,105,138,101,58,129,0,,,,,
1,1791322459216,-545,248,10390,237015,125838,50090,0,0,0,328,299,315,344,274,399,435,326,269,467,362,404,0,,,,,
2,1791322459216,3929,17295,11787,-2122145,500909,-1397659,0,0,0,173,93,102,161,82,187,215,121,146,103,67,133,0,,,,,
1,1791322459232,-670,138,10165,235793,58643,28099,0,0,0,350,317,327,354,281,401,440,319,274,456,352,433,0,,,,,
2,1791322459232,3699,12562,13462,-3848451,-431270,-394618,0,0,0,168,90,102,156,80,183,202,111,137,98,63,134,0,,,,,
1,1791322459248,-516,38,10169,218689,-15882,3665,0,0,0,356,328,325,360,289,404,436,289,275,446,336,450,0,,,,,
2,1791322459248,4886,9432,9983,-3837455,-869872,123394,0,0,0,167,94,104,162,84,189,202,110,140,95,49,133,0,,,,,
1,1791322459264,-411,23,10232,239459,-111177,14660,0,0,0,364,334,332,363,293,410,428,253,269,436,315,459,0,,,,,
2,1791322459264,4685,9097,7035,-3973067,-414166,304210,0,0,0,165,95,109,153,81,186,213,127,152,93,54,126,0,,,,,
1,1791322459280,-483,23,10193,265115,-182037,29321,0,0,0,372,344,339,368,306,415,431,235,275,426,294,468,0,,,,,
2,1791322459280,3551,8844,7389,-4882034,142942,535117,0,0,0,158,87,101,153,78,185,210,114,140,94,53,130,0,,,,,
1,1791322459296,-536,0,10155,277332,-233350,29321,0,0,0,379,348,336,373,310,424,430,205,275,419,281,469,0,,,,,
2,1791322459296,2751,7508,9432,-5938831,362853,755029,0,0,0,163,87,101,154,79,184,211,121,143,97,52,123,0,,,,,
1,1791322459312,-598,-28,10141,278554,-272445,26878,0,0,0,385,349,323,376,301,431,420,176,273,407,265,462,0,,,,,
2,1791322459312,2780,5455,10605,-6460510,353080,803898,0,0,0,167,94,104,158,81,187,210,118,146,103,62,132,0,,,,,
1,1791322459328,-727,-43,10179,288328,-299323,47647,0,0,0,394,361,296,384,311,425,425,185,294,381,228,458,0,,,,,
2,1791322459328,2876,3962,11471,-6655987,453262,736703,0,0,0,169,97,105,162,84,188,213,121,145,132,81,133,0,,,,,
1,1791322459344,-804,-95,10222,323758,-296880,84299,0,0,0,414,352,265,388,320,423,417,159,278,367,201,456,0,,,,,
2,1791322459344,2904,3378,13007,-6786712,733038,643851,0,0,0,163,94,104,161,83,187,211,121,145,119,81,141,0,,,,,
1,1791322459360,-693,-177,10169,371406,-238237,95294,0,0,0,418,344,247,399,322,430,393,123,251,349,180,457,0,,,,,
2,1791322459360,3149,2943,15415,-7092145,1038470,603534,0,0,0,167,93,107,161,84,189,209,118,143,105,79,145,0,,,,,
1,1791322459376,-670,-244,10198,383623,-160046,83077,0,0,0,426,359,223,415,346,444,364,99,212,355,177,454,0,,,,,
2,1791322459376,3488,2005,17942,-7382917,1347568,583987,0,0,0,169,98,110,155,83,187,210,117,146,100,68,139,0,,,,,
1,1791322459392,-837,-277,10485,394618,-127059,85521,0,0,0,425,346,185,412,338,433,395,109,244,330,162,457,0,,,,,
2,1791322459392,3417,875,20617,-7440338,1627344,641408,0,0,0,168,100,109,155,84,187,209,116,148,97,60,136,0,,,,,
1,1791322459408,-933,-330,10969,486248,-166155,117286,0,0,0,430,350,190,421,333,435,392,105,238,327,157,459,0,,,,,
2,1791322459408,3086,86,24039,-7400021,1765400,842994,0,0,0,165,100,105,160,92,191,209,128,149,104,64,139,0,,,,,
1,1791322459424,-1091,-397,11227,686612,-226020,164933,0,0,0,433,354,180,427,337,432,384,109,233,327,158,467,0,,,,,
2,1791322459424,2675,-1095,28145,-7407351,1714087,1285260,0,0,0,157,104,101,157,94,191,211,141,151,111,61,141,0,,,,,
1,1791322459440,-1091,-473,10964,878424,-189368,223576,0,0,0,433,354,182,431,334,438,379,105,241,323,158,471,0,,,,,
2,1791322459440,2163,-5125,31304,-7501425,1784948,1835039,0,0,0,156,101,103,159,88,192,198,108,143,108,61,139,0,,,,,
1,1791322459456,-1086,-636,10591,993266,-156381,274889,0,0,0,438,357,180,436,342,444,391,110,257,324,160,478,0,,,,,
2,1791322459456,918,-11629,33830,-7479433,1931555,2223549,0,0,0,151,98,105,161,86,197,185,99,145,113,69,144,0,,,,,
1,1791322459472,-1033,-856,10399,1047023,-160046,329867,0,0,0,449,364,183,438,352,448,399,118,266,320,157,486,0,,,,,
2,1791322459472,-545,-20325,34548,-7094588,1441641,2262644,0,0,0,144,90,104,161,84,202,225,123,162,111,70,152,0,,,,,
1,1791322459488,-827,-1028,10342,1095892,-166155,362853,0,0,0,459,366,185,443,356,451,373,112,250,330,164,487,0,,,,,
2,1791322459488,1368,-30112,30992,-6398202,405614,2161241,0,0,0,149,98,109,166,94,203,224,119,162,97,57,150,0,,,,,
1,1791322459504,-488,-1153,10265,1153313,-149051,353080,0,0,0,467,367,190,447,353,458,331,97,227,337,169,493,0,,,,,
2,1791322459504,5709,-45053,21497,-5279097,-14660,1563815,0,0,0,154,107,111,174,98,212,220,138,161,98,69,151,0,,,,,
1,1791322459520,-564,-1234,10868,1230282,-98960,301767,0,0,0,478,381,200,446,352,462,303,90,219,332,165,505,0,,,,,
2,1791322459520,-1943,-60234,13438,-3166725,1358564,-95294,0,0,0,161,108,116,193,119,201,232,144,159,106,75,157,0,,,,,
1,1791322459536,-1100,-1335,12170,1406211,-23212,280998,0,0,0,489,398,204,447,356,458,305,93,225,337,165,512,0,,,,,
2,1791322459536,-18396,-63057,13017,-568104,1565036,-1134987,0,0,0,127,95,92,175,99,193,250,164,149,134,118,127,0,,,,,
1,1791322459552,-1191,-1440,13462,1755626,59864,312763,0,0,0,489,380,205,447,354,458,337,104,243,340,163,517,0,,,,,
2,1791322459552,-17425,-44493,18588,1908343,-1050688,-609643,0,0,0,140,88,84,178,94,203,317,243,157,227,212,163,0,,,,,
1,1791322459568,-521,-1474,14300,2265088,84299,290771,0,0,0,485,379,210,436,344,456,323,108,252,337,173,516,0,,,,,
2,1791322459568,-2244,-7418,18592,4410447,-3266907,-95294,0,0,0,164,90,84,200,92,222,357,293,168,274,263,192,0,,,,,
1,1791322459584,-574,-1450,15333,2814867,45204,218689,0,0,0,483,376,215,431,343,442,300,101,224,336,175,510,0,,,,,
2,1791322459584,11217,20354,10725,6706078,-3565009,323758,0,0,0,176,104,88,214,94,242,384,337,177,308,331,221,0,,,,,
1,1791322459600,-2067,-1373,16611,3573561,53756,265115,0,0,0,470,381,213,418,353,425,263,95,208,335,179,494,0,,,,,
2,1791322459600,4551,1464,14438,7148345,-1329242,1588249,0,0,0,190,106,108,206,83,241,416,361,191,333,366,255,0,,,,,
1,1791322459616,-3192,-1225,17511,4377460,179594,480140,0,0,0,457,398,208,456,386,412,264,125,252,309,180,481,0,,,,,
2,1791322459616,-6197,-9949,25742,6724404,-202807,2057394,0,0,0,209,103,125,196,69,234,450,363,198,351,372,274,0,,,,,
1,1791322459632,-4728,-1182,18358,5390274,466701,883311,0,0,0,442,415,182,415,388,439,272,121,257,292,177,466,0,,,,,
2,1791322459632,-7599,-6044,26862,4724431,-824668,601091,0,0,0,228,100,138,197,68,238,470,355,204,356,363,279,0,,,,,
1,1791322459648,-6020,-1852,20803,6483723,896750,1401324,0,0,0,410,394,172,389,369,413,259,123,231,270,165,446,0,,,,,
2,1791322459648,-545,-660,15266,1800830,-952949,-414166,0,0,0,256,105,163,210,78,254,483,346,212,360,352,301,0,,,,,
1,1791322459664,-5833,-3828,26455,7450112,1505171,1795943,0,0,0,377,353,175,360,336,378,260,125,207,243,150,424,0,,,,,
2,1791322459664,2062,593,8399,158824,-478918,-283441,0,0,0,282,118,187,229,92,266,497,338,213,370,342,343,0,,,,,
1,1791322459680,-5508,-5757,32179,8157494,1914451,1938886,0,0,0,325,313,164,313,298,335,290,131,192,216,137,405,0,,,,,
2,1791322459680,473,-229,9150,94073,-118507,100181,0,0,0,295,136,198,249,120,277,501,332,216,365,325,372,0,,,,,
1,1791322459696,-5943,-3953,35266,8878315,2171015,2097711,0,0,0,248,256,156,276,247,292,313,137,183,204,133,309,0,,,,,
2,1791322459696,-263,-291,10595,290771,-122173,106290,0,0,0,311,151,201,265,139,288,503,317,225,358,309,390,0,,,,,
1,1791322459712,-9853,1655,34381,9283929,3081204,2345722,0,0,0,216,217,160,273,217,277,319,136,178,207,134,238,0,,,,,
2,1791322459712,186,157,10476,283441,-196698,-30543,0,0,0,320,147,200,272,140,293,499,289,226,361,299,420,0,,,,,
1,1791322459728,-16247,10145,24450,8498357,3242472,2645046,0,0,0,228,210,158,284,214,278,306,126,165,212,134,236,0,,,,,
2,1791322459728,330,162,9987,191811,-125838,-17104,0,0,0,337,147,212,287,153,303,509,264,228,360,271,431,0,,,,,
1,1791322459744,-16132,13582,13874,6399424,1606575,2774549,0,0,0,232,208,145,279,207,266,258,110,144,211,132,232,0,,,,,
2,1791322459744,229,86,10045,191811,-41538,3665,0,0,0,345,158,217,287,154,305,504,248,232,343,235,442,0,,,,,
1,1791322459760,-8040,13988,10509,2085493,-309097,2018298,0,0,0,239,205,151,278,202,263,230,116,150,213,131,229,0,,,,,
2,1791322459760,143,62,10241,238237,29321,-6108,0,0,0,360,167,220,302,164,320,502,216,246,329,197,458,0,,,,,
1,1791322459776,-2517,12361,11246,-1696983,-420275,537561,0,0,0,232,201,145,268,200,260,339,143,178,216,133,226,0,,,,,
2,1791322459776,201,62,10184,256563,69638,-28099,0,0,0,373,186,228,302,195,321,486,191,248,277,156,458,0,,,,,
1,1791322459792,-3259,9231,10504,-3507588,430049,-1095892,0,0,0,233,204,146,269,200,263,342,142,177,218,133,227,0,,,,,
2,1791322459792,311,23,10122,263893,86742,-43982,0,0,0,383,179,229,306,206,328,461,163,251,255,127,478,0,,,,,
1,1791322459808,-5652,7733,7068,-3429397,229685,-1781283,0,0,0,232,205,151,269,202,270,332,138,176,218,132,237,0,,,,,
2,1791322459808,363,-47,10122,278554,94073,-63529,0,0,0,388,179,210,309,214,333,447,141,255,242,120,498,0,,,,,
1,1791322459824,-5106,7681,5302,-3745825,-577878,-1910786,0,0,0,232,205,151,273,202,268,322,131,166,219,132,232,0,,,,,
2,1791322459824,301,-110,10155,298102,118507,-76969,0,0,0,393,183,188,316,221,340,432,135,258,219,90,505,0,,,,,
1,1791322459840,-3000,7705,6408,-4780631,-1205847,-1750739,0,0,0,235,207,152,283,202,271,314,127,161,218,133,229,0,,,,,
2,1791322459840,196,-129,10265,342084,182037,-68416,0,0,0,398,184,166,324,221,344,427,121,264,201,74,507,0,,,,,
1,1791322459856,-1919,6513,8523,-5872858,-1358564,-1481959,0,0,0,234,208,153,289,206,275,332,137,170,218,136,232,0,,,,,
2,1791322459856,263,-157,10390,426383,317649,-41538,0,0,0,397,179,143,331,231,350,423,125,268,198,79,517,0,,,,,
1,1791322459872,-1402,5125,9911,-6466619,-1340238,-1174082,0,0,0,226,208,153,279,204,273,336,140,175,217,135,229,0,,,,,
2,1791322459872,492,-244,10380,505796,432492,-32986,0,0,0,400,182,132,328,235,352,416,136,270,198,94,533,0,,,,,
1,1791322459888,-890,4264,10916,-6710965,-1251052,-943175,0,0,0,221,211,151,272,205,271,333,140,173,218,136,235,0,,,,,
2,1791322459888,780,-358,10346,552222,459370,-63529,0,0,0,399,177,127,317,236,354,409,135,271,199,97,549,0,,,,,
1,1791322459904,-784,3498,12806,-6977302,-1165530,-755029,0,0,0,219,214,151,272,207,271,331,140,173,219,137,235,0,,,,,
2,1791322459904,890,-445,10346,586430,386066,-113620,0,0,0,403,170,124,310,243,359,404,131,273,195,90,561,0,,,,,
1,1791322459920,-1340,2770,14893,-7200879,-1246165,-570548,0,0,0,218,215,150,273,207,272,332,140,175,219,137,232,0,,,,,
2,1791322459920,976,-559,10308,636521,304210,-162490,0,0,0,422,181,131,312,248,363,404,133,276,199,89,565,0,,,,,
1,1791322459936,-2201,1804,17291,-7390247,-1436755,-290771,0,0,0,220,216,149,265,210,266,334,140,174,220,139,233,0,,,,,
2,1791322459936,1028,-631,10399,695164,240680,-205250,0,0,0,431,182,133,320,244,368,398,138,279,220,89,574,0,,,,,
1,1791322459952,-2976,856,19717,-7480655,-1727526,68416,0,0,0,225,218,150,261,216,262,327,136,169,219,139,235,0,,,,,
2,1791322459952,1014,-708,10509,778242,169820,-246789,0,0,0,438,175,133,332,232,373,387,132,271,206,83,586,0,,,,,
1,1791322459968,-2991,234,23010,-7531968,-2054950,389732,0,0,0,230,221,154,295,215,283,315,132,165,215,134,235,0,,,,,
2,1791322459968,957,-813,10605,891863,118507,-282219,0,0,0,454,181,137,331,232,378,383,137,270,211,90,604,0,,,,,
1,1791322459984,-2680,-559,27724,-7615046,-2323731,582765,0,0,0,229,220,159,293,214,284,334,139,181,214,133,237,0,,,,,
2,1791322459984,981,-933,10825,1033583,117286,-310319,0,0,0,460,197,135,335,245,378,376,137,278,209,84,610,0,,,,,
1,1791322460000,-1928,-3551,32821,-7764097,-2693915,461814,0,0,0,213,218,155,274,214,285,352,147,196,211,129,239,0,,,,,
2,1791322460000,976,-1062,11040,1200961,142942,-337197,0,0,0,473,205,140,342,242,386,362,138,268,222,90,625,0,,,,,
1,1791322460016,320,-9562,36769,-7953465,-3545461,73303,0,0,0,209,222,154,275,217,288,368,158,206,210,134,244,0,,,,,
2,1791322460016,1153,-1196,11610,1395216,196698,-357967,0,0,0,481,215,148,338,255,385,357,123,265,227,99,639,0,,,,,
1,1791322460032,5886,-18621,39258,-8032877,-4284608,-489913,0,0,0,198,227,170,273,217,298,342,138,198,210,134,251,0,,,,,
2,1791322460032,1153,-1258,12620,1667662,241902,-389732,0,0,0,494,213,149,327,244,386,337,133,263,208,90,642,0,,,,,
1,1791322460048,6996,-30873,35410,-7197214,-2935818,-968832,0,0,0,204,235,175,288,225,306,335,137,198,210,135,255,0,,,,,
2,1791322460048,722,-1268,13524,2043955,230907,-383623,0,0,0,504,207,153,326,228,380,331,144,272,218,95,654,0,,,,,
1,1791322460064,2000,-45187,25068,-5506339,-1976759,-536339,0,0,0,207,239,178,294,228,308,313,127,186,213,136,258,0,,,,,
2,1791322460064,335,-1316,14103,2541199,249233,-295658,0,0,0,503,208,160,321,214,377,311,136,272,222,92,663,0,,,,,
1,1791322460080,11083,-57200,15367,-3258355,-2811201,955393,0,0,0,206,225,174,291,221,307,317,140,177,262,186,252,0,,,,,
2,1791322460080,976,-1430,15003,3064100,300545,-218689,0,0,0,500,215,158,311,204,378,282,133,259,211,92,653,0,,,,,
1,1791322460096,30174,-60454,12428,-730594,-2182010,1379333,0,0,0,185,209,124,278,205,287,315,196,152,306,278,220,0,,,,,
2,1791322460096,2144,-1483,16180,3748269,237015,-288328,0,0,0,473,215,157,306,202,370,244,122,243,210,92,633,0,,,,,
1,1791322460112,27551,-39028,14639,2552194,1527163,-114842,0,0,0,181,210,97,282,203,289,315,252,150,337,351,224,0,,,,,
2,1791322460112,3120,-1531,16668,4473977,72082,-461814,0,0,0,447,214,151,312,210,373,215,115,239,202,85,590,0,,,,,
1,1791322460128,4264,478,12433,6266255,5137376,-1131322,0,0,0,199,220,112,299,214,318,343,304,180,364,393,259,0,,,,,
2,1791322460128,3627,-1636,17214,5368283,-100181,-744033,0,0,0,416,218,144,296,211,366,198,118,238,174,85,535,0,,,,,
1,1791322460144,-4632,8303,15644,7276626,5097059,-1502728,0,0,0,207,217,133,304,210,337,390,353,204,389,417,278,0,,,,,
2,1791322460144,4221,-2790,21244,6285803,-153938,-978606,0,0,0,373,216,142,253,195,327,185,115,218,154,93,483,0,,,,,
1,1791322460160,3522,-2603,23565,6246707,2260201,-1484402,0,0,0,204,190,160,296,183,337,425,372,212,419,419,286,0,,,,,
2,1791322460160,4536,-4982,29451,7172779,-76969,-1145983,0,0,0,337,194,134,226,168,284,179,110,188,149,87,417,0,,,,,
1,1791322460176,7298,-5585,25522,4789183,557109,-536339,0,0,0,206,185,186,287,171,340,433,376,227,430,412,297,0,,,,,
2,1791322460176,4149,-5077,35936,7993782,131946,-1246165,0,0,0,283,152,115,201,129,240,189,115,167,132,78,320,0,,,,,
1,1791322460192,1363,-1560,17104,2702467,583987,339641,0,0,0,221,195,211,292,187,348,412,311,200,434,411,310,0,,,,,
2,1791322460192,4785,-421,36099,8894197,-65973,-1441641,0,0,0,217,105,97,180,99,202,202,119,153,110,65,194,0,,,,,
1,1791322460208,-1938,454,10059,910189,585208,94073,0,0,0,259,225,238,313,217,357,441,378,248,434,409,330,0,,,,,
2,1791322460208,8418,7829,31667,9275377,-676838,-1728748,0,0,0,172,92,93,166,94,193,204,125,156,101,61,140,0,,,,,
1,1791322460224,-1100,114,8915,123394,400727,-172263,0,0,0,279,233,260,336,234,368,425,332,232,450,402,358,0,,,,,
2,1791322460224,11131,16204,19411,8048760,-634078,-2153910,0,0,0,174,92,96,169,89,193,209,110,152,105,61,149,0,,,,,
1,1791322460240,9,-253,10418,139277,238237,-87964,0,0,0,294,249,275,327,242,370,429,337,243,450,402,372,0,,,,,
2,1791322460240,10260,20492,8490,4750088,-107512,-2337170,0,0,0,183,94,104,161,88,190,214,125,158,102,65,143,0,,,,,
1,1791322460256,-148,4,10725,189368,122173,17104,0,0,0,301,262,302,337,252,382,430,327,249,446,391,385,0,,,,,
2,1791322460256,6575,19583,8164,-807563,372627,-1817934,0,0,0,191,94,99,202,83,187,267,120,142,114,64,133,0,,,,,
1,1791322460272,-622,330,10136,178372,39095,21991,0,0,0,313,274,309,349,260,390,410,266,207,451,372,401,0,,,,,
2,1791322460272,4905,14103,13031,-3723834,86742,-1020144,0,0,0,183,97,106,172,86,190,213,127,150,100,54,134,0,,,,,
1,1791322460288,-492,268,10045,173485,-25656,-1221,0,0,0,318,279,308,355,263,392,419,282,232,445,366,414,0,,,,,
2,1791322460288,4656,9810,12021,-4217413,-243124,-621860,0,0,0,176,94,102,165,82,189,202,118,141,98,55,135,0,,,,,
1,1791322460304,-387,196,10212,202807,-86742,3665,0,0,0,318,280,310,359,266,399,432,306,275,436,344,422,0,,,,,
2,1791322460304,4288,8490,7920,-4057366,-255341,-564439,0,0,0,173,94,104,161,84,189,205,114,146,98,56,142,0,,,,,
1,1791322460320,-416,157,10241,238237,-153938,20769,0,0,0,320,286,311,360,273,409,434,292,292,430,327,429,0,,,,,
2,1791322460320,3522,8121,6925,-4592484,13439,-488692,0,0,0,172,96,106,160,81,189,208,118,149,84,40,131,0,,,,,
1,1791322460336,-483,143,10145,252898,-200363,25656,0,0,0,324,298,308,361,282,413,426,259,285,421,311,440,0,,,,,
2,1791322460336,2617,7212,8758,-5527108,390953,-289550,0,0,0,167,94,104,161,84,191,210,120,146,93,46,136,0,,,,,
1,1791322460352,-531,114,10064,257785,-218689,24434,0,0,0,329,307,314,365,288,414,421,233,282,407,283,449,0,,,,,
2,1791322460352,2033,5723,10289,-6061004,552222,-35430,0,0,0,167,97,105,160,82,192,208,120,142,103,63,144,0,,,,,
1,1791322460368,-550,67,10074,257785,-217468,28099,0,0,0,336,312,329,369,289,420,425,218,295,398,261,454,0,,,,,
2,1791322460368,1899,4513,11227,-6356663,609643,240680,0,0,0,168,95,106,156,79,189,210,120,144,106,68,145,0,,,,,
1,1791322460384,-612,33,10102,257785,-216246,41538,0,0,0,347,324,309,375,295,418,423,193,280,390,241,454,0,,,,,
2,1791322460384,2345,3910,12500,-6557027,762359,515570,0,0,0,166,89,104,157,84,190,210,119,148,108,65,145,0,,,,,
1,1791322460400,-650,4,10093,262672,-195476,63529,0,0,0,372,337,290,382,301,422,401,166,262,380,231,453,0,,,,,
2,1791322460400,2790,3345,14357,-6776938,1005484,767246,0,0,0,166,91,106,164,87,194,211,121,148,107,66,145,0,,,,,
1,1791322460416,-603,-38,10064,271224,-156381,76969,0,0,0,391,337,278,387,304,427,344,168,257,372,210,456,0,,,,,
2,1791322460416,3216,2469,16645,-7018841,1265712,979827,0,0,0,169,93,107,168,85,196,216,120,146,111,69,148,0,,,,,
1,1791322460432,-559,-81,10074,278554,-117286,72082,0,0,0,400,334,262,383,302,430,444,176,318,348,182,465,0,,,,,
2,1791322460432,3642,1311,19033,-7164227,1488067,1109331,0,0,0,169,95,109,170,85,196,216,117,150,111,58,145,0,,,,,
1,1791322460448,-588,-129,10141,288328,-89186,67195,0,0,0,409,341,238,400,320,435,408,132,262,348,176,455,0,,,,,
2,1791322460448,3914,272,21861,-7216761,1712866,1235169,0,0,0,164,95,107,167,79,193,221,117,153,115,58,145,0,,,,,
1,1791322460464,-689,-167,10227,307876,-87964,75747,0,0,0,421,338,217,417,331,443,366,103,220,345,173,455,0,,,,,
2,1791322460464,3919,-622,25532,-7222870,1863138,1466076,0,0,0,165,95,108,167,83,192,212,107,143,114,60,147,0,,,,,
1,1791322460480,-961,-196,10447,361632,-116064,122173,0,0,0,428,343,196,425,346,443,398,129,259,333,169,460,0,,,,,
2,1791322460480,3584,-3268,29021,-7260744,1986533,1912008,0,0,0,163,96,106,159,80,188,212,115,143,101,57,141,0,,,,,
1,1791322460496,-1048,-258,10782,474031,-168598,199142,0,0,0,433,339,183,429,344,443,408,133,267,332,164,466,0,,,,,
2,1791322460496,2804,-8107,31792,-7283957,2213775,2368935,0,0,0,163,94,107,167,87,196,215,120,155,107,60,141,0,,,,,
1,1791322460512,-1005,-363,10911,649960,-228463,270002,0,0,0,437,337,169,437,340,441,340,98,212,333,162,474,0,,,,,
2,1791322460512,961,-14989,33538,-7191105,2155132,2615724,0,0,0,160,99,110,165,81,194,212,116,147,107,76,145,0,,,,,
1,1791322460528,-861,-430,10954,812450,-245567,317649,0,0,0,445,344,170,444,345,444,310,81,188,331,161,481,0,,,,,
2,1791322460528,191,-23373,33031,-6778160,1307251,2657263,0,0,0,158,101,115,169,81,198,229,114,155,102,62,146,0,,,,,
1,1791322460544,-449,-521,10782,954171,-215024,324980,0,0,0,454,349,181,449,347,449,343,91,212,332,158,485,0,,,,,
2,1791322460544,4374,-35544,26063,-5792224,52534,2305405,0,0,0,153,92,102,171,80,203,196,78,139,114,54,150,0,,,,,
1,1791322460560,-124,-689,10380,1026253,-182037,265115,0,0,0,463,354,181,453,348,451,341,92,218,336,156,495,0,,,,,
2,1791322460560,6403,-51701,16056,-4324925,779464,801455,0,0,0,153,81,96,167,78,197,242,115,151,131,76,152,0,,,,,
1,1791322460576,-564,-808,11045,1086118,-177150,184481,0,0,0,478,368,188,448,355,461,333,95,229,335,155,508,0,,,,,
2,1791322460576,-5001,-63072,12907,-2201558,2368935,-1042136,0,0,0,146,87,81,177,85,197,305,202,159,190,162,153,0,,,,,
1,1791322460592,-1172,-856,12538,1288925,-153938,178372,0,0,0,484,373,194,451,350,468,334,97,238,337,164,520,0,,,,,
2,1791322460592,-22100,-61550,20502,1236391,1420872,-1551597,0,0,0,155,97,82,189,93,214,335,285,162,238,237,177,0,,,,,
1,1791322460608,-914,-942,13649,1717753,-97738,217468,0,0,0,489,376,191,453,366,451,338,109,253,336,169,524,0,,,,,
2,1791322460608,-12481,-25613,18803,6280916,-3099530,-642630,0,0,0,173,102,84,202,98,233,353,326,171,274,293,205,0,,,,,
1,1791322460624,-392,-1000,14376,2208888,-109955,194255,0,0,0,495,367,207,440,350,448,276,85,213,332,163,521,0,,,,,
2,1791322460624,4139,5532,17755,8267450,-5049412,289550,0,0,0,186,101,92,205,94,242,386,347,188,301,323,230,0,,,,,
1,1791322460640,-899,-928,15587,2786767,-156381,145385,0,0,0,488,368,206,432,347,460,312,109,251,337,169,518,0,,,,,
2,1791322460640,1990,2211,24795,6594901,-2535090,1138652,0,0,0,195,99,105,195,82,235,411,355,195,319,326,245,0,,,,,
1,1791322460656,-2211,-847,17018,3500257,-68416,200363,0,0,0,471,386,204,422,364,442,296,113,238,331,181,497,0,,,,,
2,1791322460656,-4852,-4900,26259,4464203,-619417,1018923,0,0,0,206,93,112,188,73,226,432,345,195,330,316,251,0,,,,,
1,1791322460672,-3402,-708,18080,4299269,202807,419053,0,0,0,449,379,191,413,356,426,268,112,230,308,170,472,0,,,,,
2,1791322460672,-4072,-3402,16434,2089159,-277332,-14660,0,0,0,221,90,129,192,67,232,464,340,205,333,307,262,0,,,,,
1,1791322460688,-4560,-670,19827,5299866,623082,790459,0,0,0,429,372,177,399,352,412,265,119,229,280,159,451,0,,,,,
2,1791322460688,918,851,9236,915076,-449596,-333532,0,0,0,242,106,168,203,71,250,474,345,210,337,311,281,0,,,,,
1,1791322460704,-5996,-1076,23574,6440963,1163087,1238834,0,0,0,399,358,176,369,345,393,256,118,212,256,153,433,0,,,,,
2,1791322460704,1856,827,8848,409279,-379958,-86742,0,0,0,259,115,190,218,82,259,477,338,203,358,317,296,0,,,,,
1,1791322460720,-6479,-2526,28801,7571063,1792278,1644449,0,0,0,356,330,175,332,319,360,266,121,192,238,145,414,0,,,,,
2,1791322460720,335,-134,10442,206472,-222354,81855,0,0,0,274,120,195,228,90,259,487,319,214,365,317,316,0,,,,,
1,1791322460736,-5183,-3302,33419,8517904,2134363,1921782,0,0,0,299,289,171,296,276,323,301,132,188,219,133,380,0,,,,,
2,1791322460736,-148,14,10557,101403,-142942,57421,0,0,0,286,121,202,237,91,271,433,289,252,373,321,325,0,,,,,
1,1791322460752,-5943,-1340,34395,8978497,2701246,1992642,0,0,0,247,239,175,272,231,296,320,135,189,209,127,310,0,,,,,
2,1791322460752,320,583,9930,94073,-119729,-12217,0,0,0,291,133,212,242,103,272,504,311,206,370,296,331,0,,,,,
1,1791322460768,-11615,5307,29313,8949175,3298672,2086715,0,0,0,229,205,177,271,202,282,318,130,179,218,133,244,0,,,,,
2,1791322460768,464,545,9968,119729,-103847,-1221,0,0,0,294,139,211,245,108,272,497,290,201,373,287,346,0,,,,,
1,1791322460784,-14759,12337,19607,8009665,2888170,2211332,0,0,0,237,206,171,286,208,286,311,127,172,216,133,245,0,,,,,
2,1791322460784,354,445,10117,133168,-69638,2443,0,0,0,302,139,217,249,116,278,497,272,200,367,275,347,0,,,,,
1,1791322460800,-12414,15448,10375,5279097,1291369,1923003,0,0,0,245,204,166,283,201,276,322,129,171,216,131,239,0,,,,,
2,1791322460800,258,421,10141,138055,-26878,-7330,0,0,0,303,139,219,250,129,283,498,268,210,397,249,342,0,,,,,
1,1791322460816,-7159,14654,9432,526565,-439822,619417,0,0,0,252,202,164,285,199,272,319,124,167,217,130,241,0,,,,,
2,1791322460816,287,440,10054,151494,-1221,-19547,0,0,0,307,141,216,252,122,286,497,250,219,340,226,358,0,,,,,
1,1791322460832,-4857,11246,10868,-2427578,-918741,-890641,0,0,0,240,203,157,270,199,270,341,138,178,217,130,235,0,,,,,
2,1791322460832,330,421,10011,164933,-2443,-21991,0,0,0,306,145,216,250,127,297,487,221,219,340,221,379,0,,,,,
1,1791322460848,-5317,8901,8825,-2439795,-908967,-1704314,0,0,0,242,204,148,271,200,266,341,141,173,242,138,238,0,,,,,
2,1791322460848,354,387,10026,173485,-20769,-21991,0,0,0,310,143,220,252,126,296,474,205,240,364,222,392,0,,,,,
1,1791322460864,-4350,8834,6503,-2394591,-1282817,-1919338,0,0,0,250,206,153,288,208,272,327,133,165,225,138,239,0,,,,,
2,1791322460864,382,358,10040,179594,-31764,-30543,0,0,0,317,143,220,264,137,297,473,192,253,358,204,401,0,,,,,
1,1791322460880,-1938,9183,7083,-3495370,-1610240,-1751961,0,0,0,237,210,149,273,203,271,335,140,172,219,137,239,0,,,,,
2,1791322460880,421,330,10031,190589,-31764,-52534,0,0,0,330,153,226,277,153,307,467,175,241,332,173,406,0,,,,,
1,1791322460896,-593,8097,8820,-4736649,-1604132,-1517389,0,0,0,235,212,149,272,204,272,335,139,174,222,138,242,0,,,,,
2,1791322460896,387,291,10031,201585,-31764,-68416,0,0,0,351,168,236,285,165,312,464,168,236,294,146,419,0,,,,,
1,1791322460912,-181,6427,9944,-5392718,-1536936,-1185078,0,0,0,234,213,150,271,204,272,334,137,174,223,138,242,0,,,,,
2,1791322460912,315,258,10050,219911,-31764,-65973,0,0,0,372,176,233,303,180,314,469,169,252,259,130,444,0,,,,,
1,1791322460928,784,5522,10681,-5663942,-1600466,-729373,0,0,0,236,216,153,282,209,277,322,132,168,221,138,242,0,,,,,
2,1791322460928,344,220,10083,237015,-18325,-58643,0,0,0,384,190,221,323,200,327,451,149,253,244,125,464,0,,,,,
1,1791322460944,2029,5168,11830,-5958379,-1656666,-299323,0,0,0,240,217,156,293,215,282,316,130,165,223,138,243,0,,,,,
2,1791322460944,397,201,10141,252898,0,-65973,0,0,0,389,218,214,314,221,336,430,129,246,227,117,482,0,,,,,
1,1791322460960,2919,4728,13567,-6299242,-1654223,9773,0,0,0,243,216,157,295,216,282,315,129,165,226,138,247,0,,,,,
2,1791322460960,478,172,10265,293215,25656,-84299,0,0,0,400,192,203,333,219,342,416,127,244,228,115,497,0,,,,,
1,1791322460976,3551,4091,15539,-6601009,-1610240,224798,0,0,0,237,216,158,289,214,282,302,123,159,227,140,251,0,,,,,
2,1791322460976,679,100,10519,421497,89186,-127059,0,0,0,406,184,185,343,232,359,422,118,265,209,85,512,0,,,,,
1,1791322460992,3436,3469,17468,-6807482,-1530828,340862,0,0,0,226,217,158,282,215,285,302,122,164,224,141,250,0,,,,,
2,1791322460992,880,14,10758,592539,145385,-191811,0,0,0,432,207,155,346,253,359,408,124,279,211,90,540,0,,,,,
1,1791322461008,2464,2818,19712,-6955311,-1566258,463035,0,0,0,231,221,162,290,217,290,339,143,190,221,140,249,0,,,,,
2,1791322461008,1062,-81,11074,769690,178372,-280998,0,0,0,443,200,128,343,253,365,417,138,274,206,102,556,0,,,,,
1,1791322461024,1603,2144,22804,-7108027,-1685988,602313,0,0,0,224,221,154,277,215,286,324,135,182,219,139,248,0,,,,,
2,1791322461024,909,-134,11533,967610,178372,-365297,0,0,0,462,212,134,356,258,369,394,139,277,216,86,570,0,,,,,
1,1791322461040,1287,1301,26910,-7325495,-1794722,637743,0,0,0,229,223,162,294,221,292,281,115,156,218,138,250,0,,,,,
2,1791322461040,722,-253,11466,1185078,136833,-406836,0,0,0,473,217,126,360,263,370,376,135,283,220,89,595,0,,,,,
1,1791322461056,1550,-1239,31289,-7628485,-2046398,478918,0,0,0,220,225,162,290,219,291,323,133,183,214,132,249,0,,,,,
2,1791322461056,497,-382,11404,1368338,69638,-395840,0,0,0,483,218,138,338,269,376,366,138,276,217,101,611,0,,,,,
1,1791322461072,3125,-7523,35257,-7921700,-2624277,56199,0,0,0,203,225,156,274,219,289,339,139,194,214,132,249,0,,,,,
2,1791322461072,387,-478,11969,1561371,15882,-361632,0,0,0,505,221,143,333,266,374,354,140,264,207,92,615,0,,,,,
1,1791322461088,6925,-17075,37070,-7894822,-2853962,-538783,0,0,0,209,228,176,288,219,303,331,135,195,210,133,244,0,,,,,
2,1791322461088,354,-536,13146,1848478,1221,-316428,0,0,0,505,219,140,326,253,371,341,146,257,218,103,625,0,,,,,
1,1791322461104,5139,-28997,34314,-7382917,-1737300,-1117883,0,0,0,211,232,179,292,223,307,322,128,190,213,135,252,0,,,,,
2,1791322461104,67,-540,14070,2284635,46425,-246789,0,0,0,511,216,148,317,230,367,316,145,254,227,107,639,0,,,,,
1,1791322461120,-4747,-45158,23665,-5646838,-1197295,-748920,0,0,0,213,234,176,294,225,306,311,123,183,219,138,259,0,,,,,
2,1791322461120,-110,-550,14840,2800206,114842,-136833,0,0,0,521,213,153,311,204,362,291,132,249,223,94,644,0,,,,,
1,1791322461136,1919,-56314,14912,-3247359,-3016452,527787,0,0,0,201,232,174,281,222,305,323,130,192,218,137,257,0,,,,,
2,1791322461136,717,-646,15630,3370754,162490,-58643,0,0,0,521,217,150,297,197,356,246,107,233,196,73,630,0,,,,,
1,1791322461152,28547,-57764,12620,-829554,-3489262,893084,0,0,0,194,223,172,274,219,304,322,124,183,229,144,253,0,,,,,
2,1791322461152,2273,-818,16037,4045149,81855,-177150,0,0,0,503,221,149,284,209,356,215,104,224,185,81,613,0,,,,,
1,1791322461168,29514,-51638,14381,1039692,185703,-877202,0,0,0,187,209,141,278,213,283,324,178,158,272,228,213,0,,,,,
2,1791322461168,3278,-971,16381,4785518,-127059,-463035,0,0,0,474,219,148,282,218,356,208,119,232,190,102,590,0,,,,,
1,1791322461184,3991,-27408,19004,3255911,3139847,-2265088,0,0,0,182,187,102,283,194,269,324,242,143,329,332,184,0,,,,,
2,1791322461184,4666,-1191,17339,5506339,-491135,-791681,0,0,0,442,216,142,278,224,342,186,118,237,166,87,536,0,,,,,
1,1791322461200,-13395,22727,13180,5031086,2696359,-1240056,0,0,0,191,179,105,289,180,301,316,247,156,364,364,228,0,,,,,
2,1791322461200,6910,-1990,18870,6296798,-1021366,-1266934,0,0,0,399,205,142,266,221,320,181,109,220,154,76,480,0,,,,,
1,1791322461216,-12443,30370,7652,5875301,2565634,-486248,0,0,0,198,197,117,303,198,326,368,330,187,385,413,250,0,,,,,
2,1791322461216,6786,-3857,24288,7034724,-1538158,-1788613,0,0,0,356,193,141,237,187,283,185,105,184,148,76,429,0,,,,,
1,1791322461232,-512,-4709,12069,6111095,1678657,-1337794,0,0,0,196,171,129,286,161,324,417,376,206,405,430,261,0,,,,,
2,1791322461232,4848,-5163,31921,7634593,-1655444,-1985312,0,0,0,306,145,129,200,145,251,208,128,180,141,78,355,0,,,,,
1,1791322461248,7106,-12065,24455,6135530,478918,-1750739,0,0,0,193,154,172,273,140,332,446,415,246,429,419,288,0,,,,,
2,1791322461248,5790,-2828,35726,8277223,-1837482,-2083050,0,0,0,238,98,105,173,105,207,190,107,153,116,69,217,0,,,,,
1,1791322461264,4613,-3216,24967,4763527,596204,-414166,0,0,0,209,165,207,284,150,345,441,395,247,436,414,306,0,,,,,
2,1791322461264,10413,4776,33342,8663290,-2550973,-2298075,0,0,0,167,90,96,154,83,178,206,129,139,85,63,111,0,,,,,
1,1791322461280,-985,756,15166,2163684,878424,345749,0,0,0,232,197,230,316,196,369,435,373,255,444,406,331,0,,,,,
2,1791322461280,14702,13117,23096,8251567,-2814867,-2538755,0,0,0,167,91,103,153,90,180,192,126,137,89,62,119,0,,,,,
1,1791322461296,-2053,0,8930,419053,648738,116064,0,0,0,281,245,261,327,238,381,428,334,237,443,384,370,0,,,,,
2,1791322461296,15204,16305,10327,6169738,-1546710,-2500882,0,0,0,172,92,98,158,85,176,205,115,137,106,66,131,0,,,,,
1,1791322461312,-90,-1086,9504,152716,212581,-238237,0,0,0,319,282,276,361,264,386,428,319,247,442,364,410,0,,,,,
2,1791322461312,9131,15908,8772,1595580,415388,-1601688,0,0,0,171,90,94,160,86,174,209,121,141,101,65,123,0,,,,,
1,1791322461328,-143,-282,10748,364075,125838,-61086,0,0,0,345,307,294,379,279,396,425,294,252,440,349,443,0,,,,,
2,1791322461328,3244,13323,12605,-2377487,467922,-201585,0,0,0,168,88,91,158,86,174,207,117,137,99,65,118,0,,,,,
1,1791322461344,-674,124,10557,382401,83077,63529,0,0,0,358,328,310,384,290,408,425,268,267,433,325,460,0,,,,,
2,1791322461344,4469,9332,10744,-3545461,-1061683,934623,0,0,0,167,88,91,160,88,175,209,117,138,98,60,120,0,,,,,
1,1791322461360,-722,-28,10198,337197,-23212,47647,0,0,0,372,336,313,384,297,418,436,251,287,421,291,466,0,,,,,
2,1791322461360,7245,7327,6077,-3418401,-1240056,1268156,0,0,0,165,89,90,159,89,174,206,118,138,96,57,124,0,,,,,
1,1791322461376,-622,-148,10222,365297,-153938,35430,0,0,0,390,336,306,387,299,426,442,228,293,410,259,470,0,,,,,
2,1791322461376,7078,6968,4120,-3563787,-180816,1210734,0,0,0,167,93,95,155,85,173,205,117,137,92,56,120,0,,,,,
1,1791322461392,-593,-157,10380,434936,-279776,59864,0,0,0,402,345,290,395,301,431,434,203,290,397,239,469,0,,,,,
2,1791322461392,4340,6575,6015,-4392121,692721,1185078,0,0,0,169,97,100,154,83,173,211,125,143,89,53,113,0,,,,,
1,1791322461408,-703,-181,10327,472809,-346971,85521,0,0,0,410,352,257,399,309,434,433,197,296,370,221,466,0,,,,,
2,1791322461408,2761,5561,8059,-5159367,866206,1219287,0,0,0,166,95,96,156,84,174,213,132,145,94,52,117,0,,,,,
1,1791322461424,-827,-282,10179,491135,-342084,106290,0,0,0,401,329,220,407,310,432,452,161,311,346,168,477,0,,,,,
2,1791322461424,2914,4503,9097,-5605299,839328,1215621,0,0,0,165,94,95,161,87,179,211,129,137,101,56,128,0,,,,,
1,1791322461440,-780,-387,10184,474031,-237015,116064,0,0,0,414,332,186,421,320,433,407,123,262,331,153,475,0,,,,,
2,1791322461440,3163,3953,10203,-5991366,1007927,1177748,0,0,0,169,96,94,160,86,176,212,128,138,103,61,123,0,,,,,
1,1791322461456,-684,-473,10490,492357,-166155,102625,0,0,0,425,338,186,426,328,434,383,96,220,344,154,457,0,,,,,
2,1791322461456,3072,3531,12108,-6425080,1310916,1137431,0,0,0,168,94,93,157,86,176,218,127,142,107,60,122,0,,,,,
1,1791322461472,-751,-512,10969,596204,-230907,76969,0,0,0,424,338,185,432,325,443,319,79,196,322,151,457,0,,,,,
2,1791322461472,2904,2790,14496,-6720739,1521054,1122770,0,0,0,168,94,98,162,92,182,217,119,145,107,57,119,0,,,,,
1,1791322461488,-918,-559,11016,735481,-373849,81855,0,0,0,425,330,180,420,325,440,420,129,292,309,146,465,0,,,,,
2,1791322461488,2981,2019,16745,-6913772,1682322,1106887,0,0,0,166,94,98,157,86,179,218,121,142,114,58,127,0,,,,,
1,1791322461504,-1005,-660,10696,835663,-409279,108734,0,0,0,426,333,180,432,323,444,334,154,271,326,150,463,0,,,,,
2,1791322461504,3120,1392,19004,-7078706,1857030,1086118,0,0,0,166,102,99,167,87,187,216,124,148,108,52,133,0,,,,,
1,1791322461520,-1033,-827,10346,880867,-338419,139277,0,0,0,437,329,172,424,319,451,361,112,258,318,148,472,0,,,,,
2,1791322461520,2981,770,22349,-7219205,2051285,1116661,0,0,0,162,102,98,159,93,181,216,127,146,92,54,127,0,,,,,
1,1791322461536,-1186,-976,10203,895528,-288328,169820,0,0,0,434,329,177,428,321,460,383,108,266,313,148,478,0,,,,,
2,1791322461536,2507,-411,26695,-7271739,2205223,1275486,0,0,0,161,103,98,161,84,181,210,112,142,104,59,121,0,,,,,
1,1791322461552,-1363,-1134,10141,906524,-256563,224798,0,0,0,436,335,183,431,324,460,340,98,245,318,150,485,0,,,,,
2,1791322461552,1512,-3551,30772,-7287622,2331061,1645670,0,0,0,154,105,92,165,94,186,217,124,147,99,56,120,0,,,,,
1,1791322461568,-1373,-1282,10083,926071,-205250,283441,0,0,0,446,338,184,434,327,459,297,78,217,326,153,488,0,,,,,
2,1791322461568,205,-8863,34443,-7402464,2368935,2052507,0,0,0,155,105,97,167,93,183,215,126,147,80,46,120,0,,,,,
1,1791322461584,-1196,-1416,10145,956614,-161268,332310,0,0,0,456,341,188,445,330,468,297,73,217,331,150,491,0,,,,,
2,1791322461584,-636,-16219,36290,-7563733,1923003,2296853,0,0,0,154,103,99,162,85,186,214,120,148,89,65,129,0,,,,,
1,1791322461600,-890,-1545,10361,1017701,-138055,349414,0,0,0,463,348,201,454,340,478,317,84,239,331,151,498,0,,,,,
2,1791322461600,2574,-27221,33275,-7178888,706160,2250427,0,0,0,164,102,101,199,88,190,231,123,155,109,60,141,0,,,,,
1,1791322461616,-794,-1675,10514,1115439,-140499,322536,0,0,0,472,353,207,452,353,477,330,98,257,326,156,509,0,,,,,
2,1791322461616,8399,-41713,24292,-6032905,185703,1701870,0,0,0,165,107,108,197,91,199,239,141,164,116,63,147,0,,,,,
1,1791322461632,-947,-1794,10892,1227839,-142942,296880,0,0,0,486,348,204,444,339,476,335,105,271,327,155,515,0,,,,,
2,1791322461632,3799,-57501,14424,-3885102,2144136,156381,0,0,0,161,106,110,184,92,202,238,143,164,119,72,149,0,,,,,
1,1791322461648,-1244,-1895,12026,1455080,-130725,299323,0,0,0,488,362,207,445,335,474,303,96,245,378,164,482,0,,,,,
2,1791322461648,-14979,-63670,12974,-1341460,3748269,-944397,0,0,0,152,95,92,185,87,194,267,163,151,182,123,141,0,,,,,
1,1791322461664,-1052,-1943,13060,1783726,-106290,306654,0,0,0,491,366,211,444,336,460,278,89,226,345,169,520,0,,,,,
2,1791322461664,-26288,-50815,19224,1364672,1334129,-408057,0,0,0,142,87,74,182,82,199,328,238,146,262,211,148,0,,,,,
1,1791322461680,-545,-1971,13831,2240653,-103847,246789,0,0,0,490,369,215,443,338,457,302,104,258,347,169,527,0,,,,,
2,1791322461680,-7001,-11701,16075,4612032,-3065321,558330,0,0,0,157,93,82,198,88,231,374,307,166,270,264,193,0,,,,,
1,1791322461696,-684,-1981,14850,2824640,-133168,151494,0,0,0,481,377,217,423,333,446,294,103,247,353,184,523,0,,,,,
2,1791322461696,7954,11294,10610,6878342,-5240002,1022588,0,0,0,174,99,88,212,92,246,407,346,187,308,336,222,0,,,,,
1,1791322461712,-2239,-1943,16247,3556457,-147829,171042,0,0,0,473,388,216,423,350,452,291,109,256,337,195,511,0,,,,,
2,1791322461712,3508,564,15539,7071376,-3633426,1718974,0,0,0,184,98,95,205,84,243,435,367,194,323,386,241,0,,,,,
1,1791322461728,-3484,-1785,17659,4494746,-98960,447153,0,0,0,452,380,201,422,364,459,297,119,278,314,178,492,0,,,,,
2,1791322461728,-7614,-6657,26714,6131865,-1615127,1813048,0,0,0,208,103,120,192,66,236,473,375,210,387,378,276,0,,,,,
1,1791322461744,-4599,-1679,19449,5617516,26878,830776,0,0,0,437,378,189,416,362,458,274,121,274,292,164,467,0,,,,,
2,1791322461744,-7068,-3972,24455,4017049,-1043357,576656,0,0,0,218,98,134,199,69,245,481,380,220,365,350,284,0,,,,,
1,1791322461760,-4781,-2407,22986,6785491,328645,1213178,0,0,0,420,369,184,393,346,429,265,124,248,266,150,445,0,,,,,
2,1791322461760,454,-9,12543,1418429,-861319,-142942,0,0,0,241,106,147,216,79,266,491,376,207,367,358,294,0,,,,,
1,1791322461776,-3723,-5163,30337,7858170,736703,1287703,0,0,0,385,341,185,353,322,388,253,115,208,237,140,421,0,,,,,
2,1791322461776,1904,378,8011,216246,-491135,2443,0,0,0,260,112,168,227,83,264,496,360,204,373,349,316,0,,,,,
1,1791322461792,-2857,-5781,35912,8790350,794124,1213178,0,0,0,328,303,184,308,288,349,268,115,189,210,129,397,0,,,,,
2,1791322461792,-71,-339,9605,114842,-215024,194255,0,0,0,285,130,195,248,95,272,512,356,208,369,343,337,0,,,,,
1,1791322461808,-3225,-1493,36544,9568593,1384220,1238834,0,0,0,261,252,174,273,239,302,303,127,183,199,121,321,0,,,,,
2,1791322461808,-378,-47,10648,208915,-178372,67195,0,0,0,297,145,214,250,114,278,519,351,226,370,335,345,0,,,,,
1,1791322461824,-9533,5896,32175,9929003,2276083,1361007,0,0,0,224,212,159,269,208,270,303,125,162,208,129,221,0,,,,,
2,1791322461824,119,291,10337,184481,-158824,-15882,0,0,0,302,147,210,252,125,280,523,329,223,369,326,359,0,,,,,
1,1791322461840,-15970,12299,23426,9293703,1577254,1795943,0,0,0,229,216,149,286,216,277,301,126,159,215,136,231,0,,,,,
2,1791322461840,368,339,9911,136833,-114842,-12217,0,0,0,301,154,210,267,131,281,521,308,223,356,295,365,0,,,,,
1,1791322461856,-12845,12400,14280,6982189,-604756,2745228,0,0,0,234,212,149,284,211,270,305,129,159,219,137,225,0,,,,,
2,1791322461856,177,263,10045,145385,-39095,-1221,0,0,0,304,155,209,271,138,288,510,278,225,349,268,377,0,,,,,
1,1791322461872,-5465,12998,8580,2981022,-1503950,3034778,0,0,0,240,207,149,275,203,256,276,126,163,230,135,216,0,,,,,
2,1791322461872,86,248,10184,172263,21991,-15882,0,0,0,312,149,213,273,142,298,502,256,229,335,230,390,0,,,,,
1,1791322461888,-1636,12103,8360,-1364672,-679282,1974316,0,0,0,235,207,149,275,203,253,228,117,158,214,136,217,0,,,,,
2,1791322461888,157,248,10131,199142,42760,-28099,0,0,0,324,145,216,281,147,306,498,234,234,358,198,394,0,,,,,
1,1791322461904,-1584,8719,9150,-3916867,120951,656069,0,0,0,233,207,150,274,202,254,330,145,175,213,133,220,0,,,,,
2,1791322461904,239,220,10059,227241,34208,-32986,0,0,0,336,145,213,290,156,317,487,202,241,358,175,408,0,,,,,
1,1791322461920,-2512,6264,8049,-4326147,259006,-226020,0,0,0,234,205,151,277,202,260,317,132,164,213,134,222,0,,,,,
2,1791322461920,287,172,10059,250454,7330,-42760,0,0,0,348,151,210,301,171,330,470,175,254,271,147,435,0,,,,,
1,1791322461936,-2694,6082,6417,-4801400,85521,-829554,0,0,0,226,201,147,266,197,258,330,140,173,214,133,225,0,,,,,
2,1791322461936,306,95,10059,262672,-6108,-58643,0,0,0,360,160,221,315,183,328,457,164,254,256,138,450,0,,,,,
1,1791322461952,-2775,6633,6518,-6030461,-228463,-1264491,0,0,0,225,200,149,263,196,260,339,142,176,215,131,225,0,,,,,
2,1791322461952,268,28,10064,268780,-10995,-70860,0,0,0,367,152,247,310,194,336,446,156,267,242,115,468,0,,,,,
1,1791322461968,-3230,5508,8930,-7248526,-511905,-1469741,0,0,0,225,200,149,265,196,262,347,144,181,213,129,225,0,,,,,
2,1791322461968,205,4,10098,285884,-6108,-67195,0,0,0,369,164,205,320,201,343,439,135,260,225,104,474,0,,,,,
1,1791322461984,-3278,3962,11002,-7800749,-714712,-1462411,0,0,0,230,201,150,274,197,264,341,142,178,215,131,227,0,,,,,
2,1791322461984,148,-9,10165,315206,10995,-57421,0,0,0,384,170,175,334,206,347,425,121,254,209,99,486,0,,,,,
1,1791322462000,-2699,2957,11892,-7806857,-761138,-1292590,0,0,0,230,203,152,277,199,266,324,134,168,218,134,230,0,,,,,
2,1791322462000,162,-57,10251,386066,64751,-40317,0,0,0,380,179,142,340,223,350,424,136,267,214,81,496,0,,,,,
1,1791322462016,-2416,2225,13117,-7837401,-696386,-1017701,0,0,0,221,204,151,266,199,265,318,131,167,216,134,230,0,,,,,
2,1791322462016,287,-105,10351,466701,162490,-37873,0,0,0,394,216,132,339,281,360,426,141,271,199,117,516,0,,,,,
1,1791322462032,-2885,1320,15041,-7899709,-742812,-638965,0,0,0,218,204,150,266,198,266,325,136,172,215,134,230,0,,,,,
2,1791322462032,416,-162,10461,532674,284663,-58643,0,0,0,406,189,122,346,230,357,405,122,272,207,75,527,0,,,,,
1,1791322462048,-3460,363,17267,-7811744,-1095892,-135612,0,0,0,218,204,150,270,199,267,324,139,173,216,134,232,0,,,,,
2,1791322462048,550,-253,10480,594982,387288,-96516,0,0,0,416,185,129,349,225,376,404,133,271,201,81,551,0,,,,,
1,1791322462064,-3144,-378,19674,-7632150,-1545489,284663,0,0,0,228,209,156,284,204,275,324,139,173,214,134,235,0,,,,,
2,1791322462064,775,-378,10514,668286,411723,-146607,0,0,0,428,197,136,352,231,378,396,134,265,187,73,563,0,,,,,
1,1791322462080,-2115,-923,23182,-7501425,-1780061,438601,0,0,0,231,210,162,283,202,275,309,128,162,215,134,235,0,,,,,
2,1791322462080,842,-449,10830,768468,390953,-202807,0,0,0,435,192,134,348,235,377,390,124,270,201,81,580,0,,,,,
1,1791322462096,-1119,-2048,28279,-7470881,-1795943,364075,0,0,0,215,210,155,271,202,275,296,121,158,214,134,235,0,,,,,
2,1791322462096,894,-550,11232,965167,353080,-254119,0,0,0,454,195,134,341,244,384,387,132,277,209,93,593,0,,,,,
1,1791322462112,43,-5340,32945,-7549072,-1850921,35430,0,0,0,211,218,157,261,203,273,333,142,182,211,134,235,0,,,,,
2,1791322462112,871,-670,11380,1175304,333532,-298102,0,0,0,466,195,135,342,249,393,377,140,279,206,88,605,0,,,,,
1,1791322462128,3015,-12132,35635,-7701788,-2309070,-433714,0,0,0,211,223,155,266,208,274,339,145,184,213,135,233,0,,,,,
2,1791322462128,842,-765,11749,1390329,335975,-322536,0,0,0,470,195,138,347,249,395,362,138,276,211,76,624,0,,,,,
1,1791322462144,6561,-21239,36305,-7740884,-2206445,-874759,0,0,0,209,233,169,282,223,291,304,128,174,209,137,239,0,,,,,
2,1791322462144,847,-823,12715,1706757,339641,-331088,0,0,0,475,203,145,343,244,390,352,140,278,226,82,646,0,,,,,
1,1791322462160,2526,-33194,31390,-7121466,-850324,-1010371,0,0,0,210,246,169,286,236,294,298,125,172,218,141,249,0,,,,,
2,1791322462160,660,-894,13328,2067167,323758,-315206,0,0,0,485,206,150,340,229,385,342,140,278,246,97,657,0,,,,,
1,1791322462176,-3546,-47551,19573,-5260771,-1087340,240680,0,0,0,210,248,167,277,236,291,311,129,178,219,142,252,0,,,,,
2,1791322462176,646,-952,14065,2511877,359188,-268780,0,0,0,495,204,152,342,209,378,325,132,263,252,98,657,0,,,,,
1,1791322462192,11887,-55831,11734,-2995683,-2315179,1734857,0,0,0,204,244,177,269,232,292,332,145,187,230,161,247,0,,,,,
2,1791322462192,1368,-1028,15137,3064100,390953,-261450,0,0,0,493,203,151,346,201,369,313,134,258,233,92,649,0,,,,,
1,1791322462208,31548,-54740,9298,-560774,-720820,1055575,0,0,0,184,234,154,267,234,286,314,181,167,271,240,229,0,,,,,
2,1791322462208,2244,-1143,15874,3710395,355523,-365297,0,0,0,483,212,157,387,200,358,286,145,261,217,80,635,0,,,,,
1,1791322462224,22656,-39325,12055,1869247,1995085,-904080,0,0,0,177,222,105,279,232,282,284,225,138,320,331,222,0,,,,,
2,1791322462224,3125,-1210,16544,4503298,268780,-575435,0,0,0,443,222,148,289,197,372,254,133,262,182,80,599,0,,,,,
1,1791322462240,-531,-81,11950,5132489,2811201,-1345125,0,0,0,203,224,107,297,218,304,321,262,159,352,362,249,0,,,,,
2,1791322462240,4077,-1249,17166,5349957,157603,-869872,0,0,0,405,211,141,276,199,371,285,178,303,180,88,549,0,,,,,
1,1791322462256,-8954,14300,12309,7203322,1910786,-1307251,0,0,0,207,220,124,294,203,319,355,304,174,391,413,268,0,,,,,
2,1791322462256,4536,-2110,20229,6261368,127059,-1191187,0,0,0,367,201,127,275,205,351,193,125,237,163,82,497,0,,,,,
1,1791322462272,-1057,-1698,17913,7200879,-425162,-2103819,0,0,0,206,177,169,293,171,334,435,367,232,416,424,289,0,,,,,
2,1791322462272,4589,-4034,27599,7141014,384845,-1365894,0,0,0,336,179,131,234,168,289,216,134,206,148,82,417,0,,,,,
1,1791322462288,7642,-10538,26872,6293133,-1205847,-2004859,0,0,0,225,205,213,292,187,351,437,359,244,424,434,317,0,,,,,
2,1791322462288,3455,-4714,36678,8035321,960280,-1412320,0,0,0,290,138,119,207,135,246,198,117,176,133,73,324,0,,,,,
1,1791322462304,3594,-5068,22139,3503923,333532,-178372,0,0,0,269,230,246,318,224,359,420,307,213,437,426,341,0,,,,,
2,1791322462304,3383,-1095,38559,8792794,527787,-1543045,0,0,0,205,96,97,171,89,190,203,109,143,106,45,162,0,,,,,
1,1791322462320,-1986,57,11505,450818,989601,592539,0,0,0,296,262,259,327,250,368,431,331,241,441,415,378,0,,,,,
2,1791322462320,7398,6412,34922,9202073,-635299,-1802052,0,0,0,174,93,96,164,81,183,209,111,140,98,55,133,0,,,,,
1,1791322462336,-1603,387,8619,-94073,377514,102625,0,0,0,315,280,276,342,265,382,408,278,204,447,389,407,0,,,,,
2,1791322462336,13012,15640,26221,8929628,-1324355,-2247984,0,0,0,162,87,90,164,83,186,202,109,139,102,56,128,0,,,,,
1,1791322462352,-153,-234,9853,178372,-8552,-174707,0,0,0,330,303,293,339,269,388,422,296,234,451,377,422,0,,,,,
2,1791322462352,12720,19727,10763,6333450,-398284,-2535090,0,0,0,166,86,90,162,81,182,204,111,138,107,66,128,0,,,,,
1,1791322462368,-229,-181,10720,262672,47647,-32986,0,0,0,341,315,312,349,281,399,426,299,247,446,371,432,0,,,,,
2,1791322462368,8418,19928,4953,1626123,597426,-2069611,0,0,0,169,87,93,159,78,176,211,114,140,100,69,123,0,,,,,
1,1791322462384,-622,76,10342,155159,35430,40317,0,0,0,345,324,316,356,298,403,417,274,240,453,360,442,0,,,,,
2,1791322462384,3321,15730,10107,-3048217,477696,-952949,0,0,0,167,86,91,164,81,178,210,115,139,99,67,120,0,,,,,
1,1791322462400,-622,114,10031,131946,-52534,10995,0,0,0,349,332,313,355,299,404,422,266,251,451,343,450,0,,,,,
2,1791322462400,2852,10102,11174,-4129449,-785572,-179594,0,0,0,166,88,90,167,84,183,206,115,138,105,70,123,0,,,,,
1,1791322462416,-526,47,10117,186924,-129503,-6108,0,0,0,358,335,310,363,293,408,418,239,242,443,323,457,0,,,,,
2,1791322462416,4000,7762,7437,-3915646,-1314581,3665,0,0,0,165,90,92,160,82,183,208,115,142,98,68,122,0,,,,,
1,1791322462432,-531,4,10246,241902,-180816,4886,0,0,0,367,339,307,377,297,411,409,200,229,449,303,463,0,,,,,
2,1791322462432,4024,7523,5149,-4268726,-888198,25656,0,0,0,161,90,95,159,84,184,206,113,141,92,60,126,0,,,,,
1,1791322462448,-607,-4,10208,267558,-232128,24434,0,0,0,371,344,306,381,316,415,425,217,266,438,289,467,0,,,,,
2,1791322462448,3038,7102,6207,-5166698,-249233,106290,0,0,0,164,93,100,162,82,185,194,90,136,101,49,129,0,,,,,
1,1791322462464,-650,-38,10136,280998,-271224,34208,0,0,0,374,351,298,374,348,413,429,209,278,416,280,467,0,,,,,
2,1791322462464,2172,5680,8384,-5896071,135612,201585,0,0,0,170,95,97,166,85,189,172,72,124,123,43,124,0,,,,,
1,1791322462480,-722,-67,10131,291993,-291993,45204,0,0,0,384,349,281,377,333,416,425,188,277,395,250,459,0,,,,,
2,1791322462480,1770,4484,9686,-6229603,294437,270002,0,0,0,165,90,92,162,82,185,205,112,132,98,55,121,0,,,,,
1,1791322462496,-823,-86,10174,312763,-282219,81855,0,0,0,398,338,260,391,298,419,410,152,253,382,208,451,0,,,,,
2,1791322462496,1904,3938,10744,-6467841,335975,354301,0,0,0,160,86,95,160,83,184,211,120,140,95,50,119,0,,,,,
1,1791322462512,-775,-138,10179,345749,-246789,119729,0,0,0,397,339,245,390,308,426,438,169,311,350,189,462,0,,,,,
2,1791322462512,2938,3431,12419,-6827029,478918,428827,0,0,0,164,91,97,163,84,187,222,126,153,98,64,127,0,,,,,
1,1791322462528,-646,-229,10193,368962,-188146,113620,0,0,0,414,342,214,396,313,431,408,123,261,348,185,457,0,,,,,
2,1791322462528,4058,2474,14381,-7095810,846659,437379,0,0,0,165,90,100,162,84,188,208,115,144,98,64,134,0,,,,,
1,1791322462544,-679,-315,10251,386066,-163711,94073,0,0,0,422,345,195,416,324,432,356,93,212,352,172,451,0,,,,,
2,1791322462544,4364,1402,16400,-7136127,1347568,398284,0,0,0,160,92,96,162,84,189,218,121,151,96,56,128,0,,,,,
1,1791322462560,-823,-378,10457,421497,-199142,91629,0,0,0,426,345,184,429,331,435,382,105,230,336,161,457,0,,,,,
2,1791322462560,3771,765,19061,-7066489,1701870,456927,0,0,0,165,96,96,165,86,189,218,121,153,106,61,136,0,,,,,
1,1791322462576,-1048,-406,10863,544891,-291993,127059,0,0,0,428,342,180,435,331,443,386,97,233,327,153,463,0,,,,,
2,1791322462576,3230,411,22435,-7090923,1814269,693942,0,0,0,153,91,96,165,85,188,211,115,143,99,54,133,0,,,,,
1,1791322462592,-1110,-435,11093,724486,-351858,182037,0,0,0,434,338,163,430,329,436,421,114,267,316,145,479,0,,,,,
2,1791322462592,3058,-918,26518,-7323052,1806939,1161865,0,0,0,150,91,97,161,84,188,213,115,142,93,55,134,0,,,,,
1,1791322462608,-1043,-555,10873,878424,-360410,223576,0,0,0,437,347,172,437,335,439,381,110,258,321,149,484,0,,,,,
2,1791322462608,3005,-4441,30361,-7600385,1912008,1720196,0,0,0,150,89,96,162,84,191,212,114,147,94,56,136,0,,,,,
1,1791322462624,-1072,-727,10595,968832,-345749,255341,0,0,0,441,354,190,446,347,463,326,91,234,333,159,482,0,,,,,
2,1791322462624,2335,-11074,33395,-7678576,2210110,2134363,0,0,0,150,90,95,164,84,195,210,112,151,98,55,139,0,,,,,
1,1791322462640,-1024,-904,10495,1029918,-293215,279776,0,0,0,451,351,188,445,349,479,315,87,230,339,161,491,0,,,,,
2,1791322462640,71,-19119,34917,-7313278,2012190,2150245,0,0,0,151,94,98,165,82,198,218,114,152,101,55,144,0,,,,,
1,1791322462656,-1067,-1052,10538,1095892,-229685,287106,0,0,0,462,356,196,457,342,472,259,74,190,349,163,500,0,,,,,
2,1791322462656,-162,-27752,33175,-6587570,1077566,2065946,0,0,0,152,95,102,168,83,202,228,115,156,100,57,147,0,,,,,
1,1791322462672,-1301,-1229,10591,1189965,-171042,309097,0,0,0,471,366,203,459,343,471,333,95,254,352,170,507,0,,,,,
2,1791322462672,4489,-42191,23737,-5309640,568104,1426981,0,0,0,149,97,102,168,91,208,229,122,160,101,62,153,0,,,,,
1,1791322462688,-1378,-1354,11069,1304808,-123394,355523,0,0,0,478,363,204,459,344,470,352,102,271,349,161,513,0,,,,,
2,1791322462688,2646,-57396,14309,-3578448,1707979,-101403,0,0,0,144,101,98,171,101,213,226,140,157,105,76,160,0,,,,,
1,1791322462704,-1368,-1445,12050,1485624,-52534,395840,0,0,0,494,364,192,445,346,468,359,109,269,351,160,523,0,,,,,
2,1791322462704,-14386,-62363,12845,-1251052,2961474,-1551597,0,0,0,140,103,92,178,103,209,253,167,155,142,120,155,0,,,,,
1,1791322462720,-1139,-1512,13376,1848478,32986,409279,0,0,0,489,377,203,458,352,461,285,90,221,343,174,516,0,,,,,
2,1791322462720,-20985,-45910,18367,1237612,625526,-979827,0,0,0,137,83,75,192,82,205,338,255,153,245,224,150,0,,,,,
1,1791322462736,-679,-1521,14472,2342057,59864,375071,0,0,0,485,370,205,436,340,454,293,97,232,338,176,520,0,,,,,
2,1791322462736,-6092,-6475,17755,3997502,-2478891,85521,0,0,0,158,95,89,202,88,228,375,302,166,273,276,195,0,,,,,
1,1791322462752,-555,-1474,15324,2896722,-8552,299323,0,0,0,482,375,218,424,341,450,263,102,224,333,178,521,0,,,,,
2,1791322462752,11083,23842,8758,6289468,-3966958,637743,0,0,0,172,105,97,215,101,251,415,348,189,307,335,226,0,,,,,
1,1791322462768,-1909,-1450,16386,3672521,-105068,310319,0,0,0,473,388,217,423,345,445,272,106,229,339,183,506,0,,,,,
2,1791322462768,5441,2445,13122,6790377,-2430021,1440420,0,0,0,175,106,93,203,99,249,425,421,211,319,402,253,0,,,,,
1,1791322462784,-3158,-1349,17429,4548502,-117286,510683,0,0,0,455,386,201,421,360,446,278,111,247,319,174,486,0,,,,,
2,1791322462784,-5503,-10145,24632,6598566,-977384,1901012,0,0,0,186,102,106,195,86,242,449,413,199,348,397,251,0,,,,,
1,1791322462800,-4249,-1206,18951,5572312,12217,855211,0,0,0,438,378,185,414,365,446,272,114,256,294,161,465,0,,,,,
2,1791322462800,-8336,-6039,27623,5229006,-863763,807563,0,0,0,190,107,117,191,75,232,462,393,193,366,435,265,0,,,,,
1,1791322462816,-5250,-2029,22440,6729291,337197,1284038,0,0,0,418,365,178,398,349,425,267,116,239,271,154,445,0,,,,,
2,1791322462816,-196,320,16228,2559525,-1136209,-340862,0,0,0,200,96,120,192,71,241,471,383,193,357,410,269,0,,,,,
1,1791322462832,-4618,-4331,28351,7787310,669508,1527163,0,0,0,377,338,176,357,318,385,266,116,208,242,148,423,0,,,,,
2,1791322462832,2881,1028,8968,845437,-884532,-190589,0,0,0,216,101,131,201,69,247,487,395,202,360,398,274,0,,,,,
1,1791322462848,-2354,-5044,34022,8597317,594982,1461189,0,0,0,312,295,176,301,275,345,282,119,195,215,133,387,0,,,,,
2,1791322462848,827,-378,9294,377514,-453262,190589,0,0,0,233,109,148,209,73,252,497,407,212,363,393,284,0,,,,,
1,1791322462864,-1976,-2483,36061,9147096,990823,1389107,0,0,0,252,243,182,276,233,314,324,134,203,202,121,320,0,,,,,
2,1791322462864,-339,-435,10562,301767,-266337,180816,0,0,0,250,115,172,225,85,261,511,393,217,372,383,305,0,,,,,
1,1791322462880,-7461,4426,33089,9321803,2032959,1447750,0,0,0,229,204,182,281,204,296,315,127,184,208,128,246,0,,,,,
2,1791322462880,129,167,10423,246789,-239459,28099,0,0,0,266,122,186,241,99,272,517,352,214,372,353,327,0,,,,,
1,1791322462896,-13117,12404,23172,8240572,1968207,1853365,0,0,0,238,208,154,281,206,280,300,126,164,214,135,244,0,,,,,
2,1791322462896,521,325,9978,193033,-201585,-15882,0,0,0,282,128,191,251,113,281,512,308,213,363,314,341,0,,,,,
1,1791322462912,-12658,15860,12266,5426926,725707,2444682,0,0,0,240,208,149,282,201,268,267,110,135,213,133,233,0,,,,,
2,1791322462912,378,191,9997,188146,-116064,3665,0,0,0,292,133,201,261,120,287,509,279,226,356,284,354,0,,,,,
1,1791322462928,-7221,14888,10174,1034805,-205250,2399478,0,0,0,232,202,144,263,192,259,319,135,169,213,132,228,0,,,,,
2,1791322462928,277,196,10150,215024,-21991,-7330,0,0,0,297,144,205,267,128,289,500,259,238,342,252,373,0,,,,,
1,1791322462944,-3531,12098,10806,-2394591,-199142,1773952,0,0,0,231,200,143,263,191,260,327,138,170,213,133,228,0,,,,,
2,1791322462944,296,215,10145,237015,39095,-30543,0,0,0,311,163,211,271,154,289,493,233,234,318,212,387,0,,,,,
1,1791322462960,-3000,9160,9456,-3433062,291993,983493,0,0,0,230,200,145,265,192,263,329,140,172,213,134,230,0,,,,,
2,1791322462960,373,191,10078,254119,54977,-36651,0,0,0,322,142,212,282,141,302,493,200,245,287,164,405,0,,,,,
1,1791322462976,-3426,8006,6393,-3415958,430049,372627,0,0,0,230,200,146,266,193,261,332,139,171,215,134,231,0,,,,,
2,1791322462976,469,119,10064,277332,34208,-39095,0,0,0,344,145,212,306,156,323,460,163,231,267,150,420,0,,,,,
1,1791322462992,-3393,7781,5010,-3905872,184481,-129503,0,0,0,238,203,149,281,198,265,314,136,169,217,134,234,0,,,,,
2,1791322462992,574,19,10064,301767,3665,-56199,0,0,0,351,149,212,296,172,323,460,167,253,263,136,437,0,,,,,
1,1791322463008,-3134,7217,6183,-4918686,-345749,-532674,0,0,0,235,203,150,276,198,266,322,139,173,215,134,236,0,,,,,
2,1791322463008,531,-38,10069,316428,-18325,-80634,0,0,0,368,167,207,307,183,323,452,151,253,254,136,470,0,,,,,
1,1791322463024,-2708,6082,7987,-5771454,-883311,-860098,0,0,0,232,205,150,276,198,268,332,141,174,214,134,236,0,,,,,
2,1791322463024,411,-62,10069,321315,-32986,-90408,0,0,0,378,172,201,312,193,325,438,134,254,225,101,473,0,,,,,
1,1791322463040,-2167,5005,9284,-6131865,-1154535,-1022588,0,0,0,234,208,152,284,200,272,323,137,168,213,135,238,0,,,,,
2,1791322463040,287,-86,10088,324980,-20769,-79412,0,0,0,382,182,193,318,208,337,431,126,263,208,93,492,0,,,,,
1,1791322463056,-1995,4154,10744,-6466619,-1258382,-1023810,0,0,0,229,208,152,278,199,272,325,137,169,213,133,238,0,,,,,
2,1791322463056,311,-134,10184,365297,46425,-56199,0,0,0,408,175,160,342,224,348,431,133,268,210,80,502,0,,,,,
1,1791322463072,-2139,3283,12715,-6917437,-1396437,-846659,0,0,0,222,207,150,271,197,270,337,141,176,213,133,238,0,,,,,
2,1791322463072,492,-181,10332,430049,144164,-51312,0,0,0,421,184,139,348,231,356,411,129,267,210,80,514,0,,,,,
1,1791322463088,-2483,2359,15276,-7332826,-1692096,-405614,0,0,0,231,208,154,281,200,274,303,125,161,214,134,240,0,,,,,
2,1791322463088,713,-244,10490,503352,245567,-81855,0,0,0,416,188,127,344,236,364,408,128,274,208,87,536,0,,,,,
1,1791322463104,-2464,1541,17630,-7533190,-1976759,80634,0,0,0,224,207,150,272,196,274,339,138,180,214,133,245,0,,,,,
2,1791322463104,827,-344,10524,582765,309097,-140499,0,0,0,427,197,127,366,248,365,408,130,274,211,79,551,0,,,,,
1,1791322463120,-1895,722,20124,-7568620,-2151467,520457,0,0,0,222,207,152,272,198,280,307,124,164,214,133,247,0,,,,,
2,1791322463120,885,-449,10595,664621,321315,-193033,0,0,0,441,201,125,374,254,367,402,132,272,217,80,565,0,,,,,
1,1791322463136,-1497,157,23014,-7549072,-2234545,715934,0,0,0,214,207,152,267,198,279,340,140,186,213,135,247,0,,,,,
2,1791322463136,909,-521,10839,785572,268780,-235793,0,0,0,446,197,125,355,247,384,391,131,282,215,96,581,0,,,,,
1,1791322463152,-1368,-138,27126,-7557624,-2454456,748920,0,0,0,232,208,168,290,204,293,337,136,193,212,131,250,0,,,,,
2,1791322463152,918,-607,11131,937067,211359,-268780,0,0,0,459,201,133,345,245,398,380,131,286,212,103,596,0,,,,,
1,1791322463168,-722,-837,32428,-7640702,-2904053,586430,0,0,0,217,208,168,279,203,293,334,134,193,211,127,251,0,,,,,
2,1791322463168,1028,-751,11404,1139874,197920,-307876,0,0,0,477,204,138,341,250,386,373,136,269,220,94,609,0,,,,,
1,1791322463184,1440,-3881,38497,-7827627,-3430619,243124,0,0,0,204,213,170,268,203,296,338,136,200,207,128,255,0,,,,,
2,1791322463184,966,-875,11663,1368338,237015,-344527,0,0,0,488,205,143,337,241,375,355,137,263,226,81,622,0,,,,,
1,1791322463200,4173,-10390,41574,-7985230,-3729943,-193033,0,0,0,204,221,181,281,210,304,324,127,194,205,130,255,0,,,,,
2,1791322463200,698,-938,12060,1620014,272445,-346971,0,0,0,485,208,137,338,242,383,339,136,260,231,101,642,0,,,,,
1,1791322463216,3996,-22823,38439,-7622376,-3270572,-467922,0,0,0,208,228,189,295,219,312,285,109,171,207,131,257,0,,,,,
2,1791322463216,406,-947,12830,1933999,293215,-288328,0,0,0,490,206,147,333,230,381,327,148,267,226,90,643,0,,,,,
1,1791322463232,-1134,-40913,27800,-6451958,-2833192,194255,0,0,0,205,232,186,293,223,314,277,107,169,212,133,263,0,,,,,
2,1791322463232,258,-995,13802,2350609,331088,-189368,0,0,0,498,210,149,325,222,381,303,132,270,226,103,656,0,,,,,
1,1791322463248,9600,-57310,17855,-4466646,-4502076,1767844,0,0,0,199,229,182,284,221,313,313,123,194,213,134,264,0,,,,,
2,1791322463248,1086,-1105,14989,2852740,377514,-122173,0,0,0,501,209,153,324,194,372,289,130,256,265,87,606,0,,,,,
1,1791322463264,33098,-65307,14175,-2112371,-4783074,1941329,0,0,0,189,217,168,277,214,301,318,146,187,235,177,245,0,,,,,
2,1791322463264,2349,-1253,15635,3492927,329867,-237015,0,0,0,483,207,148,293,193,360,267,129,250,201,78,632,0,,,,,
1,1791322463280,40870,-55462,17697,1119105,-239459,-433714,0,0,0,184,196,108,278,198,274,295,208,138,320,315,204,0,,,,,
2,1791322463280,2622,-1249,16147,4205196,221133,-426383,0,0,0,454,220,152,301,222,360,243,126,253,208,106,622,0,,,,,
1,1791322463296,1837,-7843,16764,4702440,4542393,-1729970,0,0,0,184,178,101,280,173,293,303,224,154,337,342,221,0,,,,,
2,1791322463296,3316,-1220,16860,4949230,76969,-627969,0,0,0,430,221,149,308,222,370,210,121,262,184,86,575,0,,,,,
1,1791322463312,-17597,26015,10275,6743952,6487388,-764803,0,0,0,207,223,113,296,213,314,318,282,162,360,407,241,0,,,,,
2,1791322463312,4675,-1521,18415,5900958,-119729,-972497,0,0,0,389,213,135,280,211,357,196,121,243,162,81,523,0,,,,,
1,1791322463328,-3479,1742,13850,6052452,4959004,-551000,0,0,0,207,202,125,289,179,323,393,352,204,363,417,257,0,,,,,
2,1791322463328,5541,-3072,22986,6809925,-257785,-1297477,0,0,0,357,189,137,246,182,309,186,118,210,151,82,456,0,,,,,
1,1791322463344,6925,-10667,21885,5573534,2112371,-1529606,0,0,0,215,177,135,303,169,333,417,346,203,412,426,275,0,,,,,
2,1791322463344,4393,-5101,32332,7665137,-25656,-1448972,0,0,0,315,154,129,215,151,264,189,119,185,132,80,369,0,,,,,
1,1791322463360,6020,-3651,24225,5053077,928515,-1066570,0,0,0,207,164,166,287,149,336,443,400,244,444,420,282,0,,,,,
2,1791322463360,3082,-3632,37602,8449487,53756,-1495398,0,0,0,246,120,108,189,120,219,202,122,163,115,74,239,0,,,,,
1,1791322463376,512,1062,18320,3612657,816115,8552,0,0,0,223,162,185,302,152,335,427,346,216,452,421,296,0,,,,,
2,1791322463376,6815,3110,34730,9118996,-516791,-1693318,0,0,0,185,101,94,175,96,188,214,124,143,103,59,138,0,,,,,
1,1791322463392,-2249,440,10466,1706757,819781,215024,0,0,0,246,191,218,314,181,349,433,361,234,456,417,310,0,,,,,
2,1791322463392,11605,11490,27039,9121439,-621860,-2097711,0,0,0,164,97,91,171,90,182,213,121,137,100,57,115,0,,,,,
1,1791322463408,-660,-856,9796,702495,563217,-96516,0,0,0,269,217,253,331,216,367,444,379,260,460,414,336,0,,,,,
2,1791322463408,12639,17334,13462,7433008,250454,-2653598,0,0,0,165,94,89,166,90,182,202,114,138,105,74,121,0,,,,,
1,1791322463424,224,-818,10658,213802,288328,-153938,0,0,0,289,234,285,338,237,379,440,356,263,463,404,362,0,,,,,
2,1791322463424,8475,18573,5943,3404962,1017701,-2649933,0,0,0,168,91,89,160,83,176,205,115,134,103,64,123,0,,,,,
1,1791322463440,-215,23,10772,173485,109955,-15882,0,0,0,303,256,302,336,250,389,438,341,265,462,388,383,0,,,,,
2,1791322463440,3680,15477,10102,-1331686,267558,-1693318,0,0,0,169,96,95,156,82,170,202,119,133,95,51,118,0,,,,,
1,1791322463456,-598,167,10179,221133,43982,23212,0,0,0,314,275,308,342,262,397,439,337,269,454,376,403,0,,,,,
2,1791322463456,3201,10332,12409,-3867998,-1093448,-751364,0,0,0,165,96,92,158,81,173,210,116,140,104,57,119,0,,,,,
1,1791322463472,-526,9,10040,235793,-18325,8552,0,0,0,322,283,324,347,269,399,428,302,257,441,363,418,0,,,,,
2,1791322463472,5546,7843,7709,-3692069,-1367116,-511905,0,0,0,172,95,94,160,81,175,184,85,131,91,51,109,0,,,,,
1,1791322463488,-425,-38,10203,241902,-100181,2443,0,0,0,327,294,318,355,278,403,426,286,269,434,341,432,0,,,,,
2,1791322463488,5551,7762,4752,-3908315,-851546,-409279,0,0,0,178,90,89,168,81,178,215,115,139,111,70,123,0,,,,,
1,1791322463504,-459,-9,10222,260228,-172263,12217,0,0,0,333,301,321,362,284,407,417,240,251,437,326,443,0,,,,,
2,1791322463504,4077,7590,5608,-4845383,-333532,-160046,0,0,0,186,91,95,173,86,176,211,122,141,103,43,114,0,,,,,
1,1791322463520,-531,-9,10102,270002,-208915,21991,0,0,0,344,317,310,370,285,410,419,237,256,426,322,455,0,,,,,
2,1791322463520,3436,5982,7733,-5736024,-252898,167377,0,0,0,185,90,91,177,88,183,215,122,143,100,58,119,0,,,,,
1,1791322463536,-540,-43,10088,267558,-228463,26878,0,0,0,346,317,301,373,302,409,424,222,280,407,267,457,0,,,,,
2,1791322463536,3718,4316,8887,-6152634,-206472,405614,0,0,0,193,93,90,176,86,185,222,129,152,112,64,127,0,,,,,
1,1791322463552,-559,-67,10150,277332,-252898,30543,0,0,0,360,320,296,370,299,417,418,201,279,398,250,454,0,,,,,
2,1791322463552,4120,3546,9648,-6218608,75747,569326,0,0,0,175,94,92,177,94,187,220,124,149,107,65,124,0,,,,,
1,1791322463568,-655,-114,10150,302989,-267558,42760,0,0,0,363,325,276,385,308,422,416,183,276,377,224,452,0,,,,,
2,1791322463568,4273,3259,11098,-6372546,456927,767246,0,0,0,165,90,92,168,87,187,216,120,148,106,66,133,0,,,,,
1,1791322463584,-717,-196,10098,328645,-245567,61086,0,0,0,370,325,266,386,305,427,428,178,295,361,202,452,0,,,,,
2,1791322463584,4608,2904,13294,-6690196,807563,999375,0,0,0,165,91,95,163,84,184,209,116,142,107,64,134,0,,,,,
1,1791322463600,-660,-287,10035,344527,-172263,73303,0,0,0,379,328,248,386,307,427,437,172,307,346,182,457,0,,,,,
2,1791322463600,5388,1880,15395,-6933320,1166752,1144761,0,0,0,164,93,95,164,89,184,210,117,142,108,68,135,0,,,,,
1,1791322463616,-612,-339,10064,339641,-103847,68416,0,0,0,393,336,230,395,315,429,411,131,260,346,175,454,0,,,,,
2,1791322463616,5795,770,17511,-7013954,1620014,1208291,0,0,0,162,94,94,164,88,183,215,117,143,110,75,135,0,,,,,
1,1791322463632,-646,-373,10212,332310,-75747,59864,0,0,0,401,338,207,407,326,432,396,114,240,341,169,449,0,,,,,
2,1791322463632,5384,258,20119,-7021285,1990198,1263269,0,0,0,163,96,96,165,83,181,216,112,140,106,65,131,0,,,,,
1,1791322463648,-722,-421,10332,366519,-103847,65973,0,0,0,413,347,189,419,338,434,399,121,249,325,159,452,0,,,,,
2,1791322463648,4848,-177,24182,-7132462,2061059,1436755,0,0,0,158,96,93,169,85,184,215,114,143,106,58,135,0,,,,,
1,1791322463664,-837,-449,10547,433714,-164933,95294,0,0,0,427,357,183,429,341,438,383,102,230,321,155,458,0,,,,,
2,1791322463664,4852,-1966,27977,-7308391,1986533,1657888,0,0,0,155,97,94,168,88,186,221,121,150,109,69,139,0,,,,,
1,1791322463680,-1028,-497,10710,535117,-228463,147829,0,0,0,428,349,177,434,340,439,374,95,226,327,154,465,0,,,,,
2,1791322463680,4670,-6140,30763,-7463551,2091602,1854586,0,0,0,157,107,101,165,88,187,226,120,155,103,65,135,0,,,,,
1,1791322463696,-1182,-588,10715,664621,-222354,230907,0,0,0,431,352,174,446,345,437,375,108,228,322,156,469,0,,,,,
2,1791322463696,3350,-11878,32907,-7473325,2392148,1866804,0,0,0,152,112,97,168,91,194,218,114,152,101,63,141,0,,,,,
1,1791322463712,-1153,-703,10796,800233,-169820,316428,0,0,0,441,355,170,449,350,438,321,87,193,341,155,469,0,,,,,
2,1791322463712,559,-18789,34199,-7161784,2448347,1601688,0,0,0,146,96,93,172,86,200,225,121,150,98,64,147,0,,,,,
1,1791322463728,-1005,-818,10945,960280,-118507,377514,0,0,0,456,371,179,455,359,439,330,89,202,382,156,455,0,,,,,
2,1791322463728,-488,-28073,31155,-6256481,1789835,1343903,0,0,0,154,98,102,175,93,212,238,123,161,105,56,155,0,,,,,
1,1791322463744,-689,-961,10830,1099557,-96516,398284,0,0,0,468,371,182,457,358,455,297,74,186,334,159,492,0,,,,,
2,1791322463744,1454,-43397,22646,-5032307,1442863,773355,0,0,0,156,102,108,174,88,213,227,116,161,101,44,155,0,,,,,
1,1791322463760,-536,-1124,10959,1209513,-75747,364075,0,0,0,476,375,193,465,363,455,300,90,209,341,166,499,0,,,,,
2,1791322463760,-2144,-58946,14974,-3420845,2282192,-625526,0,0,0,152,97,104,177,96,213,232,116,159,103,67,161,0,,,,,
1,1791322463776,-981,-1244,12155,1389107,-28099,340862,0,0,0,483,377,197,463,359,451,354,110,249,342,157,517,0,,,,,
2,1791322463776,-17449,-60459,15333,-850324,2304183,-1838704,0,0,0,155,102,110,174,98,211,230,130,168,103,65,158,0,,,,,
1,1791322463792,-909,-1282,13524,1721418,20769,348193,0,0,0,492,372,205,460,352,448,334,106,238,339,160,518,0,,,,,
2,1791322463792,-21162,-47762,18808,1456302,-40317,-1523497,0,0,0,143,87,81,182,89,198,314,213,162,194,164,141,0,,,,,
1,1791322463808,-210,-1229,14553,2221106,34208,288328,0,0,0,492,365,205,450,348,444,298,98,221,339,166,513,0,,,,,
2,1791322463808,-4958,-12940,21531,3150842,-2693915,-399505,0,0,0,146,93,81,188,91,210,340,271,161,238,217,163,0,,,,,
1,1791322463824,-263,-1172,15606,2824640,4886,169820,0,0,0,484,370,214,431,345,444,287,104,225,332,175,506,0,,,,,
2,1791322463824,8777,28772,13744,4724431,-4258952,647517,0,0,0,154,100,84,197,94,227,360,311,173,275,271,197,0,,,,,
1,1791322463840,-1627,-1100,16568,3567452,-35430,146607,0,0,0,479,380,218,417,345,443,272,103,224,328,180,500,0,,,,,
2,1791322463840,5876,14376,7968,5762902,-3346319,1698205,0,0,0,178,107,96,205,92,237,400,337,182,298,311,220,0,,,,,
1,1791322463856,-2550,-938,16937,4418999,-6108,365297,0,0,0,462,392,207,419,357,441,256,102,225,317,176,488,0,,,,,
2,1791322463856,-2890,-9212,14434,6352998,-1483180,2552194,0,0,0,186,105,102,203,83,237,446,376,185,313,335,238,0,,,,,
1,1791322463872,-3125,-765,18013,5374392,85521,663399,0,0,0,438,397,192,417,372,444,263,114,247,293,171,472,0,,,,,
2,1791322463872,-9423,-9624,25561,6001140,-886976,1881464,0,0,0,179,95,100,198,75,232,464,399,188,327,350,242,0,,,,,
1,1791322463888,-5455,-1186,21550,6596122,483805,1104444,0,0,0,423,385,173,393,366,436,273,125,254,270,165,454,0,,,,,
2,1791322463888,-4072,-1129,22627,4041484,-1372003,112399,0,0,0,190,92,107,195,67,231,472,381,198,330,339,240,0,,,,,
1,1791322463904,-6144,-2780,26254,7672467,1147204,1521054,0,0,0,390,367,168,361,347,386,266,127,214,246,157,430,0,,,,,
2,1791322463904,1617,1292,13888,1844813,-1240056,-403171,0,0,0,208,92,117,200,62,240,493,370,209,334,327,261,0,,,,,
1,1791322463920,-4972,-4929,31581,8535009,1543045,1721418,0,0,0,355,334,180,330,311,358,279,122,201,224,138,407,0,,,,,
2,1791322463920,1512,-196,9303,620639,-630412,83077,0,0,0,232,101,139,222,75,259,503,354,210,343,319,291,0,,,,,
1,1791322463936,-3062,-2732,35084,9248499,1496619,1760513,0,0,0,298,286,173,292,266,317,314,136,195,201,120,391,0,,,,,
2,1791322463936,-119,-679,9605,312763,-276111,268780,0,0,0,267,125,173,245,99,268,506,324,212,345,298,327,0,,,,,
1,1791322463952,-5063,2354,35754,9969320,2079385,1778839,0,0,0,208,220,145,263,219,262,330,142,174,211,135,221,0,,,,,
2,1791322463952,-239,57,10720,354301,-240680,53756,0,0,0,298,142,197,269,130,283,517,300,222,342,283,366,0,,,,,
1,1791322463968,-11706,9949,29380,10095158,2349387,1865582,0,0,0,221,214,157,268,211,272,327,139,177,219,140,230,0,,,,,
2,1791322463968,339,277,10318,310319,-223576,-37873,0,0,0,325,162,213,293,154,302,537,261,230,346,245,404,0,,,,,
1,1791322463984,-13740,13534,17745,8644964,526565,2146580,0,0,0,241,217,150,286,215,274,330,142,176,220,140,227,0,,,,,
2,1791322463984,435,129,9997,268780,-147829,-18325,0,0,0,336,162,212,301,170,323,523,240,251,339,225,435,0,,,,,
1,1791322464000,-7867,14515,10409,5518556,-1138652,2007303,0,0,0,248,215,151,283,211,266,330,140,174,219,136,222,0,,,,,
2,1791322464000,248,4,10083,265115,-47647,1221,0,0,0,355,157,230,317,166,327,515,218,258,323,195,460,0,,,,,
1,1791322464016,205,15931,8317,461814,-1011592,778242,0,0,0,248,212,151,280,207,262,321,134,166,221,136,218,0,,,,,
2,1791322464016,234,43,10179,278554,26878,-18325,0,0,0,365,178,229,316,186,328,488,179,246,299,167,476,0,,,,,
1,1791322464032,330,12931,11328,-4415333,853989,-1362229,0,0,0,241,209,148,273,204,259,312,128,158,225,137,217,0,,,,,
2,1791322464032,354,62,10169,299323,61086,-41538,0,0,0,370,189,210,324,197,332,464,158,248,282,136,485,0,,,,,
1,1791322464048,-4312,8576,11615,-5696929,1535715,-2344500,0,0,0,235,209,146,266,201,257,324,134,164,226,137,218,0,,,,,
2,1791322464048,440,-19,10169,349414,56199,-56199,0,0,0,375,207,191,339,209,337,462,142,261,252,114,506,0,,,,,
1,1791322464064,-6733,6441,8284,-5424483,681725,-2069611,0,0,0,238,211,150,272,201,260,340,140,174,225,139,221,0,,,,,
2,1791322464064,425,-114,10212,409279,62308,-58643,0,0,0,381,206,164,333,217,344,450,128,262,221,93,514,0,,,,,
1,1791322464080,-5824,6077,6929,-5689598,-381179,-1372003,0,0,0,242,212,153,285,205,266,325,133,167,224,139,223,0,,,,,
2,1791322464080,397,-157,10342,470366,108734,-52534,0,0,0,388,222,136,333,258,348,430,131,268,221,120,528,0,,,,,
1,1791322464096,-3450,5527,8853,-6520375,-879645,-675616,0,0,0,236,211,153,286,207,268,310,127,157,224,140,222,0,,,,,
2,1791322464096,425,-167,10567,542448,249233,-53756,0,0,0,408,219,128,345,259,356,411,142,271,215,112,534,0,,,,,
1,1791322464112,-1890,4651,10739,-7083593,-853989,-238237,0,0,0,230,210,153,283,207,267,341,141,173,225,142,222,0,,,,,
2,1791322464112,531,-205,10744,605978,392175,-69638,0,0,0,415,215,126,345,240,361,393,140,269,205,82,538,0,,,,,
1,1791322464128,-1627,3728,11954,-7318165,-602313,-15882,0,0,0,219,206,148,269,204,264,336,141,172,225,141,222,0,,,,,
2,1791322464128,703,-330,10729,674395,454483,-96516,0,0,0,420,212,131,339,231,361,376,132,264,212,79,556,0,,,,,
1,1791322464144,-2177,2799,13352,-7429343,-526565,134390,0,0,0,218,207,147,269,204,265,334,138,171,224,140,222,0,,,,,
2,1791322464144,847,-454,10748,748920,412944,-123394,0,0,0,431,200,137,333,228,361,365,135,260,209,89,571,0,,,,,
1,1791322464160,-2857,1861,15482,-7501425,-784350,261450,0,0,0,218,207,147,269,204,265,334,137,171,223,140,220,0,,,,,
2,1791322464160,875,-559,10825,847880,272445,-144164,0,0,0,439,196,134,325,231,368,354,138,260,188,84,574,0,,,,,
1,1791322464176,-3091,995,18152,-7611380,-1198517,357967,0,0,0,230,210,155,287,208,274,320,132,164,225,140,223,0,,,,,
2,1791322464176,976,-708,10691,948062,147829,-164933,0,0,0,454,194,136,330,230,374,341,126,254,192,73,586,0,,,,,
1,1791322464192,-3259,186,20928,-7705454,-1572367,412944,0,0,0,229,213,155,287,207,276,313,127,160,224,139,223,0,,,,,
2,1791322464192,1038,-861,10476,1032362,75747,-201585,0,0,0,466,197,141,334,234,369,342,125,252,203,78,592,0,,,,,
1,1791322464208,-3426,-670,24402,-7715227,-1897347,411723,0,0,0,220,213,153,275,205,273,338,141,176,219,137,222,0,,,,,
2,1791322464208,1072,-1028,10418,1110553,51312,-245567,0,0,0,462,205,142,350,245,367,337,125,247,211,79,595,0,,,,,
1,1791322464224,-3273,-1971,28891,-7750658,-2196671,339641,0,0,0,215,214,154,269,205,274,342,142,181,221,138,224,0,,,,,
2,1791322464224,1191,-1196,10720,1230282,37873,-294437,0,0,0,482,229,141,463,261,342,346,134,252,234,105,620,0,,,,,
1,1791322464240,-2091,-5053,33079,-7910704,-2527760,76969,0,0,0,211,218,156,269,208,277,342,142,185,220,140,228,0,,,,,
2,1791322464240,1153,-1330,10964,1384220,28099,-348193,0,0,0,487,219,143,342,248,365,332,132,248,218,81,611,0,,,,,
1,1791322464256,684,-11768,35348,-8079303,-3145955,-536339,0,0,0,203,225,163,267,214,284,345,141,192,218,141,233,0,,,,,
2,1791322464256,981,-1440,11385,1567480,12217,-383623,0,0,0,497,221,149,336,253,370,322,132,242,228,111,634,0,,,,,
1,1791322464272,5005,-20641,36051,-7874052,-3417180,-1255938,0,0,0,203,233,169,276,223,293,336,135,192,218,142,241,0,,,,,
2,1791322464272,985,-1555,12227,1822821,-4886,-386066,0,0,0,509,225,149,341,241,366,319,131,245,224,90,635,0,,,,,
1,1791322464288,6551,-30806,32672,-6949202,-2361605,-1919338,0,0,0,208,240,172,288,230,300,327,131,188,220,144,249,0,,,,,
2,1791322464288,708,-1603,12959,2141693,-4886,-373849,0,0,0,510,235,150,337,236,366,298,129,248,236,104,649,0,,,,,
1,1791322464304,861,-44575,21560,-5032307,-1406211,-1877799,0,0,0,208,244,170,288,230,300,329,130,186,235,152,256,0,,,,,
2,1791322464304,296,-1593,13917,2599842,30543,-300545,0,0,0,514,219,155,325,211,371,282,119,252,229,92,650,0,,,,,
1,1791322464320,5637,-56798,12447,-2957809,-2260201,-702495,0,0,0,204,239,148,286,228,290,317,139,164,286,203,253,0,,,,,
2,1791322464320,813,-1646,15276,3132516,48869,-234572,0,0,0,506,243,158,310,208,365,268,124,254,216,86,636,0,,,,,
1,1791322464336,22014,-60066,12998,-638965,-1554041,4886,0,0,0,174,222,95,276,224,276,214,161,93,329,332,204,0,,,,,
2,1791322464336,2187,-1789,16769,3849672,-20769,-282219,0,0,0,483,237,152,311,212,362,240,126,250,209,88,609,0,,,,,
1,1791322464352,20468,-44867,17367,3403741,1599245,-259006,0,0,0,193,222,103,298,218,314,328,285,178,356,381,257,0,,,,,
2,1791322464352,3799,-1952,17458,4765970,-223576,-546113,0,0,0,447,218,149,302,212,361,208,119,243,191,81,568,0,,,,,
1,1791322464368,2651,-5819,18741,7604050,4004832,-313984,0,0,0,213,236,113,301,213,338,362,329,183,372,413,266,0,,,,,
2,1791322464368,4718,-2244,18583,5674938,-431270,-889419,0,0,0,410,217,151,288,208,346,196,118,239,169,74,519,0,,,,,
1,1791322464384,-3828,6101,22301,8221024,2879618,-533896,0,0,0,210,192,150,297,186,338,401,363,191,426,432,282,0,,,,,
2,1791322464384,5829,-4259,24618,6739065,-426383,-1253495,0,0,0,375,201,147,277,191,309,196,114,217,152,76,458,0,,,,,
1,1791322464400,1828,-3019,27886,6549697,774577,-577878,0,0,0,214,181,174,292,172,342,428,368,221,434,418,301,0,,,,,
2,1791322464400,6221,-6140,32907,7678576,-57421,-1550375,0,0,0,327,168,131,241,165,265,190,110,180,136,75,379,0,,,,,
1,1791322464416,3144,-5790,23795,4142888,289550,-87964,0,0,0,229,195,201,306,189,354,425,328,218,441,409,318,0,,,,,
2,1791322464416,4312,-4249,37688,8447044,127059,-1831373,0,0,0,254,124,107,190,125,225,190,122,159,124,75,269,0,,,,,
1,1791322464432,-263,-1363,12557,1562593,624304,177150,0,0,0,264,222,247,324,222,370,430,338,232,445,410,343,0,,,,,
2,1791322464432,6034,2546,35692,9053022,-520457,-2048842,0,0,0,161,87,86,165,92,183,200,116,147,109,81,137,0,,,,,
1,1791322464448,-1201,416,8786,420275,571769,-31764,0,0,0,296,250,269,336,246,378,434,342,248,453,402,365,0,,,,,
2,1791322464448,11165,11471,28298,9099448,-670730,-2348165,0,0,0,158,94,97,168,97,192,203,125,148,101,74,140,0,,,,,
1,1791322464464,-416,-81,9796,122173,359188,-105068,0,0,0,315,275,286,343,260,384,434,324,252,454,393,385,0,,,,,
2,1791322464464,13864,18291,12964,7463551,428827,-2885727,0,0,0,163,92,95,162,84,188,200,112,138,105,64,132,0,,,,,
1,1791322464480,76,-483,11117,222354,163711,-23212,0,0,0,329,300,310,349,271,394,428,301,250,446,379,409,0,,,,,
2,1791322464480,8959,18999,5628,2433687,1631010,-2823419,0,0,0,164,86,86,155,76,179,208,112,130,86,53,123,0,,,,,
1,1791322464496,-263,4,10466,246789,67195,6108,0,0,0,344,326,320,353,287,402,421,278,249,441,360,434,0,,,,,
2,1791322464496,3292,15726,9691,-2260201,1353677,-1874134,0,0,0,170,91,94,163,78,187,208,115,142,101,68,126,0,,,,,
1,1791322464512,-421,224,10035,251676,-4886,-1221,0,0,0,367,343,316,361,304,404,409,245,238,442,341,455,0,,,,,
2,1791322464512,2311,10203,12093,-4065919,-46425,-681725,0,0,0,171,94,97,155,79,187,206,116,145,103,69,134,0,,,,,
1,1791322464528,-378,119,10160,285884,-85521,-2443,0,0,0,395,342,299,378,298,410,379,179,199,444,314,466,0,,,,,
2,1791322464528,3646,7293,8987,-3866776,-678060,-98960,0,0,0,167,91,101,157,82,190,210,119,151,104,70,134,0,,,,,
1,1791322464544,-330,4,10284,334754,-177150,18325,0,0,0,410,353,314,378,299,419,421,203,257,442,278,468,0,,,,,
2,1791322464544,3555,7236,6283,-3728721,-189368,119729,0,0,0,164,88,94,158,82,192,203,114,148,103,56,134,0,,,,,
1,1791322464560,-358,-28,10232,353080,-251676,30543,0,0,0,418,353,344,379,303,428,446,211,295,420,250,476,0,,,,,
2,1791322464560,2086,7413,6781,-4361577,493579,420275,0,0,0,164,86,92,161,83,195,202,113,147,107,61,137,0,,,,,
1,1791322464576,-430,-57,10165,349414,-299323,35430,0,0,0,417,345,348,385,311,440,426,171,286,388,241,469,0,,,,,
2,1791322464576,1057,6590,8892,-5204571,753807,778242,0,0,0,168,89,93,161,82,196,213,122,150,105,66,138,0,,,,,
1,1791322464592,-540,-105,10165,340862,-317649,51312,0,0,0,434,350,295,386,317,425,450,171,292,362,202,478,0,,,,,
2,1791322464592,1296,5221,9949,-5651725,748920,1042136,0,0,0,168,93,95,161,86,194,216,125,152,98,61,137,0,,,,,
1,1791322464608,-559,-162,10189,357967,-287106,76969,0,0,0,426,346,261,386,317,423,453,156,302,346,177,478,0,,,,,
2,1791322464608,1804,4225,10658,-5908288,811229,1178969,0,0,0,166,94,97,162,90,193,210,119,151,99,57,135,0,,,,,
1,1791322464624,-540,-210,10222,379958,-221133,90408,0,0,0,428,342,231,400,328,430,415,125,265,346,173,467,0,,,,,
2,1791322464624,2234,3756,11739,-6131865,985936,1183856,0,0,0,166,95,99,159,86,191,212,119,154,100,58,131,0,,,,,
1,1791322464640,-550,-263,10433,409279,-166155,87964,0,0,0,431,353,210,419,337,432,401,124,250,341,169,461,0,,,,,
2,1791322464640,2809,3220,13778,-6489832,1314581,1077566,0,0,0,165,94,101,158,85,192,211,119,156,118,70,138,0,,,,,
1,1791322464656,-531,-330,10768,471587,-185703,83077,0,0,0,433,361,199,422,335,435,391,114,240,340,165,459,0,,,,,
2,1791322464656,3077,2507,16051,-6847799,1696983,912632,0,0,0,166,94,101,160,87,197,208,116,154,139,82,149,0,,,,,
1,1791322464672,-569,-402,11055,597426,-265115,72082,0,0,0,440,354,187,416,333,433,414,124,268,327,158,467,0,,,,,
2,1791322464672,2660,1584,18549,-7093367,1959655,792903,0,0,0,168,97,102,158,87,198,210,120,153,105,62,141,0,,,,,
1,1791322464688,-693,-478,10964,734260,-284663,75747,0,0,0,444,351,185,418,334,429,410,125,270,317,154,473,0,,,,,
2,1791322464688,2459,837,21339,-7230200,2040289,763581,0,0,0,167,100,102,158,85,199,208,121,154,99,61,144,0,,,,,
1,1791322464704,-684,-583,10758,836885,-274889,92851,0,0,0,445,352,188,427,330,431,362,98,232,320,154,472,0,,,,,
2,1791322464704,2828,167,24594,-7293730,2019520,819781,0,0,0,167,103,107,160,90,200,203,109,145,80,55,131,0,,,,,
1,1791322464720,-727,-727,10571,905302,-289550,111177,0,0,0,450,346,179,432,324,436,341,89,229,321,150,477,0,,,,,
2,1791322464720,2828,-2311,28332,-7364591,2117258,982271,0,0,0,158,96,106,155,85,197,212,127,160,101,73,147,0,,,,,
1,1791322464736,-861,-871,10404,957836,-317649,138055,0,0,0,444,358,190,434,331,446,344,101,239,320,155,480,0,,,,,
2,1791322464736,1952,-6896,31342,-7404908,2326174,1164309,0,0,0,156,97,103,158,85,198,214,120,157,95,57,147,0,,,,,
1,1791322464752,-1062,-1024,10418,1017701,-321315,182037,0,0,0,456,354,186,433,334,450,344,98,245,322,152,489,0,,,,,
2,1791322464752,-138,-13529,33653,-7370699,2414139,1205847,0,0,0,156,100,109,164,90,207,222,122,159,106,60,150,0,,,,,
1,1791322464768,-1220,-1177,10729,1122770,-298102,252898,0,0,0,475,344,174,425,330,450,348,100,253,318,152,498,0,,,,,
2,1791322464768,-2000,-20851,33744,-6999293,1791056,1070235,0,0,0,151,103,103,165,91,208,225,120,161,100,58,152,0,,,,,
1,1791322464784,-1028,-1306,10729,1251052,-279776,316428,0,0,0,465,355,191,434,337,462,262,74,198,332,161,503,0,,,,,
2,1791322464784,-531,-32002,28911,-6128200,868650,863763,0,0,0,155,102,112,173,90,219,226,110,162,103,60,166,0,,,,,
1,1791322464800,-397,-1474,10241,1356120,-263893,321315,0,0,0,476,358,195,444,338,466,338,105,254,332,156,511,0,,,,,
2,1791322464800,-124,-49700,18717,-4648684,1080009,-51312,0,0,0,152,98,113,172,90,217,224,115,162,103,62,163,0,,,,,
1,1791322464816,-516,-1636,10748,1415985,-205250,235793,0,0,0,481,368,196,446,351,459,344,111,259,334,164,514,0,,,,,
2,1791322464816,-10969,-62450,12744,-2465452,1981646,-1169196,0,0,0,149,96,103,171,90,221,231,129,165,113,63,154,0,,,,,
1,1791322464832,-1206,-1756,12222,1579697,-103847,206472,0,0,0,487,365,200,445,344,463,302,93,238,338,165,514,0,,,,,
2,1791322464832,-24962,-59502,14486,32986,1298699,-1152091,0,0,0,144,96,88,180,88,210,290,221,152,198,166,147,0,,,,,
1,1791322464848,-1273,-1837,13644,1981646,3665,246789,0,0,0,489,366,210,442,339,458,263,83,230,344,167,514,0,,,,,
2,1791322464848,-15975,-29207,19349,2592512,-1740965,232128,0,0,0,148,96,82,192,98,218,342,313,162,259,254,178,0,,,,,
1,1791322464864,-689,-1813,14534,2477669,28099,251676,0,0,0,488,374,221,428,337,452,281,96,242,343,175,518,0,,,,,
2,1791322464864,3890,13046,14587,5180137,-4213748,1158200,0,0,0,160,100,85,201,104,238,378,367,183,279,313,210,0,,,,,
1,1791322464880,-871,-1742,15491,3073873,-6108,215024,0,0,0,484,380,221,420,339,446,278,101,244,334,181,514,0,,,,,
2,1791322464880,6561,10461,11581,6519153,-3859446,1598023,0,0,0,173,103,92,205,97,247,412,394,194,302,364,228,0,,,,,
1,1791322464896,-2187,-1660,16625,3887546,13439,316428,0,0,0,474,391,213,419,354,444,272,107,252,319,179,498,0,,,,,
2,1791322464896,-2933,-6274,20105,6785491,-2075720,2069611,0,0,0,184,101,104,199,82,243,440,394,199,331,379,249,0,,,,,
1,1791322464912,-3172,-1483,17745,4824613,139277,552222,0,0,0,451,397,198,415,371,451,281,119,275,299,172,480,0,,,,,
2,1791322464912,-9940,-8906,29025,5626068,-1108109,1309695,0,0,0,195,99,115,194,70,234,463,385,204,348,377,262,0,,,,,
1,1791322464928,-4948,-1550,19081,5855754,384845,916297,0,0,0,423,386,182,405,364,444,260,119,266,277,166,461,0,,,,,
2,1791322464928,-2512,-1258,19511,2973691,-1137431,12217,0,0,0,210,100,119,204,72,240,486,401,213,357,397,278,0,,,,,
1,1791322464944,-4929,-3101,23972,6950424,912632,1345125,0,0,0,400,374,178,379,342,406,241,110,215,254,153,437,0,,,,,
2,1791322464944,2488,1545,9595,908967,-825889,-150272,0,0,0,225,105,140,220,76,262,493,403,216,349,380,291,0,,,,,
1,1791322464960,-3689,-5714,30988,7903374,1505171,1484402,0,0,0,365,330,180,341,315,371,208,90,159,227,142,413,0,,,,,
2,1791322464960,1392,28,7968,279776,-405614,191811,0,0,0,243,107,189,240,87,272,504,381,222,362,379,327,0,,,,,
1,1791322464976,-3158,-5250,34472,8659625,1809382,1423316,0,0,0,296,288,186,289,267,332,305,128,198,203,126,387,0,,,,,
2,1791322464976,-229,-507,10294,282219,-213802,152716,0,0,0,265,123,198,251,106,277,508,362,228,358,362,347,0,,,,,
1,1791322464992,-5685,-1110,34448,9210626,2530203,1459967,0,0,0,225,229,173,274,218,280,305,122,172,207,125,246,0,,,,,
2,1791322464992,-23,81,10744,255341,-167377,12217,0,0,0,287,139,208,263,126,283,514,344,236,355,345,367,0,,,,,
1,1791322465008,-12658,6590,29408,9150761,3139847,1617571,0,0,0,217,215,163,272,215,281,293,116,161,214,133,242,0,,,,,
2,1791322465008,574,454,10102,199142,-147829,-28099,0,0,0,303,150,222,264,132,284,514,324,252,353,317,383,0,,,,,
1,1791322465024,-15707,12701,18114,7612602,1618792,2045176,0,0,0,229,218,150,283,215,276,299,120,154,216,137,236,0,,,,,
2,1791322465024,521,291,9944,182037,-92851,1221,0,0,0,309,145,223,275,132,301,510,315,244,333,300,402,0,,,,,
1,1791322465040,-11270,14534,10045,4326147,-469144,2403143,0,0,0,235,211,149,281,208,266,315,131,162,213,131,231,0,,,,,
2,1791322465040,354,172,10117,193033,-28099,2443,0,0,0,322,149,239,280,141,307,510,292,256,322,242,417,0,,,,,
1,1791322465056,-4479,13768,10232,-377514,-873537,1811826,0,0,0,234,205,147,268,201,259,324,135,167,215,131,235,0,,,,,
2,1791322465056,358,191,10155,210137,15882,-18325,0,0,0,329,153,214,283,159,311,506,239,257,330,211,429,0,,,,,
1,1791322465072,-1742,10595,11749,-3780034,-58643,559552,0,0,0,228,204,145,262,200,259,330,137,170,216,131,233,0,,,,,
2,1791322465072,459,205,10098,227241,30543,-29321,0,0,0,345,165,210,328,176,316,496,203,258,300,178,440,0,,,,,
1,1791322465088,-3350,8226,9681,-4002389,497244,-311541,0,0,0,227,206,148,263,201,262,331,138,171,213,130,230,0,,,,,
2,1791322465088,531,162,10069,257785,14660,-42760,0,0,0,357,172,205,327,177,324,482,175,258,270,148,461,0,,,,,
1,1791322465104,-4556,7279,6853,-4006054,497244,-868650,0,0,0,225,207,150,263,202,265,332,138,172,213,131,230,0,,,,,
2,1791322465104,526,90,10093,289550,0,-58643,0,0,0,359,164,190,308,176,330,467,154,256,245,121,475,0,,,,,
1,1791322465120,-4517,7346,6274,-4656014,23212,-1005484,0,0,0,221,206,149,263,202,267,334,139,175,214,132,231,0,,,,,
2,1791322465120,473,23,10136,320093,-2443,-68416,0,0,0,360,159,166,315,180,333,451,139,252,219,97,480,0,,,,,
1,1791322465136,-4316,6475,7963,-5555208,-375071,-944397,0,0,0,219,207,150,265,204,268,330,136,174,214,132,231,0,,,,,
2,1791322465136,402,-4,10198,356745,20769,-57421,0,0,0,366,163,139,324,188,339,442,140,265,201,83,489,0,,,,,
1,1791322465152,-3857,5159,9719,-6216164,-758694,-790459,0,0,0,221,208,152,271,205,273,321,131,172,214,134,234,0,,,,,
2,1791322465152,406,-43,10241,416610,81855,-40317,0,0,0,372,166,130,332,207,349,436,146,281,190,74,501,0,,,,,
1,1791322465168,-3082,4206,10634,-6426302,-911410,-627969,0,0,0,229,213,159,281,208,279,332,137,179,214,131,234,0,,,,,
2,1791322465168,526,-114,10265,478918,179594,-30543,0,0,0,379,175,131,329,225,356,419,131,273,188,73,513,0,,,,,
1,1791322465184,-2761,3292,12160,-6772052,-946841,-483805,0,0,0,214,208,151,263,203,274,333,136,178,215,133,234,0,,,,,
2,1791322465184,689,-162,10423,507018,283441,-53756,0,0,0,387,176,127,331,218,361,414,145,278,185,78,524,0,,,,,
1,1791322465200,-3010,2316,14343,-7192327,-1110553,-318871,0,0,0,216,211,154,269,206,274,329,136,176,215,132,233,0,,,,,
2,1791322465200,909,-239,10514,549778,372627,-100181,0,0,0,397,172,129,336,217,369,414,142,278,196,81,539,0,,,,,
1,1791322465216,-3584,1306,16726,-7445225,-1479515,-80634,0,0,0,214,211,154,269,206,279,329,134,178,215,135,237,0,,,,,
2,1791322465216,1139,-358,10519,624304,420275,-174707,0,0,0,409,172,128,336,217,375,398,128,280,194,78,563,0,,,,,
1,1791322465232,-3761,248,19018,-7496538,-1899790,151494,0,0,0,214,212,154,267,204,278,325,131,174,215,134,236,0,,,,,
2,1791322465232,1129,-430,10705,715934,401949,-243124,0,0,0,429,172,135,345,217,371,376,112,267,213,79,578,0,,,,,
1,1791322465248,-3383,-631,21450,-7414682,-2236988,274889,0,0,0,221,214,161,282,209,286,300,120,163,214,132,238,0,,,,,
2,1791322465248,1072,-502,10911,856433,294437,-284663,0,0,0,444,174,139,333,228,378,380,128,277,201,75,585,0,,,,,
1,1791322465264,-2981,-1139,24938,-7387804,-2428800,224798,0,0,0,215,214,162,275,208,287,323,130,178,214,131,240,0,,,,,
2,1791322465264,1158,-655,10945,1017701,193033,-316428,0,0,0,458,197,149,444,247,352,388,142,285,216,83,595,0,,,,,
1,1791322465280,-2952,-2072,29638,-7485542,-2641381,75747,0,0,0,211,217,158,269,210,286,339,138,188,212,131,241,0,,,,,
2,1791322465280,1229,-832,11021,1180191,156381,-359188,0,0,0,472,199,146,369,239,376,371,132,273,218,80,611,0,,,,,
1,1791322465296,-2201,-5144,33845,-7690793,-3062878,-201585,0,0,0,206,224,159,270,215,291,338,138,192,211,131,245,0,,,,,
2,1791322465296,1038,-971,11098,1336573,172263,-393397,0,0,0,478,199,148,346,242,395,354,131,269,228,93,627,0,,,,,
1,1791322465312,1474,-12744,36324,-7861835,-4001167,-779464,0,0,0,198,230,166,270,219,299,328,134,193,210,133,251,0,,,,,
2,1791322465312,866,-1048,11682,1513724,172263,-375071,0,0,0,483,202,147,348,243,389,350,128,264,231,86,636,0,,,,,
1,1791322465328,6144,-21459,36152,-7527081,-3905872,-1265712,0,0,0,196,241,171,275,233,304,315,133,189,209,141,251,0,,,,,
2,1791322465328,914,-1110,12782,1792278,142942,-339641,0,0,0,495,207,148,344,233,383,332,125,256,237,82,639,0,,,,,
1,1791322465344,6298,-32926,30992,-6502049,-2720793,-1483180,0,0,0,200,257,174,277,260,305,314,139,190,210,148,253,0,,,,,
2,1791322465344,607,-1134,13591,2197893,130725,-290771,0,0,0,506,223,148,341,250,378,307,130,251,230,98,649,0,,,,,
1,1791322465360,4709,-48958,19578,-4532620,-2268753,-447153,0,0,0,205,239,179,260,237,298,317,126,190,224,145,256,0,,,,,
2,1791322465360,536,-1177,14352,2659707,164933,-211359,0,0,0,509,220,151,330,228,373,284,122,249,220,92,655,0,,,,,
1,1791322465376,15376,-59592,12768,-2447126,-2640159,907745,0,0,0,196,229,179,287,219,309,329,150,193,275,189,250,0,,,,,
2,1791322465376,1569,-1311,15357,3255911,213802,-175929,0,0,0,495,206,156,305,177,368,261,114,247,214,81,645,0,,,,,
1,1791322465392,29365,-57783,13735,46425,-1187522,987158,0,0,0,186,209,94,288,210,274,356,246,158,334,334,202,0,,,,,
2,1791322465392,2383,-1340,16080,3963293,147829,-291993,0,0,0,470,216,156,289,180,364,240,121,251,201,95,618,0,,,,,
1,1791322465408,15711,-23522,14371,3979176,2656042,-212581,0,0,0,205,216,103,303,209,299,336,267,167,354,365,241,0,,,,,
2,1791322465408,2885,-1349,16109,4709770,-13439,-470366,0,0,0,446,226,155,285,196,365,213,117,250,183,84,571,0,,,,,
