sole_id,timestamp,accel_x,accel_y,accel_z,gyro_x,gyro_y,gyro_z,magn_x,magn_y,magn_z,pressure_01,pressure_02,pressure_03,pressure_04,pressure_05,pressure_06,pressure_07,pressure_08,pressure_09,pressure_10,pressure_11,pressure_12,corrupt,uneven modular paved,transition
1,1791323645456,-9298,10289,9073,6288246,2593733,586430,0,0,0,212,258,112,305,242,346,343,306,169,365,415,293,0,,
2,1791323645456,2459,-1000,16094,3822794,83077,-524122,0,0,0,474,239,142,288,240,368,282,130,271,168,76,615,0,,
1,1791323645472,-2412,425,14620,6592457,1709200,74525,0,0,0,226,253,131,315,235,354,398,355,191,388,423,297,0,,
2,1791323645472,3067,-1258,17865,4493524,-62308,-713490,0,0,0,447,272,123,288,266,371,259,140,267,166,95,580,0,,
1,1791323645488,3699,-7829,24484,6104987,79412,-1178969,0,0,0,226,239,150,304,213,356,427,371,205,405,418,305,0,,
2,1791323645488,2766,-1177,20363,5155702,-177150,-927293,0,0,0,405,215,133,296,257,379,227,128,248,163,84,542,0,,
1,1791323645504,2967,-3622,22761,4990769,-23212,-318871,0,0,0,228,221,174,300,197,366,438,369,218,428,414,320,0,,
2,1791323645504,3421,-1105,23014,6074443,-218689,-1069014,0,0,0,367,207,131,257,225,342,196,113,233,140,81,494,0,,
1,1791323645520,-784,-445,14993,3396410,544891,596204,0,0,0,242,221,202,307,196,377,448,386,256,446,414,337,0,,
2,1791323645520,5522,-1143,26302,7247305,-19547,-1240056,0,0,0,347,171,143,218,172,298,182,104,203,131,76,430,0,,
1,1791323645536,-1861,-856,10500,1747074,757472,300545,0,0,0,265,238,222,319,209,385,451,390,272,458,406,353,0,,
2,1791323645536,7494,-2383,29906,7975456,621860,-1554041,0,0,0,297,133,129,193,132,257,188,110,181,115,64,334,0,,
1,1791323645552,-378,-1493,10232,704938,477696,-173485,0,0,0,285,254,256,329,220,395,447,374,265,465,389,377,0,,
2,1791323645552,7810,-2431,32591,8360301,1087340,-2089159,0,0,0,202,88,108,171,90,212,200,110,170,83,37,186,0,,
1,1791323645568,191,-1052,10696,474031,205250,-114842,0,0,0,297,268,310,339,221,411,443,356,268,460,373,409,0,,
2,1791323645568,7992,4541,28820,8206363,531452,-2687807,0,0,0,176,81,107,160,81,203,217,119,177,91,48,158,0,,
1,1791323645584,-215,-593,10437,494800,120951,50090,0,0,0,313,292,346,359,231,425,440,335,271,444,356,440,0,,
2,1791323645584,9959,13984,16850,7094588,-351858,-3176499,0,0,0,179,86,109,159,83,205,211,116,174,92,49,159,0,,
1,1791323645600,-473,-607,10136,491135,73303,79412,0,0,0,348,314,356,369,245,434,448,320,284,431,324,462,0,,
2,1791323645600,10390,17161,4656,4404338,-459370,-3287676,0,0,0,185,86,110,161,80,204,203,113,170,92,53,163,0,,
1,1791323645616,-268,-732,10332,430049,-54977,39095,0,0,0,364,298,384,369,245,450,456,271,304,409,287,472,0,x,
2,1791323645616,7910,14486,2904,416610,127059,-2744006,0,0,0,187,85,110,162,74,203,205,113,168,90,48,163,0,x,
1,1791323645632,-210,-751,10480,412944,-200363,32986,0,0,0,392,302,426,373,256,467,441,228,314,399,247,468,0,,
2,1791323645632,5120,9624,6403,-1982868,152716,-2070833,0,0,0,188,85,111,161,74,203,202,107,161,92,45,163,0,,
1,1791323645648,-311,-780,10385,414166,-302989,45204,0,0,0,412,305,402,391,243,471,466,230,361,380,214,472,0,,
2,1791323645648,3776,6097,6044,-2525316,-323758,-1677435,0,0,0,187,83,112,160,75,203,199,103,161,97,52,169,0,,
1,1791323645664,-469,-918,10217,364075,-346971,47647,0,0,0,422,297,396,392,258,476,460,200,344,364,194,473,0,,
2,1791323645664,3651,6250,3469,-2172236,-511905,-1436755,0,0,0,185,82,111,160,74,203,201,107,166,98,53,170,0,,
1,1791323645680,-593,-1033,10112,309097,-327423,58643,0,0,0,421,303,371,408,272,477,433,157,317,365,178,460,0,,
2,1791323645680,3038,7188,2780,-2482556,-249233,-857654,0,0,0,187,87,114,162,79,206,200,107,163,101,59,168,0,,
1,1791323645696,-646,-1043,10102,283441,-240680,81855,0,0,0,430,315,310,431,278,470,414,120,263,345,151,458,0,,
2,1791323645696,2364,7178,4225,-3296228,92851,-80634,0,0,0,185,86,116,160,74,206,202,105,166,94,52,165,0,,
1,1791323645712,-698,-1000,10150,283441,-144164,113620,0,0,0,434,312,267,448,276,468,411,115,260,333,138,461,0,,
2,1791323645712,2608,6106,5312,-3859446,328645,640186,0,0,0,182,85,112,160,72,206,199,105,162,97,52,173,0,,
1,1791323645728,-617,-1067,10619,320093,-97738,153938,0,0,0,430,318,250,453,284,470,405,116,260,337,141,458,0,,
2,1791323645728,3115,5125,6054,-4140444,719599,1171639,0,0,0,182,82,116,162,74,210,197,105,166,89,45,169,0,,
1,1791323645744,-392,-1143,11122,489913,-118507,164933,0,0,0,428,334,234,446,307,466,385,102,221,328,143,457,0,,
2,1791323645744,2938,4814,7245,-4365242,1204626,1489289,0,0,0,183,82,116,164,76,211,197,105,166,92,60,177,0,,
1,1791323645760,-272,-1201,10806,714712,-179594,139277,0,0,0,430,338,231,436,315,467,388,113,231,309,142,462,0,,
2,1791323645760,2560,4723,8963,-4768414,1508837,1712866,0,0,0,185,90,116,190,94,208,199,111,166,103,57,175,0,,
1,1791323645776,-339,-1296,10117,789237,-213802,108734,0,0,0,434,330,242,435,292,476,424,150,303,303,140,468,0,,
2,1791323645776,2737,4417,10882,-5313305,1622458,1782504,0,0,0,188,86,119,167,81,212,201,103,165,94,46,170,0,,
1,1791323645792,-425,-1430,9853,767246,-215024,86742,0,0,0,436,330,215,430,285,477,409,122,267,308,136,470,0,,
2,1791323645792,3053,3661,12653,-5718920,1809382,1624901,0,0,0,183,84,121,165,73,213,202,105,168,98,40,178,0,,
1,1791323645808,-555,-1564,9887,729373,-200363,76969,0,0,0,430,318,220,431,286,472,416,124,291,304,137,472,0,,
2,1791323645808,2718,2895,14764,-6026796,2020742,1343903,0,0,0,186,89,121,162,69,212,205,111,177,98,51,179,0,,
1,1791323645824,-665,-1679,9849,707381,-183259,81855,0,0,0,438,310,200,418,288,462,437,113,316,293,126,486,0,,
2,1791323645824,2081,2345,17310,-6257703,2105041,1043357,0,0,0,195,99,125,165,77,216,223,127,195,106,61,179,0,,
1,1791323645840,-674,-1765,9863,692721,-162490,98960,0,0,0,441,312,192,419,294,477,406,109,280,304,140,484,0,,
2,1791323645840,2177,1593,20535,-6434854,2144136,846659,0,0,0,190,96,124,167,83,220,210,115,179,104,52,176,0,,
1,1791323645856,-717,-1847,10007,690277,-129503,118507,0,0,0,433,328,224,417,317,479,400,126,292,302,154,480,0,,
2,1791323645856,2144,330,24268,-6515488,2311514,794124,0,0,0,185,93,122,168,88,220,200,116,170,94,52,174,0,,
1,1791323645872,-799,-1943,10136,717155,-105068,147829,0,0,0,440,352,217,421,309,479,326,87,237,303,161,485,0,,
2,1791323645872,1005,-1828,27848,-6623000,2455678,1010371,0,0,0,184,93,121,169,90,220,201,121,174,90,58,174,0,,
1,1791323645888,-851,-2038,10251,774577,-94073,190589,0,0,0,442,342,210,424,309,483,366,100,267,307,160,487,0,,
2,1791323645888,-928,-5958,31461,-6851464,2417804,1408655,0,0,0,179,97,120,167,87,221,203,119,175,92,55,176,0,,
1,1791323645904,-660,-2163,10122,855211,-86742,228463,0,0,0,459,353,199,415,316,472,398,114,290,307,162,500,0,,
2,1791323645904,-2292,-12577,33218,-6952868,1908343,1788613,0,0,0,175,97,118,167,88,224,209,124,177,95,57,182,0,,
1,1791323645920,-445,-2301,9916,922406,-91629,234572,0,0,0,476,353,200,425,339,481,378,109,281,311,162,516,0,,
2,1791323645920,-311,-21263,30825,-6385985,961501,1898569,0,0,0,175,96,117,172,94,228,219,129,184,104,69,186,0,,
1,1791323645936,-445,-2392,10222,979827,-96516,213802,0,0,0,479,353,210,443,326,496,329,94,254,318,156,521,0,,
2,1791323645936,3527,-32816,23498,-5342627,482583,1685988,0,0,0,175,100,120,176,92,235,224,125,188,103,67,188,0,,
1,1791323645952,-593,-2464,11241,1131322,-70860,197920,0,0,0,475,368,217,440,322,506,325,98,257,313,169,512,0,,
2,1791323645952,-1009,-47346,15123,-3839898,1595580,802676,0,0,0,173,95,117,175,89,231,226,137,176,118,82,194,0,,
1,1791323645968,-488,-2546,12060,1374446,-50090,185703,0,0,0,477,371,217,433,339,508,329,108,261,308,182,509,0,,
2,1791323645968,-16429,-56989,14065,-1651779,2409252,166155,0,0,0,172,91,94,184,95,226,300,214,173,203,179,195,0,,
1,1791323645984,-301,-2632,12825,1783726,-91629,141720,0,0,0,484,364,215,434,350,502,307,106,246,315,178,514,0,,
2,1791323645984,-24158,-50811,18726,2213775,458148,422718,0,0,0,174,101,95,192,91,241,339,266,187,263,258,228,0,,
1,1791323646000,-703,-2656,13945,2268753,-180816,119729,0,0,0,479,381,220,426,366,495,291,110,244,320,181,505,0,,
2,1791323646000,-8614,-15482,14888,6218608,-3026226,139277,0,0,0,199,106,108,209,93,257,369,320,196,281,311,253,0,,
1,1791323646016,-1641,-2589,15960,3061656,-255341,215024,0,0,0,468,395,218,425,382,475,244,112,214,316,179,495,0,,
2,1791323646016,4163,8250,15754,7396356,-5423261,-588874,0,0,0,201,102,105,203,81,263,425,381,212,318,333,270,0,,
1,1791323646032,-2569,-2550,18353,4079358,-263893,434936,0,0,0,457,393,193,430,399,486,197,67,160,299,169,482,0,,
2,1791323646032,1584,890,22531,5696929,-4669453,-372627,0,0,0,244,99,127,210,73,261,500,393,215,389,338,295,0,,
1,1791323646048,-2761,-2885,21679,5244888,-282219,700051,0,0,0,411,396,162,424,403,466,191,67,157,283,164,471,0,,
2,1791323646048,-3680,-5364,25364,3251024,-2272418,139277,0,0,0,279,113,202,216,84,280,516,380,230,394,333,368,0,,
1,1791323646064,-2263,-4312,26422,6526484,-257785,778242,0,0,0,399,352,187,385,365,451,182,63,157,259,161,444,0,,
2,1791323646064,-3316,-3058,17185,764803,-25656,135612,0,0,0,312,139,237,217,101,289,530,371,234,413,323,432,0,,
1,1791323646080,-770,-5345,30878,7629706,-34208,667064,0,0,0,369,347,178,343,344,391,186,66,138,230,144,421,0,,
2,1791323646080,-191,95,10442,197920,162490,-30543,0,0,0,329,147,263,229,125,303,538,368,246,392,310,469,0,,
1,1791323646096,-1962,-4603,32079,8497135,302989,459370,0,0,0,317,325,170,312,300,344,273,108,170,210,125,399,0,,
2,1791323646096,1134,1005,8490,298102,-25656,-42760,0,0,0,359,155,268,244,133,307,549,338,244,398,306,501,0,,
1,1791323646112,-4771,-2656,30657,8980940,621860,554665,0,0,0,236,265,170,278,232,299,315,120,177,201,118,290,0,,
2,1791323646112,488,201,10279,503352,-114842,34208,0,0,0,374,155,306,258,147,320,549,309,251,405,303,526,0,,
1,1791323646128,-7207,3297,26408,8660847,1293812,985936,0,0,0,209,244,167,270,213,292,317,126,175,198,118,249,0,,
2,1791323646128,143,138,10591,411723,59864,29321,0,0,0,383,159,311,274,156,328,548,285,258,412,288,547,0,,
1,1791323646144,-8700,10131,17674,7186218,1655444,1422094,0,0,0,215,242,164,282,219,298,246,93,135,200,120,253,0,,
2,1791323646144,330,315,10169,355523,194255,8552,0,0,0,394,166,279,273,155,324,544,267,254,400,261,559,0,,
1,1791323646160,-7193,12079,9002,4515515,1194852,1627344,0,0,0,220,244,161,291,221,295,185,61,98,202,122,252,0,,
2,1791323646160,583,335,9973,356745,256563,8552,0,0,0,399,171,275,261,158,327,530,269,251,351,236,565,0,,
1,1791323646176,-4053,10973,7284,1131322,717155,1166752,0,0,0,221,244,159,292,219,291,128,41,64,204,122,250,0,,
2,1791323646176,746,205,10050,345749,252898,14660,0,0,0,408,182,269,276,164,335,521,268,255,321,221,579,0,,
1,1791323646192,-2273,8523,7700,-2119702,623082,388510,0,0,0,221,235,159,294,215,290,48,13,20,210,124,252,0,,
2,1791323646192,871,110,10040,302989,185703,1221,0,0,0,413,180,263,295,164,335,519,245,265,310,194,586,0,,
1,1791323646208,-2881,6307,6786,-3084869,791681,-45204,0,0,0,219,232,159,292,215,293,171,57,86,204,123,249,0,,
2,1791323646208,756,124,10045,267558,114842,-13439,0,0,0,407,168,238,276,155,335,521,229,263,294,174,585,0,,
1,1791323646224,-3287,5896,4359,-3219259,833220,21991,0,0,0,220,232,160,295,213,293,173,57,88,210,123,251,0,,
2,1791323646224,583,143,10122,274889,100181,-17104,0,0,0,407,166,223,289,163,346,494,204,263,279,164,596,0,,
1,1791323646240,-3120,6345,3374,-3754377,800233,217468,0,0,0,220,233,159,292,212,293,173,56,85,210,123,249,0,,
2,1791323646240,583,105,10189,333532,155159,-2443,0,0,0,408,159,221,300,155,352,489,183,258,267,133,593,0,,
1,1791323646256,-3201,6255,4268,-4609589,660956,417831,0,0,0,220,232,158,296,214,293,10,3,5,210,123,249,0,,
2,1791323646256,760,9,10169,392175,218689,7330,0,0,0,413,159,204,332,169,360,507,171,260,274,130,593,0,,
1,1791323646272,-3441,5431,5465,-5266880,334754,632856,0,0,0,223,232,157,299,214,292,303,118,159,200,123,245,0,,
2,1791323646272,947,-67,10040,409279,234572,6108,0,0,0,415,164,201,298,176,365,469,169,261,232,122,601,0,,
1,1791323646288,-3105,4493,6666,-5606521,-169820,823446,0,0,0,213,232,157,281,210,290,293,114,155,199,127,247,0,,
2,1791323646288,1086,-157,9892,382401,184481,-15882,0,0,0,425,165,197,303,172,356,465,166,263,237,128,610,0,,
1,1791323646304,-2110,4058,8092,-5843536,-535117,833220,0,0,0,218,232,158,291,212,296,322,125,173,201,123,248,0,,
2,1791323646304,1115,-210,9853,345749,100181,-51312,0,0,0,428,160,185,319,179,360,455,173,263,223,111,614,0,,
1,1791323646320,-1617,3718,9729,-6150191,-718377,703716,0,0,0,222,235,162,297,212,300,294,110,157,202,122,250,0,,
2,1791323646320,1052,-229,9920,318871,19547,-86742,0,0,0,443,169,180,327,191,365,447,147,257,227,90,613,0,,
1,1791323646336,-2148,3153,11366,-6440963,-905302,535117,0,0,0,218,235,161,288,209,298,307,115,165,203,121,252,0,,
2,1791323646336,952,-248,10002,320093,-6108,-108734,0,0,0,460,169,175,311,207,369,448,165,271,203,96,614,0,,
1,1791323646352,-2766,2392,13117,-6615670,-1274264,452040,0,0,0,219,235,162,288,210,300,328,124,178,201,120,251,0,,
2,1791323646352,827,-296,10074,353080,29321,-113620,0,0,0,464,182,165,310,207,373,442,155,269,197,86,621,0,,
1,1791323646368,-3005,1593,15391,-6653544,-1838704,526565,0,0,0,224,237,168,297,213,305,320,121,177,200,119,251,0,,
2,1791323646368,837,-363,10088,388510,94073,-103847,0,0,0,458,177,157,323,209,380,439,137,264,206,65,630,0,,
1,1791323646384,-2670,1038,17985,-6648657,-2282192,675616,0,0,0,224,237,172,299,214,308,329,126,184,201,119,253,0,,
2,1791323646384,976,-440,10083,417831,150272,-95294,0,0,0,454,161,151,329,211,389,438,132,259,211,61,645,0,,
1,1791323646400,-2105,626,21794,-6642548,-2553416,851546,0,0,0,223,239,174,298,215,308,310,127,186,201,123,254,0,,
2,1791323646400,1129,-521,10083,437379,175929,-102625,0,0,0,461,161,144,329,211,392,423,123,252,208,69,658,0,,
1,1791323646416,-1593,-440,26896,-6707300,-2718350,939510,0,0,0,219,240,175,292,214,309,222,101,170,199,122,256,0,,
2,1791323646416,1153,-593,10150,466701,189368,-122173,0,0,0,474,168,139,333,217,396,409,118,259,204,72,666,0,,
1,1791323646432,-335,-3488,31409,-6857573,-3106860,797790,0,0,0,208,241,169,277,213,305,333,132,193,197,122,255,0,,
2,1791323646432,1162,-660,10256,520457,218689,-138055,0,0,0,487,181,141,331,231,403,408,129,273,206,89,682,0,,
1,1791323646448,3522,-10193,34845,-7068932,-3933972,383623,0,0,0,205,242,170,279,213,313,348,139,209,200,121,258,0,,
2,1791323646448,1263,-751,10337,605978,255341,-151494,0,0,0,502,200,140,341,257,398,395,130,268,215,91,698,0,,
1,1791323646464,9834,-17822,36118,-7116580,-4167322,-105068,0,0,0,205,243,171,287,213,313,353,134,208,201,118,255,0,,
2,1791323646464,1210,-827,10457,708603,261450,-162490,0,0,0,512,195,140,332,248,405,392,128,269,200,93,704,0,,
1,1791323646480,12079,-26336,32586,-6572909,-2707354,-686612,0,0,0,204,249,169,282,217,317,335,128,199,197,122,262,0,,
2,1791323646480,1210,-894,10825,845437,280998,-158824,0,0,0,512,202,136,338,251,404,370,140,271,201,81,715,0,,
1,1791323646496,2249,-39186,22005,-5210680,-1198517,-386066,0,0,0,215,262,176,301,224,325,346,136,206,198,126,270,0,,
2,1791323646496,1756,-995,11586,1082453,381179,-178372,0,0,0,516,206,136,356,260,399,359,130,271,223,81,725,0,,
1,1791323646512,799,-50102,12711,-3494149,-1912008,1073901,0,0,0,209,260,172,303,232,328,256,95,142,251,165,273,0,,
2,1791323646512,1593,-966,12825,1389107,475253,-230907,0,0,0,516,211,144,369,249,403,351,124,266,220,73,728,0,,
1,1791323646528,19650,-49896,12562,-1196074,-2476447,1980425,0,0,0,192,255,123,300,240,299,286,167,136,289,251,245,0,,
2,1791323646528,258,-827,14280,1737300,395840,-196698,0,0,0,523,207,157,349,246,409,343,131,272,224,102,744,0,,
1,1791323646544,25785,-31595,15587,1998751,280998,1227839,0,0,0,192,248,101,301,233,299,328,230,152,310,303,248,0,,
2,1791323646544,492,-985,14792,2130697,254119,-64751,0,0,0,514,202,156,328,221,396,335,130,277,181,64,717,0,,
1,1791323646560,6542,2493,12902,5270545,5034751,207694,0,0,0,212,253,104,312,225,317,352,267,167,326,333,267,0,,
2,1791323646560,2144,-1234,15281,2682920,200363,-46425,0,0,0,498,200,159,324,206,388,304,124,274,192,56,709,0,,
1,1791323646576,-4197,6073,11744,5491678,6185621,185703,0,0,0,228,260,112,311,223,334,354,276,166,346,363,284,0,,
2,1791323646576,3431,-1306,15630,3334102,114842,-216246,0,0,0,506,219,156,310,198,377,271,116,264,195,63,679,0,,
1,1791323646592,-3086,-2890,14089,4743979,4194200,-420275,0,0,0,230,259,126,304,221,344,365,299,175,366,386,298,0,,
2,1791323646592,3809,-1225,16032,4020715,-1221,-471587,0,0,0,466,239,151,288,207,363,232,110,250,172,74,622,0,,
1,1791323646608,2483,-4608,18961,4427551,1561371,-1474628,0,0,0,230,256,140,311,218,346,412,366,209,385,396,303,0,,
2,1791323646608,4469,-1234,16515,4758640,-189368,-752585,0,0,0,409,252,145,272,214,354,207,118,242,154,84,555,0,,
1,1791323646624,5092,-981,20291,4107457,1563815,-1017701,0,0,0,230,252,133,314,223,338,444,400,221,406,394,299,0,,
2,1791323646624,5943,-1775,18171,5536882,-392175,-1103222,0,0,0,373,226,139,262,208,340,191,114,229,133,78,490,0,,
1,1791323646640,3785,-593,17367,2245540,1298699,133168,0,0,0,246,254,136,320,230,331,440,387,214,410,393,301,0,,
2,1791323646640,6838,-3096,22732,6342002,-507018,-1507615,0,0,0,344,176,128,241,180,306,183,100,205,122,74,430,0,,
1,1791323646656,660,-1100,12175,298102,254119,262672,0,0,0,280,271,194,322,243,332,452,410,239,414,399,311,0,,
2,1791323646656,4958,-3570,28595,6910107,-542448,-1753183,0,0,0,307,135,122,210,139,266,190,99,185,121,70,361,0,,
1,1791323646672,-516,-473,9308,-240680,-155159,0,0,0,0,280,255,276,322,226,345,456,392,268,446,386,323,0,,
2,1791323646672,3531,-1560,31873,7505090,-1139874,-1865582,0,0,0,252,104,116,182,106,230,202,114,176,110,62,260,0,,
1,1791323646688,43,-71,9605,59864,86742,-80634,0,0,0,303,265,276,331,229,342,472,399,274,442,373,336,0,,
2,1791323646688,6810,3756,29595,7979121,-2213775,-1825265,0,0,0,194,90,100,164,91,201,209,129,168,96,62,162,0,,
1,1791323646704,564,-162,10404,206472,227241,1221,0,0,0,301,269,332,334,237,361,465,394,294,443,366,371,0,,
2,1791323646704,12103,11021,21119,8085412,-2190562,-1915673,0,0,0,181,89,103,163,83,198,209,124,166,87,49,142,0,,
1,1791323646720,550,-229,10466,146607,100181,48869,0,0,0,323,283,339,342,238,357,477,364,282,466,349,383,0,,
2,1791323646720,13280,15812,9112,6759834,-971275,-2036624,0,0,0,184,81,105,165,80,201,210,119,167,98,47,156,0,,
1,1791323646736,392,-43,10184,152716,-36651,15882,0,0,0,344,301,362,347,253,367,481,376,312,440,338,400,0,,
2,1791323646736,8490,16338,4613,2904053,359188,-1602910,0,0,0,187,83,103,162,81,197,208,121,163,90,52,153,0,,
1,1791323646752,363,38,10155,207694,-109955,0,0,0,0,363,312,334,353,264,357,488,376,308,431,318,410,0,,
2,1791323646752,3311,13457,9231,-1119105,-185703,-461814,0,0,0,180,75,94,162,87,198,244,145,187,107,68,155,0,,
1,1791323646768,373,-19,10265,260228,-167377,1221,0,0,0,373,317,365,355,269,371,490,361,315,424,295,425,0,,
2,1791323646768,2842,8978,10107,-3061656,-1650557,353080,0,0,0,180,85,99,157,84,191,221,133,177,109,75,160,0,,
1,1791323646784,335,-114,10260,291993,-249233,0,0,0,0,386,325,385,356,274,380,490,331,311,404,267,440,0,,
2,1791323646784,5618,6805,5790,-2885727,-2164906,229685,0,0,0,178,79,91,156,76,189,221,130,172,91,59,152,0,,
1,1791323646800,282,-153,10203,315206,-316428,-8552,0,0,0,400,334,378,360,280,385,484,297,304,386,244,450,0,,
2,1791323646800,6647,6767,3445,-3169168,-1814269,-14660,0,0,0,178,87,96,157,76,192,214,136,170,77,45,139,0,,
1,1791323646816,143,-157,10179,335975,-364075,-4886,0,0,0,401,336,390,365,284,391,477,271,318,372,225,457,0,,
2,1791323646816,6020,7298,4312,-4258952,-1132544,-120951,0,0,0,177,83,97,158,86,193,216,130,168,86,60,144,0,,
1,1791323646832,-4,-220,10145,342084,-399505,15882,0,0,0,400,336,380,369,283,386,478,250,333,353,202,454,0,,
2,1791323646832,5374,6523,6360,-5286427,-792903,-74525,0,0,0,174,79,96,152,86,193,214,126,171,85,51,147,0,,
1,1791323646848,-71,-330,10083,335975,-428827,48869,0,0,0,411,336,332,370,285,390,476,231,342,341,180,451,0,,
2,1791323646848,5250,4661,7820,-5800776,-646295,-23212,0,0,0,177,82,103,153,78,192,218,125,176,91,57,150,0,,
1,1791323646864,-52,-425,10083,339641,-453262,67195,0,0,0,420,335,339,375,287,392,472,201,326,331,162,453,0,,
2,1791323646864,5436,3541,8619,-5925392,-445931,68416,0,0,0,180,83,105,155,81,197,219,128,177,90,62,152,0,,
1,1791323646880,-67,-459,10232,388510,-474031,70860,0,0,0,429,334,364,374,286,406,449,183,304,335,156,444,0,,
2,1791323646880,5867,3321,9830,-6119647,-31764,332310,0,0,0,178,84,104,158,86,202,218,130,178,92,57,158,0,,
1,1791323646896,-119,-488,10413,494800,-476474,68416,0,0,0,444,348,301,394,294,406,422,166,281,342,157,437,0,,
2,1791323646896,6441,2732,11825,-6407976,520457,728151,0,0,0,177,85,103,165,84,200,222,133,178,95,55,159,0,,
1,1791323646912,-138,-564,10399,604756,-383623,57421,0,0,0,437,348,276,378,311,412,438,177,302,332,154,442,0,,
2,1791323646912,6925,1608,13998,-6466619,1069014,1094670,0,0,0,179,83,102,171,81,199,226,130,177,92,56,154,0,,
1,1791323646928,-129,-698,10260,648738,-294437,42760,0,0,0,439,343,270,422,320,413,408,132,238,336,140,439,0,,
2,1791323646928,7063,708,16195,-6422637,1563815,1391551,0,0,0,173,80,99,166,81,204,218,119,176,80,49,152,0,,
1,1791323646944,-186,-813,10198,660956,-291993,28099,0,0,0,435,344,263,419,317,421,400,118,233,333,142,439,0,,
2,1791323646944,7016,-71,18980,-6403089,1952325,1644449,0,0,0,167,80,97,159,81,207,210,119,175,75,45,152,0,,
1,1791323646960,-315,-899,10212,691499,-316428,28099,0,0,0,433,336,232,406,316,434,414,138,279,326,141,446,0,,
2,1791323646960,7566,-1373,22440,-6376211,2186897,1778839,0,0,0,180,92,103,166,90,210,217,121,177,87,50,160,0,,
1,1791323646976,-416,-985,10193,730594,-331088,47647,0,0,0,431,333,214,411,308,424,439,161,304,317,136,455,0,,
2,1791323646976,8068,-3608,26097,-6338337,2483778,1821600,0,0,0,177,88,102,165,86,213,216,119,174,94,62,169,0,,
1,1791323646992,-469,-1091,10193,764803,-334754,74525,0,0,0,435,337,208,419,314,430,437,149,298,320,139,462,0,,
2,1791323646992,6709,-7207,28791,-6508158,2778215,1937664,0,0,0,178,85,107,166,82,214,223,124,180,102,66,174,0,,
1,1791323647008,-435,-1215,10179,799011,-322536,95294,0,0,0,445,337,204,423,312,452,434,133,300,320,136,472,0,,
2,1791323647008,3905,-12390,30437,-6641326,2948035,2171015,0,0,0,184,83,102,168,87,215,225,123,188,88,48,160,0,,
1,1791323647024,-358,-1368,10016,828333,-293215,92851,0,0,0,449,339,219,430,309,468,435,130,308,317,134,483,0,,
2,1791323647024,33,-18707,30983,-6309016,2814867,2367713,0,0,0,183,91,113,171,87,220,223,116,181,98,55,174,0,,
1,1791323647040,-358,-1502,9892,824668,-261450,74525,0,0,0,445,357,243,438,332,472,400,138,292,326,148,486,0,,
2,1791323647040,-2775,-24795,28638,-5360953,2167349,2471560,0,0,0,179,91,112,175,87,227,232,114,187,106,62,186,0,,
1,1791323647056,-579,-1584,10500,855211,-212581,59864,0,0,0,449,376,236,438,365,483,357,143,267,340,163,485,0,,
2,1791323647056,-1234,-36391,21067,-4232074,1265712,2161241,0,0,0,176,91,110,176,87,227,223,114,182,106,64,185,0,,
1,1791323647072,-660,-1641,11428,1014036,-150272,64751,0,0,0,454,368,225,438,368,486,405,117,287,335,165,493,0,,
2,1791323647072,-751,-50691,12974,-2945592,1519832,300545,0,0,0,174,85,108,176,84,225,229,120,181,96,47,182,0,,
1,1791323647088,-478,-1694,12409,1324355,-127059,65973,0,0,0,455,373,218,426,373,499,415,118,317,323,170,504,0,,
2,1791323647088,-10021,-54534,11131,-1120326,2035402,-1654223,0,0,0,147,90,92,184,98,216,273,173,177,136,118,157,0,,
1,1791323647104,-411,-1765,13467,1809382,-219911,48869,0,0,0,462,382,217,422,385,491,403,114,306,321,182,512,0,,
2,1791323647104,-20052,-39683,16927,1404990,630412,-2213775,0,0,0,146,89,88,185,99,220,324,230,179,194,186,166,0,,
1,1791323647120,-775,-1818,14505,2411695,-394618,73303,0,0,0,464,383,205,428,413,480,361,113,279,320,182,506,0,,
2,1791323647120,-6882,-6905,17061,3919311,-2900388,-1053131,0,0,0,166,92,97,202,93,237,383,278,192,241,243,197,0,,
1,1791323647136,-890,-1713,15640,3109304,-634078,177150,0,0,0,466,384,193,434,441,470,320,112,252,320,182,501,0,,
2,1791323647136,5843,11471,11610,5966931,-5742133,-135612,0,0,0,182,99,104,213,87,253,427,330,203,278,290,227,0,,
1,1791323647152,-1378,-1689,17228,3932750,-890641,283441,0,0,0,455,373,177,460,386,492,309,107,277,298,148,531,0,,
2,1791323647152,3981,971,14582,6546031,-5682268,608421,0,0,0,193,101,108,218,86,264,426,338,234,314,314,263,0,,
1,1791323647168,-3637,-2364,19870,5012760,-1153313,472809,0,0,0,448,378,168,453,393,479,298,108,265,294,147,495,0,,
2,1791323647168,-4565,-6762,24149,5982814,-3643200,1130100,0,0,0,219,98,106,236,92,275,443,327,244,333,317,310,0,,
1,1791323647184,-3560,-3144,25269,6252816,-949284,818559,0,0,0,427,365,175,429,395,452,280,111,244,281,142,462,0,,
2,1791323647184,-5924,-3244,21617,4186870,-1918116,482583,0,0,0,252,106,107,259,107,287,486,334,226,337,312,360,0,,
1,1791323647200,-2948,-4053,30509,7241196,106290,952949,0,0,0,397,334,174,374,345,407,253,101,197,244,137,431,0,,
2,1791323647200,-1732,-1349,13701,2069611,-965167,-102625,0,0,0,278,125,125,278,134,299,497,327,233,345,317,405,0,,
1,1791323647216,-4297,-2828,32304,8010886,668286,1026253,0,0,0,356,303,174,336,301,364,283,114,183,213,132,406,0,,
2,1791323647216,469,-885,9351,504574,-306654,-200363,0,0,0,300,150,148,292,163,311,510,334,248,355,332,437,0,,
1,1791323647232,-5192,-205,32974,8908858,1128878,1215621,0,0,0,282,266,179,310,265,332,328,141,190,200,130,339,0,,
2,1791323647232,-52,-722,9614,74525,-30543,24434,0,0,0,320,164,173,297,172,317,532,326,261,370,324,446,0,,
1,1791323647248,-7298,2756,31600,9638231,1843591,1437976,0,0,0,222,237,178,292,235,311,339,149,187,203,136,270,0,,
2,1791323647248,-358,-421,10433,313984,-74525,32986,0,0,0,333,174,176,311,177,341,536,318,259,373,316,466,0,,
1,1791323647264,-11031,8547,25163,9275377,1657888,1649336,0,0,0,213,229,167,283,221,295,330,142,175,207,142,258,0,,
2,1791323647264,-162,-311,10380,356745,-80634,-10995,0,0,0,343,182,174,312,193,319,535,326,275,359,297,464,0,,
1,1791323647280,-10437,15912,12433,6960198,535117,2040289,0,0,0,208,220,157,271,215,285,324,140,169,199,134,249,0,,
2,1791323647280,38,-397,10045,244346,-48869,-25656,0,0,0,354,205,221,316,215,334,540,308,287,371,295,478,0,,
1,1791323647296,-5900,17712,6704,1819156,-46425,2246762,0,0,0,223,214,160,283,207,281,330,128,166,202,124,245,0,,
2,1791323647296,-9,-425,10107,191811,-45204,-10995,0,0,0,348,207,181,317,217,326,550,287,270,363,266,482,0,,
1,1791323647312,-2938,13558,8049,-2576629,134390,1977981,0,0,0,229,210,159,294,205,280,339,126,166,209,125,245,0,,
2,1791323647312,-90,-402,10222,190589,-45204,-12217,0,0,0,357,191,183,325,201,331,542,301,264,348,249,498,0,,
1,1791323647328,-2766,7504,8518,-3876550,540004,1442863,0,0,0,225,212,167,286,205,284,332,129,166,205,124,245,0,,
2,1791323647328,-134,-411,10189,179594,-25656,-18325,0,0,0,367,184,198,325,193,335,533,262,255,326,212,498,0,,
1,1791323647344,-2866,6269,5116,-3324328,546113,1082453,0,0,0,213,212,164,275,204,283,309,120,154,207,126,247,0,,
2,1791323647344,-157,-445,10122,160046,1221,-18325,0,0,0,371,202,207,323,196,336,530,239,277,315,194,506,0,,
1,1791323647360,-2196,6958,3575,-3435506,420275,750142,0,0,0,220,216,169,285,208,288,338,137,173,205,128,249,0,,
2,1791323647360,-157,-469,10098,151494,30543,-13439,0,0,0,377,210,198,340,205,345,508,209,255,388,174,480,0,,
1,1791323647376,-1517,7303,4623,-4331034,205250,306654,0,0,0,220,218,169,288,210,289,328,139,176,259,127,240,0,,
2,1791323647376,-105,-459,10112,158824,72082,-9773,0,0,0,376,200,184,345,207,348,494,199,240,341,153,493,0,,
1,1791323647392,-1660,6192,6322,-5105611,-157603,-149051,0,0,0,218,222,171,290,215,290,322,133,170,232,130,248,0,,
2,1791323647392,-38,-478,10141,167377,135612,-10995,0,0,0,379,192,178,338,209,350,493,190,260,270,135,517,0,,
1,1791323647408,-1698,5202,7518,-5505117,-612086,-518013,0,0,0,218,227,172,294,218,294,319,130,166,206,133,255,0,,
2,1791323647408,-14,-516,10189,183259,234572,-13439,0,0,0,386,222,173,331,221,350,481,181,272,260,138,524,0,,
1,1791323647424,-1258,4819,8743,-5788559,-944397,-720820,0,0,0,217,231,172,296,220,296,310,129,162,204,133,256,0,,
2,1791323647424,100,-531,10150,206472,344527,-10995,0,0,0,392,249,174,326,234,347,465,184,272,249,144,527,0,,
1,1791323647440,-947,4307,10567,-6200282,-1110553,-747699,0,0,0,214,233,171,292,221,298,305,130,161,202,136,259,0,,
2,1791323647440,306,-559,10054,199142,392175,-23212,0,0,0,395,229,177,329,238,353,461,184,280,231,128,530,0,,
1,1791323647456,-1253,3498,12653,-6549697,-1260825,-438601,0,0,0,213,235,171,287,222,300,304,131,164,204,140,263,0,,
2,1791323647456,469,-603,10098,172263,381179,-56199,0,0,0,396,230,158,340,244,364,450,165,284,220,116,541,0,,
1,1791323647472,-1220,2756,14831,-6809925,-1505171,53756,0,0,0,216,236,176,295,227,305,291,128,158,204,141,264,0,,
2,1791323647472,569,-641,10260,180816,364075,-101403,0,0,0,404,233,156,334,250,384,416,150,297,199,99,549,0,,
1,1791323647488,-607,2077,17329,-7007846,-1707979,638965,0,0,0,217,239,176,295,226,304,314,137,172,202,140,263,0,,
2,1791323647488,799,-665,10332,234572,354301,-152716,0,0,0,403,263,159,329,274,368,408,154,314,202,110,560,0,,
1,1791323647504,-258,1454,19995,-7109249,-1874134,1033583,0,0,0,218,240,178,294,225,307,311,131,172,204,140,268,0,,
2,1791323647504,1220,-713,10251,295658,367740,-261450,0,0,0,407,286,152,331,267,378,415,138,314,208,103,580,0,,
1,1791323647520,234,746,23976,-7154453,-2114815,1209513,0,0,0,227,244,184,293,225,303,313,128,171,203,135,264,0,,
2,1791323647520,947,-722,10533,371406,311541,-397062,0,0,0,421,244,140,339,275,367,400,135,296,214,89,571,0,,
1,1791323647536,1560,-1177,28595,-7345043,-2394591,930958,0,0,0,212,239,175,278,218,304,323,129,184,204,130,267,0,,
2,1791323647536,363,-732,10701,498466,89186,-392175,0,0,0,428,243,149,344,276,384,412,138,289,201,87,587,0,,
1,1791323647552,3359,-5489,32567,-7638258,-2883283,331088,0,0,0,206,236,173,278,218,304,326,128,182,203,128,266,0,,
2,1791323647552,277,-813,10543,638965,-90408,-344527,0,0,0,443,244,147,340,277,375,422,151,302,214,96,621,0,,
1,1791323647568,7130,-13515,35467,-7788531,-3249803,-499687,0,0,0,203,239,173,278,221,311,349,137,198,202,128,269,0,,
2,1791323647568,435,-923,10318,735481,-84299,-321315,0,0,0,455,252,132,374,292,363,412,142,288,236,99,643,0,,
1,1791323647584,7690,-22421,35453,-7463551,-2456899,-1191187,0,0,0,210,245,177,295,229,317,341,131,191,203,128,269,0,,
2,1791323647584,358,-971,10610,810007,-12217,-311541,0,0,0,456,239,126,345,277,383,404,139,301,203,86,652,0,,
1,1791323647600,-1526,-33945,29140,-6267477,-1070235,-1263269,0,0,0,212,248,180,300,232,324,298,112,167,208,132,277,0,,
2,1791323647600,435,-995,11514,954171,9773,-291993,0,0,0,464,244,127,352,277,385,395,141,308,204,82,653,0,,
1,1791323647616,-3350,-46259,18602,-4273613,-2294409,342084,0,0,0,205,249,180,292,231,326,308,119,173,211,135,283,0,,
2,1791323647616,268,-1052,12366,1235169,28099,-270002,0,0,0,461,259,127,344,290,391,373,131,275,228,77,668,0,,
1,1791323647632,16587,-51370,12892,-2311514,-3446501,1524719,0,0,0,191,243,146,289,234,314,349,178,178,251,202,262,0,,
2,1791323647632,-119,-1048,13093,1571145,100181,-208915,0,0,0,475,257,127,335,298,390,362,140,270,216,108,687,0,,
1,1791323647648,26915,-45336,13749,53756,-979827,392175,0,0,0,185,238,104,293,234,306,356,250,164,319,310,249,0,,
2,1791323647648,181,-1100,13969,2013411,211359,-116064,0,0,0,492,262,132,326,263,394,350,138,271,194,104,707,0,,
1,1791323647664,10303,-18942,13357,3715282,2722015,-624304,0,0,0,203,247,109,299,228,320,357,281,171,342,349,275,0,,
2,1791323647664,1139,-1210,15070,2583959,238237,-134390,0,0,0,498,249,138,316,228,395,326,133,261,182,80,712,0,,
1,1791323647680,-6298,8413,12065,6469062,5138598,206472,0,0,0,226,258,116,309,231,338,369,298,181,348,367,295,0,,
2,1791323647680,1933,-1253,16113,3298672,129503,-244346,0,0,0,490,210,142,308,222,391,298,131,254,173,72,689,0,,
1,1791323647696,-4288,2167,14649,6129421,4368908,289550,0,0,0,243,258,124,320,233,349,389,328,182,354,381,308,0,,
2,1791323647696,2282,-1148,16635,4018271,-57421,-412944,0,0,0,474,190,148,294,210,379,269,123,250,161,66,643,0,,
1,1791323647712,880,-5742,18545,5241223,1910786,-878424,0,0,0,232,252,133,311,220,355,397,320,190,378,401,313,0,,
2,1791323647712,2488,-741,17707,4907691,-270002,-605978,0,0,0,454,192,154,272,188,344,233,117,235,148,55,585,0,,
1,1791323647728,4733,-3713,19904,4618141,-125838,-1546710,0,0,0,221,215,125,295,185,350,423,331,190,417,397,313,0,,
2,1791323647728,3120,-105,19669,5858197,-560774,-788016,0,0,0,422,201,146,269,192,313,195,116,211,139,53,524,0,,
1,1791323647744,4522,-287,17626,3814242,-970053,-526565,0,0,0,239,253,151,308,200,358,451,395,253,455,409,338,0,,
2,1791323647744,4168,-210,21942,7027393,-1047023,-987158,0,0,0,393,227,130,311,206,276,188,119,195,137,64,454,0,,
1,1791323647760,-1229,-713,15506,2179567,-43982,515570,0,0,0,276,292,168,320,215,363,450,393,247,466,406,370,0,,
2,1791323647760,6355,-4029,25340,8190481,-1062905,-1189965,0,0,0,339,160,130,197,144,257,184,106,172,123,65,381,0,,
1,1791323647776,-2139,-1919,12691,481361,879645,186924,0,0,0,311,322,194,329,283,378,446,379,248,469,402,387,0,,
2,1791323647776,7001,-7398,32667,8813563,70860,-1587027,0,0,0,271,108,119,169,102,217,204,117,157,106,61,259,0,,
1,1791323647792,-114,-1201,10437,-243124,739146,-156381,0,0,0,329,329,197,337,277,384,453,380,256,473,403,397,0,,
2,1791323647792,4551,938,33586,8477587,-741590,-2095267,0,0,0,179,84,100,155,74,181,204,109,138,86,38,122,0,,
1,1791323647808,827,-90,10102,-62308,183259,-118507,0,0,0,345,333,199,346,248,379,456,371,251,475,405,403,0,,
2,1791323647808,8217,10404,25623,7960795,-2959031,-2367713,0,0,0,194,109,108,191,103,198,204,123,160,94,58,137,0,,
1,1791323647824,81,9,10504,125838,-30543,8552,0,0,0,365,328,207,354,243,376,455,364,247,477,402,412,0,,
2,1791323647824,13687,11988,13783,7120245,-3459940,-2500882,0,0,0,185,98,105,166,82,205,201,119,158,100,61,154,0,,
1,1791323647840,-325,-134,10485,144164,-69638,21991,0,0,0,377,324,215,354,252,376,459,364,257,474,389,419,0,,
2,1791323647840,11576,11820,6623,3997502,-884532,-2246762,0,0,0,189,91,109,165,80,201,197,109,150,101,48,153,0,,
1,1791323647856,-167,-129,10251,163711,-105068,-7330,0,0,0,380,324,230,351,247,379,465,355,266,474,372,419,0,,
2,1791323647856,4637,12562,7709,-518013,897971,-1382998,0,0,0,191,92,108,158,78,197,207,118,158,99,48,153,0,,
1,1791323647872,-86,-76,10193,232128,-145385,-8552,0,0,0,386,317,251,352,237,385,465,329,264,476,362,419,0,,
2,1791323647872,885,10490,11107,-3616322,1221,-251676,0,0,0,188,91,105,158,84,201,209,118,163,85,50,153,0,,
1,1791323647888,-129,-95,10217,288328,-169820,4886,0,0,0,389,323,247,354,247,380,453,306,250,467,352,427,0,,
2,1791323647888,4230,6891,8212,-4075692,-1523497,456927,0,0,0,187,95,108,162,84,204,206,119,162,89,55,156,0,,
1,1791323647904,-138,-153,10189,310319,-193033,10995,0,0,0,396,327,231,365,249,376,437,287,240,461,330,434,0,,
2,1791323647904,7331,5685,4158,-3904650,-1337794,645073,0,0,0,190,100,110,160,81,202,203,113,155,93,56,158,0,,
1,1791323647920,-138,-186,10145,326202,-222354,10995,0,0,0,400,324,227,371,257,381,416,245,222,430,305,440,0,,
2,1791323647920,6092,6307,3929,-4375016,113620,675616,0,0,0,189,97,109,159,81,200,205,112,159,93,54,158,0,,
1,1791323647936,-153,-234,10098,342084,-249233,8552,0,0,0,401,329,219,364,265,388,444,295,267,412,297,442,0,,
2,1791323647936,3455,6345,5881,-5078733,989601,845437,0,0,0,186,93,110,163,81,202,208,122,166,99,56,160,0,,
1,1791323647952,-215,-301,10031,338419,-255341,7330,0,0,0,405,337,222,369,267,383,437,261,254,419,286,458,0,,
2,1791323647952,1641,5446,7834,-5560095,1105666,1163087,0,0,0,187,93,110,166,82,206,205,119,162,98,52,161,0,,
1,1791323647968,-277,-363,9968,306654,-226020,9773,0,0,0,414,327,230,370,262,385,429,253,251,404,280,455,0,,
2,1791323647968,947,4560,9136,-5806884,1026253,1496619,0,0,0,188,95,106,164,84,206,210,121,168,89,44,163,0,,
1,1791323647984,-301,-421,9944,263893,-173485,15882,0,0,0,416,331,226,377,271,393,431,247,258,401,261,452,0,,
2,1791323647984,1024,4158,10251,-5992587,1009149,1749518,0,0,0,186,92,108,162,84,204,213,121,171,97,59,162,0,,
1,1791323648000,-277,-459,9954,227241,-130725,20769,0,0,0,419,345,239,375,275,398,444,257,277,395,251,456,0,,
2,1791323648000,1344,3876,12117,-6379876,1130100,1866804,0,0,0,186,93,108,167,87,212,208,118,164,104,52,161,0,,
1,1791323648016,-268,-478,10007,207694,-113620,24434,0,0,0,432,346,242,380,276,402,429,232,262,392,245,454,0,,
2,1791323648016,1698,3211,14285,-6791599,1290147,1808161,0,0,0,186,92,109,163,83,210,176,88,141,97,51,159,0,,
1,1791323648032,-296,-507,10078,197920,-113620,31764,0,0,0,439,352,248,387,282,412,423,216,253,381,241,454,0,,
2,1791323648032,1876,2211,16400,-7020063,1436755,1574810,0,0,0,183,93,110,164,84,211,217,126,172,105,60,166,0,,
1,1791323648048,-354,-531,10141,211359,-116064,47647,0,0,0,442,369,250,382,309,412,435,226,278,401,235,450,0,,
2,1791323648048,1828,1330,19191,-7090923,1567480,1203404,0,0,0,185,93,111,168,92,217,227,133,182,137,76,161,0,,
1,1791323648064,-392,-540,10222,266337,-90408,73303,0,0,0,444,374,247,375,325,415,446,230,304,398,225,452,0,,
2,1791323648064,1789,469,22679,-7243640,1704314,901637,0,0,0,185,92,111,168,88,216,219,119,171,101,54,166,0,,
1,1791323648080,-421,-569,10265,346971,-59864,107512,0,0,0,447,380,246,380,339,421,446,217,299,361,217,463,0,,
2,1791323648080,1454,-2005,26843,-7516085,1958433,780685,0,0,0,188,97,114,170,89,218,218,118,172,96,56,167,0,,
1,1791323648096,-387,-636,10251,399505,-59864,139277,0,0,0,448,394,244,391,357,425,439,194,285,358,205,463,0,,
2,1791323648096,62,-6006,30988,-7692015,2214997,746477,0,0,0,176,90,108,171,91,222,214,121,175,94,58,169,0,,
1,1791323648112,-268,-741,10174,442266,-81855,162490,0,0,0,450,384,245,405,336,453,429,163,285,355,192,466,0,,
2,1791323648112,-2852,-12007,34424,-7621154,1915673,813672,0,0,0,169,96,110,168,84,223,217,123,176,96,58,174,0,,
1,1791323648128,-114,-851,10031,456927,-119729,153938,0,0,0,463,390,224,406,362,453,415,141,260,349,198,468,0,,
2,1791323648128,-2943,-19784,34821,-7275404,774577,982271,0,0,0,167,98,116,168,87,228,218,125,183,103,64,182,0,,
1,1791323648144,-315,-842,10203,439822,-141720,127059,0,0,0,465,429,210,414,416,453,396,125,235,346,190,465,0,,
2,1791323648144,4020,-33337,28499,-6425080,-814894,906524,0,0,0,170,95,122,168,87,233,218,120,187,105,68,189,0,,
1,1791323648160,-827,-804,10882,466701,-155159,164933,0,0,0,474,473,202,412,446,471,408,149,264,336,206,481,0,,
2,1791323648160,7566,-51323,16333,-4487416,-41538,-532674,0,0,0,172,102,113,185,101,222,248,137,185,120,86,185,0,,
1,1791323648176,-368,-804,12567,733038,-155159,217468,0,0,0,487,447,232,419,422,480,383,121,243,319,186,492,0,,
2,1791323648176,-7097,-59908,11457,-1979203,1839926,-2072054,0,0,0,163,106,92,200,114,212,297,193,180,175,151,174,0,,
1,1791323648192,234,-808,14209,1320690,-212581,172263,0,0,0,502,433,226,403,396,477,403,129,268,304,183,510,0,,
2,1791323648192,-26609,-54462,17051,1059240,1143539,-2069611,0,0,0,166,101,89,190,101,226,322,260,180,240,228,188,0,,
1,1791323648208,-9,-847,15305,1991420,-348193,86742,0,0,0,499,436,231,400,397,458,365,126,245,324,197,497,0,,
2,1791323648208,-14539,-24000,15946,4624249,-2167349,-957836,0,0,0,190,107,100,189,101,244,348,329,186,272,286,228,0,,
1,1791323648224,-976,-693,16917,2748893,-382401,97738,0,0,0,488,417,255,385,398,441,307,109,213,316,173,491,0,,
2,1791323648224,5714,9131,14170,7465994,-4050036,-50090,0,0,0,211,114,108,198,101,255,402,387,197,304,356,263,0,,
1,1791323648240,-2086,-612,18305,3562566,-318871,221133,0,0,0,473,403,246,377,376,425,290,108,209,302,165,481,0,,
2,1791323648240,7944,5733,21435,7021285,-2416582,861319,0,0,0,241,111,131,195,77,252,457,372,216,360,368,287,0,,
1,1791323648256,-3412,-655,20315,4625471,-309097,494800,0,0,0,454,398,226,380,359,415,292,117,221,289,163,467,0,,
2,1791323648256,-3302,-6235,28480,4133114,-1437976,1144761,0,0,0,256,123,169,184,67,238,469,340,209,350,360,294,0,,
1,1791323648272,-3967,-52,23785,5836206,-87964,816115,0,0,0,435,382,196,374,375,410,268,112,207,266,160,453,0,,
2,1791323648272,-5010,-4450,18506,1281595,-1115439,271224,0,0,0,268,113,224,185,67,232,495,318,215,358,346,298,0,,
1,1791323648288,-4924,689,27044,7114136,992045,1097113,0,0,0,418,352,173,353,366,389,254,112,196,245,152,437,0,,
2,1791323648288,306,942,8671,544891,-744033,-125838,0,0,0,313,133,255,207,69,240,511,318,214,374,351,318,0,,
1,1791323648304,-6609,-670,28963,8172155,2414139,1521054,0,0,0,381,309,173,328,311,359,278,123,199,226,133,415,0,,
2,1791323648304,1670,1167,7724,500909,-555887,-18325,0,0,0,322,128,275,215,90,258,515,322,225,397,356,348,0,,
1,1791323648320,-6513,-2665,32179,8714603,3777590,1920560,0,0,0,303,258,173,305,251,332,313,126,186,205,119,358,0,,
2,1791323648320,248,-583,10734,357967,-423940,118507,0,0,0,337,141,278,209,94,257,529,312,224,404,354,368,0,,
1,1791323648336,-8260,-469,33232,8776911,5323079,2019520,0,0,0,222,226,162,289,213,291,322,127,176,213,135,268,0,,
2,1791323648336,-191,-124,10849,136833,-206472,51312,0,0,0,352,139,298,220,95,265,541,308,231,421,340,369,0,,
1,1791323648352,-14065,8710,23560,8156272,5012760,1749518,0,0,0,232,242,172,289,214,305,275,116,182,216,135,282,0,,
2,1791323648352,220,550,10069,113620,-69638,2443,0,0,0,356,136,304,224,93,266,545,293,228,411,331,379,0,,
1,1791323648368,-14400,15582,9949,5970596,2605951,1703092,0,0,0,238,232,163,292,216,291,323,125,173,213,130,262,0,,
2,1791323648368,402,598,9983,188146,0,1221,0,0,0,353,138,298,219,113,266,546,285,230,391,307,386,0,,
1,1791323648384,-9274,14778,7930,2333505,400727,1699427,0,0,0,232,218,155,277,205,290,319,124,170,213,130,259,0,,
2,1791323648384,354,459,10189,257785,65973,2443,0,0,0,356,146,299,224,119,275,551,269,245,368,265,396,0,,
1,1791323648400,-4044,10390,8915,-1007927,-862541,1150870,0,0,0,240,220,168,286,207,290,261,95,138,217,134,260,0,,
2,1791323648400,315,382,10251,313984,117286,-8552,0,0,0,361,143,307,224,112,277,548,249,242,356,235,417,0,,
1,1791323648416,-2493,6771,7240,-1547932,-663399,124616,0,0,0,239,225,167,287,216,294,287,126,156,214,148,261,0,,
2,1791323648416,368,373,10150,362853,147829,-21991,0,0,0,373,141,305,255,115,284,536,233,244,337,213,431,0,,
1,1791323648432,-2574,6972,3752,-1285260,-344527,-875980,0,0,0,241,227,165,291,215,295,324,137,178,216,141,264,0,,
2,1791323648432,435,272,9992,365297,166155,-25656,0,0,0,381,142,284,262,122,287,530,222,259,317,197,441,0,,
1,1791323648448,-2718,7863,3000,-1927890,-431270,-1492954,0,0,0,241,229,165,292,217,296,340,138,184,215,139,265,0,,
2,1791323648448,454,181,9944,329867,175929,-32986,0,0,0,382,140,266,246,127,292,521,211,259,303,183,454,0,,
1,1791323648464,-2584,7403,4465,-3055547,-808785,-1710422,0,0,0,241,230,166,292,217,297,318,125,169,216,138,265,0,,
2,1791323648464,459,124,10021,350636,147829,-40317,0,0,0,393,144,255,263,131,304,502,207,249,291,168,464,0,,
1,1791323648480,-2096,6484,5896,-3953519,-1139874,-1743409,0,0,0,238,232,170,293,218,299,302,117,163,218,137,267,0,,
2,1791323648480,483,81,10064,414166,116064,-42760,0,0,0,411,155,244,275,137,303,498,206,253,297,160,475,0,,
1,1791323648496,-1464,5699,6910,-4467868,-1243721,-1529606,0,0,0,236,234,173,292,219,300,311,122,170,217,138,269,0,,
2,1791323648496,516,4,9987,420275,95294,-37873,0,0,0,418,151,259,287,141,312,495,179,244,305,150,484,0,,
1,1791323648512,-1009,5087,7968,-4900360,-1270599,-1186300,0,0,0,234,236,173,290,219,301,322,130,178,216,140,272,0,,
2,1791323648512,550,-57,9944,384845,56199,-30543,0,0,0,421,179,256,275,160,314,497,168,253,280,140,491,0,,
1,1791323648528,-569,4522,9437,-5362175,-1328021,-736703,0,0,0,228,236,171,283,219,303,326,132,183,217,140,275,0,,
2,1791323648528,588,-100,9992,345749,15882,-28099,0,0,0,415,266,279,278,196,332,503,170,269,268,133,506,0,,
1,1791323648544,47,3967,11060,-5788559,-1381777,-353080,0,0,0,218,233,170,273,217,303,325,130,184,217,138,275,0,,
2,1791323648544,612,-138,10050,357967,14660,-32986,0,0,0,433,183,236,287,177,321,487,163,263,261,131,514,0,,
1,1791323648560,-95,3455,12797,-6194173,-1474628,2443,0,0,0,215,231,172,280,217,305,318,126,181,221,138,277,0,,
2,1791323648560,617,-191,10093,378736,31764,-43982,0,0,0,446,198,246,285,179,331,482,156,272,242,118,526,0,,
1,1791323648576,-516,2857,14649,-6476393,-1676214,309097,0,0,0,215,234,177,282,220,311,292,110,164,218,139,280,0,,
2,1791323648576,617,-248,10117,399505,53756,-51312,0,0,0,439,198,239,302,211,341,467,153,273,222,99,533,0,,
1,1791323648592,-622,2144,16592,-6625444,-1863138,527787,0,0,0,216,234,175,282,220,311,261,93,144,216,138,280,0,,
2,1791323648592,607,-311,10136,422718,74525,-53756,0,0,0,441,191,274,299,205,351,458,139,284,202,100,548,0,,
1,1791323648608,-808,1450,19195,-6660874,-2043955,657290,0,0,0,220,236,181,290,221,313,306,118,175,212,134,280,0,,
2,1791323648608,617,-368,10169,449596,100181,-52534,0,0,0,456,198,266,297,191,356,463,123,286,199,72,564,0,,
1,1791323648624,-1206,741,23579,-6688974,-2283414,697608,0,0,0,221,240,183,293,225,317,322,127,188,208,132,278,0,,
2,1791323648624,689,-430,10232,491135,130725,-53756,0,0,0,471,203,233,305,204,364,453,119,294,199,66,588,0,,
1,1791323648640,-952,-1206,28533,-6818477,-2570520,533896,0,0,0,209,237,181,280,222,318,324,126,191,207,131,278,0,,
2,1791323648640,746,-502,10370,558330,160046,-62308,0,0,0,469,199,184,324,216,363,458,124,305,206,81,600,0,,
1,1791323648656,411,-6695,32462,-7128797,-3075095,-36651,0,0,0,206,237,179,275,221,311,315,123,184,206,132,276,0,,
2,1791323648656,751,-579,10524,658512,189368,-76969,0,0,0,466,206,152,325,237,370,454,132,311,199,81,610,0,,
1,1791323648672,3072,-14836,35127,-7422012,-3595552,-707381,0,0,0,206,243,176,278,224,309,298,115,170,206,135,275,0,,
2,1791323648672,737,-674,10619,778242,216246,-84299,0,0,0,475,206,146,325,244,377,425,133,306,191,74,626,0,,
1,1791323648688,5082,-25015,34534,-7153231,-3244916,-1308473,0,0,0,210,248,175,289,227,313,300,117,170,207,136,281,0,,
2,1791323648688,770,-756,10978,929736,271224,-85521,0,0,0,489,197,146,347,237,385,409,130,295,208,75,641,0,,
1,1791323648704,1474,-36424,26341,-5568647,-2395813,-1376890,0,0,0,217,252,178,299,228,319,316,126,182,209,137,291,0,,
2,1791323648704,1000,-851,11500,1145983,383623,-100181,0,0,0,498,197,143,372,238,394,405,133,288,218,77,657,0,,
1,1791323648720,3402,-46910,16491,-3540574,-2756223,-596204,0,0,0,206,250,163,292,226,314,334,152,181,238,173,285,0,,
2,1791323648720,1186,-990,12007,1442863,555887,-141720,0,0,0,503,200,144,368,235,392,377,132,280,202,75,675,0,,
1,1791323648736,17094,-52701,12926,-1769065,-2970026,271224,0,0,0,181,238,115,281,225,297,364,225,168,300,267,260,0,,
2,1791323648736,1383,-1119,12629,1772730,797790,-197920,0,0,0,502,203,151,333,223,393,352,128,279,214,77,687,0,,
1,1791323648752,24302,-45934,14950,1748296,529009,86742,0,0,0,192,244,101,294,231,307,367,278,168,324,321,265,0,,
2,1791323648752,1938,-1206,13969,2156354,1044579,-278554,0,0,0,505,220,152,328,234,399,329,131,275,206,82,692,0,,
1,1791323648768,11127,-13811,14228,5657833,5033529,-70860,0,0,0,209,264,107,312,247,336,340,273,162,351,360,297,0,,
2,1791323648768,2397,-1081,16396,2651155,871093,-378736,0,0,0,513,209,158,322,228,380,301,129,273,208,64,669,0,,
1,1791323648784,-2306,6513,15439,6597344,5758015,-102625,0,0,0,231,264,117,323,250,343,380,322,189,357,380,306,0,,
2,1791323648784,3306,-1048,17051,3258355,112399,-480140,0,0,0,507,209,155,299,208,372,284,128,267,169,63,637,0,,
1,1791323648800,-2177,1971,17769,5690820,3313333,-697608,0,0,0,235,260,117,319,245,351,372,311,172,377,402,305,0,,
2,1791323648800,3972,-1057,17023,4021936,-525344,-690277,0,0,0,475,234,156,289,199,380,251,125,281,159,60,589,0,,
1,1791323648816,4355,-4058,18492,4785518,955393,-1067792,0,0,0,236,276,130,323,243,361,361,306,170,380,405,318,0,,
2,1791323648816,4288,-1009,17985,4851491,-729373,-943175,0,0,0,426,251,143,273,208,372,204,122,270,145,76,537,0,,
1,1791323648832,5034,-2244,16472,4312708,356745,-406836,0,0,0,301,288,126,344,253,363,372,302,174,407,399,408,0,,
2,1791323648832,5513,-1043,20378,5827654,-817337,-1226617,0,0,0,380,235,147,254,197,342,196,114,242,137,70,487,0,,
1,1791323648848,646,-411,14371,3543018,574213,598647,0,0,0,351,307,125,336,264,357,426,368,209,425,397,461,0,,
2,1791323648848,5996,-1454,24139,6813590,-916297,-1543045,0,0,0,350,197,137,231,175,297,191,112,219,133,70,428,0,,
1,1791323648864,-1229,-2220,13826,1566258,583987,487470,0,0,0,394,306,134,346,245,370,452,398,229,427,388,483,0,,
2,1791323648864,5077,-2220,29030,7608937,-896750,-1781283,0,0,0,298,143,127,198,137,254,187,107,187,122,64,342,0,,
1,1791323648880,-229,-2043,11476,70860,287106,32986,0,0,0,414,309,138,365,245,375,455,390,232,445,383,492,0,,
2,1791323648880,4819,-794,31615,8162381,-904080,-1883908,0,0,0,221,108,110,173,103,214,195,108,163,104,58,204,0,,
1,1791323648896,469,-765,9964,18325,98960,-70860,0,0,0,421,321,141,363,260,371,453,383,233,449,385,494,0,,
2,1791323648896,8068,4876,29131,8428718,-1089783,-2014633,0,0,0,189,102,110,170,100,211,195,114,161,89,50,159,0,,
1,1791323648912,296,-392,10002,235793,56199,4886,0,0,0,424,328,149,371,263,376,464,397,245,446,383,499,0,,
2,1791323648912,10212,10677,21397,8101294,-1279151,-2448347,0,0,0,182,98,110,167,97,215,196,120,165,90,47,162,0,,
1,1791323648928,38,-670,10418,256563,39095,48869,0,0,0,428,331,152,388,260,383,478,408,264,451,381,510,0,,
2,1791323648928,9581,13926,10801,6476393,-1492954,-2926044,0,0,0,182,95,108,165,91,208,199,123,161,95,54,161,0,,
1,1791323648944,114,-784,10337,156381,-23212,19547,0,0,0,430,335,150,386,264,378,475,391,271,456,381,515,0,,
2,1791323648944,7231,14333,5465,2454456,-1281595,-2862514,0,0,0,181,95,104,167,88,198,200,124,151,96,62,155,0,,
1,1791323648960,191,-689,10141,133168,-85521,3665,0,0,0,430,327,156,394,262,379,473,371,263,467,358,515,0,,
2,1791323648960,5307,11667,8504,-1817934,-580321,-2171015,0,0,0,181,94,99,167,85,194,207,128,146,95,59,151,0,,
1,1791323648976,191,-660,10145,151494,-127059,13439,0,0,0,436,329,160,403,268,387,470,346,258,458,342,516,0,,
2,1791323648976,3737,8035,9461,-3495370,-169820,-1486845,0,0,0,185,96,105,166,82,195,211,126,147,92,51,149,0,,
1,1791323648992,153,-689,10193,161268,-171042,18325,0,0,0,434,342,164,393,296,390,454,339,258,434,339,504,0,,
2,1791323648992,2670,6585,6972,-3224146,-204028,-937067,0,0,0,189,100,115,164,79,201,200,117,149,89,53,153,0,,
1,1791323649008,119,-708,10165,168598,-216246,15882,0,0,0,443,356,161,394,328,390,458,331,283,418,321,505,0,,
2,1791323649008,2091,7212,4972,-3288898,-340862,-175929,0,0,0,192,105,116,159,86,205,192,116,156,92,56,160,0,,
1,1791323649024,62,-698,10145,179594,-248011,15882,0,0,0,436,330,169,395,273,396,448,307,266,424,291,499,0,,
2,1791323649024,2483,7709,5005,-4227187,-237015,745255,0,0,0,188,98,115,168,89,210,204,122,163,99,54,161,0,,
1,1791323649040,-19,-703,10169,185703,-276111,25656,0,0,0,445,334,165,401,268,388,453,283,266,416,274,499,0,,
2,1791323649040,3455,6590,6302,-5149593,211359,1353677,0,0,0,192,99,115,165,84,208,199,111,160,101,64,167,0,,
1,1791323649056,-76,-760,10126,174707,-289550,37873,0,0,0,447,332,158,394,280,390,456,266,266,405,265,502,0,,
2,1791323649056,3957,4790,7729,-5718920,814894,1799608,0,0,0,189,98,114,169,84,214,170,89,151,86,46,160,0,,
1,1791323649072,-47,-808,10016,151494,-279776,37873,0,0,0,447,334,171,398,274,399,450,250,270,398,246,499,0,,
2,1791323649072,3579,3943,8954,-5798332,1109331,1866804,0,0,0,187,93,112,169,82,214,204,116,167,102,57,160,0,,
1,1791323649088,-33,-818,10031,133168,-272445,31764,0,0,0,455,342,177,412,290,408,443,229,272,391,232,498,0,,
2,1791323649088,3608,3570,10442,-6007248,1200961,1782504,0,0,0,187,97,115,172,85,216,209,123,168,96,58,168,0,,
1,1791323649104,-62,-837,10107,123394,-291993,23212,0,0,0,449,350,193,431,297,419,419,194,256,392,223,495,0,,
2,1791323649104,4230,3005,12141,-6324898,1299921,1533271,0,0,0,188,99,116,173,89,221,205,122,163,97,63,169,0,,
1,1791323649120,-138,-890,10174,117286,-337197,18325,0,0,0,447,351,207,437,285,422,407,175,251,397,213,486,0,,
2,1791323649120,4580,2144,14032,-6542366,1566258,1153313,0,0,0,187,100,118,171,87,221,210,127,172,97,61,172,0,,
1,1791323649136,-291,-909,10236,120951,-397062,23212,0,0,0,449,352,212,432,283,426,404,165,255,397,202,481,0,,
2,1791323649136,3929,1497,16664,-6646213,1861917,756251,0,0,0,184,100,118,168,86,219,204,121,169,93,63,172,0,,
1,1791323649152,-569,-933,10332,124616,-485026,53756,0,0,0,445,355,218,435,292,442,390,142,244,390,194,486,0,,
2,1791323649152,3220,861,19717,-6763499,1991420,603534,0,0,0,187,102,119,169,82,222,205,121,171,99,65,177,0,,
1,1791323649168,-1052,-985,10437,138055,-604756,125838,0,0,0,455,350,213,439,301,445,393,133,245,376,186,490,0,,
2,1791323649168,2861,-976,23034,-6759834,2072054,852767,0,0,0,187,100,118,173,84,225,208,122,175,96,57,176,0,,
1,1791323649184,-1512,-1038,10552,179594,-740368,282219,0,0,0,454,358,227,435,317,436,391,132,243,361,186,498,0,,
2,1791323649184,2359,-3996,26522,-6548475,2265088,1408655,0,0,0,188,105,122,174,91,226,207,131,173,92,67,176,0,,
1,1791323649200,-923,-995,11083,304210,-722042,426383,0,0,0,464,358,220,429,311,450,383,120,239,364,186,505,0,,
2,1791323649200,981,-7465,29356,-6509379,2542421,2023185,0,0,0,189,113,125,174,95,228,208,140,170,101,85,182,0,,
1,1791323649216,-157,-995,11127,615752,-376292,403171,0,0,0,464,358,232,443,297,466,388,120,254,370,175,500,0,,
2,1791323649216,-1426,-12347,31792,-6690196,2469117,2539977,0,0,0,183,108,121,172,92,228,212,131,169,108,74,183,0,,
1,1791323649232,28,-1105,10490,827111,-160046,324980,0,0,0,500,362,228,416,304,466,388,121,252,367,176,514,0,,
2,1791323649232,-2268,-19372,32203,-6598566,1403768,2819753,0,0,0,180,107,120,170,86,226,209,120,173,102,57,178,0,,
1,1791323649248,-9,-1201,10299,884532,-144164,232128,0,0,0,495,378,223,438,311,471,371,122,252,370,186,515,0,,
2,1791323649248,4350,-30040,26116,-5742133,-118507,2513099,0,0,0,187,112,120,173,84,229,211,115,179,91,59,180,0,,
1,1791323649264,-473,-1277,10993,923628,-139277,174707,0,0,0,484,373,217,442,318,465,345,112,224,371,192,523,0,,
2,1791323649264,11916,-44412,15300,-4461759,21991,1126435,0,0,0,192,111,121,182,97,234,225,121,184,99,58,193,0,,
1,1791323649280,-708,-1392,11940,1102000,-21991,166155,0,0,0,489,365,232,452,304,461,343,111,227,371,184,525,0,,
2,1791323649280,717,-51816,11950,-2634050,2357939,-740368,0,0,0,192,98,109,177,87,220,238,142,175,131,90,193,0,,
1,1791323649296,-559,-1493,12864,1381777,102625,155159,0,0,0,496,369,237,427,316,483,350,120,241,352,186,532,0,,
2,1791323649296,-18023,-49724,16214,-293215,2718350,-1478293,0,0,0,161,91,88,193,104,229,312,214,184,203,186,187,0,,
1,1791323649312,-1038,-1588,14099,1782504,178372,150272,0,0,0,490,370,242,412,326,474,353,124,247,344,188,522,0,,
2,1791323649312,-18329,-29054,19353,2807536,-1111774,-734260,0,0,0,197,104,97,190,98,234,351,273,189,234,226,206,0,,
1,1791323649328,-1885,-1660,15482,2365270,256563,234572,0,0,0,486,379,236,413,328,462,347,126,243,339,185,514,0,,
2,1791323649328,-880,-531,13539,5148372,-5307197,-471587,0,0,0,204,118,104,207,108,247,368,338,199,277,288,241,0,,
1,1791323649344,-2345,-1655,16578,3087312,348193,414166,0,0,0,480,385,219,419,338,450,330,124,232,331,176,506,0,,
2,1791323649344,6489,6695,12601,5646838,-6396980,-174707,0,0,0,202,101,103,207,99,253,372,354,200,289,318,254,0,,
1,1791323649360,-2871,-1541,17803,3969402,384845,665843,0,0,0,462,382,202,425,358,426,307,120,225,314,165,484,0,,
2,1791323649360,1775,-1837,16573,5026199,-3262020,1058018,0,0,0,228,107,106,215,88,256,411,345,207,325,325,270,0,,
1,1791323649376,-3177,-1349,19784,4918686,381179,960280,0,0,0,440,388,180,409,373,416,288,121,220,278,160,459,0,,
2,1791323649376,-5269,-2890,19961,4654793,-263893,1833817,0,0,0,262,112,116,234,86,260,472,348,211,358,336,298,0,,
1,1791323649392,-3201,-1718,22813,6136752,640186,1226617,0,0,0,415,373,165,370,364,392,262,117,195,253,152,432,0,,
2,1791323649392,-6101,-1574,19454,3683517,471587,999375,0,0,0,288,125,146,232,84,270,502,340,223,381,332,320,0,,
1,1791323649408,-4412,-3531,25541,7479433,735481,1357342,0,0,0,397,342,162,343,328,363,235,103,163,231,139,418,0,,
2,1791323649408,-760,-765,13950,1650557,-87964,-151494,0,0,0,300,134,171,234,97,283,500,333,226,371,327,335,0,,
1,1791323649424,-4862,-3933,29466,8509352,-350636,1496619,0,0,0,329,302,158,317,292,333,285,119,177,211,128,399,0,,
2,1791323649424,1660,-397,9614,200363,-276111,-261450,0,0,0,315,152,200,236,107,289,504,335,235,362,321,348,0,,
1,1791323649440,-789,-1670,32452,8668177,249233,1853365,0,0,0,263,244,164,297,236,305,284,110,161,196,114,339,0,,
2,1791323649440,411,-157,9423,117286,-85521,74525,0,0,0,328,167,223,235,114,292,516,339,245,370,316,361,0,,
1,1791323649456,-2526,3665,30399,8038986,3918089,2023185,0,0,0,235,238,169,289,220,297,302,118,163,212,132,269,0,,
2,1791323649456,-162,-19,10289,299323,-29321,74525,0,0,0,334,164,247,243,126,303,519,340,249,382,323,381,0,,
1,1791323649472,-11926,9734,21651,7287622,5208237,1663996,0,0,0,222,238,163,276,216,289,326,132,176,217,138,263,0,,
2,1791323649472,95,76,10385,288328,-52534,-8552,0,0,0,343,167,283,255,127,320,521,333,263,387,322,402,0,,
1,1791323649488,-14524,12840,12347,5632177,3400075,1180191,0,0,0,223,235,157,272,213,285,326,131,175,213,134,261,0,,
2,1791323649488,301,86,10107,205250,-62308,-19547,0,0,0,352,171,279,263,130,328,527,319,270,376,296,415,0,,
1,1791323649504,-9231,13227,9341,1877799,726929,544891,0,0,0,227,233,156,273,213,283,326,134,173,211,134,256,0,,
2,1791323649504,220,105,10102,189368,-35430,-2443,0,0,0,352,169,267,271,135,331,528,305,260,361,266,429,0,,
1,1791323649520,-4919,11165,9274,-1431868,-445931,-149051,0,0,0,231,234,158,282,215,286,299,123,157,211,138,254,0,,
2,1791323649520,124,124,10217,212581,8552,0,0,0,0,356,176,270,272,145,333,519,278,265,348,244,441,0,,
1,1791323649536,-3814,7351,8054,-2801427,-276111,-783129,0,0,0,228,234,159,278,215,286,308,126,162,211,139,255,0,,
2,1791323649536,157,105,10198,229685,39095,-12217,0,0,0,359,176,269,275,152,333,502,243,261,313,203,457,0,,
1,1791323649552,-3819,6389,5206,-2497217,-123394,-945619,0,0,0,223,232,158,272,213,286,323,132,170,213,138,256,0,,
2,1791323649552,229,71,10145,239459,46425,-21991,0,0,0,379,182,285,312,169,339,494,218,263,289,172,457,0,,
1,1791323649568,-2837,7097,4374,-2996904,-265115,-917519,0,0,0,224,233,161,278,215,290,288,115,150,214,140,257,0,,
2,1791323649568,325,23,10122,239459,42760,-32986,0,0,0,385,179,349,304,187,353,483,186,281,264,158,483,0,,
1,1791323649584,-2201,7331,5226,-4059810,-432492,-808785,0,0,0,225,236,160,280,215,290,262,101,134,213,140,257,0,,
2,1791323649584,425,-52,10102,222354,56199,-53756,0,0,0,394,182,302,307,210,358,476,175,285,249,130,494,0,,
1,1791323649600,-2254,6317,6604,-5145928,-599869,-612086,0,0,0,222,235,160,274,215,291,219,84,113,213,141,262,0,,
2,1791323649600,425,-129,10126,201585,103847,-86742,0,0,0,410,194,241,308,197,348,468,164,276,252,118,505,0,,
1,1791323649616,-2057,4948,7729,-5701816,-811229,-343306,0,0,0,228,233,164,286,217,297,52,15,19,211,138,261,0,,
2,1791323649616,215,-153,10308,222354,210137,-101403,0,0,0,401,182,240,314,201,367,459,164,317,226,107,510,0,,
1,1791323649632,-1555,4015,8858,-5992587,-954171,-112399,0,0,0,219,232,163,273,215,295,323,139,179,211,140,261,0,,
2,1791323649632,196,-134,10351,331088,379958,-65973,0,0,0,409,175,240,321,202,375,452,149,300,213,92,527,0,,
1,1791323649648,-1124,3402,10189,-6172182,-992045,39095,0,0,0,218,231,162,274,217,297,326,139,180,212,142,263,0,,
2,1791323649648,478,-191,10203,401949,476474,-50090,0,0,0,424,175,193,323,205,371,449,132,294,207,86,538,0,,
1,1791323649664,-1545,2876,12194,-6409198,-1076344,162490,0,0,0,228,235,169,285,217,299,307,137,184,208,139,261,0,,
2,1791323649664,684,-268,10102,422718,498466,-62308,0,0,0,433,198,171,324,237,376,441,130,295,197,84,549,0,,
1,1791323649680,-2440,2469,14300,-6671870,-1348790,289550,0,0,0,231,234,170,289,218,302,309,130,176,210,137,261,0,,
2,1791323649680,799,-349,10035,422718,476474,-90408,0,0,0,439,203,167,329,247,385,430,131,295,189,80,560,0,,
1,1791323649696,-2881,1780,16774,-6933320,-1780061,410501,0,0,0,230,235,169,290,216,303,291,118,159,220,140,264,0,,
2,1791323649696,871,-435,10002,417831,447153,-119729,0,0,0,447,188,147,331,236,385,420,124,301,235,81,561,0,,
1,1791323649712,-2699,660,19832,-7028615,-2131919,425162,0,0,0,232,236,175,292,216,304,302,121,164,217,138,263,0,,
2,1791323649712,1005,-512,10045,423940,417831,-149051,0,0,0,452,187,134,326,251,383,412,125,308,268,80,564,0,,
1,1791323649728,-2574,-526,23857,-7037167,-2333505,317649,0,0,0,228,237,176,291,218,305,328,135,182,209,134,261,0,,
2,1791323649728,1143,-559,10179,453262,384845,-189368,0,0,0,450,183,128,333,253,393,406,133,316,183,63,589,0,,
1,1791323649744,-2498,-2909,28824,-7092145,-2503325,-72082,0,0,0,223,237,174,292,218,307,275,108,153,211,132,262,0,,
2,1791323649744,856,-550,10428,507018,307876,-200363,0,0,0,452,181,131,342,252,407,402,133,328,194,74,603,0,,
1,1791323649760,-1804,-7599,32438,-7197214,-2935818,-734260,0,0,0,220,236,175,292,219,310,194,67,105,216,132,265,0,,
2,1791323649760,665,-583,10701,615752,190589,-161268,0,0,0,462,185,133,349,252,409,397,142,314,198,80,607,0,,
1,1791323649776,612,-15726,34084,-7233866,-3489262,-1569923,0,0,0,217,236,173,292,223,310,193,69,107,215,132,263,0,,
2,1791323649776,1009,-713,10643,747699,144164,-127059,0,0,0,473,192,136,337,249,395,402,177,329,206,87,626,0,,
1,1791323649792,3153,-25666,33203,-6941872,-3244916,-2252871,0,0,0,216,240,171,292,223,310,226,83,126,214,135,263,0,,
2,1791323649792,1239,-827,10605,855211,163711,-151494,0,0,0,485,188,134,347,245,397,424,142,316,208,67,635,0,,
1,1791323649808,157,-35572,26838,-5793445,-2028072,-2339613,0,0,0,214,247,169,284,221,311,313,120,181,210,134,269,0,,
2,1791323649808,1249,-847,11150,967610,177150,-185703,0,0,0,494,203,132,338,245,410,383,139,301,204,86,649,0,,
1,1791323649824,-2010,-44938,17496,-3903428,-2588846,-978606,0,0,0,205,247,169,280,221,312,346,135,202,211,133,274,0,,
2,1791323649824,851,-894,11820,1182635,188146,-193033,0,0,0,510,215,142,329,253,405,383,137,311,209,95,660,0,,
1,1791323649840,9356,-51102,12548,-2234545,-3690847,869872,0,0,0,205,247,169,277,221,310,366,151,217,211,135,277,0,,
2,1791323649840,330,-947,12419,1447750,240680,-133168,0,0,0,512,192,148,321,231,399,365,133,296,203,80,668,0,,
1,1791323649856,24776,-50638,12739,-686612,-2653598,1690874,0,0,0,183,226,131,290,222,284,374,244,175,291,279,224,0,,
2,1791323649856,603,-961,13543,1791056,354301,-34208,0,0,0,519,189,151,316,222,402,342,130,298,196,76,673,0,,
1,1791323649872,18200,-25517,17453,1970651,1861917,952949,0,0,0,198,228,107,313,218,298,374,273,172,324,319,247,0,,
2,1791323649872,1842,-1072,14697,2384817,465479,-54977,0,0,0,528,190,156,308,196,398,320,127,292,185,58,674,0,,
1,1791323649888,-2555,13012,15841,4758640,6316346,136833,0,0,0,201,230,104,305,218,310,389,312,178,348,359,264,0,,
2,1791323649888,2464,-1253,15132,3064100,546113,-189368,0,0,0,520,203,158,300,183,383,312,129,278,198,74,676,0,,
1,1791323649904,-5915,9006,13816,5534439,5406157,-682947,0,0,0,216,237,107,314,228,331,368,311,164,371,394,287,0,,
2,1791323649904,3254,-1512,14993,3731164,676838,-377514,0,0,0,482,210,152,292,197,368,290,130,269,193,78,650,0,,
1,1791323649920,2029,-3685,17224,5564982,2388483,-1666440,0,0,0,219,232,123,306,218,341,373,319,163,386,406,303,0,,
2,1791323649920,3685,-1411,15769,4514294,967610,-696386,0,0,0,435,209,150,281,206,365,248,125,267,167,69,589,0,,
1,1791323649936,9715,-4694,20306,4924795,471587,-1332907,0,0,0,223,217,129,300,200,335,421,387,197,416,404,309,0,,
2,1791323649936,3565,-1076,18449,5387831,932180,-979827,0,0,0,388,204,146,270,200,356,214,120,257,147,68,512,0,,
1,1791323649952,5302,-540,17946,3418401,-278554,397062,0,0,0,238,219,148,302,193,335,452,432,234,432,407,318,0,,
2,1791323649952,5063,-1722,22517,6378654,549778,-1159422,0,0,0,352,188,135,289,192,322,197,114,232,135,64,444,0,,
1,1791323649968,-2402,-301,14443,1340238,-686612,1049466,0,0,0,259,236,184,307,198,348,442,394,227,440,415,334,0,,
2,1791323649968,5920,-2780,27796,7347487,546113,-1308473,0,0,0,329,156,127,281,164,276,190,105,204,124,58,383,0,,
1,1791323649984,-3192,-933,11002,37873,-218689,180816,0,0,0,281,244,216,312,204,360,430,350,208,458,415,349,0,,
2,1791323649984,5192,-5230,32079,8008443,691499,-1422094,0,0,0,281,122,118,191,122,244,193,102,182,112,54,291,0,,
1,1791323650000,-650,-186,9600,-107512,218689,-287106,0,0,0,299,246,246,316,207,369,454,387,249,465,404,363,0,,
2,1791323650000,6628,-3670,31193,8173376,338419,-1780061,0,0,0,223,104,106,178,102,216,196,102,160,98,45,187,0,,
1,1791323650016,306,492,10016,179594,260228,-131946,0,0,0,304,243,265,321,209,377,465,385,260,467,395,382,0,,
2,1791323650016,9198,6130,25517,7988895,-298102,-2290744,0,0,0,183,93,103,170,86,211,200,112,157,86,45,147,0,,
1,1791323650032,-411,416,10356,248011,144164,24434,0,0,0,312,241,275,327,213,384,474,387,275,464,381,386,0,,
2,1791323650032,9992,13783,16573,7141014,-781907,-2785545,0,0,0,188,93,104,166,84,208,196,111,158,81,49,145,0,,
1,1791323650048,-588,248,10299,217468,103847,8552,0,0,0,318,242,311,323,210,391,486,367,288,452,358,401,0,,
2,1791323650048,8810,15936,7130,4839274,-930958,-2945592,0,0,0,186,109,111,161,81,203,205,125,171,99,62,156,0,,
1,1791323650064,-311,296,10294,237015,48869,-17104,0,0,0,333,248,352,325,220,413,480,354,301,428,319,412,0,,
2,1791323650064,6580,14807,4316,605978,-707381,-2408030,0,0,0,193,98,109,161,83,195,204,125,151,105,62,159,0,,
1,1791323650080,-224,335,10294,307876,-40317,-2443,0,0,0,334,247,316,333,221,397,488,326,321,413,296,418,0,,
2,1791323650080,4771,12060,7575,-2554638,-665843,-1734857,0,0,0,196,96,104,166,87,194,237,142,180,115,73,159,0,,
1,1791323650096,-320,296,10270,376292,-130725,10995,0,0,0,342,246,323,345,226,412,481,307,311,404,276,429,0,,
2,1791323650096,3694,8394,7753,-3599217,-1166752,-1470963,0,0,0,192,96,115,156,76,189,201,120,155,92,53,149,0,,
1,1791323650112,-488,291,10313,441044,-204028,7330,0,0,0,345,271,335,374,239,424,450,251,298,396,248,436,0,,
2,1791323650112,3996,6436,5005,-3610213,-1628566,-1538158,0,0,0,192,95,136,155,79,201,189,107,154,97,64,161,0,,
1,1791323650128,-765,258,10299,516791,-244346,29321,0,0,0,352,273,359,369,242,424,462,223,316,379,224,445,0,,
2,1791323650128,4733,6384,3493,-3966958,-1380555,-1511280,0,0,0,197,98,133,155,80,200,189,105,156,94,59,162,0,,
1,1791323650144,-1095,143,10275,596204,-184481,123394,0,0,0,360,288,358,392,254,434,480,212,342,363,214,463,0,,
2,1791323650144,4958,6451,4024,-4769635,-592539,-1247386,0,0,0,194,98,125,153,78,199,195,115,164,87,59,160,0,,
1,1791323650160,-1009,-14,10409,722042,23212,237015,0,0,0,369,319,345,407,303,445,469,205,343,360,209,466,0,,
2,1791323650160,4340,5766,5719,-5428148,206472,-808785,0,0,0,189,94,119,153,78,201,202,121,172,95,54,166,0,,
1,1791323650176,-459,-306,10342,868650,280998,267558,0,0,0,383,319,328,406,327,451,465,196,333,347,191,468,0,,
2,1791323650176,3531,4824,7307,-5771454,704938,-313984,0,0,0,187,92,116,155,80,204,204,120,174,97,49,166,0,,
1,1791323650192,-71,-488,10035,874759,288328,221133,0,0,0,398,307,309,422,301,458,477,185,334,330,166,474,0,,
2,1791323650192,3067,4082,8796,-5922949,937067,280998,0,0,0,188,93,119,176,89,203,207,123,175,92,52,164,0,,
1,1791323650208,-167,-526,10016,800233,160046,177150,0,0,0,406,311,293,442,282,472,481,176,351,328,152,475,0,,
2,1791323650208,3833,3536,10356,-6139195,1164309,851546,0,0,0,192,97,123,186,95,207,220,131,183,101,60,172,0,,
1,1791323650224,-449,-588,10241,773355,72082,182037,0,0,0,414,314,284,442,306,487,461,159,346,335,154,471,0,,
2,1791323650224,4876,2565,12313,-6298020,1602910,1202182,0,0,0,190,98,120,161,85,216,224,133,188,107,62,179,0,,
1,1791323650240,-464,-751,10294,806342,51312,200363,0,0,0,424,335,283,458,321,486,422,130,296,356,166,462,0,,
2,1791323650240,4915,1560,14635,-6244264,2130697,1251052,0,0,0,186,96,117,158,83,218,212,126,181,94,57,178,0,,
1,1791323650256,-368,-894,10126,823446,79412,204028,0,0,0,425,350,279,444,313,491,423,126,321,412,161,454,0,,
2,1791323650256,4297,737,17391,-6190508,2533869,1208291,0,0,0,189,100,123,171,90,222,209,124,183,96,58,179,0,,
1,1791323650272,-363,-1014,10011,795346,116064,210137,0,0,0,438,329,274,466,316,503,426,109,303,340,150,469,0,,
2,1791323650272,3890,-358,20636,-6195395,2755002,1127657,0,0,0,193,100,121,194,103,217,213,129,185,103,64,186,0,,
1,1791323650288,-306,-1119,10031,753807,127059,227241,0,0,0,431,320,237,478,331,499,395,88,251,343,151,474,0,,
2,1791323650288,3886,-2340,24058,-6056117,3048217,1036027,0,0,0,183,94,114,169,93,231,205,119,174,91,63,186,0,,
1,1791323650304,-105,-1220,10198,740368,96516,227241,0,0,0,437,323,221,486,337,500,357,72,215,356,151,475,0,,
2,1791323650304,2110,-4580,27772,-5936388,3448945,1009149,0,0,0,188,93,117,177,94,236,209,131,180,96,58,186,0,,
1,1791323650320,-76,-1296,10442,763581,62308,212581,0,0,0,430,349,191,497,365,496,385,103,237,346,151,476,0,,
2,1791323650320,-2096,-7504,30523,-6279694,3431840,1281595,0,0,0,183,93,114,174,91,233,212,121,182,93,54,174,0,,
1,1791323650336,-23,-1387,10480,822224,52534,200363,0,0,0,450,349,177,487,400,510,412,134,287,335,151,478,0,,
2,1791323650336,-5226,-12036,31854,-6550918,2846632,1670105,0,0,0,190,99,123,176,94,235,207,113,177,93,60,182,0,,
1,1791323650352,354,-1545,10112,861319,31764,158824,0,0,0,449,343,180,496,408,509,397,116,286,330,153,482,0,,
2,1791323650352,-4469,-18985,30404,-6238155,1527163,2002416,0,0,0,189,103,120,177,86,236,217,120,184,101,64,191,0,,
1,1791323650368,492,-1675,10045,860098,-12217,78190,0,0,0,439,350,190,515,413,507,406,122,289,337,160,492,0,,
2,1791323650368,2622,-28600,23254,-5451361,591317,1609019,0,0,0,179,100,120,178,84,239,224,121,191,109,68,201,0,,
1,1791323650384,19,-1732,10691,893084,-26878,12217,0,0,0,438,360,209,522,415,506,411,120,297,343,165,509,0,,
2,1791323650384,6700,-41866,14630,-4426329,1134987,179594,0,0,0,185,98,122,178,78,240,222,115,188,105,52,201,0,,
1,1791323650400,-402,-1785,11509,1028697,35430,3665,0,0,0,457,356,209,512,415,508,411,115,293,336,159,523,0,,
2,1791323650400,-5982,-51945,11883,-2676811,2955366,-1864360,0,0,0,173,96,108,183,84,231,241,129,172,116,77,173,0,,
1,1791323650416,-516,-1866,12328,1285260,151494,32986,0,0,0,474,347,193,494,393,519,382,107,266,345,159,525,0,,
2,1791323650416,-23938,-45977,18071,-219911,1579697,-1940107,0,0,0,160,94,95,189,87,227,316,205,172,195,179,169,0,,
1,1791323650432,-741,-1952,13352,1688431,250454,89186,0,0,0,464,348,193,478,364,522,334,91,249,368,171,520,0,,
2,1791323650432,-17956,-24776,23038,2630385,-2823419,-612086,0,0,0,177,93,96,200,90,243,368,279,188,278,271,213,0,,
1,1791323650448,-693,-1995,14271,2254092,320093,193033,0,0,0,464,340,198,458,365,494,350,108,274,345,162,511,0,,
2,1791323650448,4044,5733,16659,5082398,-6266255,344527,0,0,0,204,102,105,215,93,256,399,322,199,315,310,255,0,,
1,1791323650464,-220,-2019,15319,2904053,288328,263893,0,0,0,464,342,209,445,335,477,333,117,269,333,155,496,0,,
2,1791323650464,7891,8839,14352,6131865,-4461759,828333,0,0,0,213,108,114,211,83,255,433,340,204,323,325,272,0,,
1,1791323650480,-674,-2096,17004,3700621,146607,339641,0,0,0,449,355,201,434,362,442,313,144,261,304,141,463,0,,
2,1791323650480,-1737,-2976,21459,5563760,-1549154,1451415,0,0,0,216,103,126,198,69,254,466,341,211,330,325,280,0,,
1,1791323650496,-1301,-2282,19827,4736649,-129503,513126,0,0,0,419,352,165,415,362,429,276,107,212,272,140,455,0,,
2,1791323650496,-5154,-4584,20411,3165503,-1759291,543670,0,0,0,230,104,138,207,66,257,497,338,221,345,325,288,0,,
1,1791323650512,-1952,-3508,24087,5970596,-538783,619417,0,0,0,391,337,163,381,348,400,276,107,201,246,134,439,0,,
2,1791323650512,-76,-349,12691,1517389,-2031737,-295658,0,0,0,242,98,137,215,71,265,498,329,226,345,331,311,0,,
1,1791323650528,-1110,-4206,27925,7106806,-1092227,697608,0,0,0,362,319,157,329,333,354,244,98,161,225,136,413,0,,
2,1791323650528,2287,674,9361,1081231,-1375668,-31764,0,0,0,252,102,150,220,77,277,497,329,225,348,324,331,0,,
1,1791323650544,1095,-3594,31500,7861835,-554665,698829,0,0,0,307,280,155,289,271,317,282,121,165,204,122,395,0,,
2,1791323650544,1028,-167,9767,737925,-684169,241902,0,0,0,273,114,167,233,79,289,512,308,221,366,323,369,0,,
1,1791323650560,-4862,-942,30126,8014551,1326799,773355,0,0,0,238,244,152,266,224,285,325,135,173,197,118,303,0,,
2,1791323650560,-402,-445,10710,417831,-415388,164933,0,0,0,283,121,171,248,94,299,521,302,240,356,312,381,0,,
1,1791323650576,-9059,3287,24618,7962017,2800206,1166752,0,0,0,212,233,156,260,205,274,344,137,179,202,122,255,0,,
2,1791323650576,43,148,10332,310319,-345749,12217,0,0,0,305,118,171,261,95,303,507,294,243,349,287,396,0,,
1,1791323650592,-9059,7470,18401,7412238,3721391,1472185,0,0,0,216,238,159,269,212,278,339,135,177,205,127,254,0,,
2,1791323650592,526,397,10016,327423,-259006,-18325,0,0,0,314,124,213,277,97,323,552,280,255,359,270,420,0,,
1,1791323650608,-9906,9686,12026,5736024,3468492,1733635,0,0,0,219,239,157,276,223,276,321,130,166,203,129,252,0,,
2,1791323650608,464,263,10059,351858,-179594,7330,0,0,0,319,125,226,276,102,326,526,255,257,348,244,440,0,,
1,1791323650624,-8729,10246,8332,2426356,1585806,2021963,0,0,0,219,229,154,271,216,266,304,121,156,201,126,250,0,,
2,1791323650624,263,134,10150,323758,-118507,8552,0,0,0,322,189,210,283,139,333,508,247,254,335,214,456,0,,
1,1791323650640,-5776,9193,7508,-784350,83077,2108706,0,0,0,222,223,155,272,213,267,290,113,147,201,126,249,0,,
2,1791323650640,296,124,10179,311541,-80634,0,0,0,0,325,192,207,282,159,344,500,239,266,309,204,488,0,,
1,1791323650656,-2435,6154,7805,-2731789,-428827,1755626,0,0,0,230,220,152,277,206,269,321,128,162,206,126,249,0,,
2,1791323650656,550,129,10212,345749,-80634,-13439,0,0,0,341,178,210,294,162,353,497,215,267,302,186,515,0,,
1,1791323650672,-1363,4374,6322,-2737898,1221,1102000,0,0,0,226,222,153,276,203,269,330,128,167,205,125,250,0,,
2,1791323650672,598,4,10112,393397,-119729,-45204,0,0,0,356,169,215,305,173,362,492,191,266,283,155,527,0,,
1,1791323650688,-1206,4163,5044,-2770884,518013,475253,0,0,0,214,222,153,257,200,265,315,125,165,203,121,250,0,,
2,1791323650688,425,-110,10007,404392,-151494,-70860,0,0,0,361,163,213,308,181,368,489,176,269,254,124,531,0,,
1,1791323650704,-2048,4661,4900,-3276681,901637,-109955,0,0,0,223,222,157,273,204,270,330,129,171,206,123,252,0,,
2,1791323650704,287,-177,10064,400727,-133168,-79412,0,0,0,368,162,194,328,183,376,484,171,272,245,115,546,0,,
1,1791323650720,-3718,4623,5690,-4046371,697608,-527787,0,0,0,226,222,158,279,206,276,356,140,186,205,123,251,0,,
2,1791323650720,248,-224,10165,439822,-75747,-81855,0,0,0,374,163,170,346,189,387,481,167,277,233,110,561,0,,
1,1791323650736,-4900,4259,6484,-4745201,51312,-842994,0,0,0,217,223,156,264,201,273,366,151,193,268,124,239,0,,
2,1791323650736,263,-282,10117,492357,-21991,-78190,0,0,0,374,163,154,341,197,389,476,151,281,209,89,565,0,,
1,1791323650752,-4599,3919,7370,-5242445,-540004,-1053131,0,0,0,222,225,158,272,204,275,304,121,158,240,128,248,0,,
2,1791323650752,301,-358,10040,483805,0,-70860,0,0,0,377,165,141,345,202,385,458,132,284,205,75,576,0,,
1,1791323650768,-4053,3450,8691,-5786115,-880867,-1288925,0,0,0,221,226,160,272,205,276,296,115,154,205,128,255,0,,
2,1791323650768,378,-425,10050,438601,15882,-68416,0,0,0,381,169,130,354,200,393,444,123,281,196,60,587,0,,
1,1791323650784,-3780,2421,10413,-6309016,-939510,-1485624,0,0,0,220,226,161,271,204,278,303,118,157,206,128,256,0,,
2,1791323650784,521,-478,10169,426383,59864,-81855,0,0,0,387,164,132,363,188,381,433,117,277,198,67,592,0,,
1,1791323650800,-4388,1402,12203,-6665761,-1065348,-1532050,0,0,0,221,226,161,274,204,280,294,114,153,207,128,257,0,,
2,1791323650800,507,-526,10289,422718,151494,-111177,0,0,0,392,180,135,341,192,386,428,116,291,202,81,614,0,,
1,1791323650816,-5183,670,14075,-6809925,-1395216,-1372003,0,0,0,216,225,159,266,203,278,314,124,165,206,128,256,0,,
2,1791323650816,382,-559,10327,404392,277332,-127059,0,0,0,394,194,124,348,208,389,417,117,284,195,69,604,0,,
1,1791323650832,-4800,4,16080,-6797708,-1696983,-1112996,0,0,0,218,229,162,271,204,280,295,115,155,205,127,255,0,,
2,1791323650832,693,-636,10256,399505,377514,-138055,0,0,0,411,171,136,351,205,393,384,88,258,185,32,600,0,,
1,1791323650848,-4326,-698,18588,-6765943,-1833817,-874759,0,0,0,214,231,162,272,208,282,279,108,146,204,125,254,0,,
2,1791323650848,942,-717,10284,417831,419053,-180816,0,0,0,398,219,134,359,222,399,402,123,274,192,61,611,0,,
1,1791323650864,-4369,-1718,22392,-6783047,-1880243,-739146,0,0,0,214,232,164,272,209,284,284,106,148,202,123,253,0,,
2,1791323650864,684,-732,10595,487470,332310,-216246,0,0,0,400,215,138,389,213,392,396,118,261,210,73,619,0,,
1,1791323650880,-4407,-3862,26872,-6860016,-1973094,-811229,0,0,0,221,233,168,286,209,289,350,138,190,202,123,253,0,,
2,1791323650880,411,-760,10662,587652,164933,-200363,0,0,0,419,251,143,382,247,409,402,129,283,213,70,635,0,,
1,1791323650896,-4106,-8193,30485,-6995628,-2191784,-1270599,0,0,0,209,235,166,270,207,285,367,148,199,200,122,252,0,,
2,1791323650896,478,-885,10332,680503,26878,-152716,0,0,0,432,197,140,373,227,408,396,123,276,210,49,635,0,,
1,1791323650912,-3330,-15630,31557,-7119023,-2726902,-2129476,0,0,0,208,240,166,266,205,284,366,145,200,199,121,251,0,,
2,1791323650912,780,-1043,10232,736703,35430,-145385,0,0,0,429,175,135,368,217,414,386,124,272,202,62,647,0,,
1,1791323650928,-2301,-24307,30380,-6879564,-2989574,-2917492,0,0,0,212,243,176,281,210,297,344,132,190,200,122,254,0,,
2,1791323650928,928,-1158,10533,813672,78190,-174707,0,0,0,432,191,135,384,230,416,389,128,274,205,69,658,0,,
1,1791323650944,-3670,-31562,24422,-5555208,-2713463,-3103195,0,0,0,212,248,176,285,212,306,301,108,170,199,121,263,0,,
2,1791323650944,1076,-1196,11265,961501,78190,-213802,0,0,0,436,183,141,385,222,410,386,122,276,207,69,668,0,,
1,1791323650960,-3374,-38257,17645,-3911980,-3334102,-2351831,0,0,0,206,257,170,277,215,306,318,117,182,199,122,273,0,,
2,1791323650960,1043,-1253,11739,1187522,59864,-260228,0,0,0,445,172,145,369,202,412,375,120,277,205,67,677,0,,
1,1791323650976,6063,-44192,13371,-2441017,-4172209,-812450,0,0,0,202,254,150,279,219,305,337,151,176,245,175,263,0,,
2,1791323650976,612,-1392,11868,1450194,59864,-276111,0,0,0,459,181,146,362,199,418,366,123,284,207,56,683,0,,
1,1791323650992,18836,-45915,14668,-467922,-2236988,153938,0,0,0,199,252,119,289,231,300,336,207,155,299,262,249,0,,
2,1791323650992,650,-1507,12490,1731192,101403,-235793,0,0,0,464,181,146,357,199,418,344,105,279,202,36,684,0,,
1,1791323651008,15386,-31351,14864,3057991,1606575,377514,0,0,0,199,267,105,295,246,301,350,264,166,312,315,263,0,,
2,1791323651008,1287,-1612,13443,2117258,131946,-239459,0,0,0,472,170,151,331,176,423,315,91,271,189,32,683,0,,
1,1791323651024,1292,-1043,12452,5962044,4542393,751364,0,0,0,210,278,112,302,249,326,340,272,170,340,343,298,0,,
2,1791323651024,1861,-1732,14041,2596177,120951,-327423,0,0,0,482,173,164,307,161,422,314,117,294,184,54,681,0,,
1,1791323651040,-4728,7709,13955,6320011,5083620,717155,0,0,0,212,289,129,306,254,340,344,277,169,384,369,317,0,,
2,1791323651040,1756,-1861,13984,3127630,113620,-464257,0,0,0,463,174,162,300,171,397,298,118,298,171,55,661,0,,
1,1791323651056,-1464,-2340,18970,5159367,2444682,-456927,0,0,0,219,284,159,300,240,346,428,357,218,421,365,312,0,,
2,1791323651056,1115,-2024,14223,3656639,190589,-555887,0,0,0,437,187,151,305,186,402,289,120,295,165,61,632,0,,
1,1791323651072,4369,-4245,22220,3535688,-878424,-1086118,0,0,0,275,265,225,306,238,346,427,341,215,431,366,320,0,,
2,1791323651072,1296,-2230,15434,4256508,387288,-593761,0,0,0,421,192,145,303,184,399,261,115,282,164,71,591,0,,
1,1791323651088,4469,-1493,18052,1660331,-2151467,-244346,0,0,0,322,277,255,329,242,369,441,365,256,431,350,411,0,,
2,1791323651088,2177,-2555,17927,5001764,576656,-681725,0,0,0,372,214,135,282,191,373,229,119,282,140,69,511,0,,
1,1791323651104,-1234,363,12132,433714,-1119105,529009,0,0,0,365,297,271,334,247,374,445,341,256,432,334,463,0,,
2,1791323651104,2383,-3239,22431,5837428,631634,-797790,0,0,0,346,197,131,264,179,332,201,116,235,149,80,463,0,,
1,1791323651120,-2268,90,9801,169820,129503,153938,0,0,0,420,324,283,355,263,389,477,344,280,460,317,492,0,,
2,1791323651120,3460,-4517,26891,6794043,722042,-746477,0,0,0,320,157,131,234,154,289,182,105,192,145,80,402,0,,
1,1791323651136,-607,95,9873,240680,229685,-149051,0,0,0,447,329,333,372,269,398,476,324,286,453,305,501,0,,
2,1791323651136,9088,-6958,27882,7695680,2053728,-656069,0,0,0,277,135,128,197,119,251,183,103,175,118,64,311,0,,
1,1791323651152,95,445,10648,327423,-103847,-118507,0,0,0,465,336,367,365,276,421,482,302,309,441,283,505,0,,
2,1791323651152,11060,-4278,27781,8188037,4657236,-1544267,0,0,0,202,100,111,168,89,215,192,107,165,98,50,195,0,,
1,1791323651168,-440,588,10648,443488,-248011,-20769,0,0,0,483,343,370,367,277,426,488,262,301,437,271,519,0,,
2,1791323651168,5159,4886,25613,7902152,4858822,-3037221,0,0,0,173,88,107,162,81,207,193,107,162,84,46,158,0,,
1,1791323651184,-808,459,10404,565661,-257785,-26878,0,0,0,507,349,392,375,278,428,493,225,297,431,246,533,0,,
2,1791323651184,-507,13213,17181,6527705,1231504,-3969402,0,0,0,175,89,111,164,80,209,194,110,162,91,51,167,0,,
1,1791323651200,-804,229,10260,653625,-261450,-30543,0,0,0,525,359,396,387,290,423,499,200,300,407,220,538,0,,
2,1791323651200,3163,13658,7408,3662747,-2778215,-3525914,0,0,0,177,89,113,162,80,207,194,110,164,94,53,172,0,,
1,1791323651216,-670,134,10251,685390,-322536,3665,0,0,0,526,364,365,404,302,418,501,189,304,393,207,536,0,,
2,1791323651216,9614,11438,3866,69638,-3554013,-2616946,0,0,0,177,88,111,159,77,205,195,106,163,94,51,174,0,,
1,1791323651232,-842,57,10299,728151,-399505,39095,0,0,0,521,360,340,412,303,429,483,189,314,395,196,537,0,,
2,1791323651232,10586,8805,5685,-2513099,-1117883,-2240653,0,0,0,177,86,113,158,76,204,194,105,162,96,51,173,0,,
1,1791323651248,-1091,-43,10476,825889,-328645,78190,0,0,0,524,362,308,407,314,434,452,180,304,372,189,542,0,,
2,1791323651248,7049,7126,6159,-3324328,510683,-2359161,0,0,0,181,90,118,162,79,209,192,107,163,97,52,170,0,,
1,1791323651264,-1206,-177,10538,918741,-80634,120951,0,0,0,519,364,258,412,319,436,479,154,304,374,188,536,0,,
2,1791323651264,2680,6733,4967,-3270572,536339,-2373822,0,0,0,186,94,122,165,79,212,194,112,167,98,54,174,0,,
1,1791323651280,-1268,-378,10270,880867,210137,183259,0,0,0,511,350,234,409,327,443,474,144,309,366,178,532,0,,
2,1791323651280,1239,7226,4699,-3759264,-23212,-1729970,0,0,0,185,93,123,163,78,212,193,113,170,101,60,185,0,,
1,1791323651296,-1081,-512,10011,759916,348193,241902,0,0,0,500,355,227,405,346,427,443,154,298,366,198,518,0,,
2,1791323651296,1445,7298,5489,-4581489,-62308,-811229,0,0,0,185,96,124,162,81,215,193,111,171,99,63,187,0,,
1,1791323651312,-540,-612,10179,643851,354301,248011,0,0,0,496,363,219,420,330,427,422,124,247,376,175,509,0,,
2,1791323651312,1732,6374,6877,-5127602,711047,112399,0,0,0,183,97,122,162,81,218,196,110,165,95,59,185,0,,
1,1791323651328,-157,-698,10385,636521,291993,191811,0,0,0,492,361,219,422,322,430,379,107,234,382,181,501,0,,
2,1791323651328,722,5580,8336,-5259549,1495398,842994,0,0,0,184,102,124,169,82,225,200,119,171,95,46,185,0,,
1,1791323651344,-186,-784,10351,700051,200363,107512,0,0,0,488,360,232,417,317,430,360,100,224,386,182,491,0,,
2,1791323651344,-856,5331,10050,-5318192,1836260,1448972,0,0,0,181,95,123,165,83,224,196,114,169,100,57,192,0,,
1,1791323651360,-545,-909,10117,719599,139277,73303,0,0,0,484,356,228,415,319,435,349,98,210,366,176,500,0,,
2,1791323651360,-674,5183,11663,-5676159,1718974,1740965,0,0,0,178,95,120,168,82,224,196,110,169,101,60,197,0,,
1,1791323651376,-684,-1019,9992,695164,103847,92851,0,0,0,479,357,232,413,319,441,368,108,224,350,173,504,0,,
2,1791323651376,402,4551,13141,-6146526,1784948,1618792,0,0,0,183,99,121,170,87,228,212,125,180,105,56,196,0,,
1,1791323651392,-626,-1115,9964,660956,80634,124616,0,0,0,477,358,240,413,318,441,363,107,221,349,175,501,0,,
2,1791323651392,617,3239,15137,-6561914,2161241,984714,0,0,0,184,97,123,172,82,232,210,118,181,97,38,195,0,,
1,1791323651408,-555,-1234,9940,624304,48869,152716,0,0,0,482,363,237,412,323,437,347,103,213,349,177,501,0,,
2,1791323651408,-1019,1445,17621,-6566801,2392148,155159,0,0,0,186,97,124,176,80,231,215,117,182,105,48,198,0,,
1,1791323651424,-492,-1340,9949,604756,23212,166155,0,0,0,491,370,227,406,327,434,356,110,228,343,174,504,0,,
2,1791323651424,-2187,-57,19947,-6309016,2417804,-466701,0,0,0,182,95,121,177,86,236,210,106,177,105,54,206,0,,
1,1791323651440,-507,-1450,9964,596204,-15882,175929,0,0,0,494,362,226,403,322,439,321,94,208,339,172,505,0,,
2,1791323651440,-2081,-813,22813,-5992587,2404365,-817337,0,0,0,183,95,123,178,92,242,214,110,183,100,55,207,0,,
1,1791323651456,-502,-1531,10007,604756,-63529,194255,0,0,0,495,353,235,407,303,439,280,76,178,350,167,506,0,,
2,1791323651456,-1306,-1517,25891,-6050009,2400700,-871093,0,0,0,183,95,124,176,88,240,212,110,186,99,62,208,0,,
1,1791323651472,-502,-1608,10093,626747,-108734,216246,0,0,0,499,356,230,398,308,441,399,136,272,342,168,519,0,,
2,1791323651472,-1172,-3876,28451,-6444628,2359161,-775798,0,0,0,183,93,122,175,86,238,215,113,189,104,64,212,0,,
1,1791323651488,-626,-1698,10236,659734,-142942,243124,0,0,0,497,356,234,414,308,441,352,107,229,354,171,511,0,,
2,1791323651488,-2268,-9160,29035,-6809925,2223549,-338419,0,0,0,180,93,121,175,87,240,219,119,191,104,62,214,0,,
1,1791323651504,-770,-1809,10337,709825,-153938,284663,0,0,0,508,360,234,414,308,452,296,94,193,344,167,516,0,,
2,1791323651504,-3101,-15975,28193,-6576575,1890017,344527,0,0,0,178,95,121,175,85,240,218,118,191,103,62,210,0,,
1,1791323651520,-751,-1933,10193,764803,-124616,331088,0,0,0,511,364,233,419,314,464,300,99,202,344,180,524,0,,
2,1791323651520,-3024,-21631,25355,-5674938,1494176,1042136,0,0,0,180,97,123,177,84,240,219,113,192,105,57,211,0,,
1,1791323651536,-296,-2000,10031,810007,-52534,361632,0,0,0,519,372,245,423,322,459,316,97,204,358,178,518,0,,
2,1791323651536,-2359,-29179,19784,-4500855,1303586,1452637,0,0,0,183,99,126,175,87,241,217,113,192,101,56,219,0,,
1,1791323651552,382,-1976,10375,841772,65973,291993,0,0,0,518,384,270,431,329,459,321,104,216,358,179,522,0,,
2,1791323651552,-4321,-39880,14611,-3319441,1429424,1117883,0,0,0,183,103,132,176,91,245,217,117,193,96,62,221,0,,
1,1791323651568,837,-1971,11481,946841,217468,146607,0,0,0,517,389,279,434,334,454,266,85,183,367,183,520,0,,
2,1791323651568,-12758,-48815,12222,-1588249,1414763,80634,0,0,0,179,98,127,178,92,244,226,119,193,100,61,208,0,,
1,1791323651584,268,-2053,13079,1236391,342084,8552,0,0,0,521,389,264,438,337,447,236,71,158,369,183,521,0,,
2,1791323651584,-18521,-40813,14089,733038,-133168,-339641,0,0,0,155,93,114,186,95,228,276,167,188,136,126,185,0,,
1,1791323651600,-1033,-2244,14390,1696983,388510,-13439,0,0,0,525,395,249,437,343,447,233,70,160,361,183,524,0,,
2,1791323651600,-10318,-22057,20736,2398256,-2173458,63529,0,0,0,156,90,88,193,95,222,362,308,188,255,234,178,0,,
1,1791323651616,-2024,-2416,15132,2284635,312763,141720,0,0,0,515,405,242,422,350,453,250,85,188,349,185,521,0,,
2,1791323651616,7508,8370,21665,3652974,-4792848,518013,0,0,0,166,98,102,197,82,243,386,288,204,303,273,220,0,,
1,1791323651632,-1316,-2287,16199,2948035,195476,353080,0,0,0,497,409,230,421,355,450,304,115,239,338,180,519,0,,
2,1791323651632,12859,21282,14697,4621806,-5800776,853989,0,0,0,181,109,114,213,104,262,407,365,217,289,341,242,0,,
1,1791323651648,-880,-1990,18277,3792251,250454,426383,0,0,0,488,418,214,436,372,443,279,104,230,335,172,504,0,,
2,1791323651648,382,3613,12610,5187467,-4056145,1495398,0,0,0,193,107,107,221,91,260,425,367,205,316,343,250,0,,
1,1791323651664,-3967,-2144,20033,4917465,362853,620639,0,0,0,454,400,186,420,370,449,254,97,219,299,161,470,0,,
2,1791323651664,-8312,-5293,16333,4345695,-2105041,1280373,0,0,0,195,111,117,212,84,263,443,383,217,299,348,257,0,,
1,1791323651680,-6412,-2847,22105,6194173,326202,1229060,0,0,0,408,400,169,370,361,421,231,103,204,253,149,442,0,,
2,1791323651680,-5245,-1990,15927,3270572,-1384220,150272,0,0,0,200,110,123,200,77,252,471,387,226,294,356,268,0,,
1,1791323651696,-4876,-3953,24522,7465994,207694,1798387,0,0,0,381,343,166,345,330,377,280,119,204,242,141,422,0,,
2,1791323651696,507,952,12979,2426356,-1433089,-237015,0,0,0,220,105,116,225,90,262,498,389,221,305,341,308,0,,
1,1791323651712,-196,-4948,27752,7988895,305432,1804495,0,0,0,341,312,161,307,290,332,321,133,199,219,125,403,0,,
2,1791323651712,928,358,11055,1622458,-1238834,-6108,0,0,0,255,115,120,238,106,270,508,384,225,318,328,372,0,,
1,1791323651728,1981,-4508,29265,7793418,1816713,1688431,0,0,0,252,283,167,282,257,312,339,141,193,200,122,338,0,,
2,1791323651728,-1344,-1378,10552,766025,-783129,196698,0,0,0,302,129,138,245,122,297,512,362,230,331,316,418,0,,
1,1791323651744,-4053,-464,26355,7086036,4577824,1539380,0,0,0,222,268,159,281,250,302,324,128,179,202,126,300,0,,
2,1791323651744,-1292,-737,10504,378736,-388510,70860,0,0,0,332,149,157,257,147,314,519,347,239,331,308,440,0,,
1,1791323651760,-12136,7351,16554,5979148,4742757,1352455,0,0,0,213,261,156,279,247,292,319,126,172,204,127,283,0,,
2,1791323651760,-521,52,10236,324980,-184481,-14660,0,0,0,343,171,169,268,174,313,524,344,251,326,295,457,0,,
1,1791323651776,-13275,12127,7906,3817907,2791654,1280373,0,0,0,213,255,157,278,241,287,288,115,157,202,124,272,0,,
2,1791323651776,-363,33,10088,365297,-177150,-13439,0,0,0,366,192,180,280,192,318,526,317,256,336,260,480,0,,
1,1791323651792,-8073,10911,7843,393397,698829,1214400,0,0,0,217,250,158,286,238,286,278,109,147,202,124,265,0,,
2,1791323651792,-559,-124,10136,364075,-163711,-12217,0,0,0,392,207,188,291,218,320,528,279,259,345,242,506,0,,
1,1791323651808,-4225,7666,9404,-1806939,217468,966388,0,0,0,215,247,156,285,234,286,282,109,147,203,126,263,0,,
2,1791323651808,-808,-220,10222,356745,-70860,-19547,0,0,0,394,189,190,302,233,331,524,260,258,328,227,522,0,,
1,1791323651824,-3742,5829,7585,-2252871,735481,530231,0,0,0,214,246,154,282,234,285,301,119,158,205,130,261,0,,
2,1791323651824,-770,-196,10232,350636,83077,-18325,0,0,0,407,200,227,306,229,363,508,234,255,289,168,534,0,,
1,1791323651840,-4120,5876,5063,-2393370,1021366,92851,0,0,0,217,248,154,284,239,281,331,134,171,205,134,259,0,,
2,1791323651840,-588,-215,10193,349414,260228,-23212,0,0,0,414,201,220,315,242,370,494,203,252,265,145,539,0,,
1,1791323651856,-4245,6350,4733,-3161838,873537,-357967,0,0,0,211,245,151,274,234,277,321,130,164,207,132,256,0,,
2,1791323651856,-516,-311,10122,389732,353080,-34208,0,0,0,444,213,146,318,238,349,485,202,255,251,123,541,0,,
1,1791323651872,-4608,6001,5561,-4045149,616973,-745255,0,0,0,213,244,155,281,228,281,289,112,147,206,128,252,0,,
2,1791323651872,-464,-378,10150,458148,415388,-30543,0,0,0,446,293,124,352,271,377,472,197,239,236,135,556,0,,
1,1791323651888,-5216,4948,6427,-4720766,263893,-1051909,0,0,0,218,242,158,296,230,286,317,129,163,203,129,252,0,,
2,1791323651888,-349,-445,10256,508239,491135,-28099,0,0,0,446,320,130,342,269,375,459,191,247,220,126,560,0,,
1,1791323651904,-5384,3919,7140,-5083620,-120951,-1241278,0,0,0,220,243,163,288,232,286,298,126,161,205,131,254,0,,
2,1791323651904,-215,-521,10289,508239,560774,-23212,0,0,0,427,331,126,343,276,383,456,181,258,223,128,578,0,,
1,1791323651920,-5072,3220,8284,-5380501,-444709,-1387885,0,0,0,220,246,163,288,232,286,308,126,161,207,134,254,0,,
2,1791323651920,-43,-598,10232,460592,594982,-24434,0,0,0,430,314,125,353,278,375,433,152,251,230,117,580,0,,
1,1791323651936,-5005,2613,9925,-5751907,-703716,-1532050,0,0,0,222,245,168,290,230,288,229,85,116,209,134,255,0,,
2,1791323651936,148,-679,10169,442266,612086,-40317,0,0,0,444,316,119,348,274,379,416,153,251,228,118,589,0,,
1,1791323651952,-5350,1765,11787,-6091548,-913854,-1577254,0,0,0,222,245,166,291,230,289,299,117,156,207,131,255,0,,
2,1791323651952,646,-789,10102,436157,629191,-96516,0,0,0,451,313,128,336,267,385,404,146,251,210,113,594,0,,
1,1791323651968,-5862,760,13682,-6300464,-1170417,-1513724,0,0,0,220,248,163,289,232,288,328,132,173,207,133,255,0,,
2,1791323651968,1038,-909,10136,415388,643851,-193033,0,0,0,457,323,144,329,266,382,393,139,260,207,107,595,0,,
1,1791323651984,-6379,-177,15678,-6394537,-1502728,-1331686,0,0,0,213,247,162,282,231,286,326,132,171,205,132,254,0,,
2,1791323651984,966,-952,10260,423940,637743,-312763,0,0,0,456,318,144,326,265,377,390,141,264,213,104,594,0,,
1,1791323652000,-6389,-823,18018,-6486167,-1857030,-1110553,0,0,0,213,246,163,285,231,287,302,121,157,205,130,253,0,,
2,1791323652000,349,-880,10404,475253,557109,-383623,0,0,0,455,305,136,321,265,382,391,141,260,207,96,592,0,,
1,1791323652016,-6302,-1469,21000,-6582683,-2160019,-967610,0,0,0,221,249,171,291,233,289,300,118,155,205,133,254,0,,
2,1791323652016,-416,-775,10495,531452,361632,-324980,0,0,0,460,301,136,326,267,393,391,141,260,200,92,599,0,,
1,1791323652032,-6245,-2852,25077,-6614448,-2414139,-1017701,0,0,0,227,253,179,291,233,288,319,127,165,204,133,252,0,,
2,1791323652032,-306,-880,10260,561996,151494,-183259,0,0,0,465,284,138,342,263,399,389,144,262,205,95,611,0,,
1,1791323652048,-5862,-5527,29116,-6658431,-2659707,-1302364,0,0,0,230,256,181,291,233,289,318,125,164,202,130,249,0,,
2,1791323652048,244,-1081,10126,585208,73303,-89186,0,0,0,479,268,138,338,261,400,381,137,269,198,85,615,0,,
1,1791323652064,-4618,-11217,31150,-6740287,-2978578,-2037846,0,0,0,225,254,176,289,232,289,330,131,172,200,127,248,0,,
2,1791323652064,670,-1225,10390,635299,109955,-80634,0,0,0,482,269,137,339,261,397,373,129,281,197,83,617,0,,
1,1791323652080,-2493,-17808,30796,-6597344,-3347541,-2812423,0,0,0,207,251,161,276,233,289,349,149,186,203,135,252,0,,
2,1791323652080,818,-1316,10705,741590,122173,-111177,0,0,0,508,245,148,333,259,415,371,124,276,203,96,642,0,,
1,1791323652096,-47,-24570,28595,-5975483,-3165503,-3419623,0,0,0,203,255,159,276,241,300,346,160,191,197,142,254,0,,
2,1791323652096,899,-1416,10892,873537,96516,-151494,0,0,0,501,197,143,342,250,419,372,137,282,210,90,649,0,,
1,1791323652112,-1100,-31729,21942,-4608367,-2378709,-3506366,0,0,0,211,259,166,279,236,310,349,149,197,203,135,265,0,,
2,1791323652112,928,-1507,11184,1027475,48869,-193033,0,0,0,506,208,141,354,257,424,365,136,274,214,92,656,0,,
1,1791323652128,-1182,-40109,14596,-3122743,-2591290,-2461786,0,0,0,214,255,163,285,236,302,349,149,194,286,137,249,0,,
2,1791323652128,737,-1569,11428,1213178,9773,-223576,0,0,0,512,185,134,354,244,400,366,119,255,198,102,669,0,,
1,1791323652144,8116,-46245,11213,-1865582,-3121521,-642630,0,0,0,219,250,168,295,224,305,355,144,196,253,155,264,0,,
2,1791323652144,311,-1622,11706,1436755,23212,-211359,0,0,0,518,186,171,388,222,414,361,133,264,188,65,672,0,,
1,1791323652160,19119,-43249,12672,46425,-1264491,493579,0,0,0,195,223,116,277,208,280,326,192,150,304,261,238,0,,
2,1791323652160,593,-1746,12696,1743409,98960,-172263,0,0,0,518,186,167,367,217,399,351,120,258,188,53,669,0,,
1,1791323652176,12117,-25159,15147,2917492,1815491,607200,0,0,0,191,214,94,280,202,283,360,253,154,340,320,235,0,,
2,1791323652176,1225,-1876,13878,2156354,149051,-196698,0,0,0,528,181,158,336,202,397,325,116,270,186,60,661,0,,
1,1791323652192,-1584,-229,12457,5588195,3391523,684169,0,0,0,201,219,95,294,205,307,391,298,166,361,353,259,0,,
2,1791323652192,1569,-1909,14898,2753780,133168,-295658,0,0,0,509,194,153,318,194,400,310,120,292,183,70,658,0,,
1,1791323652208,-5570,5340,13907,6677978,2891836,376292,0,0,0,212,217,118,300,198,328,415,345,195,389,372,292,0,,
2,1791323652208,2000,-1947,15659,3393967,90408,-412944,0,0,0,481,200,150,308,193,384,291,114,287,180,70,623,0,,
1,1791323652224,-239,-2493,20904,5955936,1666440,-395840,0,0,0,232,216,143,307,199,331,438,392,227,412,381,306,0,,
2,1791323652224,2598,-1957,16472,4158770,78190,-586430,0,0,0,441,204,140,301,196,372,268,110,267,176,75,572,0,,
1,1791323652240,2483,-3948,21909,3749490,2265088,-304210,0,0,0,265,244,164,320,227,322,448,412,238,419,384,298,0,,
2,1791323652240,3962,-2608,18411,5132489,268780,-851546,0,0,0,351,168,149,274,191,345,227,110,239,160,79,503,0,,
1,1791323652256,1670,-2038,16563,1419650,2097711,75747,0,0,0,290,273,222,334,244,331,449,400,249,430,380,304,0,,
2,1791323652256,5522,-3594,22593,6167295,895528,-1172861,0,0,0,311,143,148,242,170,302,190,106,205,142,74,431,0,,
1,1791323652272,177,-239,10806,335975,777020,139277,0,0,0,292,277,316,354,231,374,444,369,260,444,361,334,0,,
2,1791323652272,6810,-3814,27906,7298617,2171015,-1472185,0,0,0,321,143,127,217,138,264,186,106,182,128,63,359,0,,
1,1791323652288,-167,-71,9317,219911,169820,26878,0,0,0,303,320,368,356,253,409,467,379,283,441,341,368,0,,
2,1791323652288,7461,-2904,30959,8076860,3560122,-1877799,0,0,0,263,111,115,186,104,226,197,111,171,111,53,262,0,,
1,1791323652304,167,-296,10409,362853,261450,-48869,0,0,0,311,329,440,358,278,426,462,351,323,438,325,396,0,,
2,1791323652304,4469,765,31615,8276002,3737273,-2770884,0,0,0,198,90,102,169,82,202,211,113,164,114,56,171,0,,
1,1791323652320,272,-23,10811,375071,265115,-12217,0,0,0,367,360,472,370,276,432,478,322,322,406,293,424,0,,
2,1791323652320,3158,8542,24292,7892378,1132544,-3582113,0,0,0,178,98,111,171,87,213,209,118,164,128,63,153,0,,
1,1791323652336,229,148,10547,394618,80634,23212,0,0,0,383,368,472,371,291,444,470,291,317,403,271,445,0,,
2,1791323652336,6489,13467,11734,6565579,-1452637,-3899763,0,0,0,184,99,115,167,88,210,201,117,163,89,47,157,0,,
1,1791323652352,205,86,10323,449596,-106290,47647,0,0,0,393,390,478,369,320,460,464,264,330,387,249,463,0,,
2,1791323652352,10878,13878,2278,3105638,-1606575,-3535688,0,0,0,193,94,119,161,77,205,198,113,159,89,44,154,0,,
1,1791323652368,306,0,10476,516791,-239459,69638,0,0,0,417,390,483,379,330,472,451,229,321,369,234,468,0,,
2,1791323652368,8356,11237,5594,-1392772,417831,-2739119,0,0,0,196,88,117,159,76,200,206,117,166,92,47,158,0,,
1,1791323652384,268,-71,10614,592539,-379958,84299,0,0,0,432,399,483,399,362,463,451,219,321,360,226,470,0,,
2,1791323652384,3646,7767,9136,-3444058,1108109,-2146580,0,0,0,195,92,119,158,76,201,206,119,167,100,56,166,0,,
1,1791323652400,119,-196,10586,675616,-519235,95294,0,0,0,439,401,442,422,375,450,461,207,324,349,210,477,0,,
2,1791323652400,1445,5695,7561,-3170390,207694,-1712866,0,0,0,195,97,121,158,77,202,206,122,169,109,65,174,0,,
1,1791323652416,210,-320,10744,770911,-680503,94073,0,0,0,451,387,372,431,364,449,449,173,299,347,192,478,0,,
2,1791323652416,1229,5690,5106,-2813645,-504574,-1138652,0,0,0,188,93,116,157,78,203,211,126,171,100,63,174,0,,
1,1791323652432,215,-445,10658,856433,-838107,57421,0,0,0,457,387,287,431,378,448,421,155,268,355,187,468,0,,
2,1791323652432,1545,7078,4551,-3277902,-252898,-287106,0,0,0,186,96,119,163,81,209,213,126,174,104,63,178,0,,
1,1791323652448,67,-579,10370,874759,-939510,18325,0,0,0,450,411,219,440,406,438,409,156,251,354,189,461,0,,
2,1791323652448,1177,7303,6063,-4178318,572991,587652,0,0,0,186,93,123,160,80,209,208,120,171,102,49,172,0,,
1,1791323652464,-172,-698,10208,830776,-937067,-7330,0,0,0,453,418,206,448,402,426,404,139,230,343,189,464,0,,
2,1791323652464,272,6341,7853,-4833165,1308473,1411098,0,0,0,187,98,122,165,84,215,203,115,167,98,49,175,0,,
1,1791323652480,-555,-851,10198,806342,-777020,-15882,0,0,0,453,394,180,430,381,423,412,143,246,339,181,470,0,,
2,1791323652480,-823,5173,9102,-4993212,1501506,1916895,0,0,0,184,97,120,168,84,218,203,115,170,99,63,185,0,,
1,1791323652496,-823,-985,10174,812450,-516791,0,0,0,0,442,405,184,446,385,436,407,145,245,330,177,473,0,,
2,1791323652496,-1273,4761,10251,-5172806,1304808,2146580,0,0,0,177,91,117,168,86,219,222,129,189,104,63,185,0,,
1,1791323652512,-861,-1110,9906,803898,-277332,39095,0,0,0,449,408,201,476,362,436,407,134,260,359,161,471,0,,
2,1791323652512,-598,4474,11677,-5628512,1188743,2067167,0,0,0,179,93,116,166,90,220,221,124,185,106,52,183,0,,
1,1791323652528,-732,-1244,9676,753807,-116064,75747,0,0,0,449,410,196,468,346,436,391,124,238,343,166,473,0,,
2,1791323652528,-90,3785,13280,-6128200,1468520,1555262,0,0,0,186,99,119,166,89,220,207,117,170,105,53,183,0,,
1,1791323652544,-574,-1340,9753,685390,-61086,78190,0,0,0,449,408,201,453,364,436,334,100,190,340,171,473,0,,
2,1791323652544,-808,3034,15348,-6508158,1758070,932180,0,0,0,186,98,121,166,86,221,211,122,173,105,62,183,0,,
1,1791323652560,-536,-1440,9796,640186,-45204,72082,0,0,0,450,412,209,441,368,440,316,89,181,332,166,473,0,,
2,1791323652560,-2584,2201,18205,-6703635,1738522,333532,0,0,0,181,92,116,166,82,223,214,115,174,104,62,190,0,,
1,1791323652576,-516,-1541,9753,601091,-54977,70860,0,0,0,447,416,206,441,375,441,372,124,227,324,169,474,0,,
2,1791323652576,-2215,1373,20555,-6739065,1448972,156381,0,0,0,179,88,117,169,79,226,211,113,174,99,54,192,0,,
1,1791323652592,-521,-1617,9830,571769,-69638,70860,0,0,0,453,408,207,442,373,444,389,130,242,323,164,475,0,,
2,1791323652592,-536,0,24005,-6741508,1346346,-26878,0,0,0,183,95,127,173,89,232,212,117,179,97,47,186,0,,
1,1791323652608,-617,-1698,10016,565661,-84299,75747,0,0,0,456,399,214,443,365,450,351,115,224,320,158,479,0,,
2,1791323652608,655,-1899,27805,-6644992,1620014,-212581,0,0,0,184,96,125,166,84,231,220,123,186,101,59,189,0,,
1,1791323652624,-813,-1789,10236,604756,-98960,100181,0,0,0,463,396,214,449,364,448,306,96,194,313,155,481,0,,
2,1791323652624,-1100,-5020,31327,-6759834,1907121,-160046,0,0,0,180,96,120,173,83,230,217,117,180,99,52,184,0,,
1,1791323652640,-847,-1871,10385,687834,-111177,153938,0,0,0,474,397,212,449,369,446,310,93,190,307,154,482,0,,
2,1791323652640,-3704,-10509,33098,-7079928,1656666,284663,0,0,0,186,102,125,173,89,235,213,108,180,106,62,195,0,,
1,1791323652656,-588,-1938,10366,774577,-119729,188146,0,0,0,480,405,218,442,382,454,338,106,216,303,156,484,0,,
2,1791323652656,-306,-20803,29217,-6817256,480140,873537,0,0,0,176,98,121,175,87,237,216,112,180,98,69,204,0,,
1,1791323652672,-263,-2010,10294,862541,-130725,171042,0,0,0,492,414,220,443,397,454,308,90,200,310,159,491,0,,
2,1791323652672,6015,-32414,21067,-5806884,162490,796568,0,0,0,173,98,124,179,87,242,232,128,188,111,68,204,0,,
1,1791323652688,-57,-2048,10638,959058,-134390,113620,0,0,0,493,437,245,431,375,464,315,101,212,325,165,498,0,,
2,1791323652688,-670,-44546,14228,-4013384,1726305,-232128,0,0,0,173,104,125,177,93,243,224,120,189,97,60,202,0,,
1,1791323652704,33,-2105,11471,1133765,-130725,24434,0,0,0,507,446,263,433,380,471,347,117,242,310,160,493,0,,
2,1791323652704,-17951,-51169,12916,-2009746,2164906,-757472,0,0,0,177,102,126,175,87,240,214,120,181,100,59,200,0,,
1,1791323652720,-14,-2206,12333,1390329,-145385,-70860,0,0,0,510,437,282,432,356,473,299,91,214,327,173,487,0,,
2,1791323652720,-26862,-46771,14663,277332,-161268,101403,0,0,0,162,102,103,183,89,226,281,182,181,160,138,176,0,,
1,1791323652736,-976,-2364,13409,1772730,-166155,-123394,0,0,0,498,464,258,454,401,453,332,126,231,326,184,488,0,,
2,1791323652736,-6700,-23632,17975,2373822,-2624277,1115439,0,0,0,157,98,95,194,97,230,344,262,191,208,198,192,0,,
1,1791323652752,-2474,-2474,14601,2317622,-52534,24434,0,0,0,491,425,240,416,374,438,304,110,214,302,162,484,0,,
2,1791323652752,10954,6570,16070,4061032,-4054923,737925,0,0,0,164,97,100,193,90,242,369,304,203,234,246,217,0,,
1,1791323652768,-3082,-2488,15888,2926044,193033,266337,0,0,0,495,428,238,408,383,428,276,115,221,297,163,479,0,,
2,1791323652768,8628,13730,11404,4572937,-5626068,-452040,0,0,0,180,103,106,200,90,255,391,343,210,273,299,241,0,,
1,1791323652784,-4383,-2483,17109,3700621,541226,592539,0,0,0,477,432,207,419,397,421,293,126,238,290,160,471,0,,
2,1791323652784,-2077,-2416,13022,4262617,-5048190,102625,0,0,0,199,108,113,212,92,264,422,365,213,302,326,261,0,,
1,1791323652800,-6341,-2407,18310,4662123,834441,1161865,0,0,0,456,409,178,409,395,416,273,119,233,280,158,459,0,,
2,1791323652800,-5757,-4221,17860,4541172,-1904677,1486845,0,0,0,212,105,107,226,90,268,462,361,218,316,344,277,0,,
1,1791323652816,-6771,-2282,20349,5780006,1288925,1837482,0,0,0,438,388,166,385,385,408,251,104,209,258,149,449,0,,
2,1791323652816,-4757,-220,19018,4442212,-707381,1138652,0,0,0,231,101,98,252,102,283,497,366,225,333,361,305,0,,
1,1791323652832,-4766,-4254,23110,6806260,2142915,2298075,0,0,0,414,358,159,362,353,376,272,114,196,241,138,430,0,,
2,1791323652832,-2636,-325,16946,3144734,-932180,186924,0,0,0,265,119,114,271,133,297,508,366,230,335,347,339,0,,
1,1791323652848,-2321,-8274,27116,7353595,2448347,2364048,0,0,0,368,307,154,325,302,338,298,123,184,221,125,406,0,,
2,1791323652848,-1076,-1976,12567,949284,-959058,-302989,0,0,0,298,140,129,297,160,310,553,355,248,353,350,393,0,,
1,1791323652864,-2263,-7408,30370,7452555,2068389,2141693,0,0,0,287,267,155,289,256,307,310,120,169,205,118,333,0,,
2,1791323652864,-938,-1162,9734,-40317,-208915,-64751,0,0,0,328,154,173,311,167,327,586,348,246,359,331,421,0,,
1,1791323652880,-4948,961,28533,7356039,2388483,2002416,0,0,0,225,252,155,282,234,284,313,121,160,208,123,257,0,,
2,1791323652880,-952,-38,9743,237015,120951,92851,0,0,0,350,163,170,316,177,343,582,342,260,352,324,467,0,,
1,1791323652896,-8356,9203,20914,7024950,3408628,1918116,0,0,0,223,252,154,286,237,286,294,111,150,212,127,263,0,,
2,1791323652896,-847,23,10265,423940,61086,56199,0,0,0,372,176,169,329,196,345,592,318,255,352,292,466,0,,
1,1791323652912,-8561,10528,12261,5586973,3342654,1337794,0,0,0,225,248,150,284,232,281,260,100,133,211,127,258,0,,
2,1791323652912,-765,-201,10356,371406,14660,12217,0,0,0,387,199,172,353,230,372,600,300,266,346,270,482,0,,
1,1791323652928,-7087,10418,7781,2399478,2265088,367740,0,0,0,234,243,148,296,228,277,19,7,10,207,124,251,0,,
2,1791323652928,-737,-210,10198,268780,80634,15882,0,0,0,397,189,177,352,226,352,600,265,283,343,249,511,0,,
1,1791323652944,-6001,9231,8446,-1572367,932180,-548556,0,0,0,234,244,148,295,227,276,339,133,171,209,127,251,0,,
2,1791323652944,-751,-124,10193,267558,163711,13439,0,0,0,411,186,174,367,228,364,605,248,292,318,201,517,0,,
1,1791323652960,-5719,6752,7968,-3160616,177150,-808785,0,0,0,234,240,151,289,229,276,324,131,163,210,132,253,0,,
2,1791323652960,-784,-124,10246,271224,244346,0,0,0,0,403,178,186,372,229,378,609,217,275,296,167,519,0,,
1,1791323652976,-4436,5283,5829,-3325550,-156381,-734260,0,0,0,235,240,151,295,227,280,330,130,163,215,129,254,0,,
2,1791323652976,-765,-167,10337,259006,367740,-13439,0,0,0,417,180,167,377,227,376,610,192,274,276,136,529,0,,
1,1791323652992,-2593,5130,4474,-3373197,-31764,-536339,0,0,0,226,237,148,282,222,277,299,118,150,212,132,253,0,,
2,1791323652992,-579,-186,10380,268780,554665,-21991,0,0,0,425,183,150,367,232,381,595,180,284,248,116,539,0,,
1,1791323653008,-2268,5269,4910,-3861890,130725,-411723,0,0,0,232,241,160,285,222,282,291,115,149,215,133,255,0,,
2,1791323653008,-430,-263,10313,289550,744033,-31764,0,0,0,423,178,137,368,231,385,569,153,292,229,94,553,0,,
1,1791323653024,-3149,5111,6015,-4514294,12217,-293215,0,0,0,230,239,162,281,221,287,287,113,149,212,130,257,0,,
2,1791323653024,-339,-392,10222,323758,877202,-29321,0,0,0,427,171,131,374,228,388,536,134,304,219,83,566,0,,
1,1791323653040,-3508,4417,7240,-4994434,-456927,-183259,0,0,0,225,235,159,274,217,284,288,113,148,209,129,254,0,,
2,1791323653040,-167,-440,10126,387288,842994,-9773,0,0,0,432,165,133,373,225,392,501,130,317,209,77,571,0,,
1,1791323653056,-2971,3661,8705,-5417152,-874759,-197920,0,0,0,228,235,158,281,219,284,273,105,139,209,130,253,0,,
2,1791323653056,205,-483,9940,425162,747699,-3665,0,0,0,436,170,139,370,218,386,486,126,328,210,73,569,0,,
1,1791323653072,-2641,2847,10270,-5830097,-1004262,-431270,0,0,0,228,235,157,284,221,288,270,105,139,209,131,255,0,,
2,1791323653072,473,-555,9877,371406,625526,-43982,0,0,0,442,179,146,366,213,386,482,130,336,212,78,571,0,,
1,1791323653088,-3201,1761,11691,-6137973,-1106887,-704938,0,0,0,222,236,157,276,218,288,305,121,160,209,132,256,0,,
2,1791323653088,516,-612,10011,309097,487470,-101403,0,0,0,434,167,135,364,220,404,449,133,337,196,73,580,0,,
1,1791323653104,-4450,784,13141,-6280916,-1423316,-864985,0,0,0,221,238,158,276,221,291,312,124,164,207,132,258,0,,
2,1791323653104,421,-626,10265,317649,354301,-142942,0,0,0,433,173,132,369,228,406,440,135,326,202,83,585,0,,
1,1791323653120,-5120,0,15027,-6371324,-1880243,-830776,0,0,0,219,237,158,276,222,291,304,120,158,207,130,257,0,,
2,1791323653120,368,-650,10284,389732,219911,-151494,0,0,0,432,181,133,372,238,402,434,144,300,201,87,582,0,,
1,1791323653136,-5235,-813,17171,-6470284,-2239431,-700051,0,0,0,220,241,161,275,222,292,319,125,166,207,127,255,0,,
2,1791323653136,268,-708,10141,443488,92851,-141720,0,0,0,431,175,131,377,224,402,463,120,289,228,95,596,0,,
1,1791323653152,-5422,-1521,19947,-6495940,-2576629,-441044,0,0,0,229,243,167,294,226,299,341,137,182,209,132,258,0,,
2,1791323653152,325,-780,10059,452040,48869,-127059,0,0,0,454,177,129,393,233,411,458,134,321,216,80,612,0,,
1,1791323653168,-5388,-2254,23345,-6476393,-2976135,-105068,0,0,0,217,243,165,278,224,296,308,117,162,209,130,260,0,,
2,1791323653168,425,-851,10083,464257,54977,-127059,0,0,0,456,185,133,373,235,409,438,132,309,214,96,602,0,,
1,1791323653184,-4417,-4096,27700,-6504493,-3445279,217468,0,0,0,225,246,170,290,227,300,355,138,192,214,123,258,0,,
2,1791323653184,569,-938,10193,503352,80634,-147829,0,0,0,456,196,135,369,245,419,441,143,307,222,97,616,0,,
1,1791323653200,-1555,-8279,30595,-6654765,-3974289,182037,0,0,0,224,248,168,298,229,303,346,136,186,201,123,258,0,,
2,1791323653200,512,-985,10318,572991,100181,-177150,0,0,0,478,213,153,387,259,424,457,150,324,226,100,641,0,,
1,1791323653216,3857,-14108,32280,-6784269,-4686558,-141720,0,0,0,213,248,163,279,222,301,363,140,199,201,123,260,0,,
2,1791323653216,315,-1052,10189,643851,130725,-188146,0,0,0,467,195,147,369,242,421,431,134,312,225,81,644,0,,
1,1791323653232,10638,-20109,32299,-6605896,-4647462,-634078,0,0,0,207,248,160,276,220,303,366,138,201,200,124,262,0,,
2,1791323653232,100,-1129,10198,681725,169820,-157603,0,0,0,466,186,139,356,238,413,410,129,303,222,90,657,0,,
1,1791323653248,11763,-28446,27054,-5544212,-2926044,-1222952,0,0,0,213,250,166,296,228,321,342,126,192,201,125,270,0,,
2,1791323653248,555,-1162,11395,784350,194255,-111177,0,0,0,476,190,139,355,237,412,402,133,311,215,89,672,0,,
1,1791323653264,4977,-40588,17343,-4012162,-1453859,-840550,0,0,0,213,251,169,294,229,331,323,118,185,204,128,279,0,,
2,1791323653264,1000,-1186,12577,1055575,215024,-131946,0,0,0,486,197,144,363,242,414,383,138,305,216,91,682,0,,
1,1791323653280,9112,-49403,11648,-2375044,-1973094,932180,0,0,0,210,250,169,284,226,330,320,117,184,205,127,280,0,,
2,1791323653280,760,-1234,13170,1477072,295658,-179594,0,0,0,495,200,149,352,242,417,359,138,293,211,89,686,0,,
1,1791323653296,24876,-48159,11768,-326202,-1639562,1585806,0,0,0,201,243,152,291,228,314,325,150,173,238,180,257,0,,
2,1791323653296,593,-1277,14008,1993864,436157,-195476,0,0,0,503,199,150,329,238,410,340,134,285,210,92,689,0,,
1,1791323653312,22526,-29523,17094,1728748,1167974,-144164,0,0,0,183,225,112,299,226,285,332,220,146,314,296,221,0,,
2,1791323653312,1100,-1301,15060,2597398,564439,-218689,0,0,0,502,201,150,319,234,391,321,131,280,212,90,688,0,,
1,1791323653328,268,11395,18310,3561344,3461162,-1298699,0,0,0,195,220,91,303,213,297,337,241,142,355,335,238,0,,
2,1791323653328,1421,-1363,15568,3270572,662177,-321315,0,0,0,483,203,150,315,216,381,299,125,281,190,64,675,0,,
1,1791323653344,-11083,30002,10763,4620584,4675562,-514348,0,0,0,198,226,102,305,220,326,389,312,170,377,388,254,0,,
2,1791323653344,2244,-1421,16606,4008497,790459,-444709,0,0,0,449,198,147,297,209,377,272,122,270,182,83,640,0,,
1,1791323653360,-985,1928,12007,5253441,4591263,129503,0,0,0,194,220,126,294,204,337,414,353,187,400,419,270,0,,
2,1791323653360,4809,-1469,17875,4917465,879645,-783129,0,0,0,409,199,137,283,213,382,231,131,294,153,87,550,0,,
1,1791323653376,6307,-10294,20756,5562538,2871066,-45204,0,0,0,200,214,156,294,188,348,444,404,237,418,435,285,0,,
2,1791323653376,5369,-1253,20579,5825210,897971,-1218065,0,0,0,388,190,128,276,186,363,204,115,247,159,88,495,0,,
1,1791323653392,4565,-3015,22244,5078733,901637,237015,0,0,0,214,232,167,310,217,361,450,412,246,442,418,296,0,,
2,1791323653392,3857,-1148,27221,6924768,736703,-1551597,0,0,0,345,175,135,228,157,315,183,115,226,120,64,428,0,,
1,1791323653408,-574,804,14826,3690847,21991,503352,0,0,0,240,255,147,343,263,367,444,388,232,450,423,326,0,,
2,1791323653408,4862,-1244,31126,7784866,454483,-1656666,0,0,0,302,124,124,200,137,262,198,109,194,131,62,343,0,,
1,1791323653424,-1713,-1397,10959,2001194,200363,171042,0,0,0,288,283,145,377,280,380,451,389,252,462,393,375,0,,
2,1791323653424,6896,416,31036,8526457,147829,-1946216,0,0,0,218,87,94,176,91,211,169,79,148,83,36,181,0,,
1,1791323653440,43,-2785,10624,603534,381179,-156381,0,0,0,349,306,150,394,291,394,461,370,266,457,359,417,0,,
2,1791323653440,8801,7083,26896,8935736,-91629,-2370157,0,0,0,174,83,95,170,86,209,195,107,151,93,53,149,0,,
1,1791323653456,435,-1172,10744,335975,36651,-105068,0,0,0,394,323,155,410,298,400,477,360,277,459,336,453,0,,
2,1791323653456,10169,13898,17592,8422609,161268,-2844188,0,0,0,176,91,102,168,94,210,202,140,159,90,76,153,0,,
1,1791323653472,-143,-378,10418,491135,-232128,-17104,0,0,0,418,330,164,422,302,406,486,346,288,452,307,480,0,,
2,1791323653472,8935,17027,5809,5589416,637743,-3181386,0,0,0,175,83,96,167,88,205,203,143,163,93,72,152,0,,
1,1791323653488,-469,-650,10179,493579,-284663,-14660,0,0,0,427,332,171,431,312,412,485,324,294,435,277,491,0,,
2,1791323653488,4632,15654,6680,689055,114842,-2448347,0,0,0,181,81,96,174,92,199,207,139,160,101,75,151,0,,
1,1791323653504,-315,-904,10222,377514,-316428,-31764,0,0,0,428,338,168,447,330,413,482,308,298,429,261,490,0,,
2,1791323653504,2033,11873,10739,-2957809,-1104444,-1236391,0,0,0,184,85,99,174,89,195,218,131,154,103,70,149,0,,
1,1791323653520,-258,-837,10299,318871,-434936,-31764,0,0,0,429,352,161,461,343,422,480,283,305,426,242,493,0,,
2,1791323653520,3302,7556,9944,-3822794,-2276083,-410501,0,0,0,182,83,102,175,87,197,226,124,155,104,64,152,0,,
1,1791323653536,-512,-789,10217,271224,-544891,-23212,0,0,0,432,365,155,461,347,424,480,258,308,409,220,490,0,,
2,1791323653536,5336,6475,5565,-3567452,-2432465,-318871,0,0,0,184,86,106,178,88,201,225,125,158,99,68,155,0,,
1,1791323653552,-737,-847,10026,178372,-471587,-3665,0,0,0,431,345,162,476,343,428,461,220,304,377,185,477,0,,
2,1791323653552,5776,6915,4024,-4098905,-2004859,-211359,0,0,0,184,91,107,174,87,204,218,124,157,96,68,155,0,,
1,1791323653568,-827,-890,9949,75747,-349414,15882,0,0,0,431,350,169,480,362,434,425,178,276,382,179,463,0,,
2,1791323653568,5340,6963,5771,-5272988,-1334129,59864,0,0,0,180,89,102,173,88,203,219,124,157,101,63,158,0,,
1,1791323653584,-804,-894,10040,21991,-270002,35430,0,0,0,430,344,193,479,336,447,400,118,226,378,151,453,0,,
2,1791323653584,5034,5374,7987,-6111095,-746477,353080,0,0,0,182,90,105,176,89,204,227,135,163,105,66,158,0,,
1,1791323653600,-909,-871,10165,15882,-267558,57421,0,0,0,433,348,194,468,344,444,413,134,262,350,136,456,0,,
2,1791323653600,4618,3756,9495,-6409198,-345749,607200,0,0,0,185,91,104,178,89,209,227,135,162,111,68,162,0,,
1,1791323653616,-1043,-880,10222,23212,-284663,101403,0,0,0,436,348,196,478,355,449,414,137,270,337,136,462,0,,
2,1791323653616,4804,3235,10457,-6483723,-190589,840550,0,0,0,183,87,103,178,93,212,228,139,164,114,76,172,0,,
1,1791323653632,-847,-894,10567,85521,-291993,147829,0,0,0,432,341,200,483,346,454,375,93,211,333,129,462,0,,
2,1791323653632,5876,2455,12031,-6696304,174707,1114218,0,0,0,183,91,111,178,88,212,227,122,160,102,75,164,0,,
1,1791323653648,-670,-894,10844,332310,-250454,142942,0,0,0,432,341,202,485,339,473,385,97,225,327,127,466,0,,
2,1791323653648,6666,1340,14017,-6780604,861319,1264491,0,0,0,181,90,110,175,84,213,227,132,163,103,69,163,0,,
1,1791323653664,-894,-961,10294,503352,-211359,140499,0,0,0,437,350,189,476,351,479,404,107,255,317,131,469,0,,
2,1791323653664,6341,583,16085,-6735400,1467298,1374446,0,0,0,184,92,108,177,89,215,211,120,160,109,58,167,0,,
1,1791323653680,-971,-1062,9810,502131,-194255,169820,0,0,0,445,353,176,467,362,466,398,97,239,320,139,470,0,,
2,1791323653680,5460,224,18482,-6712187,1782504,1529606,0,0,0,193,100,108,203,103,201,225,126,173,110,63,168,0,,
1,1791323653696,-914,-1158,9652,452040,-185703,196698,0,0,0,448,346,182,469,355,461,397,96,232,332,143,472,0,,
2,1791323653696,5451,-67,21239,-6763499,1833817,1716531,0,0,0,187,101,112,185,94,216,224,144,168,100,63,165,0,,
1,1791323653712,-856,-1239,9672,410501,-174707,208915,0,0,0,443,344,201,471,346,474,404,105,263,326,136,474,0,,
2,1791323653712,6513,-1100,25379,-6742730,1980425,1865582,0,0,0,185,95,109,179,98,219,224,144,170,100,63,167,0,,
1,1791323653728,-851,-1316,9581,376292,-152716,212581,0,0,0,444,346,205,476,352,485,404,110,264,327,140,477,0,,
2,1791323653728,7226,-3804,29399,-6724404,2327396,1959655,0,0,0,182,96,107,177,94,217,226,144,167,108,75,174,0,,
1,1791323653744,-813,-1373,9533,329867,-117286,212581,0,0,0,459,329,181,471,358,502,390,93,236,327,146,489,0,,
2,1791323653744,5326,-9131,31428,-6838025,2827084,2037846,0,0,0,178,97,105,174,94,217,223,150,170,113,77,181,0,,
1,1791323653760,-756,-1402,9652,278554,-63529,199142,0,0,0,465,340,173,468,374,498,394,89,244,330,145,491,0,,
2,1791323653760,1172,-15506,32600,-6745173,3038443,2063502,0,0,0,177,90,106,178,87,222,227,131,176,108,69,186,0,,
1,1791323653776,-679,-1411,9873,250454,-18325,175929,0,0,0,479,345,179,473,380,485,407,90,245,342,148,492,0,,
2,1791323653776,-1756,-22751,30030,-5959601,2410474,1987755,0,0,0,175,85,109,181,85,229,235,121,181,108,65,187,0,,
1,1791323653792,-636,-1411,10275,268780,-4886,142942,0,0,0,483,356,178,468,411,483,408,104,267,333,155,496,0,,
2,1791323653792,-4,-35711,22416,-4885700,1677435,1354899,0,0,0,174,89,110,185,87,230,243,123,181,111,60,191,0,,
1,1791323653808,-569,-1392,10997,355523,0,102625,0,0,0,498,351,184,482,398,498,440,113,287,337,150,511,0,,
2,1791323653808,-966,-52112,13998,-3584557,1902234,-450818,0,0,0,198,105,117,208,97,226,253,121,180,117,60,195,0,,
1,1791323653824,-397,-1392,11926,598647,-20769,41538,0,0,0,503,344,183,495,387,501,435,115,316,337,146,528,0,,
2,1791323653824,-15783,-56482,12773,-1417207,1980425,-2085493,0,0,0,199,114,117,216,112,223,257,136,179,127,77,183,0,,
1,1791323653840,-488,-1430,12950,937067,-85521,-24434,0,0,0,500,348,189,470,387,503,369,95,272,343,164,525,0,,
2,1791323653840,-24134,-43809,16042,1242499,-152716,-1902234,0,0,0,154,95,93,192,98,222,281,175,174,156,125,165,0,,
1,1791323653856,-1344,-1483,14304,1489289,-213802,-40317,0,0,0,496,372,186,471,392,494,335,96,247,345,179,520,0,,
2,1791323653856,-8245,-16865,20081,3139847,-2952922,-463035,0,0,0,163,94,89,199,95,226,348,251,179,233,215,186,0,,
1,1791323653872,-1823,-1464,15180,2190562,-371406,89186,0,0,0,489,381,195,464,379,484,337,107,267,335,180,519,0,,
2,1791323653872,10586,15726,14831,4491081,-4089131,-59864,0,0,0,175,95,97,194,90,241,366,289,199,260,254,231,0,,
1,1791323653888,-1737,-1368,16166,2902831,-529009,228463,0,0,0,480,365,205,455,362,479,337,112,278,319,168,513,0,,
2,1791323653888,10509,14883,9504,5178915,-4598593,-62308,0,0,0,186,105,110,201,103,256,378,331,204,270,306,248,0,,
1,1791323653904,-2091,-1139,17458,3743382,-630412,368962,0,0,0,466,358,195,458,363,476,332,118,278,304,154,501,0,,
2,1791323653904,655,-5369,12849,5208237,-3391523,956614,0,0,0,197,108,118,205,97,268,399,332,213,295,303,272,0,,
1,1791323653920,-3522,-1134,18808,4773300,-729373,636521,0,0,0,441,364,180,430,369,473,308,117,273,285,150,483,0,,
2,1791323653920,-5058,-7446,18492,5012760,-2261423,1816713,0,0,0,220,120,131,216,86,263,431,346,214,311,318,272,0,,
1,1791323653936,-4216,-1311,21177,5814215,-748920,934623,0,0,0,409,353,172,401,370,452,242,92,210,259,139,456,0,,
2,1791323653936,-5202,191,18899,4521624,-2199114,1342681,0,0,0,218,91,92,253,87,284,493,369,222,333,355,309,0,,
1,1791323653952,-3072,-2129,25340,6866125,-268780,1093448,0,0,0,376,346,178,365,326,390,270,107,220,228,127,424,0,,
2,1791323653952,-2756,512,16329,3463605,-2119702,326202,0,0,0,240,95,87,284,106,294,552,372,220,375,372,349,0,,
1,1791323653968,-3244,-1684,28073,7566176,239459,1099557,0,0,0,299,305,171,315,298,319,273,106,176,204,119,395,0,,
