sole_id,timestamp,accel_x,accel_y,accel_z,gyro_x,gyro_y,gyro_z,magn_x,magn_y,magn_z,pressure_01,pressure_02,pressure_03,pressure_04,pressure_05,pressure_06,pressure_07,pressure_08,pressure_09,pressure_10,pressure_11,pressure_12,corrupt,transition,concrete,asphalt
1,1790859933328,15319,-29691,12098,409279,-692721,777020,0,0,0,189,162,150,256,160,276,333,121,186,184,93,214,0,,,
2,1790859933328,-8858,-29289,18434,5508782,-1910786,-28099,0,0,0,125,78,83,160,83,217,298,315,163,212,253,186,0,,,
1,1790859933344,14615,-23407,13687,1710422,1054353,-860098,0,0,0,186,160,149,256,163,273,334,122,182,191,98,206,0,,,
2,1790859933344,320,4742,22742,5856975,-3330437,17104,0,0,0,125,91,83,158,96,226,296,340,171,208,312,185,0,,,
1,1790859933360,2412,-19176,14371,2315179,1935221,-1777617,0,0,0,174,156,151,258,164,268,326,128,165,221,135,198,0,,,
2,1790859933360,3263,8279,21124,3954741,-2671924,224798,0,0,0,135,99,83,163,106,210,282,344,149,201,313,185,0,,,
1,1790859933376,-5719,-5125,16994,2569299,928515,-1070235,0,0,0,178,156,112,262,166,248,310,222,134,267,242,179,0,,,
2,1790859933376,-497,425,14434,2574186,-1092227,483805,0,0,0,133,94,88,158,87,202,317,344,168,232,321,187,0,,,
1,1790859933392,-5934,28561,15395,3072652,322536,-271224,0,0,0,183,164,112,271,166,274,265,203,127,283,266,205,0,,,
2,1790859933392,-2072,-751,10887,2340835,-572991,239459,0,0,0,154,81,95,177,73,204,354,337,165,297,321,190,0,,,
1,1790859933408,-4077,27001,7867,3871663,410501,-370184,0,0,0,186,184,113,287,183,298,327,251,147,341,324,211,0,,,
2,1790859933408,148,990,11954,2269975,-825889,-123394,0,0,0,168,129,105,170,90,213,375,353,174,276,322,211,0,,,
1,1790859933424,-2263,-875,9088,4708549,0,-1006705,0,0,0,177,165,116,288,174,304,373,339,165,359,360,214,0,,,
2,1790859933424,842,813,12151,1304808,-712268,39095,0,0,0,205,115,112,211,95,205,392,357,180,288,323,231,0,,,
1,1790859933440,1158,-9384,19076,4707327,-256563,-1075122,0,0,0,181,159,134,276,160,302,395,361,169,383,362,219,0,,,
2,1790859933440,110,406,10902,467922,-367740,128281,0,0,0,236,103,124,203,84,205,401,355,170,301,330,221,0,,,
1,1790859933456,1679,-3000,22115,3913202,166155,-295658,0,0,0,190,149,158,270,138,301,423,368,203,413,341,226,0,,,
2,1790859933456,-57,670,9959,144164,-147829,43982,0,0,0,250,104,133,187,81,209,397,358,170,304,344,225,0,,,
1,1790859933472,-1182,2546,15606,2212553,530231,361632,0,0,0,202,148,181,270,136,296,432,365,215,419,332,230,0,,,
2,1790859933472,220,990,9916,142942,-109955,-24434,0,0,0,256,104,131,185,82,206,395,356,164,306,351,225,0,,,
1,1790859933488,-2053,914,10054,1015258,318871,91629,0,0,0,219,164,220,274,155,313,437,368,232,407,322,248,0,x,,
2,1790859933488,363,1000,10083,158824,-107512,-19547,0,0,0,261,106,133,184,81,199,403,360,175,302,349,225,0,x,,
1,1790859933504,-1598,-492,9231,535117,158824,-147829,0,0,0,241,186,258,288,183,344,450,353,266,401,293,293,0,,,
2,1790859933504,325,880,10016,94073,-72082,-2443,0,0,0,267,114,138,181,85,194,400,361,173,292,345,230,0,,,
1,1790859933520,-1177,4,10404,504574,161268,-73303,0,0,0,264,209,272,320,212,362,453,299,275,401,253,344,0,,,
2,1790859933520,296,875,9935,43982,-52534,-2443,0,0,0,278,123,144,186,95,194,397,352,151,289,339,229,0,,,
1,1790859933536,-1172,411,10562,449596,127059,30543,0,0,0,288,239,296,354,229,383,456,280,282,379,223,371,0,,,
2,1790859933536,291,933,9930,40317,-58643,-7330,0,0,0,290,127,149,198,105,199,406,345,151,294,329,224,0,,,
1,1790859933552,-1263,363,10160,388510,25656,67195,0,0,0,304,266,285,374,248,399,468,264,304,349,209,400,0,,,
2,1790859933552,287,952,9930,46425,-63529,-12217,0,0,0,300,130,151,195,110,208,394,331,157,288,317,223,0,,,
1,1790859933568,-1215,215,10160,411723,-90408,43982,0,0,0,318,276,275,389,289,406,466,199,329,342,186,413,0,,,
2,1790859933568,282,947,9920,59864,-64751,-21991,0,0,0,313,137,158,201,119,223,389,316,174,290,317,236,0,,,
1,1790859933584,-1225,162,10313,489913,-197920,32986,0,0,0,321,289,287,396,283,423,427,151,270,318,142,434,0,,,
2,1790859933584,287,966,9892,94073,-69638,-30543,0,0,0,339,137,170,202,134,218,378,284,173,283,272,246,0,,,
1,1790859933600,-1311,95,10423,618195,-278554,46425,0,0,0,351,283,254,434,271,444,413,112,269,324,130,434,0,,,
2,1790859933600,296,1005,9892,149051,-87964,-30543,0,0,0,363,144,213,198,130,221,355,255,200,270,254,283,0,,,
1,1790859933616,-1306,-28,10361,734260,-304210,50090,0,0,0,344,291,208,417,284,445,457,135,311,290,117,451,0,,,
2,1790859933616,296,952,9949,223576,-108734,-24434,0,0,0,370,147,203,219,152,244,365,236,178,262,234,325,0,,,
1,1790859933632,-1387,-138,10366,795346,-334754,42760,0,0,0,357,296,172,420,293,449,465,147,347,273,115,451,0,,,
2,1790859933632,306,851,10007,271224,-111177,-24434,0,0,0,387,196,201,236,155,254,439,204,193,306,208,370,0,,,
1,1790859933648,-1588,-205,10500,814894,-404392,58643,0,0,0,364,295,158,425,296,452,464,137,342,267,110,455,0,,,
2,1790859933648,315,770,10021,276111,-94073,-37873,0,0,0,401,192,205,222,160,263,382,205,214,244,185,386,0,,,
1,1790859933664,-1703,-301,10562,867428,-482583,96516,0,0,0,374,281,157,429,290,459,444,110,301,263,101,459,0,,,
2,1790859933664,277,741,10021,265115,-73303,-50090,0,0,0,452,179,203,247,167,292,374,181,232,234,156,423,0,,,
1,1790859933680,-1746,-425,10567,927293,-498466,130725,0,0,0,384,276,158,424,283,472,437,97,298,261,99,462,0,,,
2,1790859933680,253,717,10059,270002,-51312,-57421,0,0,0,466,189,203,252,193,300,359,145,232,227,115,445,0,,,
1,1790859933696,-1818,-555,10538,960280,-414166,156381,0,0,0,395,281,154,422,286,485,432,95,308,260,104,463,0,,,
2,1790859933696,263,670,10174,306654,-19547,-64751,0,0,0,486,245,198,248,208,312,329,121,242,209,104,470,0,,,
1,1790859933712,-1789,-708,10404,973719,-311541,174707,0,0,0,406,278,148,429,292,491,408,94,291,259,109,462,0,,,
2,1790859933712,277,555,10447,417831,35430,-69638,0,0,0,493,275,165,254,220,318,303,113,232,198,103,485,0,,,
1,1790859933728,-1775,-885,10131,974940,-239459,185703,0,0,0,400,271,156,425,282,494,404,96,297,262,111,471,0,,,
2,1790859933728,220,473,10973,629191,189368,-73303,0,0,0,497,275,147,256,222,324,286,117,227,196,101,501,0,,,
1,1790859933744,-1828,-1038,9944,971275,-204028,199142,0,0,0,407,270,171,430,282,490,341,69,252,260,106,472,0,,,
2,1790859933744,473,402,11567,940732,583987,-114842,0,0,0,518,269,149,258,217,327,273,121,230,193,95,520,0,,,
1,1790859933760,-1847,-1182,9916,959058,-171042,218689,0,0,0,408,280,153,432,301,488,343,76,255,268,114,472,0,,,
2,1790859933760,918,325,12093,1270599,912632,-194255,0,0,0,547,271,147,261,218,320,265,118,229,190,87,535,0,,,
1,1790859933776,-1823,-1320,10016,945619,-97738,228463,0,0,0,424,276,153,436,308,465,336,77,255,279,115,479,0,,,
2,1790859933776,890,349,12356,1551597,833220,-246789,0,0,0,573,285,150,255,220,321,260,117,234,191,89,550,0,,,
1,1790859933792,-1919,-1493,10050,951728,-7330,239459,0,0,0,434,294,150,435,317,473,362,87,258,275,121,489,0,,,
2,1790859933792,607,186,12155,1754404,438601,-194255,0,0,0,593,277,149,265,230,330,251,117,223,187,85,558,0,,,
1,1790859933808,-2086,-1655,9940,977384,59864,274889,0,0,0,463,311,171,422,313,476,297,65,222,260,115,513,0,,,
2,1790859933808,1119,-239,12199,1940107,237015,-158824,0,0,0,605,274,152,267,242,336,236,116,218,185,89,569,0,,,
1,1790859933824,-2029,-1813,9853,1011592,101403,329867,0,0,0,474,318,177,406,334,478,339,85,254,283,131,505,0,,,
2,1790859933824,2144,-713,12773,2195449,221133,-223576,0,0,0,605,237,153,267,247,334,235,120,234,185,99,571,0,,,
1,1790859933840,-1809,-1947,9983,1064127,112399,375071,0,0,0,478,343,182,414,336,476,323,82,238,294,141,499,0,,,
2,1790859933840,1813,-631,13792,2538755,149051,-366519,0,0,0,577,262,164,258,211,321,235,109,252,189,71,538,0,,,
1,1790859933856,-1770,-2062,10528,1166752,120951,398284,0,0,0,481,348,180,421,352,472,292,77,212,302,151,494,0,,,
2,1790859933856,947,-464,14544,2905275,-116064,-419053,0,0,0,574,312,154,288,198,321,253,109,213,195,87,552,0,,,
1,1790859933872,-1904,-2177,11471,1335351,152716,419053,0,0,0,487,331,182,422,346,466,310,88,227,301,149,504,0,,,
2,1790859933872,1215,-717,14649,3334102,-367740,-406836,0,0,0,558,307,138,272,221,326,197,96,187,183,96,527,0,,,
1,1790859933888,-1608,-2278,12677,1679879,160046,444709,0,0,0,493,314,198,422,326,455,325,91,244,309,143,515,0,,,
2,1790859933888,1641,-880,14706,3831346,-474031,-452040,0,0,0,515,272,145,271,251,312,184,83,185,178,82,520,0,,,
1,1790859933904,-1033,-2282,13816,2120924,109955,415388,0,0,0,495,314,210,421,321,440,291,80,240,321,143,519,0,,,
2,1790859933904,1588,-885,15008,4353025,-540004,-526565,0,0,0,473,308,142,266,259,315,151,85,180,155,79,510,0,,,
1,1790859933920,-789,-2258,14931,2687807,20769,327423,0,0,0,494,332,204,418,337,431,266,84,258,306,141,524,0,,,
2,1790859933920,2479,-1354,15314,4954117,-770911,-623082,0,0,0,432,277,133,267,259,330,137,80,177,137,69,501,0,,,
1,1790859933936,-1158,-2225,16094,3459940,-54977,235793,0,0,0,479,355,193,420,377,439,275,95,283,282,142,500,0,,,
2,1790859933936,3943,-2440,16022,5503895,-1039692,-835663,0,0,0,392,264,137,255,261,331,124,83,177,116,64,476,0,,,
1,1790859933952,-2091,-2139,17166,4272391,-52534,228463,0,0,0,443,366,170,410,390,467,230,92,252,277,156,466,0,,,
2,1790859933952,4828,-4273,18635,5936388,-1241278,-1172861,0,0,0,369,232,132,234,236,306,117,80,161,115,61,441,0,,,
1,1790859933968,-3579,-2431,19133,5310862,76969,405614,0,0,0,409,367,163,403,366,444,265,114,285,255,147,446,0,,,
2,1790859933968,5474,-5814,22373,6277251,-1285260,-1508837,0,0,0,333,202,128,203,189,270,121,81,150,117,58,380,0,,,
1,1790859933984,-5130,-3742,22397,6362772,293215,691499,0,0,0,407,316,169,380,334,428,244,104,239,255,125,424,0,,,
2,1790859933984,6231,-5585,25599,6653544,-1070235,-1844813,0,0,0,267,177,120,167,143,220,133,85,146,111,54,292,0,,,
1,1790859934000,-6891,-5924,27350,7406130,509461,1023810,0,0,0,372,275,177,356,302,390,113,34,103,239,119,411,0,,,
2,1790859934000,6403,-2799,27130,7253413,-784350,-2191784,0,0,0,189,122,99,141,96,167,139,86,128,91,44,178,0,,,
1,1790859934016,-7303,-5417,30289,8172155,219911,1317025,0,0,0,334,255,177,309,259,331,165,60,117,201,111,396,0,,,
2,1790859934016,6963,1765,25781,7695680,-795346,-2521651,0,0,0,137,74,88,126,54,143,137,91,107,68,37,97,0,,,
1,1790859934032,-5958,-3761,32084,8940623,-105068,1663996,0,0,0,227,223,169,270,230,288,227,93,141,183,104,288,0,,,
2,1790859934032,7939,7035,18846,7138571,-875980,-2811201,0,0,0,140,77,90,120,53,139,135,91,107,74,47,124,0,,,
1,1790859934048,-8552,172,27370,9220399,-370184,2050063,0,0,0,190,190,155,259,196,266,268,102,152,180,96,218,0,,,
2,1790859934048,7642,8379,11931,5043303,-621860,-2624277,0,0,0,135,77,86,125,57,142,135,87,106,70,39,112,0,,,
1,1790859934064,-10102,5900,18755,7963239,-1060462,2525316,0,0,0,203,178,147,266,174,270,233,82,138,179,93,209,0,,,
2,1790859934064,5384,9160,9222,1656666,-6108,-1623679,0,0,0,141,72,92,129,56,149,139,88,99,77,50,104,0,,,
1,1790859934080,-6068,9006,12849,4495968,-1268156,2392148,0,0,0,210,183,157,258,171,273,235,85,144,174,92,214,0,,,
2,1790859934080,3378,7872,10112,-1317025,6108,-277332,0,0,0,146,74,97,120,53,145,139,89,109,67,39,100,0,,,
1,1790859934096,-2488,9437,11720,300545,-696386,1091005,0,0,0,211,181,157,250,168,262,286,116,173,177,93,208,0,,,
2,1790859934096,3474,5498,9614,-2543642,-299323,609643,0,0,0,146,77,97,125,55,152,146,92,109,75,48,98,0,,,
1,1790859934112,-3211,7279,12959,-2873510,85521,-673173,0,0,0,203,170,144,255,164,258,288,126,180,184,97,202,0,,,
2,1790859934112,4087,4752,7288,-2408030,-219911,978606,0,0,0,145,69,95,127,55,154,146,93,108,72,41,98,0,,,
1,1790859934128,-5001,5939,11548,-3492927,161268,-1164309,0,0,0,199,167,152,252,162,266,289,111,168,182,99,212,0,,,
2,1790859934128,3369,5728,6058,-2646268,237015,1183856,0,0,0,149,80,103,121,63,157,144,99,121,73,41,128,0,,,
1,1790859934144,-4359,6527,9016,-3863111,-174707,-912632,0,0,0,199,163,139,256,162,258,257,97,140,186,99,196,0,,,
2,1790859934144,1981,6465,7145,-3654195,572991,1363451,0,0,0,144,72,101,147,71,158,140,98,123,79,40,152,0,,,
1,1790859934160,-1598,7705,8274,-4940678,-384845,-403171,0,0,0,196,156,139,256,157,253,289,108,156,187,97,200,0,,,
2,1790859934160,1474,5575,8853,-4775744,461814,1472185,0,0,0,145,65,100,138,61,162,146,94,123,96,51,163,0,,,
1,1790859934176,330,7269,9863,-6445850,-31764,-61086,0,0,0,195,155,144,251,149,251,276,100,150,189,96,208,0,,,
2,1790859934176,1943,4393,9394,-5370727,318871,1419650,0,0,0,145,70,100,128,52,162,139,82,112,93,50,160,0,,,
1,1790859934192,569,6087,10897,-7419569,381179,257785,0,0,0,207,149,132,280,142,239,317,109,158,228,95,192,0,,,
2,1790859934192,2727,3665,9356,-5630955,483805,1213178,0,0,0,142,74,95,124,52,153,139,79,111,84,38,142,0,,,
1,1790859934208,-62,4996,10624,-7535633,260228,565661,0,0,0,203,152,145,265,144,251,226,70,114,202,91,195,0,,,
2,1790859934208,2613,3522,10155,-5870414,966388,951728,0,0,0,139,77,91,121,55,148,142,89,114,82,39,129,0,,,
1,1790859934224,-272,3948,10878,-7491651,-171042,879645,0,0,0,196,145,145,259,142,256,287,92,144,198,91,199,0,,,
2,1790859934224,2148,3321,11591,-6126978,1346346,726929,0,0,0,128,68,87,117,54,153,142,92,118,80,44,122,0,,,
1,1790859934240,-62,3268,12093,-7334048,-739146,1011592,0,0,0,198,144,141,265,141,252,329,109,163,197,90,196,0,,,
2,1790859934240,1785,3034,13385,-6384763,1593136,540004,0,0,0,123,59,90,118,50,160,142,84,128,80,47,119,0,,,
1,1790859934256,-38,2742,13491,-7150788,-1198517,808785,0,0,0,201,147,141,266,142,253,334,110,162,198,90,196,0,,,
2,1790859934256,1521,2617,15118,-6586349,1777617,453262,0,0,0,135,73,99,126,56,164,142,84,127,85,51,119,0,,,
1,1790859934272,-421,2077,14730,-6917437,-1536936,431270,0,0,0,199,147,144,265,145,260,332,109,163,201,90,201,0,,,
2,1790859934272,1330,1995,16994,-6665761,1962099,475253,0,0,0,135,70,99,126,58,167,146,87,128,82,44,117,0,,,
1,1790859934288,-1009,1713,16377,-6691417,-1822821,57421,0,0,0,198,148,144,266,149,262,333,108,165,202,92,203,0,,,
2,1790859934288,1555,1373,19526,-6621779,2230879,624304,0,0,0,141,71,100,140,48,168,161,90,143,94,50,124,0,,,
1,1790859934304,-1062,1426,18492,-6663318,-2041511,-205250,0,0,0,200,153,145,269,149,260,308,96,150,202,93,201,0,,,
2,1790859934304,1474,717,22469,-6653544,2498438,833220,0,0,0,157,68,97,182,45,164,174,90,134,115,34,121,0,,,
1,1790859934320,-536,-9,20890,-6825808,-2096489,-436157,0,0,0,206,153,148,279,144,260,280,88,140,205,91,200,0,,,
2,1790859934320,674,-957,25709,-6745173,2566855,1148426,0,0,0,162,73,98,184,53,165,178,83,128,114,40,121,0,,,
1,1790859934336,-4,-3948,22962,-6838025,-2106263,-695164,0,0,0,212,149,147,296,142,257,299,101,156,211,89,199,0,,,
2,1790859934336,-363,-4886,28097,-6673091,2348165,1446528,0,0,0,137,71,98,139,56,167,163,85,134,83,46,118,0,,,
1,1790859934352,1095,-10643,25398,-6610783,-2257757,-966388,0,0,0,211,151,141,301,146,255,317,98,150,215,93,196,0,,,
2,1790859934352,-2057,-9858,29480,-6459289,2065946,1629788,0,0,0,134,66,98,142,46,165,169,83,134,93,45,126,0,,,
1,1790859934368,4139,-19645,26925,-6142860,-2346944,-1021366,0,0,0,210,153,138,300,150,258,325,104,155,216,97,196,0,,,
2,1790859934368,-4240,-15046,28757,-6097656,1563815,1847256,0,0,0,139,73,106,140,56,175,174,91,143,88,37,119,0,,,
1,1790859934384,8442,-28824,26149,-5429370,-1929112,-944397,0,0,0,196,153,141,275,153,263,328,110,162,202,98,198,0,,,
2,1790859934384,-3230,-21598,25546,-5505117,695164,2131919,0,0,0,135,75,102,137,57,174,192,101,145,101,49,126,0,,,
1,1790859934400,9356,-34261,22306,-4372573,-875980,-877202,0,0,0,212,156,141,297,151,257,340,109,156,216,96,195,0,,,
2,1790859934400,3034,-31170,19526,-4607145,-102625,1882686,0,0,0,131,76,100,135,57,174,170,92,139,93,44,127,0,,,
1,1790859934416,5747,-37496,18219,-3187494,151494,-730594,0,0,0,198,155,148,281,154,265,338,118,171,209,96,197,0,,,
2,1790859934416,4029,-42019,13553,-3101973,599869,87964,0,0,0,134,76,104,138,59,178,168,91,142,85,44,125,0,,,
1,1790859934432,-540,-39181,14874,-1847256,690277,-337197,0,0,0,201,155,148,283,150,262,341,115,169,206,92,197,0,,,
2,1790859934432,-7590,-44268,13146,-1491732,1392772,-1582140,0,0,0,128,78,87,148,72,176,189,140,132,93,75,109,0,,,
1,1790859934448,-1507,-37985,13472,-454483,282219,10995,0,0,0,174,149,142,265,150,259,306,117,147,237,149,182,0,,,
2,1790859934448,-16123,-40148,18918,559552,76969,-1618792,0,0,0,119,82,75,149,75,173,234,197,132,129,117,112,0,,,
1,1790859934464,2187,-31768,14893,959058,-119729,-52534,0,0,0,178,147,122,269,152,256,321,186,143,279,213,175,0,,,
2,1790859934464,-8877,-24450,19684,3382971,-2103819,-899193,0,0,0,121,90,78,156,90,185,273,247,145,164,167,135,0,,,
1,1790859934480,5130,-6317,16731,3046995,449596,-656069,0,0,0,176,151,106,283,178,270,297,210,129,283,256,178,0,,,
2,1790859934480,4484,-90,15142,5218010,-3464827,-377514,0,0,0,124,112,76,165,109,198,287,295,151,183,209,148,0,,,
1,1790859934496,1340,13744,12337,4707327,1379333,-949284,0,0,0,177,163,103,291,191,285,320,255,143,290,295,194,0,,,
2,1790859934496,6676,5379,14261,4924795,-3068986,340862,0,0,0,126,117,78,167,99,207,301,324,156,204,232,159,0,,,
1,1790859934512,-435,4163,13759,4955338,1138652,-850324,0,0,0,189,169,109,291,176,293,382,323,170,315,333,212,0,,,
2,1790859934512,703,210,16128,3960850,-1704314,1175304,0,0,0,133,93,85,173,80,215,320,331,161,221,248,172,0,,,
1,1790859934528,253,-4498,16999,4190535,498466,-696386,0,0,0,187,164,118,280,163,298,386,342,169,334,360,220,0,,,
2,1790859934528,-5149,-1722,16453,3232698,-855211,1095892,0,0,0,143,86,89,172,67,215,338,327,162,234,259,180,0,,,
1,1790859934544,1579,-1971,18085,3423288,234572,-388510,0,0,0,179,160,132,261,157,299,397,363,179,365,373,229,0,,,
2,1790859934544,-2144,564,14754,2783102,-987158,69638,0,0,0,168,81,97,173,63,210,367,331,171,255,279,194,0,,,
1,1790859934560,157,837,16357,2742784,375071,35430,0,0,0,181,150,164,260,146,304,413,371,192,382,366,238,0,,,
2,1790859934560,1823,1134,13046,2064724,-996932,-271224,0,0,0,168,81,119,163,62,207,392,344,180,275,296,195,0,,,
1,1790859934576,-1368,794,12888,1585806,455705,120951,0,0,0,195,150,176,266,141,300,447,407,223,396,361,247,0,,,
2,1790859934576,1335,406,11466,1155757,-624304,47647,0,0,0,169,84,132,156,60,218,394,345,191,285,301,206,0,,,
1,1790859934592,-1162,110,10155,454483,386066,-73303,0,0,0,218,166,197,275,154,295,449,410,218,422,350,231,0,,,
2,1790859934592,210,196,10437,427605,-298102,168598,0,0,0,176,91,132,162,58,207,417,346,190,279,296,201,0,,,
1,1790859934608,-583,507,10035,149051,212581,-113620,0,0,0,235,170,214,275,151,292,446,403,211,424,356,238,0,,,
2,1790859934608,119,631,10069,120951,-173485,65973,0,0,0,192,90,159,162,61,217,413,338,183,278,294,196,0,,,
1,1790859934624,-526,952,10222,127059,61086,-65973,0,0,0,232,175,236,268,157,297,436,369,209,420,355,247,0,,,
2,1790859934624,559,923,10002,98960,-142942,-4886,0,0,0,200,86,152,199,61,240,430,337,174,300,301,198,0,,,
1,1790859934640,-760,1019,10179,171042,-12217,-12217,0,0,0,234,173,251,279,169,310,417,316,189,429,355,249,0,,,
2,1790859934640,674,918,9992,108734,-111177,-4886,0,0,0,199,81,158,190,55,257,425,331,196,301,299,208,0,,,
1,1790859934656,-760,890,10011,136833,-40317,-3665,0,0,0,242,174,255,283,169,315,416,305,184,433,351,254,0,,,
2,1790859934656,579,847,9992,90408,-74525,3665,0,0,0,201,84,159,186,60,253,429,330,204,297,294,205,0,,,
1,1790859934672,-717,880,9987,122173,-76969,0,0,0,0,248,176,245,291,174,320,420,309,198,431,335,260,0,,,
2,1790859934672,545,851,9964,72082,-47647,0,0,0,0,199,95,162,190,82,259,427,330,203,292,289,200,0,,,
1,1790859934688,-717,933,10040,156381,-108734,7330,0,0,0,258,179,242,305,190,323,374,246,159,425,317,269,0,,,
2,1790859934688,588,890,9940,74525,-37873,-2443,0,0,0,195,96,162,190,85,255,417,327,195,286,282,195,0,,,
1,1790859934704,-737,938,10035,194255,-136833,13439,0,0,0,269,179,245,319,191,342,372,205,160,425,296,289,0,,,
2,1790859934704,598,904,9920,91629,-35430,-4886,0,0,0,195,95,171,180,76,256,405,323,196,277,281,207,0,,,
1,1790859934720,-765,871,9997,212581,-157603,18325,0,0,0,278,179,246,338,183,351,381,177,163,422,267,303,0,,,
2,1790859934720,603,904,9916,112399,-36651,-13439,0,0,0,196,94,176,179,82,260,396,297,192,281,264,220,0,,,
1,1790859934736,-808,823,9987,213802,-166155,26878,0,0,0,283,179,249,352,180,351,375,156,161,411,235,317,0,,,
2,1790859934736,617,885,9935,138055,-42760,-26878,0,0,0,196,92,173,194,94,247,397,262,180,285,218,220,0,,,
1,1790859934752,-851,818,10026,218689,-164933,45204,0,0,0,287,180,251,344,176,367,411,201,234,393,214,349,0,,,
2,1790859934752,641,851,9944,172263,-57421,-36651,0,0,0,203,100,198,201,100,251,405,243,196,262,194,237,0,,,
1,1790859934768,-875,813,10050,249233,-164933,64751,0,0,0,292,204,256,331,180,370,420,220,254,356,224,354,0,,,
2,1790859934768,622,808,9949,200363,-72082,-36651,0,0,0,224,107,227,209,111,266,394,215,199,263,190,258,0,,,
1,1790859934784,-875,770,10050,283441,-166155,78190,0,0,0,291,199,250,360,180,371,400,159,227,350,178,371,0,,,
2,1790859934784,598,770,9954,211359,-75747,-30543,0,0,0,235,126,240,220,125,268,384,216,203,241,163,279,0,,,
1,1790859934800,-875,703,10050,320093,-161268,87964,0,0,0,287,209,250,345,196,419,409,142,283,346,169,403,0,,,
2,1790859934800,598,746,9987,219911,-68416,-26878,0,0,0,241,145,234,226,147,274,391,175,200,225,139,312,0,,,
1,1790859934816,-923,650,10074,353080,-147829,98960,0,0,0,278,218,246,374,211,406,415,147,273,317,153,408,0,,,
2,1790859934816,617,737,10021,239459,-53756,-29321,0,0,0,263,129,249,225,147,281,378,151,210,211,116,350,0,,,
1,1790859934832,-909,583,10160,399505,-140499,107512,0,0,0,293,240,240,379,224,407,428,148,302,303,132,415,0,,,
2,1790859934832,641,689,10054,270002,-37873,-37873,0,0,0,293,141,259,250,159,300,401,149,230,205,103,392,0,,,
1,1790859934848,-942,502,10275,480140,-149051,109955,0,0,0,305,250,229,402,235,422,410,107,277,305,122,421,0,,,
2,1790859934848,650,626,10102,296880,-12217,-51312,0,0,0,319,155,259,266,170,323,389,105,231,188,90,397,0,,,
1,1790859934864,-1043,411,10380,575435,-141720,124616,0,0,0,310,268,224,397,271,424,407,102,281,302,124,430,0,,,
2,1790859934864,679,579,10217,348193,28099,-69638,0,0,0,345,183,241,282,197,306,383,101,232,222,82,426,0,,,
1,1790859934880,-1100,335,10476,657290,-102625,152716,0,0,0,340,276,212,412,280,428,401,81,240,301,122,434,0,,,
2,1790859934880,784,531,10485,459370,123394,-97738,0,0,0,363,174,208,297,206,322,343,85,246,204,77,455,0,,,
1,1790859934896,-1062,253,10667,747699,-51312,178372,0,0,0,371,282,195,418,277,436,446,91,262,277,110,461,0,,,
2,1790859934896,1028,459,10926,660956,294437,-152716,0,0,0,380,182,175,307,231,354,332,81,233,194,70,481,0,,,
1,1790859934912,-1148,167,10863,847880,-1221,197920,0,0,0,398,293,178,437,295,434,475,120,304,273,114,478,0,,,
2,1790859934912,1057,382,11462,934623,395840,-228463,0,0,0,390,177,139,338,249,360,321,84,233,185,69,508,0,,,
1,1790859934928,-1387,23,10993,989601,51312,251676,0,0,0,423,329,166,447,328,442,467,134,319,283,131,481,0,,,
2,1790859934928,842,315,11816,1208291,367740,-263893,0,0,0,406,176,115,330,255,350,311,97,246,187,69,540,0,,,
1,1790859934944,-1402,-105,11136,1139874,87964,331088,0,0,0,441,360,161,433,351,461,459,129,316,283,140,490,0,,,
2,1790859934944,784,167,11686,1450194,272445,-249233,0,0,0,440,181,107,318,264,355,284,97,244,187,66,566,0,,,
1,1790859934960,-1048,-263,11299,1295034,111177,388510,0,0,0,455,348,153,448,356,462,448,125,295,303,145,496,0,,,
2,1790859934960,938,-76,11481,1660331,217468,-228463,0,0,0,464,192,107,321,281,359,266,96,238,186,67,585,0,,,
1,1790859934976,-717,-464,11342,1450194,65973,376292,0,0,0,465,367,155,455,368,471,438,135,302,317,151,497,0,,,
2,1790859934976,1225,-272,11907,1852143,202807,-232128,0,0,0,465,204,107,316,278,345,258,98,225,187,69,599,0,,,
1,1790859934992,-607,-641,11610,1626123,-20769,339641,0,0,0,480,357,170,437,350,466,414,122,299,298,144,520,0,,,
2,1790859934992,1593,-382,12888,2111150,138055,-287106,0,0,0,470,200,113,303,247,333,246,91,206,187,66,607,0,,,
1,1790859935008,-569,-770,12423,1902234,-124616,293215,0,0,0,462,358,176,445,395,453,427,120,268,325,154,519,0,,,
2,1790859935008,1751,-497,13711,2472782,25656,-365297,0,0,0,496,206,127,296,222,343,258,95,219,189,64,616,0,,,
1,1790859935024,-416,-847,13338,2235766,-185703,238237,0,0,0,483,352,188,437,371,453,401,129,275,308,157,515,0,,,
2,1790859935024,1517,-598,14204,2899166,-70860,-427605,0,0,0,511,252,144,289,205,355,236,88,208,172,71,614,0,,,
1,1790859935040,-689,-966,14276,2660928,-201585,178372,0,0,0,476,354,195,437,377,462,310,104,236,316,167,507,0,,,
2,1790859935040,1072,-612,14635,3426953,-122173,-434936,0,0,0,508,258,143,274,208,337,208,97,204,173,83,603,0,,,
1,1790859935056,-1435,-1076,15022,3207042,-179594,205250,0,0,0,484,337,205,418,349,447,302,105,252,308,152,511,0,,,
2,1790859935056,765,-603,14993,3973067,-179594,-397062,0,0,0,491,319,133,263,224,342,172,93,223,159,78,546,0,,,
1,1790859935072,-1555,-1009,15903,3800803,-124616,289550,0,0,0,477,338,192,436,340,447,260,85,240,313,144,492,0,,,
2,1790859935072,1014,-784,15252,4516737,-278554,-348193,0,0,0,433,320,127,256,240,341,143,88,206,142,78,498,0,,,
1,1790859935088,-1809,-923,16917,4493524,18325,384845,0,0,0,458,346,172,423,356,449,205,68,215,279,140,473,0,,x,
2,1790859935088,2455,-1277,15931,5139820,-466701,-406836,0,0,0,385,302,127,283,241,334,135,80,185,150,62,477,0,,x,
1,1790859935104,-2828,-1148,18176,5400048,294437,572991,0,0,0,419,360,160,413,372,426,204,76,217,251,138,450,0,,,
2,1790859935104,4407,-2306,17386,5817880,-747699,-629191,0,0,0,363,279,132,286,243,315,142,79,178,162,82,457,0,,,
1,1790859935120,-3943,-2120,20693,6395759,690277,852767,0,0,0,389,351,159,400,355,407,232,93,232,249,135,431,0,,,
2,1790859935120,6231,-4795,20976,6458067,-998153,-1032362,0,0,0,337,197,126,234,184,287,120,69,147,139,61,405,0,,,
1,1790859935136,-4613,-3881,24139,7183775,1095892,1097113,0,0,0,384,305,165,367,316,390,234,95,216,238,122,420,0,,,
2,1790859935136,7197,-6494,25283,6893003,-878424,-1420872,0,0,0,299,152,117,197,156,254,124,67,137,118,55,349,0,,,
1,1790859935152,-4407,-4508,26561,7799527,1193630,1248608,0,0,0,361,259,171,332,278,353,218,84,178,210,106,403,0,,,
2,1790859935152,6398,-5049,28547,7332826,-423940,-1820378,0,0,0,241,119,104,171,117,212,131,80,119,109,51,265,0,,,
1,1790859935168,-3038,-2833,28906,8428718,1196074,1318247,0,0,0,300,237,164,282,239,320,218,79,160,183,96,366,0,,,
2,1790859935168,5953,-1450,29590,7929030,-382401,-2147802,0,0,0,174,84,96,147,70,186,115,62,102,91,38,150,0,,,
1,1790859935184,-4996,-1277,29040,9010262,1369559,1365894,0,0,0,251,216,147,273,234,290,220,91,131,180,99,254,0,,,
2,1790859935184,7805,4843,24814,8065864,-476474,-2428800,0,0,0,141,70,94,135,50,181,123,65,106,81,36,109,0,,,
1,1790859935200,-8312,2818,22349,8809898,989601,1481959,0,0,0,212,201,163,279,207,278,99,30,51,190,110,218,0,,,
2,1790859935200,8738,10145,16027,6698748,-131946,-2626720,0,0,0,139,64,95,133,51,180,136,81,111,79,48,120,0,,,
1,1790859935216,-5920,5972,14295,7005402,291993,1463633,0,0,0,213,186,160,275,194,271,187,71,106,188,104,210,0,,,
2,1790859935216,6929,12237,11237,4045149,397062,-2202780,0,0,0,137,60,97,131,54,173,136,78,112,83,47,123,0,,,
1,1790859935232,-2282,7188,9815,4238183,508239,788016,0,0,0,207,175,142,274,190,275,203,72,105,183,101,205,0,,,
2,1790859935232,3249,12821,11179,-10995,590095,-833220,0,0,0,134,63,97,128,51,166,141,80,117,95,43,130,0,,,
1,1790859935248,-2402,7418,9136,774577,1227839,-388510,0,0,0,209,168,139,282,177,264,225,78,123,178,98,199,0,,,
2,1790859935248,2866,9734,12720,-2736676,-69638,542448,0,0,0,137,65,97,128,47,171,141,83,115,90,54,131,0,,,
1,1790859935264,-6054,5388,9461,-2068389,1125213,-960280,0,0,0,213,166,147,270,175,262,231,87,131,179,97,197,0,,,
2,1790859935264,4412,6570,11404,-3400075,-475253,1099557,0,0,0,141,69,107,132,50,178,140,81,112,77,39,125,0,,,
1,1790859935280,-7044,3493,8475,-3084869,326202,-521678,0,0,0,206,170,144,262,172,256,261,102,147,183,97,199,0,,,
2,1790859935280,5096,5738,8212,-3121521,-180816,952949,0,0,0,137,64,104,133,53,182,131,78,108,77,31,125,0,,,
1,1790859935296,-4513,3967,7030,-3221703,-232128,233350,0,0,0,198,168,142,260,171,255,256,97,145,183,98,199,0,,,
2,1790859935296,3464,6862,7537,-3805690,350636,724486,0,0,0,136,74,106,128,55,178,131,75,114,79,37,128,0,,,
1,1790859935312,-2306,5130,6637,-3922976,-329867,592539,0,0,0,195,162,140,255,169,255,249,91,139,183,97,195,0,,,
2,1790859935312,1971,6800,8973,-5066516,514348,627969,0,0,0,135,59,106,130,45,181,145,68,133,78,46,117,0,,,
1,1790859935328,-1847,4962,7829,-5046968,-175929,420275,0,0,0,196,162,138,255,166,251,247,90,132,185,96,192,0,,,
2,1790859935328,1971,5221,10064,-5798332,370184,555887,0,0,0,135,59,107,123,42,191,148,81,136,87,39,133,0,,,
1,1790859935344,-1866,4082,8877,-5810550,-32986,184481,0,0,0,201,164,140,260,168,252,224,82,121,182,98,196,0,,,
2,1790859935344,2364,4125,10203,-6085439,406836,456927,0,0,0,141,63,109,130,53,191,147,84,130,87,45,126,0,,,
1,1790859935360,-2316,3134,9193,-6144082,31764,-58643,0,0,0,197,163,142,249,167,252,253,92,136,180,99,202,0,,,
2,1790859935360,2641,3795,10409,-6283359,734260,411723,0,0,0,135,62,105,135,57,187,152,92,139,63,24,121,0,,,
1,1790859935376,-2818,2598,9633,-6284581,-191811,-274889,0,0,0,190,161,140,244,164,254,282,109,153,181,98,203,0,,,
2,1790859935376,2330,3488,11897,-6565579,1123992,540004,0,0,0,133,64,103,130,49,183,149,81,128,72,26,119,0,,,
1,1790859935392,-2871,2244,10863,-6486167,-593761,-493579,0,0,0,195,161,147,249,164,253,305,118,162,182,97,193,0,,,
2,1790859935392,2230,2780,13677,-6696304,1264491,759916,0,0,0,133,64,107,128,52,182,151,80,130,70,30,123,0,,,
1,1790859935408,-2747,1813,12213,-6681643,-878424,-641408,0,0,0,195,161,137,249,164,253,308,120,162,182,97,191,0,,,
2,1790859935408,2890,1957,15486,-6693861,1249830,1021366,0,0,0,136,66,107,132,53,183,155,82,125,76,36,121,0,,,
1,1790859935424,-2943,976,13692,-6806260,-1152091,-725707,0,0,0,192,162,140,252,165,255,309,120,162,185,98,192,0,,,
2,1790859935424,3919,1320,17616,-6737843,1330464,1270599,0,0,0,137,72,109,135,45,183,156,82,122,88,47,129,0,,,
1,1790859935440,-3297,4,15070,-6731734,-1448972,-632856,0,0,0,193,163,144,253,164,263,310,118,169,181,95,199,0,,,
2,1790859935440,4752,808,20047,-6893003,1574810,1445307,0,0,0,130,70,108,135,44,186,152,83,120,86,48,131,0,,,
1,1790859935456,-3297,-435,16649,-6543588,-1789835,-344527,0,0,0,193,161,145,253,163,268,310,118,171,179,95,201,0,,,
2,1790859935456,4905,-540,23024,-7112914,1875356,1650557,0,0,0,125,65,105,137,48,188,150,80,119,77,42,123,0,,,
1,1790859935472,-2900,-550,18865,-6438519,-2111150,-7330,0,0,0,193,161,144,253,163,268,310,118,170,180,95,202,0,,,
2,1790859935472,4493,-3656,25752,-7246083,2059837,1935221,0,0,0,123,63,104,137,51,185,154,76,125,78,41,118,0,,,
1,1790859935488,-1718,-1148,21526,-6533814,-2274862,133168,0,0,0,193,162,143,253,164,268,312,116,170,181,94,204,0,,,
2,1790859935488,3742,-9317,27585,-7114136,2158797,2112371,0,0,0,123,60,105,136,51,185,162,82,132,86,40,122,0,,,
1,1790859935504,-210,-3575,24144,-6690196,-2365270,-78190,0,0,0,194,164,144,254,164,269,313,113,170,181,91,204,0,,,
2,1790859935504,1588,-17516,27858,-6596122,2173458,1765400,0,0,0,127,68,105,139,51,190,165,84,128,87,39,133,0,,,
1,1790859935520,1349,-9351,26077,-6670648,-2605951,-581543,0,0,0,194,166,147,254,164,269,312,114,172,183,92,204,0,,,
2,1790859935520,-1536,-24091,26532,-5909510,1821600,1174082,0,0,0,124,65,98,143,58,192,166,81,123,84,41,129,0,,,
1,1790859935536,3608,-16917,26910,-6438519,-2831971,-877202,0,0,0,191,165,145,255,163,271,312,116,172,207,94,203,0,,,
2,1790859935536,-3019,-29150,23158,-4924795,880867,719599,0,0,0,119,68,99,143,54,191,170,88,126,83,34,129,0,,,
1,1790859935552,7351,-26116,25427,-5800776,-2590068,-796568,0,0,0,190,166,143,255,162,271,310,114,171,233,94,199,0,,,
2,1790859935552,-1809,-33744,19267,-3914424,212581,500909,0,0,0,120,68,99,138,57,186,165,86,127,99,49,153,0,,,
1,1790859935568,9605,-31878,21584,-4801400,-1492954,-547335,0,0,0,194,168,141,259,162,269,313,114,166,184,91,202,0,,,
2,1790859935568,-2512,-39937,16836,-2668259,111177,287106,0,0,0,143,73,91,137,55,182,211,151,136,112,97,138,0,,,
1,1790859935584,7762,-35821,17243,-3597996,-90408,-237015,0,0,0,193,163,134,264,161,263,319,118,163,194,101,202,0,,,
2,1790859935584,-10356,-49250,21856,-54977,-439822,223576,0,0,0,127,65,131,151,73,221,260,263,181,156,182,165,0,,,
1,1790859935600,3086,-38444,14840,-2190562,621860,317649,0,0,0,190,141,119,247,136,257,343,150,164,234,147,198,0,,,
2,1790859935600,-12356,-42852,20708,3889989,-1725083,469144,0,0,0,127,76,85,159,80,204,285,297,150,175,199,150,0,,,
1,1790859935616,6441,-42679,16400,-252898,993266,509461,0,0,0,163,156,128,258,168,260,288,189,132,257,224,177,0,,,
2,1790859935616,-3211,-8021,16487,6288246,-2180788,714712,0,0,0,128,81,71,171,88,204,311,308,136,206,262,157,0,,,
1,1790859935632,11500,-35333,16525,3314554,2124589,-166155,0,0,0,197,183,119,270,168,302,316,222,153,281,266,210,0,,,
2,1790859935632,1488,8571,19416,5307197,-1676214,620639,0,0,0,139,89,84,171,86,198,312,317,139,232,305,159,0,,,
1,1790859935648,5077,-4623,16597,5281540,1932777,-952949,0,0,0,203,185,122,269,168,313,348,281,184,285,281,213,0,,,
2,1790859935648,-622,2258,23062,3414736,-1689653,268780,0,0,0,149,91,98,159,81,194,326,340,153,243,325,170,0,,,
1,1790859935664,655,8566,17415,4758640,755029,-984714,0,0,0,215,182,118,288,164,288,328,253,143,326,302,207,0,,,
2,1790859935664,-923,-1244,16702,1944994,-1222952,-52534,0,0,0,159,84,130,155,68,212,355,338,167,272,328,194,0,,,
1,1790859935680,832,1904,16295,3156951,241902,-193033,0,0,0,204,180,145,278,163,300,326,268,146,331,310,225,0,,,
2,1790859935680,636,1100,9423,1298699,-504574,-79412,0,0,0,171,87,144,156,62,207,383,335,160,322,338,190,0,,,
1,1790859935696,81,-1201,13156,2653598,753807,442266,0,0,0,200,172,160,269,154,305,379,318,176,353,321,237,0,,,
2,1790859935696,1215,2287,8944,1143539,-300545,45204,0,0,0,176,92,136,157,60,190,410,337,152,359,359,176,0,,,
1,1790859935712,-1459,-129,12821,2735454,1012814,433714,0,0,0,202,161,170,282,152,310,418,345,196,383,332,243,0,,,
2,1790859935712,856,1608,10394,810007,-346971,114842,0,0,0,175,93,144,162,62,197,417,342,160,363,378,180,0,,,
1,1790859935728,-1172,229,13333,2072054,835663,70860,0,0,0,219,165,194,288,151,313,430,352,209,401,328,248,0,,,
2,1790859935728,416,985,10725,428827,-331088,90408,0,0,0,176,96,153,167,66,207,407,354,162,353,377,183,0,,,
1,1790859935744,-172,-129,12222,904080,504574,-106290,0,0,0,240,199,212,286,164,313,439,369,224,413,329,253,0,,,
2,1790859935744,636,1383,9978,263893,-167377,31764,0,0,0,176,94,136,164,61,196,422,344,157,349,347,170,0,,,
1,1790859935760,124,0,10265,-20769,189368,-59864,0,0,0,248,227,224,288,191,320,442,378,231,415,337,267,0,,,
2,1790859935760,741,1675,9724,222354,-62308,0,0,0,0,183,93,146,165,60,196,436,329,170,327,324,161,0,,,
1,1790859935776,-373,569,9892,10995,92851,-6108,0,0,0,260,211,242,287,184,324,441,358,218,425,332,275,0,,,
2,1790859935776,722,1703,9782,232128,-30543,-23212,0,0,0,179,89,153,163,59,197,445,307,193,314,298,163,0,,,
1,1790859935792,-540,770,10093,139277,47647,-1221,0,0,0,253,190,233,302,183,332,445,355,219,435,329,269,0,,,
2,1790859935792,760,1636,9806,282219,-42760,-35430,0,0,0,178,80,131,173,62,182,444,291,165,328,289,141,0,,,
1,1790859935808,-416,698,10150,134390,0,-7330,0,0,0,267,196,242,312,201,327,426,313,199,435,335,282,0,,,
2,1790859935808,832,1641,9782,345749,-59864,-51312,0,0,0,202,92,149,171,46,173,452,277,149,333,275,151,0,,,
1,1790859935824,-363,650,10050,108734,-48869,-1221,0,0,0,276,223,255,316,222,338,396,241,164,436,319,287,0,,,
2,1790859935824,914,1679,9758,428827,-89186,-92851,0,0,0,180,82,141,167,47,173,444,285,165,327,277,146,0,,,
1,1790859935840,-406,660,9987,122173,-72082,7330,0,0,0,288,223,260,320,231,341,363,191,138,439,316,303,0,,,
2,1790859935840,914,1488,9820,533896,-128281,-161268,0,0,0,188,86,156,167,49,168,437,281,154,360,270,144,0,,,
1,1790859935856,-435,670,10031,166155,-84299,13439,0,0,0,275,226,268,321,249,356,400,226,194,435,282,332,0,,,
2,1790859935856,847,1167,9887,559552,-134390,-182037,0,0,0,190,83,164,165,54,200,445,267,181,329,258,159,0,,,
1,1790859935872,-445,641,10102,195476,-102625,19547,0,0,0,281,232,267,322,227,357,390,186,167,430,270,340,0,,,
2,1790859935872,741,1009,9868,481361,-102625,-128281,0,0,0,202,83,189,169,57,235,455,245,191,323,244,195,0,,,
1,1790859935888,-464,593,10098,200363,-124616,28099,0,0,0,295,234,265,336,216,361,387,159,158,433,246,352,0,,,
2,1790859935888,689,1028,9853,417831,-80634,-76969,0,0,0,208,90,193,172,60,234,446,214,192,309,213,202,0,,,
1,1790859935904,-502,564,10064,201585,-138055,37873,0,0,0,303,244,275,343,224,380,392,159,184,410,231,371,0,,,
2,1790859935904,689,1062,9968,432492,-75747,-59864,0,0,0,215,94,200,191,80,227,469,195,186,305,182,226,0,,,
1,1790859935920,-526,545,10054,210137,-139277,50090,0,0,0,300,254,274,358,240,387,409,175,223,370,213,381,0,,,
2,1790859935920,713,1019,10098,527787,-95294,-62308,0,0,0,229,113,226,212,113,244,481,194,186,294,155,243,0,,,
1,1790859935936,-507,521,10126,245567,-142942,59864,0,0,0,301,264,271,366,251,393,428,181,253,337,189,390,0,,,
2,1790859935936,737,899,10054,652404,-133168,-72082,0,0,0,246,146,253,224,142,270,453,175,200,270,137,274,0,,,
1,1790859935952,-521,483,10203,299323,-157603,64751,0,0,0,324,282,273,368,269,408,433,168,267,325,175,410,0,,,
2,1790859935952,713,775,9968,668286,-113620,-79412,0,0,0,275,157,278,238,147,297,427,138,221,254,120,324,0,,,
1,1790859935968,-516,425,10217,361632,-172263,69638,0,0,0,365,295,266,386,296,420,425,147,269,325,166,428,0,,,
2,1790859935968,670,679,9997,610865,-31764,-81855,0,0,0,315,142,293,259,140,317,434,112,232,241,95,356,0,,,
1,1790859935984,-512,363,10289,433714,-189368,69638,0,0,0,389,288,261,408,290,431,413,119,251,309,142,435,0,,,
2,1790859935984,641,588,10083,621860,47647,-84299,0,0,0,338,154,267,281,162,311,428,97,221,207,80,381,0,,,
1,1790859936000,-574,272,10452,542448,-216246,70860,0,0,0,384,290,235,401,294,432,426,103,255,297,125,445,0,,,
2,1790859936000,646,483,10203,656069,78190,-80634,0,0,0,352,154,235,297,170,323,414,88,213,196,80,415,0,,,
1,1790859936016,-746,162,10667,658512,-228463,90408,0,0,0,404,318,209,421,318,439,412,93,255,297,130,452,0,,,
2,1790859936016,746,363,10366,703716,109955,-80634,0,0,0,360,151,209,295,195,333,383,85,230,187,64,447,0,,,
1,1790859936032,-894,81,11060,783129,-248011,135612,0,0,0,404,319,164,421,332,436,445,128,289,277,130,459,0,,,
2,1790859936032,957,263,10653,825889,240680,-108734,0,0,0,367,158,170,301,212,340,369,83,236,175,50,479,0,,,
1,1790859936048,-875,9,11409,971275,-293215,189368,0,0,0,421,317,156,450,332,443,373,86,215,297,132,459,0,,,
2,1790859936048,1220,153,11131,1009149,430049,-178372,0,0,0,380,159,141,313,204,349,342,72,243,175,52,526,0,,,
1,1790859936064,-799,-86,11552,1170417,-287106,221133,0,0,0,417,339,156,440,330,452,402,105,250,290,136,466,0,,,
2,1790859936064,1253,124,11797,1232726,563217,-266337,0,0,0,391,178,109,318,247,343,322,94,243,174,68,549,0,,,
1,1790859936080,-890,-229,11557,1348790,-226020,233350,0,0,0,432,340,147,437,335,448,365,101,233,285,137,479,0,,,
2,1790859936080,1062,57,12041,1450194,438601,-272445,0,0,0,412,184,119,311,231,351,302,99,243,179,55,572,0,,,
1,1790859936096,-971,-459,11442,1530828,-196698,266337,0,0,0,458,333,157,432,346,452,365,99,245,280,130,496,0,,,
2,1790859936096,1076,-81,12237,1677435,283441,-250454,0,0,0,457,186,121,322,233,357,279,109,244,207,81,599,0,,,
1,1790859936112,-722,-641,11289,1688431,-211359,289550,0,0,0,474,346,160,433,360,454,380,105,252,285,133,505,0,,,
2,1790859936112,1320,-263,12811,1969429,188146,-246789,0,0,0,480,197,133,310,249,356,267,106,232,183,61,602,0,,,
1,1790859936128,-603,-847,11442,1857030,-223576,268780,0,0,0,481,349,155,437,380,446,331,91,204,297,146,510,0,,,
2,1790859936128,1435,-368,13725,2378709,142942,-282219,0,0,0,485,240,129,301,230,356,249,97,218,184,80,611,0,,,
1,1790859936144,-957,-1019,12189,2064724,-205250,255341,0,0,0,487,332,165,436,380,442,281,72,171,307,146,515,0,,,
2,1790859936144,1488,-464,14453,2822197,91629,-307876,0,0,0,502,291,139,282,219,352,229,104,211,183,94,620,0,,,
1,1790859936160,-1373,-1177,13271,2373822,-125838,287106,0,0,0,491,323,183,434,349,439,295,78,204,313,137,515,0,,,
2,1790859936160,1765,-607,14931,3362202,2443,-340862,0,0,0,511,296,147,268,216,337,207,98,203,189,87,614,0,,,
1,1790859936176,-1555,-1306,14252,2796541,-21991,354301,0,0,0,495,320,195,435,329,425,317,95,243,313,132,513,0,,,
2,1790859936176,1742,-617,15261,3874107,-109955,-386066,0,0,0,486,281,141,268,225,333,164,74,183,166,62,548,0,,,
1,1790859936192,-1244,-1306,15156,3380528,57421,422718,0,0,0,493,325,190,420,336,430,293,92,249,308,130,510,0,,,
2,1790859936192,1502,-564,15630,4440990,-277332,-406836,0,0,0,456,272,141,265,263,339,134,77,177,137,57,493,0,,,
1,1790859936208,-799,-1220,15888,4012162,142942,444709,0,0,0,477,344,167,411,368,439,210,65,202,285,141,486,0,,,
2,1790859936208,2416,-842,16161,5093394,-493579,-456927,0,0,0,426,263,136,257,269,325,124,88,181,147,72,486,0,,,
1,1790859936224,-818,-1215,16822,4784296,294437,421497,0,0,0,437,340,167,414,368,444,167,55,180,269,138,469,0,,,
2,1790859936224,3771,-1569,17640,5821545,-778242,-625526,0,0,0,378,249,126,248,224,300,110,74,162,149,71,450,0,,,
1,1790859936240,-2077,-1636,18243,5633399,569326,469144,0,0,0,423,334,161,403,339,419,236,99,230,266,135,439,0,,,
2,1790859936240,4580,-3603,21325,6524040,-1145983,-894306,0,0,0,339,214,132,231,196,280,118,69,146,134,76,396,0,,,
1,1790859936256,-3565,-3364,22105,6528927,1022588,686612,0,0,0,396,333,158,377,329,392,190,75,157,250,129,427,0,,,
2,1790859936256,4977,-5297,25972,6994406,-1262047,-1104444,0,0,0,317,187,122,211,186,252,145,85,150,125,77,338,0,,,
1,1790859936272,-5326,-5360,27025,7271739,1444085,888198,0,0,0,380,305,159,346,308,360,226,93,177,229,123,412,0,,,
2,1790859936272,4685,-4374,29605,7424456,-1071457,-1282817,0,0,0,249,175,107,167,136,218,199,133,163,110,75,256,0,,,
1,1790859936288,-5824,-4848,29384,7909483,1546710,1196074,0,0,0,335,264,160,305,262,324,132,55,105,207,112,394,0,,,
2,1790859936288,4895,-1215,30844,8170933,-976162,-1434311,0,0,0,182,86,88,150,74,166,147,72,109,91,40,135,0,,,
1,1790859936304,-5049,-3292,30887,8638856,1879021,1492954,0,0,0,273,216,155,284,218,290,86,29,55,187,100,293,0,,,
2,1790859936304,7269,4460,27523,8528900,-1025031,-1607797,0,0,0,137,81,88,136,53,172,148,87,123,83,40,122,0,,,
1,1790859936320,-7681,138,27456,9023701,1910786,1571145,0,0,0,224,191,153,278,197,273,199,71,114,181,96,223,0,,,
2,1790859936320,9456,8863,19205,7403686,-926071,-1903456,0,0,0,144,70,99,136,53,177,134,69,114,69,28,104,0,,,
1,1790859936336,-8911,5561,18578,7836179,758694,1566258,0,0,0,209,188,152,275,191,267,204,72,116,191,95,211,0,,,
2,1790859936336,9370,11031,12237,4798957,-390953,-1905899,0,0,0,145,60,96,137,53,169,138,74,110,78,38,117,0,,,
1,1790859936352,-5738,7063,13031,5767789,125838,1238834,0,0,0,214,186,148,274,190,259,141,46,75,194,96,202,0,,,
2,1790859936352,6355,12361,10643,733038,274889,-1231504,0,0,0,142,66,90,134,49,159,144,72,113,93,47,122,0,,,
1,1790859936368,-2675,8016,10155,2656042,376292,315206,0,0,0,218,179,143,273,188,253,179,63,95,186,98,200,0,,,
2,1790859936368,4225,9882,12916,-3043330,-75747,-177150,0,0,0,149,68,89,129,50,157,143,80,110,81,38,118,0,,,
1,1790859936384,-3819,7461,9758,-1104444,703716,-764803,0,0,0,216,171,142,271,175,253,150,47,76,192,97,195,0,,,
2,1790859936384,5259,6331,11974,-4046371,-616973,239459,0,0,0,141,62,93,124,49,158,139,77,109,84,40,123,0,,,
1,1790859936400,-5556,5159,9825,-2992017,449596,-1071457,0,0,0,214,169,142,272,171,249,232,77,117,182,91,193,0,,,
2,1790859936400,6034,5125,8619,-3809355,-317649,134390,0,0,0,141,56,93,125,46,160,143,71,107,85,37,119,0,,,
1,1790859936416,-5226,3656,8968,-3138625,-73303,-718377,0,0,0,200,164,145,252,163,250,279,103,149,184,97,201,0,,,
2,1790859936416,5005,5585,7049,-4036597,318871,57421,0,0,0,147,57,93,131,44,162,152,77,111,68,23,105,0,,,
1,1790859936432,-2871,4733,7561,-3164281,-362853,-213802,0,0,0,199,164,141,251,171,249,301,114,160,182,95,202,0,,,
2,1790859936432,3421,6106,7944,-4820948,659734,204028,0,0,0,146,60,102,134,47,177,156,83,128,70,29,113,0,,,
1,1790859936448,-1564,5805,7815,-4053701,-343306,-34208,0,0,0,196,161,138,249,162,247,307,115,162,181,93,195,0,,,
2,1790859936448,3120,5714,9131,-5535660,616973,456927,0,0,0,141,57,104,135,49,182,157,82,135,81,46,118,0,,,
1,1790859936464,-1536,5168,9337,-5352401,-212581,15882,0,0,0,195,159,138,249,161,248,302,113,161,184,93,194,0,,,
2,1790859936464,3953,4862,9853,-6104987,670730,728151,0,0,0,137,57,96,136,48,169,153,79,123,77,42,105,0,,,
1,1790859936480,-1995,3900,9987,-5958379,-230907,94073,0,0,0,204,161,139,255,162,248,308,112,158,188,93,192,0,,,
2,1790859936480,4417,4111,10624,-6491054,1006705,924849,0,0,0,139,63,96,141,49,174,157,76,118,82,33,109,0,,,
1,1790859936496,-1990,3287,10136,-6190508,-565661,152716,0,0,0,211,162,138,261,159,249,306,101,149,197,93,193,0,,,
2,1790859936496,4115,3149,11950,-6675535,1321912,1081231,0,0,0,143,64,97,147,45,171,170,79,119,93,41,114,0,,,
1,1790859936512,-1287,3019,10868,-6466619,-988379,111177,0,0,0,213,157,137,264,160,250,317,99,151,203,89,193,0,,,
2,1790859936512,3991,2211,13438,-6725626,1447750,1193630,0,0,0,140,61,96,143,42,170,157,70,115,108,41,105,0,,,
1,1790859936528,-368,2536,12289,-6718295,-1264491,-23212,0,0,0,214,157,137,265,160,250,320,98,152,204,89,193,0,,,
2,1790859936528,4747,1560,14931,-6759834,1572367,1183856,0,0,0,140,65,95,144,43,171,166,89,127,79,31,111,0,,,
1,1790859936544,-62,1823,13869,-6781825,-1352455,-169820,0,0,0,214,161,138,266,158,251,319,97,151,233,91,191,0,,,
2,1790859936544,5431,813,16870,-6839247,1943773,1070235,0,0,0,140,58,91,146,52,177,170,81,133,86,31,112,0,,,
1,1790859936560,-564,1268,15242,-6743952,-1527163,-206472,0,0,0,214,162,140,268,156,252,333,102,158,249,90,190,0,,,
2,1790859936560,4790,-368,19411,-6936985,2386039,935845,0,0,0,145,67,98,141,44,173,178,87,131,94,45,115,0,,,
1,1790859936576,-981,827,16702,-6702413,-1842369,-133168,0,0,0,211,161,146,269,154,255,326,98,156,205,90,198,0,,,
2,1790859936576,3072,-3129,22368,-7032280,2505769,970053,0,0,0,128,66,97,139,46,173,158,84,126,90,40,115,0,,,
1,1790859936592,-961,430,18851,-6693861,-2175901,18325,0,0,0,209,158,154,271,157,263,314,94,156,202,88,202,0,,,
2,1790859936592,1866,-7518,24584,-7035945,2458121,1148426,0,0,0,133,65,103,137,48,177,161,88,134,93,39,119,0,,,
1,1790859936608,-502,-564,21416,-6831916,-2309070,112399,0,0,0,216,162,144,279,160,259,269,82,130,199,91,199,0,,,
2,1790859936608,1148,-13931,25455,-6796486,2484999,1198517,0,0,0,128,66,102,137,50,184,160,90,131,96,43,123,0,,,
1,1790859936624,315,-3311,23828,-7066489,-2404365,4886,0,0,0,203,165,152,255,156,259,306,112,163,182,89,196,0,,,
2,1790859936624,-373,-21253,25565,-6320011,2493551,889419,0,0,0,126,67,102,140,51,186,161,84,129,91,49,117,0,,,
1,1790859936640,1512,-9203,26125,-7192327,-2592512,-332310,0,0,0,204,165,150,263,157,256,316,113,167,192,90,196,0,,,
2,1790859936640,-3541,-28332,24881,-5540547,2216219,262672,0,0,0,129,66,98,142,47,176,175,93,126,104,55,123,0,,,
1,1790859936656,3149,-18133,27288,-6930877,-2770884,-492357,0,0,0,197,164,152,259,160,261,324,116,175,189,91,200,0,,,
2,1790859936656,-6513,-34008,23943,-4564385,1539380,-89186,0,0,0,131,59,86,144,47,165,203,110,122,114,65,118,0,,,
1,1790859936672,5637,-26972,26355,-6337115,-2637716,-355523,0,0,0,198,165,148,258,160,258,325,119,170,193,94,197,0,,,
2,1790859936672,-11117,-44077,25666,-2866179,294437,-119729,0,0,0,120,60,72,147,57,159,233,140,124,125,99,113,0,,,
1,1790859936688,8638,-34266,22632,-5213123,-1861917,-72082,0,0,0,196,167,149,258,160,263,327,117,173,191,96,201,0,,,
2,1790859936688,-16946,-58286,25618,265115,-1822821,306654,0,0,0,122,73,69,156,75,159,266,186,130,145,149,114,0,,,
1,1790859936704,7867,-37846,17745,-3655417,-587652,147829,0,0,0,193,164,147,262,161,265,330,120,174,188,97,201,0,,,
2,1790859936704,-12950,-48652,21521,3676187,-3833790,911410,0,0,0,132,82,75,161,84,170,282,225,139,160,182,122,0,,,
1,1790859936720,4240,-39272,14429,-2131919,52534,403171,0,0,0,189,154,149,267,156,274,293,105,162,202,106,206,0,,,
2,1790859936720,-2732,-9959,18722,4541172,-3955963,1284038,0,0,0,126,80,78,157,81,188,271,250,144,165,206,136,0,,,
1,1790859936736,3809,-38659,13448,-766025,-86742,487470,0,0,0,179,150,134,263,155,271,267,133,139,230,161,193,0,,,
2,1790859936736,-473,9619,14898,3324328,-2460565,1097113,0,0,0,129,81,82,161,82,191,276,267,134,190,236,143,0,,,
1,1790859936752,10413,-32600,17750,1166752,160046,-72082,0,0,0,171,154,113,262,163,259,288,205,127,262,241,175,0,,,
2,1790859936752,-2316,6231,11050,2515543,-1295034,461814,0,0,0,149,73,94,172,68,201,320,255,139,248,232,155,0,,,
1,1790859936768,8126,-8423,16415,3659082,1904677,-1040914,0,0,0,175,156,117,277,166,274,309,235,136,291,289,189,0,,,
2,1790859936768,-1378,-1191,10725,2776993,-916297,-145385,0,0,0,153,66,105,161,62,201,338,264,157,279,259,178,0,,,
1,1790859936784,2072,8939,13965,5053077,2305405,-1529606,0,0,0,186,166,117,284,173,291,321,248,138,303,306,198,0,,,
2,1790859936784,1320,-894,14381,3000570,-454483,-19547,0,0,0,166,79,126,155,57,195,353,297,152,274,274,195,0,,,
1,1790859936800,382,4675,14544,4609589,1010371,-1276708,0,0,0,190,169,110,291,177,290,364,306,151,317,319,199,0,,,
2,1790859936800,1000,421,14089,1933999,7330,224798,0,0,0,180,85,146,155,58,194,353,296,162,288,281,185,0,,,
1,1790859936816,2211,-1110,15922,3679852,326202,-474031,0,0,0,186,150,114,274,147,304,357,298,135,372,339,214,0,,,
2,1790859936816,248,842,10882,657290,169820,141720,0,0,0,183,81,150,159,56,201,378,310,165,293,281,178,0,,,
1,1790859936832,1043,-1134,16563,3196046,620639,321315,0,0,0,182,157,139,252,154,288,412,401,175,368,365,226,0,,,
2,1790859936832,655,622,9542,291993,25656,-29321,0,0,0,195,85,168,164,57,200,405,298,173,371,288,190,0,,,
1,1790859936848,-1660,220,14792,2482556,962723,346971,0,0,0,196,150,176,279,153,306,418,346,175,411,368,243,0,,,
2,1790859936848,914,603,9863,324980,-64751,-76969,0,0,0,220,88,194,175,60,207,423,304,176,363,281,186,0,,,
1,1790859936864,-1502,454,11801,1346346,772133,12217,0,0,0,219,170,205,267,152,298,436,372,209,404,365,244,0,,,
2,1790859936864,904,770,10189,351858,-37873,-76969,0,0,0,213,87,193,168,58,207,405,298,172,360,275,187,0,,,
1,1790859936880,-248,134,10145,397062,393397,-114842,0,0,0,232,177,217,287,160,312,434,359,204,413,361,251,0,,,
2,1790859936880,971,717,10059,276111,1221,-75747,0,0,0,222,99,221,182,65,219,405,293,176,356,276,210,0,,,
1,1790859936896,-349,325,10260,117286,183259,-24434,0,0,0,260,191,233,309,182,324,405,300,165,408,361,263,0,,,
2,1790859936896,995,674,9920,228463,-10995,-67195,0,0,0,235,93,249,192,70,242,413,257,190,346,259,237,0,,,
1,1790859936912,-698,674,10279,108734,81855,6108,0,0,0,261,191,235,298,181,325,409,298,172,403,360,276,0,,,
2,1790859936912,995,708,9964,260228,-23212,-53756,0,0,0,241,89,264,192,69,255,415,218,205,343,217,265,0,,,
1,1790859936928,-727,775,10102,122173,12217,-3665,0,0,0,262,194,241,294,181,329,378,262,158,408,357,285,0,,,
2,1790859936928,1005,689,10035,287106,-10995,-40317,0,0,0,257,97,300,197,77,265,410,192,211,335,185,291,0,,,
1,1790859936944,-631,732,10016,105068,-43982,-4886,0,0,0,269,204,243,299,188,329,352,224,139,409,349,289,0,,,
2,1790859936944,1019,593,10035,268780,12217,-26878,0,0,0,282,104,327,210,98,277,403,174,219,314,171,314,0,,,
1,1790859936960,-631,713,10035,96516,-89186,3665,0,0,0,272,207,241,299,191,327,386,255,170,406,324,291,0,,,
2,1790859936960,1019,512,9987,229685,29321,-17104,0,0,0,298,109,324,223,113,281,395,169,230,296,154,339,0,,,
1,1790859936976,-684,737,10054,116064,-108734,9773,0,0,0,278,214,262,298,196,342,402,262,193,403,297,302,0,,,
2,1790859936976,985,497,9949,201585,40317,-13439,0,0,0,311,120,348,230,122,294,378,159,225,277,139,373,0,,,
1,1790859936992,-708,746,10069,150272,-118507,12217,0,0,0,280,235,284,299,201,359,379,204,165,397,286,321,0,,,
2,1790859936992,957,516,9992,226020,83077,-9773,0,0,0,318,132,329,232,141,311,367,135,230,223,114,412,0,,,
1,1790859937008,-722,713,10035,175929,-119729,15882,0,0,0,293,240,259,312,212,347,396,211,165,391,268,323,0,,,
2,1790859937008,995,526,10050,311541,157603,-8552,0,0,0,329,131,327,248,145,320,351,122,230,188,81,429,0,,,
1,1790859937024,-765,670,10011,188146,-111177,24434,0,0,0,310,254,252,318,221,350,398,210,180,375,257,343,0,,,
2,1790859937024,1095,483,10083,432492,228463,-13439,0,0,0,361,165,311,307,175,332,336,103,257,176,67,458,0,,,
1,1790859937040,-789,636,10021,191811,-100181,39095,0,0,0,312,302,260,322,250,364,402,210,187,368,240,349,0,,,
2,1790859937040,1363,335,10165,563217,277332,-41538,0,0,0,348,160,256,253,178,321,291,85,262,171,62,474,0,,,
1,1790859937056,-746,607,10040,205250,-91629,48869,0,0,0,323,291,268,322,236,377,424,246,255,351,215,389,0,,,
2,1790859937056,1698,177,10394,659734,322536,-107512,0,0,0,353,161,245,265,178,331,278,87,236,187,56,494,0,,,
1,1790859937072,-713,593,10074,232128,-90408,51312,0,0,0,367,303,259,356,245,378,430,217,250,344,209,391,0,,,
2,1790859937072,1670,167,10887,747699,252898,-189368,0,0,0,366,167,225,262,190,336,293,87,247,164,55,510,0,,,
1,1790859937088,-737,588,10141,268780,-100181,52534,0,0,0,391,296,259,383,253,400,412,158,216,343,179,413,0,,,
2,1790859937088,1435,210,11141,850324,35430,-210137,0,0,0,392,170,190,274,221,349,267,83,230,176,64,530,0,,,
1,1790859937104,-799,545,10251,335975,-111177,65973,0,0,0,406,309,264,381,259,417,421,147,236,309,162,438,0,,,
2,1790859937104,1225,119,10978,959058,-149051,-183259,0,0,0,418,193,173,277,216,344,262,93,219,179,73,545,0,,,
1,1790859937120,-808,459,10299,419053,-109955,87964,0,0,0,418,326,254,393,285,433,394,122,234,309,160,441,0,,,
2,1790859937120,1167,-57,10839,1049466,-146607,-160046,0,0,0,414,196,143,271,215,338,257,93,213,176,72,560,0,,,
1,1790859937136,-832,339,10390,535117,-97738,108734,0,0,0,426,324,232,405,294,432,401,106,240,305,143,453,0,,,
2,1790859937136,1306,-234,10906,1138652,-36651,-158824,0,0,0,415,212,133,262,200,334,243,83,201,172,69,566,0,,,
1,1790859937152,-942,253,10696,656069,-63529,133168,0,0,0,436,317,215,415,292,433,422,107,266,295,128,463,0,,,
2,1790859937152,1440,-402,11069,1281595,40317,-182037,0,0,0,426,232,135,264,188,334,242,85,202,171,66,584,0,,,
1,1790859937168,-1014,201,11294,836885,-39095,172263,0,0,0,445,323,202,418,314,440,419,114,271,293,131,465,0,,,
2,1790859937168,1387,-569,11045,1440420,68416,-206472,0,0,0,450,237,132,277,190,334,252,103,211,174,69,594,0,,,
1,1790859937184,-918,157,11801,1071457,-51312,210137,0,0,0,450,339,178,406,352,430,424,124,253,283,134,479,0,,,
2,1790859937184,1153,-732,10930,1593136,86742,-204028,0,0,0,466,235,125,292,196,320,245,104,216,185,72,592,0,,,
1,1790859937200,-847,33,11868,1296256,-76969,218689,0,0,0,473,362,154,409,358,426,410,117,247,283,133,486,0,,,
2,1790859937200,1373,-938,11165,1747074,105068,-182037,0,0,0,461,239,125,291,202,311,227,86,219,189,71,601,0,,,
1,1790859937216,-918,-172,11653,1510058,-128281,232128,0,0,0,474,371,156,424,350,432,386,114,231,301,148,487,0,,,
2,1790859937216,1899,-1162,11820,1948660,89186,-205250,0,0,0,469,244,137,260,212,329,216,90,212,171,80,605,0,,,
1,1790859937232,-904,-402,11366,1684766,-200363,260228,0,0,0,482,368,152,439,364,448,380,112,214,307,161,501,0,,,
2,1790859937232,2206,-1340,12687,2269975,4886,-299323,0,0,0,499,242,138,249,232,322,220,111,213,178,91,603,0,,,
1,1790859937248,-770,-583,11395,1828930,-233350,274889,0,0,0,496,332,175,441,334,432,262,64,168,315,149,505,0,,,
2,1790859937248,2110,-1469,13290,2678033,-107512,-399505,0,0,0,506,262,143,248,243,329,240,156,240,185,109,597,0,,,
1,1790859937264,-995,-737,12404,2053728,-153938,262672,0,0,0,496,314,186,449,370,437,303,87,186,312,141,503,0,,,
2,1790859937264,1962,-1584,13725,3092199,-200363,-460592,0,0,0,493,292,155,265,227,338,193,97,204,178,88,591,0,,,
1,1790859937280,-1397,-894,13744,2384817,-31764,282219,0,0,0,493,338,192,433,354,427,282,83,180,315,149,508,0,,,
2,1790859937280,1933,-1727,14089,3540574,-311541,-509461,0,0,0,498,308,144,281,269,359,170,92,208,170,92,572,0,,,
1,1790859937296,-1459,-981,14888,2851518,69638,337197,0,0,0,493,354,196,411,360,418,309,111,224,298,155,505,0,,,
2,1790859937296,1555,-1837,14477,4042706,-456927,-542448,0,0,0,454,308,142,300,323,344,151,93,216,166,99,521,0,,,
1,1790859937312,-923,-933,15553,3475823,131946,372627,0,0,0,487,349,191,404,367,413,305,117,240,289,148,500,0,,,
2,1790859937312,1550,-2110,14979,4557054,-640186,-529009,0,0,0,418,318,132,244,374,329,126,99,209,136,109,470,0,,,
1,1790859937328,-555,-851,16190,4105014,186924,351858,0,0,0,468,362,169,402,392,417,270,106,227,276,154,477,0,,,
2,1790859937328,2742,-3005,16491,5149593,-866206,-569326,0,0,0,392,319,122,256,326,319,133,92,210,137,90,432,0,,,
1,1790859937344,-1789,-995,17386,4968777,322536,376292,0,0,0,439,368,153,408,402,422,241,99,218,262,153,454,0,,,
2,1790859937344,3953,-4580,19267,5722585,-1082453,-708603,0,0,0,370,289,121,250,280,286,129,83,178,140,91,393,0,,,
1,1790859937360,-3785,-1665,19588,5885075,582765,591317,0,0,0,411,353,152,406,377,406,191,78,173,259,139,437,0,,,
2,1790859937360,4891,-6183,23177,6221051,-1036027,-900415,0,0,0,324,223,125,209,189,271,135,85,180,124,67,353,0,,,
1,1790859937376,-4871,-3239,22933,6707300,895528,934623,0,0,0,390,351,157,373,353,371,159,69,124,249,140,417,0,,,
2,1790859937376,5025,-5240,26901,6847799,-658512,-1169196,0,0,0,270,153,120,177,118,246,137,79,154,106,47,286,0,,,
1,1790859937392,-5211,-5029,27087,7529524,1133765,1260825,0,0,0,363,343,161,327,325,343,224,109,169,219,143,405,0,,,
2,1790859937392,5039,-3010,28566,7640702,-228463,-1409876,0,0,0,203,100,103,151,79,201,140,75,132,93,47,186,0,,,
1,1790859937408,-4173,-4312,29217,8065864,1104444,1414763,0,0,0,319,268,158,292,257,321,270,110,192,197,110,382,0,,,
2,1790859937408,5580,1105,26221,8221024,328645,-1684766,0,0,0,153,75,95,132,60,168,146,76,122,82,38,118,0,,,
1,1790859937424,-3335,-2072,29767,8750033,1158200,1458746,0,0,0,241,213,155,267,214,284,295,108,168,179,95,302,0,,,
2,1790859937424,6154,4627,20205,7836179,712268,-2150245,0,0,0,143,71,98,130,52,159,141,74,108,79,24,105,0,,,
1,1790859937440,-4642,1474,26307,9023701,978606,1464854,0,0,0,199,187,150,261,200,264,304,116,168,182,104,214,0,,,
2,1790859937440,6235,4096,14266,6050009,1028697,-2901609,0,0,0,144,71,97,133,49,154,132,71,102,74,26,99,0,,,
1,1790859937456,-6164,5226,19181,7831292,348193,1507615,0,0,0,205,194,145,273,202,258,247,98,131,186,112,206,0,,,
2,1790859937456,4173,5345,11452,3220481,1436755,-3297450,0,0,0,144,72,98,129,51,149,132,72,102,70,38,101,0,,,
1,1790859937472,-5776,6494,14084,5710368,-69638,1356120,0,0,0,208,183,141,270,193,253,230,92,123,184,105,197,0,,,
2,1790859937472,679,7619,10930,7330,1387885,-2830749,0,0,0,147,69,106,124,45,141,134,77,102,85,47,110,0,,,
1,1790859937488,-4637,8121,11557,2289522,-39095,802676,0,0,0,217,181,149,265,184,251,157,56,80,184,102,194,0,,,
2,1790859937488,-521,6384,10662,-2139250,700051,-1616349,0,0,0,147,70,109,125,44,141,142,86,110,84,43,104,0,,,
1,1790859937504,-4771,8308,10787,-1215621,-20769,217468,0,0,0,211,173,145,260,173,253,126,39,65,191,101,203,0,,,
2,1790859937504,28,4536,9495,-2764776,204028,-474031,0,0,0,147,64,107,126,49,146,128,74,95,76,23,104,0,,,
1,1790859937520,-5077,6221,10806,-3292563,-219911,-106290,0,0,0,209,174,138,265,178,245,219,78,105,190,104,196,0,,,
2,1790859937520,569,4522,7887,-2864957,92851,302989,0,0,0,153,69,111,126,43,149,135,79,105,81,43,111,0,,,
1,1790859937536,-3895,4637,9834,-3624874,-119729,-149051,0,0,0,216,176,144,262,174,239,204,71,96,186,103,189,0,,,
2,1790859937536,1105,5561,7145,-3760486,139277,866206,0,0,0,150,67,111,131,49,150,136,71,104,71,36,104,0,,,
1,1790859937552,-3321,4465,8820,-3990171,298102,-213802,0,0,0,214,170,145,255,169,240,154,52,78,183,100,189,0,,,
2,1790859937552,2158,5604,7575,-4871039,285884,1200961,0,0,0,143,60,102,131,50,152,136,71,109,79,34,115,0,,,
1,1790859937568,-4158,4905,8686,-4955338,708603,-373849,0,0,0,202,163,134,256,170,243,195,69,100,182,99,189,0,,,
2,1790859937568,3010,4733,8609,-5714033,695164,1317025,0,0,0,139,56,100,130,37,148,142,71,109,77,34,122,0,,,
1,1790859937584,-5398,4206,9552,-6051231,779464,-525344,0,0,0,199,157,136,253,160,240,222,72,106,185,97,193,0,,,
2,1790859937584,2675,4044,9662,-6135530,1091005,1312138,0,0,0,139,63,104,126,41,150,146,75,111,87,39,121,0,,,
1,1790859937600,-6336,2933,10002,-6671870,713490,-591317,0,0,0,196,156,133,247,161,237,300,112,149,187,97,190,0,,,
2,1790859937600,1593,3718,10739,-6373767,1208291,1257160,0,0,0,143,71,105,127,52,154,143,77,110,82,47,118,0,,,
1,1790859937616,-6805,2029,10074,-6807482,329867,-626747,0,0,0,199,158,138,247,156,242,299,109,149,187,94,192,0,,,
2,1790859937616,1057,3560,11739,-6646213,1054353,1177748,0,0,0,141,66,106,128,49,159,151,81,116,87,38,115,0,,,
1,1790859937632,-6508,1474,10696,-6862460,-283441,-781907,0,0,0,200,158,138,249,152,243,311,114,154,189,96,192,0,,,
2,1790859937632,1670,2986,12797,-6927211,1053131,982271,0,0,0,140,56,105,131,48,158,152,79,118,92,42,124,0,,,
1,1790859937648,-5967,674,11816,-6841690,-728151,-1095892,0,0,0,199,157,138,250,153,250,315,114,159,189,96,194,0,,,
2,1790859937648,1995,2249,13960,-7001737,1347568,708603,0,0,0,140,60,105,132,48,160,159,80,123,94,41,129,0,,,
1,1790859937664,-5967,-124,12979,-6765943,-1001818,-1385442,0,0,0,201,162,141,250,154,250,317,115,161,188,96,196,0,,,
2,1790859937664,1282,1866,15735,-6899112,1705535,406836,0,0,0,140,63,102,132,49,163,153,75,122,95,41,124,0,,,
1,1790859937680,-6465,-665,14228,-6653544,-1231504,-1529606,0,0,0,202,161,144,250,153,256,320,116,167,188,95,198,0,,,
2,1790859937680,397,1789,18152,-6846577,1843591,216246,0,0,0,140,66,102,133,55,164,154,74,119,95,47,126,0,,,
1,1790859937696,-6996,-928,15721,-6533814,-1551597,-1372003,0,0,0,198,161,144,250,156,255,326,121,169,188,95,200,0,,,
2,1790859937696,62,976,20842,-6957755,1830152,245567,0,0,0,138,68,103,136,59,166,166,79,122,92,50,132,0,,,
1,1790859937712,-6829,-1268,17674,-6434854,-1890017,-1080009,0,0,0,198,163,143,252,157,257,318,120,165,187,97,200,0,,,
2,1790859937712,-301,-1636,23560,-7043276,1916895,401949,0,0,0,137,63,102,140,56,171,157,74,121,87,43,129,0,,,
1,1790859937728,-5494,-2479,20306,-6399424,-2028072,-877202,0,0,0,200,163,144,259,159,260,225,77,114,185,97,201,0,,,
2,1790859937728,-1052,-6618,25790,-6973637,2059837,590095,0,0,0,139,70,106,136,56,169,150,71,117,87,27,123,0,,,
1,1790859937744,-4034,-5278,22608,-6383541,-2045176,-1025031,0,0,0,202,162,145,265,161,261,217,71,107,185,96,200,0,,,
2,1790859937744,-2325,-14070,26843,-6748839,1966986,592539,0,0,0,134,68,106,140,52,170,155,70,117,90,26,127,0,,,
1,1790859937760,-2407,-10959,24637,-6279694,-2260201,-1556484,0,0,0,202,161,144,265,160,259,271,93,137,185,94,199,0,,,
2,1790859937760,-3780,-22483,26116,-6335894,1518610,395840,0,0,0,137,64,112,142,46,168,161,69,111,91,39,125,0,,,
1,1790859937776,526,-19301,25494,-5998696,-2715906,-1969429,0,0,0,202,167,145,257,154,256,297,103,151,184,91,200,0,,,
2,1790859937776,-4431,-29025,23651,-5534439,873537,169820,0,0,0,140,68,110,132,40,165,161,67,126,89,37,135,0,,,
1,1790859937792,5924,-27968,24742,-5513669,-2866179,-1940107,0,0,0,205,174,147,249,148,251,330,119,167,185,87,199,0,,,
2,1790859937792,-4369,-34457,20253,-4401894,224798,43982,0,0,0,141,65,104,143,47,175,175,79,133,90,45,131,0,,,
1,1790859937808,12505,-35132,21885,-4652349,-2001194,-1441641,0,0,0,205,169,145,253,151,253,330,118,165,188,89,199,0,,,
2,1790859937808,-4383,-37597,16243,-3057991,-167377,102625,0,0,0,141,65,110,139,47,174,167,77,125,94,45,134,0,,,
1,1790859937824,12007,-39482,17884,-3492927,-120951,-772133,0,0,0,199,165,144,257,151,257,321,111,160,193,93,199,0,,,
2,1790859937824,-6690,-38013,14022,-1598023,-106290,356745,0,0,0,126,72,89,149,68,190,175,104,113,109,61,140,0,,,
1,1790859937840,5029,-42225,14151,-2313957,1215621,-65973,0,0,0,184,145,127,257,139,256,310,136,144,238,144,198,0,,,
2,1790859937840,-8743,-36630,15190,-10995,-274889,542448,0,0,0,129,59,75,162,61,167,236,156,118,171,111,127,0,,,
1,1790859937856,3426,-44450,15573,-623082,1233947,337197,0,0,0,168,163,109,255,166,252,314,252,139,256,240,172,0,,,
2,1790859937856,-8437,-26814,18157,2214997,-906524,454483,0,0,0,123,64,67,165,67,176,269,206,127,199,180,140,0,,,
1,1790859937872,6781,-31796,16980,2836858,1858252,-28099,0,0,0,173,167,113,267,179,263,324,274,142,289,285,190,0,,,
2,1790859937872,-1698,445,12596,4674340,-1331686,142942,0,0,0,127,78,72,167,87,194,286,276,144,213,233,154,0,,,
1,1790859937888,4000,363,15759,5662720,1876578,-884532,0,0,0,191,171,115,282,180,275,328,296,139,298,329,188,0,,,
2,1790859937888,2866,8734,11155,5490456,-1214400,53756,0,0,0,133,84,80,167,82,204,304,311,152,231,269,167,0,,,
1,1790859937904,1359,7757,16487,5227784,436157,-1141096,0,0,0,185,167,111,268,164,278,356,344,156,312,352,196,0,,,
2,1790859937904,1560,234,17745,4985882,-1123992,222354,0,0,0,140,87,89,163,76,206,322,330,153,237,287,173,0,,,
1,1790859937920,1876,52,17659,3810577,81855,-409279,0,0,0,186,169,126,263,155,283,402,363,172,348,356,212,0,,,
2,1790859937920,-660,-3665,21986,3811799,-1139874,204028,0,0,0,148,84,103,154,70,199,356,345,164,243,291,175,0,,,
1,1790859937936,239,-2531,18339,2884505,730594,392175,0,0,0,187,153,155,265,139,302,425,356,192,385,356,229,0,,,
2,1790859937936,-201,-952,16922,2146580,-894306,20769,0,0,0,157,83,120,149,59,191,383,351,171,263,291,178,0,,,
1,1790859937952,-1234,-287,14745,1940107,819781,296880,0,0,0,197,142,182,271,129,308,434,373,207,406,378,232,0,,,
2,1790859937952,1110,1292,10375,1005484,-559552,-10995,0,0,0,169,87,142,153,55,194,394,348,168,287,293,188,0,,,
1,1790859937968,-521,1402,10466,1006705,527787,-65973,0,0,0,218,154,208,274,132,310,444,398,216,421,397,232,0,,,
2,1790859937968,1325,985,9011,544891,-405614,26878,0,0,0,178,87,162,156,54,206,410,343,185,297,293,202,0,,,
1,1790859937984,-23,995,9648,511905,359188,-136833,0,0,0,232,165,234,277,139,316,441,390,210,434,393,241,0,,,
2,1790859937984,866,148,10318,310319,-307876,53756,0,0,0,187,85,171,159,51,222,413,346,205,304,287,207,0,,,
1,1790859938000,-52,344,10495,278554,240680,-76969,0,0,0,243,173,248,290,149,303,435,371,194,441,387,239,0,,,
2,1790859938000,770,555,10351,111177,-191811,29321,0,0,0,204,94,172,179,58,230,418,344,195,338,300,209,0,,,
1,1790859938016,-186,674,10457,164933,94073,-51312,0,0,0,254,176,259,286,154,297,438,377,213,439,379,231,0,,,
2,1790859938016,890,914,9925,43982,-128281,12217,0,0,0,204,93,165,180,66,242,417,323,204,332,309,210,0,,,
1,1790859938032,-234,1014,10102,123394,-3665,-41538,0,0,0,263,174,300,290,168,305,435,365,214,436,361,242,0,,,
2,1790859938032,928,890,9853,50090,-91629,10995,0,0,0,206,92,166,180,76,265,412,310,205,333,313,210,0,,,
1,1790859938048,-224,1076,9935,145385,-45204,-31764,0,0,0,274,205,256,292,206,293,440,379,214,433,342,245,0,,,
2,1790859938048,894,818,9954,50090,-57421,10995,0,0,0,211,101,179,173,71,276,418,321,231,321,323,220,0,,,
1,1790859938064,-224,976,10021,193033,-61086,-15882,0,0,0,275,233,267,292,222,312,425,339,214,429,316,265,0,,,
2,1790859938064,880,823,9964,45204,-35430,7330,0,0,0,226,107,169,183,89,250,411,307,206,314,283,206,0,,,
1,1790859938080,-229,923,10093,227241,-86742,-2443,0,0,0,287,243,290,299,222,337,421,303,222,431,295,299,0,,,
2,1790859938080,899,856,9892,50090,-31764,2443,0,0,0,231,110,184,184,86,243,410,295,198,316,264,206,0,,,
1,1790859938096,-244,918,10098,252898,-122173,4886,0,0,0,282,225,330,315,222,366,422,281,241,426,265,302,0,,,
2,1790859938096,938,861,9873,67195,-40317,-2443,0,0,0,218,104,178,183,100,231,404,285,190,324,265,213,0,,,
1,1790859938112,-277,875,10083,283441,-153938,18325,0,0,0,289,236,307,323,236,350,427,271,231,403,255,319,0,,,
2,1790859938112,957,851,9892,92851,-51312,-12217,0,0,0,227,118,187,199,134,234,390,297,178,315,284,204,0,,,
1,1790859938128,-301,808,10074,301767,-173485,35430,0,0,0,283,244,328,321,248,365,431,258,250,388,242,344,0,,,
2,1790859938128,957,847,9906,128281,-62308,-24434,0,0,0,237,135,204,203,154,241,378,279,174,293,277,216,0,,,
1,1790859938144,-320,760,10083,316428,-193033,52534,0,0,0,283,266,325,327,260,384,428,224,262,366,217,364,0,,,
2,1790859938144,928,832,9911,172263,-76969,-32986,0,0,0,256,151,235,203,158,266,371,237,208,279,239,250,0,,,
1,1790859938160,-339,727,10136,356745,-212581,67195,0,0,0,296,289,291,343,272,397,418,188,257,336,195,388,0,,,
2,1790859938160,914,794,9949,215024,-84299,-29321,0,0,0,283,150,261,221,156,278,374,184,223,267,183,291,0,,,
1,1790859938176,-344,674,10208,430049,-224798,78190,0,0,0,318,293,279,361,282,409,409,169,258,321,183,412,0,,,
2,1790859938176,933,737,9987,251676,-81855,-26878,0,0,0,303,143,281,251,171,283,382,146,209,253,145,329,0,,,
1,1790859938192,-339,593,10308,537561,-234572,75747,0,0,0,349,290,290,374,287,413,402,139,243,331,170,422,0,,,
2,1790859938192,966,689,10016,282219,-72082,-35430,0,0,0,322,159,310,275,201,308,382,128,215,245,128,364,0,,,
1,1790859938208,-397,502,10380,657290,-238237,69638,0,0,0,376,283,306,384,283,422,385,81,193,335,151,426,0,,,
2,1790859938208,976,641,10054,306654,-57421,-56199,0,0,0,349,178,300,288,209,311,366,109,224,228,101,385,0,,,
1,1790859938224,-483,368,10313,742812,-213802,74525,0,0,0,402,274,260,418,302,419,375,88,208,304,134,435,0,,,
2,1790859938224,961,583,10107,326202,-45204,-76969,0,0,0,368,180,256,301,223,320,347,105,233,199,88,402,0,,,
1,1790859938240,-473,248,10366,768468,-168598,80634,0,0,0,410,280,238,412,285,433,399,83,254,293,121,441,0,,,
2,1790859938240,961,536,10222,365297,-40317,-91629,0,0,0,374,212,271,290,238,317,317,105,226,186,87,458,0,,,
1,1790859938256,-473,143,10533,788016,-169820,81855,0,0,0,417,301,229,405,294,436,447,119,293,280,121,454,0,,,
2,1790859938256,1019,473,10495,475253,-30543,-105068,0,0,0,392,207,230,300,241,326,302,106,216,185,84,479,0,,,
1,1790859938272,-607,47,10658,827111,-217468,95294,0,0,0,410,333,181,415,324,436,431,114,281,328,131,446,0,,,
2,1790859938272,1139,392,10935,684169,17104,-134390,0,0,0,430,223,217,300,244,337,308,102,227,191,74,495,0,,,
1,1790859938288,-703,-28,10753,888198,-224798,127059,0,0,0,419,351,164,418,332,436,422,118,266,288,134,460,0,,,
2,1790859938288,1139,330,11328,941954,75747,-180816,0,0,0,437,228,199,299,296,343,294,103,258,173,77,536,0,,,
1,1790859938304,-641,-129,10911,978606,-171042,155159,0,0,0,435,344,174,414,324,447,411,110,266,280,129,469,0,,,
2,1790859938304,1043,277,11500,1160643,62308,-205250,0,0,0,442,317,145,305,310,351,283,147,252,178,106,528,0,,,
1,1790859938320,-665,-268,11112,1103222,-153938,174707,0,0,0,438,356,163,415,342,451,406,117,274,310,145,463,0,,,
2,1790859938320,1119,124,11677,1346346,21991,-204028,0,0,0,470,273,120,317,301,354,271,115,234,188,86,548,0,,,
1,1790859938336,-631,-430,11131,1243721,-188146,196698,0,0,0,452,350,146,417,341,438,385,107,254,299,143,478,0,,,
2,1790859938336,1531,-129,12227,1618792,31764,-245567,0,0,0,495,267,117,318,302,345,275,128,204,200,120,568,0,,,
1,1790859938352,-406,-641,10892,1402546,-224798,204028,0,0,0,467,334,150,423,343,435,386,106,248,290,134,499,0,,,
2,1790859938352,1718,-263,12969,1932777,8552,-328645,0,0,0,491,329,115,310,312,336,255,117,209,203,113,593,0,,,
1,1790859938368,-268,-832,10662,1499063,-239459,174707,0,0,0,475,319,160,434,345,447,388,107,249,289,129,509,0,,,
2,1790859938368,1588,-272,13835,2312735,-94073,-400727,0,0,0,514,307,120,305,296,326,240,108,213,195,95,607,0,,,
1,1790859938384,-636,-990,11428,1621236,-228463,139277,0,0,0,478,317,166,437,354,455,365,106,240,286,138,512,0,,,
2,1790859938384,1627,-335,14429,2717128,-252898,-428827,0,0,0,522,297,127,283,261,323,225,102,203,175,93,596,0,,,
1,1790859938400,-1186,-1100,12859,1860695,-150272,161268,0,0,0,480,328,176,431,374,446,334,108,228,290,158,513,0,,,
2,1790859938400,1871,-459,14682,3185051,-415388,-483805,0,0,0,516,293,129,274,241,326,205,93,188,169,83,578,0,,,
1,1790859938416,-1440,-1196,14108,2288301,-6108,246789,0,0,0,489,325,187,435,355,433,320,96,224,293,152,514,0,,,
2,1790859938416,2072,-636,14687,3677408,-571769,-571769,0,0,0,500,277,128,281,239,326,184,87,176,169,73,553,0,,,
1,1790859938432,-1426,-1268,14840,2806314,81855,342084,0,0,0,486,310,190,428,336,433,341,101,246,315,139,510,0,,,
2,1790859938432,1899,-717,14922,4186870,-713490,-671951,0,0,0,455,275,123,271,238,319,159,79,171,167,82,521,0,,,
1,1790859938448,-1005,-1273,15276,3435506,87964,427605,0,0,0,487,307,178,419,338,429,297,85,229,302,144,508,0,,,
2,1790859938448,2526,-1014,15687,4750088,-928515,-742812,0,0,0,411,254,112,259,228,316,135,71,169,161,76,486,0,,,
1,1790859938464,-526,-1191,16085,4161214,70860,441044,0,0,0,471,352,150,441,346,453,307,113,273,303,147,496,0,,,
2,1790859938464,4407,-1871,16420,5373170,-1193630,-939510,0,0,0,374,239,109,247,219,307,124,76,183,131,57,447,0,,,
1,1790859938480,-1100,-1225,17324,4910134,158824,445931,0,0,0,442,348,163,409,367,446,287,113,275,263,130,459,0,,,
2,1790859938480,6144,-3474,18478,6041457,-1298699,-1358564,0,0,0,343,209,114,217,203,281,125,79,190,130,75,425,0,,,
1,1790859938496,-2948,-1876,19468,5759237,466701,601091,0,0,0,407,341,168,387,345,426,296,110,267,258,124,435,0,,,
2,1790859938496,6963,-5336,22478,6580240,-1061683,-1791056,0,0,0,301,185,114,204,182,265,122,70,139,123,66,362,0,,,
1,1790859938512,-4446,-3761,23536,6752504,977384,906524,0,0,0,383,326,169,374,344,394,242,95,197,246,131,420,0,,,
2,1790859938512,6652,-5613,27207,7012732,-586430,-2229658,0,0,0,257,191,118,172,153,228,132,85,128,108,65,286,0,,,
1,1790859938528,-4733,-5580,27561,7452555,1346346,1121548,0,0,0,359,297,160,344,323,349,224,96,161,229,131,408,0,,,
2,1790859938528,6312,-2321,28815,7444003,-466701,-2614503,0,0,0,203,121,101,157,95,181,148,94,125,110,63,186,0,,,
1,1790859938544,-3364,-4096,30188,8054869,1540602,1296256,0,0,0,319,251,157,296,260,313,262,100,168,202,110,378,0,,,
2,1790859938544,7461,3062,27930,7746992,-801455,-2973691,0,0,0,142,72,100,132,53,179,134,74,116,74,36,118,0,,,
1,1790859938560,-3943,-1852,32021,8748811,2255314,1408655,0,0,0,246,212,155,265,209,279,294,111,172,182,96,284,0,,,
2,1790859938560,9753,9035,21143,7188662,-1117883,-3251024,0,0,0,139,69,95,129,58,167,139,88,114,75,36,115,0,,,
1,1790859938576,-9566,3297,27135,8873428,2267531,1436755,0,0,0,210,195,150,262,205,259,298,121,166,182,101,211,0,,,
2,1790859938576,9954,11562,12447,4928460,-587652,-3032335,0,0,0,145,82,96,143,75,158,126,84,94,79,46,123,0,,,
1,1790859938592,-11663,9763,17865,7430564,904080,1431868,0,0,0,226,191,149,267,213,265,293,119,168,187,103,212,0,,,
2,1790859938592,7197,12495,9796,1455080,321315,-2009746,0,0,0,142,93,97,131,79,154,133,79,99,82,52,128,0,,,
1,1790859938608,-6934,12955,12562,3870442,-75747,781907,0,0,0,212,189,151,261,198,267,299,124,178,178,101,207,0,,,
2,1790859938608,4709,10509,11007,-1568701,348193,-360410,0,0,0,147,96,101,124,81,154,139,86,109,88,55,128,0,,,
1,1790859938624,-3436,12696,11868,-282219,233350,-510683,0,0,0,200,186,150,249,193,264,310,128,184,173,98,201,0,,,
2,1790859938624,5273,7743,9581,-2532647,90408,811229,0,0,0,151,97,108,122,84,156,111,63,98,78,42,120,0,,,
1,1790859938640,-5575,9045,12170,-2894279,1000597,-1646892,0,0,0,201,185,149,254,198,264,291,119,166,179,103,197,0,,,
2,1790859938640,5790,6872,6925,-2240653,497244,1203404,0,0,0,153,94,113,121,81,155,133,78,108,77,41,116,0,,,
1,1790859938656,-7954,7255,9346,-2926044,271224,-1540602,0,0,0,205,183,149,263,194,265,272,107,156,177,101,195,0,,,
2,1790859938656,3819,7647,6183,-2375044,1306029,1326799,0,0,0,153,93,116,121,78,155,151,92,117,82,50,122,0,,,
1,1790859938672,-5872,7944,7508,-3064100,-756251,-1108109,0,0,0,215,190,149,258,182,251,321,122,162,184,98,191,0,,,
2,1790859938672,698,8135,8049,-3456275,1585806,1462411,0,0,0,152,92,117,122,77,160,140,79,112,83,52,124,0,,,
1,1790859938688,-1301,9069,8030,-4194200,-1122770,-768468,0,0,0,223,198,164,254,184,256,293,116,160,169,97,193,0,,,
2,1790859938688,-138,6992,9389,-4487416,1364672,1512502,0,0,0,149,91,113,124,78,160,143,79,113,85,53,124,0,,,
1,1790859938704,-713,7590,9786,-5580864,-459370,-729373,0,0,0,211,188,154,258,187,263,223,85,125,178,103,201,0,,,
2,1790859938704,291,5470,9868,-5086063,1336573,1340238,0,0,0,145,94,106,123,80,159,140,84,115,86,55,128,0,,,
1,1790859938720,-1794,5307,10859,-6455623,-140499,-576656,0,0,0,198,183,148,248,185,261,276,109,158,178,104,200,0,,,
2,1790859938720,172,4871,10485,-5392718,1759291,948062,0,0,0,147,94,111,124,83,164,137,84,117,87,48,126,0,,,
1,1790859938736,-1541,4082,11471,-6665761,-465479,-318871,0,0,0,201,186,145,248,185,254,302,120,163,181,101,197,0,,,
2,1790859938736,-1478,5087,12251,-5805663,2107485,592539,0,0,0,149,99,119,124,87,165,139,85,122,83,45,122,0,,,
1,1790859938752,-784,3388,12505,-6807482,-744033,-156381,0,0,0,200,185,151,248,183,256,280,109,150,184,101,200,0,,,
2,1790859938752,-2656,4867,13974,-6172182,2107485,392175,0,0,0,151,93,117,117,74,160,141,79,122,82,50,125,0,,,
1,1790859938768,-842,2933,13945,-6968750,-917519,-133168,0,0,0,201,185,150,256,186,260,256,100,138,185,104,201,0,,,
2,1790859938768,-2603,4221,15295,-6339559,1977981,327423,0,0,0,141,94,117,120,75,167,140,86,132,71,53,124,0,,,
1,1790859938784,-1229,2345,15841,-7178888,-1185078,-190589,0,0,0,201,185,145,257,186,260,268,106,143,185,105,202,0,,,
2,1790859938784,-2091,3685,16712,-6429967,1976759,338419,0,0,0,143,94,115,120,75,165,149,88,122,84,51,127,0,,,
1,1790859938800,-1234,1493,17946,-7365813,-1420872,-317649,0,0,0,195,182,143,250,183,260,293,115,158,182,103,202,0,,,
2,1790859938800,-1430,3244,18535,-6577796,2122145,428827,0,0,0,133,98,94,132,89,176,156,84,121,88,54,133,0,,,
1,1790859938816,-1497,641,19952,-7381695,-1491732,-459370,0,0,0,197,183,144,254,187,261,283,111,152,180,102,198,0,,,
2,1790859938816,-679,1962,21325,-6798930,2357939,493579,0,0,0,130,88,94,136,81,176,154,77,121,90,47,134,0,,,
1,1790859938832,-1799,-258,22565,-7320609,-1607797,-605978,0,0,0,203,186,153,256,185,265,267,103,145,179,102,200,0,,,
2,1790859938832,-157,-196,24551,-6864903,2510656,437379,0,0,0,132,86,112,136,82,200,160,81,137,82,46,176,0,,,
1,1790859938848,-1416,-2038,25618,-7286400,-1759291,-896750,0,0,0,197,185,151,252,183,265,271,103,148,182,101,200,0,,,
2,1790859938848,-320,-2981,27427,-6714630,2471560,246789,0,0,0,132,86,103,138,76,186,159,82,131,88,50,155,0,,,
1,1790859938864,-727,-6920,28571,-7331604,-1947438,-1436755,0,0,0,200,190,151,252,183,264,261,102,138,181,101,198,0,,,
2,1790859938864,-1981,-6293,29619,-6651100,2331061,147829,0,0,0,126,86,94,139,76,181,162,85,129,93,57,145,0,,,
1,1790859938880,770,-14668,30691,-7296174,-2161241,-1886351,0,0,0,194,190,144,253,188,258,293,120,153,179,105,196,0,,,
2,1790859938880,-4536,-11897,30705,-6734178,1927890,524122,0,0,0,124,87,97,136,76,183,164,84,129,92,53,143,0,,,
1,1790859938896,3330,-24331,29370,-6856351,-1778839,-1991420,0,0,0,195,186,144,254,187,258,309,121,161,184,105,199,0,,,
2,1790859938896,-3977,-19320,29413,-6409198,1295034,1106887,0,0,0,128,87,101,135,75,183,164,79,131,89,50,140,0,,,
1,1790859938912,3560,-31610,24958,-5914397,-838107,-1938886,0,0,0,202,186,152,255,185,262,314,119,162,185,103,200,0,,,
2,1790859938912,354,-31863,23412,-5213123,926071,1259604,0,0,0,133,86,99,142,75,185,165,75,130,87,47,139,0,,,
1,1790859938928,-440,-36003,18468,-4344473,124616,-1723861,0,0,0,192,181,143,261,188,265,316,122,170,189,106,201,0,,,
2,1790859938928,-1162,-44412,17276,-3677408,1389107,332310,0,0,0,134,87,99,145,77,189,163,77,128,85,40,135,0,,,
1,1790859938944,-4781,-39176,14156,-2697580,-25656,-811229,0,0,0,187,180,142,262,190,267,316,125,172,189,107,203,0,,,
2,1790859938944,-14654,-50504,15587,-1767844,1378111,-1088561,0,0,0,125,89,96,142,83,182,170,96,131,86,52,124,0,,,
1,1790859938960,-1627,-41244,12486,-1348790,-744033,445931,0,0,0,187,181,144,262,191,271,315,125,170,186,108,206,0,,,
2,1790859938960,-22086,-46628,16343,59864,-243124,-1413542,0,0,0,104,88,77,146,102,174,205,155,127,113,91,102,0,,,
1,1790859938976,8561,-38769,13055,61086,-613308,1058018,0,0,0,178,178,146,262,189,269,293,124,155,213,132,200,0,,,
2,1790859938976,-12768,-28738,19899,2023185,-2458121,-790459,0,0,0,115,86,75,153,96,195,258,243,153,150,154,134,0,,,
1,1790859938992,10165,-32198,14740,1285260,708603,535117,0,0,0,168,176,127,263,181,256,266,155,129,255,199,181,0,,,
2,1790859938992,4613,4517,15333,4278500,-4393342,-470366,0,0,0,114,84,79,157,89,218,290,302,169,174,216,163,0,,,
1,1790859939008,114,-6853,18061,2569299,1600466,-107512,0,0,0,172,174,98,267,170,251,277,215,115,286,270,168,0,,,
2,1790859939008,7977,12036,10543,5302310,-5727472,-398284,0,0,0,126,84,91,163,90,227,315,338,182,200,260,184,0,,,
1,1790859939024,-7513,23278,13156,4114788,1560149,-472809,0,0,0,182,161,106,283,171,279,336,267,148,305,299,185,0,,,
2,1790859939024,-162,-1670,14974,5180137,-3547905,586430,0,0,0,142,99,93,170,97,227,334,389,172,247,333,190,0,,,
1,1790859939040,-6666,15171,8097,5376835,591317,-1160643,0,0,0,193,170,110,291,178,302,376,335,190,314,344,206,0,,,
2,1790859939040,-5819,-5326,21646,4905247,-1050688,1159422,0,0,0,156,104,98,175,88,225,389,429,170,275,364,198,0,,,
1,1790859939056,-1062,-6039,14003,5446474,-587652,-2175901,0,0,0,202,180,118,276,163,302,384,342,176,335,349,216,0,,,
2,1790859939056,-3364,-1153,21363,3876550,-546113,395840,0,0,0,168,106,113,179,94,215,387,437,172,284,371,211,0,,,
1,1790859939072,5302,-7006,19755,4949230,-715934,-1960877,0,0,0,199,188,125,277,160,305,421,366,182,377,386,220,0,,,
2,1790859939072,1076,670,13639,2030516,-789237,-113620,0,0,0,176,98,124,168,77,203,404,384,170,301,366,212,0,,,
1,1790859939088,4201,-827,20239,4059810,23212,-243124,0,0,0,196,160,136,278,146,306,432,376,201,398,384,233,0,,,
2,1790859939088,1296,301,9471,950506,-602313,0,0,0,0,185,102,143,164,73,223,413,375,185,307,361,208,0,,,
1,1790859939104,-1483,741,15448,2587625,497244,759916,0,0,0,196,146,161,273,137,323,439,387,229,401,365,243,0,,,
2,1790859939104,282,-387,9643,587652,-311541,120951,0,0,0,199,107,155,176,77,226,419,386,177,325,360,203,0,,,
1,1790859939120,-3010,-483,10174,1137431,395840,224798,0,0,0,222,164,177,278,149,322,447,396,253,415,364,243,0,,,
2,1790859939120,124,-263,10461,342084,-173485,68416,0,0,0,208,108,162,187,80,232,429,372,173,333,350,217,0,,,
1,1790859939136,-890,-421,9820,499687,245567,-157603,0,0,0,230,179,197,292,162,323,446,382,242,429,360,251,0,,,
2,1790859939136,464,143,10299,178372,-147829,3665,0,0,0,208,107,166,192,92,243,437,353,181,322,338,235,0,,,
1,1790859939152,-110,57,10390,263893,160046,-134390,0,0,0,238,185,212,299,186,329,452,393,249,439,354,275,0,,,
2,1790859939152,574,234,9997,151494,-131946,0,0,0,0,210,109,171,195,104,253,446,338,187,312,316,255,0,,,
1,1790859939168,-526,363,10433,229685,98960,10995,0,0,0,254,202,227,307,215,336,449,380,248,441,338,288,0,,,
2,1790859939168,497,205,9983,157603,-85521,2443,0,0,0,219,136,177,196,109,262,456,309,195,297,270,272,0,,,
1,1790859939184,-784,234,10050,238237,58643,21991,0,0,0,271,209,239,321,217,345,452,338,241,445,300,307,0,,,
2,1790859939184,454,205,10088,167377,-41538,0,0,0,0,224,164,182,197,121,260,449,287,206,273,226,270,0,,,
1,1790859939200,-660,181,10069,237015,15882,3665,0,0,0,285,214,249,341,210,357,436,270,213,444,265,333,0,,,
2,1790859939200,492,220,10040,189368,-21991,-7330,0,0,0,239,118,193,208,124,264,426,262,212,267,203,295,0,,,
1,1790859939216,-583,229,10189,240680,-54977,17104,0,0,0,296,227,254,362,218,376,409,214,193,421,245,365,0,,,
2,1790859939216,521,186,9992,215024,-19547,-9773,0,0,0,251,147,195,232,136,269,414,184,217,236,145,298,0,,,
1,1790859939232,-588,239,10203,257785,-129503,36651,0,0,0,301,249,253,368,229,393,424,216,234,380,218,397,0,,,
2,1790859939232,550,143,10016,239459,-23212,-20769,0,0,0,257,107,222,235,130,285,429,160,220,244,133,326,0,,,
1,1790859939248,-622,191,10174,290771,-194255,43982,0,0,0,301,295,245,359,252,389,438,213,253,341,200,400,0,,,
2,1790859939248,593,95,10040,261450,-35430,-34208,0,0,0,272,116,270,241,132,306,416,150,245,246,120,354,0,,,
1,1790859939264,-670,119,10179,326202,-241902,41538,0,0,0,293,294,223,370,264,407,448,210,264,319,170,420,0,,,
2,1790859939264,631,19,10011,278554,-56199,-47647,0,0,0,311,129,254,259,147,310,400,127,231,230,97,374,0,,,
1,1790859939280,-760,52,10212,364075,-259006,43982,0,0,0,304,286,231,379,251,415,424,156,257,303,151,437,0,,,
2,1790859939280,555,-23,10002,282219,-64751,-51312,0,0,0,303,150,269,259,161,311,382,106,227,214,84,384,0,,,
1,1790859939296,-813,-19,10189,415388,-238237,52534,0,0,0,334,321,231,395,259,427,422,135,258,313,147,444,0,,,
2,1790859939296,488,-43,10064,295658,-53756,-50090,0,0,0,309,150,221,290,163,301,392,106,251,184,76,403,0,,,
1,1790859939312,-794,-95,10145,458148,-195476,61086,0,0,0,354,276,215,403,245,428,446,136,279,299,124,450,0,,,
2,1790859939312,512,-62,10165,348193,-9773,-51312,0,0,0,325,148,216,286,174,323,379,89,251,175,66,423,0,,,
1,1790859939328,-756,-153,10217,471587,-157603,61086,0,0,0,367,276,197,413,254,435,448,131,276,285,115,458,0,,,
2,1790859939328,579,-105,10222,450818,65973,-58643,0,0,0,346,151,203,271,181,321,361,90,251,174,57,469,0,,,
1,1790859939344,-794,-205,10356,510683,-182037,54977,0,0,0,369,286,185,430,278,441,452,141,290,284,115,456,0,,,
2,1790859939344,708,-191,10308,574213,173485,-75747,0,0,0,314,141,217,262,181,320,340,85,243,172,56,503,0,,,
1,1790859939360,-918,-268,10356,563217,-217468,62308,0,0,0,376,300,166,433,289,433,453,139,286,280,115,458,0,,,
2,1790859939360,813,-296,10423,651182,261450,-107512,0,0,0,346,154,192,281,216,350,322,79,233,170,50,512,0,,,
1,1790859939376,-995,-354,10356,594982,-175929,86742,0,0,0,389,304,155,425,291,425,428,114,252,343,114,446,0,,,
2,1790859939376,966,-449,10538,726929,311541,-156381,0,0,0,394,173,131,300,233,360,314,93,233,173,62,522,0,,,
1,1790859939392,-1048,-449,10390,625526,-97738,113620,0,0,0,402,311,159,416,299,427,437,112,259,328,111,454,0,,,
2,1790859939392,1076,-550,10701,821002,317649,-207694,0,0,0,394,196,119,298,220,359,307,106,239,168,77,535,0,,,
1,1790859939408,-985,-540,10447,668286,-25656,146607,0,0,0,417,317,162,422,304,435,449,123,279,271,111,470,0,,,
2,1790859939408,1177,-641,10911,966388,293215,-266337,0,0,0,419,215,127,301,221,365,297,104,247,165,70,552,0,,,
1,1790859939424,-880,-641,10519,731816,1221,167377,0,0,0,426,327,162,431,311,448,432,119,284,277,117,470,0,,,
2,1790859939424,1100,-746,10983,1123992,266337,-322536,0,0,0,446,189,112,308,218,350,288,101,266,186,68,581,0,,,
1,1790859939440,-899,-756,10643,828333,-7330,180816,0,0,0,430,352,159,428,329,465,431,124,300,286,128,476,0,,,
2,1790859939440,760,-832,11237,1281595,210137,-323758,0,0,0,458,196,115,302,211,350,281,103,286,189,66,600,0,,,
1,1790859939456,-938,-875,10758,954171,-31764,200363,0,0,0,447,365,149,427,334,466,434,128,291,293,137,482,0,,,
2,1790859939456,842,-942,12045,1470963,122173,-283441,0,0,0,468,202,127,299,212,340,269,104,228,189,61,609,0,,,
1,1790859939472,-827,-990,10758,1082453,-57421,219911,0,0,0,472,385,148,425,341,456,434,131,284,295,141,500,0,,,
2,1790859939472,1474,-1143,13184,1789835,24434,-274889,0,0,0,493,256,126,284,250,348,278,124,238,175,83,601,0,,,
1,1790859939488,-684,-1124,10897,1215621,-84299,217468,0,0,0,482,392,156,433,407,447,422,146,277,303,157,499,0,,,
2,1790859939488,1277,-1167,13835,2227214,-47647,-323758,0,0,0,484,281,132,293,237,362,241,90,206,184,71,617,0,,,
1,1790859939504,-904,-1239,11758,1398881,-87964,208915,0,0,0,490,374,177,431,370,460,404,142,265,302,156,518,0,,,
2,1790859939504,837,-1139,14376,2682920,-109955,-317649,0,0,0,502,290,132,306,213,351,225,96,192,209,79,607,0,,,
1,1790859939520,-1139,-1335,13093,1722639,-76969,226020,0,0,0,489,354,165,437,376,439,392,136,262,306,160,521,0,,,
2,1790859939520,1507,-1277,15037,3236364,-202807,-301767,0,0,0,507,297,136,283,243,311,206,98,196,230,110,595,0,,,
1,1790859939536,-942,-1421,14099,2185675,-56199,241902,0,0,0,495,338,174,423,362,436,356,118,259,309,150,527,0,,,
2,1790859939536,2727,-1545,15395,3831346,-350636,-409279,0,0,0,470,307,128,290,225,294,255,123,244,229,90,559,0,,,
1,1790859939552,-880,-1488,14931,2763554,-61086,227241,0,0,0,493,328,186,419,354,426,356,119,272,320,150,521,0,,,
2,1790859939552,3220,-1665,15807,4465424,-559552,-656069,0,0,0,442,297,126,281,228,294,187,100,213,192,74,510,0,,,
1,1790859939568,-1320,-1469,15592,3364645,-75747,243124,0,0,0,482,332,185,419,338,422,337,115,274,315,150,509,0,,,
2,1790859939568,3838,-1842,17592,5200906,-842994,-877202,0,0,0,399,309,128,252,295,281,156,109,233,173,101,478,0,,,
1,1790859939584,-1564,-1359,16482,4074471,-25656,339641,0,0,0,469,335,170,423,352,423,268,90,240,298,145,491,0,,,
2,1790859939584,6738,-3019,19751,6087882,-1066570,-1215621,0,0,0,367,276,125,237,243,277,140,98,202,154,88,432,0,,,
1,1790859939600,-2163,-1239,17903,4955338,147829,465479,0,0,0,441,333,160,428,364,425,213,77,224,281,134,464,0,,,
2,1790859939600,7920,-5340,24369,6952868,-753807,-1754404,0,0,0,316,251,117,203,183,255,129,84,163,129,79,369,0,,,
1,1790859939616,-4355,-1684,19564,5925392,538783,744033,0,0,0,405,332,162,410,354,411,199,80,215,266,128,435,0,,,
2,1790859939616,5853,-5824,30758,7563733,-282219,-2210110,0,0,0,262,169,114,168,137,213,133,78,133,114,70,282,0,,,
1,1790859939632,-5312,-3249,22909,6880786,1072679,1149648,0,0,0,381,315,158,368,339,372,213,82,180,251,130,417,0,,,
2,1790859939632,4608,-2541,34558,7970569,-331088,-2469117,0,0,0,199,114,106,145,94,174,148,80,115,94,50,169,0,,,
1,1790859939648,-4723,-5508,27614,7524638,1643227,1372003,0,0,0,348,271,152,333,290,341,257,98,189,228,114,404,0,,,
2,1790859939648,7145,4331,33859,8362745,-829554,-2708576,0,0,0,146,133,97,131,78,156,152,81,112,76,44,103,0,,,
1,1790859939664,-4000,-4982,30246,7981565,1957212,1462411,0,0,0,295,246,153,291,235,314,268,100,185,189,98,373,0,,,
2,1790859939664,11964,13247,22967,7759210,-1001818,-3119077,0,0,0,140,136,95,128,81,159,139,75,107,81,57,123,0,,,
1,1790859939680,-4053,-1378,31232,8503244,2397035,1500285,0,0,0,222,213,148,253,198,277,297,112,175,180,92,268,0,,,
2,1790859939680,12385,16692,10993,5233893,-263893,-3456275,0,0,0,137,143,96,122,81,153,133,75,103,79,56,123,0,,,
1,1790859939696,-8767,4259,27642,8626638,2660928,1506393,0,0,0,206,182,144,264,182,257,310,111,170,188,92,215,0,,,
2,1790859939696,6661,15314,10634,955393,475253,-2908940,0,0,0,142,152,107,122,84,150,139,80,105,83,48,114,0,,,
1,1790859939712,-12376,9892,19612,7480655,1830152,1617571,0,0,0,206,178,140,266,176,250,285,93,145,192,92,207,0,,,
2,1790859939712,2507,12385,11974,-2048842,30543,-1766622,0,0,0,150,144,107,125,83,150,140,83,97,82,45,111,0,,,
1,1790859939728,-10088,12888,12988,4339586,337197,1740965,0,0,0,219,171,160,278,163,246,238,77,127,185,86,210,0,,,
2,1790859939728,3354,9595,8877,-2758667,-884532,-478918,0,0,0,159,146,116,129,88,155,153,86,111,81,51,116,0,,,
1,1790859939744,-5264,12280,12505,37873,19547,1303586,0,0,0,210,167,147,263,166,252,173,61,107,181,92,202,0,,,
2,1790859939744,5235,8748,4761,-2768441,-728151,401949,0,0,0,154,143,116,126,84,156,145,86,109,80,47,116,0,,,
1,1790859939760,-3881,9432,12323,-2841745,408057,563217,0,0,0,198,167,140,249,163,252,218,80,124,179,96,202,0,,,
2,1790859939760,5029,9116,3866,-3310889,386066,904080,0,0,0,149,140,117,123,80,157,138,86,107,80,44,116,0,,,
1,1790859939776,-5116,7552,9576,-3207042,518013,-18325,0,0,0,196,166,138,247,162,248,245,88,131,181,97,200,0,,,
2,1790859939776,3225,8547,6173,-4571715,1282817,1323134,0,0,0,153,138,118,124,74,158,146,75,111,77,27,115,0,,,
1,1790859939792,-5130,7485,7092,-3306002,239459,-393397,0,0,0,199,163,138,249,160,246,247,86,129,181,93,206,0,,,
2,1790859939792,2239,6925,8303,-5571090,1556484,1610240,0,0,0,148,135,119,124,74,163,147,78,117,85,49,128,0,,,
1,1790859939808,-3804,7949,6671,-4124562,12217,-702495,0,0,0,206,165,147,244,156,246,247,83,126,180,91,204,0,,,
2,1790859939808,2215,5245,9413,-5964488,1561371,1690874,0,0,0,149,144,121,124,74,165,154,85,123,90,59,130,0,,,
1,1790859939824,-3977,6709,7997,-5313305,261450,-871093,0,0,0,204,166,150,242,156,249,266,93,138,182,95,194,0,,,
2,1790859939824,2057,4718,10658,-6146526,1731192,1595580,0,0,0,151,149,119,123,79,164,160,84,123,84,46,125,0,,,
1,1790859939840,-5336,4709,8786,-6072000,196698,-807563,0,0,0,189,159,153,245,158,259,301,111,165,184,98,200,0,,,
2,1790859939840,1751,4709,12581,-6506936,1976759,1415985,0,0,0,147,149,115,120,79,165,155,82,121,79,41,121,0,,,
1,1790859939856,-5747,3326,9203,-6311459,-267558,-621860,0,0,0,185,155,188,237,153,277,302,110,177,182,97,210,0,,,
2,1790859939856,1450,4283,15037,-6940650,2230879,1147204,0,0,0,140,148,107,128,84,174,156,83,124,79,53,124,0,,,
1,1790859939872,-4737,2761,10083,-6367659,-773355,-498466,0,0,0,189,158,183,241,153,279,308,109,178,185,94,210,0,,,
2,1790859939872,947,3718,17396,-7199657,2438574,901637,0,0,0,135,145,98,139,88,188,160,85,125,87,64,132,0,,,
1,1790859939888,-4201,2502,11710,-6568023,-915076,-546113,0,0,0,193,162,152,248,158,264,313,113,167,190,100,204,0,,,
2,1790859939888,315,3326,19669,-7327939,2552194,810007,0,0,0,133,141,97,143,87,197,159,83,121,89,59,133,0,,,
1,1790859939904,-4565,1952,13424,-6823364,-1045801,-599869,0,0,0,194,164,145,251,162,264,313,113,166,189,100,202,0,,,
2,1790859939904,239,2493,22708,-7380473,2621833,917519,0,0,0,130,144,99,144,83,194,160,83,126,81,50,126,0,,,
1,1790859939920,-5168,1048,15204,-7011511,-1392772,-580321,0,0,0,188,160,166,245,160,275,314,115,180,185,96,209,0,,,
2,1790859939920,751,1598,26269,-7334048,2645046,1036027,0,0,0,126,153,99,140,80,188,162,89,134,83,57,126,0,,,
1,1790859939936,-5020,258,17257,-6994406,-1880243,-472809,0,0,0,192,161,174,247,157,276,316,115,180,185,95,210,0,,,
2,1790859939936,1541,646,30643,-7400021,2550973,1020144,0,0,0,125,148,105,142,89,188,163,88,125,91,56,126,0,,,
1,1790859939952,-4580,-134,19999,-6912551,-2255314,-354301,0,0,0,191,159,172,249,159,278,295,105,169,183,93,211,0,,,
2,1790859939952,1526,-1856,34850,-7693236,2420248,885754,0,0,0,126,142,110,139,88,194,174,92,145,83,47,133,0,,,
1,1790859939968,-4398,-588,24173,-6934542,-2449569,-317649,0,0,0,192,170,177,246,155,280,299,104,175,178,87,209,0,,,
2,1790859939968,315,-7317,36544,-7870387,2201558,758694,0,0,0,140,137,130,146,99,217,184,87,161,91,51,164,0,,,
1,1790859939984,-4321,-2297,28389,-7120245,-2722015,-433714,0,0,0,189,166,187,249,155,285,311,107,181,182,87,210,0,,,
2,1790859939984,1794,-16903,34041,-7327939,1622458,704938,0,0,0,133,93,128,137,46,219,183,80,166,90,43,157,0,,,
1,1790859940000,-3005,-6992,32222,-7429343,-3445279,-726929,0,0,0,192,161,183,258,158,284,319,107,179,190,90,211,0,,,
2,1790859940000,5216,-28399,28418,-6181956,1492954,393397,0,0,0,138,90,125,152,52,227,194,86,158,96,48,157,0,,,
1,1790859940016,2043,-14821,34620,-7462329,-4127005,-1033583,0,0,0,199,164,174,267,157,280,328,105,179,194,90,211,0,,,
2,1790859940016,1818,-41052,22349,-4418999,2376265,-627969,0,0,0,144,94,128,152,60,226,194,78,162,103,54,153,0,,,
1,1790859940032,7614,-22761,34376,-6923546,-3689626,-1423316,0,0,0,200,164,177,272,156,280,333,102,177,193,87,211,0,,,
2,1790859940032,-15759,-49131,20760,-2535090,2585181,-1507615,0,0,0,146,95,136,145,51,233,185,71,169,107,44,161,0,,,
1,1790859940048,6637,-31237,28992,-5624847,-1992642,-1805717,0,0,0,211,169,176,281,158,280,330,98,164,193,85,213,0,,,
2,1790859940048,-26896,-50184,19904,-596204,693942,-1194852,0,0,0,142,91,118,151,54,206,183,83,146,101,61,142,0,,,
1,1790859940064,-679,-42282,19765,-4032932,-1258382,-1075122,0,0,0,208,170,166,293,164,287,317,93,162,195,85,219,0,,,
2,1790859940064,-15142,-38138,19224,1337794,-1804495,-3665,0,0,0,124,68,84,159,62,185,226,141,136,137,105,122,0,,,
1,1790859940080,2794,-50940,13500,-2317622,-2074498,527787,0,0,0,202,170,170,284,164,281,333,103,171,198,88,211,0,,,
2,1790859940080,1545,-14127,22708,3205820,-2389704,616973,0,0,0,119,65,76,166,76,192,270,213,146,175,193,146,0,,,
1,1790859940096,21866,-48915,13290,-167377,-1830152,1071457,0,0,0,197,167,164,283,162,281,351,116,181,199,94,211,0,,,
2,1790859940096,9485,16051,17348,5040859,-2565634,346971,0,0,0,126,86,82,171,93,212,310,301,154,224,292,181,0,,,
1,1790859940112,23981,-39875,15137,1661553,740368,-153938,0,0,0,175,171,118,278,199,247,100,50,37,245,204,149,0,,,
2,1790859940112,4254,11639,12309,5696929,-4184426,-78190,0,0,0,130,98,84,172,99,222,343,372,161,241,346,192,0,,,
1,1790859940128,3996,-15314,20062,3160616,2514321,-1194852,0,0,0,205,156,93,282,166,253,343,277,150,282,275,175,0,,,
2,1790859940128,-2158,-5029,17434,5660277,-4338364,196698,0,0,0,132,96,84,170,97,221,356,396,166,240,379,193,0,,,
1,1790859940144,-11777,24211,17238,4708549,2894279,-1099557,0,0,0,192,165,101,291,171,283,321,257,128,314,310,200,0,,,
2,1790859940144,-3048,-5781,24221,4758640,-2725680,521678,0,0,0,142,92,89,176,89,216,369,385,162,273,408,193,0,,,
1,1790859940160,-9375,24771,9624,5925392,2812423,-825889,0,0,0,178,168,105,293,191,307,363,368,158,339,369,210,0,x,,
2,1790859940160,-961,-397,20363,3034778,-1347568,368962,0,0,0,163,89,106,187,73,208,405,369,161,304,400,184,0,x,,
1,1790859940176,1675,-5795,16266,6717074,1134987,-1822821,0,0,0,171,154,121,278,166,309,421,410,191,381,404,220,0,,,
2,1790859940176,813,2354,11366,1418429,-682947,120951,0,0,0,192,97,128,202,63,203,432,367,164,321,389,185,0,,,
1,1790859940192,7681,-11619,27819,6448293,125838,-1761735,0,0,0,186,146,152,276,138,307,444,391,212,415,391,227,0,,,
2,1790859940192,894,1019,8925,812450,-532674,61086,0,0,0,218,87,146,234,63,228,459,356,179,335,344,216,0,,,
1,1790859940208,3402,-2459,25656,3838677,553443,-270002,0,0,0,213,156,188,291,136,317,441,361,224,431,359,247,0,,,
2,1790859940208,593,-43,10303,581543,-442266,70860,0,0,0,218,132,178,231,100,249,397,302,226,329,340,248,0,,,
1,1790859940224,-1411,1182,12706,995710,654847,171042,0,0,0,239,173,219,310,170,335,444,346,240,426,328,282,0,,,
2,1790859940224,579,488,10538,382401,-273667,46425,0,0,0,229,125,197,239,114,266,469,331,223,328,279,277,0,,,
1,1790859940240,-1761,660,7422,10995,266337,-47647,0,0,0,268,201,245,338,206,357,446,327,257,415,296,324,0,,,
2,1790859940240,679,909,10098,259006,-144164,10995,0,0,0,257,125,197,251,140,275,468,267,209,316,243,302,0,,,
1,1790859940256,-555,-315,9485,364075,30543,-184481,0,0,0,292,241,261,367,213,381,439,282,266,407,270,369,0,,,
2,1790859940256,732,909,9887,251676,-78190,-8552,0,0,0,260,102,205,243,121,288,485,207,222,335,187,335,0,,,
1,1790859940272,-502,-33,10969,530231,91629,-23212,0,0,0,297,246,265,362,222,399,461,274,292,375,243,393,0,,,
2,1790859940272,727,827,10059,282219,-19547,-18325,0,0,0,271,113,210,251,144,284,467,196,221,291,169,352,0,,,
1,1790859940288,-775,248,10528,428827,83077,74525,0,0,0,313,258,311,382,232,412,460,235,307,375,202,417,0,,,
2,1790859940288,727,746,10102,304210,36651,-28099,0,0,0,303,138,217,258,165,299,447,159,220,249,127,381,0,,,
1,1790859940304,-722,167,10078,389732,-50090,61086,0,0,0,337,274,280,397,227,410,461,187,296,382,163,431,0,,,
2,1790859940304,746,693,10040,316428,54977,-32986,0,0,0,339,134,228,276,164,311,440,137,234,226,96,397,0,,,
1,1790859940320,-593,76,10265,458148,-206472,50090,0,0,0,369,281,273,404,274,418,421,139,256,371,154,438,0,,,
2,1790859940320,808,665,10035,339641,39095,-42760,0,0,0,350,132,200,306,168,318,413,119,242,215,78,421,0,,,
1,1790859940336,-569,47,10595,581543,-321315,56199,0,0,0,380,271,257,415,264,438,420,125,267,328,139,439,0,,,
2,1790859940336,799,588,10122,397062,23212,-54977,0,0,0,358,129,168,305,183,324,383,104,246,191,68,444,0,,,
1,1790859940352,-660,-19,10729,730594,-410501,50090,0,0,0,371,259,218,413,270,428,454,140,302,298,126,451,0,,,
2,1790859940352,703,512,10246,449596,53756,-48869,0,0,0,389,149,157,311,190,331,373,102,265,186,63,462,0,,,
1,1790859940368,-827,-143,10667,878424,-439822,42760,0,0,0,378,264,208,420,267,439,461,154,326,295,125,456,0,,,
2,1790859940368,641,459,10528,524122,151494,-28099,0,0,0,407,174,140,318,207,338,360,107,272,192,67,480,0,,,
1,1790859940384,-1000,-282,10720,959058,-400727,50090,0,0,0,389,281,190,426,289,445,432,129,285,288,129,452,0,,,
2,1790859940384,847,416,10686,619417,340862,-19547,0,0,0,393,171,118,309,225,340,338,105,260,180,72,493,0,,,
1,1790859940400,-1172,-435,10634,1022588,-375071,79412,0,0,0,396,288,171,428,286,445,430,114,275,280,120,452,0,,,
2,1790859940400,1177,277,10490,689055,477696,-56199,0,0,0,387,152,119,310,204,342,320,96,259,171,69,504,0,,,
1,1790859940416,-1158,-603,10394,1038470,-338419,118507,0,0,0,401,286,156,429,284,441,429,143,304,279,113,463,0,,,
2,1790859940416,1521,114,10423,731816,502131,-119729,0,0,0,395,135,113,295,193,348,286,93,247,173,72,517,0,,,
1,1790859940432,-909,-746,10318,989601,-260228,118507,0,0,0,413,292,146,433,302,433,417,154,304,286,123,469,0,,,
2,1790859940432,1823,9,10696,789237,434936,-212581,0,0,0,415,141,120,292,197,344,274,84,239,170,62,511,0,,,
1,1790859940448,-1043,-856,10169,923628,-160046,92851,0,0,0,427,305,142,433,295,429,433,123,290,294,128,468,0,,,
2,1790859940448,1823,-43,11036,915076,299323,-313984,0,0,0,412,182,114,293,204,342,262,86,232,177,64,529,0,,,
1,1790859940464,-1421,-1062,9676,850324,-40317,113620,0,0,0,427,314,140,429,298,433,429,116,286,290,125,475,0,,,
2,1790859940464,1507,-119,11093,1051909,130725,-373849,0,0,0,427,162,125,279,219,326,260,91,233,185,80,563,0,,,
1,1790859940480,-1397,-1239,9562,784350,36651,174707,0,0,0,438,325,144,425,310,441,424,115,287,302,137,479,0,,,
2,1790859940480,1129,-287,10638,1169196,6108,-365297,0,0,0,430,154,113,281,227,325,277,94,236,193,72,591,0,,,
1,1790859940496,-1215,-1330,9844,740368,86742,218689,0,0,0,444,316,145,432,308,444,422,115,282,305,137,483,0,,,
2,1790859940496,837,-488,10054,1238834,-18325,-323758,0,0,0,473,188,130,437,237,313,282,109,249,194,78,597,0,,,
1,1790859940512,-1095,-1421,10150,742812,117286,249233,0,0,0,450,328,155,434,312,436,407,117,275,306,140,486,0,,,
2,1790859940512,497,-655,9743,1260825,21991,-245567,0,0,0,463,176,123,328,232,328,293,149,267,200,59,615,0,,,
1,1790859940528,-1081,-1521,10423,814894,106290,272445,0,0,0,465,332,158,435,317,440,407,129,285,295,139,494,0,,,
2,1790859940528,871,-799,10524,1302364,32986,-147829,0,0,0,482,169,126,311,229,346,248,92,219,195,64,599,0,,,
1,1790859940544,-1005,-1608,10653,938289,78190,298102,0,0,0,469,346,171,436,345,443,399,124,289,305,147,496,0,,,
2,1790859940544,1828,-990,12050,1469741,-37873,-130725,0,0,0,507,192,138,302,215,357,242,98,223,191,84,628,0,,,
1,1790859940560,-789,-1703,10815,1081231,62308,311541,0,0,0,479,360,164,421,364,437,397,146,271,293,148,512,0,,,
2,1790859940560,2412,-1134,13563,1815491,-167377,-229685,0,0,0,511,197,143,285,197,358,232,94,216,181,61,631,0,,,
1,1790859940576,-650,-1837,10878,1224173,52534,296880,0,0,0,482,351,181,430,379,444,397,149,269,308,157,508,0,,,
2,1790859940576,1986,-1139,14563,2351831,-232128,-344527,0,0,0,507,246,146,281,209,345,219,87,213,188,58,631,0,,,
1,1790859940592,-713,-1981,11308,1404990,32986,268780,0,0,0,487,340,188,416,360,439,390,132,278,308,152,514,0,,,
2,1790859940592,1574,-1076,15352,2971248,-222354,-400727,0,0,0,508,270,150,279,217,336,203,84,212,196,68,621,0,,,
1,1790859940608,-875,-2086,12237,1660331,35430,256563,0,0,0,492,339,196,405,339,441,368,118,278,301,147,516,0,,,
2,1790859940608,1421,-981,15721,3629761,-211359,-420275,0,0,0,504,281,146,272,242,335,183,87,218,189,76,589,0,,,
1,1790859940624,-713,-2158,13400,2057394,58643,248011,0,0,0,491,334,207,409,323,441,339,108,273,313,146,518,0,,,
2,1790859940624,1378,-971,15879,4349360,-268780,-431270,0,0,0,483,293,138,272,263,344,156,85,220,168,80,543,0,,,
1,1790859940640,-756,-2211,14721,2620611,65973,216246,0,0,0,490,329,206,412,316,428,329,103,270,316,140,521,0,,,
2,1790859940640,2100,-1268,16132,5006651,-411723,-456927,0,0,0,448,255,137,280,222,362,128,69,199,141,56,501,0,,,
1,1790859940656,-1646,-2249,15587,3299894,68416,259006,0,0,0,485,332,194,414,332,419,320,105,264,306,139,507,0,,,
2,1790859940656,3938,-2177,17741,5769011,-652404,-631634,0,0,0,402,284,119,287,235,344,135,76,199,134,46,477,0,,,
1,1790859940672,-2182,-2211,16099,4058588,100181,404392,0,0,0,467,335,180,420,357,418,272,104,257,316,151,487,0,,,
2,1790859940672,5422,-4144,20607,6467841,-858876,-912632,0,0,0,368,232,124,244,195,301,133,84,177,143,71,421,0,,,
1,1790859940688,-1799,-2072,17071,4840496,233350,576656,0,0,0,454,352,181,407,371,425,248,98,258,277,141,464,0,,,x
2,1790859940688,5876,-6546,25604,7007846,-745255,-1233947,0,0,0,352,190,134,199,164,257,127,80,149,129,74,380,0,,,x
1,1790859940704,-2665,-2488,19626,5791002,599869,712268,0,0,0,426,364,187,382,341,421,232,101,251,264,146,439,0,,,
2,1790859940704,5355,-6245,29925,7538077,-489913,-1546710,0,0,0,271,172,123,190,133,231,143,82,135,129,69,282,0,,,
1,1790859940720,-5259,-4187,23278,6790377,1104444,960280,0,0,0,391,317,163,362,329,378,254,106,219,248,129,423,0,,,
2,1790859940720,4493,-2933,32864,8164824,-532674,-1814269,0,0,0,202,73,97,158,70,191,139,74,107,99,40,149,0,,,
1,1790859940736,-6781,-5953,27944,7585724,1513724,1325577,0,0,0,380,296,168,332,285,354,244,98,193,216,115,406,0,,,
2,1790859940736,6556,3613,29954,8378627,-923628,-1947438,0,0,0,153,64,94,141,46,174,139,72,111,75,33,113,0,,,
1,1790859940752,-6111,-5427,31959,8308988,1739744,1678657,0,0,0,314,249,175,283,239,321,262,97,198,190,100,384,0,,,
2,1790859940752,9030,9911,21325,7803192,-734260,-2035402,0,0,0,148,68,102,133,47,169,130,72,110,72,33,116,0,,,
1,1790859940768,-5264,-2866,34673,9162978,1893682,1892460,0,0,0,221,203,148,265,195,270,305,107,171,186,91,240,0,,,
2,1790859940768,8111,12141,14414,5252219,6108,-1838704,0,0,0,147,64,98,132,49,160,130,72,111,76,38,113,0,,,
1,1790859940784,-9102,2948,29820,9293703,1854586,1977981,0,0,0,210,192,141,276,188,256,298,101,149,187,90,200,0,,,
2,1790859940784,5139,13065,12577,1116661,359188,-1216843,0,0,0,146,56,99,130,43,155,132,73,108,71,36,111,0,,,
1,1790859940800,-11840,7599,20588,7814188,1211956,2073276,0,0,0,215,189,149,263,187,256,286,103,148,178,91,198,0,,,
2,1790859940800,3847,10772,14094,-2394591,-12217,-485026,0,0,0,148,59,108,129,43,156,134,76,107,72,36,113,0,,,
1,1790859940816,-8346,8403,14625,4378682,480140,1693318,0,0,0,202,179,151,249,181,256,292,111,159,174,92,197,0,,,
2,1790859940816,5144,7312,12883,-3332880,-211359,-190589,0,0,0,149,62,109,126,44,156,129,71,103,71,30,115,0,,,
1,1790859940832,-4513,8700,13074,521678,444709,667064,0,0,0,198,169,145,258,173,253,293,108,154,183,94,195,0,,,
2,1790859940832,5321,6322,10031,-3415958,190589,-200363,0,0,0,147,63,106,125,41,155,126,67,103,69,31,118,0,,,
1,1790859940848,-4694,7413,12557,-2239431,864985,-472809,0,0,0,208,166,141,267,166,248,308,104,147,192,91,191,0,,,
2,1790859940848,3508,7236,8815,-3944967,658512,-182037,0,0,0,146,66,107,127,41,157,134,71,110,73,40,120,0,,,
1,1790859940864,-6484,5809,10346,-3446501,927293,-1022588,0,0,0,209,165,142,266,163,252,312,102,148,193,90,193,0,,,
2,1790859940864,2325,7341,9825,-5145928,557109,109955,0,0,0,144,63,104,128,43,159,143,74,114,74,38,119,0,,,
1,1790859940880,-6460,5498,8030,-3709173,466701,-819781,0,0,0,214,163,145,266,166,263,214,67,108,190,93,194,0,,,
2,1790859940880,3196,6556,10452,-6183177,359188,410501,0,0,0,143,59,106,128,41,159,142,74,120,80,29,126,0,,,
1,1790859940896,-4900,5733,8255,-4721988,282219,-487470,0,0,0,211,159,141,265,161,252,146,43,72,200,99,198,0,,,
2,1790859940896,4685,5403,10681,-6818477,636521,519235,0,0,0,141,56,107,132,42,164,142,78,116,76,29,123,0,,,
1,1790859940912,-4694,5183,9796,-6073222,486248,-227241,0,0,0,207,156,141,259,155,252,147,43,74,199,99,198,0,,,
2,1790859940912,4704,4379,11490,-7147123,1112996,516791,0,0,0,141,52,101,127,46,168,150,78,115,78,35,128,0,,,
1,1790859940928,-6077,3933,11083,-7155675,590095,-1221,0,0,0,206,163,159,250,152,254,174,53,94,198,97,199,0,,,
2,1790859940928,4005,3488,12835,-7268074,1488067,520457,0,0,0,143,61,101,127,43,169,142,75,115,83,41,134,0,,,
1,1790859940944,-6350,3077,11538,-7650476,69638,135612,0,0,0,202,158,148,255,153,257,238,81,129,190,97,203,0,,,
2,1790859940944,3914,2804,14285,-7287622,1685988,591317,0,0,0,144,62,102,138,43,169,153,63,119,82,33,130,0,,,
1,1790859940960,-5470,2383,12328,-7931474,-455705,73303,0,0,0,194,158,142,248,151,250,274,95,145,190,97,196,0,,,
2,1790859940960,4005,2067,15788,-7238753,1890017,691499,0,0,0,140,64,101,134,49,172,154,82,126,87,52,144,0,,,
1,1790859940976,-4857,1459,13658,-8013330,-796568,-279776,0,0,0,191,160,146,243,157,251,268,115,169,187,99,196,0,,,
2,1790859940976,4154,1603,17358,-7111693,2108706,811229,0,0,0,133,62,97,138,47,169,159,74,121,92,41,141,0,,,
1,1790859940992,-5474,387,15013,-7882605,-1127657,-725707,0,0,0,189,165,146,243,166,252,241,96,145,185,101,197,0,,,
2,1790859940992,4154,1478,19908,-7100697,2428800,998153,0,0,0,141,67,103,139,44,166,160,76,121,92,37,137,0,,,
1,1790859941008,-6384,-464,16243,-7588167,-1689653,-1015258,0,0,0,188,161,156,245,160,261,269,95,154,186,99,203,0,,,
2,1790859941008,3455,-244,23316,-7241196,2733011,1244943,0,0,0,137,65,99,143,47,172,159,72,116,87,37,133,0,,,
1,1790859941024,-6221,-770,18018,-7346265,-2294409,-1061683,0,0,0,189,156,160,247,153,267,303,108,176,202,96,207,0,,,
2,1790859941024,2335,-4273,26379,-7248526,2904053,1456302,0,0,0,136,65,99,143,45,173,158,73,115,83,40,132,0,,,
1,1790859941040,-5661,-1105,20421,-7250970,-2741563,-972497,0,0,0,189,156,158,251,153,266,308,109,173,206,94,206,0,,,
2,1790859941040,1062,-11548,28489,-6977302,2998126,1462411,0,0,0,130,58,96,142,47,173,160,72,120,89,39,133,0,,,
1,1790859941056,-4187,-2780,23421,-7356039,-2992017,-855211,0,0,0,191,159,161,258,154,269,285,97,157,190,90,207,0,,,
2,1790859941056,-1746,-20693,29207,-6526484,2912605,945619,0,0,0,125,56,92,141,51,175,162,74,122,92,35,133,0,,,
1,1790859941072,-2368,-6049,26259,-7400021,-3092199,-937067,0,0,0,195,162,159,266,157,272,245,80,135,191,92,206,0,,,
2,1790859941072,-5709,-28954,28614,-5959601,2252871,271224,0,0,0,126,60,94,139,48,174,156,70,116,89,30,135,0,,,
1,1790859941088,-296,-11988,29423,-7232644,-3156951,-1189965,0,0,0,191,156,145,263,157,264,289,94,154,194,91,203,0,,,
2,1790859941088,-8040,-36276,25690,-5010316,944397,-320093,0,0,0,127,60,96,140,43,173,154,63,115,87,25,135,0,,,
1,1790859941104,3709,-21703,31682,-6784269,-3280346,-1088561,0,0,0,186,160,145,264,159,266,314,106,164,194,94,207,0,,,
2,1790859941104,-6599,-42249,21124,-3569896,-12217,-626747,0,0,0,128,59,92,148,50,172,181,90,126,89,44,129,0,,,
1,1790859941120,10509,-30878,30892,-6163630,-3007900,-564439,0,0,0,184,161,145,261,159,266,313,105,167,190,93,207,0,,,
2,1790859941120,-7997,-47393,19995,-1725083,-305432,-610865,0,0,0,132,63,84,156,65,164,223,147,128,104,106,124,0,,,
1,1790859941136,16501,-38674,26120,-5022533,-1574810,-102625,0,0,0,185,161,144,269,161,271,308,105,168,194,92,207,0,,,
2,1790859941136,-15788,-49231,23163,1436755,-1415985,250454,0,0,0,120,59,70,156,66,176,263,191,134,143,147,116,0,,,
1,1790859941152,13979,-43833,20583,-3723834,167377,7330,0,0,0,190,166,152,262,158,271,309,107,171,193,94,205,0,,,
2,1790859941152,-13773,-30657,21153,4642575,-2999348,1244943,0,0,0,127,72,75,162,76,195,265,219,144,157,163,127,0,,,
1,1790859941168,4781,-47044,16286,-2043955,906524,51312,0,0,0,184,155,133,267,158,261,290,121,136,227,153,192,0,,,
2,1790859941168,-3996,2943,17482,5573534,-3246137,1539380,0,0,0,127,78,81,164,76,212,294,257,161,177,199,154,0,,,
1,1790859941184,4623,-45962,17372,131946,671951,-7330,0,0,0,167,158,110,249,164,256,269,204,129,258,230,179,0,,,
2,1790859941184,-770,11174,15582,4162435,-2129476,756251,0,0,0,135,74,85,170,84,221,301,295,159,209,248,174,0,,,
1,1790859941200,10457,-28748,19066,3142290,1390329,-679282,0,0,0,176,155,111,272,162,270,343,265,154,300,276,185,0,,,
2,1790859941200,-717,1670,12749,3059213,-1463633,-182037,0,0,0,139,75,85,166,77,203,317,319,156,259,320,201,0,,,
1,1790859941216,6628,1818,17023,5575977,1981646,-1508837,0,0,0,185,163,117,286,172,288,383,313,176,312,307,190,0,,,
2,1790859941216,1162,-1856,13117,3237585,-1629788,-382401,0,0,0,149,66,106,162,61,205,334,310,156,280,305,184,0,,,
1,1790859941232,2014,8829,16688,5567425,1026253,-1601688,0,0,0,186,166,118,286,176,297,356,301,160,318,330,200,0,,,
2,1790859941232,1143,-660,15879,3046995,-1517389,-30543,0,0,0,175,81,138,157,49,219,378,310,169,316,318,198,0,,,
1,1790859941248,2024,-1086,16807,4026823,-94073,-823446,0,0,0,185,153,118,285,162,300,371,309,159,347,340,213,0,,,
2,1790859941248,210,421,13955,1720196,-874759,130725,0,0,0,195,97,158,161,51,213,391,319,169,339,332,211,0,,,
1,1790859941264,1684,-1698,14826,3296228,587652,156381,0,0,0,184,139,135,276,146,308,429,383,195,371,348,223,0,,,
2,1790859941264,320,454,10509,591317,-416610,28099,0,0,0,212,89,172,161,51,210,392,321,173,333,336,206,0,,,
1,1790859941280,-1062,373,14769,2952922,1797165,597426,0,0,0,197,143,174,277,146,321,437,401,207,375,358,239,0,,,
2,1790859941280,717,430,9495,155159,-243124,-18325,0,0,0,214,80,173,171,63,218,407,309,178,316,322,211,0,,,
1,1790859941296,-1095,239,14457,1657888,1676214,136833,0,0,0,229,170,197,297,174,322,431,378,199,404,353,248,0,,,
2,1790859941296,799,737,10054,172263,-189368,4886,0,0,0,205,90,174,177,84,228,412,321,184,311,310,234,0,,,
1,1790859941312,497,-47,11940,335975,653625,-149051,0,0,0,261,207,209,310,199,327,413,333,178,390,360,268,0,,,
2,1790859941312,689,904,10117,191811,-124616,8552,0,0,0,207,99,213,181,98,242,407,292,191,307,279,253,0,,,
1,1790859941328,684,531,9806,-124616,0,-97738,0,0,0,265,207,257,289,200,343,429,340,225,401,352,297,0,,,
2,1790859941328,660,880,9968,196698,-73303,0,0,0,0,221,132,251,192,114,256,406,240,195,302,245,268,0,,,
1,1790859941344,-33,1033,9796,72082,39095,-4886,0,0,0,258,249,246,294,250,342,427,321,201,418,363,308,0,,,
2,1790859941344,727,784,9897,213802,-57421,-8552,0,0,0,241,175,260,208,144,262,407,217,196,294,225,282,0,,,
1,1790859941360,-234,1124,10165,189368,101403,2443,0,0,0,266,255,279,316,227,365,380,250,179,429,344,334,0,,,
2,1790859941360,751,765,9997,239459,-35430,-12217,0,0,0,267,157,270,224,158,266,409,191,200,277,186,292,0,,,
1,1790859941376,-57,1048,10193,171042,41538,-13439,0,0,0,264,278,273,313,225,368,431,321,265,420,323,344,0,,,
2,1790859941376,751,746,10026,251676,0,-19547,0,0,0,294,119,269,229,133,279,413,168,207,276,155,315,0,,,
1,1790859941392,9,1009,10050,175929,-39095,-4886,0,0,0,278,286,254,320,248,361,452,356,268,401,319,348,0,,,
2,1790859941392,765,708,9992,252898,25656,-31764,0,0,0,293,126,271,232,142,280,408,143,218,273,143,341,0,,,
1,1790859941408,-19,1005,10040,219911,-84299,9773,0,0,0,293,285,256,333,257,361,442,326,259,401,301,346,0,,,
2,1790859941408,775,674,9987,261450,36651,-46425,0,0,0,327,150,260,257,159,291,412,129,225,236,120,351,0,,,
1,1790859941424,-52,957,10083,246789,-130725,19547,0,0,0,310,294,256,354,262,369,440,299,254,401,276,351,0,,,
2,1790859941424,775,646,10031,289550,36651,-57421,0,0,0,343,167,260,257,161,298,391,158,224,209,137,380,0,,,
1,1790859941440,-71,914,10093,250454,-185703,30543,0,0,0,321,303,247,370,275,373,447,288,248,389,253,365,0,,,
2,1790859941440,799,574,10122,346971,43982,-63529,0,0,0,342,183,262,275,202,322,387,114,232,200,105,418,0,,,
1,1790859941456,-105,904,10107,265115,-238237,46425,0,0,0,317,304,250,365,283,380,434,253,240,368,237,382,0,,,
2,1790859941456,832,492,10184,417831,53756,-68416,0,0,0,349,169,223,293,199,332,357,81,221,173,64,423,0,,,
1,1790859941472,-162,885,10150,322536,-288328,67195,0,0,0,319,306,253,356,280,400,410,208,225,342,233,404,0,,,
2,1790859941472,861,411,10236,485026,56199,-73303,0,0,0,361,156,200,298,190,342,328,90,235,170,59,450,0,,,
1,1790859941488,-196,837,10165,381179,-333532,85521,0,0,0,341,296,240,372,261,404,425,200,261,332,192,420,0,,,
2,1790859941488,885,373,10433,565661,106290,-78190,0,0,0,376,166,183,311,197,336,321,90,239,172,49,469,0,,,
1,1790859941504,-181,780,10169,422718,-371406,89186,0,0,0,384,301,253,391,261,421,396,138,233,314,168,429,0,,,
2,1790859941504,957,344,10777,693942,238237,-94073,0,0,0,390,197,153,321,240,343,299,90,233,169,70,488,0,,,
1,1790859941520,-291,727,10270,453262,-409279,74525,0,0,0,415,288,234,380,267,420,412,154,274,315,159,422,0,,,
2,1790859941520,1095,234,11050,833220,318871,-117286,0,0,0,389,219,129,326,247,342,283,98,228,182,82,520,0,,,
1,1790859941536,-445,670,10567,521678,-470366,84299,0,0,0,402,302,215,404,293,421,398,119,242,318,152,426,0,,,
2,1790859941536,1177,114,11270,993266,307876,-146607,0,0,0,418,225,120,323,243,337,274,99,228,185,74,544,0,,,
1,1790859941552,-459,531,10859,691499,-557109,103847,0,0,0,408,332,182,418,314,424,413,140,270,303,144,431,0,,,
2,1790859941552,1325,0,11428,1167974,227241,-182037,0,0,0,462,208,118,308,244,342,249,84,225,172,66,558,0,,,
1,1790859941568,-622,358,11012,866206,-587652,117286,0,0,0,422,350,177,418,333,423,414,135,270,296,147,441,0,,,
2,1790859941568,1469,-172,11552,1361007,174707,-235793,0,0,0,469,205,120,296,237,344,242,88,222,174,67,567,0,,,
1,1790859941584,-722,263,11351,1038470,-541226,142942,0,0,0,426,361,176,431,346,430,405,121,255,302,144,448,0,,,
2,1790859941584,1550,-363,11605,1589471,134390,-300545,0,0,0,479,213,120,292,240,332,255,104,217,179,63,570,0,,,
1,1790859941600,-770,229,11619,1224173,-458148,171042,0,0,0,425,351,163,428,342,436,393,110,254,300,144,456,0,,,
2,1790859941600,1541,-555,11380,1780061,83077,-354301,0,0,0,504,183,124,292,233,331,241,89,209,177,52,592,0,,,
1,1790859941616,-971,47,11490,1401324,-416610,213802,0,0,0,430,339,168,424,339,441,364,102,246,300,145,465,0,,,
2,1790859941616,1363,-746,11356,1968207,24434,-394618,0,0,0,517,183,133,305,225,347,250,93,206,186,55,619,0,,,
1,1790859941632,-1277,-205,11423,1589471,-409279,280998,0,0,0,450,331,176,431,348,443,372,107,245,310,148,479,0,,,
2,1790859941632,1263,-918,12175,2193006,-32986,-397062,0,0,0,539,213,142,294,215,349,226,88,201,192,79,610,0,,,
1,1790859941648,-1162,-430,11371,1799608,-409279,368962,0,0,0,473,330,175,436,341,449,386,105,254,314,145,496,0,,,
2,1790859941648,1612,-1043,13553,2538755,-107512,-400727,0,0,0,527,260,135,280,218,345,210,88,218,188,67,609,0,,,
1,1790859941664,-339,-646,10844,1976759,-400727,370184,0,0,0,482,334,186,430,325,453,348,86,248,309,135,507,0,,,
2,1790859941664,1837,-1105,14797,3034778,-228463,-437379,0,0,0,534,294,143,270,221,341,205,90,205,189,86,602,0,,,
1,1790859941680,-105,-832,10993,2100154,-411723,282219,0,0,0,489,331,194,420,337,439,339,92,247,312,143,512,0,,,
2,1790859941680,2172,-1215,15506,3594331,-395840,-499687,0,0,0,526,311,143,278,218,336,185,82,200,171,54,593,0,,,
1,1790859941696,-1268,-1081,12577,2331061,-387288,234572,0,0,0,499,338,204,434,341,437,308,86,223,335,162,512,0,,,
2,1790859941696,2316,-1215,16243,4247956,-586430,-603534,0,0,0,484,338,134,270,278,336,153,91,202,174,86,543,0,,,
1,1790859941712,-2316,-1349,14304,2729345,-296880,320093,0,0,0,493,339,226,426,335,451,255,67,189,323,161,515,0,,,
2,1790859941712,1885,-1076,16903,4988325,-808785,-695164,0,0,0,428,281,126,292,280,328,133,86,186,168,74,473,0,,,
1,1790859941728,-2359,-1450,15549,3293785,-155159,492357,0,0,0,493,365,212,442,344,446,293,92,233,329,153,526,0,,,
2,1790859941728,2100,-1325,17669,5684711,-1023810,-731816,0,0,0,399,275,130,286,289,316,166,86,191,157,73,460,0,,,
1,1790859941744,-1512,-1263,16420,3875329,-25656,594982,0,0,0,477,374,216,416,398,439,271,98,226,331,169,474,0,,,
2,1790859941744,3345,-3158,20885,6484945,-1314581,-821002,0,0,0,373,245,129,272,232,292,173,81,206,142,63,420,0,,,
1,1790859941760,-603,-942,17511,4735427,157603,577878,0,0,0,467,390,179,413,377,435,185,66,186,293,165,477,0,,,
2,1790859941760,5436,-5910,26317,7128797,-1417207,-1001818,0,0,0,326,216,128,215,171,265,137,74,172,124,53,360,0,,,
1,1790859941776,-952,-1167,18473,5590638,376292,526565,0,0,0,441,380,172,410,365,442,187,75,195,266,152,458,0,,,
2,1790859941776,6432,-5446,30772,7672467,-1224173,-1347568,0,0,0,272,172,120,172,128,220,133,74,133,116,47,277,0,,,
1,1790859941792,-2818,-2522,20488,6525262,720820,555887,0,0,0,420,344,165,392,344,418,207,85,207,260,134,440,0,,,
2,1790859941792,7193,-2072,33203,8470257,-1072679,-1755626,0,0,0,205,105,110,150,77,181,134,70,115,93,39,172,0,,,
1,1790859941808,-5900,-4733,24441,7299839,1132544,767246,0,0,0,404,298,166,364,306,395,224,86,199,245,118,422,0,,,
2,1790859941808,9796,5345,28552,8828224,-886976,-2147802,0,0,0,160,62,108,137,41,171,138,74,119,74,35,112,0,,,
1,1790859941824,-8585,-5302,28528,7908261,1451415,1214400,0,0,0,375,264,167,331,270,357,259,93,190,225,108,406,0,,,
2,1790859941824,11284,10887,19277,7850840,-364075,-2543642,0,0,0,153,59,108,133,41,176,149,83,125,78,38,120,0,,,
1,1790859941840,-8762,-4623,31725,8609534,1580919,1731192,0,0,0,310,229,157,296,237,305,291,106,187,202,97,342,0,,,
2,1790859941840,9466,12605,11739,5011538,548556,-2565634,0,0,0,149,56,105,128,41,169,129,71,110,73,38,121,0,,,
