sole_id,timestamp,accel_x,accel_y,accel_z,gyro_x,gyro_y,gyro_z,magn_x,magn_y,magn_z,pressure_01,pressure_02,pressure_03,pressure_04,pressure_05,pressure_06,pressure_07,pressure_08,pressure_09,pressure_10,pressure_11,pressure_12,corrupt,grass,transition,concrete,asphalt
1,1791232878704,-8427,-6159,30581,7737219,1767844,1822821,0,0,0,291,285,150,283,274,307,279,119,184,205,122,383,0,,,,
1,1791232878720,-7709,-3364,32644,8416501,1907121,2230879,0,0,0,196,247,150,259,235,271,306,126,174,207,127,290,0,,,,
1,1791232878736,-6934,-1655,28614,8649851,2247984,2199114,0,0,0,188,228,149,255,225,262,309,133,173,208,138,258,0,,,,
1,1791232878752,-3948,-3345,20526,7996225,2781880,1222952,0,0,0,198,232,156,271,229,270,304,132,174,204,135,257,0,,,,
1,1791232878768,-2306,-2766,14290,6210056,3488040,-656069,0,0,0,206,231,154,270,224,265,304,138,174,203,135,252,0,,,,
1,1791232878784,-5915,1866,11289,2747671,3632204,-2453234,0,0,0,199,226,145,273,222,262,288,122,156,207,135,247,0,,,,
1,1791232878800,-10648,3239,10801,-564439,2323731,-2131919,0,0,0,207,221,147,273,216,259,200,78,104,218,140,247,0,,,,
2,1791232878800,0,0,0,0,0,0,0,0,0,241,128,170,194,83,226,444,325,174,389,316,280,0,,,,
1,1791232878816,-10394,2890,9571,-2342057,586430,-651182,0,0,0,207,215,144,265,210,256,172,66,89,220,140,247,0,,,,
2,1791232878816,-1579,-1612,1904,1221,-54977,-61086,0,0,0,241,117,175,204,78,237,461,294,179,403,286,296,0,,,,
1,1791232878832,-6202,3962,6867,-2957809,-504574,670730,0,0,0,206,210,144,261,200,261,232,96,128,211,137,247,0,,,,
2,1791232878832,-5340,-5905,10902,-147829,-1208291,-1382998,0,0,0,250,111,163,209,78,240,452,265,177,408,272,313,0,,,,
1,1791232878848,-3019,6336,4771,-4127005,-657290,972497,0,0,0,204,200,143,264,193,261,217,85,120,216,133,246,0,,,,
2,1791232878848,-1215,-2445,12926,-65973,-2188119,-2052507,0,0,0,256,108,172,212,81,241,443,257,172,399,255,323,0,,,,
1,1791232878864,-2488,7121,5020,-5486791,-509461,626747,0,0,0,203,191,142,252,192,249,164,56,85,226,133,244,0,,,,
2,1791232878864,3378,1933,9873,302989,-1164309,-739146,0,0,0,251,141,181,203,119,252,429,253,186,370,245,352,0,,,,
1,1791232878880,-2814,6470,5977,-6568023,-351858,96516,0,0,0,200,188,143,242,190,245,162,58,83,229,141,243,0,,,,
2,1791232878880,3910,2522,8600,508239,-216246,141720,0,0,0,265,141,185,211,125,255,434,253,186,354,218,381,0,,,,
1,1791232878896,-2943,5240,6623,-7348708,-153938,-504574,0,0,0,195,187,143,256,185,254,164,62,85,230,150,243,0,,,,
2,1791232878896,2694,1340,9274,555887,-240680,25656,0,0,0,282,121,187,224,96,258,454,219,180,341,191,398,0,,,,
1,1791232878912,-3335,4536,6666,-7505090,6108,-993266,0,0,0,193,192,144,259,190,259,157,60,81,230,150,245,0,,,,
2,1791232878912,2354,928,9810,669508,-626747,-262672,0,0,0,287,122,200,233,99,266,459,204,183,339,183,421,0,,,,
1,1791232878928,-4517,3910,6934,-7533190,-138055,-1411098,0,0,0,191,199,146,261,200,263,157,77,82,222,168,245,0,,,,
2,1791232878928,2459,985,9786,827111,-777020,-299323,0,0,0,304,136,216,244,119,273,435,194,192,323,164,433,0,,,,
1,1791232878944,-5508,2809,7906,-7393912,-720820,-1589471,0,0,0,191,197,145,263,197,262,317,155,173,220,159,245,0,,,,
2,1791232878944,2402,904,9696,893084,-719599,-246789,0,0,0,318,144,218,250,140,290,403,178,204,292,147,446,0,,,,
1,1791232878960,-5608,1876,9150,-7180110,-1247386,-1585806,0,0,0,186,188,146,250,182,261,321,128,182,224,137,246,0,x,,,
2,1791232878960,2249,670,9734,831998,-618195,-249233,0,0,0,337,165,218,252,179,307,393,172,208,276,147,463,0,x,,,
1,1791232878976,-5154,1569,10490,-7016398,-1551597,-1444085,0,0,0,187,190,148,253,187,265,194,74,108,236,148,251,0,,,,
2,1791232878976,2158,473,9873,703716,-514348,-291993,0,0,0,353,176,219,259,202,320,387,170,216,270,148,482,0,,,,
1,1791232878992,-5216,1670,11830,-7042054,-1723861,-1202182,0,0,0,190,191,150,263,186,266,269,105,152,224,141,248,0,,,,
2,1791232878992,2100,392,9987,691499,-453262,-317649,0,0,0,351,162,220,266,187,336,366,154,232,250,133,505,0,,,,
1,1791232879008,-5345,1689,13366,-7067710,-1970651,-883311,0,0,0,188,192,156,256,186,267,318,136,181,226,150,248,0,,,,
2,1791232879008,2048,349,10131,751364,-414166,-332310,0,0,0,367,170,231,280,192,346,359,138,233,239,107,519,0,,,,
1,1791232879024,-4699,1742,15558,-7131240,-2274862,-555887,0,0,0,186,190,155,254,186,271,326,136,188,227,149,250,0,,,,
2,1791232879024,2062,239,10346,841772,-394618,-348193,0,0,0,381,183,218,300,215,351,352,132,241,253,124,541,0,,,,
1,1791232879040,-3531,617,18434,-7365813,-2456899,-662177,0,0,0,194,191,152,269,189,274,263,104,151,225,149,251,0,,,,
2,1791232879040,2244,57,10600,946841,-406836,-381179,0,0,0,392,202,174,297,245,337,338,128,225,215,114,544,0,,,,
1,1791232879056,-2785,-2957,21799,-7406130,-2623055,-1178969,0,0,0,193,195,149,269,199,272,252,137,167,219,163,248,0,,,,
2,1791232879056,2569,-196,10820,1102000,-445931,-449596,0,0,0,408,206,151,315,249,355,324,129,235,210,96,552,0,,,,
1,1791232879072,-1000,-10203,25996,-7004180,-2763554,-1718974,0,0,0,188,203,145,263,202,271,297,158,189,221,167,248,0,,,,
2,1791232879072,2943,-488,11031,1330464,-392175,-577878,0,0,0,419,189,131,321,225,371,330,138,235,193,99,564,0,,,,
1,1791232879088,2684,-20507,29925,-6396980,-2533869,-1773952,0,0,0,187,211,143,265,200,273,323,140,182,227,159,251,0,,,,
2,1791232879088,3149,-588,11529,1574810,-268780,-750142,0,0,0,465,195,123,319,222,358,357,191,274,200,87,574,0,,,,
1,1791232879104,7891,-32208,30854,-5479461,-1588249,-971275,0,0,0,187,213,144,266,201,273,325,137,183,232,159,253,0,,,,
2,1791232879104,2971,-469,12404,1813048,-208915,-906524,0,0,0,463,191,122,333,222,361,325,143,237,216,83,599,0,,,,
1,1791232879120,12208,-42134,29777,-4279721,-270002,119729,0,0,0,187,211,138,266,198,270,325,133,172,246,168,250,0,,,,
2,1791232879120,2206,-368,13582,2180788,-299323,-987158,0,0,0,462,196,123,317,218,363,303,128,222,197,96,607,0,,,,
1,1791232879136,12792,-50380,28121,-2741563,1299921,941954,0,0,0,180,201,121,269,195,263,318,146,147,270,199,237,0,,,,
2,1791232879136,1560,-469,14414,2582738,-394618,-963945,0,0,0,459,215,133,310,224,357,286,136,231,191,101,598,0,,,,
1,1791232879152,8169,-53122,26786,-311541,2856405,1177748,0,0,0,178,197,118,294,208,263,306,182,129,313,260,208,0,,,,
2,1791232879152,1048,-574,14903,3068986,-412944,-872315,0,0,0,463,237,126,302,237,349,285,139,233,186,102,584,0,,,,
1,1791232879168,985,-35386,24881,2247984,3913202,946841,0,0,0,167,200,114,278,204,267,303,219,130,311,290,212,0,,,,
2,1791232879168,392,-526,15171,3591887,-397062,-734260,0,0,0,454,256,125,291,254,353,260,133,245,174,108,575,0,,,,
1,1791232879184,-5546,7365,20277,3296228,3865555,113620,0,0,0,176,200,140,285,197,290,363,267,170,315,301,243,0,,,,
2,1791232879184,143,-502,15429,4119675,-420275,-551000,0,0,0,449,261,126,279,279,364,225,134,243,157,108,559,0,,,,
1,1791232879200,-4757,25565,15089,3154508,3121521,-940732,0,0,0,189,204,148,290,205,295,272,191,153,346,297,249,0,,,,
2,1791232879200,1947,-1062,16233,4783074,-535117,-444709,0,0,0,439,245,118,291,288,362,204,126,226,147,95,519,0,,,,
1,1791232879216,2589,8289,12151,2912605,1886351,-1714087,0,0,0,183,195,139,292,184,298,373,262,183,374,302,263,0,,,,
2,1791232879216,4321,-1923,17329,5474574,-660956,-586430,0,0,0,406,245,116,293,285,351,179,114,213,142,88,479,0,,,,
1,1791232879232,5996,-2301,9992,2860071,1119105,-1180191,0,0,0,190,206,153,294,196,316,375,307,184,377,363,273,0,,,,
2,1791232879232,5876,-3431,19138,6177069,-791681,-963945,0,0,0,368,237,126,257,258,328,153,109,198,140,84,449,0,,,,
1,1791232879248,3311,569,9107,2822197,962723,-310319,0,0,0,193,205,157,296,200,328,407,355,198,400,389,282,0,,,,
2,1791232879248,6446,-5340,22718,6708522,-822224,-1351233,0,0,0,333,176,131,225,185,276,156,94,176,139,70,392,0,,,,
1,1791232879264,631,2431,12696,2499660,728151,-101403,0,0,0,200,207,157,299,206,340,428,382,211,400,393,294,0,,,,
2,1791232879264,6058,-6389,27054,7024950,-646295,-1640784,0,0,0,275,153,116,176,143,231,161,92,151,113,70,307,0,,,,
1,1791232879280,1229,1057,14778,1717753,372627,-218689,0,0,0,214,217,161,306,211,351,426,355,200,416,401,319,0,,,,
2,1791232879280,5561,-4737,29762,7373143,-395840,-1861917,0,0,0,187,165,103,156,121,197,160,92,126,97,58,203,0,,,,
1,1791232879296,2100,430,12754,890641,98960,-188146,0,0,0,223,226,174,316,214,362,430,346,201,438,412,345,0,,,,
2,1791232879296,6527,-397,29365,7616267,-320093,-2086715,0,0,0,108,119,82,135,92,154,167,94,109,82,59,86,0,,,,
1,1791232879312,1253,1162,10447,531452,28099,-36651,0,0,0,227,230,190,318,219,367,445,389,235,438,416,363,0,,,,
2,1791232879312,8274,3613,21493,6834360,-199142,-2306627,0,0,0,103,119,83,130,89,160,163,96,114,83,63,108,0,,,,
1,1791232879328,670,1497,10174,425162,28099,-2443,0,0,0,245,236,201,321,219,365,458,412,263,452,410,379,0,,,,
2,1791232879328,8145,4967,13352,4883256,348193,-2273640,0,0,0,120,118,90,136,90,161,193,123,130,79,66,96,0,,,,
1,1791232879344,760,1459,10466,360410,13439,-42760,0,0,0,271,240,209,350,216,366,462,421,267,467,401,387,0,,,,
2,1791232879344,5532,5455,10935,2032959,978606,-1621236,0,0,0,126,108,83,133,81,163,168,95,123,77,55,103,0,,,,
1,1791232879360,957,1435,10227,285884,-28099,-61086,0,0,0,268,245,219,332,224,373,463,424,267,449,406,399,0,,,,
2,1791232879360,3340,6590,12447,-638965,976162,-525344,0,0,0,129,108,87,133,81,168,164,91,116,79,48,108,0,,,,
1,1791232879376,947,1512,9992,260228,-62308,-54977,0,0,0,281,247,224,338,224,376,468,418,276,454,396,404,0,,,,
2,1791232879376,3517,6188,12318,-1890017,313984,348193,0,0,0,121,110,85,137,82,169,173,92,128,74,42,105,0,,,,
1,1791232879392,899,1545,10002,276111,-101403,-41538,0,0,0,277,267,226,330,244,373,469,406,274,430,389,411,0,,,,
2,1791232879392,4034,5982,8595,-2108706,-146607,616973,0,0,0,121,113,82,137,81,166,177,96,124,67,41,99,0,,,,
1,1791232879408,923,1512,10064,299323,-156381,-29321,0,0,0,286,264,232,334,245,381,463,373,284,414,354,427,0,,,,
2,1791232879408,3732,7063,5451,-2505769,-184481,590095,0,0,0,119,118,80,140,82,169,180,99,123,70,47,101,0,,,,
1,1791232879424,933,1478,10031,322536,-219911,-19547,0,0,0,297,269,234,338,240,387,468,337,292,407,314,440,0,,,,
2,1791232879424,2938,8011,5068,-3745825,-85521,648738,0,0,0,114,122,79,140,86,169,179,99,123,81,45,106,0,,,,
1,1791232879440,861,1440,9992,360410,-276111,-9773,0,0,0,308,266,231,346,241,393,459,294,295,392,283,449,0,,,,
2,1791232879440,2689,7303,5876,-4670675,-87964,703716,0,0,0,114,119,79,142,90,170,181,103,127,86,51,111,0,,,,
1,1791232879456,799,1383,10059,412944,-323758,-10995,0,0,0,314,264,228,351,244,402,449,267,297,374,261,457,0,,,,
2,1791232879456,3019,6235,6188,-5211902,-56199,690277,0,0,0,119,123,83,140,91,172,186,108,130,84,55,112,0,,,,
1,1791232879472,703,1296,10107,464257,-372627,-14660,0,0,0,320,264,217,364,247,412,447,250,301,364,242,462,0,,,,
2,1791232879472,3512,5575,6259,-5500230,178372,674395,0,0,0,120,130,86,137,90,172,187,107,127,80,53,109,0,,,,
1,1791232879488,598,1206,10098,522900,-410501,-19547,0,0,0,325,265,208,374,249,410,449,232,314,358,224,464,0,,,,
2,1791232879488,3311,5326,7106,-5791002,482583,831998,0,0,0,115,133,83,137,97,169,185,113,125,78,62,106,0,,,,
1,1791232879504,473,1134,10074,577878,-420275,-23212,0,0,0,332,271,210,384,257,407,441,208,312,354,209,463,0,,,,
2,1791232879504,3464,4867,8212,-6052452,640186,1084896,0,0,0,111,140,76,133,107,168,187,141,128,81,74,109,0,,,,
1,1791232879520,315,1052,10045,604756,-399505,-15882,0,0,0,344,278,213,398,263,419,423,178,292,355,196,456,0,,,,
2,1791232879520,4331,4024,9375,-6218608,827111,1301142,0,0,0,107,124,76,129,90,170,195,106,131,92,58,112,0,,,,
1,1791232879536,244,961,10088,618195,-370184,6108,0,0,0,351,279,204,403,258,429,423,158,298,349,178,459,0,,,,
2,1791232879536,4910,3216,10677,-6338337,1147204,1400103,0,0,0,108,124,77,136,95,175,203,112,138,75,48,106,0,,,,
1,1791232879552,315,866,10275,652404,-377514,34208,0,0,0,350,274,187,406,258,427,444,161,332,334,160,467,0,,,,
2,1791232879552,4733,2766,12079,-6449515,1408655,1378111,0,0,0,115,129,85,141,91,176,208,120,146,78,45,111,0,,,,
1,1791232879568,277,727,10452,742812,-436157,56199,0,0,0,365,286,191,422,280,436,423,131,314,335,157,457,0,,,,
2,1791232879568,4647,2488,13955,-6568023,1500285,1332907,0,0,0,114,131,86,139,91,178,195,104,138,78,58,117,0,,,,
1,1791232879584,23,569,10552,818559,-465479,91629,0,0,0,373,307,190,435,293,446,407,112,286,323,165,473,0,,,,
2,1791232879584,4962,2091,15979,-6662096,1587027,1328021,0,0,0,109,127,88,141,95,182,201,117,142,86,70,121,0,,,,
1,1791232879600,-315,445,10782,905302,-447153,172263,0,0,0,385,292,179,442,294,452,397,102,291,324,156,475,0,,,,
2,1791232879600,4809,550,18659,-6735400,1743409,1425759,0,0,0,112,127,90,140,96,181,197,108,145,77,53,117,0,,,,
1,1791232879616,-459,349,10935,1039692,-414166,266337,0,0,0,404,299,191,447,294,470,392,92,280,342,153,469,0,,,,
2,1791232879616,4044,-3412,21617,-6669426,1778839,1707979,0,0,0,107,125,82,143,94,181,195,111,138,83,48,115,0,,,,
1,1791232879632,-713,215,10988,1197295,-321315,354301,0,0,0,418,309,202,445,300,485,371,90,284,318,144,498,0,,,,
2,1791232879632,3196,-10107,24680,-6500827,1864360,2025629,0,0,0,113,126,86,140,88,181,194,110,137,75,61,112,0,,,,
1,1791232879648,-952,4,11064,1358564,-195476,467922,0,0,0,424,310,183,441,298,476,366,89,286,330,148,488,0,,,,
2,1791232879648,713,-19492,27264,-6269920,1946216,2050063,0,0,0,112,131,81,144,94,182,198,112,136,78,57,116,0,,,,
1,1791232879664,-536,-258,10926,1511280,-117286,576656,0,0,0,432,315,180,445,298,487,364,89,297,336,150,490,0,,,,
2,1791232879664,-3426,-31548,28810,-5714033,1593136,1762957,0,0,0,110,133,79,145,99,184,195,116,135,76,56,108,0,,,,
1,1791232879680,282,-440,10734,1629788,-103847,608421,0,0,0,437,330,182,450,322,493,367,101,307,337,164,495,0,,,,
2,1791232879680,-6164,-41325,27580,-4719544,637743,1205847,0,0,0,106,135,79,140,100,183,193,119,137,76,53,110,0,,,,
1,1791232879696,856,-531,11150,1755626,-116064,515570,0,0,0,444,335,199,449,337,487,350,103,304,340,170,495,0,,,,
2,1791232879696,-4374,-49049,22751,-3137403,-712268,348193,0,0,0,105,141,79,138,102,184,197,121,144,80,55,123,0,,,,
1,1791232879712,119,-689,12505,1999972,-86742,427605,0,0,0,453,340,206,455,343,492,296,87,270,345,172,496,0,,,,
2,1791232879712,-1909,-51619,17822,-1345125,-1230282,-406836,0,0,0,112,149,85,142,107,190,201,123,145,87,68,127,0,,,,
1,1791232879728,-622,-966,13969,2433687,-64751,431270,0,0,0,462,351,203,467,369,501,273,82,250,343,179,503,0,,,,
2,1791232879728,-4809,-45814,16453,747699,-803898,-618195,0,0,0,114,151,88,148,111,188,210,133,139,102,79,124,0,,,,
1,1791232879744,-545,-1186,14802,2993239,-123394,515570,0,0,0,468,360,207,466,403,498,308,94,275,330,182,508,0,,,,
2,1791232879744,-7743,-33371,17501,2493551,-751364,-447153,0,0,0,104,125,79,155,104,183,256,190,143,142,135,112,0,,,,
1,1791232879760,-124,-1287,15362,3578448,-254119,582765,0,0,0,466,361,200,450,406,501,319,93,294,328,173,508,0,,,,
2,1791232879760,-3196,-2517,19717,3439171,-1552819,-301767,0,0,0,112,61,62,167,78,193,354,287,158,252,242,128,0,,,,
1,1791232879776,320,-1296,16051,4238183,-401949,610865,0,0,0,457,352,175,462,397,504,302,79,302,329,163,506,0,,,,
2,1791232879776,6848,40004,14467,3679852,-3540574,-169820,0,0,0,125,62,78,183,78,212,388,354,162,288,278,146,0,,,,
1,1791232879792,205,-1488,17329,4979773,-436157,619417,0,0,0,437,368,157,463,402,502,282,93,323,286,156,490,0,,,,
2,1791232879792,6211,32093,16649,4102570,-4577824,241902,0,0,0,159,74,92,210,80,227,418,374,168,356,325,170,0,,,,
1,1791232879808,-282,-2206,19980,5769011,-377514,631634,0,0,0,417,349,157,457,391,486,292,104,305,280,144,466,0,,,,
2,1791232879808,-3895,-5139,26408,3442836,-3053104,918741,0,0,0,190,94,136,222,74,223,434,342,174,356,296,187,0,,,,
1,1791232879824,-1995,-3608,24168,6603453,-288328,642630,0,0,0,400,327,150,415,347,436,287,110,275,257,138,445,0,,,,
2,1791232879824,-5532,-7341,19870,1385442,-819781,627969,0,0,0,218,109,193,216,94,247,440,329,196,316,269,232,0,,,,
1,1791232879840,-5058,-4747,28274,7445225,-245567,788016,0,0,0,368,299,157,356,314,393,220,92,217,226,124,419,0,,,,
2,1791232879840,-1646,2450,9447,487470,206472,28099,0,0,0,241,117,217,261,112,260,456,325,205,331,256,275,0,,,,
1,1791232879856,-6255,-4761,31552,8115955,2443,1166752,0,0,0,306,268,162,307,267,336,264,101,188,208,112,399,0,,,,
2,1791232879856,1201,5541,7126,758694,226020,-245567,0,0,0,244,160,215,254,128,274,466,308,209,324,248,315,0,,,,
1,1791232879872,-6322,-3421,33337,8432383,885754,1628566,0,0,0,230,220,174,272,210,295,298,112,189,204,114,309,0,,,,
2,1791232879872,914,1751,10385,866206,128281,-152716,0,0,0,253,172,249,249,178,288,482,314,236,310,257,330,0,,,,
1,1791232879888,-9284,-674,31911,8467813,1831373,2065946,0,0,0,201,192,181,258,186,282,311,116,195,206,120,252,0,,,,
2,1791232879888,325,612,11241,703716,142942,-80634,0,0,0,257,179,290,247,169,298,481,281,230,303,259,344,0,,,,
1,1791232879904,-12988,3201,24244,7770205,2010968,2509434,0,0,0,205,189,170,259,191,277,294,107,176,207,123,246,0,,,,
2,1791232879904,435,1459,10404,598647,186924,-76969,0,0,0,259,162,294,258,148,308,498,244,237,297,233,360,0,,,,
1,1791232879920,-11284,6312,14510,5441587,816115,2660928,0,0,0,210,186,152,262,192,271,282,104,160,206,122,242,0,,,,
2,1791232879920,622,1880,10031,572991,216246,-65973,0,0,0,269,168,298,267,169,315,493,225,238,299,209,369,0,,,,
1,1791232879936,-4718,8949,10571,1622458,-142942,2009746,0,0,0,212,180,143,259,187,267,298,112,167,204,120,240,0,,,,
2,1791232879936,521,1655,10294,570548,276111,-45204,0,0,0,270,187,300,273,199,310,474,233,247,269,181,383,0,,,,
1,1791232879952,-1143,8193,10705,-1359786,676838,810007,0,0,0,209,176,143,253,180,264,300,109,168,208,119,240,0,,,,
2,1791232879952,368,1493,10447,597426,436157,-32986,0,0,0,262,184,281,272,199,303,455,216,280,215,137,399,0,,,,
1,1791232879968,-2991,6657,8691,-2740341,1587027,-124616,0,0,0,212,177,144,259,176,266,306,108,170,213,120,243,0,,,,
2,1791232879968,488,1454,10409,673173,618195,-35430,0,0,0,262,167,264,265,174,310,434,154,288,187,102,405,0,,,,
1,1791232879984,-6786,6355,4953,-3009122,1248608,-421497,0,0,0,202,173,141,250,173,268,303,107,172,214,120,243,0,,,,
2,1791232879984,808,1354,10289,764803,777020,-43982,0,0,0,261,164,259,271,164,324,429,142,253,202,97,406,0,,,,
1,1791232880000,-5781,7245,3862,-3927863,134390,-342084,0,0,0,199,169,141,259,176,273,338,121,191,215,123,240,0,,,,
2,1791232880000,1139,1182,10174,810007,872315,-54977,0,0,0,256,157,228,280,181,327,418,139,257,252,88,410,0,,,,
1,1791232880016,-3517,7212,4728,-5220454,-216246,-340862,0,0,0,194,171,141,248,170,264,336,121,186,218,125,238,0,,,,
2,1791232880016,1507,1000,10088,797790,873537,-87964,0,0,0,261,158,216,296,182,317,422,149,275,186,89,429,0,,,,
1,1791232880032,-3847,5915,5489,-6098878,194255,-410501,0,0,0,210,171,147,270,173,273,290,100,161,221,129,240,0,,,,
2,1791232880032,1895,851,9964,763581,761138,-166155,0,0,0,259,185,201,299,236,324,438,123,243,189,103,446,0,,,,
1,1791232880048,-5685,4680,5451,-6483723,167377,-394618,0,0,0,205,167,149,272,172,277,325,115,182,222,128,241,0,,,,
2,1791232880048,2029,746,9954,745255,608421,-254119,0,0,0,252,160,191,289,187,340,398,106,256,177,86,455,0,,,,
1,1791232880064,-6379,3780,5465,-6516710,-608421,-304210,0,0,0,196,165,145,255,163,270,338,119,187,224,129,242,0,,,,
2,1791232880064,2110,650,10107,763581,403171,-328645,0,0,0,256,190,191,272,252,332,379,125,259,153,82,444,0,,,,
1,1791232880080,-5101,2952,6412,-6477614,-1364672,-342084,0,0,0,194,164,145,251,160,271,353,125,198,224,126,243,0,,,,
2,1791232880080,2340,574,10256,812450,183259,-409279,0,0,0,258,168,177,283,213,341,379,121,255,164,92,458,0,,,,
1,1791232880096,-4958,2770,7877,-6550918,-1929112,-503352,0,0,0,196,162,148,256,161,274,340,118,188,227,123,243,0,,,,
2,1791232880096,2565,478,10256,879645,-17104,-522900,0,0,0,268,163,170,300,215,341,385,113,255,175,84,472,0,,,,
1,1791232880112,-4771,2282,9705,-6670648,-2441017,-717155,0,0,0,195,160,147,260,163,272,336,115,183,230,124,245,0,,,,
2,1791232880112,2450,344,10112,927293,-155159,-635299,0,0,0,273,176,165,312,246,345,374,119,261,162,92,478,0,,,,
1,1791232880128,-4465,1593,11146,-6680422,-2736676,-839328,0,0,0,198,160,154,272,166,279,345,119,191,230,127,248,0,,,,
2,1791232880128,2091,153,9983,957836,-262672,-714712,0,0,0,286,176,170,306,219,342,396,114,265,177,85,484,0,,,,
1,1791232880144,-4460,1603,12232,-6637661,-2883283,-707381,0,0,0,198,161,164,276,166,287,342,116,195,230,126,251,0,,,,
2,1791232880144,1861,-28,10050,985936,-331088,-753807,0,0,0,298,175,153,316,219,356,372,115,288,170,87,488,0,,,,
1,1791232880160,-4369,2081,13917,-6662096,-3054326,-455705,0,0,0,195,161,167,269,164,289,327,106,187,230,125,254,0,,,,
2,1791232880160,1646,-234,10294,1034805,-354301,-767246,0,0,0,314,185,138,324,245,369,354,121,297,173,94,505,0,,,,
1,1791232880176,-4139,2378,16472,-6807482,-3226590,-250454,0,0,0,203,166,169,281,169,294,303,96,173,231,128,256,0,,,,
2,1791232880176,1550,-378,10413,1099557,-350636,-773355,0,0,0,329,199,127,322,275,366,376,167,293,198,104,530,0,,,,
1,1791232880192,-3436,871,20191,-7028615,-3442836,-384845,0,0,0,193,166,165,269,169,292,288,93,167,229,127,253,0,,,,
2,1791232880192,1550,-521,10614,1208291,-337197,-780685,0,0,0,340,227,114,332,295,365,388,183,290,200,111,540,0,,,,
1,1791232880208,-2507,-3417,24895,-7060380,-3662747,-905302,0,0,0,200,172,170,288,175,297,327,109,192,227,127,254,0,,,,
2,1791232880208,1526,-693,10662,1346346,-353080,-795346,0,0,0,353,260,110,350,292,373,368,138,279,187,112,543,0,,,,
1,1791232880224,-430,-12299,30270,-6614448,-3966958,-1351233,0,0,0,198,193,164,287,187,296,317,109,184,226,133,254,0,,,,
2,1791232880224,995,-818,10538,1467298,-403171,-783129,0,0,0,367,248,110,346,275,373,347,135,266,197,114,555,0,,,,
1,1791232880240,5307,-23058,34414,-5936388,-3985284,-1105666,0,0,0,186,193,161,271,187,294,317,109,184,226,137,257,0,,,,
2,1791232880240,421,-909,11251,1618792,-449596,-665843,0,0,0,383,206,119,342,279,381,339,130,262,185,99,567,0,,,,
1,1791232880256,13113,-33725,34926,-4982216,-3108082,-354301,0,0,0,194,197,164,285,191,301,298,104,174,227,138,258,0,,,,
2,1791232880256,583,-1028,12653,1880243,-456927,-544891,0,0,0,403,197,125,378,261,390,352,132,260,200,93,586,0,,,,
1,1791232880272,15419,-41344,29753,-3610213,-1251052,383623,0,0,0,189,195,169,272,185,298,326,118,193,249,137,253,0,,,,
2,1791232880272,981,-1196,14108,2311514,-426383,-474031,0,0,0,428,202,121,360,277,379,323,120,240,204,97,587,0,,,,
1,1791232880288,10275,-45130,23436,-2175901,312763,902858,0,0,0,183,194,168,266,184,300,354,129,213,236,140,257,0,,,,
2,1791232880288,1273,-1349,14931,2927266,-357967,-465479,0,0,0,451,172,119,333,240,356,315,105,222,211,77,586,0,,,,
1,1791232880304,5206,-45872,19382,-521678,740368,1232726,0,0,0,167,195,153,282,205,294,346,166,188,279,208,219,0,,,,
2,1791232880304,1363,-1373,15218,3554013,-290771,-498466,0,0,0,457,228,120,341,259,347,283,117,216,215,91,586,0,,,,
1,1791232880320,9643,-34041,21933,1607797,570548,742812,0,0,0,149,200,107,273,214,276,344,261,159,307,315,185,0,,,,
2,1791232880320,976,-1210,15376,4113566,-248011,-540004,0,0,0,433,253,126,291,227,347,243,107,221,189,90,578,0,,,,
1,1791232880336,6097,6154,22455,3569896,1166752,-232128,0,0,0,147,198,91,264,204,274,363,321,161,318,374,189,0,,,,
2,1791232880336,272,-966,16611,4827057,-248011,-489913,0,0,0,388,252,127,276,247,353,203,103,218,154,80,526,0,,,,
1,1791232880352,-2756,34132,15979,4531398,2995683,-186924,0,0,0,156,197,111,276,202,298,376,317,176,336,384,216,0,,,,
2,1791232880352,2100,-1416,18133,5655390,-316428,-461814,0,0,0,360,237,121,264,246,350,167,100,193,125,69,458,0,,,,
1,1791232880368,-3570,13979,16606,4593706,4460537,507018,0,0,0,159,204,118,280,206,316,390,328,186,346,394,236,0,,,,
2,1791232880368,3953,-3464,21469,6610783,-365297,-712268,0,0,0,344,239,123,268,238,286,164,109,177,122,75,413,0,,,,
1,1791232880384,981,-10830,20277,3600439,3523470,433714,0,0,0,164,200,127,271,192,319,418,353,196,363,399,245,0,,,,
2,1791232880384,4048,-6767,27465,7343821,-287106,-856433,0,0,0,297,170,123,221,171,252,185,101,166,120,58,333,0,,,,
1,1791232880400,1852,-2560,14601,2669481,1425759,42760,0,0,0,168,189,146,275,183,327,403,347,189,389,425,263,0,,,,
2,1791232880400,5522,-8781,32433,7892378,140499,-967610,0,0,0,220,112,105,168,110,207,176,91,137,103,47,223,0,,,,
1,1791232880416,-502,4412,9763,2437352,733038,163711,0,0,0,170,183,152,272,172,333,438,388,219,382,443,269,0,,,,
2,1791232880416,6757,-5766,33471,8112290,114842,-1375668,0,0,0,150,80,85,143,73,172,167,91,121,81,44,132,0,,,,
1,1791232880432,-1789,2220,10576,2195449,1037249,287106,0,0,0,188,193,164,298,187,334,418,327,197,404,450,281,0,,,,
2,1791232880432,8691,1904,26484,7585724,-601091,-1916895,0,0,0,131,72,82,146,68,162,170,95,118,74,41,97,0,,,,
1,1791232880448,-799,-617,12557,1598023,1084896,194255,0,0,0,190,194,164,291,189,334,429,333,205,412,450,291,0,,,,
2,1791232880448,9820,7250,17391,6169738,-796568,-2222327,0,0,0,140,75,85,148,69,163,167,90,116,79,37,103,0,,,,
1,1791232880464,0,-550,12361,1005484,728151,79412,0,0,0,200,195,182,291,183,330,437,377,215,405,436,301,0,,,,
2,1791232880464,7882,10337,11883,3031113,-410501,-2018298,0,0,0,138,72,84,141,62,168,165,83,116,88,42,113,0,,,,
1,1791232880480,-349,559,10806,657290,393397,34208,0,0,0,212,209,195,295,193,337,434,371,218,400,420,315,0,,,,
2,1791232880480,4465,10461,13055,-273667,-605978,-1280373,0,0,0,137,72,87,143,68,171,169,85,119,88,42,116,0,,,,
1,1791232880496,-626,947,10093,549778,289550,17104,0,0,0,241,213,224,299,193,349,441,379,239,402,393,339,0,,,,
2,1791232880496,4900,8427,11969,-2008524,-1456302,-590095,0,0,0,133,68,86,145,66,170,177,92,119,77,24,108,0,,,,
1,1791232880512,-507,818,10241,551000,282219,8552,0,0,0,253,218,249,297,199,359,446,380,259,395,369,357,0,,,,
2,1791232880512,6331,8001,8068,-2487443,-1574810,-310319,0,0,0,126,70,84,141,59,168,176,94,115,90,44,120,0,,,,
1,1791232880528,-320,670,10409,554665,213802,4886,0,0,0,265,220,268,306,207,368,435,344,248,398,351,373,0,,,,
2,1791232880528,5312,9217,5623,-3139847,-1123992,-69638,0,0,0,129,71,89,146,62,173,175,83,110,87,51,119,0,,,,
1,1791232880544,-277,540,10366,541226,116064,6108,0,0,0,280,223,278,314,211,370,426,308,238,411,333,384,0,,,,
2,1791232880544,4087,9495,5173,-4098905,-1015258,326202,0,0,0,124,76,85,144,70,172,182,89,116,84,45,110,0,,,,
1,1791232880560,-335,459,10217,508239,37873,15882,0,0,0,295,232,279,317,216,371,422,280,240,410,309,396,0,,,,
2,1791232880560,4245,8561,5187,-4889365,-1209513,767246,0,0,0,120,68,85,139,59,165,177,80,115,95,52,114,0,,,,
1,1791232880576,-402,425,10136,474031,-3665,30543,0,0,0,313,244,270,320,223,376,424,260,246,392,283,410,0,,,,
2,1791232880576,5427,7284,4867,-5395161,-1226617,1112996,0,0,0,123,71,83,141,64,172,195,105,135,78,40,106,0,,,,
1,1791232880592,-469,416,10155,461814,-8552,45204,0,0,0,337,257,258,330,231,377,433,263,251,377,272,417,0,,,,
2,1791232880592,6436,6125,4895,-5663942,-874759,1282817,0,0,0,98,60,78,128,58,166,191,98,131,77,40,115,0,,,,
1,1791232880608,-497,358,10193,478918,1221,61086,0,0,0,353,277,274,339,243,380,419,239,224,365,276,426,0,,,,
2,1791232880608,6446,5106,5905,-5936388,-337197,1419650,0,0,0,113,68,90,139,57,170,189,111,132,86,49,117,0,,,,
1,1791232880624,-430,248,10193,516791,21991,63529,0,0,0,376,288,277,360,254,390,393,155,195,370,242,446,0,,,,
2,1791232880624,6101,4350,7327,-6184399,74525,1600466,0,0,0,120,68,90,142,63,177,182,96,123,95,40,113,0,,,,
1,1791232880640,-368,181,10193,553443,40317,48869,0,0,0,428,289,285,369,248,390,440,227,276,357,217,453,0,,,,
2,1791232880640,6269,3752,8911,-6431189,405614,1821600,0,0,0,119,75,88,143,66,178,185,93,126,91,35,116,0,,,,
1,1791232880656,-378,124,10270,586430,50090,48869,0,0,0,437,313,279,378,253,393,414,159,234,363,202,453,0,,,,
2,1791232880656,6958,3067,10538,-6655987,772133,1971872,0,0,0,114,75,83,146,73,178,185,98,126,92,50,120,0,,,,
1,1791232880672,-416,19,10346,627969,56199,74525,0,0,0,440,318,269,386,261,394,431,164,254,349,187,460,0,,,,
2,1791232880672,7408,2311,12706,-6794043,1081231,1954768,0,0,0,115,73,84,149,72,178,190,103,131,75,44,115,0,,,,
1,1791232880688,-430,-119,10356,674395,74525,111177,0,0,0,441,327,295,399,273,407,409,141,243,352,182,454,0,,,,
2,1791232880688,7858,2354,15060,-6893003,1166752,1888795,0,0,0,116,70,84,145,64,174,192,107,135,77,42,115,0,,,,
1,1791232880704,-416,-239,10318,713490,106290,141720,0,0,0,446,328,274,395,297,410,411,123,243,346,176,458,0,,,,
2,1791232880704,8638,2531,18291,-7116580,1270599,1923003,0,0,0,112,68,82,141,61,172,193,103,132,88,51,120,0,,,,
1,1791232880720,-311,-344,10346,751364,122173,164933,0,0,0,446,329,266,402,315,419,400,111,230,339,172,459,0,,,,
2,1791232880720,9346,1378,22478,-7439116,1499063,2183232,0,0,0,111,70,84,142,66,176,197,95,131,79,45,118,0,,,,
1,1791232880736,-220,-478,10447,796568,101403,179594,0,0,0,441,326,263,410,325,427,392,105,231,341,169,461,0,,,,
2,1791232880736,9590,-2541,26183,-7528303,1743409,2601064,0,0,0,115,70,85,144,67,181,193,93,135,84,44,116,0,,,,
1,1791232880752,-296,-603,10624,862541,51312,199142,0,0,0,442,334,249,416,334,429,382,99,234,345,167,463,0,,,,
2,1791232880752,8920,-9791,30208,-7259522,2173458,2982244,0,0,0,111,66,84,147,64,187,200,96,146,91,52,121,0,,,,
1,1791232880768,-516,-708,10849,961501,8552,240680,0,0,0,446,347,225,419,336,426,381,100,238,344,166,468,0,,,,
2,1791232880768,4115,-18449,32854,-6557027,2362826,2872288,0,0,0,111,63,83,146,60,187,209,109,150,95,39,115,0,,,,
1,1791232880784,-674,-847,10969,1103222,-9773,310319,0,0,0,449,345,200,416,329,428,383,105,250,337,161,474,0,,,,
2,1791232880784,-823,-26283,32610,-5715255,1615127,2697580,0,0,0,110,66,84,152,61,188,213,103,150,88,61,122,0,,,,
1,1791232880800,-516,-1009,11012,1274264,-4886,375071,0,0,0,455,337,208,431,328,439,322,87,233,330,153,479,0,,,,
2,1791232880800,1962,-33419,26920,-4685336,152716,2549751,0,0,0,106,65,79,155,67,196,216,115,153,86,42,128,0,,,,
1,1791232880816,-502,-1177,11380,1474628,8552,417831,0,0,0,463,332,194,444,350,431,360,96,268,330,156,491,0,,,,
2,1791232880816,7944,-42009,19727,-3379306,175929,1733635,0,0,0,117,68,90,151,60,193,210,101,140,76,52,129,0,,,,
1,1791232880832,-698,-1296,12050,1722639,20769,465479,0,0,0,469,332,196,449,348,442,340,91,245,329,150,489,0,,,,
2,1791232880832,3335,-49882,16089,-1601688,1023810,344527,0,0,0,115,69,93,146,62,188,215,115,153,86,49,136,0,,,,
1,1791232880848,-435,-1387,12601,2029294,24434,511905,0,0,0,469,336,199,442,332,442,262,66,189,341,158,481,0,,,,
2,1791232880848,-12007,-49126,18061,397062,979827,-422718,0,0,0,115,76,99,143,68,188,211,126,155,103,67,133,0,,,,
1,1791232880864,244,-1459,13208,2382374,14660,493579,0,0,0,469,337,207,460,331,451,322,90,257,331,151,487,0,,,,
2,1791232880864,-12199,-37516,19535,2134363,-999375,17104,0,0,0,110,73,92,150,75,190,226,147,154,118,96,116,0,,,,
1,1791232880880,-291,-1660,14304,2829527,0,447153,0,0,0,466,374,208,446,353,452,341,105,266,322,160,486,0,,,,
2,1791232880880,-995,-20349,19990,3106860,-2200336,-65973,0,0,0,109,68,70,171,83,196,270,208,146,229,206,132,0,,,,
1,1791232880896,-1474,-1947,15400,3403741,-3665,521678,0,0,0,462,377,206,444,358,445,322,103,264,317,157,483,0,,,,
2,1791232880896,6058,20378,16190,3569896,-1611462,-950506,0,0,0,121,69,68,184,89,206,310,289,145,295,328,141,0,,,,
1,1791232880912,-2407,-2115,16549,4062253,28099,736703,0,0,0,449,395,202,454,365,443,320,99,273,309,148,471,0,,,,
2,1791232880912,7303,40511,8820,4598593,-427605,-1114218,0,0,0,146,79,86,183,85,214,349,362,160,342,413,157,0,,,,
1,1791232880928,-3445,-2177,18616,4906469,149051,1064127,0,0,0,435,387,188,446,354,446,307,103,269,285,141,459,0,,,,
2,1791232880928,4479,9830,18344,6274807,480140,196698,0,0,0,169,89,115,183,79,220,380,392,170,368,439,188,0,,,,
1,1791232880944,-4570,-2407,22689,5990144,349414,1477072,0,0,0,412,353,179,407,332,426,287,102,244,259,132,438,0,,,,
2,1791232880944,234,-8269,26829,5051855,511905,740368,0,0,0,195,98,153,189,72,226,403,377,171,362,410,224,0,,,,
1,1791232880960,-5058,-2608,27437,7048163,709825,1824043,0,0,0,373,312,179,354,301,388,284,103,221,231,119,414,0,,,,
2,1791232880960,-526,-4982,19856,2290744,127059,108734,0,0,0,222,105,179,197,72,237,432,357,180,379,377,276,0,,,,
1,1791232880976,-4613,-3043,32830,8010886,1082453,2067167,0,0,0,311,271,178,306,263,340,288,104,198,207,112,380,0,,,,
2,1791232880976,1057,4819,8394,1154535,-3665,-411723,0,0,0,231,105,196,207,91,258,445,340,193,370,352,331,0,,,,
1,1791232880992,-4484,-2541,36338,8753698,1199739,2073276,0,0,0,235,234,173,273,227,298,270,96,167,207,117,317,0,,,,
2,1791232880992,2354,2522,8576,1429424,174707,-179594,0,0,0,244,112,237,224,110,275,442,286,200,354,295,379,0,,,,
1,1791232881008,-5628,-770,34098,9197187,1207069,1924225,0,0,0,203,205,178,256,198,284,259,90,158,216,127,256,0,,,,
2,1791232881008,2761,-512,11122,1318247,53756,6108,0,0,0,265,126,256,248,133,295,475,247,207,336,236,420,0,,,,
1,1791232881024,-6240,1100,24158,8615643,1263269,1458746,0,0,0,223,205,176,265,197,280,296,105,176,217,123,255,0,,,,
2,1791232881024,1909,-67,11083,919963,-217468,-45204,0,0,0,272,132,270,252,202,304,492,231,225,306,174,447,0,,,,
1,1791232881040,-4938,4599,14544,5690820,1464854,20769,0,0,0,237,200,176,284,190,279,296,99,174,213,113,252,0,,,,
2,1791232881040,1201,990,10337,762359,-256563,-114842,0,0,0,292,163,259,276,184,328,476,183,210,287,149,469,0,,,,
1,1791232881056,-5671,7666,10911,1572367,1392772,-1797165,0,0,0,237,202,166,285,192,277,300,104,170,215,120,248,0,,,,
2,1791232881056,1191,928,10289,811229,-73303,-119729,0,0,0,308,158,261,271,214,324,459,162,245,271,133,491,0,,,,
1,1791232881072,-9480,6752,9160,-742812,530231,-2340835,0,0,0,237,202,156,285,192,274,327,114,177,215,119,248,0,,,,
2,1791232881072,1368,488,10313,821002,31764,-128281,0,0,0,326,181,251,338,217,321,445,147,236,250,123,498,0,,,,
1,1791232881088,-10777,5967,5518,-1584584,-1034805,-1546710,0,0,0,232,189,162,284,186,276,311,113,176,216,119,248,0,,,,
2,1791232881088,1344,162,10193,762359,17104,-146607,0,0,0,328,185,246,299,233,333,408,129,237,200,115,506,0,,,,
1,1791232881104,-5374,7681,2794,-2051285,-2227214,-46425,0,0,0,226,181,150,283,184,272,303,108,172,218,122,247,0,,,,
2,1791232881104,1225,181,10193,722042,19547,-144164,0,0,0,331,193,256,297,244,345,388,125,237,173,100,509,0,,,,
1,1791232881120,-28,9260,3665,-3639535,-1617571,717155,0,0,0,218,177,147,281,184,268,309,111,171,219,125,243,0,,,,
2,1791232881120,1229,181,10342,719599,73303,-139277,0,0,0,332,192,227,301,233,342,388,120,238,185,98,527,0,,,,
1,1791232881136,311,8882,5326,-5103168,-829554,926071,0,0,0,206,174,141,269,179,262,314,110,170,224,125,242,0,,,,
2,1791232881136,1325,86,10524,770911,145385,-141720,0,0,0,330,185,189,293,231,338,362,109,235,185,86,537,0,,,,
1,1791232881152,-287,7638,6546,-5878967,-962723,916297,0,0,0,209,174,142,274,180,264,285,96,152,230,127,244,0,,,,
2,1791232881152,1402,-33,10519,850324,183259,-144164,0,0,0,335,177,163,301,231,338,361,104,229,183,88,537,0,,,,
1,1791232881168,760,6733,7418,-6136752,-1483180,726929,0,0,0,214,175,145,284,184,268,248,82,131,233,130,247,0,,,,
2,1791232881168,1478,-153,10390,918741,177150,-144164,0,0,0,342,171,138,303,230,337,348,107,227,180,87,539,0,,,,
1,1791232881184,1799,6503,8145,-6112317,-1859473,300545,0,0,0,213,177,147,285,184,270,245,81,131,232,130,248,0,,,,
2,1791232881184,1665,-287,10212,944397,127059,-150272,0,0,0,347,167,128,292,231,337,315,110,228,176,82,546,0,,,,
1,1791232881200,1588,6168,9274,-6189286,-2145358,-207694,0,0,0,210,178,148,278,181,270,293,101,158,228,129,247,0,,,,
2,1791232881200,1938,-488,9983,924849,20769,-191811,0,0,0,361,163,130,287,229,337,300,108,222,178,85,551,0,,,,
1,1791232881216,1215,5422,10658,-6301685,-2438574,-494800,0,0,0,204,176,142,268,178,268,342,122,184,232,131,248,0,,,,
2,1791232881216,2024,-660,9877,896750,-76969,-254119,0,0,0,377,166,130,284,228,339,292,109,215,172,83,554,0,,,,
1,1791232881232,1694,4632,12328,-6410419,-2689028,-379958,0,0,0,210,176,147,279,181,272,323,113,175,231,128,247,0,,,,
2,1791232881232,1828,-789,9887,864985,-144164,-316428,0,0,0,371,175,143,280,228,345,289,114,222,177,85,564,0,,,,
1,1791232881248,2220,4283,13912,-6531371,-2791654,-118507,0,0,0,205,176,145,280,179,278,272,91,148,230,129,248,0,,,,
2,1791232881248,1584,-894,9987,853989,-168598,-356745,0,0,0,369,170,133,276,222,342,281,107,217,175,82,571,0,,,,
1,1791232881264,2215,4402,15295,-6674313,-2787988,185703,0,0,0,208,177,157,279,178,280,201,61,111,236,132,256,0,,,,
2,1791232881264,1560,-995,10040,869872,-167377,-373849,0,0,0,369,170,128,281,219,349,278,108,222,165,79,571,0,,,,
1,1791232881280,2005,4479,16879,-6849021,-2768441,439822,0,0,0,207,175,156,273,173,278,305,98,168,236,132,255,0,,,,
2,1791232881280,1737,-1162,9987,897971,-179594,-409279,0,0,0,377,189,132,366,250,330,282,114,220,165,71,571,0,,,,
1,1791232881296,1981,3981,18760,-7029837,-2761110,551000,0,0,0,205,174,154,273,175,279,302,100,169,236,131,255,0,,,,
2,1791232881296,1919,-1397,9959,929736,-221133,-477696,0,0,0,392,213,124,301,287,345,267,117,217,183,99,587,0,,,,
1,1791232881312,2641,1742,21124,-7149566,-2802649,238237,0,0,0,214,178,158,294,180,285,314,107,177,236,128,255,0,,,,
2,1791232881312,1971,-1555,9949,976162,-276111,-555887,0,0,0,404,194,124,301,259,355,276,118,219,181,69,581,0,,,,
1,1791232881328,3651,-2857,23929,-7039611,-2858849,-425162,0,0,0,217,181,160,299,184,287,81,25,42,249,133,259,0,,,,
2,1791232881328,1809,-1708,9949,1045801,-320093,-641408,0,0,0,420,204,129,298,257,356,277,118,214,187,80,593,0,,,,
1,1791232881344,5144,-10758,27537,-6636439,-2765997,-1047023,0,0,0,219,183,160,302,187,288,6,0,0,255,135,258,0,,,,
2,1791232881344,1545,-1852,10361,1155757,-348193,-703716,0,0,0,431,211,134,295,262,355,270,118,220,182,90,597,0,,,,
1,1791232881360,7724,-21588,30452,-6081774,-2189341,-921184,0,0,0,216,188,160,301,190,289,175,69,116,242,131,254,0,,,,
2,1791232881360,1914,-1952,11275,1317025,-409279,-747699,0,0,0,444,204,134,293,259,362,259,116,214,174,82,602,0,,,,
1,1791232881376,11012,-33328,30744,-5249775,-1280373,-389732,0,0,0,208,192,161,288,188,289,320,122,199,233,130,252,0,,,,
2,1791232881376,2258,-1952,12739,1639562,-546113,-856433,0,0,0,445,210,131,291,287,363,249,114,213,180,97,610,0,,,,
1,1791232881392,12806,-42785,27690,-3866776,-224798,19547,0,0,0,201,193,163,276,184,287,358,130,210,233,132,255,0,,,,
2,1791232881392,1608,-1847,14103,2047620,-663399,-938289,0,0,0,467,211,136,293,276,359,236,103,213,187,89,618,0,,,,
1,1791232881408,11064,-48442,23608,-2134363,620639,3665,0,0,0,206,196,167,284,185,289,336,120,198,238,138,259,0,,,,
2,1791232881408,751,-1751,15161,2627942,-718377,-913854,0,0,0,472,240,137,280,253,366,223,107,222,188,78,615,0,,,,
1,1791232881424,6527,-47661,20392,-113620,850324,-397062,0,0,0,208,199,170,294,191,297,302,110,177,249,150,261,0,,,,
2,1791232881424,516,-1732,15596,3275459,-723264,-849102,0,0,0,458,268,135,271,262,367,203,114,220,177,92,591,0,,,,
1,1791232881440,4024,-39028,18923,1737300,588874,-540004,0,0,0,184,200,159,286,195,296,333,155,185,279,202,246,0,,,,
2,1791232881440,808,-1718,15702,3940080,-746477,-805120,0,0,0,452,256,137,287,286,360,176,107,202,160,100,554,0,,,,
1,1791232881456,3876,-21718,18305,2966361,674395,-255341,0,0,0,142,193,133,298,215,283,333,274,158,346,343,195,0,,,,
2,1791232881456,1335,-1837,16333,4746422,-864985,-810007,0,0,0,425,242,128,294,298,359,158,103,188,151,93,510,0,,,,
1,1791232881472,110,14716,17985,3478266,1362229,196698,0,0,0,143,180,130,275,200,291,383,395,174,369,413,195,0,,,,
2,1791232881472,1512,-2321,18214,5472130,-1149648,-850324,0,0,0,389,231,121,277,293,349,148,96,171,146,95,464,0,,,,
1,1791232881488,-7709,38257,18698,3671300,1393994,560774,0,0,0,165,195,156,283,210,313,426,395,197,370,408,230,0,,,,
2,1791232881488,3168,-4187,22163,6184399,-1660331,-883311,0,0,0,357,204,121,243,266,340,149,101,175,131,79,423,0,,,,
1,1791232881504,-7820,14826,23919,3865555,648738,208915,0,0,0,182,205,173,285,215,331,414,383,199,380,413,271,0,,,,
2,1791232881504,6087,-6781,27293,6737843,-1913229,-1065348,0,0,0,303,174,126,195,173,265,155,95,164,120,54,355,0,,,,
1,1791232881520,-315,-6202,18382,2665815,75747,-411723,0,0,0,203,222,193,289,226,351,438,404,234,387,388,331,0,,,,
2,1791232881520,8705,-7169,31911,7384139,-1700648,-1557706,0,0,0,230,112,115,160,115,213,160,97,136,98,61,256,0,,,,
1,1791232881536,1981,-2526,9356,1780061,-223576,-118507,0,0,0,249,231,211,314,224,375,444,383,253,402,375,392,0,,,,
2,1791232881536,9944,-4560,32734,7919256,-1437976,-2113593,0,0,0,122,86,85,132,68,167,162,95,115,72,38,89,0,,,,
1,1791232881552,-1809,2943,8604,1671327,-390953,260228,0,0,0,300,241,218,338,229,390,445,369,264,409,364,451,0,,,,
2,1791232881552,10653,641,26355,7639480,-1277930,-2548529,0,0,0,129,78,87,135,69,165,162,100,121,84,39,104,0,,,,
1,1791232881568,-3637,2048,11136,1475850,-355523,201585,0,0,0,321,260,223,354,246,404,450,356,277,421,354,472,0,,,,
2,1791232881568,9351,2579,18013,5491678,-924849,-2455678,0,0,0,130,73,86,133,69,168,158,93,111,82,30,112,0,,,,
1,1791232881584,-2680,43,11816,1056796,-300545,26878,0,0,0,330,274,227,360,254,422,451,337,294,424,339,476,0,,,,
2,1791232881584,5742,3694,15711,2014633,-493579,-1694540,0,0,0,132,70,89,134,63,172,170,100,130,82,43,114,0,,,,
1,1791232881600,-2316,507,10447,775798,-306654,32986,0,0,0,349,279,230,371,256,431,453,298,302,421,308,485,0,,,,
2,1791232881600,3311,4249,17535,-928515,-1115439,-476474,0,0,0,132,65,88,140,68,175,167,101,127,84,50,115,0,,,,
1,1791232881616,-2598,1072,9815,645073,-232128,64751,0,0,0,363,280,226,388,259,431,461,253,308,420,277,498,0,,,,
2,1791232881616,4848,4450,15711,-2334726,-1891238,397062,0,0,0,133,73,90,145,69,175,178,94,121,86,43,115,0,,,,
1,1791232881632,-2680,1019,10026,587652,-117286,62308,0,0,0,360,283,224,389,262,443,451,221,305,412,261,501,0,,,,
2,1791232881632,8044,5585,10887,-2729345,-1690874,810007,0,0,0,125,70,87,143,68,177,181,96,124,74,36,111,0,,,,
1,1791232881648,-2531,885,10236,564439,-56199,57421,0,0,0,372,292,231,392,275,450,412,171,261,408,239,488,0,,,,
2,1791232881648,8011,7796,7824,-3507588,-522900,1004262,0,0,0,114,63,82,142,65,177,176,96,122,75,32,111,0,,,,
1,1791232881664,-2445,851,10275,599869,-63529,74525,0,0,0,406,297,220,406,275,446,408,139,246,403,221,486,0,,,,
2,1791232881664,6867,8915,6786,-4626693,260228,1216843,0,0,0,115,65,85,141,62,176,180,104,126,86,45,118,0,,,,
1,1791232881680,-2560,818,10260,664621,-58643,117286,0,0,0,407,294,197,410,280,439,438,158,297,378,195,493,0,,,,
2,1791232881680,6805,8480,6336,-5486791,547335,1357342,0,0,0,120,69,88,140,64,179,188,111,137,93,53,121,0,,,,
1,1791232881696,-2550,698,10265,718377,2443,158824,0,0,0,417,289,179,425,290,444,429,153,299,364,206,489,0,,,,
2,1791232881696,7556,7255,5723,-5930279,957836,1308473,0,0,0,119,69,84,141,68,178,190,108,140,93,49,120,0,,,,
1,1791232881712,-2412,550,10361,763581,117286,180816,0,0,0,428,285,171,418,293,444,436,135,314,356,174,493,0,,,,
2,1791232881712,6987,6049,6312,-6184399,1431868,1246165,0,0,0,117,70,84,144,68,176,189,115,138,87,58,118,0,,,,
1,1791232881728,-2412,430,10538,834441,243124,193033,0,0,0,434,289,178,436,298,453,385,95,260,364,165,484,0,,,,
2,1791232881728,5541,4905,8116,-6382320,1546710,1447750,0,0,0,113,69,85,141,63,181,196,114,141,85,48,107,0,,,,
1,1791232881744,-2493,301,10739,941954,388510,216246,0,0,0,431,295,187,440,301,467,325,86,224,358,159,484,0,,,,
2,1791232881744,5833,3866,9624,-6519153,1457524,1832595,0,0,0,114,66,88,144,65,183,193,105,134,87,55,113,0,,,,
1,1791232881760,-2531,181,10868,1054353,492357,259006,0,0,0,435,296,187,441,301,461,354,96,251,355,158,486,0,,,,
2,1791232881760,7671,3144,10686,-6579018,1663996,2193006,0,0,0,112,65,85,146,66,188,193,107,134,91,46,117,0,,,,
1,1791232881776,-2699,43,11088,1186300,500909,331088,0,0,0,444,290,180,434,301,459,356,92,256,344,152,493,0,,,,
2,1791232881776,8073,2742,12194,-6657209,2163684,2386039,0,0,0,110,65,85,148,65,188,193,102,134,83,39,113,0,,,,
1,1791232881792,-3000,-90,11275,1323134,399505,455705,0,0,0,445,293,179,434,303,467,349,93,258,337,149,496,0,,,,
2,1791232881792,8279,2301,13907,-6780604,2464230,2487443,0,0,0,125,65,87,164,62,188,217,102,135,91,34,113,0,,,,
1,1791232881808,-3149,-301,11150,1445307,289550,626747,0,0,0,441,303,184,439,303,468,367,105,278,340,150,492,0,,,,
2,1791232881808,8547,1206,16056,-6963863,2658485,2373822,0,0,0,129,73,92,156,70,191,200,111,145,81,41,121,0,,,,
1,1791232881824,-2747,-540,10658,1532050,222354,778242,0,0,0,448,306,189,442,305,459,337,91,255,342,147,490,0,,,,
2,1791232881824,7599,-1435,18942,-7215540,2797762,1933999,0,0,0,118,61,87,154,68,190,195,105,140,90,57,127,0,,,,
1,1791232881840,-2134,-813,10198,1578475,186924,841772,0,0,0,454,315,186,446,316,458,287,76,216,348,154,491,0,,,,
2,1791232881840,5264,-5360,22000,-7385360,2825862,1512502,0,0,0,115,64,86,153,67,194,195,101,145,89,47,119,0,,,,
1,1791232881856,-1928,-1139,9944,1606575,166155,873537,0,0,0,456,329,175,445,328,459,314,96,242,347,161,490,0,,,,
2,1791232881856,1052,-12428,25498,-7283957,2568077,1376890,0,0,0,120,71,87,151,66,192,198,107,139,95,54,122,0,,,,
1,1791232881872,-2191,-1392,9997,1626123,172263,911410,0,0,0,460,328,186,443,340,465,335,105,268,329,156,501,0,,,,
2,1791232881872,-2962,-23196,29002,-6828251,2047620,1544267,0,0,0,118,70,86,150,64,189,205,109,143,91,59,122,0,,,,
1,1791232881888,-1957,-1497,10083,1685988,201585,976162,0,0,0,463,331,197,447,347,461,328,99,276,332,160,506,0,,,,
2,1791232881888,-5518,-37980,31103,-5805663,1497841,1762957,0,0,0,119,68,84,151,64,188,210,107,146,84,52,120,0,,,,
1,1791232881904,-1296,-1536,10375,1783726,260228,984714,0,0,0,470,343,204,452,342,488,360,105,268,342,154,507,0,,,,
2,1791232881904,-7982,-52548,30973,-4201531,1005484,1422094,0,0,0,121,63,80,153,63,185,235,118,149,97,58,123,0,,,,
1,1791232881920,-646,-1708,11237,1960877,313984,900415,0,0,0,482,340,202,450,349,470,184,40,155,336,156,515,0,,,,
2,1791232881920,-11098,-63785,30509,-2221106,-6108,769690,0,0,0,115,60,76,159,61,185,270,139,157,119,86,124,0,,,,
1,1791232881936,-167,-1933,12452,2255314,331088,764803,0,0,0,494,374,216,454,357,472,254,79,246,334,161,521,0,,,,
2,1791232881936,-13280,-61784,30198,291993,-1728748,518013,0,0,0,121,66,78,182,63,192,301,161,148,188,122,127,0,,,,
1,1791232881952,-4,-2105,13682,2687807,315206,596204,0,0,0,501,367,201,453,365,483,260,88,277,326,162,521,0,,,,
2,1791232881952,-8576,-34031,25570,2510656,-3079982,974940,0,0,0,138,67,77,208,65,198,365,204,147,291,177,131,0,,,,
1,1791232881968,-43,-2191,14520,3237585,315206,417831,0,0,0,490,388,201,443,385,482,270,99,308,343,175,497,0,,,,
2,1791232881968,-469,11567,17573,3199712,-2922379,1667662,0,0,0,138,67,73,209,68,203,402,249,159,283,222,140,0,,,,
1,1791232881984,-693,-2440,15166,3870442,355523,301767,0,0,0,476,386,190,441,401,475,274,108,325,329,165,496,0,,,,
2,1791232881984,191,23761,14395,3126408,-2642603,1023810,0,0,0,146,74,86,201,71,213,411,277,167,285,230,156,0,,,,
1,1791232882000,-1392,-2871,16094,4513072,445931,278554,0,0,0,463,376,175,453,411,463,269,102,309,310,147,488,0,,,,
2,1791232882000,-961,5762,15386,2905275,-2598620,13439,0,0,0,162,81,93,192,70,215,404,287,174,294,272,179,0,,,,
1,1791232882016,-2560,-3790,17812,5250997,701273,346971,0,0,0,445,366,178,449,391,450,263,95,283,293,136,463,0,,,,
2,1791232882016,-492,-3426,13840,2136806,-1952325,107512,0,0,0,177,99,113,192,80,222,404,317,165,302,279,193,0,,,,
1,1791232882032,-4024,-5092,20550,5881410,1048244,513126,0,0,0,428,353,185,413,350,431,260,103,265,266,132,439,0,,,,
2,1791232882032,-430,-866,11782,1470963,-1275486,395840,0,0,0,198,98,145,194,81,225,422,328,167,318,302,209,0,,,,
1,1791232882048,-4709,-6499,25139,6570466,1310916,708603,0,0,0,414,335,173,370,333,394,256,114,236,234,126,420,0,,,,
2,1791232882048,-555,3665,11050,990823,-756251,415388,0,0,0,221,99,168,199,85,233,424,336,173,323,298,227,0,,,,
1,1791232882064,-4934,-8126,30858,7429343,1348790,856433,0,0,0,359,291,170,316,291,350,267,113,206,203,117,393,0,,,,
2,1791232882064,-335,2751,10873,726929,-566882,217468,0,0,0,226,109,203,207,86,246,422,340,187,318,291,230,0,,,,
1,1791232882080,-4714,-9495,33687,8395731,1066570,949284,0,0,0,256,257,162,270,246,299,278,110,179,193,117,344,0,,,,
2,1791232882080,-186,1660,10418,524122,-417831,116064,0,0,0,230,114,189,218,97,246,433,329,173,319,294,235,0,,,,
1,1791232882096,-3986,-8758,32050,9235060,921184,951728,0,0,0,195,229,168,271,228,288,147,53,91,207,131,261,0,,,,
2,1791232882096,-138,1947,10069,415388,-285884,101403,0,0,0,235,115,210,225,103,254,450,340,170,322,302,247,0,,,,
1,1791232882112,-4881,-5967,24733,9199630,1150870,634078,0,0,0,193,227,161,271,228,286,263,109,170,200,130,244,0,,,,
2,1791232882112,-138,2330,9968,364075,-200363,59864,0,0,0,232,119,218,229,111,261,455,343,178,328,306,251,0,,,,
1,1791232882128,-7083,-3091,17362,7776314,1291369,123394,0,0,0,208,227,153,272,222,265,159,59,93,211,135,237,0,,,,
2,1791232882128,-143,2325,9949,338419,-140499,9773,0,0,0,235,121,214,226,120,259,441,344,189,312,298,253,0,,,,
1,1791232882144,-8265,899,12476,4091575,772133,-117286,0,0,0,197,217,142,265,217,261,261,106,146,203,133,230,0,,,,
2,1791232882144,-90,2191,9940,329867,-101403,-13439,0,0,0,242,122,220,228,121,263,441,330,195,300,279,262,0,,,,
1,1791232882160,-7494,1995,11854,-150272,-147829,406836,0,0,0,190,207,142,257,207,260,260,103,146,198,127,232,0,,,,
2,1791232882160,-23,2129,9935,327423,-85521,-21991,0,0,0,244,125,223,236,117,266,445,283,194,305,256,278,0,,,,
1,1791232882176,-6537,1880,11916,-2900388,-994488,1149648,0,0,0,201,205,144,264,202,260,262,101,147,207,129,236,0,,,,
2,1791232882176,-43,2086,9940,312763,-80634,-26878,0,0,0,251,129,230,241,119,266,435,251,192,305,236,296,0,,,,
1,1791232882192,-4379,3421,10480,-4051258,-1681101,1435533,0,0,0,203,194,145,267,196,262,282,110,160,209,127,238,0,,,,
2,1791232882192,-71,2081,9940,300545,-69638,-32986,0,0,0,265,133,243,249,128,271,431,245,193,309,214,312,0,,,,
1,1791232882208,-1234,5436,8915,-4926017,-1793500,1187522,0,0,0,198,186,145,259,186,262,281,108,161,210,127,240,0,,,,
2,1791232882208,-76,2096,9973,318871,-57421,-46425,0,0,0,276,138,250,251,143,272,427,225,201,301,186,313,0,,,,
1,1791232882224,1119,6666,8001,-5803219,-974940,610865,0,0,0,191,181,142,250,179,261,290,111,165,219,129,238,0,,,,
2,1791232882224,-28,2086,10050,386066,-62308,-57421,0,0,0,282,159,250,248,177,267,417,224,199,272,181,315,0,,,,
1,1791232882240,19,6728,7566,-6470284,-64751,89186,0,0,0,186,175,140,247,176,262,308,118,174,222,129,239,0,,,,
2,1791232882240,47,2029,10150,476474,-94073,-63529,0,0,0,279,173,251,245,183,278,411,188,207,241,150,332,0,,,,
1,1791232882256,-1407,6489,7025,-6956533,102625,-255341,0,0,0,185,173,144,247,173,267,308,115,179,214,127,245,0,,,,
2,1791232882256,119,1895,10227,561996,-156381,-63529,0,0,0,295,164,273,265,169,300,421,173,219,239,141,365,0,,,,
1,1791232882272,-1899,5824,6532,-7169114,-245567,-474031,0,0,0,184,171,147,249,172,269,314,116,182,217,125,245,0,,,,
2,1791232882272,124,1742,10265,626747,-227241,-67195,0,0,0,300,173,255,252,196,293,375,154,208,196,111,372,0,,,,
1,1791232882288,-2100,4953,6427,-7031058,-681725,-627969,0,0,0,185,172,141,253,174,266,318,121,181,221,129,243,0,,,,
2,1791232882288,71,1636,10318,684169,-296880,-83077,0,0,0,309,178,207,267,175,311,364,168,205,173,94,385,0,,,,
1,1791232882304,-2033,4120,7020,-6885672,-1193630,-817337,0,0,0,185,168,155,255,167,274,318,117,186,223,133,243,0,,,,
2,1791232882304,-177,1584,10370,755029,-334754,-100181,0,0,0,319,171,194,265,180,305,370,152,229,170,79,406,0,,,,
1,1791232882320,-540,3661,8245,-6823364,-1527163,-1155757,0,0,0,185,166,150,262,166,278,320,117,191,225,133,250,0,,,,
2,1791232882320,-445,1512,10447,864985,-268780,-90408,0,0,0,330,193,201,272,217,315,337,124,211,153,82,417,0,,,,
1,1791232882336,660,3536,9188,-6763499,-1633453,-1595580,0,0,0,184,167,156,260,166,281,312,117,186,225,133,250,0,,,,
2,1791232882336,-406,1354,10610,1001818,-153938,-73303,0,0,0,336,186,186,279,228,329,325,112,207,162,96,438,0,,,,
1,1791232882352,775,3393,10040,-6685309,-1616349,-2012190,0,0,0,184,167,161,258,164,284,319,119,193,226,134,250,0,,,,
2,1791232882352,-143,1110,10801,1165530,-53756,-84299,0,0,0,350,179,164,295,229,336,329,109,215,169,81,463,0,,,,
1,1791232882368,14,3239,11749,-6674313,-1475850,-2217440,0,0,0,184,166,165,258,161,287,318,116,196,227,138,256,0,,,,
2,1791232882368,33,890,10849,1318247,-19547,-129503,0,0,0,370,187,148,348,231,324,334,117,219,165,59,468,0,,,,
1,1791232882384,-823,2536,14027,-6903998,-1141096,-2339613,0,0,0,182,164,167,260,161,288,319,115,197,228,134,256,0,,,,
2,1791232882384,9,708,10854,1440420,-7330,-180816,0,0,0,381,194,134,361,228,336,326,112,217,174,57,475,0,,,,
1,1791232882400,-2354,-985,16467,-7205766,-750142,-2592512,0,0,0,181,165,168,257,161,290,318,119,201,228,139,257,0,,,,
2,1791232882400,19,550,10964,1547932,18325,-219911,0,0,0,382,196,123,334,233,353,319,110,216,178,62,488,0,,,,
1,1791232882416,-3469,-6121,18482,-7192327,-590095,-2941926,0,0,0,181,167,167,259,164,290,318,119,198,229,139,250,0,,,,
2,1791232882416,-38,301,11045,1728748,64751,-265115,0,0,0,391,206,120,320,240,354,321,122,226,175,68,500,0,,,,
1,1791232882432,-4603,-14209,20148,-6855129,-389732,-3506366,0,0,0,182,166,169,263,164,290,318,113,194,231,135,245,0,,,,
2,1791232882432,-191,71,11179,1904677,92851,-284663,0,0,0,405,223,126,325,249,362,311,125,233,179,69,518,0,,,,
1,1791232882448,-6992,-23598,21158,-6261368,-136833,-3898541,0,0,0,183,162,168,265,159,289,320,110,192,235,135,246,0,,,,
2,1791232882448,244,-205,11763,2129476,81855,-300545,0,0,0,414,234,128,339,273,364,280,118,225,170,61,535,0,,,,
1,1791232882464,-9897,-33582,21856,-5352401,-37873,-3786142,0,0,0,186,163,156,274,159,289,324,115,187,246,147,246,0,,,,
2,1791232882464,1095,-421,12677,2377487,3665,-383623,0,0,0,425,244,128,332,277,355,279,116,238,168,72,536,0,,,,
1,1791232882480,-11596,-46125,23402,-3980397,-35430,-2907718,0,0,0,188,165,149,284,162,290,330,141,180,268,190,239,0,,,,
2,1791232882480,1512,-579,13711,2701246,-138055,-549778,0,0,0,455,230,131,357,267,337,285,125,294,182,77,533,0,,,,
1,1791232882496,-10471,-61062,26345,-1946216,98960,-1798387,0,0,0,167,160,154,280,165,295,332,197,175,292,265,212,0,,,,
2,1791232882496,1387,-741,14687,3120299,-306654,-723264,0,0,0,455,224,125,324,287,349,246,115,220,192,101,541,0,,,,
1,1791232882512,-3838,-65594,29963,1453859,647517,-910189,0,0,0,160,175,148,287,191,301,343,262,174,338,331,208,0,,,,
2,1791232882512,483,-813,15352,3621209,-463035,-825889,0,0,0,424,309,130,276,303,346,230,145,223,144,128,508,0,,,,
1,1791232882528,3024,-20488,29236,3782477,785572,-1003040,0,0,0,170,169,148,290,188,306,351,281,180,339,338,224,0,,,,
2,1791232882528,-397,-808,16195,4194200,-601091,-763581,0,0,0,435,262,122,283,343,361,184,114,195,148,100,476,0,,,,
1,1791232882544,6843,23192,22790,3754377,215024,-943175,0,0,0,172,179,158,279,193,314,365,319,205,331,355,252,0,,,,
2,1791232882544,1167,-1502,17721,4838052,-753807,-726929,0,0,0,406,257,125,270,331,367,154,105,177,135,80,454,0,,,,
1,1791232882560,2636,12653,12538,2801427,436157,213802,0,0,0,186,185,156,291,192,328,352,289,187,358,358,277,0,,,,
2,1791232882560,4230,-2971,20186,5590638,-836885,-1015258,0,0,0,367,294,114,268,306,356,139,101,159,140,94,432,0,,,,
1,1791232882576,-1732,-1880,6599,2563190,844215,581543,0,0,0,206,199,147,291,201,342,338,290,187,370,414,309,0,,,,
2,1791232882576,6140,-4388,24115,6481280,-791681,-1541823,0,0,0,346,254,120,255,261,324,144,92,159,138,93,398,0,,,,
1,1791232882592,110,-1852,9308,2775771,586430,30543,0,0,0,230,224,146,298,210,345,395,328,203,404,411,339,0,,,,
2,1791232882592,6082,-4900,28585,7211875,-627969,-2064724,0,0,0,293,163,121,202,205,290,147,92,164,127,78,339,0,,,,
1,1791232882608,2440,416,15324,2354274,68416,-100181,0,0,0,273,241,151,308,218,347,428,358,222,414,412,350,0,,,,
2,1791232882608,5594,-5388,32361,7786088,-430049,-2487443,0,0,0,208,96,95,160,122,218,159,91,143,104,55,216,0,,,,
1,1791232882624,1191,737,16104,1232726,-259006,184481,0,0,0,304,254,168,312,223,359,437,373,231,422,413,364,0,,,,
2,1791232882624,5814,-4264,34505,8159937,-313984,-2862514,0,0,0,149,85,82,152,76,175,164,91,122,90,49,118,0,,,,
1,1791232882640,-201,684,11562,442266,-254119,201585,0,0,0,322,264,177,319,230,362,430,363,217,435,412,376,0,,,,
2,1791232882640,6345,435,29054,7795862,-452040,-3100751,0,0,0,136,79,88,148,71,176,172,99,126,86,47,101,0,,,,
1,1791232882656,14,1129,9796,313984,-266337,64751,0,0,0,343,272,185,327,238,357,425,346,207,443,411,384,0,,,,
2,1791232882656,5159,4398,17865,5801998,-474031,-2665815,0,0,0,144,70,92,151,76,178,182,102,127,85,47,108,0,,,,
1,1791232882672,258,1521,10279,337197,-295658,0,0,0,0,364,280,193,342,247,345,427,342,207,443,407,391,0,,,,
2,1791232882672,2747,6077,12333,2279749,-350636,-1194852,0,0,0,148,75,94,159,81,181,178,97,121,88,52,115,0,,,,
1,1791232882688,205,1459,10504,271224,-255341,15882,0,0,0,373,283,197,357,252,333,427,345,205,446,402,395,0,,,,
2,1791232882688,3953,4900,13290,263893,-410501,425162,0,0,0,135,73,89,152,65,181,179,96,125,85,45,119,0,,,,
1,1791232882704,239,1335,10193,210137,-221133,23212,0,0,0,369,287,211,332,243,353,424,346,210,451,404,398,0,,,,
2,1791232882704,6949,4824,11103,-607200,-6108,1662775,0,0,0,132,70,87,148,68,186,176,95,128,81,43,112,0,,,,
1,1791232882720,263,1368,9997,194255,-230907,21991,0,0,0,386,296,210,338,249,352,384,299,176,441,408,398,0,,,,
2,1791232882720,6719,7044,7159,-741590,1004262,1755626,0,0,0,134,70,89,145,69,182,165,92,127,90,47,112,0,,,,
1,1791232882736,244,1430,10026,196698,-241902,30543,0,0,0,378,296,200,332,249,354,419,315,204,425,386,412,0,,,,
2,1791232882736,2742,9155,5948,-1727526,1782504,1502728,0,0,0,135,71,89,151,66,182,157,79,108,101,41,101,0,,,,
1,1791232882752,272,1450,10069,200363,-255341,50090,0,0,0,373,304,199,342,259,360,388,273,173,414,372,419,0,,,,
2,1791232882752,354,9830,6235,-2866179,1955990,1403768,0,0,0,135,70,89,153,66,185,187,98,133,79,38,107,0,,,,
1,1791232882768,282,1426,10078,213802,-291993,68416,0,0,0,384,300,198,334,258,354,379,284,179,398,368,430,0,,,,
2,1791232882768,-47,9571,6508,-3771481,2009746,1352455,0,0,0,142,70,92,151,63,182,175,91,124,95,47,127,0,,,,
1,1791232882784,196,1354,10074,234572,-331088,84299,0,0,0,386,310,179,333,276,345,409,296,200,395,346,435,0,,,,
2,1791232882784,-416,8963,6920,-4465424,2229658,1209513,0,0,0,132,69,89,148,71,181,177,92,119,83,43,118,0,,,,
1,1791232882800,177,1325,10117,263893,-364075,98960,0,0,0,394,309,171,338,276,352,406,283,196,375,345,443,0,,,,
2,1791232882800,-1186,8265,7834,-4949230,2467895,992045,0,0,0,128,70,89,157,67,185,197,101,130,83,49,115,0,,,,
1,1791232882816,244,1340,10193,326202,-432492,108734,0,0,0,403,308,171,343,283,359,415,282,219,373,326,452,0,,,,
2,1791232882816,-2139,7374,9265,-5453804,2581516,737925,0,0,0,125,66,83,153,66,186,187,89,125,80,58,111,0,,,,
1,1791232882832,220,1363,10318,439822,-544891,109955,0,0,0,413,313,164,351,295,362,420,257,227,376,284,454,0,,,,
2,1791232882832,-3378,6355,10820,-5850867,2566855,565661,0,0,0,123,66,81,155,69,197,182,98,125,80,55,114,0,,,,
1,1791232882848,14,1282,10428,570548,-654847,100181,0,0,0,419,314,161,360,294,365,420,230,234,370,246,454,0,,,,
2,1791232882848,-4283,5441,11897,-6010913,2293188,598647,0,0,0,126,66,88,151,61,189,185,96,132,81,54,109,0,,,,
1,1791232882864,-220,1162,10409,674395,-723264,85521,0,0,0,421,314,164,379,293,372,414,202,230,362,224,458,0,,,,
2,1791232882864,-4240,4742,12634,-6097656,2029294,703716,0,0,0,125,65,87,152,62,187,186,98,136,79,45,105,0,,,,
1,1791232882880,-397,1028,10423,742812,-741590,84299,0,0,0,422,322,164,394,300,379,381,155,196,357,213,462,0,,,,
2,1791232882880,-3886,4264,13701,-6205169,1909564,844215,0,0,0,127,70,85,157,66,188,193,100,132,85,46,114,0,,,,
1,1791232882896,-536,837,10586,831998,-775798,98960,0,0,0,423,336,168,392,317,388,360,134,192,352,205,463,0,,,,
2,1791232882896,-3747,3670,14979,-6376211,1772730,1011592,0,0,0,132,75,90,154,66,190,198,100,136,84,47,114,0,,,,
1,1791232882912,-904,650,10667,937067,-816115,142942,0,0,0,430,351,178,405,335,401,380,143,224,342,197,469,0,,,,
2,1791232882912,-3216,2301,16094,-6561914,1576032,1169196,0,0,0,131,76,95,151,67,194,191,99,144,77,38,113,0,,,,
1,1791232882928,-1708,411,10619,1056796,-758694,272445,0,0,0,434,354,192,415,334,412,348,115,209,353,195,474,0,,,,
2,1791232882928,-2928,-291,17166,-6675535,1437976,1197295,0,0,0,127,74,97,153,70,196,185,100,142,80,34,120,0,,,,
1,1791232882944,-2100,234,10748,1163087,-642630,459370,0,0,0,440,351,189,425,328,413,343,104,210,362,187,477,0,,,,
2,1791232882944,-3421,-3847,18521,-6750060,1273043,1171639,0,0,0,126,72,100,149,71,194,195,105,143,77,38,113,0,,,,
1,1791232882960,-1832,95,11045,1308473,-497244,626747,0,0,0,450,358,201,431,338,431,325,102,205,358,195,485,0,,,,
2,1791232882960,-4297,-10246,20488,-6747617,852767,1251052,0,0,0,123,74,101,145,60,189,204,105,149,68,37,112,0,,,,
1,1791232882976,-1541,-86,11050,1469741,-381179,731816,0,0,0,469,342,189,432,322,419,349,106,234,366,185,492,0,,,,
2,1791232882976,-3192,-18827,21751,-6349333,324980,1521054,0,0,0,121,76,98,151,62,193,208,108,155,87,53,119,0,,,,
1,1791232882992,-1392,-320,10677,1591914,-332310,796568,0,0,0,473,352,192,431,326,429,370,124,253,362,187,497,0,,,,
2,1791232882992,-938,-28772,22397,-5531995,63529,1758070,0,0,0,121,68,95,154,67,197,231,126,168,86,42,108,0,,,,
1,1791232883008,-631,-464,10514,1672549,-364075,808785,0,0,0,477,368,195,432,341,446,351,117,243,368,192,503,0,,,,
2,1791232883008,555,-39210,22622,-4274834,195476,1753183,0,0,0,121,67,99,151,69,193,203,104,151,83,48,118,0,,,,
1,1791232883024,-67,-478,11012,1783726,-398284,720820,0,0,0,482,374,195,431,342,452,317,104,227,372,198,508,0,,,,
2,1791232883024,296,-47556,22402,-2706133,227241,1379333,0,0,0,124,68,94,155,69,193,211,104,138,84,51,116,0,,,,
1,1791232883040,-631,-622,12289,2006081,-353080,594982,0,0,0,485,377,203,437,351,455,231,74,176,379,211,507,0,,,,
2,1791232883040,-550,-52658,22464,-819781,105068,830776,0,0,0,102,67,76,168,75,198,240,149,149,115,92,117,0,,,,
1,1791232883056,-1340,-942,13649,2324953,-259006,537561,0,0,0,487,381,212,438,357,462,218,72,178,370,212,505,0,,,,
2,1791232883056,-3426,-47939,25077,1424537,-167377,412944,0,0,0,116,72,76,166,74,184,295,203,150,189,151,99,0,,,,
1,1791232883072,-1722,-1282,14802,2801427,-124616,552222,0,0,0,490,380,213,433,359,466,272,99,224,355,204,514,0,,,,
2,1791232883072,-2761,-12471,23546,3395188,-670730,386066,0,0,0,122,77,80,179,81,194,321,229,146,227,181,106,0,,,,
1,1791232883088,-1531,-1306,15156,3295007,9773,586430,0,0,0,488,381,209,423,378,460,281,117,244,346,200,516,0,,,,
2,1791232883088,875,26968,18162,3821572,-967610,245567,0,0,0,135,80,93,181,79,198,330,242,144,233,187,118,0,,,,
1,1791232883104,-1057,-1316,15582,3908315,199142,607200,0,0,0,473,395,204,411,396,454,267,124,264,326,194,495,0,,,,
2,1791232883104,2249,15759,16525,2988352,-982271,-118507,0,0,0,159,88,117,182,76,198,344,240,153,264,207,131,0,,,,
1,1791232883120,-631,-1517,16678,4559498,455705,553443,0,0,0,454,397,198,417,397,452,224,108,244,311,188,480,0,,,,
2,1791232883120,2010,-1273,15094,2028072,-976162,-212581,0,0,0,174,91,142,176,69,199,369,257,165,295,225,148,0,,,,
1,1791232883136,-1718,-2010,17999,5227784,778242,521678,0,0,0,438,394,195,416,385,449,264,119,295,294,166,462,0,,,,
2,1791232883136,880,-3575,11217,1202182,-918741,-130725,0,0,0,179,90,153,177,62,200,394,278,167,304,238,160,0,,,,
1,1791232883152,-4379,-3072,20258,5933944,1175304,703716,0,0,0,432,386,174,391,399,429,233,108,247,261,153,446,0,,,,
2,1791232883152,942,2397,9705,979827,-758694,-97738,0,0,0,189,94,171,185,67,204,409,284,156,301,243,159,0,,,,
1,1791232883168,-6728,-4240,23498,6560692,1582140,1025031,0,0,0,416,344,169,361,346,396,161,69,159,238,137,435,0,,,,
2,1791232883168,1454,3460,10591,827111,-585208,-87964,0,0,0,200,98,193,191,71,210,419,284,155,306,247,167,0,,,,
1,1791232883184,-8638,-4843,27705,7194770,1897347,1464854,0,0,0,383,322,163,327,312,358,254,108,200,221,122,413,0,,,,
2,1791232883184,1363,1861,10796,614530,-401949,-68416,0,0,0,209,97,204,200,73,217,434,288,167,320,254,187,0,,,,
1,1791232883200,-8557,-4345,31749,8068308,1861917,1930334,0,0,0,292,277,149,282,264,300,277,116,171,205,122,376,0,,,,
2,1791232883200,1258,1316,10327,412944,-222354,-54977,0,0,0,228,94,221,212,82,225,457,292,175,334,252,199,0,,,,
1,1791232883216,-7915,-3153,33199,9023701,1640784,2249205,0,0,0,204,234,149,251,227,264,305,129,171,211,133,282,0,,,,
2,1791232883216,1330,1880,9978,317649,-127059,-52534,0,0,0,242,101,224,217,76,222,474,289,179,350,260,222,0,,,,
1,1791232883232,-7236,-2167,27413,9326690,1249830,2234545,0,0,0,191,227,153,255,218,262,295,125,164,212,139,245,0,,,,
2,1791232883232,1311,2043,10002,278554,-73303,-52534,0,0,0,243,105,235,217,83,226,460,290,187,352,259,219,0,,,,
1,1791232883248,-5675,-2914,20157,8719490,976162,1762957,0,0,0,198,227,150,265,220,264,284,125,157,211,141,243,0,,,,
2,1791232883248,1301,1966,9959,250454,-26878,-51312,0,0,0,256,105,243,219,83,221,461,283,172,345,257,223,0,,,,
1,1791232883264,-4192,-1148,14649,6669426,1047023,663399,0,0,0,198,220,144,268,216,259,300,130,160,215,140,239,0,,,,
2,1791232883264,1330,1923,9877,252898,-20769,-56199,0,0,0,231,116,257,202,95,235,440,289,188,321,242,230,0,,,,
1,1791232883280,-4158,4096,10964,2521651,1066570,-558330,0,0,0,205,208,144,267,204,254,314,128,163,219,138,238,0,,,,
2,1791232883280,1325,1909,9853,270002,-24434,-72082,0,0,0,240,113,280,204,101,243,434,258,203,309,240,240,0,,,,
1,1791232883296,-5345,6164,9882,-1755626,855211,-1178969,0,0,0,211,193,148,259,191,254,315,129,168,214,133,240,0,,,,
2,1791232883296,1287,1885,9877,290771,-10995,-98960,0,0,0,241,110,331,206,96,267,436,234,201,311,220,243,0,,,,
1,1791232883312,-6891,4948,10308,-4473977,244346,-929736,0,0,0,215,190,146,240,175,249,343,136,184,215,126,239,0,,,,
2,1791232883312,1268,1837,9906,317649,30543,-130725,0,0,0,242,119,318,215,108,259,447,225,201,306,198,249,0,,,,
1,1791232883328,-6484,5202,9006,-5359731,-900415,-321315,0,0,0,205,176,141,247,175,253,336,132,184,221,131,240,0,,,,
2,1791232883328,1320,1770,9930,355523,79412,-167377,0,0,0,249,124,284,215,112,265,433,201,200,292,164,257,0,,,,
1,1791232883344,-3579,6379,7733,-6037792,-2024407,90408,0,0,0,221,164,136,256,171,253,326,126,177,230,132,239,0,,,,
2,1791232883344,1488,1713,9964,420275,86742,-196698,0,0,0,250,128,260,212,113,253,441,194,213,269,142,260,0,,,,
1,1791232883360,363,6570,7872,-6629109,-1755626,10995,0,0,0,191,157,174,216,160,258,325,121,198,219,132,248,0,,,,
2,1791232883360,1641,1675,10031,525344,48869,-229685,0,0,0,260,136,240,226,128,256,434,183,212,258,138,282,0,,,,
1,1791232883376,1708,6135,7853,-7098254,-593761,-210137,0,0,0,189,154,171,237,153,274,334,127,203,221,131,254,0,,,,
2,1791232883376,1670,1631,10150,682947,-13439,-266337,0,0,0,272,147,263,243,167,277,442,171,219,248,135,307,0,,,,
1,1791232883392,-1340,5364,7394,-7138571,-29321,-282219,0,0,0,183,154,171,238,153,279,341,135,212,218,131,252,0,,,,
2,1791232883392,1531,1560,10227,853989,-42760,-285884,0,0,0,289,154,282,250,173,283,441,167,219,237,124,323,0,,,,
1,1791232883408,-3627,4513,7389,-6933320,-508239,-152716,0,0,0,181,154,175,238,150,283,338,127,214,223,129,256,0,,,,
2,1791232883408,1349,1445,10289,1037249,-40317,-283441,0,0,0,311,159,276,259,175,287,411,151,212,223,116,345,0,,,,
1,1791232883424,-3182,3895,8226,-6642548,-1372003,19547,0,0,0,181,154,176,239,152,284,348,134,222,225,137,260,0,,,,
2,1791232883424,1263,1268,10351,1161865,-13439,-249233,0,0,0,330,164,272,271,199,293,378,133,215,204,113,366,0,,,,
1,1791232883440,-1938,3747,9562,-6616892,-1764178,-86742,0,0,0,179,154,178,240,154,291,351,139,228,225,144,262,0,,,,
2,1791232883440,1316,985,10361,1247386,59864,-208915,0,0,0,347,174,266,272,212,288,368,135,216,192,110,378,0,,,,
1,1791232883456,-1579,3144,10792,-6742730,-1947438,-456927,0,0,0,178,152,181,240,152,296,352,133,231,228,140,265,0,,,,
2,1791232883456,1464,684,10380,1313360,155159,-205250,0,0,0,356,190,243,283,228,295,376,133,217,193,104,401,0,,,,
1,1791232883472,-2608,2388,11529,-6717074,-2224771,-828333,0,0,0,179,152,182,244,152,298,354,132,233,232,135,266,0,,,,
2,1791232883472,1646,483,10437,1357342,218689,-240680,0,0,0,377,196,232,300,224,312,375,134,221,187,99,427,0,,,,
1,1791232883488,-3120,2359,12739,-6696304,-2680476,-959058,0,0,0,179,154,183,249,154,300,353,133,230,234,138,266,0,,,,
2,1791232883488,1689,282,10500,1419650,237015,-289550,0,0,0,386,232,244,316,252,335,366,135,222,178,91,465,0,,,,
1,1791232883504,-2560,1641,14414,-6883229,-2858849,-988379,0,0,0,179,155,188,249,151,300,349,129,226,236,141,267,0,,,,
2,1791232883504,1742,95,10619,1508837,259006,-320093,0,0,0,403,249,205,308,317,340,340,134,220,176,117,483,0,,,,
1,1791232883520,-1646,-1000,16343,-7053050,-2728124,-1062905,0,0,0,175,154,194,248,150,304,351,128,228,251,140,264,0,,,,
2,1791232883520,1885,-148,10796,1618792,274889,-350636,0,0,0,433,229,200,315,341,345,355,145,234,174,85,507,0,,,,
1,1791232883536,-741,-4718,18501,-7037167,-2659707,-1390329,0,0,0,172,153,202,242,147,318,345,128,234,287,132,264,0,,,,
2,1791232883536,1981,-445,10758,1731192,261450,-388510,0,0,0,418,233,134,337,351,353,333,151,238,193,105,545,0,,,,
1,1791232883552,162,-10303,21153,-6867347,-2700024,-1981646,0,0,0,173,158,197,249,155,319,353,135,239,234,146,273,0,,,,
2,1791232883552,1823,-741,10480,1810604,223576,-416610,0,0,0,431,249,122,327,297,359,317,135,229,176,83,554,0,,,,
1,1791232883568,1641,-19444,24058,-6345668,-2582738,-2436130,0,0,0,171,156,193,252,154,324,346,130,235,242,151,274,0,,,,
2,1791232883568,1847,-904,10878,1877799,151494,-403171,0,0,0,447,253,121,315,319,365,304,134,229,182,120,582,0,,,,
1,1791232883584,3354,-29806,26235,-5467243,-2206445,-2377487,0,0,0,185,160,190,280,162,318,340,124,217,248,149,263,0,,,,
2,1791232883584,2565,-1052,11873,2045176,34208,-422718,0,0,0,453,262,125,303,291,365,326,141,232,191,100,599,0,,,,
1,1791232883600,6144,-41105,27882,-4142888,-1369559,-1637118,0,0,0,185,169,180,287,172,313,350,133,215,264,167,265,0,,,,
2,1791232883600,3158,-1225,13156,2372600,-109955,-540004,0,0,0,461,250,132,304,282,369,300,137,225,193,99,597,0,,,,
1,1791232883616,7504,-50820,28432,-2559525,-306654,-974940,0,0,0,179,173,180,286,170,316,357,142,219,271,178,264,0,,,,
2,1791232883616,3125,-1330,14295,2795319,-233350,-675616,0,0,0,484,244,136,289,287,365,270,135,222,182,105,589,0,,,,
1,1791232883632,6159,-56491,27700,-518013,557109,-659734,0,0,0,161,173,174,281,178,320,345,201,213,275,248,238,0,,,,
2,1791232883632,2742,-1330,15008,3287676,-327423,-778242,0,0,0,485,246,138,272,252,356,249,124,227,166,84,571,0,,,,
1,1791232883648,3283,-39325,25852,2013411,1109331,-616973,0,0,0,165,178,131,279,180,294,346,248,177,309,312,211,0,,,,
2,1791232883648,1909,-1162,15563,3820351,-421497,-803898,0,0,0,468,249,137,271,218,356,224,111,231,156,72,546,0,,,,
1,1791232883664,-339,4589,20746,3477044,1660331,-533896,0,0,0,167,177,117,281,182,295,352,271,167,334,339,219,0,,,,
2,1791232883664,1277,-933,16434,4444655,-566882,-733038,0,0,0,447,241,132,268,237,358,185,100,214,150,79,511,0,,,,
1,1791232883680,-1363,29844,15501,3782477,1997529,-261450,0,0,0,167,172,127,286,179,310,376,294,182,347,349,241,0,,,,
2,1791232883680,2426,-961,17573,5160589,-788016,-664621,0,0,0,409,228,127,252,259,347,150,93,189,138,80,462,0,,,,
1,1791232883696,-1201,9093,15266,4046371,1337794,-228463,0,0,0,175,168,133,292,175,317,389,302,184,368,367,260,0,,,,
2,1791232883696,4871,-1426,19784,6095213,-1120326,-841772,0,0,0,349,213,124,235,232,321,142,96,178,120,72,412,0,,,,
1,1791232883712,-397,-6054,14654,3668856,387288,-496022,0,0,0,183,168,139,297,180,328,387,310,183,392,394,277,0,,,,
2,1791232883712,6762,-2837,23153,6991963,-1457524,-1182635,0,0,0,299,179,119,212,194,282,152,97,166,111,59,370,0,,,,
1,1791232883728,942,-1148,13003,2889392,-133168,-354301,0,0,0,191,170,145,296,183,342,427,356,207,408,408,290,0,,,,
2,1791232883728,8131,-5460,28686,7639480,-1419650,-1565036,0,0,0,252,143,111,177,161,228,166,94,150,112,58,281,0,,,,
1,1791232883744,-397,2177,13888,2046398,-107512,-13439,0,0,0,206,176,160,299,185,347,417,324,196,437,407,313,0,,,,
2,1791232883744,8935,-7561,33682,8250345,-985936,-1966986,0,0,0,170,95,93,162,99,188,174,93,124,84,40,158,0,,,,
1,1791232883760,-1832,1359,12998,1051909,331088,61086,0,0,0,217,194,199,298,182,361,437,366,240,449,415,336,0,,,,
2,1791232883760,8968,-6326,32878,8548448,-139277,-2372600,0,0,0,121,78,78,147,82,178,168,97,128,78,35,104,0,,,,
1,1791232883776,-1435,784,11055,527787,537561,-25656,0,0,0,242,207,229,312,188,361,446,385,248,455,426,345,0,,,,
2,1791232883776,6590,-1220,23718,7338934,280998,-2542421,0,0,0,138,82,90,140,68,173,168,96,122,82,37,109,0,,,,
1,1791232883792,-722,1220,10165,393397,432492,-86742,0,0,0,247,204,235,305,201,370,449,388,261,453,421,356,0,,,,
2,1791232883792,4072,2881,16396,4603480,-7330,-1771509,0,0,0,129,77,87,138,66,177,169,103,127,75,48,110,0,,,,
1,1791232883808,-756,1627,10390,360410,263893,-61086,0,0,0,248,204,252,307,202,376,449,377,259,467,422,362,0,,,,
2,1791232883808,4446,4379,15750,1115439,-542448,-86742,0,0,0,119,72,82,142,75,178,174,107,127,76,22,106,0,,,,
1,1791232883824,-823,1584,10380,293215,153938,-41538,0,0,0,255,211,243,304,204,375,447,375,257,453,405,360,0,,,,
2,1791232883824,7360,4383,15319,-1007927,-715934,923628,0,0,0,124,76,84,144,67,179,175,106,134,77,33,112,0,,,,
1,1791232883840,-746,1469,10155,238237,70860,-40317,0,0,0,259,219,243,301,210,376,445,355,253,455,394,368,0,,,,
2,1791232883840,9279,5896,11165,-1358564,103847,643851,0,0,0,131,83,90,143,67,174,181,100,130,84,49,116,0,,,,
1,1791232883856,-732,1584,10011,256563,-17104,-37873,0,0,0,267,220,251,302,214,380,419,320,276,433,375,378,0,,,,
2,1791232883856,5455,9595,7159,-1904677,1304808,1221,0,0,0,126,70,88,141,61,174,182,102,129,80,40,105,0,,,,
1,1791232883872,-737,1660,10040,332310,-83077,-30543,0,0,0,282,226,260,307,210,386,420,314,295,404,347,393,0,,,,
2,1791232883872,1009,11806,6030,-3181386,1635897,-185703,0,0,0,148,100,96,164,93,179,190,110,131,90,48,110,0,,,,
1,1791232883888,-751,1598,10088,417831,-141720,-20769,0,0,0,294,235,261,313,207,392,441,321,292,388,319,413,0,,,,
2,1791232883888,224,11050,6503,-4450764,1160643,14660,0,0,0,135,91,90,162,91,182,193,104,135,91,48,108,0,,,,
1,1791232883904,-856,1507,10098,499687,-184481,-3665,0,0,0,295,234,258,320,213,398,440,288,293,376,289,428,0,,,,
2,1791232883904,813,9739,6714,-5196019,973719,155159,0,0,0,114,70,80,146,73,180,188,107,137,77,42,98,0,,,,
1,1791232883920,-947,1430,10131,565661,-167377,10995,0,0,0,300,237,264,335,220,411,440,238,296,363,254,436,0,,,,
2,1791232883920,1057,8351,6762,-5616295,1158200,221133,0,0,0,113,73,79,142,72,178,188,115,137,74,51,102,0,,,,
1,1791232883936,-1067,1344,10203,643851,-106290,23212,0,0,0,312,244,269,357,239,425,425,209,283,354,227,443,0,,,,
2,1791232883936,598,7312,7298,-5918062,1282817,334754,0,0,0,115,76,84,142,73,180,190,113,136,74,50,108,0,,,,
1,1791232883952,-1244,1239,10246,686612,15882,31764,0,0,0,344,261,267,368,249,412,427,190,289,346,203,441,0,,,,
2,1791232883952,483,6020,8446,-6246707,1284038,554665,0,0,0,117,76,86,142,71,179,193,108,139,68,40,106,0,,,,
1,1791232883968,-1306,1014,10279,700051,240680,69638,0,0,0,366,270,279,373,246,418,433,172,301,338,184,445,0,,,,
2,1791232883968,1062,4943,9624,-6392093,1247386,788016,0,0,0,113,73,81,141,70,178,194,113,139,76,49,107,0,,,,
1,1791232883984,-1115,861,10356,720820,442266,116064,0,0,0,371,272,264,371,258,425,434,155,309,332,170,446,0,,,,
2,1791232883984,2115,4249,10658,-6448293,1328021,1028697,0,0,0,114,80,84,139,77,180,189,119,133,76,43,109,0,,,,
1,1791232884000,-813,789,10485,774577,505796,150272,0,0,0,405,303,249,405,273,435,340,83,201,341,165,438,0,,,,
2,1791232884000,3144,3886,11916,-6608340,1507615,1269377,0,0,0,112,78,87,141,67,181,193,116,138,77,46,103,0,,,,
1,1791232884016,-622,708,10643,861319,498466,173485,0,0,0,418,309,235,410,277,438,386,105,255,343,160,438,0,,,,
2,1791232884016,4096,3196,13596,-6836803,1646892,1459967,0,0,0,111,69,79,143,63,182,198,119,132,85,54,109,0,,,,
1,1791232884032,-617,521,10873,999375,431270,195476,0,0,0,423,304,216,419,288,437,403,105,260,329,151,448,0,,,,
2,1791232884032,5221,1742,15443,-6989520,1784948,1544267,0,0,0,116,75,88,144,66,186,201,106,144,91,40,111,0,,,,
1,1791232884048,-751,325,11146,1167974,301767,234572,0,0,0,424,302,210,431,291,450,388,97,262,319,140,455,0,,,,
2,1791232884048,5422,-574,17697,-7065267,1986533,1555262,0,0,0,109,81,86,144,70,186,187,100,127,78,52,107,0,,,,
1,1791232884064,-832,181,11289,1365894,117286,301767,0,0,0,425,310,213,438,294,459,365,89,264,320,138,461,0,,,,
2,1791232884064,4412,-4905,20454,-7098254,2047620,1769065,0,0,0,109,75,82,144,68,186,193,107,134,80,50,102,0,,,,
1,1791232884080,-794,52,11342,1523497,-34208,376292,0,0,0,429,316,208,440,301,467,361,91,261,317,144,469,0,,,,
2,1791232884080,3244,-11371,22885,-6982189,1958433,2144136,0,0,0,111,77,85,146,66,190,195,106,139,95,47,109,0,,,,
1,1791232884096,-746,-100,11485,1707979,-194255,456927,0,0,0,435,319,200,443,308,481,372,100,271,315,146,475,0,,,,
2,1791232884096,2014,-21067,24895,-6535036,1742187,2480112,0,0,0,109,76,87,148,69,195,198,109,143,88,50,108,0,,,,
1,1791232884112,-512,-320,11399,1921782,-356745,521678,0,0,0,443,332,198,451,320,484,365,93,270,325,143,478,0,,,,
2,1791232884112,392,-33256,26427,-5750685,1552819,2533869,0,0,0,110,78,89,155,72,198,231,129,169,89,55,113,0,,,,
1,1791232884128,100,-550,10949,2086715,-488692,504574,0,0,0,451,338,198,469,331,481,339,78,240,333,143,483,0,,,,
2,1791232884128,-2981,-45876,27020,-4582711,1264491,2116037,0,0,0,110,80,88,156,69,202,217,121,158,77,45,107,0,,,,
1,1791232884144,344,-737,11098,2213775,-552222,410501,0,0,0,463,337,210,478,330,496,332,78,251,337,138,484,0,,,,
2,1791232884144,-6867,-55749,25833,-3076317,362853,1335351,0,0,0,109,80,87,155,70,203,199,112,144,100,56,111,0,,,,
1,1791232884160,-392,-952,12246,2416582,-472809,315206,0,0,0,465,368,200,473,370,501,316,81,241,331,157,496,0,,,,
2,1791232884160,-7532,-58492,22517,-1158200,-918741,304210,0,0,0,105,81,83,167,73,199,211,126,143,121,88,113,0,,,,
1,1791232884176,-1253,-1244,13639,2762332,-326202,299323,0,0,0,473,397,193,465,358,484,304,88,267,319,150,499,0,,,,
2,1791232884176,-6393,-50394,20325,833220,-1483180,-425162,0,0,0,106,78,73,178,77,194,267,198,144,163,168,104,0,,,,
1,1791232884192,-1770,-1507,14783,3275459,-179594,382401,0,0,0,475,403,194,455,390,476,315,110,310,317,171,513,0,,,,
2,1791232884192,-4273,-23349,20574,2720793,-1571145,-553443,0,0,0,127,79,72,178,85,197,342,304,150,248,294,117,0,,,,
1,1791232884208,-1751,-1531,15367,3902207,-95294,513126,0,0,0,471,421,187,447,415,486,322,131,338,314,177,509,0,,,,
2,1791232884208,2311,27700,17726,4335921,-1705535,-130725,0,0,0,170,96,95,198,96,217,363,333,151,279,377,167,0,,,,
1,1791232884224,-1148,-1507,16051,4598593,-41538,625526,0,0,0,458,434,180,436,420,482,278,117,325,297,176,490,0,,,,
2,1791232884224,6116,28351,22373,4438546,-2917492,-147829,0,0,0,213,114,132,214,106,230,376,335,165,314,404,206,0,,,,
1,1791232884240,-129,-1995,17946,5384166,52534,598647,0,0,0,447,442,168,423,423,464,257,113,273,273,166,469,0,,,,
2,1791232884240,3034,780,25307,2646268,-3073873,-155159,0,0,0,245,135,164,235,126,243,388,336,174,314,373,243,0,,,,
1,1791232884256,-875,-4034,21014,6301685,252898,448375,0,0,0,432,429,162,393,404,439,242,114,239,257,161,449,0,,,,
2,1791232884256,-1196,-9083,15137,472809,-1348790,52534,0,0,0,276,127,196,247,141,256,414,335,164,348,383,293,0,,,,
1,1791232884272,-4771,-7762,25264,7108027,416610,427605,0,0,0,417,394,158,363,363,403,249,116,227,241,149,429,0,,,,
2,1791232884272,-358,229,8518,370184,-322536,47647,0,0,0,292,151,191,273,157,256,418,322,189,341,383,329,0,,,,
1,1791232884288,-8552,-9399,31012,7811744,604756,886976,0,0,0,382,337,157,329,313,358,229,104,182,215,135,409,0,,,,
2,1791232884288,1296,5068,8446,684169,-4886,-78190,0,0,0,304,156,191,259,163,265,439,318,202,339,353,355,0,,,,
1,1791232884304,-10547,-7719,35137,8475144,915076,1662775,0,0,0,295,274,153,289,264,307,206,94,138,195,134,359,0,,,,
2,1791232884304,1497,2569,10993,707381,-58643,-151494,0,0,0,315,154,194,267,156,280,475,272,209,339,286,377,0,,,,
1,1791232884320,-11155,-3637,34496,9000488,1133765,2409252,0,0,0,194,236,142,260,229,265,288,129,176,202,140,266,0,,,,
2,1791232884320,1119,1234,10619,500909,139277,-114842,0,0,0,324,159,195,270,162,296,479,240,203,355,242,398,0,,,,
1,1791232884336,-11495,1019,27839,8808676,1021366,2961474,0,0,0,192,225,161,245,224,270,275,125,167,205,142,257,0,,,,
2,1791232884336,1249,1756,9834,438601,305432,-78190,0,0,0,348,181,211,275,220,298,491,236,228,328,234,434,0,,,,
1,1791232884352,-10236,3632,18061,7165449,219911,3210707,0,0,0,200,222,155,266,215,269,313,130,186,203,127,249,0,,,,
2,1791232884352,1555,2067,9882,450818,306654,-79412,0,0,0,340,218,210,276,274,299,491,238,231,294,220,442,0,,,,
1,1791232884368,-5393,5943,12912,3468492,-718377,2653598,0,0,0,211,208,155,266,206,261,301,119,168,205,125,242,0,,,,
2,1791232884368,1588,1947,10098,433714,284663,-92851,0,0,0,333,205,191,286,280,305,485,246,226,270,202,447,0,,,,
1,1791232884384,-1320,7130,12189,-535117,-634078,1450194,0,0,0,224,200,187,251,188,260,313,116,176,201,117,255,0,,,,
2,1791232884384,1445,1794,10145,415388,320093,-94073,0,0,0,336,185,179,296,263,312,469,222,214,247,169,455,0,,,,
1,1791232884400,-2330,5546,11591,-2580294,89186,338419,0,0,0,196,187,170,240,179,268,324,124,195,201,119,251,0,,,,
2,1791232884400,1454,1756,10069,444709,425162,-73303,0,0,0,330,168,165,299,228,339,454,185,220,230,145,473,0,,,,
1,1791232884416,-4388,4685,9193,-3210707,195476,-160046,0,0,0,197,185,172,246,179,274,270,97,165,202,118,251,0,,,,
2,1791232884416,1627,1655,10011,486248,514348,-51312,0,0,0,327,151,143,303,206,345,454,161,224,220,123,482,0,,,,
1,1791232884432,-4580,5479,6532,-3538131,-302989,-175929,0,0,0,187,182,172,237,173,274,301,113,187,201,119,252,0,,,,
2,1791232884432,1765,1579,10007,505796,557109,-40317,0,0,0,331,158,140,309,219,329,446,148,226,210,96,479,0,,,,
1,1791232884448,-2713,6470,6226,-4503298,-510683,-118507,0,0,0,191,185,173,244,170,274,285,105,175,206,120,252,0,,,,
2,1791232884448,1943,1598,10093,540004,592539,-46425,0,0,0,332,166,160,307,228,342,416,144,253,195,87,488,0,,,,
1,1791232884464,-1890,6389,6838,-5546656,-328645,-125838,0,0,0,189,183,173,244,169,276,285,103,179,209,122,256,0,,,,
2,1791232884464,2148,1608,10217,623082,598647,-69638,0,0,0,337,146,147,303,227,350,393,150,244,174,88,501,0,,,,
1,1791232884480,-2684,5513,7322,-6218608,-261450,-141720,0,0,0,184,180,171,241,169,278,299,108,189,209,124,256,0,,,,
2,1791232884480,2215,1512,10260,744033,519235,-85521,0,0,0,341,160,113,302,263,338,381,153,231,180,98,506,0,,,,
1,1791232884496,-3503,4618,7532,-6576575,-572991,-166155,0,0,0,182,177,168,243,170,279,306,114,192,210,129,254,0,,,,
2,1791232884496,2397,1301,10098,868650,375071,-97738,0,0,0,342,172,107,306,317,342,363,153,228,183,105,507,0,,,,
1,1791232884512,-3598,3847,7791,-6640105,-1209513,-259006,0,0,0,179,174,168,243,167,283,303,121,202,213,130,257,0,,,,
2,1791232884512,2842,1024,9849,900415,208915,-146607,0,0,0,363,151,114,307,244,352,343,138,236,183,93,517,0,,,,
1,1791232884528,-2814,3364,8580,-6612005,-1762957,-483805,0,0,0,181,171,173,242,157,286,296,121,213,216,121,261,0,,,,
2,1791232884528,3254,804,9844,885754,3665,-288328,0,0,0,410,141,130,323,230,365,344,140,238,183,88,520,0,,,,
1,1791232884544,-2254,2900,9629,-6624222,-2081828,-781907,0,0,0,180,169,177,241,156,289,329,114,212,217,123,263,0,,,,
2,1791232884544,3239,588,9830,885754,-171042,-453262,0,0,0,398,159,127,309,233,358,339,145,235,185,85,536,0,,,,
1,1791232884560,-2555,2392,10634,-6630331,-2324953,-1048244,0,0,0,179,170,176,243,154,291,332,114,213,218,123,265,0,,,,
2,1791232884560,2828,368,9686,888198,-243124,-564439,0,0,0,401,168,122,316,249,362,354,149,238,194,93,541,0,,,,
1,1791232884576,-2737,2158,11447,-6601009,-2609616,-1169196,0,0,0,177,167,179,247,156,298,335,119,218,218,125,267,0,,,,
2,1791232884576,2632,234,9652,880867,-261450,-631634,0,0,0,410,174,121,301,235,347,335,150,236,211,99,530,0,,,,
1,1791232884592,-2780,2278,12524,-6599788,-2857627,-1076344,0,0,0,179,167,186,250,156,302,332,114,218,223,126,269,0,,,,
2,1791232884592,2569,153,9882,889419,-290771,-687834,0,0,0,421,183,115,306,240,346,325,144,221,197,90,550,0,,,,
1,1791232884608,-2254,2325,14333,-6840468,-2999348,-730594,0,0,0,178,168,186,250,157,302,332,115,220,223,128,269,0,,,,
2,1791232884608,2388,76,10404,957836,-326202,-734260,0,0,0,450,192,110,304,257,343,323,149,222,199,96,566,0,,,,
1,1791232884624,-894,789,16587,-7167892,-3009122,-432492,0,0,0,177,167,187,253,159,305,330,114,219,223,128,268,0,,,,
2,1791232884624,2321,-28,11136,1132544,-338419,-763581,0,0,0,477,191,114,309,243,347,327,154,243,209,100,572,0,,,,
1,1791232884640,674,-2909,19133,-7211875,-2929709,-472809,0,0,0,179,168,185,258,161,304,333,114,218,225,128,265,0,,,,
2,1791232884640,2120,-71,11624,1387885,-322536,-792903,0,0,0,480,189,118,317,229,350,314,156,252,206,96,585,0,,,,
1,1791232884656,2603,-9518,22641,-6918659,-2910161,-1080009,0,0,0,181,174,178,262,168,300,335,123,213,225,137,264,0,,,,
2,1791232884656,1416,38,11916,1672549,-324980,-768468,0,0,0,483,198,124,306,234,349,297,157,249,186,97,607,0,,,,
1,1791232884672,4761,-18415,25752,-6519153,-2761110,-1791056,0,0,0,181,174,174,264,168,299,335,122,211,223,134,262,0,,,,
2,1791232884672,1244,-19,12175,1969429,-367740,-652404,0,0,0,498,206,137,286,225,352,284,143,236,175,98,609,0,,,,
1,1791232884688,7394,-30825,27829,-5622403,-2223549,-2095267,0,0,0,179,172,180,262,167,305,335,118,216,223,132,268,0,,,,
2,1791232884688,1928,-392,12725,2258979,-426383,-575435,0,0,0,513,230,143,280,210,357,271,130,220,174,86,596,0,,,,
1,1791232884704,9858,-42110,28571,-4392121,-1415985,-1739744,0,0,0,177,173,186,262,170,311,335,119,222,225,137,272,0,,,,
2,1791232884704,2952,-918,13644,2609616,-502131,-607200,0,0,0,514,273,139,279,224,355,271,140,220,169,87,595,0,,,,
1,1791232884720,10122,-50016,27657,-2885727,-357967,-1048244,0,0,0,178,177,186,265,176,314,323,116,213,227,139,269,0,,,,
2,1791232884720,3512,-1253,14414,3056769,-576656,-753807,0,0,0,489,284,145,280,254,358,252,140,218,178,114,594,0,,,,
1,1791232884736,7504,-53773,25249,-1029918,480140,-619417,0,0,0,181,179,188,272,177,318,295,104,189,236,145,265,0,,,,
2,1791232884736,3575,-1426,14840,3568674,-602313,-940732,0,0,0,502,296,150,271,269,377,237,126,227,173,105,574,0,,,,
1,1791232884752,3680,-49628,22043,998153,698829,-502131,0,0,0,174,178,167,284,178,305,310,140,169,275,198,235,0,,,,
2,1791232884752,3000,-1292,15214,4146553,-580321,-1123992,0,0,0,477,268,135,297,274,373,196,108,194,143,76,539,0,,,,
1,1791232884768,2263,-28336,20186,2841745,779464,-226020,0,0,0,141,176,96,263,180,262,383,303,167,347,364,165,0,,,,
2,1791232884768,2268,-981,16233,4732983,-643851,-1205847,0,0,0,424,258,131,411,308,343,171,112,189,143,68,505,0,,,,
1,1791232884784,-272,22335,17851,4014606,1762957,37873,0,0,0,138,149,140,256,154,298,426,378,211,359,388,199,0,,,,
2,1791232884784,1316,-756,18367,5507560,-879645,-1185078,0,0,0,390,240,115,261,299,343,169,107,216,137,81,490,0,,,,
1,1791232884800,-3000,52825,16951,4186870,2734232,-94073,0,0,0,156,161,144,272,157,312,395,339,186,383,381,226,0,,,,
2,1791232884800,2522,-1641,20325,6191730,-1200961,-1082453,0,0,0,349,274,131,310,332,325,167,116,222,169,98,443,0,,,,
1,1791232884816,-559,13357,23718,3825238,1567480,-579100,0,0,0,164,161,162,276,150,318,431,367,224,397,393,242,0,,,,
2,1791232884816,5675,-4015,23771,6765943,-1318247,-1215621,0,0,0,312,195,151,225,214,287,156,96,179,130,86,382,0,,,,
1,1791232884832,2450,-10399,19999,2348165,162490,-549778,0,0,0,179,177,189,284,173,331,424,354,213,419,432,265,0,,,,
2,1791232884832,7217,-5101,29241,7213096,-1293812,-1577254,0,0,0,249,144,133,172,133,232,168,91,154,105,56,278,0,,,,
1,1791232884848,1952,-4077,9428,1249830,-438601,103847,0,0,0,205,206,227,300,204,347,414,335,192,408,437,287,0,,,,
2,1791232884848,7011,-3512,33476,7630928,-1549154,-1964542,0,0,0,154,94,95,147,80,179,170,84,126,78,46,138,0,,,,
1,1791232884864,-1483,4249,8848,1132544,-350636,387288,0,0,0,221,222,259,293,211,354,432,372,228,413,435,307,0,,,,
2,1791232884864,8351,-114,31409,7699345,-2092824,-2106263,0,0,0,121,83,88,142,71,172,166,89,121,81,51,102,0,,,,
1,1791232884880,-2115,3589,11380,906524,-166155,224798,0,0,0,257,231,272,298,210,358,440,379,246,428,418,335,0,,,,
2,1791232884880,10064,2589,21383,6464175,-2108706,-1937664,0,0,0,126,85,91,145,72,178,167,89,115,78,47,103,0,,,,
1,1791232884896,-1119,1234,11117,603534,-186924,79412,0,0,0,282,240,277,308,216,362,442,364,256,430,391,365,0,,,,
2,1791232884896,9949,4570,14903,3571118,-1284038,-1402546,0,0,0,129,79,87,148,71,180,173,89,115,79,47,109,0,,,,
1,1791232884912,-1057,1478,10040,546113,-263893,89186,0,0,0,294,251,275,317,223,363,447,354,266,424,364,390,0,,,,
2,1791232884912,8604,6374,14936,480140,-367740,-758694,0,0,0,132,76,88,146,70,176,179,91,123,83,42,113,0,,,,
1,1791232884928,-1301,1986,10035,599869,-266337,91629,0,0,0,309,262,281,331,232,366,448,335,266,421,335,410,0,,,,
2,1791232884928,7250,6264,15582,-1192408,-73303,-359188,0,0,0,131,75,87,147,71,174,179,95,121,81,30,109,0,,,,
1,1791232884944,-1301,1933,10270,618195,-290771,52534,0,0,0,321,284,306,337,249,375,449,302,278,410,296,428,0,,,,
2,1791232884944,6432,6537,11820,-1494176,-252898,-266337,0,0,0,122,72,79,150,73,177,178,98,116,81,26,107,0,,,,
1,1791232884960,-1244,1703,10323,608421,-364075,20769,0,0,0,337,320,291,335,262,379,448,281,273,385,266,435,0,,,,
2,1791232884960,5656,8255,7757,-2103819,-411723,-116064,0,0,0,122,78,83,145,66,176,183,93,126,79,31,104,0,,,,
1,1791232884976,-1258,1636,10222,616973,-465479,26878,0,0,0,346,319,294,360,284,395,428,217,288,376,243,451,0,,,,
2,1791232884976,5355,9097,6819,-3284011,-397062,202807,0,0,0,120,83,85,145,65,176,187,94,130,83,45,111,0,,,,
1,1791232884992,-1363,1598,10246,675616,-561996,46425,0,0,0,381,325,278,364,260,410,412,160,278,361,210,451,0,,,,
2,1791232884992,5317,8801,6503,-4532620,-332310,604756,0,0,0,117,90,84,147,69,176,184,94,126,85,39,111,0,,,,
1,1791232885008,-1550,1493,10337,773355,-656069,56199,0,0,0,375,323,257,372,267,402,422,147,278,338,191,457,0,,,,
2,1791232885008,5637,7944,6010,-5114163,-208915,883311,0,0,0,115,79,82,145,68,175,180,96,130,81,39,109,0,,,,
1,1791232885024,-1914,1383,10380,851546,-709825,79412,0,0,0,373,331,239,383,278,414,428,137,291,334,181,457,0,,,,
2,1791232885024,6025,7130,5652,-5519778,120951,1132544,0,0,0,115,79,86,139,63,170,183,87,128,81,54,114,0,,,,
1,1791232885040,-2378,1263,10423,907745,-638965,157603,0,0,0,397,317,238,405,285,422,414,129,287,339,165,457,0,,,,
2,1791232885040,6154,6188,6106,-5883853,499687,1365894,0,0,0,119,79,89,142,72,181,190,101,133,92,52,121,0,,,,
1,1791232885056,-2498,1182,10720,966388,-449596,259006,0,0,0,419,309,220,402,288,416,396,108,252,341,160,451,0,,,,
2,1791232885056,6188,5321,7331,-6179512,906524,1602910,0,0,0,119,78,88,140,69,178,180,100,128,60,22,110,0,,,,
1,1791232885072,-2455,1081,11170,1098335,-200363,332310,0,0,0,423,317,207,398,294,420,394,102,246,334,158,449,0,,,,
2,1791232885072,6087,4517,8930,-6417750,1285260,1828930,0,0,0,121,78,85,139,67,182,181,103,135,70,27,111,0,,,,
1,1791232885088,-2613,899,11103,1309695,-2443,410501,0,0,0,421,316,186,405,307,429,380,100,238,334,156,457,0,,,,
2,1791232885088,5972,3651,10614,-6561914,1512502,2002416,0,0,0,121,80,85,142,73,184,185,100,135,84,45,113,0,,,,
1,1791232885104,-2732,607,10763,1463633,94073,530231,0,0,0,425,326,174,413,323,433,362,113,232,331,165,466,0,,,,
2,1791232885104,6475,3149,12045,-6640105,1590693,1997529,0,0,0,121,80,91,140,70,185,194,101,142,87,54,122,0,,,,
1,1791232885120,-2617,301,10490,1528384,83077,657290,0,0,0,428,342,177,419,335,441,349,123,242,320,172,471,0,,,,
2,1791232885120,7178,3034,13783,-6790377,1749518,1798387,0,0,0,119,82,90,144,71,188,195,108,142,89,55,124,0,,,,
1,1791232885136,-2340,33,10303,1554041,25656,748920,0,0,0,427,332,173,424,332,452,337,104,248,321,161,477,0,,,,
2,1791232885136,7106,2364,16578,-7138571,2019520,1400103,0,0,0,123,86,91,152,74,193,196,101,142,89,53,120,0,,,,
1,1791232885152,-2062,-258,10155,1569923,-19547,800233,0,0,0,431,332,174,425,321,449,353,98,250,325,153,480,0,,,,
2,1791232885152,5666,-737,20220,-7562511,2201558,1073901,0,0,0,120,83,91,151,77,197,192,105,136,91,54,126,0,,,,
1,1791232885168,-2124,-579,10054,1571145,-42760,822224,0,0,0,438,347,170,433,330,449,348,98,247,319,148,478,0,,,,
2,1791232885168,3747,-5929,23670,-7706675,2305405,1070235,0,0,0,119,81,90,149,77,196,193,110,138,96,55,129,0,,,,
1,1791232885184,-2378,-832,9987,1569923,-46425,873537,0,0,0,464,346,163,416,333,452,326,91,237,317,154,488,0,,,,
2,1791232885184,1210,-12979,26790,-7417125,2300518,1441641,0,0,0,121,80,90,148,73,193,193,105,147,93,54,128,0,,,,
1,1791232885200,-2124,-976,9849,1573588,-14660,935845,0,0,0,468,334,173,420,328,458,287,80,217,321,154,486,0,,,,
2,1791232885200,-2215,-23742,30399,-6796486,2102598,1979203,0,0,0,119,77,87,149,72,195,192,101,149,85,56,128,0,,,,
1,1791232885216,-1306,-1009,9882,1587027,43982,937067,0,0,0,481,349,180,421,358,454,292,90,220,329,166,494,0,,,,
2,1791232885216,-5800,-35386,32055,-5907066,1683544,2182010,0,0,0,118,78,86,156,75,202,200,107,153,91,54,127,0,,,,
1,1791232885232,-612,-1043,10825,1681101,117286,802676,0,0,0,481,352,214,430,339,465,287,85,227,337,162,500,0,,,,
2,1791232885232,-8925,-45814,30375,-4558276,835663,1816713,0,0,0,119,78,86,156,77,205,203,114,159,91,47,126,0,,,,
1,1791232885248,-502,-1249,12151,1897347,158824,635299,0,0,0,486,384,216,431,341,467,302,94,242,337,169,505,0,,,,
2,1791232885248,-8088,-52352,25929,-2952922,-178372,1397659,0,0,0,123,72,86,159,73,206,211,117,156,92,61,137,0,,,,
1,1791232885264,-737,-1507,13457,2258979,151494,483805,0,0,0,485,387,216,421,345,450,310,108,256,324,169,510,0,,,,
2,1791232885264,-3742,-52093,21048,-1001818,-431270,1290147,0,0,0,112,62,91,159,72,205,200,107,136,83,55,128,0,,,,
1,1791232885280,-1148,-1636,14438,2764776,129503,370184,0,0,0,484,382,219,435,347,446,282,97,243,331,163,507,0,,,,
2,1791232885280,-1938,-44460,18516,1075122,-151494,1335351,0,0,0,115,87,77,180,87,202,290,190,150,167,124,113,0,,,,
1,1791232885296,-1866,-1742,15027,3379306,135612,321315,0,0,0,482,390,214,435,359,455,255,91,237,328,171,500,0,,,,
2,1791232885296,-2230,-18746,18980,2741563,-287106,1446528,0,0,0,118,65,85,192,82,221,360,276,168,251,234,146,0,,,,
1,1791232885312,-2641,-1895,15032,4020715,190589,399505,0,0,0,475,402,205,422,373,461,246,94,251,317,173,487,0,,,,
2,1791232885312,564,22478,14716,3836233,-1452637,1495398,0,0,0,131,68,70,196,89,221,376,337,167,291,316,156,0,,,,
1,1791232885328,-3101,-2105,15156,4629136,283441,575435,0,0,0,465,408,194,417,384,460,236,93,257,304,157,471,0,,,,
2,1791232885328,2019,25139,17319,4669453,-2359161,1220508,0,0,0,136,85,63,205,104,225,370,349,154,301,356,169,0,,,,
1,1791232885344,-3216,-2536,16386,5324301,476474,791681,0,0,0,454,408,180,411,391,455,192,77,217,274,147,462,0,,,,
2,1791232885344,-373,1206,23034,3963293,-1692096,1194852,0,0,0,153,92,66,213,105,230,360,343,154,308,393,186,0,,,,
1,1791232885360,-3517,-3689,19229,5999918,897971,923628,0,0,0,437,390,181,390,376,432,139,61,147,253,141,442,0,,,,
2,1791232885360,-3651,-5757,18640,2433687,-741590,888198,0,0,0,167,96,80,214,103,231,373,356,169,307,414,188,0,,,,
1,1791232885376,-4795,-5254,23010,6635218,1336573,1043357,0,0,0,417,348,162,368,342,395,249,110,216,234,134,420,0,,,,
2,1791232885376,-3613,1804,9461,1448972,102625,19547,0,0,0,179,105,103,205,93,230,377,342,204,319,428,203,0,,,,
1,1791232885392,-6456,-6915,28250,7396356,1543045,1249830,0,0,0,361,318,151,305,309,347,259,132,198,206,139,404,0,,,,
2,1791232885392,201,3637,9542,1379333,478918,-417831,0,0,0,194,110,128,198,87,230,402,350,200,331,428,210,0,,,,
1,1791232885408,-7398,-7078,32309,8462927,1279151,1574810,0,0,0,271,270,158,277,268,306,284,117,198,189,115,380,0,,,,
2,1791232885408,2043,2244,11476,1114218,520457,-389732,0,0,0,214,120,150,202,91,231,433,353,179,343,424,214,0,,,,
1,1791232885424,-6776,-5053,31950,9419541,890641,1916895,0,0,0,186,233,149,250,231,268,300,125,176,197,127,272,0,,,,
2,1791232885424,1517,966,11706,631634,376292,-162490,0,0,0,223,126,161,207,98,235,443,343,181,354,429,225,0,,,,
1,1791232885440,-6546,-1947,25628,9363342,799011,2043955,0,0,0,186,234,157,258,232,267,286,128,163,199,147,254,0,,,,
2,1791232885440,1229,1627,10428,423940,285884,-114842,0,0,0,227,124,169,211,104,243,450,350,187,350,417,234,0,,,,
1,1791232885456,-7714,-1349,18698,7815409,659734,1930334,0,0,0,194,233,147,266,231,266,279,125,163,199,143,251,0,,,,
2,1791232885456,1301,2153,9820,376292,189368,-101403,0,0,0,241,128,186,222,109,250,453,339,188,345,370,246,0,,,,
1,1791232885472,-6815,1756,13481,4783074,222354,1492954,0,0,0,194,227,138,265,224,260,276,124,162,198,133,239,0,,,,
2,1791232885472,1244,2134,9954,437379,129503,-80634,0,0,0,248,124,187,230,113,250,452,301,202,357,323,268,0,,,,
1,1791232885488,-4058,5436,11438,554665,173485,722042,0,0,0,187,219,138,254,217,257,265,113,150,200,129,235,0,,,,
2,1791232885488,1115,2000,10011,505796,127059,-63529,0,0,0,254,127,191,238,113,255,460,264,217,328,260,289,0,,,,
1,1791232885504,-3900,5628,11146,-2425134,492357,149051,0,0,0,188,207,141,254,212,259,283,116,157,203,128,240,0,,,,
2,1791232885504,1048,1895,9978,572991,169820,-61086,0,0,0,273,127,200,250,119,249,467,249,235,311,215,318,0,,,,
1,1791232885520,-5704,4484,10485,-3725056,423940,-78190,0,0,0,196,197,145,262,204,262,305,123,169,205,126,245,0,,,,
2,1791232885520,1110,1876,9997,632856,234572,-70860,0,0,0,271,136,217,250,129,271,434,238,198,288,202,334,0,,,,
1,1791232885536,-5422,5398,8470,-4269948,-448375,-70860,0,0,0,197,194,147,258,195,262,287,115,162,207,125,248,0,,,,
2,1791232885536,1215,1780,10031,676838,302989,-83077,0,0,0,278,141,214,242,142,266,433,210,200,262,176,346,0,,,,
1,1791232885552,-3441,6566,7336,-5125159,-1061683,-94073,0,0,0,193,191,146,253,189,264,273,116,162,207,126,251,0,,,,
2,1791232885552,1383,1569,10007,696386,355523,-92851,0,0,0,289,142,213,257,149,285,448,208,212,248,175,368,0,,,,
1,1791232885568,-2158,6556,7566,-6069557,-818559,-150272,0,0,0,184,187,140,246,185,264,295,113,168,210,128,250,0,,,,
2,1791232885568,1526,1402,10002,704938,375071,-95294,0,0,0,305,187,213,271,187,293,441,186,215,246,150,391,0,,,,
1,1791232885584,-2225,6020,7767,-6699969,-485026,-186924,0,0,0,191,189,143,261,188,266,310,123,173,213,133,248,0,,,,
2,1791232885584,1679,1311,10016,713490,370184,-100181,0,0,0,307,173,250,262,171,313,425,161,232,218,118,412,0,,,,
1,1791232885600,-2450,5116,7863,-7016398,-394618,-219911,0,0,0,177,192,138,242,192,259,310,139,171,207,149,243,0,,,,
2,1791232885600,1751,1244,10083,720820,357967,-119729,0,0,0,316,162,285,259,170,332,407,136,258,207,105,442,0,,,,
1,1791232885616,-2613,4039,7939,-6833138,-525344,-270002,0,0,0,193,196,142,261,197,265,312,139,171,208,149,243,0,,,,
2,1791232885616,1861,1162,10217,746477,361632,-151494,0,0,0,331,169,276,274,191,331,388,131,254,196,95,458,0,,,,
1,1791232885632,-3120,3278,8226,-6462954,-829554,-343306,0,0,0,181,188,137,249,188,258,331,128,177,216,132,240,0,,,,
2,1791232885632,2139,1028,10385,827111,378736,-218689,0,0,0,343,184,256,286,215,331,384,134,242,186,95,461,0,,,,
1,1791232885648,-3560,3235,9322,-6323676,-1391551,-486248,0,0,0,182,183,141,247,182,259,334,128,183,217,130,244,0,,,,
2,1791232885648,2392,856,10476,939510,389732,-326202,0,0,0,355,190,254,291,227,334,397,132,243,185,88,469,0,,,,
1,1791232885664,-3493,3431,10854,-6542366,-1947438,-689055,0,0,0,180,187,143,246,182,262,338,130,192,218,131,247,0,,,,
2,1791232885664,2517,670,10557,1070235,348193,-450818,0,0,0,380,199,231,297,237,336,397,125,245,195,90,483,0,,,,
1,1791232885680,-2857,3330,12610,-6963863,-2322509,-939510,0,0,0,179,189,150,247,182,268,335,128,198,217,131,251,0,,,,
2,1791232885680,2450,478,10619,1191187,195476,-526565,0,0,0,408,220,187,304,276,342,388,133,242,195,105,497,0,,,,
1,1791232885696,-3058,2627,14218,-7156897,-2371378,-990823,0,0,0,179,186,160,249,179,275,334,125,203,217,128,256,0,,,,
2,1791232885696,2316,301,10629,1297477,46425,-576656,0,0,0,411,232,150,310,323,347,382,151,246,187,110,512,0,,,,
1,1791232885712,-3723,2469,16410,-7293730,-2519208,-781907,0,0,0,179,184,160,252,178,278,335,124,205,218,127,258,0,,,,
2,1791232885712,2067,210,10792,1400103,-10995,-605978,0,0,0,396,220,121,316,321,350,359,152,254,193,107,527,0,,,,
1,1791232885728,-3158,2019,20148,-7841066,-2775771,-571769,0,0,0,184,184,159,260,180,279,328,121,199,239,125,251,0,,,,
2,1791232885728,2024,47,11141,1550375,23212,-614530,0,0,0,412,227,125,316,328,353,361,151,248,194,108,529,0,,,,
1,1791232885744,-2306,-1454,24106,-8289441,-2834414,-711047,0,0,0,189,185,161,270,182,281,317,114,187,261,125,245,0,,,,
2,1791232885744,2081,-220,11256,1753183,63529,-630412,0,0,0,425,258,116,321,317,344,369,143,226,207,121,546,0,,,,
1,1791232885760,-961,-9906,28724,-8152607,-2918714,-960280,0,0,0,183,182,154,267,180,280,318,110,182,228,130,255,0,,,,
2,1791232885760,1962,-416,11112,1958433,64751,-636521,0,0,0,448,241,131,328,287,354,365,134,225,205,113,561,0,,,,
1,1791232885776,2230,-21756,33232,-7630928,-2901609,-868650,0,0,0,181,187,157,261,184,283,324,120,198,222,133,259,0,,,,
2,1791232885776,2024,-555,11328,2134363,18325,-621860,0,0,0,452,244,134,321,279,354,351,128,225,203,115,571,0,,,,
1,1791232885792,8011,-35673,34989,-6641326,-2416582,-235793,0,0,0,191,190,166,285,191,294,324,120,198,224,133,260,0,,,,
2,1791232885792,2474,-794,12208,2361605,-86742,-616973,0,0,0,469,253,138,296,285,354,311,140,218,195,124,573,0,,,,
1,1791232885808,13424,-45154,32892,-5480682,-1517389,493579,0,0,0,187,192,178,285,192,302,337,135,213,222,145,264,0,,,,
2,1791232885808,2584,-1062,13318,2698802,-177150,-657290,0,0,0,483,239,136,292,272,358,274,141,222,189,126,582,0,,,,
1,1791232885824,13256,-52375,27111,-3722612,-31764,825889,0,0,0,188,194,177,288,192,302,329,125,205,223,139,262,0,,,,
2,1791232885824,2316,-1225,14304,3166725,-199142,-682947,0,0,0,483,252,137,280,246,349,254,132,214,181,110,583,0,,,,
1,1791232885840,8217,-55702,22407,-1544267,973719,728151,0,0,0,165,195,156,286,207,298,354,203,209,268,230,221,0,,,,
2,1791232885840,2201,-1287,14773,3701843,-142942,-686612,0,0,0,475,275,143,266,271,342,238,133,224,153,92,574,0,,,,
1,1791232885856,6786,-43560,23747,1193630,1032362,-238237,0,0,0,157,196,111,285,213,275,366,280,171,312,332,183,0,,,,
2,1791232885856,1579,-1139,15424,4280943,-113620,-675616,0,0,0,460,267,132,299,274,362,195,116,219,167,82,542,0,,,,
1,1791232885872,3694,-2311,22790,3572339,1169196,-1483180,0,0,0,162,191,99,291,199,268,383,300,166,336,364,183,0,,,,
2,1791232885872,698,-923,16908,4971221,-246789,-555887,0,0,0,423,253,123,305,272,362,170,103,206,161,81,512,0,,,,
1,1791232885888,-593,32064,15391,4397007,2150245,-1445307,0,0,0,170,191,104,298,196,281,379,294,161,355,375,206,0,,,,
2,1791232885888,2555,-1856,18277,5756794,-564439,-470366,0,0,0,394,229,121,293,279,343,164,106,196,141,73,479,0,,,,
1,1791232885904,-531,15927,15553,4083023,2984687,-393397,0,0,0,173,195,111,288,193,290,371,306,150,362,402,226,0,,,,
2,1791232885904,4661,-3886,20760,6538701,-867428,-591317,0,0,0,364,205,123,263,242,309,167,112,190,130,72,437,0,,,,
1,1791232885920,1162,-7628,17583,3060434,2388483,180816,0,0,0,167,193,125,275,185,300,392,341,164,367,429,241,0,,,,
2,1791232885920,5489,-6087,25814,6996850,-972497,-797790,0,0,0,315,175,126,231,179,260,171,105,179,123,73,373,0,,,,
1,1791232885936,851,-2191,13290,2214997,1133765,151494,0,0,0,164,188,147,277,185,317,412,357,183,379,436,256,0,,,,
2,1791232885936,7499,-4814,30949,7446447,-871093,-1027475,0,0,0,237,128,115,197,133,214,171,97,151,109,68,270,0,,,,
1,1791232885952,-531,4297,11227,1707979,602313,250454,0,0,0,173,191,170,280,187,322,409,357,186,383,433,264,0,,,,
2,1791232885952,9356,-1450,32701,7960795,-730594,-1380555,0,0,0,147,90,91,147,94,180,167,100,122,87,64,152,0,,,,
1,1791232885968,-1177,3618,11801,1199739,504574,305432,0,0,0,180,188,186,275,176,327,443,404,231,391,428,268,0,,,,
2,1791232885968,9719,2230,28509,8111068,-445931,-1903456,0,0,0,108,84,79,134,81,159,166,106,125,74,49,100,0,,,,
1,1791232885984,-890,1426,11385,687834,306654,219911,0,0,0,191,189,207,275,173,322,445,398,226,412,423,273,0,,,,
2,1791232885984,9078,5518,17554,6361550,23212,-2399478,0,0,0,89,74,72,127,70,154,167,112,124,74,44,98,0,,,,
1,1791232886000,-789,1287,10524,472809,112399,141720,0,0,0,207,200,223,277,173,312,446,395,223,412,416,275,0,,,,
2,1791232886000,8418,8561,12974,3153286,480140,-2411695,0,0,0,124,96,90,132,74,159,177,112,120,84,57,117,0,,,,
1,1791232886016,-938,1976,10112,420275,26878,90408,0,0,0,212,210,236,273,180,312,438,381,222,397,407,282,0,,,,
2,1791232886016,6197,10002,14644,-416610,409279,-1865582,0,0,0,123,76,91,136,64,162,183,112,128,74,39,94,0,,,,
1,1791232886032,-885,2258,9983,406836,0,64751,0,0,0,219,225,254,277,190,319,440,380,230,387,401,294,0,,,,
2,1791232886032,5302,9361,14491,-2503325,-141720,-1312138,0,0,0,118,72,81,140,70,163,173,103,117,82,39,114,0,,,,
1,1791232886048,-808,2148,9959,452040,-32986,76969,0,0,0,233,237,246,275,194,309,437,361,228,392,390,303,0,,,,
2,1791232886048,5977,8528,10945,-3020117,-377514,-966388,0,0,0,118,72,88,138,67,161,175,109,116,82,51,101,0,,,,
1,1791232886064,-804,1995,10007,520457,-79412,100181,0,0,0,240,242,238,279,196,310,434,340,229,390,352,319,0,,,,
2,1791232886064,5211,9112,8370,-3646865,52534,-692721,0,0,0,119,74,81,137,68,161,187,111,116,79,51,104,0,,,,
1,1791232886080,-818,1890,10064,554665,-133168,123394,0,0,0,252,244,242,279,199,318,432,321,233,385,321,336,0,,,,
2,1791232886080,3910,9179,7891,-4687779,305432,-371406,0,0,0,119,79,83,142,69,166,183,117,133,84,51,107,0,,,,
1,1791232886096,-861,1785,10045,548556,-185703,144164,0,0,0,256,240,255,285,202,322,431,303,243,384,306,357,0,,,,
2,1791232886096,3551,8245,8083,-5521000,257785,-97738,0,0,0,119,76,93,141,67,168,186,117,137,81,49,108,0,,,,
1,1791232886112,-894,1722,10045,561996,-216246,160046,0,0,0,268,245,263,293,209,322,431,292,244,375,291,371,0,,,,
2,1791232886112,4053,7039,7848,-5887519,285884,120951,0,0,0,121,76,91,143,69,170,185,109,132,83,47,105,0,,,,
1,1791232886128,-1014,1694,10117,630412,-235793,160046,0,0,0,285,260,279,294,217,338,434,280,252,359,271,382,0,,,,
2,1791232886128,4522,6101,7925,-6097656,513126,356745,0,0,0,118,76,85,142,67,172,186,99,123,81,46,112,0,,,,
1,1791232886144,-1172,1631,10208,741590,-255341,157603,0,0,0,305,276,302,298,223,357,434,258,271,353,250,402,0,,,,
2,1791232886144,4905,5422,8600,-6299242,846659,635299,0,0,0,115,74,86,141,70,176,191,100,124,82,43,123,0,,,,
1,1791232886160,-1177,1459,10270,855211,-294437,169820,0,0,0,334,296,305,309,233,355,424,230,265,349,224,418,0,,,,
2,1791232886160,5116,4704,10035,-6493497,1266934,994488,0,0,0,117,72,85,146,77,180,191,109,135,86,50,131,0,,,,
1,1791232886176,-1129,1249,10327,974940,-366519,185703,0,0,0,356,310,300,321,255,352,417,204,244,340,205,430,0,,,,
2,1791232886176,5293,3728,11672,-6554584,1557706,1336573,0,0,0,125,73,82,162,72,180,212,111,133,94,62,127,0,,,,
1,1791232886192,-1143,1129,10485,1116661,-467922,201585,0,0,0,391,322,282,324,259,370,428,189,254,331,191,438,0,,,,
2,1791232886192,5977,3139,13065,-6568023,1764178,1562593,0,0,0,131,76,82,171,68,182,237,106,126,99,55,115,0,,,,
1,1791232886208,-1234,1019,10691,1270599,-571769,229685,0,0,0,412,337,262,345,270,372,411,155,244,331,185,435,0,,,,
2,1791232886208,7025,3306,14591,-6665761,2043955,1571145,0,0,0,122,80,82,152,75,186,192,102,133,88,42,119,0,,,,
1,1791232886224,-1316,823,10772,1406211,-657290,261450,0,0,0,432,340,239,368,284,376,411,160,248,347,182,437,0,,,,
2,1791232886224,7016,2919,16855,-6900333,2326174,1273043,0,0,0,119,79,83,147,71,183,161,89,121,89,50,124,0,,,,
1,1791232886240,-1474,564,10634,1474628,-659734,287106,0,0,0,433,334,212,385,288,404,428,160,247,323,173,455,0,,,,
2,1791232886240,6073,1067,19999,-7188662,2465452,772133,0,0,0,120,81,86,149,67,184,199,109,139,74,64,124,0,,,,
1,1791232886256,-1651,239,10634,1461189,-542448,309097,0,0,0,434,341,218,395,299,414,370,107,196,329,164,452,0,,,,
2,1791232886256,4757,-2311,22689,-7303504,2439795,408057,0,0,0,121,77,85,159,73,190,211,121,144,104,69,129,0,,,,
1,1791232886272,-1866,-33,10820,1483180,-436157,339641,0,0,0,435,350,224,400,318,422,356,99,200,334,166,454,0,,,,
2,1791232886272,2617,-8284,25484,-7133684,2516764,415388,0,0,0,116,78,83,156,80,192,199,113,133,97,55,130,0,,,,
1,1791232886288,-2033,-277,10930,1612684,-367740,400727,0,0,0,448,354,207,391,310,411,395,103,220,339,157,459,0,,,,
2,1791232886288,-382,-16946,28461,-6691417,2594955,656069,0,0,0,114,76,83,157,74,195,206,107,138,84,36,114,0,,,,
1,1791232886304,-1813,-526,10739,1765400,-337197,456927,0,0,0,457,355,195,398,340,420,401,116,248,339,163,466,0,,,,
2,1791232886304,-4910,-28676,30533,-5809328,2449569,902858,0,0,0,119,80,86,165,78,198,222,112,142,98,54,123,0,,,,
1,1791232886320,-1158,-703,10265,1846034,-357967,444709,0,0,0,461,356,198,409,340,439,361,109,242,337,167,475,0,,,,
2,1791232886320,-9935,-40176,30691,-4635245,1908343,963945,0,0,0,120,81,85,149,71,189,212,123,148,86,66,124,0,,,,
1,1791232886336,-976,-751,10777,1898569,-426383,333532,0,0,0,477,357,202,408,314,451,320,93,225,334,160,495,0,,,,
2,1791232886336,-13610,-51394,28724,-3042108,751364,799011,0,0,0,109,68,73,146,72,183,237,152,143,128,121,124,0,,,,
1,1791232886352,-1603,-885,12232,2083050,-463035,256563,0,0,0,494,357,206,403,317,456,296,88,234,320,149,523,0,,,,
2,1791232886352,-14333,-62316,27987,-900415,-513126,638965,0,0,0,126,80,71,168,91,180,307,212,145,192,173,117,0,,,,
1,1791232886368,-2124,-1158,13941,2530203,-422718,266337,0,0,0,486,372,215,400,332,459,283,90,249,310,152,526,0,,,,
2,1791232886368,-13137,-53270,29538,2800206,-2127032,1176526,0,0,0,128,79,73,189,88,188,343,240,149,242,218,122,0,,,,
1,1791232886384,-2153,-1363,15080,3084869,-337197,295658,0,0,0,481,399,207,399,352,462,275,103,262,323,174,499,0,,,,
2,1791232886384,-4000,-8107,26824,4221078,-3004235,1624901,0,0,0,128,76,75,197,82,196,350,245,137,257,230,127,0,,,,
1,1791232886400,-1933,-1363,15869,3674965,-241902,305432,0,0,0,487,401,204,400,350,459,236,90,243,310,164,498,0,,,,
2,1791232886400,1943,24063,19889,3731164,-3028669,1067792,0,0,0,133,77,73,194,82,197,355,254,135,260,228,126,0,,,,
1,1791232886416,-1253,-1158,16750,4397007,-120951,262672,0,0,0,483,403,205,406,382,470,201,76,220,297,160,484,0,,,,
2,1791232886416,1340,13290,11227,2695137,-2289522,87964,0,0,0,137,76,73,194,77,200,374,277,153,275,270,139,0,,,,
1,1791232886432,-1258,-1110,17597,5218010,129503,172263,0,0,0,455,433,189,406,411,479,222,113,276,278,164,473,0,,,,
2,1791232886432,1167,-296,6585,2720793,-1767844,151494,0,0,0,143,77,79,199,74,205,387,299,163,291,333,160,0,,,,
1,1791232886448,-4469,-2249,18875,6036570,711047,271224,0,0,0,444,431,185,405,384,463,240,109,274,265,150,459,0,,,,
2,1791232886448,435,-1588,8375,3147177,-1701870,487470,0,0,0,149,79,89,191,71,208,372,301,161,293,355,170,0,,,,
1,1791232886464,-8384,-4642,21938,6756169,1478293,689055,0,0,0,430,374,161,370,362,426,232,105,238,247,139,445,0,,,,
2,1791232886464,-1426,1502,14347,2983465,-1423316,406836,0,0,0,162,89,99,183,72,203,386,317,165,315,372,182,0,,,,
1,1791232886480,-11485,-6920,26743,7321830,2244318,1365894,0,0,0,419,337,157,340,339,380,258,114,221,225,130,429,0,,,,
2,1791232886480,-856,871,14347,1830152,-649960,8552,0,0,0,165,95,115,176,78,210,400,344,169,311,372,197,0,,,,
1,1791232886496,-12510,-6326,30184,8064642,2379930,2095267,0,0,0,351,307,154,307,316,330,154,72,142,214,137,407,0,,,,
2,1791232886496,550,315,11490,908967,-204028,-127059,0,0,0,184,103,138,179,75,210,409,338,167,312,373,210,0,,,,
1,1791232886512,-11706,-4752,32007,9060353,1988977,2682920,0,0,0,233,265,154,266,262,287,196,129,155,201,160,322,0,,,,
2,1791232886512,751,784,10155,652404,-210137,-62308,0,0,0,196,109,138,193,88,217,420,339,170,323,364,227,0,,,,
1,1791232886528,-11332,-1191,27303,9434202,1247386,3034778,0,0,0,184,242,155,254,239,273,240,147,152,198,176,267,0,,,,
2,1791232886528,488,1253,10165,591317,-226020,-54977,0,0,0,201,103,150,198,72,219,421,337,177,323,351,242,0,,,,
1,1791232886544,-10007,2584,19612,8519126,430049,3174055,0,0,0,185,238,154,261,244,273,255,143,142,198,183,254,0,,,,
2,1791232886544,402,1220,10337,540004,-158824,-100181,0,0,0,213,108,158,203,78,227,422,335,170,321,351,262,0,,,,
1,1791232886560,-5446,4340,13878,5965709,31764,2388483,0,0,0,190,237,148,264,242,266,285,153,156,198,173,247,0,,,,
2,1791232886560,650,995,10131,438601,-120951,-100181,0,0,0,219,104,162,206,85,232,430,321,176,322,332,272,0,,,,
1,1791232886576,-1823,6451,10949,2508212,302989,758694,0,0,0,196,229,143,263,227,255,300,139,157,204,148,241,0,,,,
2,1791232886576,775,957,10026,368962,-164933,-70860,0,0,0,229,103,164,206,79,235,444,318,179,329,325,297,0,,,,
1,1791232886592,-2081,6451,10940,-1095892,1049466,-860098,0,0,0,199,219,144,264,220,256,260,119,134,206,147,238,0,,,,
2,1791232886592,631,971,10083,343306,-219911,-41538,0,0,0,236,105,177,203,79,238,416,294,170,352,297,296,0,,,,
1,1791232886608,-6188,4044,11222,-3176499,1232726,-1270599,0,0,0,201,208,149,263,209,260,81,25,35,222,140,247,0,,,,
2,1791232886608,473,938,10088,322536,-221133,-28099,0,0,0,236,104,187,199,80,241,416,297,185,334,266,311,0,,,,
1,1791232886624,-8021,3321,9830,-3931528,323758,-803898,0,0,0,203,202,151,261,198,259,287,116,150,206,129,242,0,,,,
2,1791232886624,430,918,10035,307876,-189368,-28099,0,0,0,239,113,195,209,86,253,421,288,188,324,261,335,0,,,,
1,1791232886640,-5977,4570,8174,-4499633,-937067,-151494,0,0,0,200,193,151,264,192,266,293,118,155,211,130,246,0,,,,
2,1791232886640,445,880,10035,304210,-171042,-35430,0,0,0,246,120,199,214,89,260,422,277,190,327,248,354,0,,,,
1,1791232886656,-2665,5766,7934,-5560095,-1209513,119729,0,0,0,184,187,141,248,186,261,285,112,150,207,130,244,0,,,,
2,1791232886656,416,866,10054,306654,-146607,-45204,0,0,0,251,121,202,211,93,264,422,266,208,310,214,381,0,,,,
1,1791232886672,-1349,5824,8490,-6546031,-746477,70860,0,0,0,185,185,139,245,183,256,284,112,150,212,133,243,0,,,,
2,1791232886672,416,871,10069,338419,-122173,-48869,0,0,0,256,121,209,217,100,276,414,235,219,283,184,411,0,,,,
1,1791232886688,-1478,5116,8992,-7119023,-342084,-162490,0,0,0,185,182,141,247,184,260,282,109,150,217,134,246,0,,,,
2,1791232886688,469,827,10112,415388,-133168,-48869,0,0,0,267,131,213,228,110,284,411,200,213,268,165,430,0,,,,
1,1791232886704,-1555,4431,9150,-7271739,-207694,-406836,0,0,0,183,180,143,249,182,260,283,110,151,218,135,243,0,,,,
2,1791232886704,507,727,10155,488692,-164933,-53756,0,0,0,280,157,222,238,136,289,413,183,220,249,140,445,0,,,,
1,1791232886720,-2464,3752,9198,-7127575,-268780,-646295,0,0,0,184,181,142,250,179,259,287,110,153,222,135,242,0,,,,
2,1791232886720,540,617,10174,535117,-205250,-58643,0,0,0,291,137,229,260,134,309,410,185,231,226,126,468,0,,,,
1,1791232886736,-4077,3139,9877,-6990741,-856433,-805120,0,0,0,186,184,142,248,178,260,301,116,165,224,136,245,0,,,,
2,1791232886736,550,512,10227,576656,-260228,-65973,0,0,0,300,132,211,262,148,322,400,186,240,212,128,494,0,,,,
1,1791232886752,-4187,2546,11045,-7009067,-1591914,-934623,0,0,0,184,186,143,247,181,263,317,127,177,222,140,248,0,,,,
2,1791232886752,454,392,10323,616973,-312763,-83077,0,0,0,323,131,223,278,157,326,382,144,233,188,104,498,0,,,,
1,1791232886768,-3249,1780,12084,-6995628,-1853365,-1078788,0,0,0,183,188,144,247,188,266,324,133,182,222,144,249,0,,,,
2,1791232886768,354,277,10524,678060,-312763,-109955,0,0,0,359,148,198,305,181,342,392,142,249,185,81,513,0,,,,
1,1791232886784,-3359,1416,12869,-6878342,-1869247,-1145983,0,0,0,184,192,145,246,189,268,331,138,185,224,149,248,0,,,,
2,1791232886784,492,153,10892,817337,-304210,-146607,0,0,0,364,164,182,309,203,367,390,121,238,188,88,532,0,,,,
1,1791232886800,-4087,1770,14108,-6831916,-2046398,-1039692,0,0,0,185,187,149,248,177,274,330,140,194,223,147,251,0,,,,
2,1791232886800,818,-38,11251,1072679,-295658,-217468,0,0,0,389,157,138,333,208,360,408,112,230,193,64,555,0,,,,
1,1791232886816,-4010,1799,16089,-6943094,-2315179,-912632,0,0,0,183,186,151,250,174,273,285,151,210,222,148,249,0,,,,
2,1791232886816,1076,-205,11442,1339016,-208915,-339641,0,0,0,391,155,121,331,205,369,408,117,244,184,70,575,0,,,,
1,1791232886832,-3287,110,18334,-7092145,-2442239,-954171,0,0,0,184,183,146,250,180,269,290,146,193,220,155,247,0,,,,
2,1791232886832,1158,-330,11634,1600466,-52534,-482583,0,0,0,405,196,124,325,206,372,372,114,241,184,78,589,0,,,,
1,1791232886848,-1952,-4986,21215,-7011511,-2527760,-1318247,0,0,0,185,183,158,260,177,282,292,112,168,224,143,250,0,,,,
2,1791232886848,966,-516,11744,1874134,78190,-603534,0,0,0,422,185,127,335,220,383,336,114,249,189,73,597,0,,,,
1,1791232886864,90,-12806,24627,-6670648,-2538755,-1871691,0,0,0,189,187,163,260,179,287,292,113,172,228,142,254,0,,,,
2,1791232886864,507,-698,11691,2128254,155159,-685390,0,0,0,442,175,125,344,229,387,323,131,256,197,61,603,0,,,,
1,1791232886880,2335,-22928,27719,-6102543,-2370157,-2327396,0,0,0,185,188,164,261,180,284,298,112,183,226,145,253,0,,,,
2,1791232886880,215,-746,12036,2304183,169820,-687834,0,0,0,457,186,124,341,220,386,320,130,265,202,61,602,0,,,,
1,1791232886896,5302,-34826,28600,-5203350,-1901012,-2212553,0,0,0,182,190,162,262,183,287,304,121,182,227,154,255,0,,,,
2,1791232886896,569,-837,13127,2558303,109955,-674395,0,0,0,456,199,126,334,219,389,319,122,270,202,79,606,0,,,,
1,1791232886912,7623,-46853,27202,-3866776,-906524,-1463633,0,0,0,182,187,171,263,182,294,306,115,183,230,147,257,0,,,,
2,1791232886912,713,-1014,14142,2888170,-2443,-693942,0,0,0,450,206,128,335,224,385,333,122,256,212,93,604,0,,,,
1,1791232886928,5388,-53964,24177,-2114815,266337,-441044,0,0,0,175,186,169,277,189,300,338,142,200,256,175,248,0,,,,
2,1791232886928,760,-1258,14955,3348763,-122173,-736703,0,0,0,453,217,131,337,222,378,335,116,253,209,87,581,0,,,,
1,1791232886944,2550,-53830,22397,-10995,750142,147829,0,0,0,153,194,132,276,211,284,340,232,183,284,287,211,0,,,,
2,1791232886944,689,-1416,15558,3832568,-211359,-786794,0,0,0,437,224,128,327,235,384,279,111,261,170,80,558,0,,,,
1,1791232886960,3464,-32782,23790,2389704,503352,-54977,0,0,0,140,202,102,265,222,270,320,314,156,305,393,184,0,,,,
2,1791232886960,-143,-1407,16415,4486194,-323758,-797790,0,0,0,416,207,122,314,230,383,221,99,230,169,82,524,0,,,,
1,1791232886976,2287,14563,18190,4331034,-109955,-466701,0,0,0,149,202,111,267,215,288,314,325,153,332,422,204,0,,,,
2,1791232886976,143,-1885,17989,5183802,-502131,-678060,0,0,0,406,240,110,307,234,368,187,93,214,174,84,476,0,,,,
1,1791232886992,-1651,27039,14788,5541769,-592539,-246789,0,0,0,157,200,125,276,213,313,311,318,157,361,432,242,0,,,,
2,1791232886992,2814,-3464,20186,5878967,-641408,-684169,0,0,0,384,223,119,271,213,340,158,98,191,143,79,429,0,,,,
1,1791232887008,-4388,1641,19349,5497787,-579100,-68416,0,0,0,167,196,144,275,199,321,360,361,182,385,439,263,0,,,,
2,1791232887008,5546,-6068,24627,6609561,-463035,-948062,0,0,0,353,160,148,209,164,300,166,101,194,123,55,381,0,,,,
1,1791232887024,-1761,-7441,19483,4260174,-467922,-107512,0,0,0,182,196,137,295,205,329,353,331,156,424,448,283,0,,,,
2,1791232887024,6915,-7705,29930,7313278,25656,-1282817,0,0,0,266,116,113,189,124,234,240,151,197,135,66,296,0,,,,
1,1791232887040,598,-382,14185,2946813,-452040,327423,0,0,0,192,192,139,287,186,333,441,413,213,418,457,296,0,,,,
2,1791232887040,7001,-6843,34228,7795862,478918,-1701870,0,0,0,170,86,80,158,81,183,176,94,123,104,58,157,0,,,,
1,1791232887056,-2603,2402,11466,2145358,-403171,691499,0,0,0,209,203,160,293,204,340,396,366,167,434,462,314,0,,,,
2,1791232887056,7863,-1990,32462,7629706,90408,-2228436,0,0,0,126,76,75,144,72,178,165,88,121,76,42,104,0,,,,
1,1791232887072,-4795,626,11533,1441641,-157603,482583,0,0,0,229,213,181,296,201,344,438,413,205,435,470,346,0,,,,
2,1791232887072,9906,4527,24101,6728069,-493579,-2718350,0,0,0,129,74,83,133,59,170,160,82,112,65,35,96,0,,,,
1,1791232887088,-3479,-277,11203,838107,13439,136833,0,0,0,248,220,199,300,202,350,439,390,218,447,444,376,0,,,,
2,1791232887088,9222,8887,16142,4296826,-441044,-2474004,0,0,0,131,70,83,134,61,170,168,92,123,69,41,107,0,,,,
1,1791232887104,-2459,521,10212,566882,34208,57421,0,0,0,272,236,207,299,211,359,447,390,242,454,411,407,0,,,,
2,1791232887104,6149,10413,13783,1050688,-386066,-1414763,0,0,0,131,69,88,138,69,175,172,95,126,78,43,107,0,,,,
1,1791232887120,-2502,1086,9839,585208,41538,102625,0,0,0,294,244,213,313,215,364,444,377,247,439,375,426,0,,,,
