sole_id,timestamp,accel_x,accel_y,accel_z,gyro_x,gyro_y,gyro_z,magn_x,magn_y,magn_z,pressure_01,pressure_02,pressure_03,pressure_04,pressure_05,pressure_06,pressure_07,pressure_08,pressure_09,pressure_10,pressure_11,pressure_12,corrupt,grass,transition,asphalt
1,1790872616752,-4058,1426,16898,5662720,2017077,1087340,0,0,0,215,236,117,296,215,342,426,360,208,397,379,298,0,,,
2,1790872616752,2823,-1651,16898,4246735,-259006,-723264,0,0,0,449,271,129,349,260,353,213,106,233,158,75,548,0,,,
1,1790872616768,-134,-8054,21296,4905247,1018923,-309097,0,0,0,217,220,123,300,209,339,427,364,205,414,386,324,0,,,
2,1790872616768,3871,-1804,19282,5186245,-558330,-946841,0,0,0,422,245,120,296,236,338,180,93,217,142,77,508,0,,,
1,1790872616784,512,-3895,20698,3540574,525344,-564439,0,0,0,235,210,174,307,201,355,436,380,226,433,387,347,0,,,
2,1790872616784,4737,-2378,22813,6184399,-850324,-1196074,0,0,0,407,214,120,257,214,321,167,93,199,138,67,471,0,,,
1,1790872616800,-995,38,13907,1469741,707381,-36651,0,0,0,253,217,208,303,203,370,454,414,260,444,395,374,0,,,
2,1790872616800,5451,-4331,27226,7059158,-1043357,-1384220,0,0,0,369,189,119,229,180,279,172,93,178,135,66,424,0,,,
1,1790872616816,-1502,-28,9485,250454,739146,76969,0,0,0,267,228,229,303,205,380,463,425,269,451,406,399,0,,,
2,1790872616816,5561,-5226,30466,7663915,-981049,-1572367,0,0,0,296,158,110,191,139,245,180,94,158,115,62,340,0,,,
1,1790872616832,-875,-851,9734,65973,552222,-57421,0,0,0,279,236,243,305,207,383,472,428,269,461,412,417,0,,,
2,1790872616832,5508,-2622,31327,8175820,-801455,-1813048,0,0,0,217,117,88,160,99,190,192,96,128,105,59,212,0,,,
1,1790872616848,-660,-617,10667,69638,384845,-67195,0,0,0,287,251,252,304,212,385,481,432,273,470,412,425,0,,,
2,1790872616848,8131,5020,26288,8400618,-729373,-2118480,0,0,0,164,86,98,158,78,188,188,103,127,97,55,151,0,,,
1,1790872616864,-737,-110,10653,52534,234572,-18325,0,0,0,295,260,260,306,214,388,479,428,268,475,414,429,0,,,
2,1790872616864,11184,12567,15108,7503868,-173485,-2464230,0,0,0,159,83,93,157,76,189,185,104,132,86,45,141,0,,,
1,1790872616880,-804,134,10284,35430,74525,7330,0,0,0,305,246,261,311,211,385,481,429,264,481,410,431,0,,,
2,1790872616880,9705,14175,7269,4280943,1187522,-2585181,0,0,0,171,86,96,156,75,190,185,95,133,87,43,146,0,,,
1,1790872616896,-804,95,10193,62308,-32986,4886,0,0,0,311,247,256,312,209,383,483,427,269,488,395,429,0,,,
2,1790872616896,4608,13792,7575,95294,1806939,-2024407,0,0,0,173,82,101,154,71,194,192,96,136,97,44,154,0,,,
1,1790872616912,-823,90,10203,91629,-96516,7330,0,0,0,315,252,257,313,211,381,482,416,268,487,389,428,0,x,,
2,1790872616912,851,10696,10131,-3086091,934623,-902858,0,0,0,169,85,103,155,69,199,203,106,152,93,43,159,0,x,,
1,1790872616928,-851,114,10155,114842,-125838,15882,0,0,0,323,253,259,310,211,380,479,412,268,483,381,426,0,,,
2,1790872616928,2268,6527,8312,-3687182,-295658,-39095,0,0,0,167,89,103,156,72,202,195,104,146,88,44,159,0,,,
1,1790872616944,-856,105,10074,127059,-131946,15882,0,0,0,325,255,251,316,211,377,476,398,264,488,369,424,0,,,
2,1790872616944,4355,5527,3996,-2937040,-130725,249233,0,0,0,164,86,104,156,70,203,194,95,142,90,51,163,0,,,
1,1790872616960,-856,95,10026,138055,-130725,14660,0,0,0,330,251,260,317,215,381,471,384,271,465,354,430,0,,,
2,1790872616960,1943,7317,4446,-3356093,579100,551000,0,0,0,161,85,106,156,69,203,196,95,144,91,51,165,0,,,
1,1790872616976,-851,100,10016,156381,-123394,10995,0,0,0,326,259,250,310,218,377,471,373,274,439,344,433,0,,,
2,1790872616976,-507,8284,6374,-4331034,755029,1058018,0,0,0,158,85,104,158,71,204,196,99,144,88,49,161,0,,,
1,1790872616992,-871,105,10016,173485,-111177,10995,0,0,0,334,267,250,314,222,377,469,363,275,436,333,439,0,,,
2,1790872616992,-555,7039,8088,-5462356,329867,1683544,0,0,0,158,83,104,164,73,205,204,99,143,90,49,160,0,,,
1,1790872617008,-918,76,9997,182037,-91629,14660,0,0,0,340,271,254,317,224,377,472,350,275,442,323,442,0,,,
2,1790872617008,947,5446,8159,-5747020,356745,1761735,0,0,0,164,86,112,167,71,205,215,102,148,94,43,158,0,,,
1,1790872617024,-918,9,9964,169820,-53756,20769,0,0,0,347,278,259,316,222,373,479,336,270,454,318,443,0,,,
2,1790872617024,1713,4541,8743,-5948605,779464,1556484,0,0,0,160,84,106,158,68,204,217,110,160,90,41,159,0,,,
1,1790872617040,-885,-14,9959,151494,-19547,25656,0,0,0,355,284,265,316,226,377,480,326,271,455,309,447,0,,,
2,1790872617040,1196,4694,10313,-6241821,1240056,1187522,0,0,0,158,83,105,158,76,203,198,102,143,92,56,164,0,,,
1,1790872617056,-847,-14,9997,140499,-2443,28099,0,0,0,364,288,266,318,233,379,480,317,273,448,301,450,0,,,
2,1790872617056,363,4522,12553,-6653544,1391551,791681,0,0,0,156,83,104,162,73,206,209,107,143,84,42,157,0,,,
1,1790872617072,-832,-9,10035,145385,1221,28099,0,0,0,370,289,260,321,239,380,482,314,276,439,293,452,0,,,
2,1790872617072,-172,3828,14582,-6867347,1385442,460592,0,0,0,156,86,102,169,73,207,219,103,143,90,39,154,0,,,
1,1790872617088,-832,-23,10050,160046,0,26878,0,0,0,374,288,278,324,243,389,481,311,287,428,285,459,0,,,
2,1790872617088,-258,2943,16506,-6787934,1469741,349414,0,0,0,155,86,104,170,68,211,226,113,160,97,45,158,0,,,
1,1790872617104,-837,-62,10054,171042,0,30543,0,0,0,384,290,311,331,246,396,477,291,296,425,276,466,0,,,
2,1790872617104,-33,1794,18760,-6668204,1737300,465479,0,0,0,151,86,107,170,68,219,227,102,162,102,52,172,0,,,
1,1790872617120,-851,-100,10069,189368,8552,40317,0,0,0,407,302,284,347,257,392,470,269,295,436,266,473,0,,,
2,1790872617120,402,-631,22096,-6429967,2048842,785572,0,0,0,151,87,118,170,69,220,225,93,154,93,39,166,0,,,
1,1790872617136,-851,-124,10112,221133,20769,54977,0,0,0,421,317,275,357,272,401,467,253,295,427,259,482,0,,,
2,1790872617136,703,-3383,25455,-6101322,2161241,1072679,0,0,0,154,88,116,173,70,222,227,92,162,99,47,172,0,,,
1,1790872617152,-832,-143,10189,280998,26878,75747,0,0,0,430,368,281,359,288,398,464,244,298,414,246,480,0,,,
2,1790872617152,-244,-6331,28489,-6062226,2057394,1335351,0,0,0,148,86,113,178,67,223,236,103,170,109,47,177,0,,,
1,1790872617168,-837,-177,10265,366519,29321,105068,0,0,0,446,334,338,368,293,411,465,208,304,387,224,487,0,,,
2,1790872617168,-2153,-11103,29844,-6439741,1528384,1756848,0,0,0,145,87,111,178,62,221,223,91,164,126,51,175,0,,,
1,1790872617184,-856,-234,10265,459370,37873,136833,0,0,0,462,346,343,366,287,416,474,173,297,371,197,498,0,,,
2,1790872617184,-1512,-17339,28949,-6385985,764803,2232101,0,0,0,142,86,110,178,63,222,228,92,161,119,51,174,0,,,
1,1790872617200,-871,-315,10236,549778,52534,178372,0,0,0,471,352,328,386,316,428,479,158,303,363,181,504,0,,,
2,1790872617200,3551,-25187,24546,-5616295,149051,2487443,0,0,0,134,80,108,178,67,220,241,103,164,103,53,173,0,,,
1,1790872617216,-904,-378,10303,630412,63529,223576,0,0,0,481,354,323,402,322,441,472,124,287,342,167,511,0,,,
2,1790872617216,8116,-35271,17860,-4340808,598647,1706757,0,0,0,137,83,108,179,68,220,242,106,166,101,51,176,0,,,
1,1790872617232,-952,-406,10801,773355,75747,267558,0,0,0,493,362,280,425,341,445,464,115,281,340,166,509,0,,,
2,1790872617232,3062,-45077,13697,-2733011,1670105,57421,0,0,0,146,90,108,179,67,221,240,103,167,108,49,180,0,,,
1,1790872617248,-942,-521,11696,1021366,103847,309097,0,0,0,487,374,244,448,366,454,411,104,257,365,183,496,0,,,
2,1790872617248,-10619,-46302,14711,-957836,1478293,-967610,0,0,0,142,86,102,182,67,218,245,102,161,136,57,169,0,,,
1,1790872617264,-957,-679,13318,1448972,101403,334754,0,0,0,478,377,208,450,390,455,380,100,244,363,189,496,0,,,
2,1790872617264,-16405,-39980,16137,901637,-261450,-973719,0,0,0,131,84,89,190,75,215,266,139,150,182,94,141,0,,,
1,1790872617280,-1225,-756,15104,2036624,72082,364075,0,0,0,481,388,181,434,388,446,368,119,254,330,173,513,0,,,
2,1790872617280,-5058,-25182,18779,2404365,-2290744,-310319,0,0,0,120,82,67,178,85,211,302,251,153,192,214,132,0,,,
1,1790872617296,-1631,-804,16161,2740341,107512,434936,0,0,0,483,398,185,422,366,446,323,123,246,326,172,511,0,,,
2,1790872617296,9753,7982,18712,3924198,-2555860,-392175,0,0,0,133,82,76,175,72,227,323,278,167,231,264,195,0,,,
1,1790872617312,-1943,-818,16826,3424510,250454,558330,0,0,0,480,379,184,418,362,447,303,96,227,336,181,488,0,,,
2,1790872617312,13917,30021,12266,5191132,-2747671,-552222,0,0,0,153,86,83,198,82,245,366,330,170,285,319,209,0,,,
1,1790872617328,-2129,-665,18674,4208861,367740,703716,0,0,0,468,379,179,404,347,433,280,90,224,304,150,476,0,,,
2,1790872617328,4556,7485,13759,5621181,-2265088,432492,0,0,0,160,95,90,188,64,250,382,351,187,334,381,257,0,,,
1,1790872617344,-4350,-827,20942,5174028,608421,943175,0,0,0,443,385,156,387,363,422,234,80,196,270,144,461,0,,,
2,1790872617344,-3541,-8906,21296,5218010,-1208291,1310916,0,0,0,193,94,106,205,65,253,446,373,207,323,424,287,0,,,
1,1790872617360,-6843,-1177,22828,6221051,1116661,1384220,0,0,0,428,384,139,370,350,384,274,98,199,263,141,445,0,,,
2,1790872617360,-4603,-6030,23211,3385415,-461814,855211,0,0,0,221,97,146,212,63,262,454,386,194,336,395,315,0,,,
1,1790872617376,-7518,-1536,25714,7260744,1940107,1948660,0,0,0,409,342,149,346,326,367,267,106,192,241,135,428,0,,,
2,1790872617376,-358,181,15348,1254717,-256563,-21991,0,0,0,245,103,188,213,69,272,457,381,205,348,370,351,0,,,
1,1790872617392,-6657,-1737,29983,7969347,2621833,2337170,0,0,0,361,296,150,320,294,335,271,88,174,225,119,407,0,,,
2,1790872617392,1684,1512,9767,287106,-103847,-211359,0,0,0,271,111,209,223,81,284,480,356,200,379,352,371,0,,,
1,1790872617408,-6369,-837,33376,8329758,3382971,2577851,0,0,0,267,249,195,286,238,333,304,101,202,212,120,332,0,,,
2,1790872617408,1292,124,9150,332310,-15882,34208,0,0,0,306,117,212,246,89,301,500,338,210,385,345,393,0,,,
1,1790872617424,-9174,3570,29049,7951021,4746422,2525316,0,0,0,244,231,206,264,211,320,311,104,194,220,134,308,0,,,
2,1790872617424,823,33,10423,453262,-67195,101403,0,0,0,317,130,259,250,101,312,517,337,228,367,326,403,0,,,
1,1790872617440,-13280,10155,17889,6574131,4659680,2144136,0,0,0,244,222,171,263,205,292,293,99,162,227,132,285,0,,,
2,1790872617440,899,526,10524,373849,-128281,35430,0,0,0,320,139,290,250,112,318,519,320,230,349,299,415,0,,,
1,1790872617456,-12438,13438,11007,3417180,2084272,1346346,0,0,0,248,212,158,279,206,286,325,111,172,225,131,275,0,,,
2,1790872617456,971,540,10174,291993,-127059,6108,0,0,0,330,142,309,253,113,320,515,282,228,332,270,432,0,,,
1,1790872617472,-7202,11734,9729,142942,-92851,151494,0,0,0,254,209,159,289,206,289,353,120,186,226,133,276,0,,,
2,1790872617472,899,459,10169,280998,-94073,0,0,0,0,338,147,329,254,114,322,506,249,236,301,237,449,0,,,
1,1790872617488,-4221,7791,8595,-1128878,-379958,-1087340,0,0,0,247,208,155,276,202,287,338,115,176,224,132,278,0,,,
2,1790872617488,756,459,10299,313984,-37873,-8552,0,0,0,345,154,320,265,125,326,491,228,237,271,204,466,0,,,
1,1790872617504,-5044,7159,4560,-1089783,-257785,-1916895,0,0,0,238,204,165,268,200,295,317,105,171,222,131,282,0,,,
2,1790872617504,756,502,10284,337197,10995,-24434,0,0,0,356,161,299,289,139,334,483,203,227,255,179,480,0,,,
1,1790872617520,-5135,8403,2335,-1605353,-599869,-2069611,0,0,0,236,204,175,276,203,301,313,104,171,224,132,283,0,,,
2,1790872617520,880,440,10165,342084,23212,-39095,0,0,0,363,172,285,281,159,348,479,185,232,224,152,487,0,,,
1,1790872617536,-3613,8322,3383,-2922379,-982271,-1717753,0,0,0,233,209,167,279,207,296,319,110,173,226,134,280,0,,,
2,1790872617536,938,368,10107,334754,9773,-50090,0,0,0,375,181,294,290,172,351,445,174,243,192,128,493,0,,,
1,1790872617552,-2536,6637,5034,-4062253,-970053,-1187522,0,0,0,228,211,159,275,208,294,311,117,178,225,135,281,0,,,
2,1790872617552,957,315,10117,331088,6108,-61086,0,0,0,404,186,264,293,188,341,438,196,233,184,103,502,0,,,
1,1790872617568,-2129,5824,5819,-4635245,-1004262,-767246,0,0,0,224,213,155,284,214,294,277,120,171,224,134,279,0,,,
2,1790872617568,985,248,10141,338419,30543,-80634,0,0,0,403,199,237,283,198,338,438,114,232,233,98,502,0,,,
1,1790872617584,-1459,5384,6829,-5075068,-1150870,-491135,0,0,0,227,218,160,289,215,300,310,108,166,220,134,279,0,,,
2,1790872617584,1067,143,10155,371406,87964,-111177,0,0,0,411,199,240,275,193,352,412,115,248,169,84,518,0,,,
1,1790872617600,-952,4785,8188,-5478239,-1290147,-329867,0,0,0,220,216,162,294,218,303,307,109,165,219,134,280,0,,,
2,1790872617600,1191,28,10208,438601,139277,-155159,0,0,0,426,205,223,282,199,355,411,101,255,172,69,533,0,,,
1,1790872617616,-957,4211,9772,-5783672,-1464854,-285884,0,0,0,207,219,152,272,214,293,323,114,175,223,142,285,0,,,
2,1790872617616,1253,-38,10260,530231,111177,-208915,0,0,0,427,187,206,298,212,357,397,104,251,177,72,535,0,,,
1,1790872617632,-1028,3766,11447,-6064670,-1748296,-294437,0,0,0,215,223,156,285,221,298,292,102,155,227,146,287,0,,,
2,1790872617632,1153,-105,10169,586430,20769,-245567,0,0,0,440,178,225,301,185,359,393,106,258,178,69,548,0,,,
1,1790872617648,-981,3158,13089,-6328563,-2040289,-318871,0,0,0,214,226,164,290,223,302,291,103,157,225,142,288,0,,,
2,1790872617648,1048,-191,10054,618195,-45204,-273667,0,0,0,452,179,213,319,190,357,386,102,250,179,59,552,0,,,
1,1790872617664,-1349,2507,14917,-6528927,-2324953,-280998,0,0,0,211,229,158,284,221,301,329,118,179,220,136,286,0,,,
2,1790872617664,1072,-287,10021,618195,-43982,-288328,0,0,0,453,178,192,334,190,369,382,97,241,181,61,557,0,,,
1,1790872617680,-1555,2115,17334,-6651100,-2569299,-152716,0,0,0,213,231,159,287,222,303,312,110,172,220,138,289,0,,,
2,1790872617680,1067,-402,10021,615752,-31764,-306654,0,0,0,454,184,181,326,195,373,380,98,248,180,67,568,0,,,
1,1790872617696,-1598,1957,20339,-6729291,-2675589,-13439,0,0,0,214,232,164,289,224,306,292,100,161,223,138,292,0,,,
2,1790872617696,1043,-507,10126,623082,-35430,-316428,0,0,0,462,189,170,311,204,372,379,93,255,182,70,579,0,,,
1,1790872617712,-1622,823,24474,-6857573,-2791654,21991,0,0,0,214,233,168,288,224,307,297,100,164,222,136,292,0,,,
2,1790872617712,1196,-603,10323,668286,-42760,-333532,0,0,0,466,187,146,311,208,374,379,98,258,182,66,588,0,,,
1,1790872617728,-1024,-2249,28954,-6973637,-3039665,-172263,0,0,0,213,235,166,285,222,304,306,103,169,221,134,290,0,,,
2,1790872617728,1263,-689,10428,740368,-42760,-371406,0,0,0,472,195,130,321,212,380,377,112,264,182,60,603,0,,,
1,1790872617744,1091,-8336,32519,-6980967,-3417180,-675616,0,0,0,210,236,159,282,221,300,312,106,171,223,132,288,0,,,
2,1790872617744,976,-789,10375,847880,-29321,-412944,0,0,0,482,201,128,327,214,387,372,114,265,190,60,616,0,,,
1,1790872617760,4402,-16113,34280,-6763499,-3455053,-1281595,0,0,0,210,236,158,288,222,302,328,113,180,222,131,288,0,,,
2,1790872617760,746,-885,10466,934623,-14660,-393397,0,0,0,482,202,123,330,223,389,362,118,260,186,61,620,0,,,
1,1790872617776,4412,-24718,31418,-5821545,-2627942,-1959655,0,0,0,200,238,155,275,221,302,346,119,191,221,130,290,0,,,
2,1790872617776,957,-1000,10892,1050688,-26878,-367740,0,0,0,494,224,124,316,234,397,343,114,251,171,71,631,0,,,
1,1790872617792,-86,-34223,24422,-4166100,-1970651,-2216219,0,0,0,200,241,153,280,229,306,358,122,195,218,127,290,0,,,
2,1790872617792,1043,-1095,11500,1251052,-57421,-368962,0,0,0,499,219,139,312,233,409,330,116,248,180,67,641,0,,,
1,1790872617808,847,-42349,17678,-2522873,-2527760,-1318247,0,0,0,198,252,154,281,234,309,382,135,212,219,132,295,0,,,
2,1790872617808,717,-1182,12088,1522276,-58643,-348193,0,0,0,506,213,137,322,228,392,330,116,248,249,61,619,0,,,
1,1790872617824,16195,-45283,15056,-885754,-2510656,-260228,0,0,0,198,253,151,282,240,307,374,131,204,222,140,296,0,,,
2,1790872617824,579,-1330,12739,1863138,0,-284663,0,0,0,516,204,140,309,204,381,307,105,245,197,72,655,0,,,
1,1790872617840,23656,-41344,14706,836885,-581543,-459370,0,0,0,183,255,153,295,237,309,372,147,192,270,188,266,0,,,
2,1790872617840,1392,-1608,13347,2249205,92851,-284663,0,0,0,511,207,141,304,199,385,297,107,244,195,66,663,0,,,
1,1790872617856,11356,-28303,17353,2663372,1955990,-1194852,0,0,0,174,219,109,286,227,295,312,202,150,310,289,239,0,,,
2,1790872617856,1938,-1809,13902,2692693,161268,-379958,0,0,0,494,270,137,293,197,366,299,124,248,193,80,646,0,,,
1,1790872617872,-8092,9164,18932,4283387,2961474,-536339,0,0,0,177,206,102,288,213,311,359,284,174,337,338,260,0,,,
2,1790872617872,1493,-1785,14912,3194825,160046,-494800,0,0,0,492,241,130,292,190,362,272,116,260,193,67,623,0,,,
1,1790872617888,-12074,31055,13883,5050633,3930306,428827,0,0,0,184,215,106,293,218,325,378,334,182,358,401,275,0,,,
2,1790872617888,2230,-1909,16300,3806912,63529,-551000,0,0,0,475,232,126,287,202,364,243,150,253,176,86,595,0,,,
1,1790872617904,-3263,8289,13304,5287649,3318219,-114842,0,0,0,190,219,113,287,224,330,415,389,201,364,438,283,0,,,
2,1790872617904,3551,-2144,17664,4542393,-29321,-729373,0,0,0,441,227,115,282,205,354,213,127,234,154,76,545,0,,,
1,1790872617920,4790,-8557,19851,5274210,718377,-1514945,0,0,0,191,204,121,287,212,335,449,430,219,385,452,291,0,,,
2,1790872617920,4201,-2392,20803,5426926,-109955,-1017701,0,0,0,396,216,109,263,196,334,189,98,219,145,72,491,0,,,
1,1790872617936,5838,-3785,20435,4565606,-316428,-910189,0,0,0,201,199,146,295,202,348,456,441,225,408,459,312,0,,,
2,1790872617936,4503,-2589,25312,6379876,-320093,-1285260,0,0,0,351,193,111,228,169,300,174,95,196,136,74,432,0,,,
1,1790872617952,-124,880,15797,3099530,86742,425162,0,0,0,229,213,194,301,198,362,455,437,234,419,458,341,0,,,
2,1790872617952,5216,-2526,28600,7072597,-690277,-1453859,0,0,0,299,158,105,196,134,253,174,94,164,116,60,346,0,,,
1,1790872617968,-3273,-157,12304,1459967,355523,493579,0,0,0,259,221,241,306,196,371,454,418,248,442,450,364,0,,,
2,1790872617968,6408,-1512,29944,7646811,-871093,-1706757,0,0,0,222,120,89,174,100,209,185,100,141,98,52,227,0,,,
1,1790872617984,-1450,-1186,10830,532674,262672,-92851,0,0,0,269,225,269,313,212,383,453,398,261,456,434,389,0,,,
2,1790872617984,8021,1119,29231,8049982,-781907,-1996307,0,0,0,151,88,80,160,68,180,189,105,131,87,51,121,0,,,
1,1790872618000,-296,-492,10437,338419,135612,-213802,0,0,0,286,233,280,322,219,385,466,403,288,450,421,411,0,,,
2,1790872618000,10433,6872,20693,7563733,-285884,-2368935,0,0,0,153,94,84,161,69,184,185,96,130,89,51,126,0,,,
1,1790872618016,-636,172,10385,401949,80634,-59864,0,0,0,288,271,290,325,231,396,478,400,289,446,404,425,0,,,
2,1790872618016,10681,12132,10490,5484348,417831,-2691472,0,0,0,158,95,85,161,73,180,164,70,119,82,32,131,0,,,
1,1790872618032,-942,162,10279,387288,57421,7330,0,0,0,297,241,321,330,222,409,471,371,299,422,372,442,0,,,
2,1790872618032,6987,13984,8667,1858252,684169,-2368935,0,0,0,159,83,84,161,70,178,194,96,128,98,49,132,0,,,
1,1790872618048,-851,0,10203,338419,14660,-7330,0,0,0,302,247,335,329,230,416,482,358,317,420,349,457,0,,,
2,1790872618048,3780,11758,10179,-1378111,-64751,-1412320,0,0,0,160,85,85,160,67,178,193,98,128,82,47,128,0,,,
1,1790872618064,-760,57,10265,355523,-54977,-3665,0,0,0,318,272,340,341,251,418,473,337,317,404,327,464,0,,,
2,1790872618064,3957,8121,8336,-2752558,-901637,-700051,0,0,0,161,85,91,157,69,184,197,103,135,91,38,134,0,,,
1,1790872618080,-756,86,10299,392175,-124616,17104,0,0,0,325,285,345,344,251,426,475,279,318,410,286,478,0,,,
2,1790872618080,5431,6317,4087,-2580294,-932180,-502131,0,0,0,163,90,96,157,65,181,194,99,132,90,46,140,0,,,
1,1790872618096,-770,19,10275,428827,-185703,23212,0,0,0,336,283,342,349,251,431,458,238,297,397,256,480,0,,,
2,1790872618096,4154,7260,3091,-2917492,-323758,-364075,0,0,0,163,86,97,159,69,187,192,101,137,89,45,139,0,,,
1,1790872618112,-866,-76,10203,456927,-227241,20769,0,0,0,361,279,338,387,252,424,448,202,287,393,235,477,0,,,
2,1790872618112,2416,7772,4364,-3908315,-65973,-17104,0,0,0,160,86,96,163,68,193,190,98,132,91,48,144,0,,,
1,1790872618128,-1019,-167,10117,469144,-223576,31764,0,0,0,370,286,344,385,252,435,462,186,311,371,208,484,0,,,
2,1790872618128,2699,6633,5680,-4831944,-156381,353080,0,0,0,158,90,98,164,70,201,197,100,137,92,49,158,0,,,
1,1790872618144,-1019,-248,10088,460592,-177150,52534,0,0,0,385,289,333,381,260,440,460,167,313,358,183,483,0,,,
2,1790872618144,3871,5211,6173,-5297423,31764,560774,0,0,0,156,89,103,160,71,202,201,103,144,89,48,163,0,,,
1,1790872618160,-942,-330,10069,449596,-140499,65973,0,0,0,414,291,311,391,269,446,457,148,311,358,167,483,0,,,
2,1790872618160,4192,4584,6853,-5451361,613308,640186,0,0,0,155,85,101,157,67,199,216,116,165,99,55,169,0,,,
1,1790872618176,-894,-406,10045,434936,-125838,69638,0,0,0,430,292,287,397,277,449,466,141,313,344,153,489,0,,,
2,1790872618176,3814,4460,8245,-5684711,1051909,774577,0,0,0,155,87,103,158,65,201,215,116,164,101,56,173,0,,,
1,1790872618192,-894,-478,10074,408057,-116064,67195,0,0,0,421,295,274,397,280,449,469,129,305,329,143,492,0,,,
2,1790872618192,3819,4173,10189,-6015800,1258382,996932,0,0,0,156,89,107,161,69,206,201,104,146,95,48,170,0,,,
1,1790872618208,-933,-555,10136,399505,-116064,62308,0,0,0,413,309,275,405,288,462,441,98,275,335,145,490,0,,,
2,1790872618208,4651,3445,12084,-6206390,1514945,1182635,0,0,0,154,88,105,164,73,210,203,103,150,94,47,172,0,,,
1,1790872618224,-981,-617,10160,422718,-109955,59864,0,0,0,432,324,263,426,319,465,392,69,223,342,153,478,0,,,
2,1790872618224,4962,2651,14242,-6301685,1941329,1319468,0,0,0,150,88,103,167,75,217,208,102,156,93,49,177,0,,,
1,1790872618240,-1038,-665,10198,450818,-89186,67195,0,0,0,443,324,264,438,309,479,400,80,232,339,146,479,0,,,
2,1790872618240,4422,1497,16917,-6367659,2345722,1488067,0,0,0,146,90,105,167,75,218,208,98,156,97,45,183,0,,,
1,1790872618256,-1067,-722,10260,483805,-56199,85521,0,0,0,447,311,235,424,317,473,406,74,242,329,141,484,0,,,
2,1790872618256,4345,-708,19564,-6227160,2475225,1698205,0,0,0,141,88,104,170,73,222,213,99,171,97,51,189,0,,,
1,1790872618272,-971,-780,10303,515570,-37873,97738,0,0,0,449,311,230,426,312,481,411,80,267,330,143,485,0,,,
2,1790872618272,4934,-3613,22818,-5782450,2580294,1891238,0,0,0,141,91,105,170,73,223,217,102,173,100,54,182,0,,,
1,1790872618288,-914,-861,10361,563217,-48869,100181,0,0,0,450,309,211,412,302,486,440,102,306,317,143,499,0,,,
2,1790872618288,5082,-5513,25685,-5503895,2746450,1988977,0,0,0,148,90,105,172,75,225,215,98,166,93,54,185,0,,,
1,1790872618304,-1014,-957,10409,630412,-84299,111177,0,0,0,450,308,233,430,307,484,407,86,279,324,137,484,0,,,
2,1790872618304,3091,-8853,28360,-5838649,2807536,2153910,0,0,0,142,84,105,171,67,219,225,108,179,96,42,185,0,,,
1,1790872618320,-1086,-1067,10399,708603,-129503,140499,0,0,0,457,303,177,432,317,463,424,89,281,322,133,490,0,,,
2,1790872618320,641,-14242,29753,-6135530,2420248,2348165,0,0,0,144,84,103,172,67,223,224,105,172,97,51,187,0,,,
1,1790872618336,-1057,-1177,10279,788016,-177150,178372,0,0,0,456,298,178,450,310,460,451,104,313,334,137,501,0,,,
2,1790872618336,607,-20473,28432,-5788559,1602910,2482556,0,0,0,140,88,107,173,74,231,222,101,172,102,44,190,0,,,
1,1790872618352,-1086,-1292,10198,851546,-206472,205250,0,0,0,459,307,163,452,333,459,453,115,320,326,150,510,0,,,
2,1790872618352,3129,-28044,24273,-4965112,1058018,2445904,0,0,0,139,88,110,171,67,227,229,103,176,98,44,194,0,,,
1,1790872618368,-1301,-1392,10418,912632,-193033,237015,0,0,0,468,317,157,458,361,474,440,103,307,329,157,519,0,,,
2,1790872618368,5580,-38812,17554,-3800803,1337794,1760513,0,0,0,141,89,108,173,70,229,223,97,171,96,49,194,0,,,
1,1790872618384,-1497,-1488,10926,1034805,-135612,294437,0,0,0,473,329,153,452,365,477,436,99,299,328,156,522,0,,,
2,1790872618384,899,-47685,13400,-2497217,2111150,422718,0,0,0,141,86,106,173,72,226,216,96,169,96,50,192,0,,,
1,1790872618400,-1411,-1588,11610,1241278,-83077,353080,0,0,0,476,321,162,444,342,474,421,94,309,324,152,528,0,,,
2,1790872618400,-13036,-48193,13941,-474031,1932777,-759916,0,0,0,141,88,100,172,73,217,217,97,164,98,52,172,0,,,
1,1790872618416,-1282,-1675,12624,1530828,-86742,382401,0,0,0,482,307,171,451,323,480,403,92,311,326,149,534,0,,,
2,1790872618416,-18932,-38755,16022,1478293,-64751,-605978,0,0,0,133,92,94,176,77,212,231,115,158,110,73,144,0,,,
1,1790872618432,-1579,-1761,13854,2003637,-157603,427605,0,0,0,490,303,169,463,315,490,398,96,300,329,143,536,0,,,
2,1790872618432,-8293,-25838,17128,2597398,-1982868,278554,0,0,0,122,85,80,174,77,207,273,183,153,159,143,128,0,,,
1,1790872618448,-1914,-1842,14697,2619390,-294437,531452,0,0,0,484,298,177,459,307,497,383,85,304,330,135,533,0,,,
2,1790872618448,5355,-291,21191,3645643,-2491108,741590,0,0,0,124,80,66,172,77,215,325,277,158,223,245,150,0,,,
1,1790872618464,-1909,-1885,15276,3359758,-542448,681725,0,0,0,471,300,191,453,323,511,335,70,297,338,145,514,0,,,
2,1790872618464,6982,29557,16171,4610810,-2251649,643851,0,0,0,138,83,73,180,78,236,362,340,178,268,322,195,0,,,
1,1790872618480,-1713,-1847,16798,4163657,-817337,817337,0,0,0,474,301,171,453,345,511,283,56,259,312,136,514,0,,,
2,1790872618480,2761,25226,13749,5640729,-2408030,762359,0,0,0,161,84,102,190,64,236,413,377,181,323,372,213,0,,,
1,1790872618496,-1976,-1895,19856,5111720,-987158,906524,0,0,0,452,311,160,482,356,463,339,96,304,302,126,482,0,,,
2,1790872618496,-3364,-6259,22469,5352401,-1670105,1056796,0,0,0,215,95,153,215,66,243,446,384,175,350,375,243,0,,,
1,1790872618512,-3201,-2498,23512,6214942,-853989,955393,0,0,0,423,307,171,428,324,470,337,104,283,268,117,457,0,,,
2,1790872618512,-2627,-9294,21794,3144734,-522900,527787,0,0,0,243,100,187,205,61,246,452,348,178,384,354,272,0,,,
1,1790872618528,-4201,-3383,27255,7237531,-613308,994488,0,0,0,411,283,163,383,303,423,321,103,247,239,110,436,0,,,
2,1790872618528,741,-134,13395,1618792,-252898,-80634,0,0,0,277,113,270,206,70,269,477,303,196,368,284,354,0,,,
1,1790872618544,-4551,-3488,31045,8098851,-386066,1097113,0,0,0,344,262,165,329,280,366,341,107,229,214,104,406,0,,,
2,1790872618544,1765,2321,9408,1436755,-332310,-90408,0,0,0,325,129,246,222,90,274,497,303,204,365,273,398,0,,,
1,1790872618560,-7197,-3273,33065,8725599,-81855,1293812,0,0,0,258,224,173,292,218,320,335,103,200,213,108,323,0,,,
2,1790872618560,1799,-320,9925,1259604,-222354,78190,0,0,0,355,146,261,239,112,284,507,262,210,363,256,425,0,,,
1,1790872618576,-12079,497,30820,8814785,-13439,1789835,0,0,0,223,205,179,278,198,306,328,98,184,222,120,283,0,,,
2,1790872618576,1675,-1952,11083,850324,-130725,151494,0,0,0,374,168,303,245,146,291,492,241,220,366,260,459,0,,,
1,1790872618592,-13586,10351,20583,7464773,-552222,2615724,0,0,0,224,185,166,280,185,296,347,104,198,213,111,273,0,,,
2,1790872618592,1512,-832,10634,607200,-177150,65973,0,0,0,385,171,299,251,157,298,487,216,234,346,238,486,0,,,
1,1790872618608,-10284,17496,10313,4331034,-805120,3127630,0,0,0,227,174,157,286,176,292,360,110,199,211,108,267,0,,,
2,1790872618608,1210,-14,10074,580321,-174707,-24434,0,0,0,403,178,338,265,164,321,485,199,242,316,206,500,0,,,
1,1790872618624,-5302,15836,8609,70860,-173485,2668259,0,0,0,228,169,159,288,173,295,361,110,193,215,112,270,0,,,
2,1790872618624,1072,-201,10160,612086,-83077,-39095,0,0,0,414,179,350,272,174,332,467,181,245,278,170,512,0,,,
1,1790872618640,-3426,10346,8418,-2525316,579100,2102598,0,0,0,225,164,159,289,170,298,364,110,197,218,113,272,0,,,
2,1790872618640,1129,-411,10318,660956,14660,-48869,0,0,0,422,186,334,282,178,335,450,159,242,255,134,523,0,,,
1,1790872618656,-3799,7044,5881,-2750115,703716,1930334,0,0,0,220,162,156,290,170,298,344,104,186,219,112,268,0,,,
2,1790872618656,1273,-507,10256,713490,50090,-80634,0,0,0,438,196,298,302,179,326,424,137,238,249,113,525,0,,,
1,1790872618672,-1995,8088,3306,-2907718,364075,1674992,0,0,0,219,163,155,291,173,297,270,76,143,219,112,266,0,,,
2,1790872618672,1282,-622,10050,750142,40317,-116064,0,0,0,451,202,254,316,187,316,401,124,241,237,105,527,0,,,
1,1790872618688,9,9030,3517,-3885102,423940,946841,0,0,0,221,165,148,291,172,293,245,69,124,227,114,263,0,,,
2,1790872618688,1296,-741,10040,780685,26878,-142942,0,0,0,452,204,234,317,201,326,395,123,244,215,96,537,0,,,
1,1790872618704,-492,8303,4982,-4994434,764803,42760,0,0,0,213,164,144,273,167,289,318,93,164,223,119,269,0,,,
2,1790872618704,1277,-813,10203,775798,-20769,-160046,0,0,0,451,203,226,311,212,337,376,118,240,197,87,545,0,,,
1,1790872618720,-2881,6585,5695,-5602855,571769,-559552,0,0,0,225,173,149,293,176,294,359,115,187,223,119,268,0,,,
2,1790872618720,1206,-885,10241,762359,-85521,-161268,0,0,0,451,216,207,287,222,342,354,109,237,183,79,552,0,,,
1,1790872618736,-3771,5355,6312,-5814215,-122173,-752585,0,0,0,213,171,145,274,174,291,360,114,188,218,113,272,0,,,
2,1790872618736,1186,-1000,10189,756251,-130725,-156381,0,0,0,462,214,186,283,258,336,337,101,240,181,75,558,0,,,
1,1790872618752,-2876,4838,7690,-5931501,-719599,-706160,0,0,0,208,170,144,270,172,290,374,118,196,217,113,273,0,,,
2,1790872618752,1182,-1139,10050,741590,-171042,-149051,0,0,0,477,210,168,294,229,345,319,98,235,173,61,562,0,,,
1,1790872618768,-2330,4532,9485,-6113539,-1016479,-599869,0,0,0,208,172,145,272,175,293,358,125,202,221,118,276,0,,,
2,1790872618768,1210,-1273,9925,702495,-213802,-147829,0,0,0,472,211,141,286,218,346,315,106,235,172,75,557,0,,,
1,1790872618784,-2455,4216,11562,-6343224,-1225395,-401949,0,0,0,207,173,146,271,172,294,375,126,207,223,115,275,0,,,
2,1790872618784,1296,-1392,9935,651182,-244346,-164933,0,0,0,476,225,136,288,226,352,297,97,227,176,67,565,0,,,
1,1790872618800,-2517,3809,13472,-6552140,-1534493,-205250,0,0,0,205,174,148,269,173,294,378,123,206,223,119,279,0,,,
2,1790872618800,1392,-1502,9978,634078,-248011,-205250,0,0,0,474,219,129,283,223,352,297,105,232,165,64,563,0,,,
1,1790872618816,-2392,3263,15453,-6723182,-1938886,-40317,0,0,0,204,174,151,270,175,296,378,122,207,223,122,282,0,,,
2,1790872618816,1378,-1617,9853,623082,-234572,-252898,0,0,0,471,222,124,281,223,353,302,107,230,170,74,570,0,,,
1,1790872618832,-2033,2857,17851,-6737843,-2271196,51312,0,0,0,204,175,152,272,176,299,360,113,198,220,119,282,0,,,
2,1790872618832,1148,-1727,9600,587652,-194255,-296880,0,0,0,472,250,121,287,240,356,311,107,227,166,73,566,0,,,
1,1790872618848,-1631,2574,21205,-6699969,-2476447,97738,0,0,0,202,175,153,272,175,300,355,112,197,216,115,282,0,,,
2,1790872618848,947,-1804,9638,553443,-122173,-310319,0,0,0,478,268,121,280,237,354,304,119,234,164,78,575,0,,,
1,1790872618864,-1234,1392,25738,-6805038,-2594955,-37873,0,0,0,201,176,153,271,175,299,382,125,213,215,116,282,0,,,
2,1790872618864,1048,-1876,10083,581543,-58643,-322536,0,0,0,485,251,129,289,232,360,294,116,237,176,79,588,0,,,
1,1790872618880,-655,-2191,30471,-7005402,-2786767,-405614,0,0,0,204,186,155,272,177,299,376,117,207,213,114,283,0,,,
2,1790872618880,1201,-1957,10385,684169,-20769,-362853,0,0,0,501,237,135,303,238,370,291,111,241,187,80,600,0,,,
1,1790872618896,626,-9078,33960,-7071376,-2968805,-867428,0,0,0,204,205,158,273,177,300,366,110,204,211,109,284,0,,,
2,1790872618896,1057,-2057,10351,819781,20769,-412944,0,0,0,501,245,132,305,249,373,288,111,240,186,83,607,0,,,
1,1790872618912,2833,-18808,34788,-6654765,-2658485,-1257160,0,0,0,196,197,158,270,186,305,382,121,219,212,113,285,0,,,
2,1790872618912,875,-2134,10509,960280,79412,-430049,0,0,0,497,249,133,304,252,372,286,114,238,181,81,614,0,,,
1,1790872618928,2450,-27738,31911,-5655390,-1896125,-1616349,0,0,0,195,204,156,276,195,304,393,125,217,210,116,284,0,,,
2,1790872618928,875,-2182,11189,1147204,130725,-432492,0,0,0,509,255,137,302,255,373,287,121,245,180,85,625,0,,,
1,1790872618944,-990,-35840,25159,-4153883,-1566258,-1611462,0,0,0,199,207,158,279,201,312,394,125,223,218,116,293,0,,,
2,1790872618944,746,-2191,12036,1412320,162490,-420275,0,0,0,507,268,131,293,250,370,280,119,250,189,100,630,0,,,
1,1790872618960,3527,-44991,17664,-2585181,-2323731,-663399,0,0,0,199,212,162,279,205,313,391,125,219,216,116,298,0,,,
2,1790872618960,330,-2172,12849,1793500,164933,-353080,0,0,0,510,242,132,301,213,375,268,112,252,191,72,631,0,,,
1,1790872618976,16487,-50385,14285,-1060462,-2316400,51312,0,0,0,192,215,153,285,207,316,388,124,214,220,123,287,0,,,
2,1790872618976,583,-2306,13529,2202780,129503,-270002,0,0,0,507,265,141,300,229,370,254,108,254,160,55,620,0,,,
1,1790872618992,20224,-44996,15927,938289,-266337,-383623,0,0,0,158,207,116,280,224,295,324,179,152,293,257,212,0,,,
2,1790872618992,1828,-2723,13845,2693915,58643,-273667,0,0,0,505,310,144,276,259,374,222,103,245,156,77,625,0,,,
1,1790872619008,7374,-21497,21244,3132516,1703092,-696386,0,0,0,163,204,98,287,212,298,369,278,168,345,325,214,0,,,
2,1790872619008,1976,-2900,14400,3203377,-14660,-411723,0,0,0,506,257,136,279,236,370,196,98,244,156,70,609,0,,,
1,1790872619024,-9404,22890,19052,5123937,2630385,-195476,0,0,0,178,202,98,290,203,316,415,342,195,400,370,244,0,,,
2,1790872619024,1746,-2962,16032,3811799,-178372,-503352,0,0,0,469,274,132,286,265,382,181,98,238,147,73,577,0,,,
1,1790872619040,-7298,21177,15151,6070778,2896722,0,0,0,0,187,203,109,296,205,332,431,376,199,423,403,266,0,,,
2,1790872619040,3551,-3694,18190,4590041,-478918,-597426,0,0,0,442,301,129,267,283,355,153,95,225,140,69,545,0,,,
1,1790872619056,1282,-4225,19832,6213721,2333505,-803898,0,0,0,190,202,123,298,200,341,446,421,215,416,410,282,0,,,
2,1790872619056,5867,-5537,21598,5517334,-697608,-943175,0,0,0,443,298,126,263,294,335,148,95,206,144,83,514,0,,,
1,1790872619072,4235,-6972,20669,4989547,1627344,-792903,0,0,0,194,193,133,301,194,352,457,450,235,414,413,306,0,,,
2,1790872619072,6795,-7690,26963,6471506,-825889,-1396437,0,0,0,392,246,111,245,239,303,147,88,174,129,77,463,0,,,
1,1790872619088,1856,-837,15730,3248581,1284038,58643,0,0,0,211,188,147,317,205,371,449,426,228,423,422,343,0,,,
2,1790872619088,7547,-8561,30509,7221648,-756251,-1861917,0,0,0,322,183,111,211,164,263,165,88,160,119,62,375,0,,,
1,1790872619104,-1512,1655,11524,1976759,1199739,472809,0,0,0,235,212,176,327,226,386,454,420,241,439,414,390,0,,,
2,1790872619104,7657,-6226,32079,7881383,-709825,-2449569,0,0,0,217,130,92,167,110,206,182,104,143,85,53,215,0,,,
1,1790872619120,-899,-971,11198,1076344,864985,76969,0,0,0,266,229,196,338,239,387,458,398,254,454,421,426,0,,,
2,1790872619120,8131,1220,30835,8202698,-1048244,-3064100,0,0,0,164,99,85,153,87,182,185,108,136,72,47,137,0,,,
1,1790872619136,224,-1517,11184,634078,520457,-177150,0,0,0,294,258,228,355,250,395,463,363,267,455,387,442,0,,,
2,1790872619136,10126,9284,19420,7020063,-1111774,-3291341,0,0,0,157,89,91,153,78,181,184,102,136,76,43,127,0,,,
1,1790872619152,148,-435,10686,570548,375071,-103847,0,0,0,326,260,264,358,259,406,471,362,273,442,354,462,0,,,
2,1790872619152,10404,11509,9361,4379903,-241902,-3264463,0,0,0,159,90,92,151,77,181,184,99,133,78,44,130,0,,,
1,1790872619168,-28,4,10366,536339,293215,-13439,0,0,0,355,288,234,383,290,395,478,369,289,434,329,475,0,,,
2,1790872619168,6034,10543,9772,712268,663399,-2700024,0,0,0,160,89,91,150,76,182,185,99,132,80,52,140,0,,,
1,1790872619184,47,-181,10390,491135,190589,14660,0,0,0,387,301,239,387,275,408,486,323,292,423,297,493,0,,,
2,1790872619184,2440,9040,11016,-1883908,370184,-1841147,0,0,0,161,89,95,151,72,181,188,99,133,82,52,138,0,,,
1,1790872619200,134,-277,10418,471587,35430,20769,0,0,0,400,307,246,386,290,425,479,287,293,419,281,494,0,,,
2,1790872619200,2794,6929,8140,-2927266,-811229,-724486,0,0,0,167,92,99,154,74,186,186,101,135,81,46,138,0,,,
1,1790872619216,100,-248,10394,489913,-75747,39095,0,0,0,415,312,213,402,299,429,483,269,295,405,261,499,0,,,
2,1790872619216,5025,6848,3321,-2646268,-713490,-85521,0,0,0,159,84,90,152,74,186,186,100,135,87,52,144,0,,,
1,1790872619232,43,-268,10380,519235,-160046,51312,0,0,0,417,315,188,412,313,426,461,220,263,396,243,493,0,,,
2,1790872619232,4575,7585,2153,-2906496,12217,339641,0,0,0,162,92,94,152,75,188,189,104,140,92,53,146,0,,,
1,1790872619248,0,-373,10318,537561,-216246,53756,0,0,0,411,313,197,412,325,433,449,180,265,384,212,485,0,,,
2,1790872619248,3302,7676,3326,-3720169,524122,740368,0,0,0,168,98,88,152,78,186,191,102,139,82,52,140,0,,,
1,1790872619264,-43,-473,10241,531452,-241902,63529,0,0,0,414,311,196,424,332,445,448,160,281,386,186,478,0,,,
2,1790872619264,3038,6838,4383,-4471533,825889,1040914,0,0,0,162,90,88,154,77,189,190,102,132,87,51,144,0,,,
1,1790872619280,-105,-531,10208,513126,-256563,78190,0,0,0,423,310,171,438,334,447,436,144,275,388,175,471,0,,,
2,1790872619280,3058,5604,5211,-4871039,1194852,1153313,0,0,0,165,91,90,150,76,187,189,102,137,86,44,138,0,,,
1,1790872619296,-143,-588,10256,485026,-276111,97738,0,0,0,424,310,167,432,330,448,439,145,303,348,152,476,0,,,
2,1790872619296,2158,5063,6355,-4983438,1556484,1155757,0,0,0,161,97,90,156,80,193,187,107,134,88,55,138,0,,,
1,1790872619312,-129,-674,10375,491135,-335975,103847,0,0,0,422,320,170,442,338,462,418,124,296,336,145,470,0,,,
2,1790872619312,1340,5039,7906,-5209458,1777617,1174082,0,0,0,163,98,93,151,76,190,187,104,134,88,56,146,0,,,
1,1790872619328,-153,-770,10413,525344,-397062,96516,0,0,0,428,320,165,439,331,459,413,109,263,341,146,473,0,,,
2,1790872619328,1507,5168,9700,-5656612,1930334,1176526,0,0,0,161,92,92,152,78,193,188,107,138,83,53,143,0,,,
1,1790872619344,-315,-861,10289,557109,-401949,85521,0,0,0,434,308,169,418,318,466,413,107,269,334,147,468,0,,,
2,1790872619344,1651,4881,11849,-6112317,2183232,1114218,0,0,0,160,93,90,154,75,193,193,111,144,82,45,142,0,,,
1,1790872619360,-478,-942,10160,568104,-354301,91629,0,0,0,434,299,167,428,322,459,413,99,284,326,138,475,0,,,
2,1790872619360,1139,4067,14300,-6418971,2432465,988379,0,0,0,159,95,88,158,76,197,196,107,142,83,42,144,0,,,
1,1790872619376,-512,-1028,10074,560774,-265115,112399,0,0,0,439,308,162,414,326,461,420,102,291,317,138,478,0,,,
2,1790872619376,507,2904,16405,-6499606,2519208,910189,0,0,0,155,88,89,162,76,203,205,106,153,92,45,152,0,,,
1,1790872619392,-497,-1139,10007,544891,-179594,133168,0,0,0,440,306,157,408,323,465,449,115,317,312,135,492,0,,,
2,1790872619392,358,1162,18607,-6443406,2653598,899193,0,0,0,153,88,93,166,76,213,211,108,165,87,42,154,0,,,
1,1790872619408,-497,-1229,9944,524122,-108734,156381,0,0,0,446,306,168,413,327,464,424,94,279,315,137,487,0,,,
2,1790872619408,646,-1593,22009,-6082996,2908940,989601,0,0,0,153,91,95,168,77,218,212,101,167,87,42,159,0,,,
1,1790872619424,-516,-1292,9954,509461,-75747,182037,0,0,0,450,314,181,418,327,464,398,82,256,318,139,482,0,,,
2,1790872619424,440,-3771,25809,-5804441,2989574,1021366,0,0,0,152,90,97,168,75,219,210,90,168,113,53,167,0,,,
1,1790872619440,-516,-1363,10059,513126,-72082,216246,0,0,0,453,315,180,417,330,464,406,85,279,316,138,482,0,,,
2,1790872619440,-1363,-6858,29236,-6009692,2849075,965167,0,0,0,149,91,102,169,70,221,208,88,168,120,55,167,0,,,
1,1790872619456,-564,-1450,10246,542448,-90408,256563,0,0,0,457,313,170,424,332,466,410,90,301,310,136,489,0,,,
2,1790872619456,-4651,-11777,30614,-6342002,2227214,1069014,0,0,0,146,89,101,169,73,222,215,98,172,88,45,169,0,,,
1,1790872619472,-540,-1536,10193,596204,-112399,301767,0,0,0,463,316,167,433,332,468,418,97,312,308,135,499,0,,,
2,1790872619472,-5881,-17109,29839,-6177069,1352455,1505171,0,0,0,143,90,100,170,73,225,221,105,172,92,45,162,0,,,
1,1790872619488,-234,-1641,9868,637743,-128281,328645,0,0,0,465,320,172,438,339,463,437,100,321,313,135,500,0,,,
2,1790872619488,-2383,-23369,25910,-5419596,505796,2180788,0,0,0,145,93,102,173,77,226,221,101,173,93,47,164,0,,,
1,1790872619504,148,-1727,9643,643851,-131946,299323,0,0,0,464,327,177,458,354,453,404,91,289,322,138,494,0,,,
2,1790872619504,3364,-31935,19267,-4386012,388510,2224771,0,0,0,143,93,101,173,74,223,219,101,174,88,58,163,0,,,
1,1790872619520,-14,-1751,10256,675616,-125838,234572,0,0,0,477,330,162,461,364,466,394,91,267,325,141,505,0,,,
2,1790872619520,2885,-42775,12768,-2844188,1119105,1384220,0,0,0,147,98,105,167,78,222,212,97,165,90,42,164,0,,,
1,1790872619536,-445,-1775,11337,808785,-116064,205250,0,0,0,480,347,159,451,354,459,391,90,276,334,140,509,0,,,
2,1790872619536,-10246,-47231,12280,-1137431,1695761,309097,0,0,0,147,99,103,160,73,222,214,110,172,94,55,164,0,,,
1,1790872619552,-713,-1852,12586,1122770,-91629,228463,0,0,0,470,353,188,466,369,467,378,90,264,350,146,494,0,,,
2,1790872619552,-18430,-41186,15147,840550,54977,321315,0,0,0,146,89,92,161,71,212,242,143,165,120,86,162,0,,,
1,1790872619568,-894,-1914,13668,1562593,-78190,272445,0,0,0,478,339,197,459,346,477,303,69,240,343,140,506,0,,,
2,1790872619568,-7642,-30346,18588,2786767,-2030516,570548,0,0,0,138,87,78,175,79,210,294,217,157,173,176,138,0,,,
1,1790872619584,-923,-1928,14501,2131919,-100181,340862,0,0,0,488,344,184,378,339,470,342,95,260,323,141,506,0,,,
2,1790872619584,10710,-12979,19588,4679227,-2822197,-348193,0,0,0,134,82,68,175,84,226,315,321,165,230,281,171,0,,,
1,1790872619600,-794,-1904,15348,2790432,-171042,411723,0,0,0,484,342,182,433,354,487,279,73,226,314,141,511,0,,,
2,1790872619600,11624,18214,18257,5641951,-3103195,-1565036,0,0,0,155,103,79,184,94,246,323,341,175,248,362,222,0,,,
1,1790872619616,-837,-1785,16664,3536909,-279776,472809,0,0,0,462,367,177,429,377,470,314,102,248,301,159,503,0,,,
2,1790872619616,4144,32725,16381,5198463,-1452637,-175929,0,0,0,190,115,85,196,99,257,336,337,180,275,356,259,0,,,
1,1790872619632,-1828,-1636,19042,4527733,-274889,591317,0,0,0,442,391,179,412,384,462,301,101,243,282,163,483,0,,,
2,1790872619632,-708,10423,13318,4732983,1348790,2577851,0,0,0,228,108,97,199,83,265,405,367,202,283,389,324,0,,,
1,1790872619648,-3417,-1641,22201,5756794,14660,808785,0,0,0,418,388,180,397,364,458,292,101,262,260,149,461,0,,,
2,1790872619648,-1919,-13673,14639,4702440,2660928,3178942,0,0,0,266,110,114,203,81,282,456,392,231,301,437,395,0,,,
1,1790872619664,-4857,-2904,24867,6861238,619417,1047023,0,0,0,395,360,174,362,336,421,274,98,241,238,134,440,0,,,
2,1790872619664,1866,-12337,18789,3088534,607200,1244943,0,0,0,305,132,131,220,108,295,467,377,239,335,429,437,0,,,
1,1790872619680,-5474,-4967,27738,7743327,930958,1297477,0,0,0,360,308,171,318,299,365,255,87,183,220,123,415,0,,,
2,1790872619680,4891,-5532,17592,1018923,-1005484,-197920,0,0,0,345,154,154,241,137,297,508,361,234,354,415,466,0,,,
1,1790872619696,-5451,-6039,32667,8267450,1117883,1615127,0,0,0,290,242,182,290,235,327,257,79,158,216,117,360,0,,,
2,1790872619696,3268,186,10815,78190,-734260,-200363,0,0,0,381,167,186,257,163,306,540,358,247,385,415,486,0,,,
1,1790872619712,-8480,-3278,35405,8233241,2125811,1977981,0,0,0,226,191,194,281,181,304,275,78,157,227,119,288,0,,,
2,1790872619712,1971,-234,8844,371406,-185703,118507,0,0,0,395,177,216,277,184,317,540,354,262,405,395,508,0,,,
1,1790872619728,-12490,3393,27709,7502646,2850297,2212553,0,0,0,235,175,183,291,176,304,356,107,202,223,117,284,0,,,
2,1790872619728,2225,-1124,9719,438601,-316428,95294,0,0,0,422,199,200,305,189,317,539,347,257,423,374,527,0,,,
1,1790872619744,-14003,10356,14922,5279097,2354274,2193006,0,0,0,235,174,162,294,175,299,370,115,205,214,110,281,0,,,
2,1790872619744,2254,-837,10480,318871,-555887,-29321,0,0,0,446,206,193,307,201,318,529,311,259,406,355,530,0,,,
1,1790872619760,-9126,11174,11366,1477072,840550,1606575,0,0,0,230,169,161,291,175,298,350,106,193,218,112,280,0,,,
2,1790872619760,1775,-497,10433,300545,-483805,-54977,0,0,0,455,224,201,298,239,331,508,294,250,406,301,530,0,,,
1,1790872619776,-3330,8025,10653,-1259604,436157,729373,0,0,0,219,168,160,267,165,297,365,113,206,224,114,289,0,,,
2,1790872619776,1330,-497,10189,373849,-173485,-15882,0,0,0,459,233,186,313,263,327,497,266,260,350,264,542,0,,,
1,1790872619792,-2770,6092,7016,-1915673,1128878,24434,0,0,0,220,174,160,269,168,294,340,104,187,221,112,286,0,,,
2,1790872619792,1584,-636,10265,414166,30543,-9773,0,0,0,462,223,186,306,250,331,457,219,253,350,253,548,0,,,
1,1790872619808,-4201,7839,2493,-2421469,1128878,-327423,0,0,0,211,173,150,271,168,291,356,110,192,220,115,281,0,,,
2,1790872619808,1914,-732,10203,447153,138055,-30543,0,0,0,470,228,177,315,247,340,440,206,254,318,212,558,0,,,
1,1790872619824,-3421,8595,1502,-3387858,864985,-497244,0,0,0,209,171,147,275,176,293,359,113,195,222,116,282,0,,,
2,1790872619824,1895,-756,10007,469144,160046,-46425,0,0,0,463,226,169,325,244,341,445,199,260,277,174,559,0,,,
1,1790872619840,-3474,7389,1852,-4241848,781907,-515570,0,0,0,207,171,148,276,179,296,353,110,196,225,114,282,0,,,
2,1790872619840,1876,-842,9916,452040,169820,-48869,0,0,0,466,229,160,315,269,351,403,188,258,246,164,562,0,,,
1,1790872619856,-4048,6590,1856,-4645019,333532,-411723,0,0,0,205,173,151,273,175,297,340,105,189,225,115,285,0,,,
2,1790872619856,1957,-933,9930,414166,157603,-69638,0,0,0,471,239,156,307,277,346,390,172,247,236,153,570,0,,,
1,1790872619872,-2785,6585,2440,-4939456,-379958,-423940,0,0,0,205,176,153,272,173,298,348,111,195,225,118,289,0,,,
2,1790872619872,2096,-1009,10011,364075,83077,-103847,0,0,0,485,244,148,308,288,346,391,150,244,226,135,577,0,,,
1,1790872619888,-1813,6144,3627,-5248554,-746477,-643851,0,0,0,210,178,158,280,176,300,358,116,201,227,122,290,0,,,
2,1790872619888,2254,-1100,9983,362853,-63529,-146607,0,0,0,491,244,137,308,295,353,373,138,247,210,120,579,0,,,
1,1790872619904,-2110,5259,5163,-5470909,-983493,-943175,0,0,0,211,179,160,281,177,301,355,112,198,228,122,290,0,,,
2,1790872619904,2301,-1191,9782,387288,-191811,-196698,0,0,0,481,233,131,304,267,355,353,134,248,204,111,581,0,,,
1,1790872619920,-2474,4790,6824,-5597969,-1307251,-1061683,0,0,0,211,180,160,280,180,303,351,110,196,226,121,290,0,,,
2,1790872619920,2239,-1268,9590,382401,-261450,-251676,0,0,0,477,218,133,300,230,355,346,129,246,202,104,578,0,,,
1,1790872619936,-2541,4642,8600,-5808106,-1588249,-1022588,0,0,0,217,183,163,296,189,310,352,111,196,227,124,292,0,,,
2,1790872619936,2220,-1325,9576,349414,-282219,-320093,0,0,0,480,223,132,295,228,358,347,131,244,191,97,573,0,,,
1,1790872619952,-2440,4407,10457,-6119647,-1810604,-796568,0,0,0,213,187,163,292,190,310,349,109,196,226,123,295,0,,,
2,1790872619952,2215,-1383,9734,323758,-256563,-384845,0,0,0,465,229,122,284,231,355,331,124,245,187,92,583,0,,,
1,1790872619968,-2215,4048,12356,-6377433,-1979203,-498466,0,0,0,215,197,164,299,198,313,349,113,195,221,121,295,0,,,
2,1790872619968,2148,-1440,9853,331088,-206472,-449596,0,0,0,469,271,121,287,246,360,322,125,237,187,99,591,0,,,
1,1790872619984,-2072,3900,14510,-6536258,-2080607,-218689,0,0,0,214,198,166,297,193,314,357,120,203,221,122,296,0,,,
2,1790872619984,1876,-1483,10026,375071,-134390,-504574,0,0,0,465,274,118,281,250,363,326,125,242,176,91,579,0,,,
1,1790872620000,-2033,3819,17898,-6708522,-2172236,-81855,0,0,0,211,201,170,291,192,316,369,124,215,224,128,299,0,,,
2,1790872620000,1373,-1493,10279,464257,-83077,-502131,0,0,0,474,247,121,286,250,363,341,125,242,183,96,587,0,,,
1,1790872620016,-2306,3091,21703,-6883229,-2321287,-256563,0,0,0,198,201,166,268,185,308,394,136,229,216,123,299,0,,,
2,1790872620016,1158,-1531,10394,609643,-54977,-433714,0,0,0,470,237,118,288,248,368,315,118,237,183,102,591,0,,,
1,1790872620032,-2555,502,26867,-7034724,-2660928,-880867,0,0,0,198,201,169,269,183,310,327,103,192,212,115,296,0,,,
2,1790872620032,1234,-1631,10303,747699,-14660,-375071,0,0,0,474,237,122,289,244,369,320,160,263,182,84,598,0,,,
1,1790872620048,-2163,-4704,32270,-7092145,-3007900,-1579697,0,0,0,199,205,170,270,189,313,342,108,204,217,122,300,0,,,
2,1790872620048,1244,-1775,9997,856433,43982,-342084,0,0,0,481,251,128,299,250,374,316,135,252,178,76,609,0,,,
1,1790872620064,201,-13022,36549,-6890559,-3077539,-1926668,0,0,0,199,209,171,271,194,318,380,126,237,215,123,302,0,,,
2,1790872620064,1167,-1914,9954,952949,102625,-304210,0,0,0,487,284,131,297,254,374,324,128,248,185,87,617,0,,,
1,1790872620080,3651,-22000,37233,-6233268,-2486221,-1955990,0,0,0,199,213,170,276,201,320,375,120,223,218,122,298,0,,,
2,1790872620080,1608,-2057,10801,1110553,127059,-267558,0,0,0,503,284,127,306,252,381,333,138,257,197,97,623,0,,,
1,1790872620096,1569,-31442,31820,-4721988,-1384220,-1819156,0,0,0,210,219,170,294,209,323,377,123,218,227,125,297,0,,,
2,1790872620096,2100,-2187,11782,1339016,114842,-284663,0,0,0,515,270,138,304,242,381,343,138,254,201,92,629,0,,,
1,1790872620112,-1713,-42306,25077,-3089756,-1209513,-711047,0,0,0,207,222,155,301,216,322,382,154,206,266,176,289,0,,,
2,1790872620112,2086,-2278,12778,1705535,84299,-340862,0,0,0,520,250,140,295,227,374,309,130,249,194,89,637,0,,,
1,1790872620128,5987,-51849,21421,-836885,-1198517,921184,0,0,0,191,225,121,292,224,313,375,222,185,315,266,271,0,,,
2,1790872620128,1517,-2249,13668,2146580,74525,-334754,0,0,0,516,258,136,294,227,371,267,127,253,178,83,636,0,,,
1,1790872620144,17784,-45718,19923,2524095,153938,1307251,0,0,0,185,233,97,283,230,312,373,309,187,332,343,268,0,,,
2,1790872620144,1536,-2268,14615,2642603,47647,-291993,0,0,0,509,270,138,296,237,371,257,125,258,176,81,626,0,,,
1,1790872620160,8580,-8872,15941,5597969,2692693,1011592,0,0,0,198,238,104,282,232,327,385,355,200,332,389,290,0,,,
2,1790872620160,2144,-2364,15491,3253468,-42760,-273667,0,0,0,504,257,139,296,244,367,241,113,255,184,85,611,0,,,
1,1790872620176,-3340,11978,16530,6379876,4056145,1071457,0,0,0,207,236,111,288,228,332,391,355,193,352,413,293,0,,,
2,1790872620176,3043,-2522,16424,3985284,-228463,-361632,0,0,0,487,272,137,299,255,362,206,99,243,174,82,587,0,,,
1,1790872620192,-5360,2680,19540,5679824,3130073,632856,0,0,0,210,228,123,291,213,336,432,381,212,374,412,295,0,,,
2,1790872620192,4101,-2770,17937,4808731,-452040,-546113,0,0,0,450,291,121,299,258,347,175,95,228,169,81,551,0,,,
1,1790872620208,268,-4479,21014,4856378,1209513,-334754,0,0,0,207,202,137,290,197,337,438,380,206,390,407,301,0,,,
2,1790872620208,5551,-3656,20660,5731137,-667064,-829554,0,0,0,449,245,120,300,244,327,162,92,212,172,79,524,0,,,
1,1790872620224,2048,-1593,17161,3633426,450818,-282219,0,0,0,218,197,167,314,206,347,429,343,196,424,412,324,0,,,
2,1790872620224,6369,-5283,24795,6619335,-802676,-1139874,0,0,0,417,224,125,259,207,305,156,86,190,145,82,480,0,,,
1,1790872620240,215,746,12711,2302961,438601,80634,0,0,0,254,210,204,314,193,350,411,311,174,442,419,348,0,,,
2,1790872620240,5857,-6915,29523,7336491,-868650,-1402546,0,0,0,344,189,113,230,165,271,167,86,166,127,53,412,0,,,
1,1790872620256,-1249,-234,10538,1043357,610865,140499,0,0,0,279,229,239,309,198,356,436,363,221,462,411,364,0,,,
2,1790872620256,6288,-5589,30657,7919256,-762359,-1607797,0,0,0,264,152,97,186,131,225,181,93,144,112,52,292,0,,,
1,1790872620272,-330,-1019,10729,525344,488692,-10995,0,0,0,292,229,249,311,205,359,460,395,253,469,407,374,0,,,
2,1790872620272,7872,-837,29657,8475144,-322536,-1907121,0,0,0,167,97,88,168,77,181,180,102,128,87,45,124,0,,,
1,1790872620288,129,-689,10758,293215,327423,-62308,0,0,0,307,235,267,313,212,357,468,394,257,470,404,375,0,,,
2,1790872620288,9605,7188,22354,8254011,412944,-2362826,0,0,0,164,94,92,166,80,188,178,107,139,88,52,129,0,,,
1,1790872620304,-9,-67,10490,250454,230907,-28099,0,0,0,318,249,286,314,218,366,468,378,257,470,397,381,0,,,
2,1790872620304,9160,11462,11964,5706703,1243721,-2904053,0,0,0,165,91,93,166,81,190,178,99,135,84,47,135,0,,,
1,1790872620320,-110,110,10299,235793,172263,-9773,0,0,0,334,262,296,315,220,365,477,372,259,467,389,380,0,,,
2,1790872620320,6255,12443,8796,1621236,1710422,-3061656,0,0,0,162,87,85,160,71,178,179,97,128,91,45,140,0,,,
1,1790872620336,-47,14,10241,239459,105068,-4886,0,0,0,343,270,305,316,221,364,484,371,271,463,371,381,0,,,
2,1790872620336,2885,10480,10662,-1802052,1155757,-2480112,0,0,0,162,89,86,161,75,178,181,99,128,93,48,142,0,,,
1,1790872620352,4,-14,10260,250454,30543,8552,0,0,0,342,276,309,317,225,368,481,365,283,460,353,390,0,,,
2,1790872620352,1631,7480,9863,-3480710,251676,-1672549,0,0,0,162,91,88,162,76,182,183,102,133,91,49,145,0,,,
1,1790872620368,9,0,10236,261450,-40317,28099,0,0,0,347,286,305,317,233,370,470,356,284,455,342,398,0,,,
2,1790872620368,1856,6283,5786,-3229033,-215024,-989601,0,0,0,163,94,88,160,76,182,182,99,135,89,49,148,0,,,
1,1790872620384,-14,-19,10165,266337,-98960,40317,0,0,0,359,301,305,315,241,372,465,341,287,444,322,403,0,,,
2,1790872620384,708,7427,4024,-3382971,-162490,-324980,0,0,0,162,96,90,160,84,185,183,99,135,94,55,150,0,,,
1,1790872620400,-23,-67,10112,265115,-128281,40317,0,0,0,364,315,311,314,246,374,466,314,290,429,308,410,0,,,
2,1790872620400,-19,7934,4292,-4101349,-158824,378736,0,0,0,161,95,90,163,88,188,185,103,135,99,58,149,0,,,
1,1790872620416,-71,-86,10102,271224,-139277,40317,0,0,0,369,309,331,320,247,380,463,307,290,422,316,417,0,,,
2,1790872620416,703,7097,5058,-4856378,-87964,1009149,0,0,0,162,98,90,163,85,187,184,101,136,93,50,146,0,,,
1,1790872620432,-148,-105,10093,287106,-122173,45204,0,0,0,369,306,351,313,243,389,469,272,286,404,284,426,0,,,
2,1790872620432,1861,6025,5307,-5153259,419053,1298699,0,0,0,161,97,91,159,82,190,184,102,138,102,59,153,0,,,
1,1790872620448,-153,-153,10078,301767,-89186,56199,0,0,0,375,322,346,315,250,401,472,250,286,396,259,430,0,,,
2,1790872620448,1464,5537,6427,-5422039,1016479,1373225,0,0,0,164,101,95,164,82,193,188,108,137,95,54,148,0,,,
1,1790872620464,-90,-224,10059,311541,-59864,63529,0,0,0,377,309,368,318,251,416,455,238,314,394,248,454,0,,,
2,1790872620464,641,5053,8169,-5753128,1315803,1356120,0,0,0,158,97,91,167,79,192,189,104,137,102,55,152,0,,,
1,1790872620480,-33,-282,10059,310319,-53756,59864,0,0,0,399,327,341,327,255,416,450,223,304,388,233,461,0,,,
2,1790872620480,703,4154,10126,-6142860,1348790,1207069,0,0,0,167,100,100,168,80,192,195,105,141,99,53,150,0,,,
1,1790872620496,-19,-325,10078,310319,-61086,53756,0,0,0,412,310,342,333,257,416,457,209,308,377,215,464,0,,,
2,1790872620496,1349,2991,11935,-6483723,1527163,863763,0,0,0,161,99,90,167,82,194,190,105,132,104,61,156,0,,,
1,1790872620512,-33,-378,10083,316428,-80634,53756,0,0,0,422,320,347,342,260,417,453,188,298,366,202,463,0,,,
2,1790872620512,818,1947,13883,-6708522,1806939,509461,0,0,0,158,96,89,166,83,190,199,107,143,90,59,145,0,,,
1,1790872620528,-52,-430,10083,324980,-100181,58643,0,0,0,430,321,355,350,263,417,455,178,308,368,191,464,0,,,
2,1790872620528,-631,1335,15807,-6748839,1881464,367740,0,0,0,157,96,91,169,78,193,190,100,133,97,54,153,0,,,
1,1790872620544,-148,-449,10150,333532,-107512,70860,0,0,0,438,317,368,352,276,429,448,172,315,368,185,465,0,,,
2,1790872620544,-512,966,17549,-6690196,1747074,533896,0,0,0,158,95,93,168,80,202,199,97,146,96,46,157,0,,,
1,1790872620560,-268,-478,10227,349414,-57421,91629,0,0,0,447,322,366,359,286,431,439,163,295,360,176,465,0,,,
2,1790872620560,636,-210,20086,-6614448,1830152,794124,0,0,0,149,91,89,173,84,207,204,103,154,103,56,168,0,,,
1,1790872620576,-253,-555,10236,377514,-2443,122173,0,0,0,456,323,343,375,279,412,445,148,280,358,160,467,0,,,
2,1790872620576,1143,-2593,23766,-6449515,2160019,951728,0,0,0,176,116,105,192,103,208,214,109,159,101,55,166,0,,,
1,1790872620592,-191,-636,10270,423940,10995,160046,0,0,0,467,333,330,391,278,414,446,120,281,354,152,470,0,,,
2,1790872620592,71,-5427,27456,-6399424,2285857,996932,0,0,0,164,109,103,180,91,209,222,116,170,102,56,164,0,,,
1,1790872620608,-177,-698,10313,480140,1221,195476,0,0,0,482,327,341,408,283,421,459,114,297,346,146,481,0,,,
2,1790872620608,-2412,-9595,30131,-6603453,1963320,1031140,0,0,0,150,97,95,175,81,209,217,104,163,95,49,162,0,,,
1,1790872620624,-67,-775,10275,548556,-20769,226020,0,0,0,491,345,319,416,310,421,447,105,268,358,137,480,0,,,
2,1790872620624,-4359,-16022,30949,-6637661,1181413,1233947,0,0,0,151,97,96,177,82,211,216,99,155,97,48,163,0,,,
1,1790872620640,138,-871,10208,603534,-53756,216246,0,0,0,491,343,337,458,320,424,355,60,199,347,144,478,0,,,
2,1790872620640,-1258,-24115,27925,-5748241,195476,1607797,0,0,0,149,98,98,175,80,213,219,102,159,108,53,167,0,,,
1,1790872620656,129,-942,10490,663399,-87964,183259,0,0,0,493,361,289,414,364,444,429,100,263,321,155,487,0,,,
2,1790872620656,5513,-34754,21277,-4426329,-270002,1467298,0,0,0,152,97,100,177,76,215,219,104,163,114,59,174,0,,,
1,1790872620672,-191,-971,11328,835663,-87964,171042,0,0,0,489,350,264,417,343,447,450,113,292,332,152,494,0,,,
2,1790872620672,3881,-45575,15017,-2855184,616973,144164,0,0,0,155,97,98,183,78,216,225,116,160,118,70,174,0,,,
1,1790872620688,-445,-1033,12194,1136209,-65973,197920,0,0,0,485,361,243,420,348,456,417,98,279,330,152,496,0,,,
2,1790872620688,-9739,-50021,14395,-1042136,1204626,-1105666,0,0,0,140,89,82,184,83,212,248,159,155,137,108,158,0,,,
1,1790872620704,-373,-1139,13026,1543045,-57421,244346,0,0,0,487,363,199,419,385,455,405,102,281,324,155,504,0,,,
2,1790872620704,-18056,-42311,19593,1069014,-152716,-1171639,0,0,0,125,84,70,184,88,218,299,253,160,191,214,146,0,,,
1,1790872620720,-349,-1253,14041,2048842,-63529,271224,0,0,0,486,383,196,403,384,454,373,104,261,312,165,496,0,,,
2,1790872620720,-2565,-8236,19152,3828903,-2023185,-1034805,0,0,0,135,90,76,167,83,233,316,303,169,222,303,199,0,,,
1,1790872620736,-445,-1301,14960,2579073,-36651,302989,0,0,0,481,386,204,398,355,449,346,101,246,310,159,491,0,,,
2,1790872620736,11433,21799,14453,5773898,-3301115,-1415985,0,0,0,168,93,82,197,81,244,360,349,183,247,354,217,0,,,
1,1790872620752,-449,-1229,16109,3180164,-6108,334754,0,0,0,475,375,193,393,335,439,331,99,251,303,144,491,0,,,
2,1790872620752,7039,5924,17104,5872858,-2873510,-702495,0,0,0,180,102,91,194,79,248,374,367,181,271,371,264,0,,,
1,1790872620768,-1598,-1148,17750,4004832,21991,431270,0,0,0,461,373,172,376,340,427,305,95,248,282,143,478,0,,,
2,1790872620768,-9,-6613,21627,5280319,-1832595,486248,0,0,0,173,99,93,189,74,244,400,381,196,276,388,264,0,,,
1,1790872620784,-3182,-1186,19990,4968777,162490,682947,0,0,0,440,369,161,368,347,414,271,90,225,270,146,457,0,,,
2,1790872620784,-3091,-4771,19913,3882659,-1127657,780685,0,0,0,186,92,108,201,58,241,428,362,184,324,379,282,0,,,
1,1790872620800,-4072,-1383,23431,6052452,668286,1018923,0,0,0,424,354,156,349,343,396,249,94,192,262,146,434,0,,,
2,1790872620800,-698,291,13405,2463008,-846659,127059,0,0,0,213,104,135,209,52,245,456,376,192,306,361,292,0,,,
1,1790872620816,-3675,-1770,26723,7060380,1269377,1292590,0,0,0,407,317,161,328,315,362,218,80,151,248,133,419,0,,,
2,1790872620816,995,512,10562,1514945,-525344,-161268,0,0,0,229,103,166,199,51,250,468,362,193,312,359,302,0,,,
1,1790872620832,-3268,-3115,30255,7830070,1817934,1419650,0,0,0,338,270,154,303,273,321,232,76,136,222,119,392,0,,,
2,1790872620832,1143,-1450,10835,878424,-234572,-46425,0,0,0,245,106,188,203,58,257,472,357,197,311,352,312,0,,,
1,1790872620848,-6360,-3043,31916,8113512,2612059,1555262,0,0,0,263,238,166,274,220,299,297,101,168,207,113,319,0,,,
2,1790872620848,698,-1129,10825,555887,-117286,75747,0,0,0,258,121,198,213,76,262,481,344,186,300,326,324,0,,,
1,1790872620864,-8906,1450,28159,7954687,3597996,1788613,0,0,0,228,219,181,255,199,293,337,111,192,214,125,291,0,,,
2,1790872620864,751,-220,10294,417831,-74525,64751,0,0,0,273,133,210,219,92,267,496,329,189,301,317,342,0,,,
1,1790872620880,-9404,8418,17741,6737843,4096462,1732413,0,0,0,228,212,159,255,195,283,345,119,190,212,127,284,0,,,
2,1790872620880,909,-90,10102,395840,-74525,13439,0,0,0,286,138,215,226,106,272,506,326,198,306,318,363,0,,,
1,1790872620896,-10423,11366,10705,4382347,3330437,1373225,0,0,0,232,204,152,260,195,279,351,121,188,209,119,273,0,,,
2,1790872620896,871,-234,10141,366519,-67195,-12217,0,0,0,298,139,218,234,114,279,509,319,203,304,300,383,0,,,
1,1790872620912,-8954,10217,9389,823446,1103222,825889,0,0,0,231,200,155,262,192,278,351,121,189,215,121,270,0,,,
2,1790872620912,741,-287,10246,355523,-29321,-26878,0,0,0,307,139,229,241,114,287,508,288,209,290,262,400,0,,,
1,1790872620928,-5929,7322,8533,-1317025,-263893,356745,0,0,0,231,200,155,263,191,280,352,121,190,217,123,271,0,,,
2,1790872620928,679,-268,10289,365297,39095,-45204,0,0,0,310,145,231,244,117,295,504,250,216,270,215,414,0,,,
1,1790872620944,-3685,5005,5819,-1696983,-411723,-17104,0,0,0,228,200,155,264,193,283,354,118,189,221,126,274,0,,,
2,1790872620944,684,-277,10251,387288,118507,-53756,0,0,0,310,149,221,247,124,299,491,226,229,256,182,428,0,,,
1,1790872620960,-3129,5460,3642,-1731192,-142942,-288328,0,0,0,222,200,154,262,195,285,356,119,191,219,127,276,0,,,
2,1790872620960,765,-339,10174,411723,174707,-50090,0,0,0,310,149,212,251,128,311,472,204,235,237,159,439,0,,,
1,1790872620976,-2818,6365,3421,-2454456,-113620,-587652,0,0,0,217,201,153,261,196,285,357,122,194,217,129,276,0,,,
2,1790872620976,890,-416,10102,443488,204028,-50090,0,0,0,322,161,217,259,148,322,477,199,243,222,156,462,0,,,
1,1790872620992,-2866,6475,4441,-3571118,-267558,-928515,0,0,0,212,203,153,263,196,288,356,122,194,219,132,278,0,,,
2,1790872620992,1000,-492,10078,470366,205250,-58643,0,0,0,327,163,216,273,150,320,472,183,250,213,123,480,0,,,
1,1790872621008,-3321,5920,5297,-4464203,-454483,-1221730,0,0,0,206,203,159,263,196,292,356,121,197,219,134,280,0,,,
2,1790872621008,1052,-588,10069,489913,207694,-72082,0,0,0,335,165,214,273,149,325,456,175,248,209,131,496,0,,,
1,1790872621024,-3905,5154,5714,-4934569,-701273,-1362229,0,0,0,202,203,167,260,195,295,356,122,201,219,135,283,0,,,
2,1790872621024,1067,-679,10040,502131,216246,-85521,0,0,0,344,166,219,274,149,332,444,127,242,260,99,484,0,,,
1,1790872621040,-3962,4460,6365,-5221676,-1033583,-1359786,0,0,0,202,203,157,264,198,291,356,122,194,221,135,282,0,,,
2,1790872621040,1081,-756,10011,503352,224798,-94073,0,0,0,343,167,226,282,160,341,448,124,254,224,101,505,0,,,
1,1790872621056,-3661,3929,7561,-5495343,-1257160,-1309695,0,0,0,205,206,158,264,198,291,357,124,196,219,134,282,0,,,
2,1790872621056,1153,-804,10031,504574,233350,-105068,0,0,0,369,163,212,284,166,339,439,117,260,198,88,518,0,,,
1,1790872621072,-3732,3402,9212,-5780006,-1328021,-1214400,0,0,0,202,208,157,264,202,294,356,124,195,215,126,282,0,,,
2,1790872621072,1244,-880,10035,520457,243124,-124616,0,0,0,373,166,210,294,170,349,438,109,263,184,64,529,0,,,
1,1790872621088,-4039,2842,10806,-5993809,-1439198,-1069014,0,0,0,201,208,156,271,206,293,376,132,208,220,129,284,0,,,
2,1790872621088,1301,-971,9987,532674,245567,-145385,0,0,0,378,172,195,298,175,352,460,115,275,185,62,540,0,,,
1,1790872621104,-4053,2201,12586,-6152634,-1643227,-873537,0,0,0,201,211,153,269,206,294,356,128,195,215,131,284,0,,,
2,1790872621104,1330,-1081,9930,530231,228463,-166155,0,0,0,378,176,181,302,184,357,451,107,282,182,69,556,0,,,
1,1790872621120,-4034,1694,14448,-6251594,-1826487,-704938,0,0,0,201,214,154,267,206,293,378,138,209,214,134,285,0,,,
2,1790872621120,1363,-1177,9911,520457,195476,-183259,0,0,0,382,177,169,312,204,360,436,97,280,187,71,566,0,,,
1,1790872621136,-4268,1488,16534,-6323676,-2010968,-547335,0,0,0,201,219,155,268,208,295,380,137,210,210,128,286,0,,,
2,1790872621136,1359,-1263,9916,515570,168598,-202807,0,0,0,390,183,155,314,222,361,437,97,278,194,71,571,0,,,
1,1790872621152,-4364,1263,19889,-6429967,-2200336,-366519,0,0,0,203,222,157,268,211,297,380,142,210,209,128,287,0,,,
2,1790872621152,1344,-1335,9987,525344,157603,-216246,0,0,0,399,192,145,316,224,364,428,98,281,192,62,577,0,,,
1,1790872621168,-4383,43,24216,-6577796,-2317622,-272445,0,0,0,202,228,155,270,215,297,377,138,208,209,127,287,0,,,
2,1790872621168,1354,-1411,10045,554665,157603,-224798,0,0,0,413,212,137,322,225,368,407,100,288,189,59,584,0,,,
1,1790872621184,-4627,-3182,28312,-6684087,-2460565,-398284,0,0,0,201,233,155,270,216,298,375,131,208,210,124,288,0,,,
2,1790872621184,1363,-1507,10098,612086,179594,-235793,0,0,0,420,232,130,310,231,376,395,103,293,178,66,601,0,,,
1,1790872621200,-3919,-9538,31371,-6625444,-3222925,-740368,0,0,0,199,235,155,269,216,299,379,132,212,209,123,290,0,,,
2,1790872621200,1421,-1631,10045,696386,223576,-256563,0,0,0,430,203,120,316,236,376,400,109,301,167,65,606,0,,,
1,1790872621216,-100,-16989,33175,-6416528,-4009719,-1072679,0,0,0,198,237,154,268,217,300,385,135,216,208,125,291,0,,,
2,1790872621216,1363,-1722,10193,781907,259006,-271224,0,0,0,444,216,119,318,268,380,393,106,302,168,73,615,0,,,
1,1790872621232,4599,-23790,32170,-5787337,-3754377,-1481959,0,0,0,199,240,153,269,218,303,388,131,217,208,125,290,0,,,
2,1790872621232,1584,-1775,10863,913854,273667,-274889,0,0,0,437,230,116,321,295,394,381,110,303,170,60,624,0,,,
1,1790872621248,4450,-31203,26178,-4313930,-2855184,-1725083,0,0,0,199,239,153,274,222,301,391,130,217,209,124,290,0,,,
2,1790872621248,1976,-1832,11720,1178969,268780,-309097,0,0,0,459,231,124,311,241,396,359,110,291,177,63,626,0,,,
1,1790872621264,4345,-40660,18492,-2858849,-2559525,-1136209,0,0,0,201,239,154,275,222,304,391,131,218,210,122,291,0,,,
2,1790872621264,1909,-1914,12400,1524719,266337,-359188,0,0,0,464,236,129,305,238,407,344,110,278,281,69,601,0,,,
1,1790872621280,11954,-48312,14194,-1390329,-2510656,40317,0,0,0,200,246,156,271,217,304,391,130,216,216,127,293,0,,,
2,1790872621280,1545,-2024,13060,1925447,270002,-372627,0,0,0,472,224,133,298,225,396,317,101,264,177,55,645,0,,,
1,1790872621296,21100,-46465,14285,670730,-1264491,345749,0,0,0,191,232,152,280,216,303,373,128,192,261,167,279,0,,,
2,1790872621296,2105,-2172,13768,2390926,252898,-384845,0,0,0,484,239,145,304,215,398,290,104,259,167,58,654,0,,,
1,1790872621312,12471,-29088,19411,2757445,1100779,-322536,0,0,0,156,221,101,292,233,285,343,224,152,311,281,217,0,,,
2,1790872621312,2665,-2292,14266,2904053,224798,-472809,0,0,0,477,269,135,293,211,375,270,115,261,182,69,641,0,,,
1,1790872621328,-2703,4651,21416,4689001,2649933,-400727,0,0,0,173,213,97,288,214,307,396,294,178,339,334,245,0,,,
2,1790872621328,2569,-2249,15123,3522248,195476,-592539,0,0,0,474,246,131,284,195,369,254,113,260,182,66,619,0,,,
1,1790872621344,-10418,35989,14721,5765346,3644422,31764,0,0,0,181,220,107,288,216,326,397,340,192,358,400,273,0,,,
2,1790872621344,3354,-2268,16539,4313930,145385,-713490,0,0,0,445,252,125,290,217,366,217,109,250,174,69,579,0,,,
1,1790872621360,-3924,12816,14156,5804441,3109304,-492357,0,0,0,192,215,118,295,203,350,425,381,207,378,405,285,0,,,
2,1790872621360,5393,-2617,18186,5236336,124616,-971275,0,0,0,419,249,119,295,217,358,188,99,245,158,68,531,0,,,
1,1790872621376,3910,-10040,20679,5761680,1150870,-1384220,0,0,0,203,188,137,309,191,357,431,372,202,411,412,319,0,,,
2,1790872621376,4852,-3235,22703,6263812,138055,-1302364,0,0,0,393,219,118,272,187,333,178,90,235,141,65,484,0,,,
1,1790872621392,3914,-6714,22459,4515515,226020,-781907,0,0,0,224,192,181,309,185,363,433,354,216,430,415,352,0,,,
2,1790872621392,3613,-4891,29236,7191105,124616,-1348790,0,0,0,341,188,115,230,158,288,173,89,203,126,58,418,0,,,
1,1790872621408,-784,-813,17185,2309070,553443,62308,0,0,0,251,202,222,309,180,373,456,386,263,439,408,382,0,,,
2,1790872621408,5460,-6197,33658,7970569,458148,-1233947,0,0,0,266,146,101,193,123,235,175,86,155,108,48,304,0,,,
1,1790872621424,-2814,258,10519,640186,999375,79412,0,0,0,280,208,242,321,186,379,472,402,289,451,387,413,0,,,
2,1790872621424,8518,-2306,32773,8564330,1138652,-1650557,0,0,0,190,107,82,166,91,191,182,84,124,94,53,182,0,,,
1,1790872621440,-1220,-650,9743,547335,788016,-194255,0,0,0,313,228,257,340,202,387,460,361,270,462,372,438,0,,,
2,1790872621440,10246,5790,26274,8585100,1358564,-2472782,0,0,0,150,89,86,164,75,188,188,95,129,88,44,124,0,,,
1,1790872621456,-368,-804,10653,681725,574213,-228463,0,0,0,341,251,272,354,220,395,452,322,256,467,361,455,0,,,
2,1790872621456,9657,11777,15075,6739065,1292590,-3127630,0,0,0,158,93,83,164,75,187,190,94,132,93,46,130,0,,,
1,1790872621472,-588,-502,10849,615752,524122,-97738,0,0,0,352,269,280,349,238,396,473,330,284,463,326,469,0,,,
2,1790872621472,7733,14323,8403,3434284,1070235,-3230255,0,0,0,169,92,88,162,71,181,191,95,130,93,52,136,0,,,
1,1790872621488,-650,-425,10533,496022,458148,-25656,0,0,0,364,301,300,355,244,404,477,320,296,443,305,480,0,,,
2,1790872621488,4685,13658,8858,-753807,284663,-2527760,0,0,0,154,86,86,157,63,175,195,98,131,90,53,139,0,,,
1,1790872621504,-473,-478,10375,453262,310319,-10995,0,0,0,372,270,313,350,245,414,495,306,324,414,280,488,0,,,
2,1790872621504,4048,10318,8925,-2948035,-770911,-1809382,0,0,0,157,86,87,157,62,178,192,88,121,89,43,135,0,,,
1,1790872621520,-320,-449,10461,478918,120951,0,0,0,0,383,278,326,353,247,420,480,254,304,400,257,490,0,,,
2,1790872621520,5130,7547,5814,-3600439,-1236391,-1558928,0,0,0,162,96,95,163,66,183,207,91,132,94,50,144,0,,,
1,1790872621536,-301,-406,10524,524122,-35430,4886,0,0,0,396,285,291,354,264,418,497,244,328,390,224,499,0,,,
2,1790872621536,5632,7020,2656,-3745825,-851546,-1568701,0,0,0,165,100,100,163,70,186,197,97,134,93,52,143,0,,,
1,1790872621552,-550,-440,10485,576656,-95294,13439,0,0,0,403,289,275,360,262,418,486,217,323,377,202,493,0,,,
2,1790872621552,4197,7590,3105,-4514294,-257785,-1221730,0,0,0,161,95,93,163,73,188,197,93,135,92,51,146,0,,,
1,1790872621568,-784,-588,10332,608421,0,53756,0,0,0,414,296,271,370,267,423,484,197,330,378,178,491,0,,,
2,1790872621568,2818,7418,4809,-5450139,78190,-575435,0,0,0,157,89,90,161,71,187,201,95,137,92,48,146,0,,,
1,1790872621584,-684,-760,10174,613308,151494,103847,0,0,0,423,288,272,374,262,433,449,152,294,369,172,479,0,,,
2,1790872621584,2569,6010,6365,-5993809,139277,199142,0,0,0,158,89,91,162,67,187,205,98,138,94,47,142,0,,,
1,1790872621600,-368,-851,10107,598647,195476,111177,0,0,0,425,311,274,385,279,435,438,153,296,347,166,471,0,,,
2,1790872621600,3225,4795,7121,-6091548,267558,803898,0,0,0,158,92,94,163,69,188,204,96,133,96,44,140,0,,,
1,1790872621616,-224,-914,10117,590095,164933,96516,0,0,0,423,300,260,385,275,436,433,134,289,337,159,475,0,,,
2,1790872621616,4326,4297,7829,-6059783,681725,1282817,0,0,0,158,97,95,165,72,190,207,100,136,98,45,142,0,,,
1,1790872621632,-306,-1000,10122,592539,96516,79412,0,0,0,425,298,256,405,279,445,403,100,245,352,160,471,0,,,
2,1790872621632,4704,4173,9538,-6212499,1265712,1629788,0,0,0,156,99,92,168,74,191,210,101,143,100,49,145,0,,,
1,1790872621648,-368,-1119,10054,583987,46425,81855,0,0,0,430,298,251,407,285,451,395,95,240,348,157,470,0,,,
2,1790872621648,4661,3785,11706,-6389650,1670105,1899790,0,0,0,154,97,90,168,74,195,209,96,140,99,43,146,0,,,
1,1790872621664,-397,-1244,10002,564439,6108,90408,0,0,0,431,299,248,393,285,455,406,108,265,329,155,471,0,,,
2,1790872621664,4819,3067,13845,-6494719,1864360,2007303,0,0,0,156,98,95,170,74,198,212,97,137,99,41,148,0,,,
1,1790872621680,-368,-1311,9949,543670,-6108,102625,0,0,0,428,309,256,401,291,463,401,108,266,327,159,466,0,,,
2,1790872621680,4900,2019,16357,-6570466,2084272,2034181,0,0,0,155,98,96,172,74,199,215,92,142,97,48,149,0,,,
1,1790872621696,-335,-1378,9920,520457,-14660,113620,0,0,0,429,300,245,400,297,461,414,117,287,318,155,471,0,,,
2,1790872621696,4670,660,19090,-6581462,2287079,2075720,0,0,0,154,97,99,171,73,201,216,89,145,110,55,165,0,,,
1,1790872621712,-330,-1435,9997,508239,-30543,125838,0,0,0,440,296,217,403,305,459,436,135,301,307,149,482,0,,,
2,1790872621712,4508,-1225,22354,-6510601,2444682,2254092,0,0,0,145,93,98,171,73,207,215,91,149,108,56,167,0,,,
1,1790872621728,-253,-1497,10074,516791,-57421,136833,0,0,0,438,305,197,402,317,462,433,130,297,310,149,480,0,,,
2,1790872621728,4254,-3694,25905,-6387206,2550973,2535090,0,0,0,143,101,96,167,73,208,215,84,151,97,50,161,0,,,
1,1790872621744,-181,-1574,10078,542448,-94073,139277,0,0,0,442,291,193,393,303,449,445,109,307,308,133,489,0,,,
2,1790872621744,3402,-7571,29025,-6365215,2432465,2812423,0,0,0,142,99,98,170,77,211,211,79,150,99,49,163,0,,,
1,1790872621760,-263,-1651,10136,582765,-134390,140499,0,0,0,448,301,176,404,317,448,444,97,293,314,132,494,0,,,
2,1790872621760,2790,-12701,30701,-6438519,1977981,2912605,0,0,0,142,97,98,167,71,206,219,92,151,99,50,164,0,,,
1,1790872621776,-368,-1737,10179,643851,-167377,157603,0,0,0,451,295,170,402,316,451,466,108,323,302,132,502,0,,,
2,1790872621776,4134,-20157,30212,-6278472,989601,2714685,0,0,0,145,99,104,169,72,208,225,90,159,102,58,167,0,,,
1,1790872621792,-397,-1852,10184,712268,-178372,182037,0,0,0,452,309,193,458,336,437,417,87,289,315,144,494,0,,,
2,1790872621792,8753,-28537,25570,-5352401,477696,2056172,0,0,0,140,94,103,174,73,219,226,92,166,105,54,178,0,,,
1,1790872621808,-516,-1933,10380,780685,-177150,208915,0,0,0,457,311,192,427,322,460,401,82,289,316,144,504,0,,,
2,1790872621808,10050,-38765,19037,-4061032,1204626,831998,0,0,0,142,94,104,172,70,223,225,91,166,106,54,187,0,,,
1,1790872621824,-665,-1995,10930,912632,-157603,254119,0,0,0,467,331,179,405,342,471,413,91,313,308,140,512,0,,,
2,1790872621824,-933,-48753,15328,-2506990,2601064,-768468,0,0,0,144,96,103,171,73,222,221,89,161,98,44,178,0,,,
1,1790872621840,-483,-2062,11663,1127657,-147829,279776,0,0,0,475,328,171,411,348,482,420,98,340,300,143,521,0,,,
2,1790872621840,-18344,-50734,16846,-542448,1722639,-1198517,0,0,0,137,97,92,175,80,214,251,136,155,122,99,150,0,,,
1,1790872621856,-445,-2148,12768,1430646,-168598,279776,0,0,0,480,316,175,422,333,485,383,93,321,302,142,523,0,,,
2,1790872621856,-19463,-41655,19975,1590693,-880867,-610865,0,0,0,129,86,75,178,83,212,304,221,156,178,198,143,0,,,
1,1790872621872,-1105,-2249,14189,1918116,-216246,307876,0,0,0,483,314,178,431,322,475,337,80,283,310,136,522,0,,,
2,1790872621872,-579,-10193,22177,4130670,-3059213,-127059,0,0,0,134,81,71,181,82,227,335,300,164,222,270,181,0,,,
1,1790872621888,-1708,-2316,14955,2585181,-277332,463035,0,0,0,480,323,173,444,327,474,318,76,265,311,135,521,0,,,
2,1790872621888,11907,25513,15295,6086661,-3463605,-531452,0,0,0,151,103,82,190,89,241,348,361,172,244,333,220,0,,,
1,1790872621904,-1359,-2301,15630,3378084,-390953,652404,0,0,0,466,331,168,448,344,485,314,83,256,298,137,511,0,,,
2,1790872621904,8647,16128,14807,6724404,-3038443,-61086,0,0,0,171,111,87,198,89,247,384,378,180,279,387,250,0,,,
1,1790872621920,-1483,-2368,17568,4265061,-566882,766025,0,0,0,450,322,155,419,348,474,320,87,265,272,128,500,0,,,
2,1790872621920,-2062,-7815,21617,6147747,-1811826,1264491,0,0,0,196,98,100,199,71,248,445,368,184,306,374,283,0,,,
1,1790872621936,-2560,-2694,20985,5343849,-695164,907745,0,0,0,437,322,165,401,334,447,305,85,257,263,130,469,0,,,
2,1790872621936,-5154,-7542,21564,4718323,-1301142,963945,0,0,0,232,114,135,205,67,260,490,370,191,310,379,332,0,,,
1,1790872621952,-3297,-3177,24905,6442184,-632856,1027475,0,0,0,421,307,186,365,319,447,305,95,261,264,137,447,0,,,
2,1790872621952,-871,-1277,15348,2801427,-966388,-153938,0,0,0,279,114,166,202,71,280,476,384,208,316,340,397,0,,,
1,1790872621968,-2469,-4053,28671,7400021,-579100,1059240,0,0,0,396,286,172,348,306,395,317,102,229,224,115,422,0,,,
2,1790872621968,2368,-875,11447,1287703,-586430,-432492,0,0,0,315,130,194,222,92,307,477,364,232,316,333,440,0,,,
1,1790872621984,-2579,-5020,32538,8100073,-175929,1082453,0,0,0,318,249,170,318,262,346,293,91,186,207,104,400,0,,,
2,1790872621984,2110,-2301,10433,492357,-350636,-24434,0,0,0,342,143,215,246,124,306,478,317,221,336,311,472,0,,,
1,1790872622000,-7154,-3642,33012,8256454,794124,1345125,0,0,0,229,199,189,280,191,305,341,102,192,229,113,281,0,,,
2,1790872622000,909,-1162,10433,423940,-307876,129503,0,0,0,363,173,218,246,180,304,497,311,232,362,317,495,0,,,
1,1790872622016,-11529,2431,27953,7922922,1258382,1822821,0,0,0,228,183,193,280,177,304,338,101,188,272,104,261,0,,,
2,1790872622016,760,-287,10303,436157,-260228,62308,0,0,0,382,188,250,252,183,307,496,297,232,342,297,505,0,,,
1,1790872622032,-11978,10801,16908,6423858,948062,2272418,0,0,0,232,175,177,286,176,298,353,106,193,236,105,268,0,,,
2,1790872622032,1153,-406,10131,360410,-195476,-18325,0,0,0,384,200,286,255,203,334,499,279,251,333,297,521,0,,,
1,1790872622048,-8786,13826,9830,2872288,433714,2207666,0,0,0,232,174,162,284,176,290,347,107,187,212,108,269,0,,,
2,1790872622048,1148,-607,10150,282219,-151494,-13439,0,0,0,388,204,327,258,217,333,485,256,249,318,279,516,0,,,
1,1790872622064,-4781,11127,8925,-1015258,245567,1655444,0,0,0,225,172,151,272,174,282,346,108,182,212,111,267,0,,,
2,1790872622064,961,-617,10160,262672,-116064,-18325,0,0,0,402,214,350,266,236,332,480,241,239,311,244,528,0,,,
1,1790872622080,-3177,6992,7686,-2076941,758694,1134987,0,0,0,220,170,145,271,179,280,311,107,172,216,114,268,0,,,
2,1790872622080,875,-559,10117,268780,-75747,-34208,0,0,0,408,218,348,270,243,332,469,220,236,296,216,534,0,,,
1,1790872622096,-2890,6518,4111,-2051285,1031140,741590,0,0,0,221,171,146,282,185,285,304,111,174,218,115,269,0,,,
2,1790872622096,918,-540,10107,277332,-34208,-46425,0,0,0,410,207,324,274,239,333,456,201,241,279,190,537,0,,,
1,1790872622112,-2196,8241,1986,-2370157,734260,305432,0,0,0,221,173,150,288,183,291,354,117,191,216,115,271,0,,,
2,1790872622112,1019,-564,10098,302989,-9773,-61086,0,0,0,416,203,299,277,242,337,446,191,249,269,174,544,0,,,
1,1790872622128,-1268,8413,2708,-3401297,416610,-215024,0,0,0,223,176,151,288,183,295,326,104,176,214,118,275,0,,,
2,1790872622128,1000,-622,10064,327423,-10995,-72082,0,0,0,421,209,290,280,250,343,433,180,250,249,164,552,0,,,
1,1790872622144,-1737,7604,3565,-4230852,163711,-491135,0,0,0,219,177,153,286,186,299,349,116,192,211,118,281,0,,,
2,1790872622144,971,-698,10035,343306,-8552,-83077,0,0,0,424,213,279,285,251,344,420,165,246,218,145,557,0,,,
1,1790872622160,-2091,6695,4187,-4706105,-399505,-373849,0,0,0,218,176,156,285,186,301,342,110,191,216,119,285,0,,,
2,1790872622160,938,-756,10002,342084,3665,-89186,0,0,0,434,216,253,281,248,338,414,148,243,210,127,553,0,,,
1,1790872622176,-842,6010,5288,-5040859,-987158,-113620,0,0,0,217,180,157,285,185,302,325,106,183,216,122,286,0,,,
2,1790872622176,961,-813,9973,326202,12217,-86742,0,0,0,442,214,215,282,251,338,414,132,242,200,111,554,0,,,
1,1790872622192,727,5666,7025,-5293758,-1165530,63529,0,0,0,220,181,159,288,186,306,354,118,203,218,121,286,0,,,
2,1790872622192,1028,-861,9973,317649,7330,-84299,0,0,0,448,220,208,278,248,342,397,121,247,186,97,563,0,,,
1,1790872622208,827,5685,9054,-5616295,-1231504,103847,0,0,0,213,182,156,272,180,300,359,121,206,215,119,287,0,,,
2,1790872622208,1091,-904,9992,323758,-4886,-92851,0,0,0,454,225,206,276,261,342,390,115,245,191,106,578,0,,,
1,1790872622224,756,5580,11088,-6020687,-1463633,107512,0,0,0,219,183,162,288,187,307,369,126,212,213,119,288,0,,,
2,1790872622224,1124,-971,10002,338419,-14660,-109955,0,0,0,461,225,198,282,252,342,387,126,252,192,98,584,0,,,
1,1790872622240,885,4982,12840,-6352998,-1695761,97738,0,0,0,220,191,161,297,191,307,377,129,214,284,119,277,0,,,
2,1790872622240,1153,-1043,10002,356745,-30543,-138055,0,0,0,460,225,198,283,254,346,387,128,260,182,86,585,0,,,
1,1790872622256,957,4154,14716,-6558249,-1890017,87964,0,0,0,222,197,159,302,192,307,367,120,202,253,119,283,0,,,
2,1790872622256,1072,-1119,9920,361632,-56199,-158824,0,0,0,457,229,185,287,255,363,374,127,252,180,94,589,0,,,
1,1790872622272,856,3799,16731,-6660874,-2032959,73303,0,0,0,224,201,160,304,193,306,351,110,187,223,120,289,0,,,
2,1790872622272,952,-1177,9897,361632,-65973,-167377,0,0,0,465,231,171,296,255,367,367,127,254,180,88,590,0,,,
1,1790872622288,435,3718,19612,-6785491,-2097711,45204,0,0,0,222,202,161,303,192,306,336,104,179,222,119,290,0,,,
2,1790872622288,1019,-1206,10069,377514,-50090,-171042,0,0,0,471,234,157,307,269,363,346,111,248,266,90,568,0,,,
1,1790872622304,-86,2895,23785,-6989520,-2183232,-62308,0,0,0,220,202,161,303,193,306,337,104,183,219,118,290,0,,,
2,1790872622304,1225,-1253,10323,436157,-30543,-197920,0,0,0,477,237,139,315,270,362,345,108,253,219,82,583,0,,,
1,1790872622320,-215,-148,28437,-7205766,-2335948,-389732,0,0,0,217,205,160,297,193,306,340,105,187,216,118,289,0,,,
2,1790872622320,1244,-1340,10413,529009,-19547,-245567,0,0,0,477,236,129,314,264,363,346,109,254,184,81,601,0,,,
1,1790872622336,-67,-6365,33376,-7398799,-2476447,-883311,0,0,0,209,206,158,286,192,304,341,107,188,214,118,289,0,,,
2,1790872622336,947,-1435,10260,614530,0,-266337,0,0,0,477,238,125,325,269,366,346,110,254,197,85,609,0,,,
1,1790872622352,-57,-14429,35357,-7343821,-2342057,-1207069,0,0,0,202,206,158,280,194,305,375,116,207,213,115,288,0,,,
2,1790872622352,789,-1541,10193,697608,34208,-263893,0,0,0,483,244,125,336,281,371,345,109,254,197,82,619,0,,,
1,1790872622368,-2469,-24082,33103,-6582683,-1792278,-1376890,0,0,0,195,210,169,273,193,309,374,122,215,209,114,290,0,,,
2,1790872622368,957,-1631,10581,812450,83077,-259006,0,0,0,487,250,123,338,282,376,337,109,250,190,80,624,0,,,
1,1790872622384,-7016,-31691,27508,-5147150,-1716531,-1313360,0,0,0,197,216,169,275,203,315,367,116,211,204,112,294,0,,,
2,1790872622384,957,-1660,11227,982271,130725,-262672,0,0,0,487,276,121,335,280,381,330,114,250,193,86,629,0,,,
1,1790872622400,-4053,-37176,20751,-3330437,-3142290,-463035,0,0,0,196,220,167,277,209,317,364,116,211,205,112,296,0,,,
2,1790872622400,660,-1641,12069,1243721,166155,-238237,0,0,0,493,318,127,322,284,382,328,119,253,193,86,644,0,,,
1,1790872622416,9562,-41248,16731,-1833817,-4118453,399505,0,0,0,200,224,170,279,210,321,373,118,219,206,111,299,0,,,
2,1790872622416,713,-1708,13003,1609019,163711,-172263,0,0,0,505,302,138,330,265,380,309,111,239,205,78,646,0,,,
1,1790872622432,20019,-43330,15137,-342084,-2321287,174707,0,0,0,199,227,170,276,210,319,329,100,196,217,120,297,0,,,
2,1790872622432,1521,-1923,13692,2057394,131946,-153938,0,0,0,518,245,137,336,212,374,298,110,243,209,64,642,0,,,
1,1790872622448,15051,-38970,14859,1492954,442266,-361632,0,0,0,165,229,136,275,226,296,345,188,180,270,232,227,0,,,
2,1790872622448,2335,-2196,13898,2560747,76969,-263893,0,0,0,509,257,137,326,205,364,285,110,243,215,82,642,0,,,
1,1790872622464,23,-15673,19956,3444058,1892460,-306654,0,0,0,167,225,107,287,229,299,366,247,172,326,303,219,0,,,
2,1790872622464,2014,-2258,14237,3033556,12217,-406836,0,0,0,507,273,139,314,212,354,256,157,239,215,69,629,0,,,
1,1790872622480,-9136,26422,15702,5051855,2062281,251676,0,0,0,194,235,107,297,231,317,377,297,180,348,347,252,0,,,
2,1790872622480,1895,-2306,15084,3567452,-91629,-498466,0,0,0,483,284,136,304,214,357,225,97,234,185,74,607,0,,,
1,1790872622496,-6982,25561,9810,5784893,3054326,441044,0,0,0,202,240,111,304,239,332,399,345,191,354,383,273,0,,,
2,1790872622496,3833,-2713,16152,4298047,-277332,-679282,0,0,0,458,298,126,296,241,361,203,108,241,163,89,581,0,,,
1,1790872622512,-335,-3627,16549,6052452,3290120,-288328,0,0,0,199,231,118,306,234,339,420,364,194,372,405,284,0,,,
2,1790872622512,4967,-2952,18004,5093394,-437379,-1028697,0,0,0,430,287,124,300,239,355,172,94,225,153,79,535,0,,,
1,1790872622528,3704,-10279,23101,5744576,2197893,-768468,0,0,0,215,229,139,312,230,339,428,359,193,401,426,303,0,,,
2,1790872622528,4187,-3110,21899,6017022,-701273,-1374446,0,0,0,409,259,125,280,224,331,161,82,216,152,69,490,0,,,
1,1790872622544,3230,-1024,20827,4519181,970053,-256563,0,0,0,250,241,190,325,241,343,433,355,198,425,439,331,0,,,
2,1790872622544,4048,-4154,26786,6789156,-1131322,-1477072,0,0,0,373,225,118,253,190,303,167,84,183,140,56,440,0,,,
1,1790872622560,263,1067,14740,2588846,487470,298102,0,0,0,283,256,258,319,240,356,444,381,222,435,430,363,0,,,
2,1790872622560,5029,-4929,30045,7395134,-1412320,-1561371,0,0,0,309,183,113,207,145,258,177,90,157,120,54,357,0,,,
1,1790872622576,-1430,-1019,11284,1067792,426383,296880,0,0,0,306,284,288,326,260,373,463,443,257,436,444,383,0,,,
2,1790872622576,6580,-4082,31150,8134281,-1372003,-1762957,0,0,0,218,134,94,178,105,209,183,99,137,99,53,220,0,,,
1,1790872622592,-1091,-2517,10643,345749,564439,-9773,0,0,0,323,315,358,330,282,382,452,376,265,455,412,397,0,,,
2,1790872622592,7843,105,28087,8527678,-987158,-2067167,0,0,0,160,105,83,171,81,188,183,100,128,88,45,136,0,,,
1,1790872622608,-272,-1110,10835,379958,522900,-45204,0,0,0,351,338,347,355,275,398,457,354,258,467,387,412,0,,,
2,1790872622608,8805,6475,17712,7833735,-513126,-2433687,0,0,0,155,102,89,165,73,185,184,98,130,93,45,133,0,,,
1,1790872622624,-76,-138,10624,432492,361632,31764,0,0,0,354,335,442,334,278,398,468,322,253,458,369,419,0,,,
2,1790872622624,8485,9356,9231,5106833,119729,-2475225,0,0,0,162,101,94,163,72,181,187,102,129,97,51,135,0,,,
1,1790872622640,-191,-263,10337,409279,230907,68416,0,0,0,389,349,453,337,273,393,480,335,281,465,330,430,0,,,
2,1790872622640,6451,10993,7753,1165530,718377,-2131919,0,0,0,166,95,98,168,73,184,188,103,129,93,46,142,0,,,
1,1790872622656,-215,-349,10294,409279,147829,68416,0,0,0,410,352,456,346,297,410,475,298,287,451,314,448,0,,,
2,1790872622656,3235,9451,10337,-2328618,416610,-1466076,0,0,0,168,100,98,168,70,185,200,107,135,102,49,147,0,,,
1,1790872622672,-201,-358,10366,439822,89186,76969,0,0,0,425,363,460,348,292,408,479,268,283,429,292,456,0,,,
2,1790872622672,3216,6178,7796,-2954144,-583987,-963945,0,0,0,167,93,100,168,70,188,196,109,140,98,47,151,0,,,
1,1790872622688,-119,-402,10356,461814,34208,86742,0,0,0,437,371,450,349,309,406,465,244,273,410,276,464,0,,,
2,1790872622688,4331,5364,3804,-2750115,-893084,-603534,0,0,0,165,98,95,171,77,193,195,107,142,97,56,151,0,,,
1,1790872622704,-52,-454,10279,471587,-19547,85521,0,0,0,451,369,449,350,301,401,477,220,271,390,245,469,0,,,
2,1790872622704,3957,6915,2512,-3145955,-357967,-120951,0,0,0,165,98,99,165,76,193,192,108,138,102,52,155,0,,,
1,1790872622720,-153,-492,10251,477696,-69638,89186,0,0,0,457,361,454,357,303,409,482,202,281,379,214,478,0,,,
2,1790872622720,2536,7939,3565,-4172209,207694,568104,0,0,0,165,99,96,169,76,199,196,110,142,101,52,157,0,,,
1,1790872622736,-258,-521,10284,483805,-97738,112399,0,0,0,458,365,452,363,305,421,464,180,283,373,201,482,0,,,
2,1790872622736,1856,6963,5154,-5060407,469144,1270599,0,0,0,164,94,99,166,72,200,194,102,141,101,53,167,0,,,
1,1790872622752,-224,-593,10294,492357,-112399,145385,0,0,0,463,379,429,375,305,422,446,162,282,370,200,475,0,,,
2,1790872622752,2263,5551,5728,-5189911,807563,1720196,0,0,0,167,99,109,167,73,205,192,104,146,99,52,170,0,,,
1,1790872622768,-224,-698,10256,505796,-123394,164933,0,0,0,469,378,391,392,322,417,432,148,279,377,196,470,0,,,
2,1790872622768,2139,5044,6451,-5167919,1302364,1969429,0,0,0,168,97,107,168,74,206,195,106,147,91,42,168,0,,,
1,1790872622784,-234,-818,10236,526565,-109955,173485,0,0,0,470,365,382,381,315,423,411,109,256,376,190,470,0,,,
2,1790872622784,1210,5245,8059,-5363396,1781283,2062281,0,0,0,166,96,105,169,73,208,198,108,148,103,54,173,0,,,
1,1790872622800,-220,-923,10222,547335,-64751,173485,0,0,0,466,378,382,384,326,433,430,139,300,354,189,466,0,,,
2,1790872622800,478,5053,10246,-5866749,1996307,1954768,0,0,0,167,100,108,175,78,211,197,106,142,102,53,170,0,,,
1,1790872622816,-215,-1019,10193,555887,-7330,169820,0,0,0,467,385,351,430,345,421,405,120,257,373,185,454,0,,,
2,1790872622816,138,4541,12112,-6271142,2234545,1678657,0,0,0,167,104,109,180,82,212,199,103,140,101,50,165,0,,,
1,1790872622832,-196,-1110,10179,568104,36651,167377,0,0,0,457,375,345,402,355,428,408,129,273,360,189,468,0,,,
2,1790872622832,-1000,4249,14453,-6566801,2590068,1348790,0,0,0,163,101,98,182,81,211,203,104,141,97,47,155,0,,,
1,1790872622848,-143,-1220,10083,587652,40317,171042,0,0,0,457,381,342,388,377,428,401,120,269,358,194,465,0,,,
2,1790872622848,-2359,3747,17071,-6779382,2800206,1172861,0,0,0,162,95,91,182,77,209,208,103,145,95,47,151,0,,,
1,1790872622864,-148,-1320,9940,586430,29321,182037,0,0,0,461,406,312,395,364,423,398,115,242,352,186,467,0,,,
2,1790872622864,-2967,2445,19880,-6789156,2809980,1187522,0,0,0,166,100,100,183,76,212,213,100,156,101,51,161,0,,,
1,1790872622880,-287,-1402,9877,558330,37873,210137,0,0,0,468,393,324,406,366,429,381,98,229,344,176,471,0,,,
2,1790872622880,-2890,1052,23455,-6638883,2587625,1213178,0,0,0,166,109,104,184,79,217,218,98,162,101,51,166,0,,,
1,1790872622896,-397,-1469,9959,533896,57421,256563,0,0,0,479,368,312,404,350,433,413,109,257,338,169,477,0,,,
2,1790872622896,-2474,-617,27757,-6658431,2007303,1105666,0,0,0,162,106,100,179,79,215,219,97,159,105,56,170,0,,,
1,1790872622912,-387,-1536,10217,544891,62308,318871,0,0,0,468,377,299,399,357,430,417,119,267,343,177,475,0,,,
2,1790872622912,-1430,-4063,31485,-7066489,1291369,794124,0,0,0,160,105,102,180,81,218,219,97,161,104,47,170,0,,,
1,1790872622928,-272,-1603,10500,623082,28099,381179,0,0,0,469,391,286,390,370,435,425,122,285,339,183,478,0,,,
2,1790872622928,-961,-9485,33725,-7586946,855211,477696,0,0,0,154,103,94,182,74,216,225,96,166,97,39,169,0,,,
1,1790872622944,-138,-1660,10509,731816,-4886,428827,0,0,0,476,397,247,392,388,434,430,124,287,335,183,480,0,,,
2,1790872622944,-177,-17185,33256,-7655363,476474,279776,0,0,0,151,97,93,181,68,216,229,95,160,105,44,162,0,,,
1,1790872622960,301,-1694,10193,824668,-26878,436157,0,0,0,475,408,224,395,396,428,427,127,277,332,182,479,0,,,
2,1790872622960,4618,-27212,28135,-6709743,0,-72082,0,0,0,150,97,95,187,80,220,239,112,173,106,57,175,0,,,
1,1790872622976,708,-1732,10117,884532,-35430,378736,0,0,0,478,404,225,395,383,433,408,122,265,326,179,490,0,,,
2,1790872622976,5699,-37803,21406,-5312084,300545,-908967,0,0,0,155,106,103,187,80,223,227,106,165,105,57,177,0,,,
1,1790872622992,536,-1837,10701,961501,-20769,279776,0,0,0,479,391,207,408,386,441,356,104,226,329,178,494,0,,,
2,1790872622992,-5427,-47082,16491,-3457497,996932,-2024407,0,0,0,156,106,104,185,82,223,229,103,172,111,56,179,0,,,
1,1790872623008,177,-1981,11514,1147204,18325,223576,0,0,0,467,403,206,419,398,439,341,101,215,328,176,483,0,,,
2,1790872623008,-20598,-51031,15381,-1390329,26878,-2053728,0,0,0,150,106,105,185,83,216,222,107,167,102,55,167,0,,,
1,1790872623024,244,-2081,12481,1436755,26878,180816,0,0,0,464,408,196,422,389,424,363,114,229,325,172,477,0,,,
2,1790872623024,-19296,-46144,15175,723264,-1964542,-1226617,0,0,0,143,101,99,188,84,218,239,131,159,121,87,151,0,,,
1,1790872623040,-100,-2215,13716,1904677,2443,146607,0,0,0,470,430,183,391,375,417,364,120,239,312,173,484,0,,,
2,1790872623040,-3924,-29255,17123,2343279,-2682920,-761138,0,0,0,132,99,75,181,92,215,286,234,152,182,194,140,0,,,
1,1790872623056,-674,-2311,14821,2480112,0,184481,0,0,0,463,416,193,388,407,415,332,118,220,301,182,483,0,,,
2,1790872623056,10581,3450,18789,3689626,-2050063,-976162,0,0,0,142,100,75,183,87,228,332,317,165,240,294,186,0,,,
1,1790872623072,-1057,-2249,15903,3167947,51312,306654,0,0,0,460,417,185,393,405,398,313,120,223,302,170,468,0,,,
2,1790872623072,16022,38621,12945,4686558,-1653001,-1513724,0,0,0,154,100,85,195,77,248,381,362,179,315,365,236,0,,,
1,1790872623088,-1966,-2153,17439,3966958,205250,477696,0,0,0,446,413,188,375,391,406,273,107,228,281,159,462,0,,,
2,1790872623088,8365,17367,15467,5607742,-2607172,-836885,0,0,0,172,97,93,214,68,258,440,395,188,381,420,258,0,,,
1,1790872623104,-4149,-2196,19282,4834387,527787,763581,0,0,0,439,410,170,369,381,412,246,105,224,262,153,450,0,,,
2,1790872623104,-268,-9150,24838,5395161,-2535090,375071,0,0,0,208,100,118,227,60,262,483,399,196,404,424,279,0,,,
1,1790872623120,-6709,-2364,21540,5883853,1224173,1296256,0,0,0,433,399,156,361,370,398,251,113,212,253,148,440,0,,,
2,1790872623120,-1995,-9002,24053,3007900,-1533271,558330,0,0,0,239,105,170,219,60,269,496,380,200,403,377,320,0,,,
1,1790872623136,-6489,-4120,25221,6825808,2343279,1897347,0,0,0,422,350,147,342,337,371,279,116,208,244,137,428,0,,,
2,1790872623136,-76,-756,15769,1222952,-792903,189368,0,0,0,265,111,207,225,72,280,513,369,205,372,366,359,0,,,
1,1790872623152,-4321,-7298,29987,7489207,3220481,2284635,0,0,0,375,296,155,317,294,349,308,113,208,226,123,409,0,,,
2,1790872623152,1660,3134,8159,724486,-359188,-53756,0,0,0,283,154,223,231,99,290,497,354,217,347,343,379,0,,,
1,1790872623168,-2890,-7068,33582,7820296,4124562,2343279,0,0,0,290,259,173,297,254,323,321,116,197,216,122,344,0,,,
2,1790872623168,1517,14,9638,910189,-315206,86742,0,0,0,316,170,245,246,135,299,513,345,229,362,308,393,0,,,
1,1790872623184,-6087,-1454,30562,7679797,5020090,2029294,0,0,0,232,237,173,282,228,295,323,120,178,221,131,274,0,,,
2,1790872623184,1239,-899,11117,807563,-320093,142942,0,0,0,329,165,287,260,148,307,504,313,233,321,284,419,0,,,
1,1790872623200,-9447,6077,19703,6354220,4173431,1348790,0,0,0,229,234,160,274,226,290,316,113,172,219,134,282,0,,,
2,1790872623200,1153,-19,10720,646295,-282219,69638,0,0,0,355,180,270,284,167,313,521,289,230,324,259,444,0,,,
1,1790872623216,-7705,9662,12438,3857003,2390926,425162,0,0,0,236,230,160,284,218,291,303,111,168,214,134,277,0,,,
2,1790872623216,1158,315,10203,597426,-226020,-1221,0,0,0,367,185,366,283,174,333,507,244,244,298,230,462,0,,,
1,1790872623232,-4670,9337,10863,719599,1108109,-708603,0,0,0,236,224,165,287,214,293,339,123,186,216,127,267,0,,,
2,1790872623232,1119,76,10203,616973,-173485,-41538,0,0,0,372,195,327,281,196,330,487,213,241,271,186,477,0,,,
1,1790872623248,-5259,7331,9150,-1483180,421497,-1635897,0,0,0,230,218,156,289,212,294,303,108,165,222,130,267,0,,,
2,1790872623248,885,-100,10236,610865,-113620,-54977,0,0,0,383,199,323,288,195,332,482,188,246,248,159,485,0,,,
1,1790872623264,-5589,6077,5168,-2031737,-398284,-1782504,0,0,0,219,216,152,277,208,290,319,115,175,222,133,272,0,,,
2,1790872623264,837,-153,10145,569326,-56199,-53756,0,0,0,390,205,309,288,199,346,476,177,250,228,143,492,0,,,
1,1790872623280,-3436,6714,3034,-2480112,-605978,-1428202,0,0,0,213,213,150,264,203,284,347,126,186,220,134,268,0,,,
2,1790872623280,1014,-220,10093,522900,-36651,-53756,0,0,0,400,209,298,292,205,340,463,156,249,210,111,496,0,,,
1,1790872623296,-2196,7221,2909,-3457497,-228463,-1034805,0,0,0,208,209,145,264,204,282,364,135,195,223,138,263,0,,,
2,1790872623296,1143,-311,10117,502131,-56199,-74525,0,0,0,406,211,287,295,212,335,438,125,241,197,90,504,0,,,
1,1790872623312,-2957,6460,3785,-4494746,1221,-813672,0,0,0,205,208,143,264,204,283,371,137,198,223,136,262,0,,,
2,1790872623312,1148,-349,10208,498466,-72082,-101403,0,0,0,406,216,264,295,224,340,416,113,241,192,89,510,0,,,
1,1790872623328,-3503,5455,4570,-5196019,-101403,-658512,0,0,0,201,208,142,267,206,285,366,137,196,225,139,262,0,,,
2,1790872623328,1124,-387,10299,519235,-81855,-128281,0,0,0,415,247,253,301,241,351,406,121,246,188,88,514,0,,,
1,1790872623344,-3369,4656,5360,-5529552,-357967,-604756,0,0,0,200,211,144,251,213,273,363,138,195,227,140,261,0,,,
2,1790872623344,1072,-483,10222,564439,-87964,-147829,0,0,0,420,257,251,306,247,356,392,120,244,179,80,521,0,,,
1,1790872623360,-3120,4053,6322,-5734802,-566882,-676838,0,0,0,198,214,146,253,213,277,355,133,191,227,141,263,0,,,
2,1790872623360,1067,-655,9997,596204,-87964,-162490,0,0,0,415,225,241,307,244,352,380,110,240,174,74,523,0,,,
1,1790872623376,-3201,3541,7662,-5955936,-810007,-894306,0,0,0,197,217,148,270,209,291,332,122,178,226,142,266,0,,,
2,1790872623376,1105,-789,9839,579100,-95294,-175929,0,0,0,421,226,234,312,255,354,383,110,244,176,70,521,0,,,
1,1790872623392,-3579,3072,9179,-6167295,-1111774,-1150870,0,0,0,199,219,152,269,208,294,334,123,181,226,141,269,0,,,
2,1790872623392,1167,-885,9772,547335,-114842,-201585,0,0,0,423,234,219,306,269,348,382,114,246,168,64,524,0,,,
1,1790872623408,-3871,2522,10820,-6311459,-1459967,-1340238,0,0,0,199,223,151,264,205,296,365,134,199,226,139,271,0,,,
2,1790872623408,1081,-966,9719,503352,-145385,-239459,0,0,0,428,243,214,307,296,346,367,100,244,174,78,530,0,,,
1,1790872623424,-3986,2057,12376,-6396980,-1732413,-1434311,0,0,0,201,234,151,272,207,296,354,128,194,226,138,270,0,,,
2,1790872623424,894,-1000,9753,465479,-153938,-256563,0,0,0,431,226,209,312,264,346,366,95,254,187,76,537,0,,,
1,1790872623440,-4197,1861,14276,-6458067,-1904677,-1370781,0,0,0,209,222,154,289,214,297,311,113,169,229,141,268,0,,,
2,1790872623440,799,-1019,9906,444709,-139277,-250454,0,0,0,437,236,195,317,263,353,365,100,248,202,71,529,0,,,
1,1790872623456,-4584,1837,16779,-6572909,-2023185,-1167974,0,0,0,211,223,154,294,217,302,296,106,158,237,139,267,0,,,
2,1790872623456,808,-1076,10026,448375,-123394,-240680,0,0,0,451,242,238,311,272,365,364,105,259,177,75,545,0,,,
1,1790872623472,-4953,1268,20330,-6731734,-2111150,-893084,0,0,0,206,222,154,289,216,302,151,46,80,226,140,273,0,,,
2,1790872623472,770,-1153,10007,465479,-107512,-233350,0,0,0,479,235,202,318,276,356,364,121,259,187,75,554,0,,,
1,1790872623488,-5120,-990,24565,-6776938,-2172236,-888198,0,0,0,209,225,158,289,218,302,293,118,174,224,136,271,0,,,
2,1790872623488,732,-1220,10107,492357,-78190,-228463,0,0,0,486,235,177,326,281,362,374,115,254,184,70,566,0,,,
1,1790872623504,-5154,-4704,28537,-6692639,-2289522,-1243721,0,0,0,206,226,156,292,221,306,349,126,194,222,133,272,0,,,
2,1790872623504,780,-1320,10212,548556,-35430,-229685,0,0,0,487,229,149,334,288,363,368,116,255,185,73,567,0,,,
1,1790872623520,-4493,-10122,31256,-6506936,-2571742,-1886351,0,0,0,195,226,164,273,214,307,365,132,203,220,132,279,0,,,
2,1790872623520,789,-1445,10174,614530,3665,-239459,0,0,0,483,238,130,339,292,366,359,112,255,187,74,573,0,,,
1,1790872623536,-2943,-16357,32553,-6211277,-2787988,-2433687,0,0,0,194,228,156,275,218,306,371,132,204,216,127,280,0,,,
2,1790872623536,823,-1526,10270,685390,39095,-254119,0,0,0,482,242,123,337,292,371,358,119,262,187,75,587,0,,,
1,1790872623552,-1713,-22388,31155,-5521000,-2535090,-2717128,0,0,0,197,231,150,282,225,306,377,129,205,218,126,284,0,,,
2,1790872623552,904,-1579,10696,795346,68416,-271224,0,0,0,489,242,121,335,289,378,350,124,263,185,77,602,0,,,
1,1790872623568,-4398,-28375,25240,-4196644,-2211332,-2306627,0,0,0,199,233,152,283,227,312,379,126,208,218,126,291,0,,,
2,1790872623568,933,-1636,11289,983493,92851,-280998,0,0,0,494,251,120,337,288,384,337,117,257,181,78,609,0,,,
1,1790872623584,-3043,-35132,19162,-3064100,-2736676,-1007927,0,0,0,199,236,154,284,229,316,379,126,211,217,125,294,0,,,
2,1790872623584,866,-1722,11840,1229060,130725,-282219,0,0,0,496,244,118,335,278,385,331,113,255,184,75,607,0,,,
1,1790872623600,8566,-40947,15663,-1912008,-2873510,403171,0,0,0,202,236,153,286,232,315,382,131,211,221,129,294,0,,,
2,1790872623600,894,-1832,12562,1543045,186924,-273667,0,0,0,501,226,120,343,259,384,325,116,252,190,73,612,0,,,
1,1790872623616,18937,-42182,14070,-348193,-1631010,712268,0,0,0,201,237,155,283,232,316,379,131,211,223,132,294,0,,,
2,1790872623616,1464,-1990,13491,1954768,208915,-285884,0,0,0,492,229,124,347,244,380,313,117,245,187,73,616,0,,,
1,1790872623632,16434,-35840,13850,1508837,709825,-74525,0,0,0,188,236,148,279,231,313,376,160,205,247,170,275,0,,,
2,1790872623632,2062,-2167,13883,2434908,153938,-394618,0,0,0,476,228,121,300,225,378,291,105,240,184,76,609,0,,,
1,1790872623648,3493,-22306,16750,2873510,1748296,-485026,0,0,0,161,235,106,291,248,291,383,269,177,310,297,218,0,,,
2,1790872623648,2225,-2306,13960,2959031,116064,-549778,0,0,0,487,238,128,299,224,373,273,107,248,180,74,607,0,,,
1,1790872623664,-6805,3579,19162,4218635,1882686,-434936,0,0,0,181,231,95,306,237,308,387,307,171,340,355,246,0,,,
2,1790872623664,1880,-2225,14955,3593109,138055,-698829,0,0,0,489,236,130,296,226,358,245,107,244,154,61,584,0,,,
1,1790872623680,-8394,28757,15271,5400048,2409252,-304210,0,0,0,206,243,111,290,230,326,428,382,203,383,412,273,0,,,
2,1790872623680,2483,-2234,17027,4331034,98960,-811229,0,0,0,465,274,123,277,229,364,216,111,242,159,85,547,0,,,
1,1790872623696,-2426,16702,15797,6261368,2928487,-679282,0,0,0,196,215,127,293,208,344,453,435,240,394,412,286,0,,,
2,1790872623696,4560,-2603,19684,5276653,-32986,-1021366,0,0,0,417,242,109,268,219,341,186,89,226,147,77,507,0,,,
1,1790872623712,5498,-10189,22861,6194173,1714087,-1282817,0,0,0,216,206,180,295,201,357,431,384,291,425,418,320,0,,,
2,1790872623712,5690,-3230,24182,6381098,-280998,-1365894,0,0,0,392,224,120,259,200,317,176,89,202,145,71,469,0,,,
1,1790872623728,5546,-7006,21655,4451985,150272,-514348,0,0,0,262,228,222,307,212,368,452,409,266,434,411,370,0,,,
2,1790872623728,5939,-3799,29212,7216761,-580321,-1589471,0,0,0,343,190,120,242,171,282,171,91,179,119,66,401,0,,,
1,1790872623744,918,373,15142,2332283,-307876,461814,0,0,0,315,253,246,323,227,377,465,400,265,453,378,420,0,,,
2,1790872623744,6724,-3460,32356,7869166,-739146,-1819156,0,0,0,272,146,110,189,122,232,180,88,148,109,58,295,0,,,
1,1790872623760,-1804,-67,11442,1133765,-45204,408057,0,0,0,355,270,280,334,243,392,482,387,294,458,349,467,0,,,
2,1790872623760,7872,-832,32347,8379849,-715934,-2195449,0,0,0,174,103,91,156,84,185,181,99,126,94,53,162,0,,,
1,1790872623776,-1416,-1689,10792,792903,45204,12217,0,0,0,386,303,326,347,260,407,494,364,308,453,312,497,0,,,
2,1790872623776,9734,5321,24297,8229576,-395840,-2624277,0,0,0,142,89,84,150,76,176,180,106,125,86,47,118,0,,,
1,1790872623792,-406,-1239,11189,940732,-83077,-152716,0,0,0,407,319,369,357,281,428,497,326,314,443,283,508,0,,,
2,1790872623792,10428,9930,11318,6456845,684169,-3067765,0,0,0,153,92,89,155,78,181,181,107,132,88,47,126,0,,,
1,1790872623808,-684,-473,10782,943175,-142942,-30543,0,0,0,422,320,384,361,284,444,500,279,316,422,258,514,0,,,
2,1790872623808,7614,12017,6733,3413514,1593136,-3247359,0,0,0,159,91,95,154,77,181,188,107,136,89,50,132,0,,,
1,1790872623824,-914,-445,10351,846659,-134390,48869,0,0,0,438,323,392,361,277,452,505,243,324,411,231,519,0,,,
2,1790872623824,1483,12524,9183,-516791,1202182,-2587625,0,0,0,161,91,97,152,73,182,193,107,135,84,50,136,0,,,
1,1790872623840,-837,-703,10289,791681,-125838,69638,0,0,0,448,324,401,368,288,459,502,216,335,410,208,519,0,,,
2,1790872623840,693,9700,8111,-2559525,-467922,-1378111,0,0,0,162,93,95,154,71,186,192,106,133,80,44,137,0,,,
1,1790872623856,-641,-794,10356,800233,-157603,85521,0,0,0,453,330,385,380,297,459,495,183,330,393,185,519,0,,,
2,1790872623856,4187,6637,3417,-3187494,-1462411,-339641,0,0,0,157,92,93,155,73,190,190,100,130,86,42,137,0,,,
1,1790872623872,-574,-861,10356,803898,-196698,100181,0,0,0,455,334,381,380,302,463,496,165,339,367,177,518,0,,,
2,1790872623872,5451,7159,1349,-3236364,-508239,12217,0,0,0,155,90,89,152,70,190,190,101,131,93,57,137,0,,,
1,1790872623888,-722,-1000,10313,777020,-185703,119729,0,0,0,461,336,303,381,307,439,506,150,315,357,162,525,0,,,
2,1790872623888,4010,8030,2105,-3821572,590095,401949,0,0,0,158,94,93,156,76,193,200,111,140,87,46,146,0,,,
1,1790872623904,-827,-1100,10327,746477,-119729,147829,0,0,0,459,340,274,392,318,452,483,145,307,349,161,513,0,,,
2,1790872623904,2148,7652,4297,-4623028,1152091,877202,0,0,0,162,99,99,157,78,193,199,111,135,94,57,154,0,,,
1,1790872623920,-775,-1153,10366,730594,-31764,178372,0,0,0,472,349,239,411,327,446,437,112,250,384,171,489,0,,,
2,1790872623920,2211,6456,5532,-4978551,1379333,1193630,0,0,0,160,95,98,158,75,196,199,113,140,97,55,152,0,,,
1,1790872623936,-703,-1234,10380,728151,32986,202807,0,0,0,465,379,239,385,365,439,456,133,297,337,174,503,0,,,
2,1790872623936,2091,5905,6743,-5180137,1809382,1324355,0,0,0,158,89,98,161,79,199,201,109,143,94,53,155,0,,,
1,1790872623952,-636,-1335,10385,745255,43982,217468,0,0,0,457,364,249,404,347,448,388,97,243,335,170,494,0,,,
2,1790872623952,794,5915,8839,-5497787,2243097,1315803,0,0,0,161,93,98,157,75,196,200,107,141,90,50,156,0,,,
1,1790872623968,-545,-1454,10346,777020,21991,216246,0,0,0,461,357,236,400,336,444,370,83,234,343,169,485,0,,,
2,1790872623968,-406,5690,11127,-5899736,2362826,1247386,0,0,0,160,89,94,159,77,196,198,104,140,90,54,154,0,,,
1,1790872623984,-516,-1608,10169,801455,15882,201585,0,0,0,453,355,242,398,338,446,383,94,248,348,171,480,0,,,
2,1790872623984,-660,5183,12902,-6197838,2272418,1084896,0,0,0,160,96,97,169,86,193,205,109,148,91,51,157,0,,,
1,1790872624000,-574,-1770,9853,785572,48869,193033,0,0,0,447,358,222,398,342,437,376,101,242,339,171,480,0,,,
2,1790872624000,-813,4714,14663,-6357885,2373822,840550,0,0,0,145,91,95,163,75,202,212,113,158,92,52,163,0,,,
1,1790872624016,-536,-1914,9523,733038,83077,196698,0,0,0,455,358,196,388,338,428,373,96,241,332,171,485,0,,,
2,1790872624016,-1330,3933,16482,-6409198,2599842,667064,0,0,0,144,91,101,161,71,212,212,104,159,91,55,164,0,,,
1,1790872624032,-287,-2057,9207,637743,92851,194255,0,0,0,464,356,184,380,334,426,396,99,260,326,165,489,0,,,
2,1790872624032,-1502,2412,18683,-6229603,2897944,588874,0,0,0,143,92,100,164,73,217,217,99,159,88,48,163,0,,,
1,1790872624048,-157,-2163,9045,521678,72082,161268,0,0,0,465,357,175,381,336,424,426,116,283,319,156,491,0,,,
2,1790872624048,-1292,1186,21550,-5881410,3066543,594982,0,0,0,140,91,99,167,72,219,221,95,161,93,44,168,0,,,
1,1790872624064,-248,-2220,9059,412944,57421,133168,0,0,0,466,358,177,379,336,424,442,124,294,317,154,493,0,,,
2,1790872624064,-497,4,24776,-5804441,2938261,653625,0,0,0,142,90,102,168,72,221,224,99,164,97,51,173,0,,,
1,1790872624080,-449,-2258,9145,309097,61086,128281,0,0,0,471,358,192,380,333,427,439,118,291,320,162,495,0,,,
2,1790872624080,52,-3278,27867,-6210056,2755002,719599,0,0,0,144,90,99,171,78,223,226,105,164,95,55,173,0,,,
1,1790872624096,-612,-2311,9227,196698,80634,161268,0,0,0,475,356,204,378,331,433,436,115,294,324,164,499,0,,,
2,1790872624096,-1464,-8389,30011,-6618113,2522873,823446,0,0,0,143,91,97,171,78,224,227,102,165,91,53,171,0,,,
1,1790872624112,-588,-2383,9289,101403,86742,216246,0,0,0,475,365,215,380,339,446,411,103,283,329,163,498,0,,,
2,1790872624112,-3479,-14816,30595,-6665761,1853365,1000597,0,0,0,142,93,101,166,71,221,229,104,169,87,49,170,0,,,
1,1790872624128,-220,-2349,9418,57421,51312,263893,0,0,0,470,366,210,391,342,446,347,81,235,343,173,487,0,,,
2,1790872624128,-2852,-20540,29140,-6010913,978606,1191187,0,0,0,140,92,101,169,68,224,226,100,166,94,47,176,0,,,
1,1790872624144,52,-2230,9825,86742,0,263893,0,0,0,471,372,200,388,343,446,401,95,272,336,174,490,0,,,
2,1790872624144,-622,-27437,24757,-4987103,354301,1354899,0,0,0,142,92,103,173,75,226,230,107,170,100,50,180,0,,,
1,1790872624160,-19,-2139,10768,239459,-42760,244346,0,0,0,476,378,199,396,359,464,408,105,284,326,174,501,0,,,
2,1790872624160,229,-38272,17563,-3729943,453262,927293,0,0,0,142,99,100,169,93,228,222,147,169,99,75,186,0,,,
1,1790872624176,-119,-2129,11873,514348,-76969,234572,0,0,0,475,390,190,409,361,462,381,108,274,314,163,505,0,,,
2,1790872624176,-6015,-47867,13601,-2214997,833220,-63529,0,0,0,150,112,108,168,97,225,220,152,166,99,92,188,0,,,
1,1790872624192,-172,-2182,13003,935845,-108734,226020,0,0,0,475,384,193,407,361,455,370,103,267,312,159,506,0,,,
2,1790872624192,-17578,-49327,14716,-182037,294437,-966388,0,0,0,128,90,85,175,86,216,253,161,151,143,117,148,0,,,
1,1790872624208,-569,-2278,14132,1490511,-140499,222354,0,0,0,479,397,192,407,372,453,367,102,268,312,161,510,0,,,
2,1790872624208,-10595,-32577,19913,2008524,-1754404,-967610,0,0,0,127,89,71,180,83,216,320,265,155,196,224,142,0,,,
1,1790872624224,-1426,-2402,15295,2151467,-169820,287106,0,0,0,480,388,189,404,376,453,339,100,260,310,166,505,0,,,
2,1790872624224,8939,1847,20086,4062253,-3092199,-1415985,0,0,0,151,91,88,181,70,243,358,315,180,228,297,204,0,,,
1,1790872624240,-2435,-2392,16893,2943148,-150272,514348,0,0,0,478,366,183,395,367,450,319,99,258,296,158,505,0,,,
2,1790872624240,17142,22746,15711,5409822,-4687779,-2201558,0,0,0,151,103,94,189,78,254,411,405,189,250,371,241,0,,,
1,1790872624256,-3038,-2043,19334,3909537,-28099,816115,0,0,0,464,380,179,387,359,444,301,103,254,276,147,493,0,,,
2,1790872624256,9614,7150,17865,5816658,-5116607,-1293812,0,0,0,164,102,101,195,75,258,436,455,194,272,390,265,0,,,
1,1790872624272,-3560,-1502,22344,5149593,322536,1109331,0,0,0,441,405,176,380,361,432,259,99,229,268,148,464,0,,,
2,1790872624272,-2680,-11328,24273,4896695,-3268129,943175,0,0,0,190,101,116,200,67,258,470,458,191,294,375,286,0,,,
1,1790872624288,-3876,-1746,25431,6547253,974940,1336573,0,0,0,424,376,158,364,353,402,244,94,207,260,148,450,0,,,
2,1790872624288,-4910,-5824,20406,2845410,-1605353,1120326,0,0,0,216,107,137,207,63,261,502,446,193,316,370,312,0,,,
1,1790872624304,-3445,-3062,29638,7819075,1638340,1480737,0,0,0,394,330,150,323,319,355,257,99,184,241,135,425,0,,,
2,1790872624304,-1119,995,12763,1281595,-878424,227241,0,0,0,234,110,160,206,55,262,522,434,205,327,370,340,0,,,
1,1790872624320,-3053,-3713,34103,8505687,2300518,1513724,0,0,0,327,280,149,302,274,321,269,92,158,229,125,395,0,,,
2,1790872624320,1517,512,9839,827111,-734260,-111177,0,0,0,242,106,183,201,47,262,546,425,213,326,364,360,0,,,
1,1790872624336,-5747,-1957,34505,8649851,3147177,1521054,0,0,0,248,219,162,284,214,295,289,96,159,222,126,305,0,,,
2,1790872624336,1253,-985,10236,687834,-585208,40317,0,0,0,253,105,197,210,55,270,554,422,213,332,367,378,0,,,
1,1790872624352,-10452,3627,27149,8197811,3626096,1536936,0,0,0,232,186,179,285,189,285,335,111,179,230,130,264,0,,,
2,1790872624352,373,-961,10859,549778,-411723,177150,0,0,0,259,105,201,217,62,273,552,417,216,334,357,387,0,,,
1,1790872624368,-11198,9069,14180,6337115,2797762,1461189,0,0,0,238,178,158,285,188,278,304,102,160,224,124,259,0,,,
2,1790872624368,454,-181,10447,389732,-279776,94073,0,0,0,264,107,203,233,59,277,554,410,222,318,329,382,0,,,
1,1790872624384,-8274,10289,8312,3358537,1561371,1047023,0,0,0,240,177,155,287,185,278,320,107,164,227,123,260,0,,,
2,1790872624384,684,4,10107,298102,-212581,14660,0,0,0,265,110,211,226,71,285,541,403,215,325,337,392,0,,,
1,1790872624400,-4039,8595,8456,-111177,972497,94073,0,0,0,238,179,155,273,181,275,321,103,162,227,124,263,0,,,
2,1790872624400,626,-148,10169,251676,-149051,-3665,0,0,0,274,115,218,226,56,283,514,379,207,337,320,394,0,,,
1,1790872624416,-3651,6738,7020,-2043955,1045801,-717155,0,0,0,231,174,180,268,176,283,356,116,183,230,124,264,0,,,
2,1790872624416,497,-119,10236,234572,-59864,-9773,0,0,0,273,120,220,215,75,288,505,355,214,290,303,396,0,,,
1,1790872624432,-5747,6164,3316,-2394591,856433,-965167,0,0,0,225,172,165,265,174,282,375,125,200,229,122,269,0,,,
2,1790872624432,521,-43,10184,232128,2443,-29321,0,0,0,280,114,215,226,86,296,492,331,210,278,279,391,0,,,
1,1790872624448,-5068,6920,1512,-2915048,249233,-821002,0,0,0,222,175,149,254,179,267,378,127,200,229,124,269,0,,,
2,1790872624448,607,-19,10102,252898,14660,-46425,0,0,0,293,132,221,228,92,292,491,310,217,300,244,388,0,,,
1,1790872624464,-3330,7145,2177,-4157548,15882,-750142,0,0,0,214,175,144,257,179,267,384,131,200,227,126,266,0,,,
2,1790872624464,626,-86,10054,293215,-20769,-41538,0,0,0,305,125,222,223,79,285,481,286,218,262,211,393,0,,,
1,1790872624480,-3388,5829,3799,-5149593,239459,-764803,0,0,0,208,174,146,264,178,277,386,133,202,225,125,265,0,,,
2,1790872624480,665,-134,10050,328645,-62308,-34208,0,0,0,307,127,223,226,87,293,475,250,219,245,182,406,0,,,
1,1790872624496,-4264,4383,4781,-5652946,295658,-701273,0,0,0,206,176,152,263,178,278,383,130,201,227,126,266,0,,,
2,1790872624496,722,-167,10054,355523,-119729,-34208,0,0,0,309,124,226,230,90,303,456,221,212,238,174,413,0,,,
1,1790872624512,-4694,3823,5240,-5715255,15882,-594982,0,0,0,204,177,150,266,178,276,384,130,199,232,131,268,0,,,
2,1790872624512,756,-239,10026,373849,-185703,-39095,0,0,0,314,125,235,237,97,310,446,219,215,234,171,423,0,,,
1,1790872624528,-4412,3661,6365,-5860641,-383623,-610865,0,0,0,204,180,148,269,182,276,386,132,197,233,132,264,0,,,
2,1790872624528,684,-368,9973,370184,-255341,-51312,0,0,0,324,136,240,238,110,312,453,220,227,226,161,434,0,,,
1,1790872624544,-4192,3364,7906,-6087882,-739146,-757472,0,0,0,202,183,147,266,182,277,386,134,198,234,134,265,0,,,
2,1790872624544,507,-469,9940,340862,-284663,-59864,0,0,0,334,145,241,236,118,313,455,211,229,217,148,439,0,,,
1,1790872624560,-4436,2914,9432,-6284581,-1031140,-994488,0,0,0,199,187,148,270,184,281,387,133,200,233,134,270,0,,,
2,1790872624560,373,-526,9944,315206,-279776,-63529,0,0,0,343,146,246,244,124,318,453,202,222,217,141,446,0,,,
1,1790872624576,-4785,2297,11026,-6357885,-1415985,-1237612,0,0,0,199,192,149,270,188,281,386,133,198,234,136,269,0,,,
2,1790872624576,344,-559,9978,298102,-251676,-63529,0,0,0,355,147,247,257,132,327,457,187,219,216,139,456,0,,,
1,1790872624592,-4891,1742,12730,-6356663,-1782504,-1406211,0,0,0,197,201,157,266,191,289,382,135,206,232,141,269,0,,,
2,1790872624592,368,-588,10002,291993,-228463,-64751,0,0,0,363,153,238,265,139,339,453,175,221,205,128,469,0,,,
1,1790872624608,-5120,1579,14644,-6385985,-1968207,-1411098,0,0,0,197,198,165,267,189,289,380,132,200,232,138,269,0,,,
2,1790872624608,382,-631,10045,298102,-218689,-73303,0,0,0,380,161,240,277,154,349,449,178,233,192,106,483,0,,,
1,1790872624624,-5618,1569,17635,-6541144,-2146580,-1323134,0,0,0,202,200,156,272,187,285,377,129,195,232,133,268,0,,,
2,1790872624624,397,-660,10102,316428,-221133,-84299,0,0,0,401,173,251,278,151,349,436,157,221,201,111,499,0,,,
1,1790872624640,-5963,804,21148,-6775717,-2285857,-1251052,0,0,0,202,201,154,276,187,285,381,131,197,232,130,267,0,,,
2,1790872624640,378,-698,10145,345749,-223576,-103847,0,0,0,400,210,245,277,163,337,442,157,230,196,105,506,0,,,
1,1790872624656,-6264,-1229,25187,-6929655,-2409252,-1321912,0,0,0,199,202,154,277,189,288,378,127,194,229,129,267,0,,,
2,1790872624656,263,-756,10117,378736,-210137,-129503,0,0,0,403,161,239,296,160,346,443,133,234,212,96,510,0,,,
1,1790872624672,-6307,-5719,29035,-6778160,-2638937,-1660331,0,0,0,200,203,154,277,190,290,376,127,198,230,127,269,0,,,
2,1790872624672,153,-837,10026,410501,-146607,-142942,0,0,0,413,161,242,288,155,345,447,133,245,197,96,525,0,,,
1,1790872624688,-5230,-11615,31572,-6349333,-2982244,-2030516,0,0,0,199,204,155,275,189,293,362,119,196,229,128,273,0,,,
2,1790872624688,105,-933,9944,431270,-78190,-147829,0,0,0,417,175,238,295,168,358,448,127,247,191,90,533,0,,,
1,1790872624704,-2311,-18444,31902,-5563760,-3094643,-2349387,0,0,0,196,206,161,274,196,303,368,118,205,223,123,280,0,,,
2,1790872624704,172,-1000,10035,444709,-20769,-150272,0,0,0,423,173,225,321,159,356,437,126,266,208,68,547,0,,,
1,1790872624720,-1895,-23038,28552,-4613254,-2552194,-2458121,0,0,0,195,215,168,274,208,315,380,119,216,221,121,288,0,,,
2,1790872624720,301,-1014,10318,514348,25656,-158824,0,0,0,422,178,218,311,174,366,435,109,261,189,61,559,0,,,
1,1790872624736,-3019,-29131,23239,-3513696,-2378709,-2034181,0,0,0,198,225,169,280,212,319,373,111,210,229,124,295,0,,,
2,1790872624736,445,-1019,10825,725707,84299,-177150,0,0,0,430,177,174,316,195,377,438,99,267,177,55,566,0,,,
1,1790872624752,1177,-37530,17616,-2300518,-2806314,-668286,0,0,0,200,227,165,289,218,317,338,99,186,235,126,297,0,,,
2,1790872624752,588,-1086,11385,1009149,153938,-201585,0,0,0,444,176,135,328,204,385,425,99,269,182,49,584,0,,,
1,1790872624768,14213,-42799,15142,-880867,-2186897,579100,0,0,0,199,228,156,292,226,315,258,86,137,246,154,292,0,,,
2,1790872624768,938,-1268,12093,1369559,257785,-243124,0,0,0,450,183,130,324,206,390,393,101,266,182,56,604,0,,,
1,1790872624784,19018,-41024,15692,805120,-270002,711047,0,0,0,180,226,119,280,223,294,379,193,170,297,252,253,0,,,
2,1790872624784,1646,-1569,12916,1799608,377514,-360410,0,0,0,454,192,133,310,204,395,363,103,266,176,63,610,0,,,
1,1790872624800,5125,-21028,17650,3090978,1865582,668286,0,0,0,179,226,91,297,230,299,363,265,154,329,331,246,0,,,
2,1790872624800,1842,-1765,14003,2280970,496022,-536339,0,0,0,455,196,130,299,194,393,338,105,261,176,63,610,0,,,
1,1790872624816,-9265,13141,15721,5115385,3760486,1372003,0,0,0,195,224,101,299,227,324,380,308,173,350,379,272,0,,,
2,1790872624816,1139,-1608,15549,2803871,527787,-675616,0,0,0,446,220,127,287,194,384,319,108,255,174,69,601,0,,,
1,1790872624832,-9466,22478,16142,5782450,5546656,1847256,0,0,0,201,234,116,294,220,335,431,393,206,381,413,291,0,,,
2,1790872624832,1253,-1454,16893,3390302,379958,-712268,0,0,0,438,261,123,282,209,380,295,113,256,164,80,570,0,,,
1,1790872624848,-2000,942,22172,5810550,4732983,400727,0,0,0,206,226,140,291,224,342,450,428,233,388,415,303,0,,,
2,1790872624848,2225,-1564,18300,4139222,210137,-800233,0,0,0,416,260,125,286,190,364,252,105,245,170,80,543,0,,,
1,1790872624864,4149,-8006,24139,5270545,2225992,-1137431,0,0,0,221,225,181,308,224,352,451,414,241,401,415,333,0,,,
2,1790872624864,3799,-1928,20947,5104389,122173,-1014036,0,0,0,385,257,121,274,193,348,212,100,234,152,79,502,0,,,
1,1790872624880,4077,-1282,16956,3652974,487470,-755029,0,0,0,257,236,232,302,217,371,459,416,269,419,410,370,0,,,
2,1790872624880,5025,-2019,25197,6195395,78190,-1309695,0,0,0,357,187,115,250,170,323,187,82,215,137,60,462,0,,,
1,1790872624896,1201,1541,11342,2147802,90408,9773,0,0,0,287,249,268,303,222,385,464,409,285,427,402,403,0,,,
2,1790872624896,6465,-2110,28738,7136127,12217,-1613905,0,0,0,292,148,103,202,130,283,179,86,187,112,51,392,0,,,
1,1790872624912,-765,-689,10078,1177748,301767,217468,0,0,0,322,260,312,319,231,395,471,396,292,456,386,429,0,,,
2,1790872624912,7843,-1115,30739,7707897,145385,-2035402,0,0,0,244,134,100,177,93,222,196,82,145,103,45,268,0,,,
1,1790872624928,-186,-2512,11036,691499,378736,-12217,0,0,0,354,271,359,324,231,399,483,384,299,478,376,447,0,,,
2,1790872624928,9121,1761,31088,8082968,485026,-2580294,0,0,0,152,109,98,155,74,192,197,101,135,82,49,124,0,,,
1,1790872624944,478,-1636,11203,480140,223576,-98960,0,0,0,379,285,377,322,228,395,493,372,301,477,367,457,0,,,
2,1790872624944,10562,6738,24345,7922922,954171,-3188716,0,0,0,136,93,91,153,66,193,198,97,138,81,55,121,0,,,
1,1790872624960,406,-177,10619,430049,0,-30543,0,0,0,404,297,374,335,234,394,494,359,301,482,347,464,0,,,
2,1790872624960,9810,11155,11462,5937610,1335351,-3706730,0,0,0,145,93,88,155,70,197,205,96,139,88,53,138,0,,,
1,1790872624976,38,-239,10323,415388,-87964,20769,0,0,0,410,291,395,343,243,402,488,340,305,474,323,477,0,,,
2,1790872624976,6350,12979,7063,2590068,1175304,-3422067,0,0,0,155,103,95,156,74,198,209,100,142,83,47,135,0,,,
1,1790872624992,-9,-483,10366,397062,-123394,29321,0,0,0,415,295,415,342,244,407,493,318,301,447,296,490,0,,,
2,1790872624992,3546,11533,8552,-795346,401949,-2134363,0,0,0,151,99,89,154,71,196,211,102,141,82,43,137,0,,,
1,1790872625008,57,-406,10404,412944,-164933,30543,0,0,0,412,297,427,336,243,419,492,281,312,425,268,502,0,,,
2,1790872625008,3244,8064,7647,-2463008,-423940,-951728,0,0,0,151,100,90,155,72,196,209,103,143,81,42,142,0,,,
1,1790872625024,62,-358,10361,437379,-210137,40317,0,0,0,418,299,395,339,247,412,484,266,309,395,260,497,0,,,
2,1790872625024,4000,6216,3445,-2074498,-601091,-485026,0,0,0,154,106,96,157,75,199,210,105,146,89,47,151,0,,,
1,1790872625040,62,-430,10265,467922,-252898,46425,0,0,0,424,310,391,341,258,414,484,258,313,386,247,497,0,,,
2,1790872625040,2790,7872,1909,-2141693,119729,-32986,0,0,0,152,104,94,159,75,203,212,102,144,100,57,162,0,,,
1,1790872625056,62,-507,10212,488692,-282219,36651,0,0,0,425,301,406,341,253,418,484,224,337,376,225,498,0,,,
2,1790872625056,1124,9107,2957,-2973691,858876,695164,0,0,0,150,103,92,159,75,204,212,100,144,98,57,164,0,,,
1,1790872625072,-33,-545,10236,511905,-315206,32986,0,0,0,427,303,384,343,253,422,484,199,333,365,197,500,0,,,
2,1790872625072,311,8533,4704,-3995058,1270599,1514945,0,0,0,149,107,94,159,74,203,215,106,147,91,50,158,0,,,
1,1790872625088,-138,-583,10289,543670,-329867,50090,0,0,0,439,318,335,347,255,414,489,176,317,349,175,504,0,,,
2,1790872625088,885,6791,5187,-4423886,1389107,1896125,0,0,0,152,110,100,156,75,205,205,101,145,87,56,158,0,,,
1,1790872625104,-172,-679,10275,572991,-328645,67195,0,0,0,446,314,319,351,258,416,472,143,290,344,163,495,0,,,
2,1790872625104,1234,5541,5685,-4612032,1606575,1908343,0,0,0,154,104,95,156,73,208,188,88,137,82,45,153,0,,,
1,1790872625120,-224,-813,10227,599869,-318871,79412,0,0,0,447,309,300,355,261,421,464,129,287,339,158,493,0,,,
2,1790872625120,631,5484,7154,-4893030,1783726,1580919,0,0,0,145,103,95,156,71,207,213,105,149,95,54,162,0,,,
1,1790872625136,-268,-933,10189,614530,-283441,94073,0,0,0,450,317,292,370,268,430,445,124,288,340,159,486,0,,,
2,1790872625136,244,5704,8848,-5329188,1744631,1216843,0,0,0,139,107,100,158,79,220,224,126,184,102,74,175,0,,,
1,1790872625152,-258,-1052,10141,612086,-237015,103847,0,0,0,454,321,294,385,279,438,423,114,280,347,160,478,0,,,
2,1790872625152,473,5508,10466,-5789780,1661553,871093,0,0,0,146,111,98,155,79,209,209,97,146,87,60,161,0,,,
1,1790872625168,-234,-1206,10040,609643,-202807,105068,0,0,0,450,322,282,391,293,438,408,99,259,350,159,479,0,,,
2,1790872625168,741,4867,12256,-6144082,1726305,598647,0,0,0,137,105,97,163,77,216,224,105,158,88,56,167,0,,,
1,1790872625184,-215,-1335,9959,602313,-191811,102625,0,0,0,446,333,276,400,305,439,386,90,231,346,158,477,0,,,
2,1790872625184,918,4082,14032,-6371324,1822821,474031,0,0,0,143,107,98,167,77,225,219,100,157,88,45,168,0,,,
1,1790872625200,-253,-1426,9920,581543,-193033,101403,0,0,0,455,326,263,402,298,440,398,92,253,337,144,478,0,,,
2,1790872625200,1770,2560,15869,-6343224,2004859,432492,0,0,0,144,108,104,167,78,228,226,106,166,93,47,171,0,,,
