sole_id,timestamp,accel_x,accel_y,accel_z,gyro_x,gyro_y,gyro_z,magn_x,magn_y,magn_z,pressure_01,pressure_02,pressure_03,pressure_04,pressure_05,pressure_06,pressure_07,pressure_08,pressure_09,pressure_10,pressure_11,pressure_12,corrupt,brick,transition,concrete,asphalt,grass
1,1790113078208,-1182,263,15970,2890614,359188,177150,0,0,0,225,164,221,304,162,340,453,422,231,459,424,301,0,,,,,
1,1790113078224,-1856,-1043,10796,1215621,634078,112399,0,0,0,254,171,241,314,179,355,437,364,218,464,431,313,0,,,,,
1,1790113078240,-966,-1019,9849,384845,365297,-125838,0,0,0,279,194,247,346,219,376,435,347,218,465,419,334,0,,,,,
1,1790113078256,-603,-397,10294,134390,122173,-111177,0,0,0,294,223,257,352,258,389,421,311,200,470,419,353,0,,,,,
1,1790113078272,-899,-9,10442,174707,42760,7330,0,0,0,305,250,264,344,259,395,434,341,238,472,412,370,0,,,,,
1,1790113078288,-1057,-67,10069,174707,34208,13439,0,0,0,316,260,283,348,255,401,431,321,241,474,409,390,0,,,,,
1,1790113078304,-981,-119,9968,166155,6108,0,0,0,0,330,264,290,355,258,409,430,296,238,477,397,416,0,,,,,
1,1790113078320,-909,-105,10050,179594,-34208,3665,0,0,0,341,278,280,356,264,416,446,338,274,463,363,437,0,,,,,
1,1790113078336,-933,-110,10107,194255,-75747,15882,0,0,0,345,286,294,360,271,427,438,329,276,441,338,453,0,,,,,
1,1790113078352,-976,-143,10088,196698,-102625,21991,0,0,0,348,286,304,363,266,435,438,294,283,432,324,469,0,,,,,
1,1790113078368,-976,-167,10054,199142,-113620,26878,0,0,0,355,297,284,379,282,440,442,285,286,426,305,467,0,,,,,
1,1790113078384,-952,-201,10035,207694,-120951,34208,0,0,0,378,294,288,399,294,441,444,261,282,419,270,469,0,,,,,
1,1790113078400,-933,-239,10035,213802,-130725,39095,0,0,0,400,296,301,395,296,451,454,275,325,417,259,467,0,,,,,
2,1790113078400,0,0,0,0,0,0,0,0,0,160,78,109,144,72,184,174,119,142,97,56,158,0,,,,,
1,1790113078416,-952,-272,10031,211359,-138055,42760,0,0,0,405,310,283,410,288,441,444,246,309,398,230,461,0,,,,,
2,1790113078416,-2699,-2574,3565,-73303,-139277,-175929,0,0,0,160,74,108,143,71,186,175,111,143,109,76,165,0,,,,,
1,1790113078432,-995,-311,10021,213802,-134390,47647,0,0,0,428,303,288,410,288,463,451,238,338,384,213,466,0,,,,,
2,1790113078432,-5541,-4623,11543,-1100779,-963945,-1281595,0,0,0,162,76,113,142,67,186,177,102,142,99,55,169,0,,,,,
1,1790113078448,-1005,-354,10002,222354,-112399,50090,0,0,0,430,307,284,419,302,470,446,211,338,373,203,469,0,,,,,
2,1790113078448,-569,1483,14553,-4251622,-773355,-1203404,0,0,0,161,77,111,145,68,182,175,104,136,73,41,154,0,,,,,
1,1790113078464,-1000,-387,9997,230907,-89186,53756,0,0,0,440,324,306,431,298,473,424,181,306,380,203,470,0,,,,,
2,1790113078464,2957,5116,14084,-6262590,904080,244346,0,0,0,162,77,113,140,58,185,175,96,134,101,59,155,0,,,,,
1,1790113078480,-961,-411,10031,240680,-69638,52534,0,0,0,452,326,291,418,307,471,427,177,301,374,196,472,0,,,,,
2,1790113078480,2957,4503,15027,-6739065,2320066,1199739,0,0,0,150,80,113,137,60,186,180,95,144,105,43,170,0,,,,,
1,1790113078496,-933,-440,10050,252898,-64751,46425,0,0,0,460,320,289,419,325,480,425,166,302,371,189,470,0,,,,,
2,1790113078496,1454,2325,18171,-6399424,2345722,886976,0,0,0,145,79,116,143,68,202,194,110,164,104,68,181,0,,,,,
1,1790113078512,-952,-488,10074,268780,-72082,41538,0,0,0,465,331,289,430,347,488,413,143,292,370,190,468,0,,,,,
2,1790113078512,1052,612,21320,-6246707,2257757,623082,0,0,0,140,68,113,143,68,203,186,114,156,84,50,168,0,,,,,
1,1790113078528,-1005,-531,10117,289550,-76969,47647,0,0,0,465,338,277,431,348,483,410,121,277,366,185,475,0,,,,,
2,1790113078528,1593,-880,24120,-6095213,2438574,651182,0,0,0,148,76,118,147,64,204,179,102,153,96,57,174,0,,,,,
1,1790113078544,-1048,-564,10217,322536,-76969,61086,0,0,0,462,334,263,437,340,484,410,112,270,362,179,483,0,,,,,
2,1790113078544,981,-2522,27408,-5908288,2755002,756251,0,0,0,150,106,120,145,99,204,188,118,158,106,73,182,0,,,,,
1,1790113078560,-1086,-603,10375,398284,-95294,80634,0,0,0,463,337,235,449,341,490,402,114,270,355,175,490,0,x,,,,
2,1790113078560,-1574,-5020,30231,-6146526,2730567,974940,0,0,0,151,95,124,148,86,206,183,116,157,110,64,173,0,x,,,,
1,1790113078576,-1086,-655,10533,503352,-142942,105068,0,0,0,472,334,211,455,334,479,401,108,270,355,162,499,0,,,,,
2,1790113078576,-3981,-10830,31246,-6546031,1896125,1565036,0,0,0,151,78,121,156,69,212,195,112,162,101,51,170,0,,,,,
1,1790113078592,-1033,-732,10672,629191,-211359,127059,0,0,0,475,337,224,474,341,479,405,104,267,363,159,500,0,,,,,
2,1790113078592,-1550,-18602,29159,-6384763,722042,2161241,0,0,0,148,72,124,161,67,223,198,103,163,97,47,178,0,,,,,
1,1790113078608,-981,-823,10691,742812,-256563,130725,0,0,0,487,363,214,462,339,492,389,103,269,358,159,522,0,,,,,
2,1790113078608,4781,-27982,22837,-5435478,367740,2171015,0,0,0,143,72,120,164,65,223,204,103,163,116,59,184,0,,,,,
1,1790113078624,-1005,-904,10792,846659,-257785,123394,0,0,0,503,350,210,465,344,483,411,116,293,344,161,537,0,,,,,
2,1790113078624,6049,-37860,16171,-4069584,1158200,1469741,0,0,0,145,73,113,164,65,213,199,103,154,113,55,178,0,,,,,
1,1790113078640,-1153,-985,11328,1006705,-222354,117286,0,0,0,504,354,220,479,393,491,396,112,271,375,181,542,0,,,,,
2,1790113078640,-4082,-45020,13476,-2444682,2221106,423940,0,0,0,149,76,116,160,69,209,184,98,145,95,48,176,0,,,,,
1,1790113078656,-1186,-1086,11950,1233947,-205250,124616,0,0,0,519,355,228,483,375,484,333,88,240,383,171,554,0,,,,,
2,1790113078656,-18181,-44651,14491,-434936,1244943,312763,0,0,0,140,79,108,158,73,203,210,124,152,113,86,169,0,,,,,
1,1790113078672,-1115,-1206,12620,1538158,-219911,125838,0,0,0,525,350,233,484,374,477,361,109,273,370,178,563,0,,,,,
2,1790113078672,-17482,-36137,15663,1431868,-1021366,1116661,0,0,0,133,80,91,169,83,191,258,189,148,146,132,137,0,,,,,
1,1790113078688,-1459,-1301,13548,1941329,-246789,128281,0,0,0,526,346,227,483,363,474,353,111,272,373,175,562,0,,,,,
2,1790113078688,-1177,-13807,19329,2933374,-2272418,1562593,0,0,0,157,76,85,176,84,196,309,258,154,218,195,173,0,,,,,
1,1790113078704,-2005,-1359,14438,2450791,-273667,195476,0,0,0,524,348,239,461,343,477,316,92,246,392,185,542,0,,,,,
2,1790113078704,9002,17037,13835,4299269,-2091602,773355,0,0,0,161,90,99,195,101,233,320,307,185,253,286,211,0,,,,,
1,1790113078720,-2167,-1359,15041,3020117,-290771,326202,0,0,0,514,350,242,446,356,472,296,86,252,368,189,535,0,,,,,
2,1790113078720,4900,11174,9126,5104389,-2590068,174707,0,0,0,169,90,102,208,102,245,348,369,194,277,349,228,0,,,,,
1,1790113078736,-2211,-1325,16137,3750712,-271224,453262,0,0,0,500,355,218,441,387,460,271,81,236,331,178,525,0,,,,,
2,1790113078736,-2321,-5738,15171,5257106,-2441017,696386,0,0,0,176,90,103,208,96,242,391,392,191,315,368,234,0,,,,,
1,1790113078752,-3517,-1335,17281,4565606,-129503,629191,0,0,0,473,359,199,445,391,451,273,87,226,316,162,495,0,,,,,
2,1790113078752,-4168,-5278,19655,5006651,-1611462,902858,0,0,0,183,90,104,208,91,239,435,415,189,353,387,240,0,,,,,
1,1790113078768,-4211,-1521,19258,5445252,284663,922406,0,0,0,439,353,201,440,364,446,310,113,260,301,151,462,0,,,,,
2,1790113078768,-2019,358,19511,4287052,-1115439,434936,0,0,0,185,97,107,205,84,233,473,424,190,361,401,227,0,,,,,
1,1790113078784,-4508,-2287,21966,6329785,886976,1161865,0,0,0,422,332,193,403,333,423,239,88,199,280,140,437,0,,,,,
2,1790113078784,38,177,15266,2763554,-1095892,65973,0,0,0,199,84,115,216,70,232,481,398,180,361,369,221,0,,,,,
1,1790113078800,-5130,-3536,24694,7079928,1362229,1314581,0,0,0,395,300,184,365,295,378,154,48,114,266,128,419,0,,,,,
2,1790113078800,67,-732,11294,1414763,-861319,96516,0,0,0,200,90,135,221,68,239,487,388,183,385,395,234,0,,,,,
1,1790113078816,-5010,-3843,27221,7600385,1489289,1483180,0,0,0,354,277,179,330,258,337,271,99,177,244,123,400,0,,,,,
2,1790113078816,-253,-612,9997,801455,-571769,136833,0,0,0,211,92,164,215,74,250,493,380,198,395,399,254,0,,,,,
1,1790113078832,-5608,-2287,28446,8023104,1890017,1671327,0,0,0,290,230,184,290,212,315,323,113,189,206,99,347,0,,,,,
2,1790113078832,-224,-425,10126,438601,-354301,100181,0,0,0,232,96,183,224,87,259,498,376,210,407,389,283,0,,,,,
1,1790113078848,-9451,2306,24718,8213694,2103819,1844813,0,0,0,263,205,190,294,198,300,339,129,195,209,106,258,0,,,,,
2,1790113078848,-138,-282,10318,217468,-229685,43982,0,0,0,256,112,196,235,109,275,501,352,217,424,376,310,0,,,,,
1,1790113078864,-11562,8341,17520,7666358,1453859,2084272,0,0,0,252,200,181,287,197,297,334,115,188,217,108,259,0,,,,,
2,1790113078864,-138,-148,10122,160046,-171042,13439,0,0,0,276,123,203,245,130,284,499,331,220,427,352,329,0,,,,,
1,1790113078880,-8930,11840,11457,5418374,577878,2101376,0,0,0,259,197,172,300,194,294,287,95,152,224,101,251,0,,,,,
2,1790113078880,-129,-81,10050,190589,-142942,2443,0,0,0,289,127,215,264,141,290,500,303,221,411,326,353,0,,,,,
1,1790113078896,-5139,13103,8772,1549154,197920,1514945,0,0,0,261,188,169,300,184,285,308,106,156,222,105,243,0,,,,,
2,1790113078896,-105,-62,10126,227241,-102625,-6108,0,0,0,301,136,238,282,149,300,502,261,224,382,291,382,0,,,,,
1,1790113078912,-4278,10131,8681,-1637118,401949,631634,0,0,0,258,179,166,285,174,283,316,112,162,220,107,242,0,,,,,
2,1790113078912,-129,-100,10145,252898,-43982,-21991,0,0,0,315,141,249,286,167,298,499,248,233,353,219,400,0,,,,,
1,1790113078928,-4967,6838,7336,-2902831,372627,160046,0,0,0,255,180,163,287,179,288,285,100,147,219,108,245,0,,,,,
2,1790113078928,-148,-167,10102,285884,-6108,-30543,0,0,0,322,139,246,296,198,314,506,221,253,332,166,414,0,,,,,
1,1790113078944,-5049,5589,4948,-2888170,-102625,122173,0,0,0,260,181,166,298,182,291,293,102,150,220,109,250,0,,,,,
2,1790113078944,-86,-224,10026,301767,-4886,-34208,0,0,0,335,152,254,291,203,326,488,213,264,294,145,437,0,,,,,
1,1790113078960,-3340,6369,4063,-3218038,-588874,108734,0,0,0,259,179,167,294,175,288,332,116,171,223,106,253,0,,,,,
2,1790113078960,-43,-272,9978,276111,-7330,-42760,0,0,0,357,201,275,292,213,330,484,173,280,266,138,442,0,,,,,
1,1790113078976,-1847,6326,5288,-4166100,-613308,-136833,0,0,0,253,180,167,285,172,287,354,126,185,223,106,255,0,,,,,
2,1790113078976,-76,-315,10007,250454,-8552,-54977,0,0,0,355,172,269,306,217,349,470,159,293,254,122,467,0,,,,,
1,1790113078992,-1646,5049,7020,-5042081,-417831,-477696,0,0,0,254,183,168,291,176,291,341,126,182,219,109,258,0,,,,,
2,1790113078992,-119,-349,10050,260228,0,-52534,0,0,0,367,189,287,292,227,347,429,161,275,234,136,473,0,,,,,
1,1790113079008,-2488,4000,7858,-5286427,-376292,-690277,0,0,0,258,185,171,297,178,293,327,121,175,219,111,258,0,,,,,
2,1790113079008,-100,-382,10074,280998,29321,-46425,0,0,0,378,186,263,305,229,356,425,144,308,233,114,485,0,,,,,
1,1790113079024,-3043,3704,8604,-5451361,-559552,-797790,0,0,0,253,187,172,287,173,293,349,122,180,223,110,259,0,,,,,
2,1790113079024,-62,-406,10145,312763,92851,-47647,0,0,0,389,184,259,305,250,379,418,139,318,216,103,495,0,,,,,
1,1790113079040,-3350,3493,9949,-5712811,-911410,-802676,0,0,0,256,183,177,287,171,303,364,129,198,222,110,263,0,,,,,
2,1790113079040,0,-449,10193,356745,168598,-53756,0,0,0,394,193,209,315,264,366,410,142,286,218,109,510,0,,,,,
1,1790113079056,-3479,3096,11677,-6006027,-1279151,-714712,0,0,0,253,182,178,290,171,309,362,125,198,227,110,266,0,,,,,
2,1790113079056,62,-507,10165,389732,217468,-64751,0,0,0,390,214,181,330,265,363,411,142,299,229,107,512,0,,,,,
1,1790113079072,-3469,2502,13644,-6260146,-1627344,-524122,0,0,0,255,180,178,299,178,313,314,100,168,229,109,269,0,,,,,
2,1790113079072,67,-574,10126,411723,232128,-75747,0,0,0,391,224,148,334,272,363,411,130,294,235,115,521,0,,,,,
1,1790113079088,-3230,1751,15898,-6393315,-1975538,-280998,0,0,0,270,187,184,304,177,311,343,115,187,223,107,267,0,,,,,
2,1790113079088,181,-650,10165,431270,230907,-83077,0,0,0,391,214,120,339,273,359,402,121,281,230,111,533,0,,,,,
1,1790113079104,-2641,1019,18836,-6459289,-2300518,-67195,0,0,0,259,188,176,305,180,302,348,112,177,228,106,262,0,,,,,
2,1790113079104,411,-717,10251,463035,234572,-114842,0,0,0,393,197,117,344,262,364,408,123,278,228,76,543,0,,,,,
1,1790113079120,-2124,277,22301,-6517932,-2478891,39095,0,0,0,254,184,175,310,181,303,330,102,165,231,106,263,0,,,,,
2,1790113079120,358,-760,10351,519235,249233,-163711,0,0,0,411,180,119,350,257,370,433,137,282,238,68,561,0,,,,,
1,1790113079136,-1703,-1110,26154,-6651100,-2693915,108734,0,0,0,259,189,194,314,180,308,354,106,186,229,98,266,0,,,,,
2,1790113079136,43,-794,10490,597426,260228,-177150,0,0,0,427,181,117,355,266,372,428,142,292,248,95,578,0,,,,,
1,1790113079152,-454,-4398,29892,-6825808,-3099530,68416,0,0,0,256,196,190,304,178,306,361,111,192,225,98,264,0,,,,,
2,1790113079152,9,-885,10576,708603,256563,-136833,0,0,0,431,211,125,348,280,384,385,132,308,244,110,582,0,,,,,
1,1790113079168,2057,-8848,32624,-6961420,-3464827,-45204,0,0,0,252,195,181,303,181,307,339,103,178,226,103,264,0,,,,,
2,1790113079168,263,-1019,10638,824668,266337,-105068,0,0,0,445,223,125,338,288,392,370,137,322,236,121,595,0,,,,,
1,1790113079184,5848,-15348,33620,-6962641,-3321885,-283441,0,0,0,243,194,187,304,183,307,357,112,181,229,105,260,0,,,,,
2,1790113079184,564,-1134,11060,949284,267558,-116064,0,0,0,450,196,125,349,291,398,358,134,328,230,98,615,0,,,,,
1,1790113079200,4886,-22933,29906,-6309016,-2142915,-520457,0,0,0,241,199,187,306,185,304,358,113,176,229,105,261,0,,,,,
2,1790113079200,928,-1263,11753,1180191,200363,-164933,0,0,0,456,207,131,367,283,391,353,122,307,273,110,630,0,,,,,
1,1790113079216,1885,-31825,22766,-5139820,-1413542,-261450,0,0,0,250,210,184,311,188,307,324,97,162,226,105,266,0,,,,,
2,1790113079216,957,-1359,12299,1461189,140499,-232128,0,0,0,464,207,133,369,274,382,366,133,284,280,115,645,0,,,,,
1,1790113079232,6862,-41837,14587,-3654195,-1827708,833220,0,0,0,253,217,194,314,191,315,335,104,175,223,105,270,0,,,,,
2,1790113079232,579,-1402,12912,1802052,123394,-271224,0,0,0,472,225,133,381,291,399,324,127,259,265,110,660,0,,,,,
1,1790113079248,24627,-46336,11117,-1848478,-1494176,1246165,0,0,0,239,202,173,303,194,303,356,132,187,231,128,261,0,,,,,
2,1790113079248,689,-1507,13677,2278527,162490,-274889,0,0,0,516,262,142,351,273,391,305,127,254,246,106,662,0,,,,,
1,1790113079264,29777,-41488,12112,318871,629191,-65973,0,0,0,203,183,136,278,205,291,323,216,165,265,244,229,0,,,,,
2,1790113079264,856,-1608,14280,2776993,219911,-309097,0,0,0,485,240,145,338,278,397,288,121,258,243,107,667,0,,,,,
1,1790113079280,9763,-22478,16817,2680476,2526538,-1461189,0,0,0,220,201,131,290,204,309,360,289,174,309,303,240,0,,,,,
2,1790113079280,760,-1622,15228,3334102,270002,-343306,0,0,0,481,253,146,332,267,386,273,123,254,229,102,658,0,,,,,
1,1790113079296,-8150,9830,14156,5325523,3243694,-393397,0,0,0,204,196,142,285,188,334,408,379,212,326,369,260,0,,,,,
2,1790113079296,1842,-1698,16118,4120896,338419,-425162,0,0,0,457,234,138,328,260,378,264,124,249,229,111,598,0,,,,,
1,1790113079312,-6278,9002,13266,6350555,3628539,675616,0,0,0,209,202,140,315,211,348,412,416,187,379,405,254,0,,,,,
2,1790113079312,2392,-1679,17324,4973664,449596,-629191,0,0,0,414,248,138,318,268,371,227,122,238,206,88,543,0,,,,,
1,1790113079328,1526,-5872,21464,5850867,2345722,-180816,0,0,0,215,191,146,311,190,343,441,443,197,420,421,254,0,,,,,
2,1790113079328,1966,-2096,21210,6073222,585208,-795346,0,0,0,370,237,142,282,256,353,197,113,226,170,77,485,0,,,,,
1,1790113079344,3062,-6077,24742,4715879,1244943,-667064,0,0,0,219,182,177,303,176,342,445,423,216,444,418,267,0,,,,,
2,1790113079344,2148,-4206,26518,7057936,756251,-764803,0,0,0,340,191,138,245,218,316,178,106,198,155,78,419,0,,,,,
1,1790113079360,215,-1100,16836,2767219,821002,-438601,0,0,0,241,178,210,305,176,332,439,402,216,453,421,273,0,,,,,
2,1790113079360,3560,-4350,30442,7490429,948062,-800233,0,0,0,285,136,124,207,161,263,166,89,160,142,77,323,0,,,,,
1,1790113079376,-1086,765,9782,1264491,623082,-273667,0,0,0,268,205,243,310,210,328,458,419,231,457,424,275,0,,,,,
2,1790113079376,5053,-1780,31796,7905817,805120,-1128878,0,0,0,202,94,106,170,103,213,163,81,131,111,56,210,0,,,,,
1,1790113079392,-464,-827,9064,540004,499687,-179594,0,0,0,287,244,288,314,244,346,453,400,235,465,439,292,0,,,,,
2,1790113079392,8724,2981,29791,8360301,305432,-1696983,0,0,0,152,77,98,151,71,185,172,101,122,98,41,150,0,,,,,
1,1790113079408,-268,-1368,10729,191811,324980,-50090,0,0,0,303,266,320,323,245,365,442,363,231,469,440,312,0,,,,,
2,1790113079408,11605,11801,21292,7962017,643851,-2326174,0,0,0,159,83,104,155,72,184,189,109,134,122,70,168,0,,,,,
1,1790113079424,-512,-564,10796,64751,140499,12217,0,0,0,317,278,341,341,249,396,441,336,247,470,416,343,0,,,,,
2,1790113079424,9169,19416,9614,5440365,1039692,-2559525,0,0,0,160,67,100,162,67,181,195,106,139,115,54,149,0,,,,,
1,1790113079440,-713,33,10107,177150,51312,13439,0,0,0,333,291,358,355,271,432,437,306,264,471,386,386,0,,,,,
2,1790113079440,4402,18923,7896,629191,91629,-1604132,0,0,0,161,65,100,163,64,181,212,111,139,119,54,142,0,,,,,
1,1790113079456,-674,-57,10021,312763,30543,24434,0,0,0,360,306,358,364,283,432,428,282,254,463,353,403,0,,,,,
2,1790113079456,3436,13103,9743,-2860071,-1384220,-533896,0,0,0,169,70,101,164,69,184,206,110,145,115,56,151,0,,,,,
1,1790113079472,-521,-411,10260,381179,-13439,41538,0,0,0,389,311,370,406,312,460,429,276,263,438,311,419,0,,,,,
2,1790113079472,5958,7676,8088,-3475823,-2053728,-301767,0,0,0,171,68,103,162,73,184,189,104,133,118,55,154,0,,,,,
1,1790113079488,-516,-459,10284,376292,-117286,43982,0,0,0,404,335,357,385,297,436,465,281,325,424,259,462,0,,,,,
2,1790113079488,6944,7197,4154,-3254689,-1393994,-719599,0,0,0,162,66,97,158,66,176,196,103,129,123,66,171,0,,,,,
1,1790113079504,-555,-411,10251,384845,-211359,45204,0,0,0,418,305,353,409,283,466,464,268,346,400,233,463,0,,,,,
2,1790113079504,5666,8226,3354,-3874107,-609643,-893084,0,0,0,163,67,103,160,67,178,201,110,149,123,65,159,0,,,,,
1,1790113079520,-626,-402,10299,426383,-271224,53756,0,0,0,402,301,309,397,272,485,468,230,359,376,202,471,0,,,,,
2,1790113079520,4158,8064,5273,-5098281,-344527,-656069,0,0,0,162,67,101,158,66,180,203,107,137,119,71,156,0,,,,,
1,1790113079536,-698,-512,10351,510683,-294437,69638,0,0,0,405,320,281,408,286,478,440,175,310,361,188,462,0,,,,,
2,1790113079536,4259,5862,7217,-6069557,-493579,-299323,0,0,0,158,61,96,166,70,184,203,109,141,112,67,145,0,,,,,
1,1790113079552,-698,-636,10299,591317,-293215,78190,0,0,0,405,315,262,421,289,478,432,168,313,366,176,462,0,,,,,
2,1790113079552,5427,3833,7920,-6340781,-474031,-129503,0,0,0,162,65,101,162,74,184,204,118,143,115,71,156,0,,,,,
1,1790113079568,-727,-737,10260,657290,-305432,75747,0,0,0,410,309,237,440,282,477,418,137,303,362,162,469,0,,,,,
2,1790113079568,6609,3072,8628,-6284581,114842,-68416,0,0,0,165,71,103,162,74,188,207,129,145,109,77,150,0,,,,,
1,1790113079584,-799,-818,10260,693942,-357967,78190,0,0,0,407,303,220,455,279,478,406,118,299,374,156,463,0,,,,,
2,1790113079584,6695,3082,10361,-6404311,883311,75747,0,0,0,162,71,103,161,77,192,200,130,145,108,73,148,0,,,,,
1,1790113079600,-847,-923,10145,673173,-412944,87964,0,0,0,410,293,215,446,275,473,437,127,334,353,142,471,0,,,,,
2,1790113079600,6307,2412,13151,-6651100,1544267,416610,0,0,0,163,71,108,158,77,194,191,123,145,110,69,157,0,,,,,
1,1790113079616,-909,-1028,9949,603534,-411723,96516,0,0,0,409,290,210,447,280,474,446,124,335,337,135,477,0,,,,,
2,1790113079616,6432,526,15673,-6601009,2079385,750142,0,0,0,158,72,111,154,72,197,198,121,152,113,71,172,0,,,,,
1,1790113079632,-1028,-1129,9820,540004,-375071,109955,0,0,0,412,294,217,462,282,478,445,127,332,343,136,481,0,,,,,
2,1790113079632,6293,-1627,17803,-6123313,2604729,943175,0,0,0,146,71,112,151,68,201,206,123,159,124,75,186,0,,,,,
1,1790113079648,-1076,-1210,9705,467922,-327423,134390,0,0,0,421,302,215,463,286,479,459,140,346,339,136,488,0,,,,,
2,1790113079648,5206,-3000,20971,-5502674,3050661,1154535,0,0,0,147,73,119,154,65,210,197,117,152,122,80,181,0,,,,,
1,1790113079664,-1072,-1287,9638,386066,-271224,157603,0,0,0,419,302,195,453,298,485,458,133,337,334,135,490,0,,,,,
2,1790113079664,4508,-3460,24441,-5297423,3266907,1420872,0,0,0,143,75,120,154,66,216,196,113,152,101,66,171,0,,,,,
1,1790113079680,-1081,-1335,9734,320093,-204028,177150,0,0,0,428,284,203,457,283,492,464,117,349,337,131,501,0,,,,,
2,1790113079680,3306,-4245,27437,-5703037,3319441,1700648,0,0,0,139,69,115,154,63,217,192,103,153,105,55,180,0,,,,,
1,1790113079696,-1105,-1359,9992,301767,-125838,196698,0,0,0,433,290,205,467,315,498,439,103,335,347,141,503,0,,,,,
2,1790113079696,43,-7408,29628,-6273586,3071430,1975538,0,0,0,148,74,117,158,68,214,205,114,158,109,69,175,0,,,,,
1,1790113079712,-947,-1407,10212,328645,-63529,208915,0,0,0,441,301,205,477,334,499,417,81,276,353,146,503,0,,,,,
2,1790113079712,-3096,-11873,30404,-6414085,2542421,2052507,0,0,0,141,75,117,164,71,216,197,104,147,101,44,177,0,,,,,
1,1790113079728,-670,-1469,10265,386066,-32986,177150,0,0,0,456,308,208,467,322,507,421,94,314,349,145,506,0,,,,,
2,1790113079728,-4661,-16511,29609,-6125756,1794722,1843591,0,0,0,141,74,116,166,71,221,219,104,167,116,54,183,0,,,,,
1,1790113079744,-617,-1517,10356,455705,-28099,114842,0,0,0,462,334,210,476,367,501,417,104,332,356,166,506,0,,,,,
2,1790113079744,-1655,-24302,24876,-5544212,702495,1390329,0,0,0,142,66,113,176,64,223,242,114,168,118,66,187,0,,,,,
1,1790113079760,-1043,-1536,10873,570548,-46425,87964,0,0,0,481,361,225,482,384,512,384,92,291,365,170,515,0,,,,,
2,1790113079760,2498,-35123,18190,-4723210,395840,532674,0,0,0,147,75,115,173,69,228,218,99,158,116,56,197,0,,,,,
1,1790113079776,-1387,-1569,11672,777020,-63529,116064,0,0,0,487,383,228,498,378,502,359,84,261,383,168,511,0,,,,,
2,1790113079776,-3134,-46518,13204,-3141069,1159422,-1005484,0,0,0,145,75,112,176,77,231,210,94,152,120,56,196,0,,,,,
1,1790113079792,-1340,-1627,12486,1083674,-72082,169820,0,0,0,505,374,218,479,396,502,366,104,287,367,171,528,0,,,,,
2,1790113079792,-22550,-45283,14678,-759916,678060,-1430646,0,0,0,138,78,105,177,84,220,240,180,158,143,112,176,0,,,,,
1,1790113079808,-1057,-1684,13433,1521054,-81855,185703,0,0,0,507,346,217,478,369,498,322,81,266,364,162,535,0,,,,,
2,1790113079808,-25058,-33361,17592,1277930,-1726305,-59864,0,0,0,144,84,99,172,94,212,271,233,161,174,194,176,0,,,,,
1,1790113079824,-1273,-1737,14457,2045176,-95294,185703,0,0,0,502,342,219,473,365,487,310,79,257,361,163,536,0,,,,,
2,1790113079824,-2852,-5857,18013,3296228,-3514918,893084,0,0,0,153,95,123,179,102,238,306,306,185,203,294,201,0,,,,,
1,1790113079840,-1880,-1765,15051,2637716,-103847,244346,0,0,0,500,339,222,459,372,481,330,96,286,355,172,539,0,,,,,
2,1790113079840,8801,13984,12184,5249775,-4624249,311541,0,0,0,172,104,140,189,100,254,343,355,195,241,341,228,0,,,,,
1,1790113079856,-1957,-1670,15563,3360980,-105068,387288,0,0,0,494,342,217,452,361,474,328,101,290,349,172,534,0,,,,,
2,1790113079856,1627,1296,12711,5845980,-4068362,34208,0,0,0,207,122,140,207,105,260,378,397,191,288,377,245,0,,,,,
1,1790113079872,-2584,-1536,16783,4130670,-116064,538783,0,0,0,479,361,198,446,351,464,311,99,269,330,160,512,0,,,,,
2,1790113079872,-4441,-6590,19210,5690820,-2395813,630412,0,0,0,210,121,133,212,103,256,415,434,196,334,411,254,0,,,,,
1,1790113079888,-4044,-1474,19109,5185024,-15882,851546,0,0,0,457,358,186,436,353,455,255,80,237,301,149,475,0,,,,,
2,1790113079888,-4005,-3091,22287,5144707,-1318247,737925,0,0,0,191,98,124,208,87,240,446,433,196,365,404,265,0,,,,,
1,1790113079904,-4111,-2024,22148,6262590,351858,1134987,0,0,0,422,343,190,419,348,435,150,35,127,289,138,438,0,,,,,
2,1790113079904,-875,-636,18530,3595552,-1226617,230907,0,0,0,208,96,137,229,88,256,469,446,208,387,414,290,0,,,,,
1,1790113079920,-3608,-3584,25575,7083593,821002,1224173,0,0,0,395,317,183,373,325,422,300,102,226,259,132,429,0,,,,,
2,1790113079920,138,-1086,13342,1550375,-930958,25656,0,0,0,235,102,153,236,95,280,500,418,228,439,407,325,0,,,,,
1,1790113079936,-4436,-4010,28595,7695680,1048244,1286482,0,0,0,366,276,182,333,278,355,299,115,206,243,121,409,0,,,,,
2,1790113079936,-287,-1383,9710,61086,-343306,69638,0,0,0,281,127,189,260,116,285,521,403,221,444,393,346,0,,,,,
1,1790113079952,-5637,-2814,30452,8239350,1533271,1528384,0,0,0,261,245,165,291,225,314,293,104,176,216,107,342,0,,,,,
2,1790113079952,-320,-392,9734,47647,-97738,67195,0,0,0,307,146,211,268,149,293,511,375,243,446,395,367,0,,,,,
1,1790113079968,-8523,1043,27341,8291884,2342057,1773952,0,0,0,249,206,169,277,202,299,319,113,184,203,100,285,0,,,,,
2,1790113079968,-57,9,10279,266337,-109955,21991,0,0,0,315,159,211,282,192,305,495,379,243,406,381,391,0,,,,,
1,1790113079984,-11390,7920,19545,7632150,2597398,1973094,0,0,0,243,182,168,276,183,296,312,113,185,204,101,264,0,,,,,
2,1790113079984,71,-114,10318,288328,-119729,0,0,0,0,352,169,224,296,182,307,516,338,229,399,333,387,0,,,,,
1,1790113080000,-10681,11174,12950,5962044,1892460,1968207,0,0,0,249,181,167,282,184,287,308,112,176,206,103,254,0,,,,,
2,1790113080000,23,-220,10093,188146,-36651,3665,0,0,0,371,176,227,289,174,319,517,296,249,339,283,417,0,,,,,
1,1790113080016,-6848,11887,10547,2401922,982271,1310916,0,0,0,251,178,163,290,181,281,292,101,158,209,102,246,0,,,,,
2,1790113080016,23,-172,10102,193033,23212,0,0,0,0,370,171,268,308,198,319,519,249,243,320,217,437,0,,,,,
1,1790113080032,-3661,10705,10054,-1274264,736703,200363,0,0,0,249,175,157,292,181,280,304,108,161,211,103,241,0,,,,,
2,1790113080032,62,-143,10145,248011,40317,-14660,0,0,0,370,181,291,315,205,342,503,226,267,307,201,439,0,,,,,
1,1790113080048,-3474,7485,8265,-2853962,1119105,-635299,0,0,0,251,175,164,289,181,288,270,94,149,210,104,247,0,,,,,
2,1790113080048,119,-201,10126,276111,32986,-24434,0,0,0,376,173,268,325,209,359,487,198,275,271,176,461,0,,,,,
1,1790113080064,-4312,5541,5728,-3163060,1343903,-938289,0,0,0,251,178,164,280,174,286,282,97,157,209,102,250,0,,,,,
2,1790113080064,196,-268,10102,282219,19547,-36651,0,0,0,377,206,217,326,217,368,479,161,282,235,134,481,0,,,,,
1,1790113080080,-4776,5699,4221,-3367089,1209513,-866206,0,0,0,248,180,159,274,171,281,322,114,175,209,101,248,0,,,,,
2,1790113080080,215,-325,10155,299323,37873,-58643,0,0,0,374,190,172,333,224,375,452,133,276,230,100,499,0,,,,,
1,1790113080096,-4680,6073,4264,-4023158,960280,-759916,0,0,0,247,180,159,275,174,283,333,119,180,208,103,250,0,,,,,
2,1790113080096,201,-402,10284,355523,127059,-75747,0,0,0,379,158,138,336,224,373,441,132,279,227,77,509,0,,,,,
1,1790113080112,-4551,5537,5412,-4913799,729373,-640186,0,0,0,247,180,164,276,174,287,339,122,185,207,103,253,0,,,,,
2,1790113080112,167,-459,10346,448375,254119,-73303,0,0,0,394,159,124,335,233,371,441,130,290,211,69,517,0,,,,,
1,1790113080128,-4804,4297,6714,-5484348,572991,-455705,0,0,0,246,176,180,274,170,298,342,121,196,208,100,262,0,,,,,
2,1790113080128,167,-502,10294,521678,296880,-58643,0,0,0,410,159,127,349,247,380,427,114,281,211,77,533,0,,,,,
1,1790113080144,-5240,3594,7686,-5794667,409279,-291993,0,0,0,236,167,213,263,164,316,341,116,220,206,98,272,0,,,,,
2,1790113080144,320,-564,10184,544891,291993,-52534,0,0,0,414,167,125,354,244,383,426,123,290,215,85,535,0,,,,,
1,1790113080160,-5790,3225,8959,-6139195,134390,-213802,0,0,0,235,164,209,267,171,318,347,119,223,207,97,271,0,,,,,
2,1790113080160,536,-646,10275,537561,291993,-79412,0,0,0,409,165,131,347,241,388,399,132,318,208,83,536,0,,,,,
1,1790113080176,-6231,2613,10504,-6459289,-157603,-223576,0,0,0,235,164,203,268,177,315,347,119,216,205,95,266,0,,,,,
2,1790113080176,650,-732,10361,559552,254119,-123394,0,0,0,419,168,129,352,244,388,399,122,324,217,76,542,0,,,,,
1,1790113080192,-6795,1416,12610,-6695083,-560774,-302989,0,0,0,244,173,190,271,172,304,349,125,208,209,100,266,0,,,,,
2,1790113080192,674,-823,10313,599869,171042,-161268,0,0,0,434,170,127,344,245,387,379,113,325,222,91,555,0,,,,,
1,1790113080208,-7298,296,14524,-6644992,-1049466,-373849,0,0,0,239,170,179,277,182,303,342,119,202,210,100,266,0,,,,,
2,1790113080208,598,-909,10279,636521,101403,-191811,0,0,0,434,174,138,360,239,392,375,125,309,238,100,573,0,,,,,
1,1790113080224,-7418,-507,16755,-6525262,-1601688,-427605,0,0,0,232,167,186,279,186,310,341,115,202,210,97,267,0,,,,,
2,1790113080224,449,-1000,10289,667064,79412,-195476,0,0,0,424,182,130,340,243,387,379,121,310,219,93,581,0,,,,,
1,1790113080240,-7030,-1119,19703,-6443406,-2054950,-437379,0,0,0,229,171,189,280,188,315,338,115,208,208,97,270,0,,,,,
2,1790113080240,545,-1119,10370,718377,102625,-186924,0,0,0,421,191,134,353,244,389,387,130,310,234,103,583,0,,,,,
1,1790113080256,-6542,-2402,23364,-6436076,-2444682,-427605,0,0,0,229,173,189,281,189,313,327,111,199,207,100,270,0,,,,,
2,1790113080256,655,-1229,10543,801455,144164,-199142,0,0,0,471,204,151,386,267,397,369,136,293,260,115,614,0,,,,,
1,1790113080272,-5814,-5029,27279,-6510601,-2829527,-445931,0,0,0,230,171,184,285,190,311,313,105,188,210,99,269,0,,,,,
2,1790113080272,617,-1340,10638,937067,186924,-222354,0,0,0,459,210,145,358,264,398,374,133,291,243,112,625,0,,,,,
1,1790113080288,-3220,-9700,30404,-6644992,-3422067,-631634,0,0,0,231,170,180,289,190,311,328,109,195,213,96,268,0,,,,,
2,1790113080288,373,-1450,10490,1060462,207694,-227241,0,0,0,462,190,137,355,248,408,363,116,295,250,89,637,0,,,,,
1,1790113080304,1330,-15501,32462,-6704856,-4036597,-890641,0,0,0,231,172,178,289,191,311,350,118,207,210,95,266,0,,,,,
2,1790113080304,239,-1555,10677,1152091,213802,-191811,0,0,0,467,205,143,345,254,421,362,122,291,244,94,644,0,,,,,
1,1790113080320,7379,-22617,32629,-6428745,-3907094,-1210734,0,0,0,228,177,175,290,195,309,354,122,208,208,96,266,0,,,,,
2,1790113080320,689,-1665,11840,1334129,194255,-156381,0,0,0,476,212,143,347,260,413,362,139,272,257,110,660,0,,,,,
1,1790113080336,7226,-31438,26723,-5305975,-2382374,-1494176,0,0,0,226,182,170,293,200,310,354,122,207,209,96,268,0,,,,,
2,1790113080336,957,-1756,12883,1655444,155159,-169820,0,0,0,485,217,147,341,258,401,344,134,265,258,102,675,0,,,,,
1,1790113080352,2909,-41660,18592,-4056145,-1624901,-1020144,0,0,0,228,187,167,297,202,308,350,127,199,223,112,269,0,,,,,
2,1790113080352,636,-1852,13309,2091602,161268,-189368,0,0,0,488,219,143,330,263,397,317,127,276,242,105,681,0,,,,,
1,1790113080368,7939,-50365,13046,-2365270,-2073276,471587,0,0,0,220,184,153,311,197,298,364,168,176,274,182,252,0,,,,,
2,1790113080368,607,-1952,13874,2583959,273667,-158824,0,0,0,485,236,137,328,281,396,299,134,283,223,120,676,0,,,,,
1,1790113080384,21086,-48547,16003,256563,-1216843,1098335,0,0,0,204,209,129,292,221,298,372,294,181,290,294,230,0,,,,,
2,1790113080384,1091,-2033,14979,3164281,390953,-163711,0,0,0,475,265,141,326,291,395,286,132,275,205,106,654,0,,,,,
1,1790113080400,15132,-18411,16176,4649906,2570520,195476,0,0,0,227,221,136,276,234,301,350,304,166,334,360,254,0,,,,,
2,1790113080400,2067,-2067,16195,3830125,410501,-249233,0,0,0,450,250,132,319,276,388,260,117,253,205,91,610,0,,,,,
1,1790113080416,129,5460,14548,7188662,4535063,-515570,0,0,0,233,217,144,310,215,341,364,324,174,363,396,272,0,,,,,
2,1790113080416,3397,-2153,17726,4742757,354301,-507018,0,0,0,405,247,135,296,271,394,221,116,239,184,99,529,0,,,,,
1,1790113080432,-4111,1871,17166,6688974,2662150,-935845,0,0,0,248,181,158,311,171,353,438,423,223,408,443,283,0,,,,,
2,1790113080432,4067,-2569,20808,5742133,371406,-806342,0,0,0,390,238,137,281,257,357,211,106,247,173,84,489,0,,,,,
1,1790113080448,2440,-4637,24067,5700594,864985,-715934,0,0,0,233,175,206,318,178,360,445,423,210,427,459,299,0,,,,,
2,1790113080448,4493,-4259,26384,6781825,565661,-983493,0,0,0,338,183,138,247,209,321,180,118,199,161,85,426,0,,,,,
1,1790113080464,3105,-4493,23278,4317595,621860,-8552,0,0,0,240,178,216,310,176,362,462,448,249,437,450,302,0,,,,,
2,1790113080464,5446,-4910,31141,7468438,996932,-1144761,0,0,0,287,121,127,199,154,262,162,97,168,131,61,336,0,,,,,
1,1790113080480,-732,-1933,15046,2025629,752585,270002,0,0,0,262,187,233,320,193,381,458,426,253,455,444,324,0,,,,,
2,1790113080480,6054,-2306,33203,8037764,1197295,-1563815,0,0,0,214,107,98,179,106,209,166,83,137,109,35,227,0,,,,,
1,1790113080496,-1694,-545,9432,337197,406836,-41538,0,0,0,301,221,257,357,237,399,446,387,240,471,442,344,0,,,,,
2,1790113080496,9337,2871,31643,8608312,1335351,-2105041,0,0,0,172,72,104,173,73,202,186,106,136,116,57,166,0,,,,,
1,1790113080512,-775,-421,9227,14660,142942,-157603,0,0,0,327,259,284,365,251,414,441,357,241,476,430,364,0,,,,,
2,1790113080512,11974,13247,22813,8388401,1949881,-2897944,0,0,0,174,73,109,169,69,202,178,98,138,115,58,161,0,,,,,
1,1790113080528,-502,-612,10480,252898,122173,-25656,0,0,0,343,285,304,358,251,431,433,322,236,476,407,394,0,,,,,
2,1790113080528,7566,20713,11739,5216789,1682322,-3087312,0,0,0,170,65,103,157,58,191,168,85,130,105,49,156,0,,,,,
1,1790113080544,-746,-550,10476,277332,112399,39095,0,0,0,369,305,311,382,272,439,417,280,208,474,374,418,0,,,,,
2,1790113080544,3249,21014,8915,640186,298102,-2243097,0,0,0,167,63,99,155,63,186,177,90,134,115,59,161,0,,,,,
1,1790113080560,-861,-397,10059,196698,41538,21991,0,0,0,380,304,339,390,269,450,400,225,179,474,339,451,0,,,,,
2,1790113080560,3584,13859,10303,-2709798,-1351233,-1000597,0,0,0,171,60,100,159,63,185,187,102,135,108,54,149,0,,,,,
1,1790113080576,-765,-406,10098,206472,-48869,10995,0,0,0,393,315,352,389,284,457,415,230,212,471,318,459,0,,,,,
2,1790113080576,6030,7906,7762,-3486818,-1765400,-624304,0,0,0,175,61,101,158,63,183,186,105,132,105,52,145,0,,,,,
1,1790113080592,-717,-473,10212,251676,-118507,24434,0,0,0,417,305,348,395,275,451,457,234,260,448,268,470,0,,,,,
2,1790113080592,6130,7504,3838,-3172834,-796568,-1001818,0,0,0,175,64,102,156,66,183,180,105,127,107,58,153,0,,,,,
1,1790113080608,-708,-512,10174,273667,-160046,25656,0,0,0,433,315,348,425,268,452,447,220,273,419,232,479,0,,,,,
2,1790113080608,3283,8686,4192,-3993836,216246,-1051909,0,0,0,177,64,103,165,64,185,195,102,124,113,61,150,0,,,,,
1,1790113080624,-765,-536,10122,268780,-190589,14660,0,0,0,431,319,331,404,279,454,437,169,260,385,210,480,0,,,,,
2,1790113080624,1139,8097,6446,-5098281,472809,-737925,0,0,0,172,62,103,171,65,185,210,96,128,124,59,148,0,,,,,
1,1790113080640,-928,-569,10126,262672,-189368,19547,0,0,0,452,320,320,421,277,455,425,138,247,394,197,474,0,,,,,
2,1790113080640,947,5939,8188,-5788559,197920,-313984,0,0,0,158,63,104,148,73,189,178,95,135,103,55,161,0,,,,,
1,1790113080656,-1005,-641,10141,273667,-133168,59864,0,0,0,451,335,282,445,290,451,427,153,272,396,195,472,0,,,,,
2,1790113080656,2234,4489,8427,-5783672,151494,-62308,0,0,0,155,69,101,147,70,192,174,100,140,94,68,154,0,,,,,
1,1790113080672,-914,-698,10145,302989,-69638,89186,0,0,0,450,330,265,450,309,453,380,114,223,394,183,466,0,,,,,
2,1790113080672,3187,4163,9179,-5794667,522900,149051,0,0,0,163,77,107,147,64,190,177,105,140,116,69,167,0,,,,,
1,1790113080688,-851,-737,10165,332310,-2443,95294,0,0,0,459,329,274,440,311,459,390,106,241,378,174,468,0,,,,,
2,1790113080688,3263,4426,11294,-6134308,1076344,409279,0,0,0,155,71,106,147,68,189,169,107,141,117,69,169,0,,,,,
1,1790113080704,-842,-780,10284,357967,117286,95294,0,0,0,459,332,269,435,323,472,404,111,264,366,173,473,0,,,,,
2,1790113080704,3426,4221,13802,-6549697,1501506,704938,0,0,0,154,78,98,148,96,188,177,117,145,119,76,182,0,,,,,
1,1790113080720,-717,-827,10390,401949,205250,89186,0,0,0,460,335,251,448,333,468,397,108,259,365,168,476,0,,,,,
2,1790113080720,3814,3297,16276,-6829473,1804495,954171,0,0,0,149,73,109,153,78,198,177,117,147,107,73,176,0,,,,,
1,1790113080736,-583,-890,10504,480140,156381,65973,0,0,0,465,339,239,469,332,459,375,105,257,370,164,476,0,,,,,
2,1790113080736,3828,1813,18947,-6836803,2079385,1128878,0,0,0,149,63,113,147,69,196,184,118,151,111,58,190,0,,,,,
1,1790113080752,-612,-952,10643,565661,26878,47647,0,0,0,465,339,231,474,338,471,367,106,262,370,164,482,0,,,,,
2,1790113080752,3306,0,22024,-6692639,2273640,1361007,0,0,0,147,68,116,150,69,205,185,111,153,100,56,175,0,,,,,
1,1790113080768,-784,-1005,10748,658512,-76969,61086,0,0,0,468,336,215,464,343,474,388,118,264,354,157,497,0,,,,,
2,1790113080768,2742,-2498,25264,-6417750,2321287,1748296,0,0,0,155,72,122,151,77,215,212,143,177,102,90,187,0,,,,,
1,1790113080784,-899,-1091,10768,767246,-135612,95294,0,0,0,474,342,213,454,341,477,339,133,256,342,155,503,0,,,,,
2,1790113080784,1943,-5556,28552,-6214942,2409252,2218662,0,0,0,145,73,117,154,77,216,189,132,161,91,71,175,0,,,,,
1,1790113080800,-961,-1220,10768,872315,-147829,139277,0,0,0,486,324,207,451,344,473,344,82,221,362,161,501,0,,,,,
2,1790113080800,-373,-9160,31351,-6355441,2423913,2624277,0,0,0,136,69,114,153,78,217,176,113,154,87,57,175,0,,,,,
1,1790113080816,-894,-1383,10729,999375,-155159,183259,0,0,0,496,326,213,474,325,478,424,133,302,349,152,517,0,,,,,
2,1790113080816,-2933,-15185,32500,-6532592,1687209,3010343,0,0,0,135,70,111,150,82,214,194,127,163,92,69,179,0,,,,,
1,1790113080832,-641,-1536,10547,1117883,-179594,201585,0,0,0,509,350,237,462,343,474,315,90,247,374,162,527,0,,,,,
2,1790113080832,-387,-23282,29916,-6192951,343306,3216816,0,0,0,138,74,113,159,86,212,195,126,157,100,80,180,0,,,,,
1,1790113080848,-521,-1646,10490,1197295,-204028,182037,0,0,0,510,365,236,455,342,475,288,75,209,366,172,527,0,,,,,
2,1790113080848,7264,-33859,22435,-5299866,-461814,2796541,0,0,0,143,82,119,167,82,218,197,114,153,113,76,189,0,,,,,
1,1790113080864,-856,-1746,11127,1324355,-191811,164933,0,0,0,523,381,233,453,346,473,327,97,248,360,180,548,0,,,,,
2,1790113080864,7647,-45728,14481,-3833790,667064,1064127,0,0,0,148,95,121,162,92,221,206,122,156,119,78,195,0,,,,,
1,1790113080880,-1072,-1885,11993,1545489,-140499,190589,0,0,0,524,384,238,452,338,476,337,106,252,366,181,551,0,,,,,
2,1790113080880,-6326,-51935,12112,-1933999,1899790,-775798,0,0,0,146,95,119,160,102,218,205,133,158,111,85,187,0,,,,,
1,1790113080896,-693,-2000,12677,1864360,-98960,197920,0,0,0,525,368,233,459,344,463,313,100,234,380,186,553,0,,,,,
2,1790113080896,-21569,-47819,14252,45204,968832,-1055575,0,0,0,139,76,108,166,81,212,231,166,162,135,115,171,0,,,,,
1,1790113080912,-574,-2057,13601,2301740,-103847,162490,0,0,0,527,367,228,456,358,448,309,103,233,371,183,561,0,,,,,
2,1790113080912,-12687,-30050,17391,2043955,-1656666,183259,0,0,0,142,80,82,182,94,211,287,254,149,216,244,170,0,,,,,
1,1790113080928,-1359,-2110,14582,2853962,-127059,173485,0,0,0,530,365,232,450,358,449,311,106,236,345,166,556,0,,,,,
2,1790113080928,5613,2885,15037,4227187,-2946813,560774,0,0,0,153,94,100,195,102,247,317,324,169,237,298,210,0,,,,,
1,1790113080944,-2321,-2182,15338,3529579,-86742,304210,0,0,0,524,355,227,454,348,459,270,86,222,331,155,531,0,,,,,
2,1790113080944,9423,13926,9432,6252816,-3240029,213802,0,0,0,178,91,105,207,99,282,378,418,197,310,386,266,0,,,,,
1,1790113080960,-2689,-2158,16219,4221078,41538,521678,0,0,0,488,373,211,451,355,461,223,67,205,326,154,496,0,,,,,
2,1790113080960,971,-2311,15348,7182553,-2368935,780685,0,0,0,173,89,120,210,75,238,437,466,198,352,398,263,0,,,,,
1,1790113080976,-4077,-2278,18664,5177693,310319,814894,0,0,0,459,395,199,436,370,450,260,92,227,295,143,469,0,,,,,
2,1790113080976,-5800,-7872,26264,6320011,-1328021,1082453,0,0,0,219,88,157,215,75,244,455,442,185,390,419,237,0,,,,,
1,1790113080992,-5259,-2900,21651,6145304,711047,1178969,0,0,0,429,361,188,388,342,420,269,109,220,273,145,438,0,,,,,
2,1790113080992,-4082,-3756,23761,3613878,-816115,420275,0,0,0,230,91,182,223,70,243,499,401,198,388,378,270,0,,,,,
1,1790113081008,-4613,-4221,25474,7013954,1227839,1430646,0,0,0,419,322,207,347,290,384,283,107,217,264,137,424,0,,,,,
2,1790113081008,550,598,12395,750142,-488692,-125838,0,0,0,249,114,212,225,94,260,505,368,215,397,367,299,0,,,,,
1,1790113081024,-3771,-4824,29222,7728667,1545489,1534493,0,0,0,370,287,182,335,262,354,131,35,85,243,116,402,0,,,,,
2,1790113081024,909,488,8260,-25656,-179594,-28099,0,0,0,268,128,229,245,132,279,523,323,211,397,347,334,0,,,,,
1,1790113081040,-3493,-3972,32677,8246680,2013411,1589471,0,0,0,277,230,187,303,213,320,308,111,182,222,109,317,0,,,,,
2,1790113081040,105,-186,9552,216246,-85521,79412,0,0,0,282,136,283,250,166,285,539,316,232,369,323,354,0,,,,,
1,1790113081056,-7992,1268,29303,8285776,2757445,1635897,0,0,0,249,226,193,282,200,310,338,124,205,216,111,284,0,,,,,
2,1790113081056,-71,-191,10969,412944,-117286,47647,0,0,0,299,155,364,257,185,304,550,297,241,379,302,384,0,,,,,
1,1790113081072,-12313,8667,19344,7269296,2331061,1693318,0,0,0,255,214,179,292,206,301,290,103,167,216,109,271,0,,,,,
2,1790113081072,215,43,10351,255341,-103847,-7330,0,0,0,313,163,380,273,202,318,539,248,247,369,237,408,0,,,,,
1,1790113081088,-10045,12031,12730,4364021,697608,1573588,0,0,0,259,206,174,294,196,299,290,103,163,211,108,268,0,,,,,
2,1790113081088,287,157,9987,169820,-39095,-18325,0,0,0,320,180,375,285,216,324,530,225,271,334,201,419,0,,,,,
1,1790113081104,-5355,11830,11351,864985,-155159,998153,0,0,0,258,200,169,294,189,294,308,112,170,210,108,263,0,,,,,
2,1790113081104,248,143,10189,226020,41538,-25656,0,0,0,317,189,401,296,218,329,520,213,281,299,179,414,0,,,,,
1,1790113081120,-3129,8513,10753,-2002416,202807,-51312,0,0,0,257,193,163,297,191,293,318,118,173,211,108,260,0,,,,,
2,1790113081120,239,100,10294,301767,96516,-47647,0,0,0,323,183,411,309,212,331,498,173,270,276,137,412,0,,,,,
1,1790113081136,-4838,6767,7083,-2388483,338419,-657290,0,0,0,257,191,162,299,192,294,227,80,121,215,108,262,0,,,,,
2,1790113081136,248,71,10332,379958,123394,-65973,0,0,0,326,189,390,307,208,338,467,139,270,268,121,444,0,,,,,
1,1790113081152,-4393,7284,4302,-2675589,-142942,-840550,0,0,0,254,190,161,295,189,293,143,43,72,220,109,266,0,,,,,
2,1790113081152,287,9,10533,549778,184481,-67195,0,0,0,303,189,344,292,222,349,429,138,289,230,117,478,0,,,,,
1,1790113081168,-2799,7872,4067,-3469714,-454483,-841772,0,0,0,243,186,160,282,186,293,310,110,168,209,105,265,0,,,,,
2,1790113081168,435,-62,10648,770911,226020,-70860,0,0,0,320,201,282,292,251,351,418,127,283,220,114,472,0,,,,,
1,1790113081184,-2139,7159,5393,-4564385,-417831,-777020,0,0,0,241,191,159,279,192,292,323,118,170,203,108,263,0,,,,,
2,1790113081184,646,-210,10562,916297,171042,-89186,0,0,0,320,216,258,296,240,333,383,117,268,243,101,483,0,,,,,
1,1790113081200,-2483,5766,6494,-5208237,-519235,-598647,0,0,0,240,188,160,281,191,297,319,115,169,201,106,264,0,,,,,
2,1790113081200,775,-402,10409,981049,51312,-133168,0,0,0,297,211,239,294,280,341,367,116,265,275,108,469,0,,,,,
1,1790113081216,-2177,4809,7370,-5531995,-772133,-411723,0,0,0,252,193,169,297,194,305,291,103,155,205,106,266,0,,,,,
2,1790113081216,713,-550,10256,985936,21991,-188146,0,0,0,306,207,211,311,265,369,383,120,250,217,82,506,0,,,,,
1,1790113081232,-1373,4316,8490,-5742133,-971275,-295658,0,0,0,241,190,164,274,186,303,365,142,202,203,108,268,0,,,,,
2,1790113081232,760,-693,10088,932180,86742,-235793,0,0,0,321,251,215,285,288,363,370,123,263,225,133,569,0,,,,,
1,1790113081248,-1301,4067,10107,-5992587,-1027475,-268780,0,0,0,243,194,168,273,189,306,369,145,206,203,106,269,0,,,,,
2,1790113081248,942,-837,10011,867428,91629,-289550,0,0,0,301,254,216,296,302,362,356,114,247,211,97,546,0,,,,,
1,1790113081264,-1675,3838,12055,-6261368,-1189965,-218689,0,0,0,242,195,170,275,192,309,350,136,196,203,110,271,0,,,,,
2,1790113081264,837,-981,9973,818559,-6108,-342084,0,0,0,331,243,178,352,279,390,358,108,215,295,97,502,0,,,,,
1,1790113081280,-1933,3445,14261,-6535036,-1527163,-100181,0,0,0,242,196,170,273,189,309,353,135,199,203,111,273,0,,,,,
2,1790113081280,464,-1134,9901,781907,-84299,-364075,0,0,0,320,262,176,321,284,392,367,131,258,253,119,551,0,,,,,
1,1790113081296,-1737,2799,16654,-6803817,-1863138,37873,0,0,0,243,197,168,274,189,304,356,135,195,204,109,273,0,,,,,
2,1790113081296,90,-1258,9949,753807,-105068,-334754,0,0,0,334,297,168,322,338,417,373,133,264,227,132,559,0,,,,,
1,1790113081312,-1622,2053,19468,-7048163,-2112371,155159,0,0,0,246,198,171,289,194,311,321,120,176,205,106,274,0,,,,,
2,1790113081312,205,-1335,10045,747699,-101403,-283441,0,0,0,321,349,142,360,365,421,379,132,260,221,119,554,0,,,,,
1,1790113081328,-1593,1086,23259,-7192327,-2283414,219911,0,0,0,250,200,177,300,196,321,282,101,158,204,105,277,0,,,,,
2,1790113081328,411,-1430,10155,768468,-103847,-271224,0,0,0,318,355,143,396,380,431,376,138,254,233,123,584,0,,,,,
1,1790113081344,-1148,-660,27877,-7324274,-2443460,145385,0,0,0,248,200,179,297,192,321,265,89,148,206,106,278,0,,,,,
2,1790113081344,440,-1517,10370,819781,-107512,-273667,0,0,0,329,348,140,405,391,459,376,145,249,248,147,610,0,,,,,
1,1790113081360,-358,-4603,31796,-7506312,-2742784,-152716,0,0,0,238,196,181,288,188,317,283,90,158,211,106,278,0,,,,,
2,1790113081360,684,-1646,10509,933402,-109955,-302989,0,0,0,336,340,124,394,396,465,373,149,252,246,152,615,0,,,,,
1,1790113081376,1268,-10442,34792,-7638258,-3115412,-476474,0,0,0,236,198,183,288,194,313,339,117,190,214,109,276,0,,,,,
2,1790113081376,492,-1938,10385,1045801,-108734,-354301,0,0,0,342,304,121,405,398,458,387,192,283,241,133,623,0,,,,,
1,1790113081392,3125,-18985,35462,-7415904,-2902831,-823446,0,0,0,236,208,171,289,203,305,352,127,194,216,114,270,0,,,,,
2,1790113081392,-105,-2077,10744,1139874,-89186,-340862,0,0,0,348,285,122,447,395,476,409,234,306,247,129,642,0,,,,,
1,1790113081408,-1459,-28781,29695,-6285803,-1905899,-836885,0,0,0,242,205,173,303,197,309,349,112,188,224,105,273,0,,,,,
2,1790113081408,-38,-1971,11864,1350012,-78190,-262672,0,0,0,350,318,117,448,387,496,359,142,265,231,126,660,0,,,,,
1,1790113081424,-4527,-38784,20981,-4642575,-2282192,63529,0,0,0,242,208,184,292,197,322,362,127,209,219,103,283,0,,,,,
2,1790113081424,162,-1938,13065,1729970,-75747,-202807,0,0,0,363,313,111,436,394,528,349,144,276,223,142,670,0,,,,,
1,1790113081440,8801,-45489,15266,-2987131,-3716504,1484402,0,0,0,242,210,186,291,199,322,367,132,212,219,109,283,0,,,,,
2,1790113081440,483,-2081,13912,2191784,-72082,-186924,0,0,0,380,282,115,400,363,444,325,136,258,238,133,655,0,,,,,
1,1790113081456,28987,-47231,13496,-1080009,-2162462,1122770,0,0,0,224,208,164,302,211,317,340,164,175,291,190,267,0,,,,,
2,1790113081456,1148,-2234,14625,2794097,-96516,-229685,0,0,0,351,313,121,392,352,421,303,129,252,238,123,638,0,,,,,
1,1790113081472,23541,-38793,14515,1417207,1655444,-662177,0,0,0,218,196,137,293,196,309,361,241,169,315,267,247,0,,,,,
2,1790113081472,1416,-2215,14984,3446501,-168598,-357967,0,0,0,364,301,120,353,286,375,292,131,242,207,117,612,0,,,,,
1,1790113081488,138,-4192,11682,4878369,4087910,-785572,0,0,0,219,200,131,299,187,326,404,327,190,360,357,259,0,,,,,
2,1790113081488,1732,-2000,16171,4190535,-299323,-500909,0,0,0,405,220,135,291,258,407,225,107,259,173,75,572,0,,,,,
1,1790113081504,-6815,12256,10825,6894225,5010316,103847,0,0,0,232,208,136,319,198,354,407,376,190,405,427,278,0,,,,,
2,1790113081504,2574,-1631,17784,5078733,-458148,-723264,0,0,0,386,215,142,276,238,363,189,98,211,169,88,517,0,,,,,
1,1790113081520,-851,-1019,17980,6770830,2988352,-168598,0,0,0,238,189,145,318,185,358,432,414,200,449,461,293,0,,,,,
2,1790113081520,2292,-1344,19918,6018244,-596204,-941954,0,0,0,380,216,123,241,224,315,189,102,210,162,89,476,0,,,,,
1,1790113081536,4010,-7944,26709,6272364,259006,-831998,0,0,0,229,177,162,306,180,355,459,446,226,470,465,305,0,,,,,
2,1790113081536,3522,-3996,24374,7132462,-103847,-945619,0,0,0,338,161,130,218,172,285,172,99,173,141,67,403,0,,,,,
1,1790113081552,2158,-4082,25383,4923573,-439822,-345749,0,0,0,239,180,197,315,191,365,460,451,237,479,476,318,0,,,,,
2,1790113081552,4972,-6685,30815,7965682,1433089,-1038470,0,0,0,271,107,122,184,116,236,164,82,137,130,47,298,0,,,,,
1,1790113081568,-1899,-655,14314,2184454,437379,134390,0,0,0,274,194,232,337,207,383,451,413,232,488,478,345,0,,,,,
2,1790113081568,2593,-3369,35218,8167268,1263269,-1479515,0,0,0,206,69,111,156,67,196,165,91,124,112,46,217,0,,,,,
1,1790113081584,-2043,-583,8930,450818,713490,-12217,0,0,0,308,226,261,355,239,413,434,354,230,483,450,387,0,,,,,
2,1790113081584,5537,3981,31189,8031656,-437379,-1838704,0,0,0,190,64,111,165,56,187,203,99,127,126,53,180,0,,,,,
1,1790113081600,-646,-1119,9600,29321,309097,-169820,0,0,0,335,248,290,371,265,437,430,331,246,481,432,417,0,,,,,
2,1790113081600,11261,12122,17463,7032280,-1205847,-2096489,0,0,0,199,63,107,188,64,192,247,101,134,143,53,165,0,,,,,
1,1790113081616,-789,-540,10696,260228,21991,-45204,0,0,0,364,270,283,373,272,428,442,343,265,488,409,437,0,,,,,
2,1790113081616,9518,14314,9719,3715282,-232128,-1898569,0,0,0,202,61,103,193,57,189,256,97,127,138,47,155,0,,,,,
1,1790113081632,-1191,-191,10399,323758,10995,26878,0,0,0,374,279,300,373,265,439,446,326,262,487,367,461,0,,,,,
2,1790113081632,4359,13165,10725,-420275,-79412,-1083674,0,0,0,202,72,107,188,51,185,252,88,118,139,49,154,0,,,,,
1,1790113081648,-1177,-263,10040,261450,26878,13439,0,0,0,390,321,307,388,295,433,457,325,273,483,328,460,0,,,,,
2,1790113081648,3383,9059,11289,-2718350,-1404990,-239459,0,0,0,199,71,111,187,57,191,261,102,131,142,63,160,0,,,,,
1,1790113081664,-1052,-363,10098,239459,-31764,3665,0,0,0,411,305,318,382,279,445,465,288,295,470,296,478,0,,,,,
2,1790113081664,5848,6503,7446,-3127630,-2069611,-45204,0,0,0,198,72,112,186,58,202,258,105,135,137,55,157,0,,,,,
1,1790113081680,-1028,-402,10227,271224,-114842,21991,0,0,0,437,321,319,398,270,468,460,261,312,460,257,487,0,,,,,
2,1790113081680,6944,6767,3924,-3189938,-1422094,-262672,0,0,0,196,80,117,177,66,207,250,104,135,139,64,167,0,,,,,
1,1790113081696,-1076,-406,10174,294437,-161268,39095,0,0,0,447,308,314,385,280,460,454,230,310,434,246,486,0,,,,,
2,1790113081696,5187,7480,4321,-4124562,-533896,-326202,0,0,0,197,84,113,174,64,205,263,116,152,126,76,162,0,,,,,
1,1790113081712,-1091,-445,10093,301767,-186924,46425,0,0,0,444,329,292,397,314,463,444,215,303,420,235,481,0,,,,,
2,1790113081712,3886,6771,6044,-5186245,-139277,-240680,0,0,0,192,85,117,186,72,204,261,105,137,133,63,157,0,,,,,
1,1790113081728,-1081,-507,10064,300545,-196698,47647,0,0,0,444,321,312,388,309,465,454,216,335,388,216,480,0,,,,,
2,1790113081728,3967,5068,7303,-5732359,-45204,-151494,0,0,0,185,81,115,188,70,205,266,102,142,148,84,172,0,,,,,
1,1790113081744,-1124,-536,10145,313984,-204028,47647,0,0,0,445,325,309,403,301,462,429,168,291,382,203,470,0,,,,,
2,1790113081744,4398,3905,7954,-5751907,272445,-105068,0,0,0,187,82,117,181,62,203,258,93,138,137,64,152,0,,,,,
1,1790113081760,-1249,-550,10241,361632,-195476,62308,0,0,0,450,342,283,407,311,463,411,136,270,380,192,468,0,,,,,
2,1790113081760,4350,3761,8911,-5755572,690277,1221,0,0,0,192,83,122,185,65,215,266,102,142,133,60,170,0,,,,,
1,1790113081776,-1239,-646,10222,448375,-152716,85521,0,0,0,458,352,263,421,312,471,410,121,268,368,176,476,0,,,,,
2,1790113081776,4206,4015,10552,-5959601,1114218,232128,0,0,0,189,83,121,189,68,209,259,107,133,132,51,163,0,,,,,
1,1790113081792,-1196,-756,10126,493579,-109955,89186,0,0,0,459,354,248,444,313,473,398,113,261,360,166,478,0,,,,,
2,1790113081792,4302,3823,12964,-6360328,1569923,574213,0,0,0,180,81,114,189,66,210,262,105,133,147,66,175,0,,,,,
1,1790113081808,-1258,-837,10078,485026,-86742,86742,0,0,0,458,352,228,440,332,461,402,127,281,358,166,477,0,,,,,
2,1790113081808,4422,2981,15395,-6644992,1957212,875980,0,0,0,178,81,112,187,67,210,264,110,138,138,65,176,0,,,,,
1,1790113081824,-1182,-885,10150,467922,-109955,94073,0,0,0,472,350,224,432,341,448,434,135,300,351,161,485,0,,,,,
2,1790113081824,4388,1813,17769,-6669426,2245540,1050688,0,0,0,179,82,116,188,69,211,269,117,147,135,63,174,0,,,,,
1,1790113081840,-1119,-947,10275,477696,-164933,89186,0,0,0,477,355,246,435,340,451,407,111,274,348,159,486,0,,,,,
2,1790113081840,4063,1000,20306,-6627887,2461786,1142317,0,0,0,181,84,117,193,68,212,266,110,144,140,60,165,0,,,,,
1,1790113081856,-1306,-1024,10413,520457,-202807,94073,0,0,0,473,323,213,455,350,461,376,97,246,362,168,486,0,,,,,
2,1790113081856,3278,-311,23627,-6593679,2635272,1302364,0,0,0,178,76,109,200,64,203,262,100,133,148,61,165,0,,,,,
1,1790113081872,-1426,-1076,10591,593761,-178372,122173,0,0,0,474,340,195,457,357,451,413,123,282,355,158,505,0,,,,,
2,1790113081872,2091,-2675,26795,-6527705,2764776,1580919,0,0,0,175,68,105,208,66,195,264,98,125,157,67,172,0,,,,,
1,1790113081888,-1340,-1139,10658,685390,-149051,151494,0,0,0,489,327,193,453,336,456,436,130,308,351,161,513,0,,,,,
2,1790113081888,234,-6111,29633,-6508158,2845410,1901012,0,0,0,184,74,110,215,70,201,263,97,125,154,61,161,0,,,,,
1,1790113081904,-1282,-1239,10677,797790,-160046,174707,0,0,0,512,354,206,448,364,452,438,127,306,331,153,544,0,,,,,
2,1790113081904,-3015,-11524,32170,-6637661,2539977,2135584,0,0,0,169,70,107,205,69,204,251,105,144,137,56,161,0,,,,,
1,1790113081920,-1129,-1368,10586,923628,-202807,182037,0,0,0,503,379,203,438,373,463,438,138,308,350,177,537,0,,,,,
2,1790113081920,-3823,-17965,32404,-6576575,1544267,2251649,0,0,0,135,81,107,173,80,206,197,127,152,111,56,168,0,,,,,
1,1790113081936,-904,-1488,10500,1023810,-238237,156381,0,0,0,520,354,193,460,374,468,428,136,320,342,163,556,0,,,,,
2,1790113081936,1172,-27135,28365,-5943718,243124,2202780,0,0,0,122,78,112,156,80,205,196,121,154,98,61,194,0,,,,,
1,1790113081952,-1052,-1627,10868,1143539,-273667,101403,0,0,0,528,334,204,485,364,474,421,126,320,349,148,570,0,,,,,
2,1790113081952,8030,-40425,19138,-4528954,433714,1353677,0,0,0,133,84,109,151,86,215,188,118,137,96,65,167,0,,,,,
1,1790113081968,-1660,-1713,11859,1363451,-280998,107512,0,0,0,528,365,206,475,398,472,420,131,312,362,159,564,0,,,,,
2,1790113081968,2278,-50945,13361,-2717128,2098932,-202807,0,0,0,142,88,119,159,79,224,192,110,144,85,63,168,0,,,,,
1,1790113081984,-1885,-1794,12878,1717753,-244346,174707,0,0,0,538,379,214,469,400,474,395,131,297,359,176,571,0,,,,,
2,1790113081984,-17846,-50456,16185,-499687,2138028,-858876,0,0,0,129,62,87,168,76,205,275,192,144,161,162,141,0,,,,,
1,1790113082000,-1450,-1871,13582,2141693,-202807,217468,0,0,0,547,383,235,480,383,478,341,110,267,357,183,575,0,,,,,
2,1790113082000,-19712,-36099,20952,2097711,-618195,-145385,0,0,0,145,72,87,168,84,219,305,253,172,211,240,193,0,,,,,
1,1790113082016,-1474,-1938,14457,2686585,-233350,204028,0,0,0,540,391,241,476,391,473,321,101,253,363,186,561,0,,,,,
2,1790113082016,-3120,-5154,16176,5225341,-4239404,339641,0,0,0,165,86,111,184,91,258,330,331,186,224,310,214,0,,,,,
1,1790113082032,-2124,-1933,15424,3346319,-316428,245567,0,0,0,521,385,220,465,398,462,314,105,260,360,188,545,0,,,,,
2,1790113082032,5293,7116,12663,6680422,-5914397,397062,0,0,0,186,100,109,198,108,271,337,401,187,253,382,223,0,,,,,
1,1790113082048,-2751,-1785,16712,4141666,-313984,386066,0,0,0,497,400,205,462,402,460,254,89,254,347,189,522,0,,,,,
2,1790113082048,-153,-1890,16846,6062226,-3959628,1001818,0,0,0,188,97,110,205,97,272,376,417,188,310,436,245,0,,,,,
1,1790113082064,-4211,-1703,18143,5103168,-89186,632856,0,0,0,471,421,204,444,403,453,246,96,255,326,179,488,0,,,,,
2,1790113082064,-6680,-4182,22732,5353622,-1396437,1342681,0,0,0,196,90,123,200,89,264,416,422,200,351,439,258,0,,,,,
1,1790113082080,-5369,-2100,20306,6053674,346971,985936,0,0,0,444,381,187,429,360,439,210,83,203,299,155,464,0,,,,,
2,1790113082080,-5896,-1804,21048,4304156,-306654,510683,0,0,0,203,82,125,209,82,262,436,431,215,390,433,277,0,,,,,
1,1790113082096,-5398,-3804,24378,6984633,926071,1273043,0,0,0,429,363,182,380,344,414,285,130,234,276,150,438,0,,,,,
2,1790113082096,-90,344,13668,2900388,-421497,-267558,0,0,0,215,88,134,218,85,265,448,436,223,414,425,306,0,,,,,
1,1790113082112,-5436,-5671,28561,7711562,1353677,1418429,0,0,0,400,319,175,332,315,360,299,162,221,246,155,419,0,,,,,
2,1790113082112,1517,-512,9992,1578475,-474031,-113620,0,0,0,239,105,154,227,100,272,466,422,223,415,411,329,0,,,,,
1,1790113082128,-5216,-4044,30782,8263784,1607797,1567480,0,0,0,316,270,178,304,247,328,333,133,213,223,113,397,0,,,,,
2,1790113082128,-301,-1469,10452,493579,-245567,135612,0,0,0,267,117,170,241,122,281,480,395,239,416,403,349,0,,,,,
1,1790113082144,-7083,215,30873,8754920,2028072,1712866,0,0,0,245,210,209,279,195,324,280,101,184,207,108,287,0,,,,,
2,1790113082144,-732,-717,10480,158824,-117286,86742,0,0,0,288,136,186,254,156,281,486,377,260,422,394,371,0,,,,,
1,1790113082160,-12012,6848,24369,8740259,1827708,1848478,0,0,0,246,198,189,286,193,321,290,107,183,207,112,272,0,,,,,
2,1790113082160,-282,-95,10136,185703,-90408,7330,0,0,0,294,160,233,272,187,291,503,355,259,423,378,393,0,,,,,
1,1790113082176,-12266,11414,15094,7059158,100181,2100154,0,0,0,252,195,169,283,191,298,316,124,185,206,112,262,0,,,,,
2,1790113082176,-19,-129,9987,234572,-96516,0,0,0,0,299,164,312,266,194,329,493,332,272,427,344,431,0,,,,,
1,1790113082192,-7288,13563,10595,3772703,-983493,1995085,0,0,0,252,190,162,292,187,289,306,119,170,206,110,249,0,,,,,
2,1790113082192,-181,-272,10102,200363,-68416,8552,0,0,0,344,175,277,288,190,324,480,292,287,390,294,448,0,,,,,
1,1790113082208,-3139,12371,9997,-428827,-361632,1065348,0,0,0,251,188,161,294,187,289,273,104,147,206,110,245,0,,,,,
2,1790113082208,-296,-272,10184,191811,-23212,-1221,0,0,0,339,186,263,281,194,319,482,276,309,345,254,456,0,,,,,
1,1790113082224,-3436,9069,9227,-3182607,496022,90408,0,0,0,262,180,173,292,184,298,268,100,152,207,108,252,0,,,,,
2,1790113082224,-272,-263,10155,224798,9773,-13439,0,0,0,344,202,264,287,206,357,472,260,328,334,261,481,0,,,,,
1,1790113082240,-5843,6250,6829,-3692069,414166,-311541,0,0,0,283,170,187,301,177,307,286,105,172,211,104,261,0,,,,,
2,1790113082240,-205,-301,10136,263893,20769,-13439,0,0,0,348,198,266,321,206,374,448,198,295,307,176,503,0,,,,,
1,1790113082256,-4637,6580,5159,-3742160,-388510,-161268,0,0,0,292,175,174,306,175,295,284,104,160,215,106,258,0,,,,,
2,1790113082256,-143,-358,10160,295658,25656,-14660,0,0,0,373,200,251,327,221,379,459,202,307,256,143,509,0,,,,,
1,1790113082272,-2435,6982,5455,-4462981,-741590,-90408,0,0,0,296,175,159,309,179,290,300,116,163,218,108,254,0,,,,,
2,1790113082272,-95,-430,10117,311541,30543,-21991,0,0,0,360,227,218,336,250,384,445,174,304,240,127,518,0,,,,,
1,1790113082288,-1880,5982,7154,-5370727,-497244,-136833,0,0,0,294,174,159,311,178,292,311,117,170,219,110,254,0,,,,,
2,1790113082288,-100,-502,10050,304210,31764,-31764,0,0,0,373,219,178,334,238,400,419,153,291,219,102,534,0,,,,,
1,1790113082304,-2234,4637,8470,-5847202,-351858,-150272,0,0,0,295,171,172,308,172,295,291,107,160,220,110,258,0,,,,,
2,1790113082304,-81,-536,10050,282219,41538,-39095,0,0,0,370,215,166,325,239,421,406,161,313,212,93,548,0,,,,,
1,1790113082320,-2421,3809,9317,-5952270,-461814,-134390,0,0,0,294,175,157,304,171,291,280,119,174,219,107,259,0,,,,,
2,1790113082320,-4,-559,10150,285884,81855,-57421,0,0,0,367,215,154,321,234,423,393,155,320,208,102,547,0,,,,,
1,1790113082336,-2416,3613,10418,-6111095,-669508,-138055,0,0,0,290,172,158,302,173,300,290,110,165,221,109,266,0,,,,,
2,1790113082336,-28,-579,10256,320093,177150,-76969,0,0,0,374,252,133,336,237,409,397,132,310,215,107,548,0,,,,,
1,1790113082352,-2837,3196,12050,-6377433,-963945,-113620,0,0,0,285,170,165,298,173,312,290,104,170,218,106,274,0,,,,,
2,1790113082352,23,-631,10265,361632,278554,-83077,0,0,0,383,286,129,352,260,407,398,130,315,215,90,563,0,,,,,
1,1790113082368,-3230,2431,14175,-6614448,-1431868,-2443,0,0,0,286,172,171,298,173,311,294,106,172,218,107,272,0,,,,,
2,1790113082368,296,-727,10294,395840,340862,-113620,0,0,0,398,250,131,355,273,412,373,130,321,204,79,577,0,,,,,
1,1790113082384,-2809,1531,16444,-6682865,-1885130,135612,0,0,0,286,173,169,299,175,311,288,106,167,218,108,271,0,,,,,
2,1790113082384,291,-760,10643,464257,295658,-160046,0,0,0,406,202,129,354,275,418,365,119,327,205,90,586,0,,,,,
1,1790113082400,-2258,727,18947,-6676757,-2177123,202807,0,0,0,289,175,171,309,178,319,274,98,160,217,106,274,0,,,,,
2,1790113082400,134,-804,10672,593761,145385,-168598,0,0,0,407,196,134,350,270,426,374,123,335,210,98,598,0,,,,,
1,1790113082416,-2239,239,22474,-6697526,-2328618,183259,0,0,0,290,174,172,314,178,326,256,88,153,217,105,276,0,,,,,
2,1790113082416,162,-914,10452,698829,41538,-164933,0,0,0,415,210,142,345,270,402,365,132,332,221,96,597,0,,,,,
1,1790113082432,-2325,-521,26288,-6874677,-2535090,156381,0,0,0,286,173,170,309,176,325,262,90,158,219,103,275,0,,,,,
2,1790113082432,244,-1019,10433,763581,21991,-174707,0,0,0,419,201,140,352,252,423,362,137,336,218,79,611,0,,,,,
1,1790113082448,-1737,-2948,30097,-7193549,-2896722,62308,0,0,0,282,175,173,306,178,322,296,101,175,218,101,274,0,,,,,
2,1790113082448,90,-1100,10567,857654,32986,-185703,0,0,0,437,227,132,359,261,418,353,124,289,214,90,637,0,,,,,
1,1790113082464,445,-8576,33366,-7467216,-3455053,-211359,0,0,0,270,178,176,300,180,319,300,100,174,216,100,273,0,,,,,
2,1790113082464,-76,-1196,10581,965167,58643,-172263,0,0,0,450,211,126,368,260,426,353,120,278,229,96,662,0,,,,,
1,1790113082480,4058,-15458,34931,-7473325,-3732386,-544891,0,0,0,243,192,181,285,185,319,310,108,185,210,105,275,0,,,,,
2,1790113082480,38,-1316,11021,1095892,101403,-144164,0,0,0,461,211,126,364,237,424,345,121,295,261,122,664,0,,,,,
1,1790113082496,4733,-23828,31969,-6823364,-2800206,-896750,0,0,0,241,187,174,291,185,323,311,101,184,213,106,281,0,,,,,
2,1790113082496,282,-1416,11921,1299921,128281,-130725,0,0,0,463,230,138,352,261,400,364,122,334,214,88,671,0,,,,,
1,1790113082512,291,-34453,24187,-5517334,-1861917,-822224,0,0,0,243,202,182,302,200,330,272,89,166,213,108,283,0,,,,,
2,1790113082512,277,-1478,12840,1632231,136833,-139277,0,0,0,468,215,136,356,268,419,337,125,292,213,93,684,0,,,,,
1,1790113082528,775,-44651,15687,-3925420,-2598620,167377,0,0,0,242,204,194,295,193,333,270,85,168,213,108,286,0,,,,,
2,1790113082528,4,-1569,13342,2058615,186924,-116064,0,0,0,485,228,145,355,282,430,314,127,283,209,113,707,0,,,,,
1,1790113082544,18994,-50136,12778,-2053728,-3319441,929736,0,0,0,230,201,189,296,197,327,308,116,181,242,136,263,0,,,,,
2,1790113082544,397,-1761,13950,2547308,290771,-87964,0,0,0,488,228,147,332,287,404,298,178,265,198,145,707,0,,,,,
1,1790113082560,29447,-48212,14175,-21991,-1326799,9773,0,0,0,217,212,148,297,220,309,345,219,175,288,236,235,0,,,,,
2,1790113082560,1115,-1904,14553,3127630,405614,-169820,0,0,0,470,235,147,316,290,411,294,161,251,185,125,679,0,,,,,
1,1790113082576,9346,-18324,13749,3513696,2495995,-1441641,0,0,0,224,218,135,293,218,317,331,248,157,315,296,252,0,,,,,
2,1790113082576,1253,-1919,15395,3754377,489913,-285884,0,0,0,448,245,140,329,283,396,284,134,277,196,92,643,0,,,,,
1,1790113082592,-6843,13342,9432,6431189,4667010,-1144761,0,0,0,231,221,137,302,217,332,334,283,162,343,369,273,0,,,,,
2,1790113082592,2148,-1971,16654,4527733,555887,-441044,0,0,0,415,264,133,327,278,382,257,129,275,198,88,586,0,,,,,
1,1790113082608,-3785,4977,13309,6936985,4236961,-685390,0,0,0,230,226,148,312,220,349,373,357,183,388,438,286,0,,,,,
2,1790113082608,2622,-2038,19483,5456248,645073,-693942,0,0,0,394,271,136,291,268,373,227,122,246,177,85,520,0,,,,,
1,1790113082624,3350,-7236,21517,6489832,2141693,-1048244,0,0,0,231,220,166,314,213,357,408,387,185,435,455,299,0,,,,,
2,1790113082624,2206,-2847,24718,6585127,660956,-862541,0,0,0,376,229,138,254,229,333,198,108,213,161,72,456,0,,,,,
1,1790113082640,5805,-5699,25494,5885075,654847,-807563,0,0,0,235,198,175,319,200,353,432,388,201,467,463,308,0,,,,,
2,1790113082640,3680,-4201,28844,7309613,797790,-842994,0,0,0,318,164,124,223,174,283,171,97,166,151,71,374,0,,,,,
1,1790113082656,291,-1340,18760,4334699,830776,202807,0,0,0,245,193,190,319,196,374,462,426,269,475,459,338,0,,,,,
2,1790113082656,4637,-3273,32280,7710341,954171,-1169196,0,0,0,236,104,109,181,116,236,169,101,143,125,67,266,0,,,,,
1,1790113082672,-2670,-1435,12409,1765400,829554,345749,0,0,0,276,235,212,335,225,393,474,433,288,474,445,383,0,,,,,
2,1790113082672,6412,244,33069,8146498,238237,-1633453,0,0,0,167,65,94,166,77,194,174,96,131,89,49,150,0,,,,,
1,1790113082688,-1081,-1636,9954,1221,260228,-57421,0,0,0,319,274,239,358,252,411,490,434,304,484,425,424,0,,,,,
2,1790113082688,10624,9332,26183,8238128,-313984,-2124589,0,0,0,154,67,98,155,71,197,164,86,129,101,64,158,0,,,,,
1,1790113082704,-382,-760,9987,-56199,-17104,-100181,0,0,0,336,313,232,379,267,425,482,395,312,496,415,447,0,,,,,
2,1790113082704,10629,18066,14137,6591235,-235793,-2335948,0,0,0,192,52,87,163,63,185,172,98,127,120,57,143,0,,,,,
1,1790113082720,-851,-296,10337,300545,9773,25656,0,0,0,349,338,237,380,293,434,467,377,289,474,383,461,0,,,,,
2,1790113082720,6843,20143,8810,2527760,-491135,-1690874,0,0,0,155,62,91,148,68,190,178,109,136,110,46,152,0,,,,,
1,1790113082736,-1172,-449,10246,321315,56199,64751,0,0,0,387,320,235,415,302,452,414,245,209,466,345,478,0,,,,,
2,1790113082736,5106,14807,10815,-1508837,-1472185,-555887,0,0,0,158,68,97,150,68,187,169,90,122,95,46,132,0,,,,,
1,1790113082752,-1057,-574,10117,180816,-9773,30543,0,0,0,414,325,235,416,287,451,449,298,263,445,327,483,0,,,,,
2,1790113082752,6130,8576,9696,-3192381,-2207666,-122173,0,0,0,163,59,99,151,63,186,161,93,130,109,63,148,0,,,,,
1,1790113082768,-957,-550,10117,146607,-84299,20769,0,0,0,430,331,239,430,301,458,415,218,217,462,299,481,0,,,,,
2,1790113082768,6882,7566,5532,-2999348,-1828930,-544891,0,0,0,163,55,100,152,61,188,175,102,134,107,59,142,0,,,,,
1,1790113082784,-971,-540,10126,182037,-120951,31764,0,0,0,435,341,233,433,321,457,407,179,214,463,275,483,0,,,,,
2,1790113082784,6039,8533,3661,-3523470,-1131322,-810007,0,0,0,168,58,101,164,64,186,194,104,128,116,60,141,0,,,,,
1,1790113082800,-1009,-569,10112,197920,-134390,35430,0,0,0,440,343,232,433,328,461,439,205,266,424,264,494,0,,,,,
2,1790113082800,4278,9035,5364,-4994434,-649960,-626747,0,0,0,164,60,99,157,66,189,141,66,108,87,49,149,0,,,,,
1,1790113082816,-1057,-598,10083,191811,-149051,35430,0,0,0,444,341,240,430,325,471,466,223,313,396,241,500,0,,,,,
2,1790113082816,3723,7240,7686,-6166073,-680503,-293215,0,0,0,161,65,107,147,60,191,146,81,122,74,41,140,0,,,,,
1,1790113082832,-1134,-622,10078,183259,-167377,46425,0,0,0,452,339,238,431,323,482,458,204,320,386,212,493,0,,,,,
2,1790113082832,4790,4388,8700,-6522819,-709825,-87964,0,0,0,162,68,113,145,56,194,193,116,144,94,53,143,0,,,,,
1,1790113082848,-1191,-641,10098,195476,-175929,70860,0,0,0,463,334,224,436,326,486,442,173,305,369,194,489,0,,,,,
2,1790113082848,5853,3139,9078,-6385985,-295658,-25656,0,0,0,163,65,111,148,60,197,189,112,137,107,59,156,0,,,,,
1,1790113082864,-1186,-679,10083,218689,-175929,92851,0,0,0,470,333,214,428,334,477,457,160,315,361,179,497,0,,,,,
2,1790113082864,5589,3546,10634,-6401867,529009,139277,0,0,0,164,63,106,151,65,198,166,96,130,102,49,157,0,,,,,
1,1790113082880,-1234,-727,10050,222354,-177150,108734,0,0,0,470,338,207,429,347,473,458,146,320,351,169,501,0,,,,,
2,1790113082880,4962,3541,12950,-6610783,1137431,453262,0,0,0,161,62,102,150,62,198,171,95,136,95,48,159,0,,,,,
1,1790113082896,-1249,-780,10126,204028,-180816,131946,0,0,0,473,313,215,426,342,478,437,108,302,362,158,496,0,,,,,
2,1790113082896,4867,2727,15424,-6728069,1577254,873537,0,0,0,159,58,106,151,64,204,174,94,130,106,61,171,0,,,,,
1,1790113082912,-1019,-808,10447,249233,-178372,134390,0,0,0,473,321,193,446,348,473,468,141,323,348,156,507,0,,,,,
2,1790113082912,4503,1775,17827,-6662096,2052507,1258382,0,0,0,154,53,104,157,65,214,183,102,140,105,61,172,0,,,,,
1,1790113082928,-899,-818,10634,381179,-138055,98960,0,0,0,479,325,208,430,351,471,443,121,297,361,158,500,0,,,,,
2,1790113082928,3115,650,20660,-6464175,2400700,1654223,0,0,0,154,63,114,160,67,217,191,110,157,88,31,169,0,,,,,
1,1790113082944,-1072,-890,10476,510683,-76969,64751,0,0,0,489,339,194,433,363,461,441,115,291,352,162,515,0,,,,,
2,1790113082944,2010,-933,23967,-6148969,2288301,2223549,0,0,0,157,70,119,155,64,213,182,94,143,117,62,178,0,,,,,
1,1790113082960,-1167,-976,10380,582765,-69638,62308,0,0,0,485,337,196,446,356,463,392,94,252,372,169,508,0,,,,,
2,1790113082960,1670,-2675,27365,-5948605,2045176,2988352,0,0,0,155,72,117,151,59,213,181,102,150,101,42,181,0,,,,,
1,1790113082976,-1344,-1052,10404,638965,-112399,86742,0,0,0,478,336,199,456,360,466,405,102,270,368,169,512,0,,,,,
2,1790113082976,703,-5451,30294,-6188064,1908343,3748269,0,0,0,147,66,114,148,59,213,194,117,160,106,49,174,0,,,,,
1,1790113082992,-1416,-1158,10428,712268,-151494,133168,0,0,0,482,346,213,448,359,467,384,102,257,361,170,512,0,,,,,
2,1790113082992,-473,-10232,32280,-6467841,1516167,4356690,0,0,0,148,67,110,151,58,211,180,99,154,97,50,179,0,,,,,
1,1790113083008,-1258,-1277,10442,800233,-193033,171042,0,0,0,489,358,215,444,354,474,377,100,253,357,170,524,0,,,,,
2,1790113083008,1387,-16692,31217,-6420193,447153,4449542,0,0,0,151,78,115,152,62,215,169,95,136,101,48,170,0,,,,,
1,1790113083024,-1062,-1383,10490,890641,-237015,180816,0,0,0,501,358,208,450,351,477,356,92,243,360,178,544,0,,,,,
2,1790113083024,8892,-24503,25982,-5910732,-729373,3732386,0,0,0,147,98,109,166,129,228,182,112,159,99,56,192,0,,,,,
1,1790113083040,-1009,-1488,10624,1011592,-287106,162490,0,0,0,509,354,208,458,356,480,310,75,211,370,188,555,0,,,,,
2,1790113083040,16137,-35831,17520,-4842939,248011,1175304,0,0,0,143,95,110,168,123,229,203,109,155,114,66,205,0,,,,,
1,1790113083056,-1067,-1588,11012,1164309,-345749,145385,0,0,0,514,357,212,472,364,491,295,68,208,383,190,561,0,,,,,
2,1790113083056,6298,-44120,14118,-3544240,2525316,-2244318,0,0,0,141,99,113,165,125,233,197,113,150,110,71,197,0,,,,,
1,1790113083072,-1091,-1684,11864,1411098,-431270,124616,0,0,0,520,354,215,482,365,501,320,78,242,389,184,571,0,,,,,
2,1790113083072,-16137,-45087,15443,-2042733,2224771,-3778812,0,0,0,142,82,101,166,105,219,201,129,145,114,83,178,0,,,,,
1,1790113083088,-1110,-1761,12902,1736079,-511905,97738,0,0,0,521,347,221,476,359,499,335,90,257,389,175,569,0,,,,,
2,1790113083088,-22632,-41153,16204,-178372,-777020,-3110525,0,0,0,145,70,91,172,85,207,244,187,148,150,146,171,0,,,,,
1,1790113083104,-1588,-1856,14036,2241875,-583987,81855,0,0,0,531,366,224,481,353,487,313,97,256,414,188,549,0,,,,,
2,1790113083104,-4895,-24101,17401,2233323,-3370754,-1986533,0,0,0,153,88,98,178,92,222,295,275,165,197,231,187,0,,,,,
1,1790113083120,-2249,-1895,14888,2807536,-604756,139277,0,0,0,527,358,226,462,359,500,309,96,255,381,191,584,0,,,,,
2,1790113083120,8892,3278,12481,5076290,-4542393,-1511280,0,0,0,171,105,103,190,104,249,335,360,181,243,304,219,0,,,,,
1,1790113083136,-2426,-1871,15510,3484375,-546113,270002,0,0,0,519,373,207,465,372,468,340,115,281,384,181,578,0,,,,,
2,1790113083136,9576,8714,10605,6411641,-4119675,-615752,0,0,0,194,106,105,206,107,265,376,428,184,289,383,246,0,,,,,
1,1790113083152,-2522,-1799,16300,4234517,-449596,393397,0,0,0,499,367,204,453,382,472,248,85,229,351,180,542,0,,,,,
2,1790113083152,445,-3101,19353,6169738,-2360383,1193630,0,0,0,204,97,118,205,94,265,403,466,189,329,441,252,0,,,,,
1,1790113083168,-3498,-1751,17128,5079955,-256563,552222,0,0,0,467,372,190,453,396,480,118,32,113,320,167,501,0,,,,,
2,1790113083168,-7805,-5886,26867,5261993,-1117883,1633453,0,0,0,197,87,119,210,84,261,433,470,188,368,421,255,0,,,,,
1,1790113083184,-4115,-2349,19167,5932723,195476,812450,0,0,0,441,372,192,427,372,444,241,89,211,302,157,469,0,,,,,
2,1790113083184,-4058,-1497,20014,3331659,-985936,386066,0,0,0,197,86,131,213,78,250,467,446,187,377,420,249,0,,,,,
1,1790113083200,-4551,-4111,23297,6740287,811229,984714,0,0,0,426,342,183,390,340,406,273,109,229,272,139,441,0,,,,,
2,1790113083200,483,1009,11275,1511280,-736703,-142942,0,0,0,233,90,159,226,82,252,478,448,186,414,396,265,0,,,,,
1,1790113083216,-5498,-5857,27843,7442782,1148426,1072679,0,0,0,399,314,174,349,302,364,280,118,211,259,131,419,0,,,,,
2,1790113083216,909,301,8379,696386,-456927,91629,0,0,0,251,102,186,234,119,277,502,414,188,423,388,283,0,,,,,
1,1790113083232,-4905,-4919,30437,8024325,1398881,1248608,0,0,0,329,273,176,314,249,329,284,115,191,228,114,388,0,,,,,
2,1790113083232,-540,-641,10189,454483,-337197,152716,0,0,0,267,123,202,241,143,276,501,416,214,415,395,317,0,,,,,
1,1790113083248,-7346,-765,29858,8515461,1893682,1419650,0,0,0,265,231,180,288,210,308,285,105,178,203,102,329,0,,,,,
2,1790113083248,-756,-268,10739,244346,-239459,56199,0,0,0,288,192,214,241,166,278,493,398,221,428,385,333,0,,,,,
1,1790113083264,-12409,6097,24383,8450709,1631010,1635897,0,0,0,242,216,183,280,203,306,290,105,178,203,106,277,0,,,,,
2,1790113083264,-277,306,10165,164933,-177150,-4886,0,0,0,307,204,213,263,197,296,503,385,244,428,375,359,0,,,,,
1,1790113083280,-13261,11165,16046,7050606,46425,2107485,0,0,0,238,216,184,289,208,311,227,85,139,200,105,265,0,,,,,
2,1790113083280,-186,282,9978,190589,-122173,6108,0,0,0,310,232,214,265,224,310,507,366,272,404,338,380,0,,,,,
1,1790113083296,-7044,12773,11313,3703065,-790459,2313957,0,0,0,247,194,174,292,200,296,124,41,65,202,100,252,0,,,,,
2,1790113083296,-287,177,10141,215024,-58643,3665,0,0,0,316,252,222,279,232,349,507,331,259,360,305,406,0,,,,,
1,1790113083312,-2321,12390,9533,-179594,-246789,1775174,0,0,0,251,186,164,281,191,287,312,116,170,203,104,241,0,,,,,
2,1790113083312,-339,143,10169,216246,7330,-17104,0,0,0,321,243,249,276,229,354,494,288,284,323,262,420,0,,,,,
1,1790113083328,-2397,9026,9011,-3079982,900415,831998,0,0,0,236,179,197,257,176,297,330,121,202,204,105,260,0,,,,,
2,1790113083328,-311,138,10093,207694,52534,-25656,0,0,0,324,246,266,278,236,358,490,257,280,285,217,425,0,,,,,
1,1790113083344,-4848,6350,7059,-3478266,1017701,441044,0,0,0,247,184,164,269,176,282,335,127,187,205,105,252,0,,,,,
2,1790113083344,-220,143,10069,213802,63529,-26878,0,0,0,337,239,266,293,231,362,481,215,269,272,175,437,0,,,,,
1,1790113083360,-5427,5948,4752,-3492927,425162,382401,0,0,0,243,178,176,269,172,292,328,120,188,205,100,257,0,,,,,
2,1790113083360,-114,105,10078,239459,46425,-43982,0,0,0,349,228,264,293,224,354,463,176,275,255,139,463,0,,,,,
1,1790113083376,-4048,6436,4714,-4180761,-100181,321315,0,0,0,243,175,186,273,173,301,240,80,144,205,101,265,0,,,,,
2,1790113083376,-124,14,10122,287106,7330,-64751,0,0,0,358,241,261,285,246,354,450,165,283,231,129,483,0,,,,,
1,1790113083392,-3172,5809,6058,-5061629,-249233,160046,0,0,0,249,178,188,281,174,301,304,110,182,254,105,256,0,,,,,
2,1790113083392,-172,-38,10179,343306,-3665,-73303,0,0,0,368,243,245,296,266,365,439,155,295,236,127,488,0,,,,,
1,1790113083408,-3096,4426,7585,-5547878,-229685,-8552,0,0,0,248,190,187,287,181,303,317,115,186,228,105,262,0,,,,,
2,1790113083408,-205,-86,10179,389732,0,-75747,0,0,0,373,230,228,318,253,386,426,139,288,231,110,505,0,,,,,
1,1790113083424,-2952,3608,8714,-5760459,-340862,-168598,0,0,0,247,186,188,276,174,301,311,112,186,207,102,268,0,,,,,
2,1790113083424,-224,-148,10145,416610,8552,-73303,0,0,0,376,238,226,308,254,381,393,139,288,227,117,519,0,,,,,
1,1790113083440,-2627,3474,9992,-5968153,-615752,-371406,0,0,0,248,183,189,281,177,305,281,97,167,203,102,271,0,,,,,
2,1790113083440,-177,-224,10126,430049,32986,-64751,0,0,0,397,249,210,321,264,378,392,132,273,209,91,497,0,,,,,
1,1790113083456,-2761,3287,11777,-6324898,-934623,-513126,0,0,0,249,183,189,288,182,309,256,86,151,203,102,270,0,,,,,
2,1790113083456,-43,-296,10126,436157,61086,-70860,0,0,0,424,253,185,323,275,404,395,127,262,218,115,531,0,,,,,
1,1790113083472,-3129,2636,13821,-6641326,-1334129,-515570,0,0,0,244,181,192,279,178,311,255,85,152,203,102,271,0,,,,,
2,1790113083472,0,-344,10169,442266,94073,-96516,0,0,0,408,247,176,336,296,422,384,135,293,219,125,557,0,,,,,
1,1790113083488,-3134,1818,15812,-6798930,-1765400,-348193,0,0,0,242,184,186,276,175,307,280,93,161,206,102,271,0,,,,,
2,1790113083488,-23,-397,10256,461814,136833,-120951,0,0,0,418,278,158,327,280,416,382,136,312,201,97,566,0,,,,,
1,1790113083504,-2560,1095,18334,-6862460,-2117258,-61086,0,0,0,248,192,172,284,179,297,308,104,169,208,101,267,0,,,,,
2,1790113083504,33,-464,10390,504574,182037,-142942,0,0,0,425,277,132,339,282,408,372,145,296,209,112,586,0,,,,,
1,1790113083520,-2086,603,21062,-6907664,-2291966,167377,0,0,0,247,194,173,283,182,301,291,101,165,204,102,270,0,,,,,
2,1790113083520,100,-526,10543,572991,197920,-169820,0,0,0,416,268,126,368,293,399,389,190,308,229,118,608,0,,,,,
1,1790113083536,-1545,-90,25178,-7000515,-2449569,317649,0,0,0,253,191,177,291,184,303,304,109,174,205,104,269,0,,,,,
2,1790113083536,43,-607,10629,678060,161268,-186924,0,0,0,426,259,130,363,290,409,384,163,304,217,106,628,0,,,,,
1,1790113083552,-425,-1823,29384,-7154453,-2739119,262672,0,0,0,252,192,178,293,183,304,308,110,176,202,99,266,0,,,,,
2,1790113083552,71,-708,10648,786794,134390,-190589,0,0,0,442,269,142,350,294,421,368,137,303,204,97,640,0,,,,,
1,1790113083568,1947,-6432,32840,-7330382,-3281568,-182037,0,0,0,242,186,171,287,183,302,330,116,188,208,102,266,0,,,,,
2,1790113083568,0,-823,10725,906524,135612,-190589,0,0,0,448,290,132,349,318,427,356,150,298,216,112,648,0,,,,,
1,1790113083584,4895,-13031,34634,-7360926,-3608991,-836885,0,0,0,236,187,169,284,184,306,338,119,193,207,102,267,0,,,,,
2,1790113083584,-71,-918,10997,1034805,150272,-175929,0,0,0,449,302,127,352,329,428,355,162,291,221,119,658,0,,,,,
1,1790113083600,5446,-21339,32792,-7009067,-2809980,-1532050,0,0,0,230,189,172,283,185,307,342,117,194,206,99,267,0,,,,,
2,1790113083600,4,-1014,11557,1213178,168598,-155159,0,0,0,460,296,142,352,309,421,357,155,289,214,110,664,0,,,,,
1,1790113083616,-1588,-31213,24929,-5875301,-1411098,-1571145,0,0,0,234,193,174,282,183,313,334,112,193,206,102,272,0,,,,,
2,1790113083616,47,-1129,12199,1486845,197920,-138055,0,0,0,484,275,144,357,288,403,351,144,294,232,115,670,0,,,,,
1,1790113083632,-5288,-40492,16467,-4361577,-2024407,-561996,0,0,0,241,196,178,297,188,317,308,99,186,210,101,273,0,,,,,
2,1790113083632,33,-1229,12878,1828930,244346,-119729,0,0,0,506,262,142,374,292,398,340,142,297,259,125,680,0,,,,,
1,1790113083648,9643,-45828,13031,-2635272,-3791029,712268,0,0,0,239,194,176,293,186,316,328,111,204,211,102,274,0,,,,,
2,1790113083648,229,-1359,13606,2245540,283441,-107512,0,0,0,521,251,141,359,288,403,305,151,268,233,131,681,0,,,,,
1,1790113083664,28226,-45417,13137,-552222,-2685363,386066,0,0,0,219,192,154,296,201,305,340,168,186,263,179,250,0,,,,,
2,1790113083664,813,-1536,14233,2753780,285884,-141720,0,0,0,484,226,140,329,287,405,305,203,274,234,168,694,0,,,,,
1,1790113083680,22574,-36778,15778,1628566,1558928,-1463633,0,0,0,212,205,138,294,216,304,336,238,168,296,264,242,0,,,,,
2,1790113083680,1067,-1646,14773,3269350,261450,-238237,0,0,0,486,227,149,314,247,395,296,150,252,229,133,676,0,,,,,
1,1790113083696,-3479,-11361,15453,4278500,4170987,-2037846,0,0,0,219,216,136,291,210,322,356,292,180,315,328,259,0,,,,,
2,1790113083696,1464,-1713,15979,3933972,195476,-342084,0,0,0,464,256,150,307,250,377,255,115,245,225,117,647,0,,,,,
1,1790113083712,-9916,12266,10313,6514266,4230852,-400727,0,0,0,231,214,135,302,198,345,399,352,202,351,388,278,0,,,,,
2,1790113083712,2881,-1852,16903,4649906,96516,-526565,0,0,0,438,250,144,317,248,385,230,118,252,199,103,570,0,,,,,
1,1790113083728,-1737,1718,13701,6790377,3434284,131946,0,0,0,244,206,138,313,194,362,437,420,218,387,425,296,0,,,,,
2,1790113083728,3871,-2292,18985,5560095,36651,-867428,0,0,0,414,265,150,294,253,367,204,112,237,184,100,536,0,,,,,
1,1790113083744,3699,-6934,21694,6118426,1621236,-838107,0,0,0,236,193,146,310,186,360,448,433,214,441,448,307,0,,,,,
2,1790113083744,4532,-3790,23464,6547253,171042,-1175304,0,0,0,370,216,137,263,235,323,185,122,192,154,104,458,0,,,,,
1,1790113083760,3522,-3771,24254,5028642,1018923,-638965,0,0,0,244,193,155,316,206,355,458,437,231,458,451,314,0,,,,,
2,1790113083760,4656,-4900,28446,7246083,532674,-1374446,0,0,0,309,166,127,214,189,287,172,135,172,136,105,376,0,,,,,
1,1790113083776,-253,-1651,18367,2415361,1286482,211359,0,0,0,268,214,197,324,234,375,472,435,282,473,450,338,0,,,,,
2,1790113083776,4541,-3153,31725,7649254,620639,-1657888,0,0,0,248,111,108,180,117,236,170,110,142,106,49,251,0,,,,,
1,1790113083792,-1091,-1316,11529,149051,761138,272445,0,0,0,266,272,265,317,277,429,478,427,303,497,448,376,0,,,,,
2,1790113083792,6944,512,32036,8023104,57421,-2094046,0,0,0,181,82,99,165,86,212,174,106,135,103,56,183,0,,,,,
1,1790113083808,-306,-679,8911,-274889,89186,-40317,0,0,0,293,285,237,357,270,411,478,398,270,497,428,394,0,,,,,
2,1790113083808,10911,8490,25642,7944913,-221133,-2596177,0,0,0,148,73,101,152,76,207,170,101,141,102,63,160,0,,,,,
1,1790113083824,-287,-157,9887,193033,9773,-81855,0,0,0,332,326,271,359,281,406,483,375,271,501,398,413,0,,,,,
2,1790113083824,11337,16314,14855,6549697,-119729,-2877175,0,0,0,153,66,102,152,70,203,165,89,132,103,52,152,0,,,,,
1,1790113083840,-598,-67,10614,373849,87964,-3665,0,0,0,349,328,279,388,280,429,443,312,254,488,374,444,0,,,,,
2,1790113083840,7298,18798,8198,2822197,-83077,-2199114,0,0,0,164,65,101,163,66,196,178,89,120,112,49,149,0,,,,,
1,1790113083856,-574,-153,10308,256563,29321,17104,0,0,0,359,333,317,391,293,460,425,271,249,473,336,471,0,,,,,
2,1790113083856,4312,14529,9466,-1112996,-764803,-726929,0,0,0,167,70,104,170,66,190,197,100,127,120,49,147,0,,,,,
1,1790113083872,-502,-181,10122,218689,-78190,6108,0,0,0,368,325,333,402,296,478,429,242,243,464,299,481,0,,,,,
2,1790113083872,4575,9255,8753,-2933374,-1595580,188146,0,0,0,164,66,105,168,73,194,189,105,131,120,55,146,0,,,,,
1,1790113083888,-531,-167,10222,272445,-172263,8552,0,0,0,382,337,351,411,303,483,434,222,275,434,264,476,0,,,,,
2,1790113083888,6259,6944,5111,-2844188,-1700648,202807,0,0,0,159,74,111,150,69,202,164,102,132,94,49,152,0,,,,,
1,1790113083904,-583,-177,10323,326202,-232128,37873,0,0,0,399,360,317,407,314,479,454,223,317,395,235,475,0,,,,,
2,1790113083904,5934,7652,3115,-3106860,-802676,-9773,0,0,0,160,79,121,145,71,213,160,104,142,87,49,160,0,,,,,
1,1790113083920,-626,-220,10313,364075,-290771,61086,0,0,0,405,356,268,420,329,471,457,208,314,373,210,476,0,,,,,
2,1790113083920,4245,7944,4163,-4029267,6108,19547,0,0,0,164,87,121,142,71,210,161,107,134,95,53,155,0,,,,,
1,1790113083936,-765,-277,10241,390953,-316428,84299,0,0,0,411,350,262,440,340,466,422,158,280,371,187,467,0,,,,,
2,1790113083936,2914,6700,6231,-4935791,342084,196698,0,0,0,157,80,120,147,84,217,175,122,156,106,77,178,0,,,,,
1,1790113083952,-880,-368,10208,419053,-307876,123394,0,0,0,429,377,232,417,325,470,418,143,293,363,176,465,0,,,,,
2,1790113083952,2584,5183,7638,-5397605,485026,331088,0,0,0,160,86,119,151,83,220,210,129,171,113,77,184,0,,,,,
1,1790113083968,-751,-478,10380,448375,-302989,150272,0,0,0,422,349,218,417,314,480,435,144,327,346,160,472,0,,,,,
2,1790113083968,2833,4350,8643,-5523443,686612,408057,0,0,0,158,80,113,159,84,206,180,110,134,100,73,155,0,,,,,
1,1790113083984,-574,-555,10696,527787,-350636,123394,0,0,0,433,326,215,432,310,468,427,121,299,352,155,477,0,,,,,
2,1790113083984,2780,4307,10165,-5750685,1009149,505796,0,0,0,164,78,115,148,74,206,162,103,128,107,80,164,0,,,,,
1,1790113084000,-665,-612,10705,626747,-401949,87964,0,0,0,436,342,187,442,335,456,405,96,255,348,151,473,0,,,,,
2,1790113084000,2632,4292,11978,-6095213,1296256,635299,0,0,0,158,77,117,145,73,206,161,106,138,101,69,168,0,,,,,
1,1790113084016,-832,-689,10442,675616,-377514,79412,0,0,0,439,331,189,425,335,467,448,147,320,330,148,482,0,,,,,
2,1790113084016,2613,3895,14166,-6475171,1554041,764803,0,0,0,154,75,119,147,77,212,169,108,143,99,68,172,0,,,,,
1,1790113084032,-909,-794,10203,679282,-291993,79412,0,0,0,458,306,208,459,313,487,414,97,268,355,144,473,0,,,,,
2,1790113084032,2665,3067,16314,-6688974,1814269,841772,0,0,0,150,75,119,142,77,209,176,113,152,108,80,179,0,,,,,
1,1790113084048,-1005,-928,10007,652404,-180816,84299,0,0,0,443,305,223,467,320,484,378,97,256,361,147,477,0,,,,,
2,1790113084048,2488,2110,18616,-6695083,2109928,879645,0,0,0,148,83,120,145,72,212,172,111,148,111,86,185,0,,,,,
1,1790113084064,-1043,-1057,9882,623082,-117286,103847,0,0,0,453,321,216,455,334,493,344,88,243,346,152,488,0,,,,,
2,1790113084064,2033,1330,21732,-6643770,2318844,949284,0,0,0,153,91,124,153,73,217,174,113,144,104,75,177,0,,,,,
1,1790113084080,-1048,-1134,9964,608421,-117286,130725,0,0,0,463,327,216,457,338,500,330,82,228,337,155,494,0,,,,,
2,1790113084080,1813,181,25494,-6585127,2382374,1016479,0,0,0,151,83,122,159,77,220,177,113,144,102,64,173,0,,,,,
1,1790113084096,-1086,-1206,10136,627969,-119729,158824,0,0,0,470,326,221,467,352,495,335,81,233,348,154,497,0,,,,,
2,1790113084096,1296,-1842,29126,-6592457,2419026,1053131,0,0,0,146,83,117,162,85,222,179,108,144,101,60,180,0,,,,,
1,1790113084112,-1119,-1292,10289,678060,-112399,190589,0,0,0,474,327,223,472,352,491,314,72,221,358,154,499,0,,,,,
2,1790113084112,-588,-5331,32409,-6812369,2409252,1134987,0,0,0,146,95,118,161,91,222,185,112,150,96,56,175,0,,,,,
1,1790113084128,-1043,-1392,10442,761138,-116064,221133,0,0,0,485,333,215,472,336,500,338,81,241,356,152,520,0,,,,,
2,1790113084128,-2469,-11304,33931,-7033502,1941329,1266934,0,0,0,139,86,113,162,81,227,178,108,147,95,60,171,0,,,,,
1,1790113084144,-837,-1497,10519,866206,-146607,227241,0,0,0,501,341,213,483,338,505,389,100,281,359,152,542,0,,,,,
2,1790113084144,-330,-20363,31481,-6625444,994488,1306029,0,0,0,137,89,111,166,85,234,178,109,144,97,59,171,0,,,,,
1,1790113084160,-717,-1612,10662,983493,-172263,206472,0,0,0,511,340,211,494,348,489,381,97,291,373,153,551,0,,,,,
2,1790113084160,3354,-31739,25120,-5579643,601091,1048244,0,0,0,139,83,112,166,86,242,186,112,154,107,65,182,0,,,,,
1,1790113084176,-981,-1684,11366,1139874,-163711,183259,0,0,0,519,343,196,478,342,482,379,104,306,372,161,567,0,,,,,
2,1790113084176,1033,-45182,17348,-3965737,1440420,92851,0,0,0,133,73,110,166,74,242,178,107,145,107,62,188,0,,,,,
1,1790113084192,-1143,-1751,12242,1375668,-127059,185703,0,0,0,517,369,210,464,363,486,346,106,265,362,180,555,0,,,,,
2,1790113084192,-15084,-53151,15151,-2032959,1915673,-904080,0,0,0,147,87,116,171,77,240,187,106,143,114,85,172,0,,,,,
1,1790113084208,-990,-1856,13098,1740965,-83077,188146,0,0,0,523,370,225,493,369,494,311,88,239,386,175,557,0,,,,,
2,1790113084208,-25556,-51174,15989,-6108,438601,-725707,0,0,0,131,71,93,176,84,217,247,180,143,151,137,163,0,,,,,
1,1790113084224,-914,-1933,13974,2222327,-114842,156381,0,0,0,539,383,236,471,403,481,319,98,256,386,194,563,0,,,,,
2,1790113084224,-13003,-28121,17980,2375044,-1943773,226020,0,0,0,148,71,97,173,78,225,276,252,150,189,231,178,0,,,,,
1,1790113084240,-1474,-1938,14946,2814867,-202807,160046,0,0,0,527,375,234,453,382,469,300,91,246,372,185,557,0,,,,,
2,1790113084240,5518,7556,12663,5125159,-3589444,454483,0,0,0,162,88,96,192,113,260,308,397,172,232,307,222,0,,,,,
1,1790113084256,-2254,-1866,15893,3533244,-251676,299323,0,0,0,518,356,227,460,371,454,272,80,218,363,169,539,0,,,,,
2,1790113084256,8245,12246,8652,6658431,-4094018,190589,0,0,0,179,99,111,194,106,266,339,428,182,261,377,250,0,,,,,
1,1790113084272,-2904,-1737,17295,4409225,-189368,519235,0,0,0,489,373,210,455,359,462,284,94,252,334,162,519,0,,,,,
2,1790113084272,-961,-4297,17855,6761056,-2596177,1045801,0,0,0,196,96,128,201,85,266,397,437,198,321,415,253,0,,,,,
1,1790113084288,-4584,-1698,19229,5370727,24434,814894,0,0,0,453,365,203,434,357,462,262,102,263,311,158,479,0,,,,,
2,1790113084288,-7097,-7552,27532,6043900,-1209513,1315803,0,0,0,197,88,137,210,78,262,435,442,198,362,417,248,0,,,,,
1,1790113084304,-5360,-2282,22694,6477614,502131,1235169,0,0,0,429,352,193,399,350,444,270,106,245,274,149,451,0,,,,,
2,1790113084304,-3129,-2292,21708,3804468,-988379,389732,0,0,0,207,82,146,221,79,263,459,414,190,404,397,247,0,,,,,
1,1790113084320,-5010,-4259,27097,7448890,1055575,1478293,0,0,0,416,319,187,360,307,394,239,89,187,250,131,429,0,,,,,
2,1790113084320,1148,325,11299,1298699,-784350,-63529,0,0,0,239,96,170,242,100,280,506,387,207,418,380,287,0,,,,,
1,1790113084336,-4498,-5015,30557,8125729,1302364,1558928,0,0,0,361,275,179,321,258,347,246,87,167,229,115,407,0,,,,,
2,1790113084336,914,-445,8059,205250,-381179,86742,0,0,0,282,120,201,258,128,293,529,375,219,406,371,345,0,,,,,
1,1790113084352,-4828,-3239,32988,8739038,1809382,1690874,0,0,0,280,223,170,296,217,315,281,99,167,212,107,322,0,,,,,
2,1790113084352,-71,-626,9791,205250,-171042,107512,0,0,0,312,138,220,268,150,307,521,353,230,415,360,383,0,,,,,
1,1790113084368,-9595,2100,31753,8935736,2439795,1827708,0,0,0,240,192,166,285,194,298,298,107,168,210,107,262,0,,,,,
2,1790113084368,-129,-234,10696,301767,-134390,39095,0,0,0,316,157,232,280,181,327,523,324,264,404,334,405,0,,,,,
1,1790113084384,-13797,10811,21110,7775092,1649336,2067167,0,0,0,247,188,166,284,191,295,290,103,165,210,107,268,0,,,,,
2,1790113084384,277,52,10275,284663,-147829,-8552,0,0,0,338,176,259,277,196,325,509,282,259,364,282,409,0,,,,,
1,1790113084400,-12165,15841,12218,4959004,172263,2269975,0,0,0,255,185,165,289,185,290,278,93,151,210,101,260,0,,,,,
2,1790113084400,301,-43,10016,217468,-81855,-1221,0,0,0,350,181,283,289,201,352,492,238,259,348,234,441,0,,,,,
1,1790113084416,-6211,15745,10839,825889,-514348,1887573,0,0,0,261,181,161,280,170,282,288,88,146,220,98,247,0,,,,,
2,1790113084416,205,-105,10117,207694,-4886,-4886,0,0,0,360,198,271,299,200,347,490,220,275,312,191,448,0,,,,,
1,1790113084432,-3517,11347,10988,-2356718,179594,825889,0,0,0,263,177,164,287,167,288,312,97,162,224,98,247,0,,,,,
2,1790113084432,167,-110,10189,232128,32986,-20769,0,0,0,362,195,251,309,216,375,471,188,291,263,145,469,0,,,,,
1,1790113084448,-4709,8212,7709,-2945592,441044,101403,0,0,0,265,176,159,295,173,286,278,81,136,226,100,253,0,,,,,
2,1790113084448,248,-129,10117,244346,26878,-31764,0,0,0,364,203,250,324,215,374,475,158,289,242,122,474,0,,,,,
1,1790113084464,-4929,7657,4900,-2948035,63529,-210137,0,0,0,268,180,162,299,173,286,247,72,121,231,100,253,0,,,,,
2,1790113084464,325,-181,10150,262672,14660,-43982,0,0,0,369,190,230,332,230,370,441,149,281,222,114,494,0,,,,,
1,1790113084480,-3259,8202,4393,-3556457,-459370,-400727,0,0,0,262,179,166,292,171,288,302,92,155,226,98,254,0,,,,,
2,1790113084480,296,-253,10275,317649,15882,-56199,0,0,0,375,189,215,331,224,379,418,139,281,216,96,509,0,,,,,
1,1790113084496,-2278,7336,6144,-4761083,-459370,-610865,0,0,0,262,178,162,289,169,286,304,93,156,225,98,259,0,,,,,
2,1790113084496,253,-291,10442,416610,46425,-62308,0,0,0,403,195,166,332,231,380,392,138,270,211,97,529,0,,,,,
1,1790113084512,-2904,5570,7719,-5594303,-398284,-686612,0,0,0,262,181,161,291,168,287,282,85,143,223,100,258,0,,,,,
2,1790113084512,239,-325,10595,566882,134390,-61086,0,0,0,403,212,161,333,241,381,381,125,275,194,82,539,0,,,,,
1,1790113084528,-3603,4149,8676,-5885075,-665843,-585208,0,0,0,259,183,161,290,172,290,285,95,153,217,103,258,0,,,,,
2,1790113084528,287,-402,10495,678060,251676,-59864,0,0,0,423,198,139,333,240,368,348,101,251,199,71,545,0,,,,,
1,1790113084544,-2928,3776,10026,-6109874,-1028697,-452040,0,0,0,264,187,165,288,176,292,307,109,171,213,105,259,0,,,,,
2,1790113084544,464,-564,10122,680503,327423,-67195,0,0,0,421,203,135,340,253,372,348,107,251,196,84,565,0,,,,,
1,1790113084560,-2718,3436,11916,-6445850,-1165530,-354301,0,0,0,261,186,170,286,174,298,319,116,184,211,104,264,0,,,,,
2,1790113084560,655,-684,10131,638965,310319,-96516,0,0,0,421,211,132,347,265,374,368,127,268,208,97,579,0,,,,,
1,1790113084576,-3350,2641,14386,-6765943,-1385442,-175929,0,0,0,255,181,177,285,173,306,320,117,191,209,102,268,0,,,,,
2,1790113084576,741,-770,10303,631634,249233,-139277,0,0,0,429,199,122,349,274,381,362,127,267,217,96,578,0,,,,,
1,1790113084592,-3450,1823,16726,-6951646,-1766622,28099,0,0,0,252,178,187,286,175,314,318,113,194,207,100,271,0,,,,,
2,1790113084592,622,-832,10356,673173,164933,-174707,0,0,0,439,191,121,350,270,396,348,119,258,218,94,587,0,,,,,
1,1790113084608,-2871,1000,19358,-7048163,-2153910,186924,0,0,0,252,180,195,287,175,318,318,109,195,206,96,273,0,,,,,
2,1790113084608,555,-933,10356,728151,107512,-173485,0,0,0,455,197,127,350,259,403,362,140,264,226,95,606,0,,,,,
1,1790113084624,-2450,272,22464,-7060380,-2351831,193033,0,0,0,248,182,200,285,174,320,320,109,197,205,94,274,0,,,,,
2,1790113084624,650,-1043,10471,796568,86742,-172263,0,0,0,462,206,126,354,273,402,377,165,271,224,90,607,0,,,,,
1,1790113084640,-2211,-421,26427,-7094588,-2524095,95294,0,0,0,240,179,200,282,176,324,317,111,202,206,97,277,0,,,,,
2,1790113084640,689,-1158,10667,904080,76969,-184481,0,0,0,464,222,129,370,277,404,363,122,249,220,95,615,0,,,,,
1,1790113084656,-1344,-2426,31036,-7291287,-2835636,-194255,0,0,0,237,188,200,282,178,322,312,108,197,215,99,278,0,,,,,
2,1790113084656,684,-1306,10777,1047023,72082,-197920,0,0,0,467,215,138,386,287,424,372,115,271,216,88,643,0,,,,,
1,1790113084672,76,-6475,34481,-7545407,-3336545,-574213,0,0,0,242,194,202,287,178,330,314,106,197,207,96,279,0,,,,,
2,1790113084672,607,-1450,10744,1183856,83077,-205250,0,0,0,493,217,150,373,277,428,365,129,263,215,114,655,0,,,,,
1,1790113084688,3220,-13457,37142,-7738440,-3885102,-982271,0,0,0,230,181,215,281,175,349,314,106,209,202,94,282,0,,,,,
2,1790113084688,641,-1593,11088,1335351,97738,-195476,0,0,0,498,219,127,357,280,411,356,138,257,231,121,672,0,,,,,
1,1790113084704,4776,-23263,35496,-7336491,-3070208,-1298699,0,0,0,230,191,198,289,183,348,314,108,200,201,95,282,0,,,,,
2,1790113084704,856,-1713,11868,1532050,92851,-196698,0,0,0,498,225,145,349,263,408,337,139,266,242,100,696,0,,,,,
1,1790113084720,-459,-35951,27494,-6106208,-1850921,-1060462,0,0,0,234,200,198,292,187,351,276,89,171,206,102,288,0,,,,,
2,1790113084720,737,-1761,12730,1827708,64751,-210137,0,0,0,506,228,145,339,254,399,305,138,244,246,126,686,0,,,,,
1,1790113084736,3125,-49073,17295,-4119675,-2772106,459370,0,0,0,235,201,198,295,189,351,280,91,175,206,104,287,0,,,,,
2,1790113084736,277,-1804,13381,2229658,65973,-164933,0,0,0,511,242,151,319,302,390,277,183,243,239,183,705,0,,,,,
1,1790113084752,23890,-55276,12711,-1958433,-3274237,1241278,0,0,0,243,202,182,299,198,322,322,113,182,232,127,271,0,,,,,
2,1790113084752,646,-1962,14180,2709798,118507,-101403,0,0,0,514,235,160,319,260,392,266,171,262,216,129,693,0,,,,,
1,1790113084768,35998,-51830,13261,277332,-706160,-265115,0,0,0,217,199,143,300,209,305,345,215,166,287,243,232,0,,,,,
2,1790113084768,1660,-2110,14989,3295007,135612,-171042,0,0,0,503,239,157,320,251,390,254,137,258,213,108,660,0,,,,,
1,1790113084784,11012,-24752,14754,3231477,2576629,-2199114,0,0,0,217,210,131,301,195,317,374,280,171,340,324,240,0,,,,,
2,1790113084784,2086,-2139,16142,3954741,31764,-313984,0,0,0,482,263,145,312,276,384,238,131,256,203,113,611,0,,,,,
1,1790113084800,-9964,14247,10658,6130643,3580892,-1754404,0,0,0,250,219,135,313,191,335,395,334,179,400,395,270,0,,,,,
2,1790113084800,3914,-2345,17343,4748866,-185703,-529009,0,0,0,443,279,143,299,287,378,212,123,248,187,116,570,0,,,,,
1,1790113084816,-6226,10504,12869,7220427,3418401,-641408,0,0,0,268,207,146,319,188,349,417,399,193,443,455,283,0,,,,,
2,1790113084816,5733,-3268,19664,5722585,-295658,-983493,0,0,0,417,263,142,283,260,357,187,111,229,176,95,524,0,,,,,
1,1790113084832,3914,-8480,22230,6966307,2195449,-868650,0,0,0,251,181,167,308,165,358,448,438,225,455,461,288,0,,,,,
2,1790113084832,5518,-5183,24780,6684087,-218689,-1375668,0,0,0,376,213,133,258,214,311,178,105,195,172,88,453,0,,,,,
1,1790113084848,6972,-9676,28097,6056117,1139874,-774577,0,0,0,230,163,186,307,158,366,458,447,238,470,458,307,0,,,,,
2,1790113084848,4675,-6345,30624,7277848,9773,-1547932,0,0,0,287,143,115,217,160,258,177,100,159,160,89,358,0,,,,,
1,1790113084864,650,-1617,19071,3566231,817337,97738,0,0,0,250,178,209,324,191,378,451,426,237,471,443,332,0,,,,,
2,1790113084864,5297,-3555,33309,7666358,-118507,-1816713,0,0,0,196,77,98,172,94,212,178,97,137,127,57,235,0,,,,,
1,1790113084880,-2249,315,10772,1215621,613308,178372,0,0,0,286,209,230,350,230,398,459,428,260,477,434,358,0,,,,,
2,1790113084880,8863,1943,31605,7990117,-574213,-2208888,0,0,0,161,64,99,160,65,193,174,87,129,101,43,145,0,,,,,
1,1790113084896,-966,-746,9332,223576,309097,-64751,0,0,0,295,251,260,351,252,434,442,353,250,477,408,400,0,,,,,
2,1790113084896,12878,10643,23852,7745771,-364075,-2715906,0,0,0,164,65,110,156,70,201,167,93,132,88,30,141,0,,,,,
1,1790113084912,-100,-823,10346,172263,86742,-94073,0,0,0,327,272,276,372,278,441,455,360,264,484,373,430,0,,,,,
2,1790113084912,12356,17741,12548,5769011,465479,-3103195,0,0,0,175,71,115,154,66,191,170,94,132,100,24,144,0,,,,,
1,1790113084928,-531,-229,10701,381179,40317,10995,0,0,0,361,288,293,384,268,447,425,296,241,485,347,474,0,,,,,
2,1790113084928,6398,18511,8963,1688431,719599,-2509434,0,0,0,175,56,106,159,65,189,180,90,117,120,62,138,0,,,,,
1,1790113084944,-818,-153,10227,329867,17104,32986,0,0,0,365,341,284,382,283,458,426,281,258,478,310,477,0,,,,,
2,1790113084944,2823,13740,10768,-2357939,-647517,-1069014,0,0,0,170,64,109,156,62,188,175,101,130,106,61,157,0,,,,,
1,1790113084960,-746,-296,10078,263893,-43982,24434,0,0,0,401,337,299,389,284,471,430,262,281,455,282,475,0,,,,,
2,1790113084960,4517,8695,9313,-3663969,-1792278,-284663,0,0,0,170,63,110,150,62,188,170,97,131,94,42,152,0,,,,,
1,1790113084976,-646,-373,10208,282219,-125838,31764,0,0,0,421,349,290,391,299,462,453,266,299,422,270,490,0,,,,,
2,1790113084976,6843,6862,5139,-3324328,-1326799,-299323,0,0,0,170,66,109,159,71,195,179,100,133,108,60,157,0,,,,,
1,1790113084992,-650,-382,10246,320093,-193033,43982,0,0,0,437,323,298,389,302,464,469,247,321,391,236,496,0,,,,,
2,1790113084992,5924,7556,3646,-3492927,-83077,-373849,0,0,0,166,65,113,157,68,194,186,111,133,114,63,166,0,,,,,
1,1790113085008,-708,-402,10184,338419,-233350,47647,0,0,0,454,316,290,409,302,469,440,179,273,379,212,493,0,,,,,
2,1790113085008,3335,8111,5479,-4392121,717155,-173485,0,0,0,167,68,113,156,67,192,184,106,135,113,63,173,0,,,,,
1,1790113085024,-784,-454,10155,339641,-234572,47647,0,0,0,464,323,269,431,302,477,418,137,252,379,192,488,0,,,,,
2,1790113085024,1852,6752,8035,-5345070,758694,238237,0,0,0,169,76,117,155,63,192,175,96,130,103,50,168,0,,,,,
1,1790113085040,-827,-531,10169,356745,-215024,58643,0,0,0,468,320,250,436,310,486,425,136,282,370,175,491,0,,,,,
2,1790113085040,2244,4948,9207,-5723807,593761,551000,0,0,0,162,71,114,156,66,197,182,98,136,110,51,170,0,,,,,
1,1790113085056,-832,-598,10193,393397,-180816,70860,0,0,0,470,310,232,434,324,492,419,115,284,360,167,501,0,,,,,
2,1790113085056,3263,4187,9801,-5727472,789237,679282,0,0,0,159,66,117,155,67,202,181,102,141,115,47,176,0,,,,,
1,1790113085072,-875,-646,10346,421497,-156381,81855,0,0,0,473,298,218,431,325,492,414,96,281,359,157,505,0,,,,,
2,1790113085072,3565,4182,11241,-5900958,1204626,764803,0,0,0,164,68,122,154,64,203,175,103,140,108,44,181,0,,,,,
1,1790113085088,-890,-689,10624,464257,-186924,97738,0,0,0,475,310,197,419,317,464,456,125,294,331,156,515,0,,,,,
2,1790113085088,3397,4225,13596,-6352998,1593136,855211,0,0,0,167,73,120,154,65,202,176,101,136,107,52,178,0,,,,,
1,1790113085104,-775,-760,10634,552222,-212581,97738,0,0,0,471,308,202,434,308,472,442,121,302,340,157,517,0,,,,,
2,1790113085104,3503,3369,15941,-6730513,1858252,919963,0,0,0,163,76,118,154,70,202,174,95,134,112,54,172,0,,,,,
1,1790113085120,-737,-866,10428,629191,-177150,76969,0,0,0,467,308,214,439,319,471,404,105,285,342,159,505,0,,,,,
2,1790113085120,3555,2311,18210,-6853907,2151467,956614,0,0,0,154,73,115,156,72,205,183,96,142,110,61,175,0,,,,,
1,1790113085136,-823,-961,10279,652404,-138055,59864,0,0,0,472,333,214,452,329,471,363,90,260,355,165,505,0,,,,,
2,1790113085136,3211,1646,21129,-6851464,2388483,1039692,0,0,0,156,75,119,157,69,206,192,94,146,106,47,173,0,,,,,
1,1790113085152,-890,-1048,10323,669508,-152716,63529,0,0,0,472,329,226,452,334,479,331,80,228,350,165,500,0,,,,,
2,1790113085152,2742,478,24670,-6906442,2516764,1222952,0,0,0,155,71,118,159,71,213,190,98,145,105,54,186,0,,,,,
1,1790113085168,-1038,-1143,10457,715934,-202807,85521,0,0,0,471,346,223,438,341,471,383,105,271,352,169,504,0,,,,,
2,1790113085168,2220,-2057,28011,-6939429,2582738,1505171,0,0,0,145,69,111,156,65,209,197,116,152,118,71,187,0,,,,,
1,1790113085184,-1153,-1244,10519,794124,-226020,129503,0,0,0,480,336,208,452,360,474,307,70,213,353,171,505,0,,,,,
2,1790113085184,1253,-6322,31083,-6939429,2658485,1788613,0,0,0,141,87,113,148,91,216,177,152,144,110,101,191,0,,,,,
1,1790113085200,-1100,-1363,10538,884532,-238237,173485,0,0,0,492,336,216,462,344,472,340,74,230,363,167,519,0,,,,,
2,1790113085200,-114,-12261,33634,-7001737,2477669,1913229,0,0,0,142,104,114,149,123,211,163,186,138,118,132,184,0,,,,,
1,1790113085216,-847,-1502,10442,974940,-255341,194255,0,0,0,497,331,228,464,336,473,330,76,241,373,168,530,0,,,,,
2,1790113085216,220,-19487,33586,-6867347,1727526,1780061,0,0,0,138,86,109,152,90,204,219,170,161,100,87,174,0,,,,,
1,1790113085232,-579,-1651,10145,1047023,-277332,160046,0,0,0,509,343,231,458,350,494,329,82,251,357,171,547,0,,,,,
2,1790113085232,3498,-29710,27977,-5988922,1123992,1389107,0,0,0,133,78,106,153,82,213,209,151,166,101,86,182,0,,,,,
1,1790113085248,-703,-1770,10318,1103222,-282219,105068,0,0,0,512,366,241,467,357,507,336,84,252,355,176,560,0,,,,,
2,1790113085248,3747,-43814,19042,-4465424,1644449,463035,0,0,0,140,87,119,159,89,229,203,162,167,99,92,191,0,,,,,
1,1790113085264,-1359,-1871,11481,1251052,-232128,101403,0,0,0,514,366,245,472,350,503,307,73,229,369,176,564,0,,,,,
2,1790113085264,-10011,-53266,15156,-2455678,2625498,-616973,0,0,0,144,81,128,165,91,240,201,135,167,105,86,197,0,,,,,
1,1790113085280,-1560,-1976,12668,1555262,-146607,160046,0,0,0,531,349,239,463,358,498,298,73,234,368,169,568,0,,,,,
2,1790113085280,-24197,-53089,15941,-240680,1651779,-637743,0,0,0,142,74,105,185,91,226,213,162,128,163,177,156,0,,,,,
1,1790113085296,-1201,-2053,13452,1959655,-102625,189368,0,0,0,532,355,250,465,376,487,321,86,264,374,175,566,0,,,,,
2,1790113085296,-20004,-36204,19961,2217440,-1301142,419053,0,0,0,135,72,95,183,89,224,273,247,152,201,247,186,0,,,,,
1,1790113085312,-1378,-2100,14386,2471560,-96516,200363,0,0,0,537,397,243,450,376,476,297,89,241,373,195,573,0,,,,,
2,1790113085312,-2000,-1923,15989,5413487,-3846007,1043357,0,0,0,148,83,100,186,91,243,317,319,191,252,342,236,0,,,,,
1,1790113085328,-2230,-2091,15281,3112969,-107512,284663,0,0,0,528,407,231,430,394,469,332,114,304,350,187,560,0,,,,,
2,1790113085328,4972,7575,12199,7203322,-4539950,924849,0,0,0,174,99,110,196,91,250,360,379,201,314,427,249,0,,,,,
1,1790113085344,-2656,-2024,16329,3854559,-96516,469144,0,0,0,504,381,215,450,389,463,265,78,225,359,167,528,0,,,,,
2,1790113085344,-1746,-2555,21435,6955311,-3494149,1227839,0,0,0,190,98,118,206,84,246,410,405,194,356,444,263,0,,,,,
1,1790113085360,-3771,-2024,17875,4773300,-37873,734260,0,0,0,472,396,209,432,399,474,253,94,241,307,174,494,0,,,,,
2,1790113085360,-7595,-6546,27949,5615073,-2179567,943175,0,0,0,197,89,130,214,73,245,433,385,178,372,426,271,0,,,,,
1,1790113085376,-4283,-2426,21143,5850867,195476,1094670,0,0,0,449,385,204,402,367,453,144,49,163,292,164,465,0,,,,,
2,1790113085376,-3551,-1770,19990,3354871,-1229060,53756,0,0,0,216,95,161,216,71,247,447,396,183,366,422,258,0,,,,,
1,1790113085392,-3522,-3905,26393,6910107,811229,1242499,0,0,0,427,337,184,403,331,412,209,78,166,267,138,443,0,,,,,
2,1790113085392,990,765,10337,1351233,-605978,-65973,0,0,0,246,104,188,232,97,261,477,448,203,377,437,289,0,,,,,
1,1790113085408,-3957,-5226,30097,7753101,1247386,1211956,0,0,0,385,308,178,359,284,363,280,105,189,248,122,418,0,,,,,
2,1790113085408,947,-162,8470,496022,-356745,107512,0,0,0,268,122,218,250,126,283,479,417,204,389,405,326,0,,,,,
1,1790113085424,-4297,-4412,31763,8269893,1453859,1275486,0,0,0,308,258,176,305,233,325,320,121,199,221,109,363,0,,,,,
2,1790113085424,-421,-1100,10423,288328,-274889,127059,0,0,0,298,151,237,265,153,303,486,388,206,385,396,353,0,,,,,
1,1790113085440,-7432,311,31208,8681616,2236988,1488067,0,0,0,250,214,172,278,206,302,336,139,198,204,111,299,0,,,,,
2,1790113085440,-205,-186,10648,273667,-195476,7330,0,0,0,298,141,214,283,172,318,508,356,244,372,339,373,0,,,,,
1,1790113085456,-12735,7925,24474,8341975,1931555,1722639,0,0,0,244,208,171,281,203,300,332,146,192,204,122,269,0,,,,,
2,1790113085456,162,205,10083,256563,-135612,-8552,0,0,0,307,204,258,292,218,333,497,320,238,341,341,406,0,,,,,
1,1790113085472,-13931,13577,15553,6850242,574213,2063502,0,0,0,252,210,171,289,200,302,258,106,147,208,120,267,0,,,,,
2,1790113085472,177,90,10002,224798,-65973,6108,0,0,0,342,184,290,300,236,342,486,302,247,325,238,404,0,,,,,
1,1790113085488,-8011,15721,9317,2806314,-951728,2202780,0,0,0,249,202,163,286,197,293,179,67,98,214,119,259,0,,,,,
2,1790113085488,100,-4,10145,212581,4886,0,0,0,0,355,193,298,306,225,356,493,278,259,286,202,420,0,,,,,
1,1790113085504,-3311,12998,9825,-1310916,-382401,1409876,0,0,0,246,196,160,284,193,287,289,119,161,215,118,255,0,,,,,
2,1790113085504,90,-19,10189,224798,61086,-23212,0,0,0,361,197,326,317,229,365,466,240,258,267,171,428,0,,,,,
1,1790113085520,-3235,8825,8992,-3406184,445931,503352,0,0,0,239,193,158,271,184,288,287,117,159,208,118,262,0,,,,,
2,1790113085520,172,-38,10083,244346,57421,-34208,0,0,0,367,265,305,317,251,369,451,196,258,246,147,446,0,,,,,
1,1790113085536,-4656,6805,6087,-3337767,313984,73303,0,0,0,247,221,163,290,201,292,247,101,132,210,125,262,0,,,,,
2,1790113085536,205,-95,10064,276111,26878,-39095,0,0,0,395,233,296,318,238,371,461,175,272,316,135,448,0,,,,,
1,1790113085552,-4034,6748,4522,-3428175,-237015,-124616,0,0,0,242,203,162,278,196,296,269,108,147,209,122,264,0,,,,,
2,1790113085552,177,-148,10169,327423,15882,-41538,0,0,0,404,200,279,320,232,374,444,156,276,272,101,470,0,,,,,
1,1790113085568,-2105,7130,5384,-4252843,-619417,-324980,0,0,0,242,199,164,271,186,300,301,120,167,208,117,268,0,,,,,
2,1790113085568,143,-186,10284,394618,45204,-39095,0,0,0,399,197,244,317,235,380,408,145,280,215,95,501,0,,,,,
1,1790113085584,-1823,5967,7437,-5221676,-513126,-558330,0,0,0,241,197,168,270,184,306,285,115,166,206,116,272,0,,,,,
2,1790113085584,162,-239,10332,461814,95294,-36651,0,0,0,401,196,212,324,247,388,380,136,286,205,98,516,0,,,,,
1,1790113085600,-2531,4556,8734,-5689598,-518013,-668286,0,0,0,241,197,167,271,183,301,288,116,166,208,116,270,0,,,,,
2,1790113085600,205,-315,10313,529009,175929,-35430,0,0,0,406,210,197,329,261,388,368,129,285,195,88,520,0,,,,,
1,1790113085616,-2670,3981,9595,-5842315,-780685,-645073,0,0,0,242,197,169,272,183,305,294,115,170,205,113,272,0,,,,,
2,1790113085616,291,-406,10227,568104,251676,-36651,0,0,0,412,224,183,326,261,381,365,129,279,202,95,527,0,,,,,
1,1790113085632,-2569,3661,10882,-6061004,-1003040,-575435,0,0,0,242,198,172,271,182,308,287,112,169,204,113,273,0,,,,,
2,1790113085632,425,-507,10093,559552,270002,-43982,0,0,0,421,214,154,336,265,388,355,118,270,200,100,544,0,,,,,
1,1790113085648,-2790,3062,12907,-6346889,-1258382,-406836,0,0,0,243,200,174,271,178,310,287,114,169,204,113,272,0,,,,,
2,1790113085648,559,-617,10040,525344,219911,-65973,0,0,0,435,217,143,347,266,388,350,122,263,211,102,557,0,,,,,
1,1790113085664,-2794,2388,15041,-6566801,-1577254,-178372,0,0,0,246,201,176,275,176,313,301,118,176,206,111,272,0,,,,,
2,1790113085664,631,-708,10160,514348,166155,-101403,0,0,0,423,214,135,339,265,388,354,119,262,207,95,566,0,,,,,
1,1790113085680,-2263,1603,17415,-6720739,-1899790,56199,0,0,0,248,199,173,280,180,313,301,113,175,210,113,275,0,,,,,
2,1790113085680,603,-746,10323,558330,141720,-131946,0,0,0,426,214,132,355,265,403,355,120,244,193,97,566,0,,,,,
1,1790113085696,-1799,808,20047,-6775717,-2074498,183259,0,0,0,243,201,177,282,186,316,294,112,171,208,112,277,0,,,,,
2,1790113085696,617,-808,10370,615752,125838,-156381,0,0,0,423,236,133,351,268,407,356,123,290,217,111,606,0,,,,,
1,1790113085712,-1761,210,23115,-6784269,-2224771,233350,0,0,0,242,198,181,281,188,320,300,114,179,204,108,277,0,,,,,
2,1790113085712,650,-899,10404,676838,100181,-178372,0,0,0,434,236,138,352,282,390,360,137,254,200,96,603,0,,,,,
1,1790113085728,-1670,-531,26920,-6807482,-2506990,215024,0,0,0,242,200,186,278,186,327,279,106,172,203,110,282,0,,,,,
2,1790113085728,559,-995,10581,752585,56199,-188146,0,0,0,450,236,139,366,266,415,352,120,254,223,98,627,0,,,,,
1,1790113085744,-248,-3517,31040,-6991963,-3033556,37873,0,0,0,239,198,175,288,188,327,276,98,160,208,107,280,0,,,,,
2,1790113085744,540,-1115,10634,858876,13439,-188146,0,0,0,459,256,135,377,324,414,359,128,252,228,128,643,0,,,,,
1,1790113085760,2416,-8911,34146,-7293730,-3562566,-260228,0,0,0,233,198,176,280,187,325,298,113,182,202,108,280,0,,,,,
2,1790113085760,507,-1239,10543,961501,-1221,-185703,0,0,0,457,242,130,378,294,416,359,127,259,220,96,657,0,,,,,
1,1790113085776,5422,-16726,34438,-7379252,-3358537,-659734,0,0,0,232,200,177,282,187,324,297,113,177,203,109,276,0,,,,,
2,1790113085776,545,-1349,10964,1083674,9773,-178372,0,0,0,469,246,140,360,292,411,338,134,265,228,123,671,0,,,,,
1,1790113085792,3642,-26240,30389,-6754947,-2210110,-948062,0,0,0,237,203,179,294,194,329,273,101,163,206,111,278,0,,,,,
2,1790113085792,646,-1435,11840,1282817,12217,-178372,0,0,0,472,250,135,353,328,408,324,138,256,218,131,677,0,,,,,
1,1790113085808,-2536,-38343,21320,-5247332,-1688431,-444709,0,0,0,239,209,184,301,200,339,295,111,181,204,110,283,0,,,,,
2,1790113085808,406,-1464,12629,1601688,4886,-163711,0,0,0,482,254,144,353,317,420,308,138,260,217,116,683,0,,,,,
1,1790113085824,7896,-48585,14582,-3477044,-3340211,984714,0,0,0,234,209,181,293,197,339,321,124,200,206,110,286,0,,,,,
2,1790113085824,248,-1531,13486,1992642,2443,-111177,0,0,0,499,247,146,336,270,404,287,129,265,236,111,690,0,,,,,
1,1790113085840,28131,-52146,12739,-1573588,-3204599,1130100,0,0,0,212,202,154,287,210,313,339,186,184,267,207,260,0,,,,,
2,1790113085840,947,-1718,14357,2448347,-8552,-83077,0,0,0,511,252,141,323,260,379,269,128,251,238,105,677,0,,,,,
1,1790113085856,31323,-44910,14855,850324,152716,-657290,0,0,0,197,206,133,281,211,300,363,272,182,312,304,242,0,,,,,
2,1790113085856,1502,-1813,15075,2990796,-53756,-172263,0,0,0,513,262,149,319,270,371,254,133,235,220,105,646,0,,,,,
1,1790113085872,3689,-11734,12122,4692666,3554013,-1571145,0,0,0,205,228,130,288,212,319,374,323,188,331,354,258,0,,,,,
2,1790113085872,2191,-1952,15869,3655417,-158824,-312763,0,0,0,492,261,155,308,267,368,237,129,234,204,111,609,0,,,,,
1,1790113085888,-8164,9911,10571,7097032,5034751,-521678,0,0,0,220,247,140,309,222,344,375,348,176,367,410,279,0,,,,,
2,1790113085888,3598,-2254,16506,4343251,-284663,-547335,0,0,0,451,275,158,297,271,376,216,124,240,190,102,563,0,,,,,
1,1790113085904,-952,-564,17645,6840468,3791029,-39095,0,0,0,228,236,156,311,203,355,410,396,197,394,446,285,0,,,,,
2,1790113085904,4958,-2675,18473,5291314,-333532,-982271,0,0,0,411,279,159,287,261,367,191,106,234,174,87,515,0,,,,,
1,1790113085920,5001,-7748,26475,6034126,1523497,-570548,0,0,0,231,200,165,303,193,351,455,442,229,438,453,287,0,,,,,
2,1790113085920,5857,-4015,22818,6351776,-251676,-1389107,0,0,0,382,263,131,266,226,328,175,103,193,156,50,466,0,,,,,
1,1790113085936,2775,-4388,25891,4561941,642630,-430049,0,0,0,240,203,207,300,199,350,445,412,221,439,450,303,0,,,,,
2,1790113085936,4977,-5853,28408,7043276,63529,-1681101,0,0,0,324,176,131,224,190,291,167,111,166,151,74,408,0,,,,,
1,1790113085952,-1349,-617,14697,1839926,751364,-62308,0,0,0,275,211,226,322,222,365,428,353,196,456,437,328,0,,,,,
2,1790113085952,3804,-3996,31701,7299839,-233350,-1986533,0,0,0,244,117,111,191,122,242,206,113,169,132,73,298,0,,,,,
1,1790113085968,-1311,-172,8786,278554,566882,-65973,0,0,0,301,253,255,322,238,379,444,369,244,460,418,359,0,,,,,
2,1790113085968,7221,239,30150,7533190,-1015258,-2288301,0,0,0,172,76,92,174,78,205,173,100,126,103,65,159,0,,,,,
1,1790113085984,-272,-679,9518,108734,206472,-74525,0,0,0,309,263,280,353,251,398,437,331,243,466,381,391,0,,,,,
2,1790113085984,12199,7140,24268,7671245,-985936,-2745228,0,0,0,157,65,104,159,72,204,183,107,140,99,51,154,0,,,,,
1,1790113086000,-406,-473,10734,279776,53756,-17104,0,0,0,315,275,308,351,253,411,427,308,243,467,370,420,0,,,,,
2,1790113086000,12663,14185,15075,6653544,-302989,-3154508,0,0,0,165,68,109,159,70,199,181,106,141,107,51,159,0,,,,,
1,1790113086016,-880,-129,10557,316428,64751,13439,0,0,0,344,298,316,374,282,432,423,286,246,468,339,444,0,,,,,
2,1790113086016,8777,17879,8557,3550348,312763,-3007900,0,0,0,169,65,104,162,63,194,180,100,133,106,47,145,0,,,,,
1,1790113086032,-818,-134,10122,257785,46425,8552,0,0,0,403,318,310,407,287,438,410,218,235,467,305,458,0,,,,,
2,1790113086032,4020,15008,9600,-828333,-45204,-1797165,0,0,0,172,68,110,158,62,193,176,98,135,107,50,143,0,,,,,
1,1790113086048,-679,-224,10126,267558,-10995,10995,0,0,0,433,329,310,409,285,439,408,183,238,455,284,463,0,,,,,
2,1790113086048,3345,9308,9629,-2967583,-993266,-662177,0,0,0,175,68,116,158,70,200,179,102,142,109,51,149,0,,,,,
1,1790113086064,-674,-282,10275,335975,-83077,29321,0,0,0,440,332,323,397,289,442,442,213,284,434,252,472,0,,,,,
2,1790113086064,5125,6695,5848,-2627942,-1163087,-238237,0,0,0,175,70,116,158,71,204,182,110,146,104,53,153,0,,,,,
1,1790113086080,-713,-320,10270,377514,-131946,48869,0,0,0,452,340,326,394,294,448,478,237,340,406,213,480,0,,,,,
2,1790113086080,5154,7030,3522,-2475225,-577878,-1221,0,0,0,170,74,117,156,74,206,148,85,135,105,56,155,0,,,,,
1,1790113086096,-732,-373,10203,400727,-161268,62308,0,0,0,460,348,313,400,302,452,463,208,336,385,202,471,0,,,,,
2,1790113086096,3421,8054,4254,-3143512,122173,361632,0,0,0,167,74,117,158,80,207,140,76,132,110,57,160,0,,,,,
1,1790113086112,-722,-425,10184,427605,-168598,72082,0,0,0,460,333,306,425,302,449,418,157,272,393,201,455,0,,,,,
2,1790113086112,2258,7365,6609,-4339586,328645,924849,0,0,0,169,74,115,157,78,205,184,110,148,103,58,162,0,,,,,
1,1790113086128,-746,-488,10212,456927,-166155,83077,0,0,0,450,341,283,428,323,465,419,140,272,380,196,461,0,,,,,
2,1790113086128,2933,5742,7925,-5055520,368962,1264491,0,0,0,166,72,115,158,76,205,185,110,151,94,50,161,0,,,,,
1,1790113086144,-751,-569,10236,500909,-157603,91629,0,0,0,442,323,277,441,309,481,420,146,305,377,177,465,0,,,,,
2,1790113086144,3661,4685,8633,-5247332,653625,1266934,0,0,0,168,73,118,162,78,206,174,103,143,93,40,154,0,,,,,
1,1790113086160,-746,-655,10265,518013,-158824,90408,0,0,0,442,338,271,436,304,478,418,130,317,354,157,470,0,,,,,
2,1790113086160,3627,4106,10031,-5486791,1060462,1165530,0,0,0,166,67,115,156,77,211,170,100,140,96,40,165,0,,,,,
1,1790113086176,-741,-727,10423,516791,-205250,81855,0,0,0,445,346,254,442,304,475,402,108,279,367,159,469,0,,,,,
2,1790113086176,3244,3948,11797,-5838649,1303586,1054353,0,0,0,164,73,121,156,81,206,175,101,145,96,49,157,0,,,,,
1,1790113086192,-775,-784,10452,543670,-266337,75747,0,0,0,452,327,223,433,309,465,415,106,279,348,153,472,0,,,,,
2,1790113086192,3450,3431,13768,-6239377,1543045,933402,0,0,0,161,76,117,155,77,211,181,111,149,107,66,171,0,,,,,
1,1790113086208,-808,-861,10323,577878,-266337,73303,0,0,0,448,328,214,437,306,470,410,107,275,341,152,475,0,,,,,
2,1790113086208,3536,2713,15812,-6487388,1888795,803898,0,0,0,155,70,117,163,86,214,169,98,132,101,65,168,0,,,,,
1,1790113086224,-832,-961,10126,583987,-201585,67195,0,0,0,444,340,216,440,333,471,408,120,268,339,172,477,0,,,,,
2,1790113086224,2971,2053,18214,-6571688,2189341,744033,0,0,0,155,77,121,157,87,218,184,108,146,107,45,166,0,,,,,
1,1790113086240,-851,-1048,10031,566882,-141720,63529,0,0,0,445,363,213,438,363,471,361,105,240,339,179,480,0,,,,,
2,1790113086240,2541,1531,20784,-6619335,2349387,792903,0,0,0,156,84,125,154,83,215,181,109,150,102,54,162,0,,,,,
1,1790113086256,-880,-1134,10078,551000,-119729,68416,0,0,0,458,368,219,438,355,470,370,100,254,333,169,491,0,,,,,
2,1790113086256,2479,684,24072,-6630331,2443460,961501,0,0,0,147,81,126,150,82,212,179,109,151,102,63,167,0,,,,,
1,1790113086272,-914,-1215,10275,579100,-163711,85521,0,0,0,467,355,226,443,336,473,383,97,261,334,162,499,0,,,,,
2,1790113086272,2115,-981,27307,-6641326,2555860,1163087,0,0,0,148,81,124,148,81,211,172,100,144,108,68,173,0,,,,,
1,1790113086288,-990,-1287,10480,649960,-216246,111177,0,0,0,466,346,227,449,338,483,345,80,233,343,162,498,0,,,,,
2,1790113086288,909,-4493,30476,-6728069,2652376,1368338,0,0,0,149,83,124,151,81,213,176,102,146,103,68,173,0,,,,,
1,1790113086304,-947,-1378,10500,744033,-230907,129503,0,0,0,473,345,236,460,338,492,360,87,249,342,158,507,0,,,,,
2,1790113086304,-617,-10241,32270,-6828251,2428800,1375668,0,0,0,145,82,122,152,83,216,189,111,153,94,59,169,0,,,,,
1,1790113086320,-866,-1517,10418,853989,-244346,135612,0,0,0,486,352,239,482,320,500,359,85,254,343,146,521,0,,,,,
2,1790113086320,-717,-17372,31863,-6632774,1827708,1198517,0,0,0,136,76,116,154,82,217,196,114,157,100,59,166,0,,,,,
1,1790113086336,-693,-1651,10270,945619,-263893,117286,0,0,0,492,338,246,479,329,486,308,74,237,353,156,525,0,,,,,
2,1790113086336,1698,-27049,27298,-5849645,1186300,868650,0,0,0,132,75,116,160,82,225,199,113,160,110,69,177,0,,,,,
1,1790113086352,-732,-1751,10528,1027475,-279776,81855,0,0,0,505,355,230,465,350,497,350,88,266,346,160,530,0,,,,,
2,1790113086352,1536,-39530,20057,-4641354,1579697,139277,0,0,0,143,85,122,163,87,236,198,114,161,108,66,190,0,,,,,
1,1790113086368,-1206,-1818,11605,1178969,-279776,68416,0,0,0,518,341,222,459,350,512,342,95,279,369,187,530,0,,,,,
2,1790113086368,-9174,-52165,14764,-2713463,2522873,-907745,0,0,0,146,83,117,170,83,233,211,121,158,114,81,181,0,,,,,
1,1790113086384,-1555,-1880,12907,1528384,-243124,128281,0,0,0,524,341,233,454,345,509,330,89,265,355,181,549,0,,,,,
2,1790113086384,-24958,-53433,15721,-532674,1902234,-862541,0,0,0,140,80,102,175,84,214,258,193,162,144,163,166,0,,,,,
1,1790113086400,-1363,-1947,13854,1998751,-219911,190589,0,0,0,526,358,252,453,343,494,303,87,260,365,178,553,0,,,,,
2,1790113086400,-19047,-34778,21282,2223549,-1574810,565661,0,0,0,147,85,97,175,99,213,304,309,174,212,251,181,0,,,,,
1,1790113086416,-1296,-1957,14769,2552194,-248011,215024,0,0,0,528,377,243,446,351,485,302,93,257,374,178,560,0,,,,,
2,1790113086416,-296,-1517,17980,5144707,-4858822,1230282,0,0,0,155,99,120,180,106,254,315,414,184,231,343,214,0,,,,,
1,1790113086432,-2033,-1876,15850,3262020,-267558,290771,0,0,0,518,367,238,442,366,477,267,85,235,362,183,552,0,,,,,
2,1790113086432,5221,7370,13012,6677978,-5453804,1210734,0,0,0,164,109,113,196,101,264,347,475,194,260,407,246,0,,,,,
1,1790113086448,-2689,-1694,17554,4147774,-202807,460592,0,0,0,495,374,212,422,380,475,271,100,249,335,185,524,0,,,,,
2,1790113086448,-1249,-1311,16903,6852686,-3225368,1732413,0,0,0,166,96,116,196,97,252,394,463,194,324,450,236,0,,,,,
1,1790113086464,-4407,-1608,19899,5144707,109955,729373,0,0,0,461,371,196,410,384,472,294,122,270,306,175,488,0,,,,,
2,1790113086464,-9413,-6977,25517,6014579,-795346,1748296,0,0,0,187,96,128,188,79,241,418,435,190,342,444,236,0,,,,,
1,1790113086480,-5867,-2024,23125,6300464,675616,1125213,0,0,0,433,333,190,405,372,440,286,121,247,284,154,454,0,,,,,
2,1790113086480,-4532,-3082,21646,3942524,-758694,384845,0,0,0,207,95,155,200,73,247,466,420,193,353,407,250,0,,,,,
1,1790113086496,-5436,-3756,27484,7404908,1455080,1453859,0,0,0,409,302,175,376,341,382,253,102,190,264,137,430,0,,,,,
2,1790113086496,1320,-110,12634,1601688,-858876,-217468,0,0,0,225,92,173,212,73,257,470,422,195,374,399,282,0,,,,,
1,1790113086512,-4891,-4867,31332,8130616,1995085,1532050,0,0,0,355,281,181,332,285,347,231,84,153,236,127,404,0,,,,,
2,1790113086512,1564,-19,8356,311541,-521678,29321,0,0,0,256,100,181,243,105,285,501,422,222,377,393,318,0,,,,,
1,1790113086528,-6101,-2541,33017,8567995,2646268,1650557,0,0,0,279,229,179,293,210,322,263,90,160,211,104,355,0,,,,,
2,1790113086528,-234,-512,9705,158824,-186924,138055,0,0,0,282,115,191,275,140,302,524,430,238,382,375,335,0,,,,,
1,1790113086544,-12098,4273,29533,8662069,3433062,1836260,0,0,0,251,185,186,298,192,308,332,115,192,214,104,278,0,,,,,
2,1790113086544,-411,-296,10643,250454,-131946,43982,0,0,0,299,133,211,288,156,310,517,382,229,384,345,350,0,,,,,
1,1790113086560,-16984,12342,20129,7828848,2658485,2078163,0,0,0,244,189,174,297,193,301,331,122,189,210,102,268,0,,,,,
2,1790113086560,124,-14,10275,249233,-153938,-12217,0,0,0,315,155,223,305,176,316,511,320,239,373,308,374,0,,,,,
1,1790113086576,-12998,15180,12495,4894252,543670,2366491,0,0,0,241,184,173,273,177,286,316,108,171,212,104,260,0,,,,,
2,1790113086576,277,4,9987,201585,-111177,0,0,0,0,322,159,234,316,195,325,513,293,269,360,268,397,0,,,,,
