sole_id,timestamp,accel_x,accel_y,accel_z,gyro_x,gyro_y,gyro_z,magn_x,magn_y,magn_z,pressure_01,pressure_02,pressure_03,pressure_04,pressure_05,pressure_06,pressure_07,pressure_08,pressure_09,pressure_10,pressure_11,pressure_12,corrupt,grass,transition,concrete,asphalt
1,1790113740672,1890,1986,11773,1161865,-300545,124616,0,0,0,291,235,195,356,209,373,446,386,223,440,378,349,0,,,,
1,1790113740688,167,1028,10141,560774,-415388,218689,0,0,0,311,256,191,342,225,368,465,444,244,463,392,362,0,,,,
1,1790113740704,248,1028,10217,389732,-342084,56199,0,0,0,343,264,202,343,222,382,466,454,257,468,387,395,0,,,,
1,1790113740720,445,1354,10346,309097,-279776,6108,0,0,0,368,287,208,358,228,372,473,458,247,479,409,406,0,,,,
1,1790113740736,445,1512,10265,259006,-261450,32986,0,0,0,386,300,210,376,236,362,485,461,240,491,421,406,0,,,,
1,1790113740752,335,1430,10136,213802,-274889,35430,0,0,0,388,307,206,378,244,373,479,455,239,494,426,426,0,,,,
1,1790113740768,258,1373,10064,188146,-280998,28099,0,0,0,384,305,201,375,248,376,475,449,235,497,439,433,0,,,,
1,1790113740784,224,1411,10035,172263,-263893,35430,0,0,0,387,301,197,379,247,367,484,453,232,501,446,419,0,,,,
1,1790113740800,210,1445,10026,161268,-243124,46425,0,0,0,390,313,194,383,246,368,487,458,230,502,443,418,0,,,,
1,1790113740816,210,1435,10026,157603,-230907,53756,0,0,0,400,322,200,385,248,366,495,464,230,504,437,415,0,,,,
1,1790113740832,220,1407,9992,163711,-230907,51312,0,0,0,409,316,213,380,245,363,507,485,247,499,419,417,0,,,,
1,1790113740848,215,1392,9944,179594,-238237,50090,0,0,0,406,306,185,385,251,367,508,504,269,486,413,418,0,,,,
1,1790113740864,186,1387,9925,207694,-251676,52534,0,0,0,391,307,187,383,262,376,514,511,267,479,404,432,0,,,,
1,1790113740880,153,1359,9944,240680,-270002,57421,0,0,0,399,312,180,379,280,381,505,505,267,473,380,442,0,,,,
1,1790113740896,124,1311,9983,274889,-294437,61086,0,0,0,405,305,185,376,265,389,504,489,259,467,360,450,0,,,,
2,1790113740896,0,0,0,0,0,0,0,0,0,165,76,117,156,69,202,172,91,145,108,56,161,0,,,,
1,1790113740912,105,1263,10016,309097,-326202,61086,0,0,0,410,287,178,386,271,392,504,470,258,453,348,465,0,,,,
2,1790113740912,-574,-569,646,-1221,-10995,-10995,0,0,0,165,79,119,159,72,205,183,98,155,106,64,166,0,,,,
1,1790113740928,86,1215,10083,356745,-376292,53756,0,0,0,423,303,183,387,277,410,510,460,270,433,324,480,0,,,,
2,1790113740928,-4910,-4833,8341,-520457,-646295,-779464,0,0,0,164,74,120,156,76,205,182,108,156,101,60,163,0,,,,
1,1790113740944,23,1148,10126,406836,-430049,39095,0,0,0,427,320,173,388,301,410,502,430,289,414,308,490,0,,,,
2,1790113740944,-2919,-2780,13443,-2557081,-1611462,-1663996,0,0,0,157,72,117,148,62,198,182,104,150,98,51,162,0,,,,
1,1790113740960,-76,1062,10102,447153,-470366,15882,0,0,0,429,329,168,388,320,410,494,415,301,409,302,495,0,,,,
2,1790113740960,2900,2632,11806,-4860043,-372627,-80634,0,0,0,162,75,124,160,65,203,190,112,160,92,41,159,0,,,,
1,1790113740976,-186,981,10078,471587,-498466,0,0,0,0,437,330,168,390,312,414,495,392,297,402,285,504,0,,,,
2,1790113740976,4924,3962,11098,-5762902,1225395,1428202,0,0,0,171,83,127,158,67,206,182,101,155,101,41,162,0,,,,
1,1790113740992,-248,914,10098,475253,-507018,-3665,0,0,0,448,334,169,395,310,425,496,345,300,396,257,510,0,,,,
2,1790113740992,3900,2378,12969,-5589416,1605353,1524719,0,0,0,169,77,124,158,75,206,186,119,159,92,56,169,0,,,,
1,1790113741008,-325,823,10136,469144,-511905,-3665,0,0,0,458,344,173,405,331,438,497,303,317,388,234,513,0,,,,
2,1790113741008,3321,1383,14922,-5560095,1523497,1258382,0,0,0,166,77,123,163,76,213,181,119,154,85,48,170,0,,,,
1,1790113741024,-416,756,10169,465479,-522900,-6108,0,0,0,469,350,176,423,346,437,499,286,316,368,222,519,0,,,,
2,1790113741024,3436,1268,16243,-5727472,1534493,1100779,0,0,0,166,80,121,168,82,217,185,109,161,95,52,171,0,,,,
1,1790113741040,-521,684,10236,470366,-542448,-3665,0,0,0,481,369,196,431,361,448,485,253,309,373,214,516,0,,,,
2,1790113741040,3330,995,17664,-5783672,1677435,1022588,0,0,0,173,83,123,163,73,211,184,104,157,106,59,178,0,,,,
1,1790113741056,-617,588,10418,497244,-601091,6108,0,0,0,489,366,193,431,360,459,498,228,315,346,193,530,0,x,,,
2,1790113741056,3110,162,19296,-5672494,1690874,933402,0,0,0,178,88,129,153,70,205,185,105,157,98,61,173,0,x,,,
1,1790113741072,-856,464,10768,575435,-757472,35430,0,0,0,478,397,218,444,366,471,431,177,291,385,223,505,0,,,,
2,1790113741072,3019,-942,20746,-5505117,1711644,960280,0,0,0,180,91,130,153,69,205,180,100,148,101,53,160,0,,,,
1,1790113741088,-1411,354,11174,696386,-990823,113620,0,0,0,497,399,195,437,419,460,451,149,307,368,206,532,0,,,,
2,1790113741088,2651,-3302,22469,-5497787,1877799,1143539,0,0,0,175,88,124,156,70,204,180,95,146,100,54,160,0,,,,
1,1790113741104,-2110,282,11619,866206,-1219287,278554,0,0,0,498,391,213,441,373,461,423,133,276,382,206,534,0,,,,
2,1790113741104,1890,-7748,23685,-5632177,2019520,1189965,0,0,0,176,89,125,155,70,206,182,90,151,102,55,172,0,,,,
1,1790113741120,-2077,205,11974,1111774,-1155757,442266,0,0,0,517,398,216,444,353,472,421,147,296,371,203,557,0,,,,
2,1790113741120,-320,-14864,23685,-5546656,1974316,872315,0,0,0,168,84,128,151,66,207,182,88,154,114,57,180,0,,,,
1,1790113741136,-1579,71,12007,1392772,-863763,521678,0,0,0,517,410,223,459,363,475,363,126,253,377,204,551,0,,,,
2,1790113741136,-3598,-22057,22273,-5042081,1442863,434936,0,0,0,161,83,131,151,65,213,183,94,167,115,61,179,0,,,,
1,1790113741152,-1100,-76,11864,1637118,-546113,487470,0,0,0,523,423,228,454,372,470,342,120,238,382,205,549,0,,,,
2,1790113741152,-4498,-26700,19640,-4217413,445931,146607,0,0,0,175,94,141,155,65,228,189,101,191,104,55,182,0,,,,
1,1790113741168,-1110,-215,12112,1868025,-370184,426383,0,0,0,526,415,239,468,385,474,362,145,252,381,216,552,0,,,,
2,1790113741168,-1818,-30222,16606,-3192381,-317649,-141720,0,0,0,174,86,141,155,66,228,189,98,194,107,55,191,0,,,,
1,1790113741184,-1880,-449,13046,2200336,-315206,414166,0,0,0,537,396,239,461,387,476,378,157,271,377,213,563,0,,,,
2,1790113741184,-392,-33050,14151,-1997529,-465479,-459370,0,0,0,172,87,137,159,69,223,179,97,183,108,67,187,0,,,,
1,1790113741200,-2555,-689,14060,2630385,-249233,485026,0,0,0,543,401,233,448,400,468,367,152,278,371,210,563,0,,,,
2,1790113741200,-4000,-33275,13768,-761138,-128281,-322536,0,0,0,166,89,119,165,80,203,212,135,149,119,96,163,0,,,,
1,1790113741216,-2388,-794,14721,3161838,-113620,614530,0,0,0,529,431,236,453,444,466,316,142,263,360,227,543,0,,,,
2,1790113741216,-7944,-30514,17114,850324,-119729,302989,0,0,0,141,76,88,180,90,196,261,217,137,196,195,142,0,,,,
1,1790113741232,-1028,-665,15261,3709173,-7330,642630,0,0,0,521,430,227,437,479,477,269,130,260,340,225,540,0,,,,
2,1790113741232,-5556,-14926,20272,3040887,-720820,974940,0,0,0,160,86,90,193,92,207,309,269,154,216,227,168,0,,,,
1,1790113741248,224,-559,16152,4309043,85521,526565,0,0,0,515,406,201,441,491,477,291,135,281,328,195,538,0,,,,
2,1790113741248,459,7992,14682,4937012,-1480737,882089,0,0,0,162,86,90,199,87,223,340,303,166,250,280,185,0,,,,
1,1790113741264,134,-784,16994,5016425,276111,301767,0,0,0,503,414,218,450,460,472,264,107,269,335,186,509,0,,,,
2,1790113741264,2230,8896,13821,5369505,-1591914,543670,0,0,0,176,94,110,202,90,238,343,309,165,284,309,213,0,,,,
1,1790113741280,-1603,-1694,18190,5711589,618195,190589,0,0,0,482,384,218,443,461,486,302,135,325,329,187,484,0,,,,
2,1790113741280,717,-1387,17473,4472755,-1010371,464257,0,0,0,180,95,112,199,83,239,343,314,177,257,334,210,0,,,,
1,1790113741296,-4407,-2928,20564,6396980,966388,260228,0,0,0,453,389,182,425,435,441,232,110,230,312,184,475,0,,,,
2,1790113741296,-411,-1512,16367,3374419,-646295,354301,0,0,0,187,95,111,210,89,242,382,335,182,278,333,205,0,,,,
1,1790113741312,-7686,-3598,23531,7044497,1175304,657290,0,0,0,430,373,173,385,443,416,231,125,213,291,188,453,0,,,,
2,1790113741312,-138,1684,12117,2755002,-522900,14660,0,0,0,184,85,112,206,77,247,391,365,173,299,379,251,0,,,,
1,1790113741328,-9030,-3570,25943,7612602,1351233,1219287,0,0,0,407,328,176,352,365,388,217,95,175,257,156,424,0,,,,
2,1790113741328,1579,1698,11514,2412917,-630412,-248011,0,0,0,218,90,122,217,92,263,419,384,188,331,402,291,0,,,,
1,1790113741344,-7681,-2952,29188,8339532,1468520,1822821,0,0,0,349,263,184,312,270,354,289,116,196,224,122,400,0,,,,
2,1790113741344,2809,-473,13448,1477072,-845437,-255341,0,0,0,235,100,122,238,122,272,444,376,200,359,418,329,0,,,,
1,1790113741360,-7599,-679,28303,8951619,1230282,2024407,0,0,0,276,220,188,290,220,329,327,138,208,209,116,315,0,,,,
2,1790113741360,2239,-875,12806,431270,-810007,-100181,0,0,0,244,110,128,246,132,276,463,367,204,375,432,371,0,,,,
1,1790113741376,-8116,3072,21947,8697499,483805,2068389,0,0,0,247,210,188,291,212,328,308,131,194,203,117,272,0,,,,
2,1790113741376,1320,512,10428,140499,-532674,-34208,0,0,0,262,121,141,239,127,275,471,369,206,388,437,397,0,,,,
1,1790113741392,-5465,5752,15142,6980967,-34208,2014633,0,0,0,247,202,186,288,209,328,293,122,183,198,115,262,0,,,,
2,1790113741392,1325,1086,9605,197920,-353080,-39095,0,0,0,275,128,146,235,130,268,466,372,204,402,437,401,0,,,,
1,1790113741408,-2215,7709,10744,4091575,294437,1412320,0,0,0,244,188,179,282,202,317,303,126,182,194,112,250,0,,,,
2,1790113741408,1493,880,10002,224798,-320093,-30543,0,0,0,289,142,147,256,151,278,474,375,206,414,441,403,0,,,,
1,1790113741424,-1828,8025,9691,124616,952949,130725,0,0,0,237,185,171,287,199,311,303,126,175,193,113,244,0,,,,
2,1790113741424,1387,794,10141,174707,-276111,-18325,0,0,0,308,156,151,276,164,296,468,371,207,410,437,405,0,,,,
1,1790113741440,-3843,5958,9959,-2648711,1112996,-723264,0,0,0,243,187,171,291,193,312,284,115,161,196,117,245,0,,,,
2,1790113741440,1253,851,9973,136833,-201585,-24434,0,0,0,307,145,152,262,161,298,471,373,204,405,429,405,0,,,,
1,1790113741456,-5297,4115,9241,-3380528,574213,-695164,0,0,0,242,179,165,284,186,308,300,122,170,199,110,246,0,,,,
2,1790113741456,1273,871,9897,139277,-141720,-40317,0,0,0,312,146,164,254,170,279,482,361,216,424,430,432,0,,,,
1,1790113741472,-3622,4781,7441,-3616322,-168598,-285884,0,0,0,249,176,175,285,180,310,315,127,180,200,110,250,0,,,,
2,1790113741472,1311,871,9906,146607,-119729,-50090,0,0,0,309,165,172,260,174,292,481,335,206,424,429,432,0,,,,
1,1790113741488,-1469,5786,6877,-4378682,-394618,-102625,0,0,0,251,168,171,298,180,309,320,127,181,203,110,248,0,,,,
2,1790113741488,1330,890,9911,178372,-135612,-59864,0,0,0,312,157,182,266,159,285,473,345,218,431,424,471,0,,,,
1,1790113741504,-531,5723,7810,-5477017,-109955,-142942,0,0,0,244,170,153,288,182,306,281,107,154,204,116,249,0,,,,
2,1790113741504,1349,871,9906,229685,-171042,-76969,0,0,0,314,184,203,289,227,326,495,317,236,438,402,469,0,,,,
1,1790113741520,-1172,4699,8772,-6161186,261450,-182037,0,0,0,242,164,160,283,174,306,320,127,179,205,113,252,0,,,,
2,1790113741520,1354,789,9916,277332,-215024,-96516,0,0,0,315,172,199,308,189,347,492,300,236,426,346,473,0,,,,
1,1790113741536,-2220,4029,9006,-6460510,377514,-116064,0,0,0,244,167,159,283,174,308,318,128,176,206,114,250,0,,,,
2,1790113741536,1325,732,9944,295658,-238237,-112399,0,0,0,327,161,213,302,186,326,499,269,256,404,308,500,0,,,,
1,1790113741552,-3129,3608,9284,-6559470,34208,20769,0,0,0,239,165,164,284,174,312,292,111,162,207,113,252,0,,,,
2,1790113741552,1301,708,9964,311541,-251676,-128281,0,0,0,327,160,214,302,193,324,479,248,261,380,296,514,0,,,,
1,1790113741568,-3211,3096,9987,-6569244,-442266,111177,0,0,0,238,165,160,285,175,312,309,119,171,208,114,252,0,,,,
2,1790113741568,1268,670,9983,323758,-261450,-135612,0,0,0,338,181,215,323,231,337,482,245,268,369,273,524,0,,,,
1,1790113741584,-2603,2560,11198,-6475171,-899193,107512,0,0,0,244,170,160,288,176,312,297,113,162,209,116,252,0,,,,
2,1790113741584,1220,603,10007,339641,-267558,-139277,0,0,0,346,194,216,334,251,368,476,221,271,332,229,540,0,,,,
1,1790113741600,-2182,2258,12658,-6392093,-1252273,28099,0,0,0,251,174,164,298,179,316,304,115,165,208,115,251,0,,,,
2,1790113741600,1210,559,10059,365297,-272445,-151494,0,0,0,349,179,229,353,272,385,437,190,246,306,204,562,0,,,,
1,1790113741616,-2110,2177,14271,-6422637,-1571145,-41538,0,0,0,251,173,169,298,180,320,327,126,181,208,113,251,0,,,,
2,1790113741616,1258,502,10112,397062,-291993,-174707,0,0,0,351,174,222,370,291,407,426,187,249,297,191,579,0,,,,
1,1790113741632,-1713,1938,16606,-6528927,-1902234,-36651,0,0,0,248,172,173,292,177,321,335,131,187,208,111,252,0,,,,
2,1790113741632,1268,406,10145,428827,-338419,-218689,0,0,0,364,204,216,366,325,415,430,195,262,290,182,592,0,,,,
1,1790113741648,-1296,1459,19478,-6608340,-2067167,34208,0,0,0,258,179,172,308,184,324,336,133,185,205,110,251,0,,,,
2,1790113741648,1215,320,10174,450818,-376292,-265115,0,0,0,385,222,213,363,339,412,433,189,261,278,165,609,0,,,,
1,1790113741664,-938,717,22636,-6691417,-2108706,87964,0,0,0,259,181,174,305,180,323,280,102,151,205,110,249,0,,,,
2,1790113741664,1172,239,10232,477696,-384845,-306654,0,0,0,398,215,195,381,326,422,427,166,250,256,145,619,0,,,,
1,1790113741680,-454,-1727,26116,-6896668,-2245540,-81855,0,0,0,254,189,174,290,176,321,269,95,145,203,110,253,0,,,,
2,1790113741680,1182,129,10332,521678,-353080,-351858,0,0,0,404,222,170,398,337,425,396,155,236,244,144,612,0,,,,
1,1790113741696,502,-6743,29164,-7079928,-2542421,-345749,0,0,0,247,181,168,290,183,322,316,119,176,206,112,253,0,,,,
2,1790113741696,1387,0,10519,571769,-262672,-411723,0,0,0,414,193,130,417,324,427,380,167,241,256,146,621,0,,,,
1,1790113741712,3795,-15443,30461,-6921103,-2722015,-488692,0,0,0,239,177,168,290,183,321,327,123,182,208,109,254,0,,,,
2,1790113741712,1158,-143,10806,689055,-135612,-491135,0,0,0,440,212,129,432,353,440,381,179,248,242,145,629,0,,,,
1,1790113741728,8202,-24297,28513,-6228381,-2194227,-518013,0,0,0,238,176,169,294,183,332,328,124,183,205,108,254,0,,,,
2,1790113741728,564,-253,10997,877202,-57421,-487470,0,0,0,434,227,133,457,401,461,373,175,236,240,157,627,0,,,,
1,1790113741744,7973,-29011,22890,-5022533,-929736,-621860,0,0,0,239,179,176,289,180,332,333,126,188,204,110,254,0,,,,
2,1790113741744,449,-272,11294,1093448,-50090,-400727,0,0,0,436,246,117,446,477,448,355,159,219,323,169,641,0,,,,
1,1790113741760,2124,-31935,16664,-3665191,111177,-427605,0,0,0,237,184,170,291,185,330,324,130,179,204,117,254,0,,,,
2,1790113741760,1072,-421,11667,1309695,-100181,-351858,0,0,0,452,238,120,473,459,442,358,175,240,277,175,676,0,,,,
1,1790113741776,-3536,-34405,12596,-2444682,156381,647517,0,0,0,237,186,173,288,184,327,319,127,177,207,120,257,0,,,,
2,1790113741776,1837,-708,12036,1517389,-179594,-412944,0,0,0,465,230,119,499,444,458,335,178,239,289,164,695,0,,,,
1,1790113741792,2598,-35271,11849,-1276708,-448375,2006081,0,0,0,239,184,177,288,183,327,308,119,174,209,121,261,0,,,,
2,1790113741792,1502,-799,12672,1809382,-224798,-530231,0,0,0,495,251,128,470,424,431,328,179,237,281,177,697,0,,,,
1,1790113741808,12988,-33601,12763,13439,-235793,2186897,0,0,0,219,177,176,296,192,333,331,152,184,242,166,251,0,,,,
2,1790113741808,770,-665,13462,2140471,-241902,-559552,0,0,0,497,242,114,460,393,404,315,180,232,281,146,705,0,,,,
1,1790113741824,14625,-28906,15175,1447750,1216843,868650,0,0,0,201,167,162,293,190,330,381,244,193,290,256,236,0,,,,
2,1790113741824,603,-593,14233,2569299,-291993,-503352,0,0,0,507,249,117,439,369,408,302,171,231,241,126,701,0,,,,
1,1790113741840,775,-5173,21062,3323106,2681698,-307876,0,0,0,205,162,150,296,181,327,413,325,189,339,333,227,0,,,,
2,1790113741840,775,-693,14654,3055547,-357967,-465479,0,0,0,511,259,133,405,360,416,286,162,238,221,129,688,0,,,,
1,1790113741856,-6776,23096,19765,4917465,3565009,-566882,0,0,0,215,171,159,321,183,342,417,340,188,398,363,229,0,,,,
2,1790113741856,521,-775,14893,3544240,-401949,-456927,0,0,0,505,288,137,385,395,398,261,153,239,228,140,666,0,,,,
1,1790113741872,-492,13012,19334,5423261,2807536,-730594,0,0,0,218,175,170,319,177,354,434,377,204,442,393,242,0,,,,
2,1790113741872,-148,-684,15606,4059810,-447153,-398284,0,0,0,497,324,144,349,430,379,230,143,233,231,143,641,0,,,,
1,1790113741888,5058,-4728,21100,4221078,1077566,-780685,0,0,0,228,165,183,318,172,353,441,394,221,441,378,251,0,,,,
2,1790113741888,871,-866,16252,4741535,-577878,-313984,0,0,0,476,345,146,323,443,376,194,138,225,209,137,610,0,,,,
1,1790113741904,3656,-5087,16965,2153910,-52534,-279776,0,0,0,227,165,211,313,169,363,440,392,225,441,382,266,0,,,,
2,1790113741904,2488,-1373,17094,5489235,-766025,-410501,0,0,0,456,341,144,327,432,362,170,128,222,184,123,572,0,,,,
1,1790113741920,-263,2340,9997,1448972,-147829,177150,0,0,0,247,178,246,323,163,355,452,402,251,447,383,264,0,,,,
2,1790113741920,4024,-2828,18712,6207612,-987158,-631634,0,0,0,447,296,149,332,385,342,154,107,207,171,96,531,0,,,,
1,1790113741936,-1497,3819,8025,1668883,-9773,210137,0,0,0,270,184,272,324,161,358,444,370,237,455,399,277,0,,,,
2,1790113741936,5082,-5843,21962,6731734,-1081231,-922406,0,0,0,416,220,149,293,296,327,137,89,169,149,76,482,0,,,,
1,1790113741952,-713,741,10500,1618792,103847,81855,0,0,0,271,202,279,318,186,354,454,394,240,460,386,291,0,,,,
2,1790113741952,3833,-6599,26025,6946759,-905302,-1216843,0,0,0,342,169,141,212,192,256,154,95,162,129,81,390,0,,,,
1,1790113741968,-402,-512,11806,1069014,86742,21991,0,0,0,290,210,294,319,185,353,455,399,241,461,380,302,0,,,,
2,1790113741968,3101,-3756,28963,7126353,-1094670,-1403768,0,0,0,256,130,127,182,145,212,175,114,147,127,73,255,0,,,,
1,1790113741984,-526,268,10964,607200,-29321,-1221,0,0,0,299,213,324,315,181,365,460,403,259,461,383,315,0,,,,
2,1790113741984,6202,1847,26436,7298617,-1495398,-1510058,0,0,0,190,81,120,162,80,191,172,100,139,100,54,157,0,,,,
1,1790113742000,-679,823,10203,411723,-96516,-8552,0,0,0,305,221,366,314,176,365,468,394,261,466,370,323,0,,,,
2,1790113742000,9116,6877,18545,6856351,-1579697,-1640784,0,0,0,186,90,121,167,74,191,170,104,137,106,64,166,0,,,,
1,1790113742016,-689,808,10145,383623,-94073,-2443,0,0,0,311,218,366,321,186,365,467,376,261,472,366,342,0,,,,
2,1790113742016,8705,8494,11514,5021312,-1120326,-1417207,0,0,0,197,76,116,183,71,190,174,97,127,110,47,162,0,,,,
1,1790113742032,-593,737,10232,382401,-100181,17104,0,0,0,317,235,398,325,234,372,463,352,263,471,359,362,0,,,,
2,1790113742032,5991,9801,10246,1426981,-405614,-326202,0,0,0,182,79,112,177,72,197,175,104,136,117,50,167,0,,,,
1,1790113742048,-564,737,10236,399505,-134390,39095,0,0,0,327,246,405,334,242,383,474,343,280,475,336,376,0,,,,
2,1790113742048,4690,8901,11304,-1667662,-277332,778242,0,0,0,176,94,111,173,89,193,172,106,130,98,49,160,0,,,,
1,1790113742064,-636,722,10236,437379,-178372,47647,0,0,0,343,244,388,350,220,387,492,346,297,486,319,395,0,,,,
2,1790113742064,5910,5690,11112,-2894279,-596204,1263269,0,0,0,158,69,106,161,72,189,158,92,130,99,54,164,0,,,,
1,1790113742080,-698,593,10232,469144,-208915,39095,0,0,0,360,257,395,362,234,385,499,339,297,485,310,420,0,,,,
2,1790113742080,6834,4096,8346,-2566855,-464257,981049,0,0,0,176,80,115,168,72,194,169,96,130,100,38,157,0,,,,
1,1790113742096,-708,464,10203,477696,-237015,36651,0,0,0,363,269,365,373,244,397,496,335,311,465,289,438,0,,,,
2,1790113742096,5273,5187,6704,-2747671,92851,558330,0,0,0,182,83,114,173,72,198,175,105,128,102,39,167,0,,,,
1,1790113742112,-698,411,10189,475253,-273667,45204,0,0,0,364,295,390,371,263,411,495,341,320,432,286,451,0,,,,
2,1790113742112,3914,5699,7494,-3704286,197920,393397,0,0,0,190,85,114,172,74,198,171,101,126,111,45,161,0,,,,
1,1790113742128,-727,363,10189,485026,-320093,59864,0,0,0,379,287,372,380,274,400,524,304,311,435,271,458,0,,,,
2,1790113742128,3661,5197,8518,-4712214,50090,311541,0,0,0,187,84,113,175,74,197,171,97,127,109,45,158,0,,,,
1,1790113742144,-794,296,10198,509461,-367740,74525,0,0,0,373,299,358,395,280,423,511,248,306,454,255,481,0,,,,
2,1790113742144,4292,4268,8662,-5248554,63529,237015,0,0,0,183,81,112,175,73,195,176,105,135,103,52,162,0,,,,
1,1790113742160,-861,196,10208,546113,-394618,76969,0,0,0,387,314,321,392,323,415,501,249,306,414,238,485,0,,,,
2,1790113742160,4297,3943,8748,-5446474,464257,222354,0,0,0,181,80,113,170,74,195,177,108,140,108,59,167,0,,,,
1,1790113742176,-933,114,10208,575435,-394618,69638,0,0,0,418,325,322,389,321,432,493,218,305,394,213,501,0,,,,
2,1790113742176,3752,3809,9595,-5633399,894306,334754,0,0,0,173,81,110,169,76,198,175,98,138,113,53,174,0,,,,
1,1790113742192,-1009,52,10212,585208,-367740,62308,0,0,0,448,310,336,402,320,437,491,193,304,393,191,504,0,,,,
2,1790113742192,3230,3713,11150,-5845980,1125213,620639,0,0,0,174,88,108,168,78,195,180,103,139,115,45,177,0,,,,
1,1790113742208,-1076,-4,10232,588874,-335975,62308,0,0,0,447,326,310,409,335,431,484,195,314,368,179,496,0,,,,
2,1790113742208,3766,3378,12663,-6101322,1218065,968832,0,0,0,176,91,111,164,80,193,189,121,143,110,54,175,0,,,,
1,1790113742224,-1110,-105,10308,614530,-318871,76969,0,0,0,458,346,283,412,356,442,483,186,317,354,177,496,0,,,,
2,1790113742224,4599,2579,14333,-6333450,1448972,1264491,0,0,0,176,87,116,160,71,193,181,101,144,112,50,172,0,,,,
1,1790113742240,-1229,-205,10418,669508,-318871,100181,0,0,0,468,348,269,446,375,447,456,159,300,366,177,489,0,,,,
2,1790113742240,4824,1713,16075,-6394537,1731192,1386664,0,0,0,175,86,120,157,72,193,190,108,154,103,43,170,0,,,,
1,1790113742256,-1507,-315,10581,756251,-301767,155159,0,0,0,480,352,244,444,378,451,461,155,306,355,169,496,0,,,,
2,1790113742256,4795,1239,18042,-6405532,1876578,1430646,0,0,0,172,100,120,157,74,198,188,111,166,108,76,174,0,,,,
1,1790113742272,-1622,-430,10677,841772,-233350,233350,0,0,0,486,368,221,434,383,457,460,146,305,347,171,501,0,,,,
2,1790113742272,4795,823,20497,-6453180,1871691,1457524,0,0,0,172,86,112,165,76,198,188,117,155,110,51,166,0,,,,
1,1790113742288,-1531,-555,10820,949284,-146607,302989,0,0,0,485,376,202,444,394,463,446,133,296,353,175,501,0,,,,
2,1790113742288,4795,-1143,22924,-6517932,1853365,1585806,0,0,0,177,88,114,165,79,193,180,104,144,102,59,166,0,,,,
1,1790113742304,-1335,-679,11026,1097113,-70860,337197,0,0,0,491,375,181,442,394,466,457,140,309,347,171,513,0,,,,
2,1790113742304,4469,-5202,25010,-6469062,2036624,1788613,0,0,0,171,94,114,165,81,193,188,108,146,93,46,155,0,,,,
1,1790113742320,-1249,-832,10916,1259604,-40317,345749,0,0,0,503,390,187,455,398,473,435,129,301,354,182,521,0,,,,
2,1790113742320,2962,-11112,26618,-6277251,2420248,1921782,0,0,0,167,94,117,158,78,203,186,100,154,109,51,169,0,,,,
1,1790113742336,-990,-1038,10514,1369559,-57421,340862,0,0,0,503,413,208,473,424,490,379,114,263,360,192,524,0,,,,
2,1790113742336,-866,-18817,27159,-5910732,2515543,1793500,0,0,0,164,96,116,160,92,201,187,107,151,104,45,167,0,,,,
1,1790113742352,-990,-1206,10777,1428202,-96516,299323,0,0,0,519,416,203,457,426,476,379,120,262,357,197,537,0,,,,
2,1790113742352,-4469,-25704,25963,-5367061,1941329,1523497,0,0,0,165,98,116,165,92,201,193,114,151,105,58,165,0,,,,
1,1790113742368,-1526,-1311,11873,1565036,-79412,288328,0,0,0,515,403,230,477,410,493,361,108,259,362,187,538,0,,,,
2,1790113742368,-4484,-32088,22220,-4400673,602313,1172861,0,0,0,166,96,118,163,81,200,193,110,150,111,58,162,0,,,,
1,1790113742384,-2048,-1435,13242,1875356,19547,354301,0,0,0,531,402,218,466,424,492,339,105,252,353,193,559,0,,,,
2,1790113742384,-229,-36549,17315,-3240029,-510683,758694,0,0,0,191,113,124,171,80,203,199,107,149,118,60,166,0,,,,
1,1790113742400,-1785,-1588,14170,2364048,138055,445931,0,0,0,537,412,239,464,397,483,323,105,252,349,183,551,0,,,,
2,1790113742400,3364,-38253,13275,-1964542,-445931,329867,0,0,0,190,108,125,171,79,203,199,103,149,122,69,177,0,,,,
1,1790113742416,-1550,-1670,14802,2855184,178372,491135,0,0,0,533,389,234,443,406,490,350,128,290,345,185,567,0,,,,
2,1790113742416,387,-37731,12261,-700051,467922,186924,0,0,0,167,88,120,164,72,201,199,113,150,121,70,176,0,,,,
1,1790113742432,-1464,-1631,15328,3484375,151494,527787,0,0,0,532,380,235,434,412,476,320,127,314,338,192,558,0,,,,
2,1790113742432,-7016,-34572,13744,746477,783129,682947,0,0,0,158,89,109,171,81,201,241,192,152,150,141,163,0,,,,
1,1790113742448,-1564,-1564,15558,4116009,129503,576656,0,0,0,520,377,222,434,420,468,306,120,322,330,180,551,0,,,,
2,1790113742448,-6819,-21569,18305,2128254,-18325,1126435,0,0,0,149,91,94,179,98,201,304,292,154,212,268,170,0,,,,
1,1790113742464,-1809,-1598,15807,4853935,158824,675616,0,0,0,501,382,208,443,419,472,273,103,315,325,162,528,0,,,,
2,1790113742464,-2234,10045,18248,3804468,-1238834,1148426,0,0,0,157,99,95,186,98,220,335,337,167,251,327,201,0,,,,
1,1790113742480,-2708,-2182,17013,5583308,299323,801455,0,0,0,464,386,188,445,420,465,249,98,290,318,162,494,0,,,,
2,1790113742480,1000,24632,11840,5309640,-2542421,669508,0,0,0,166,107,103,196,112,242,354,438,190,287,426,210,0,,,,
1,1790113742496,-4580,-3957,19794,6365215,536339,1021366,0,0,0,435,354,177,416,402,440,250,99,248,297,158,466,0,,,,
2,1790113742496,502,2225,16439,5679824,-2820975,463035,0,0,0,164,104,103,194,97,241,381,446,178,322,494,221,0,,,,
1,1790113742512,-4967,-5546,25101,6940650,747699,1254717,0,0,0,422,312,185,366,345,405,235,91,192,267,141,440,0,,,,
2,1790113742512,-942,-7173,22210,4659680,-2609616,618195,0,0,0,196,98,110,226,94,241,443,491,159,382,521,235,0,,,,
1,1790113742528,-4900,-5652,29059,7528303,866206,1423316,0,0,0,387,288,192,322,280,366,238,98,168,237,125,412,0,,,,
2,1790113742528,-1541,-2005,19272,2767219,-2193006,508239,0,0,0,202,100,119,222,91,240,461,477,185,386,498,245,0,,,,
1,1790113742544,-5647,-5125,30643,8295549,858876,1642005,0,0,0,312,241,188,287,239,323,336,137,208,208,109,370,0,,,,
2,1790113742544,-641,2541,12577,1319468,-1547932,254119,0,0,0,201,93,114,225,88,247,454,443,189,416,499,241,0,,,,
1,1790113742560,-7312,-1986,26087,8515461,626747,1920560,0,0,0,244,213,183,270,204,310,337,140,197,198,107,269,0,,,,
2,1790113742560,215,1828,9495,902858,-1010371,141720,0,0,0,223,99,146,222,89,254,453,435,191,413,515,270,0,,,,
1,1790113742576,-7346,866,18975,7856948,450818,2139250,0,0,0,243,201,190,285,199,326,304,111,184,197,102,272,0,,,,
2,1790113742576,76,392,10413,714712,-728151,127059,0,0,0,243,96,168,232,81,262,487,422,189,426,508,288,0,,,,
1,1790113742592,-5958,0,14572,6653544,489913,1991420,0,0,0,242,201,179,285,205,323,300,117,182,194,101,264,0,,,,
2,1790113742592,-220,497,10873,486248,-522900,97738,0,0,0,260,106,179,255,96,267,525,428,203,413,474,313,0,,,,
1,1790113742608,-3953,1579,11672,4728096,587652,1310916,0,0,0,239,195,163,277,199,299,291,111,165,194,101,248,0,,,,
2,1790113742608,-153,1014,10375,340862,-354301,54977,0,0,0,280,108,177,262,109,272,524,399,207,426,431,336,0,,,,
1,1790113742624,-2680,5116,8896,1885130,758694,346971,0,0,0,242,195,168,276,191,292,290,112,161,196,104,242,0,,,,
2,1790113742624,-33,1119,10021,298102,-249233,29321,0,0,0,301,119,187,256,121,278,510,369,215,413,403,356,0,,,,
1,1790113742640,-3474,5771,7121,-922406,788016,-364075,0,0,0,242,192,199,266,189,306,322,127,195,187,98,244,0,,,,
2,1790113742640,-90,990,10112,309097,-201585,26878,0,0,0,311,131,199,266,145,293,518,356,230,400,377,380,0,,,,
1,1790113742656,-3910,4996,6360,-2583959,521678,-623082,0,0,0,238,186,171,272,193,298,339,135,192,193,100,241,0,,,,
2,1790113742656,-167,990,10193,313984,-136833,19547,0,0,0,320,136,199,289,163,312,518,329,232,383,342,404,0,,,,
1,1790113742672,-2928,5135,6054,-3574783,202807,-635299,0,0,0,238,183,154,278,191,292,326,129,180,198,102,239,0,,,,
2,1790113742672,-157,1005,10169,323758,-74525,6108,0,0,0,337,139,196,312,169,325,494,287,226,353,302,424,0,,,,
1,1790113742688,-2268,5427,6307,-4646241,12217,-645073,0,0,0,238,181,165,279,184,303,323,125,179,197,101,242,0,,,,
2,1790113742688,-76,985,10150,346971,-40317,-6108,0,0,0,349,141,193,326,180,336,485,256,234,326,249,444,0,,,,
1,1790113742704,-2502,4934,7274,-5634620,-142942,-579100,0,0,0,236,199,168,277,186,307,337,133,187,194,104,245,0,,,,
2,1790113742704,0,909,10160,370184,-37873,-19547,0,0,0,360,147,190,326,206,349,485,226,244,286,195,456,0,,,,
1,1790113742720,-2737,4048,8423,-6378654,-326202,-359188,0,0,0,236,217,160,277,189,305,353,145,194,193,107,243,0,,,,
2,1790113742720,47,808,10165,392175,-51312,-40317,0,0,0,372,154,184,336,231,353,473,202,246,268,167,472,0,,,,
1,1790113742736,-2445,3531,9217,-6880786,-411723,-178372,0,0,0,240,203,156,280,179,305,360,146,196,195,105,242,0,,,,
2,1790113742736,9,737,10160,404392,-75747,-59864,0,0,0,373,155,176,341,230,356,470,182,255,259,142,503,0,,,,
1,1790113742752,-1856,3058,10169,-7290065,-368962,-136833,0,0,0,247,179,160,284,169,306,352,135,192,197,99,247,0,,,,
2,1790113742752,-67,674,10145,404392,-94073,-67195,0,0,0,377,154,151,345,224,371,462,171,264,241,122,513,0,,,,
1,1790113742768,-1655,2550,11088,-7483099,-276111,-194255,0,0,0,244,175,158,285,177,311,340,124,185,198,95,251,0,,,,
2,1790113742768,-124,631,10169,405614,-96516,-65973,0,0,0,382,187,142,344,273,371,447,156,261,223,137,519,0,,,,
1,1790113742784,-2258,2005,11734,-7404908,-268780,-285884,0,0,0,244,176,158,288,177,313,356,135,200,198,97,249,0,,,,
2,1790113742784,-129,593,10260,425162,-67195,-61086,0,0,0,382,182,137,353,241,372,429,144,250,207,89,519,0,,,,
1,1790113742800,-3249,1411,12222,-7145901,-551000,-327423,0,0,0,245,181,163,282,168,310,361,136,196,201,101,243,0,,,,
2,1790113742800,-62,531,10471,487470,3665,-65973,0,0,0,391,171,147,341,245,369,436,180,300,206,78,531,0,,,,
1,1790113742816,-3680,990,13347,-6834360,-1176526,-278554,0,0,0,249,186,172,282,168,318,357,133,201,201,100,249,0,,,,
2,1790113742816,28,459,10729,619417,140499,-94073,0,0,0,393,159,142,352,241,403,447,142,296,209,82,552,0,,,,
1,1790113742832,-3330,885,15022,-6643770,-1649336,-216246,0,0,0,245,183,182,279,166,321,358,133,204,198,99,249,0,,,,
2,1790113742832,95,335,10629,766025,260228,-130725,0,0,0,403,165,144,344,257,394,420,127,301,214,79,564,0,,,,
1,1790113742848,-2852,727,17573,-6570466,-1802052,-141720,0,0,0,248,183,177,281,175,324,319,116,186,199,101,253,0,,,,
2,1790113742848,172,181,10351,847880,311541,-167377,0,0,0,414,172,144,352,287,402,411,132,326,208,88,581,0,,,,
1,1790113742864,-2799,119,20784,-6543588,-1786169,-48869,0,0,0,249,187,180,291,177,325,254,87,141,196,99,250,0,,,,
2,1790113742864,138,33,10241,856433,300545,-188146,0,0,0,425,173,148,352,273,406,404,136,316,198,76,586,0,,,,
1,1790113742880,-2857,-1483,24249,-6669426,-1891238,-117286,0,0,0,247,190,182,295,177,329,298,106,169,230,101,245,0,,,,
2,1790113742880,124,-90,10313,872315,290771,-193033,0,0,0,429,174,147,354,263,418,387,130,284,193,72,593,0,,,,
1,1790113742896,-2589,-5259,27700,-6962641,-2355496,-460592,0,0,0,244,192,181,296,179,331,247,82,138,219,102,250,0,,,,
2,1790113742896,196,-210,10509,922406,294437,-186924,0,0,0,445,174,139,355,259,428,379,130,279,213,78,615,0,,,,
1,1790113742912,-306,-13012,30246,-7111693,-3164281,-805120,0,0,0,241,190,176,299,183,329,206,66,112,201,102,252,0,,,,
2,1790113742912,392,-339,10624,1009149,302989,-199142,0,0,0,478,177,145,360,253,428,382,130,290,240,86,632,0,,,,
1,1790113742928,5293,-22196,30547,-6778160,-3490483,-871093,0,0,0,242,193,173,302,187,329,205,68,110,202,104,252,0,,,,
2,1790113742928,440,-507,10538,1092227,307876,-227241,0,0,0,492,181,162,367,257,426,390,120,286,246,106,641,0,,,,
1,1790113742944,11658,-29222,27494,-5805663,-2599842,-801455,0,0,0,253,198,174,304,187,330,259,93,143,200,103,252,0,,,,
2,1790113742944,335,-679,10480,1156978,291993,-238237,0,0,0,494,182,156,363,254,423,382,115,279,239,114,650,0,,,,
1,1790113742960,10859,-32347,21871,-4381125,-968832,-816115,0,0,0,263,202,182,301,182,329,322,118,179,199,101,253,0,,,,
2,1790113742960,617,-832,10911,1248608,228463,-233350,0,0,0,508,192,145,367,252,434,351,121,285,226,96,649,0,,,,
1,1790113742976,3225,-35486,15908,-2846632,289550,-376292,0,0,0,250,201,190,288,178,324,320,117,179,210,108,256,0,,,,
2,1790113742976,1282,-971,11820,1426981,122173,-273667,0,0,0,503,207,154,394,260,449,345,128,289,221,81,644,0,,,,
1,1790113742992,-1871,-38832,12663,-1661553,145385,847880,0,0,0,227,192,179,282,181,323,366,160,210,234,146,254,0,,,,
2,1790113742992,1301,-1105,12744,1745852,14660,-372627,0,0,0,525,217,159,409,267,417,327,127,274,213,63,647,0,,,,
1,1790113743008,9270,-39291,15386,145385,-294437,1621236,0,0,0,203,204,168,277,196,323,381,237,205,271,238,238,0,,,,
2,1790113743008,804,-1167,13539,2142915,-58643,-437379,0,0,0,538,235,165,345,254,401,303,110,260,223,69,666,0,,,,
1,1790113743024,15754,-26168,17798,2984687,1221730,719599,0,0,0,199,184,159,284,196,326,391,300,199,293,289,236,0,,,,
2,1790113743024,325,-1162,14256,2615724,-89186,-434936,0,0,0,533,247,149,368,268,391,299,127,268,227,86,666,0,,,,
1,1790113743040,3302,5594,15285,4980995,3321885,-259006,0,0,0,229,174,165,315,201,341,383,299,193,319,316,254,0,,,,
2,1790113743040,38,-1139,14879,3145955,-87964,-392175,0,0,0,553,245,165,413,275,363,264,114,248,245,87,658,0,,,,
1,1790113743056,-4077,17520,14539,5029864,3911980,-405614,0,0,0,240,193,159,327,205,349,368,301,184,346,330,258,0,,,,
2,1790113743056,-358,-1158,15305,3751934,-97738,-316428,0,0,0,514,288,166,369,348,377,253,127,259,232,109,654,0,,,,
1,1790113743072,-1249,3445,15319,4141666,2586403,-509461,0,0,0,250,194,157,332,201,350,407,331,187,362,345,268,0,,,,
2,1790113743072,-81,-1392,15348,4288273,-102625,-235793,0,0,0,490,289,170,349,317,385,204,99,256,194,77,603,0,,,,
1,1790113743088,2833,-3192,15415,3666413,744033,-915076,0,0,0,253,194,159,340,201,359,393,319,166,421,383,275,0,,,,
2,1790113743088,698,-1813,15783,4932125,-86742,-205250,0,0,0,454,300,146,340,328,407,191,108,228,179,86,559,0,,,,
1,1790113743104,4398,-521,13735,3491705,-280998,-744033,0,0,0,253,169,139,321,180,345,432,387,197,423,403,300,0,,,,
2,1790113743104,1770,-2493,17291,5604077,-87964,-280998,0,0,0,446,284,141,328,288,388,181,107,232,184,93,531,0,,,,
1,1790113743120,2617,1842,12668,3402519,-558330,59864,0,0,0,265,183,143,322,173,346,451,411,217,444,397,331,0,,,,
2,1790113743120,3364,-4087,19798,6206390,-133168,-474031,0,0,0,416,255,141,301,245,342,170,106,219,175,88,486,0,,,,
1,1790113743136,-2158,-737,15017,2288301,-355523,548556,0,0,0,282,200,168,333,181,360,463,415,228,471,403,363,0,,,,
2,1790113743136,4489,-5695,22708,6633996,-67195,-714712,0,0,0,368,206,131,257,207,294,163,99,193,159,79,430,0,,,,
1,1790113743152,-2287,-1531,13869,838107,120951,200363,0,0,0,304,210,187,339,195,371,483,430,247,482,406,390,0,,,,
2,1790113743152,3799,-5881,25915,6903998,118507,-984714,0,0,0,312,153,121,212,159,258,160,89,167,138,71,349,0,,,,
1,1790113743168,-579,-497,11208,54977,306654,-86742,0,0,0,335,219,192,350,209,380,475,413,247,487,401,420,0,,,,
2,1790113743168,2775,-3508,28365,7272961,161268,-1174082,0,0,0,238,106,119,183,105,226,161,90,143,117,58,236,0,,,,
1,1790113743184,268,641,9786,127059,102625,-64751,0,0,0,358,222,200,360,216,387,462,385,232,497,407,444,0,,,,
2,1790113743184,4661,354,26609,7593054,260228,-1340238,0,0,0,183,85,121,172,87,206,164,127,131,104,57,165,0,,,,
1,1790113743200,-421,392,10246,206472,-9773,19547,0,0,0,365,230,212,358,216,385,494,414,245,510,401,444,0,,,,
2,1790113743200,6996,5273,17774,6860016,802676,-1678657,0,0,0,177,102,121,169,102,209,160,173,128,96,70,175,0,,,,
1,1790113743216,-665,220,10409,127059,-3665,24434,0,0,0,376,242,207,360,225,386,491,420,248,505,401,444,0,,,,
2,1790113743216,5704,8714,10476,4383568,1202182,-1791056,0,0,0,176,94,117,162,81,202,165,144,133,96,57,173,0,,,,
1,1790113743232,-440,339,10236,59864,-3665,8552,0,0,0,367,239,208,355,225,386,495,408,243,515,403,443,0,,,,
2,1790113743232,2100,10126,10351,521678,785572,-1106887,0,0,0,174,74,117,164,63,200,176,102,141,98,52,172,0,,,,
1,1790113743248,-320,449,10141,57421,-48869,12217,0,0,0,365,237,224,348,218,389,504,399,250,527,407,440,0,,,,
2,1790113743248,2072,7652,12543,-2334726,-448375,18325,0,0,0,172,78,121,158,64,201,167,102,138,97,44,175,0,,,,
1,1790113743264,-378,445,10150,76969,-102625,24434,0,0,0,370,228,232,349,218,392,501,384,258,526,398,447,0,,,,
2,1790113743264,4642,4891,10940,-3180164,-1132544,593761,0,0,0,175,85,128,151,65,202,180,125,150,96,40,185,0,,,,
1,1790113743280,-430,406,10112,81855,-122173,23212,0,0,0,366,234,227,355,226,397,496,381,258,515,391,440,0,,,,
2,1790113743280,5857,4493,7121,-2974913,-756251,469144,0,0,0,175,85,128,153,61,207,166,112,139,93,51,185,0,,,,
1,1790113743296,-440,397,10069,94073,-136833,18325,0,0,0,370,250,221,359,232,393,495,377,256,498,374,434,0,,,,
2,1790113743296,3962,5561,5829,-3517362,-130725,195476,0,0,0,172,87,121,154,73,199,175,125,141,97,44,175,0,,,,
1,1790113743312,-445,397,10064,119729,-151494,15882,0,0,0,362,256,207,353,227,387,507,364,242,521,369,441,0,,,,
2,1790113743312,2660,5613,6805,-4377460,-96516,138055,0,0,0,170,78,125,157,67,198,176,97,143,90,54,175,0,,,,
1,1790113743328,-483,382,10064,145385,-162490,17104,0,0,0,380,265,206,362,228,388,501,367,253,497,351,451,0,,,,
2,1790113743328,2995,4790,7513,-4990769,-250454,144164,0,0,0,175,78,126,155,72,198,168,88,137,86,43,169,0,,,,
1,1790113743344,-536,373,10064,166155,-157603,24434,0,0,0,394,267,207,374,233,400,487,366,269,452,318,466,0,,,,
2,1790113743344,3675,4091,7753,-5348736,-191811,112399,0,0,0,171,79,126,162,76,203,194,115,154,113,62,183,0,,,,
1,1790113743360,-574,339,10083,190589,-136833,31764,0,0,0,396,266,204,379,245,402,488,347,271,431,290,476,0,,,,
2,1790113743360,3986,3665,8145,-5562538,83077,79412,0,0,0,172,83,127,156,69,200,183,106,147,115,61,188,0,,,,
1,1790113743376,-574,291,10098,217468,-117286,40317,0,0,0,401,275,208,385,264,398,495,311,271,427,275,481,0,,,,
2,1790113743376,3876,3407,9203,-5767789,416610,136833,0,0,0,171,80,125,151,66,199,176,100,141,103,60,186,0,,,,
1,1790113743392,-536,272,10126,235793,-111177,43982,0,0,0,408,287,219,394,283,404,492,276,277,423,266,490,0,,,,
2,1790113743392,3881,3244,10619,-5982814,720820,300545,0,0,0,171,79,126,152,63,199,183,103,152,97,42,182,0,,,,
1,1790113743408,-521,258,10208,255341,-130725,40317,0,0,0,421,295,214,399,294,416,488,260,285,413,261,501,0,,,,
2,1790113743408,4139,2670,12404,-6142860,1053131,579100,0,0,0,169,80,125,154,61,199,183,99,152,94,40,183,0,,,,
1,1790113743424,-574,220,10270,282219,-156381,41538,0,0,0,440,303,191,406,297,430,487,244,295,393,248,500,0,,,,
2,1790113743424,4402,1880,13960,-6177069,1356120,845437,0,0,0,172,80,125,153,64,199,179,93,146,101,49,186,0,,,,
1,1790113743440,-617,153,10251,310319,-179594,46425,0,0,0,466,310,199,416,300,440,496,246,304,362,214,497,0,,,,
2,1790113743440,4728,1316,15443,-6137973,1598023,1056796,0,0,0,178,81,128,153,66,200,179,91,147,109,55,186,0,,,,
1,1790113743456,-665,90,10236,329867,-196698,51312,0,0,0,459,316,179,447,306,435,474,192,271,378,192,499,0,,,,
2,1790113743456,4881,1162,17372,-6167295,1753183,1126435,0,0,0,177,83,130,160,66,202,177,92,148,108,60,184,0,,,,
1,1790113743472,-813,52,10361,364075,-216246,68416,0,0,0,463,358,198,470,345,463,410,128,225,404,189,483,0,,,,
2,1790113743472,4709,770,19660,-6221051,1826487,1142317,0,0,0,165,82,129,167,70,207,165,85,141,101,51,181,0,,,,
1,1790113743488,-1067,4,10624,425162,-252898,113620,0,0,0,463,352,191,461,339,455,442,156,273,372,166,497,0,,,,
2,1790113743488,4513,-665,22043,-6205169,1833817,1197295,0,0,0,160,79,124,162,64,204,157,81,138,88,41,178,0,,,,
1,1790113743504,-1320,-57,11170,527787,-318871,205250,0,0,0,485,352,191,466,341,466,469,146,321,355,162,517,0,,,,
2,1790113743504,4331,-3484,24048,-6145304,1996307,1293812,0,0,0,162,81,124,155,63,202,184,101,152,100,49,179,0,,,,
1,1790113743520,-1076,-153,11744,800233,-365297,305432,0,0,0,491,349,199,474,345,481,451,124,307,363,158,509,0,,,,
2,1790113743520,2957,-8126,25757,-6095213,2333505,1324355,0,0,0,159,84,124,153,68,200,182,102,149,87,41,184,0,,,,
1,1790113743536,-646,-268,11543,1120326,-353080,326202,0,0,0,511,345,204,464,347,488,445,120,319,342,151,531,0,,,,
2,1790113743536,-1038,-14721,26518,-5888740,2348165,1171639,0,0,0,163,86,126,156,63,204,182,102,154,106,59,193,0,,,,
1,1790113743552,-430,-435,10926,1335351,-315206,262672,0,0,0,525,349,203,454,369,491,453,126,333,334,150,549,0,,,,
2,1790113743552,-5364,-21167,25494,-5380501,1778839,943175,0,0,0,160,83,124,154,68,205,185,98,156,100,37,185,0,,,,
1,1790113743568,-646,-579,10997,1441641,-277332,199142,0,0,0,535,359,214,447,382,493,449,128,328,334,155,555,0,,,,
2,1790113743568,-6728,-26293,22555,-4576602,620639,711047,0,0,0,156,77,124,157,58,205,190,102,153,100,63,185,0,,,,
1,1790113743584,-1253,-698,11931,1583362,-208915,188146,0,0,0,546,370,223,443,364,490,405,118,297,330,158,566,0,,,,
2,1790113743584,-2033,-30480,18736,-3704286,-519235,321315,0,0,0,161,80,130,161,69,211,188,106,160,117,63,195,0,,,,
1,1790113743600,-1837,-871,13280,1941329,-86742,276111,0,0,0,559,384,231,443,353,486,352,111,267,334,167,577,0,,,,
2,1790113743600,2593,-34165,15008,-2656042,-878424,-322536,0,0,0,160,82,129,154,65,209,181,91,153,109,60,191,0,,,,
1,1790113743616,-1861,-1000,14142,2354274,-1221,379958,0,0,0,566,383,246,440,370,481,337,117,264,345,182,579,0,,,,
2,1790113743616,-1416,-34893,13548,-1304808,-233350,-759916,0,0,0,166,85,126,170,66,204,206,123,164,117,65,182,0,,,,
1,1790113743632,-1435,-1095,14687,2907718,31764,458148,0,0,0,549,356,247,435,378,469,339,118,276,344,183,573,0,,,,
2,1790113743632,-9949,-33132,15434,147829,-153938,-448375,0,0,0,155,92,107,177,84,197,264,200,153,148,152,150,0,,,,
1,1790113743648,-823,-1148,15013,3469714,30543,481361,0,0,0,535,366,252,442,384,466,277,108,271,330,173,553,0,,,,
2,1790113743648,-13299,-25216,20660,1981646,-1709200,693942,0,0,0,154,99,97,179,93,199,303,298,146,196,255,163,0,,,,
1,1790113743664,-229,-1153,15453,4043927,34208,436157,0,0,0,522,359,227,433,397,485,179,82,232,317,177,536,0,,,,
2,1790113743664,-3378,1933,16999,3859446,-3546683,1284038,0,0,0,159,97,99,182,95,212,321,335,156,247,300,191,0,,,,
1,1790113743680,-923,-1292,16089,4670675,130725,382401,0,0,0,502,408,229,433,413,483,228,87,265,313,170,513,0,,,,
2,1790113743680,1828,17487,12534,4653571,-3700621,1112996,0,0,0,170,96,107,193,96,231,350,364,176,290,335,216,0,,,,
1,1790113743696,-2536,-1809,17013,5357288,348193,452040,0,0,0,483,375,196,438,426,453,206,78,255,308,170,498,0,,,,
2,1790113743696,-516,5226,13697,4420220,-1865582,1039692,0,0,0,186,100,115,204,94,244,383,405,186,326,382,232,0,,,,
1,1790113743712,-3799,-3043,19095,6021909,648738,645073,0,0,0,462,383,188,413,392,430,236,108,245,292,166,473,0,,,,
2,1790113743712,-3397,-3105,15754,3902207,-178372,1104444,0,0,0,196,103,120,204,93,246,388,429,179,354,419,235,0,,,,
1,1790113743728,-4326,-5029,22110,6651100,872315,863763,0,0,0,445,340,198,383,367,416,221,97,202,283,161,456,0,,,,
2,1790113743728,-4178,-1038,15142,3306002,638965,620639,0,0,0,201,105,120,210,95,243,392,457,175,381,464,248,0,,,,
1,1790113743744,-4101,-5991,24905,7246083,1050688,1083674,0,0,0,423,297,193,349,314,383,259,107,194,259,143,431,0,,,,
2,1790113743744,-1005,1196,13649,2811201,884532,-123394,0,0,0,216,95,128,232,92,240,441,459,186,410,496,264,0,,,,
1,1790113743760,-3354,-5824,27953,7948578,1339016,1242499,0,0,0,352,270,191,301,275,346,294,126,197,218,126,403,0,,,,
2,1790113743760,2459,966,12773,2070833,835663,-411723,0,0,0,229,89,144,215,75,247,462,464,200,420,506,267,0,,,,
1,1790113743776,-5589,-4546,28006,8629082,1674992,1304808,0,0,0,280,250,198,288,238,321,318,130,204,206,113,336,0,,,,
2,1790113743776,2306,-129,12079,1280373,411723,-116064,0,0,0,250,108,162,212,73,248,481,491,201,429,516,277,0,,,,
1,1790113743792,-8111,938,20373,8344419,864985,1266934,0,0,0,250,228,192,303,209,312,316,118,194,216,107,277,0,,,,
2,1790113743792,995,177,10859,660956,62308,0,0,0,0,258,107,177,225,85,261,457,483,181,438,493,285,0,,,,
1,1790113743808,-5891,4934,13711,7026171,-235793,1044579,0,0,0,247,212,174,304,204,304,312,118,178,213,109,265,0,,,,
2,1790113743808,952,574,10241,375071,-45204,-39095,0,0,0,262,98,183,222,82,266,470,483,188,460,490,293,0,,,,
1,1790113743824,-1823,6786,11165,4532620,-147829,383623,0,0,0,247,206,167,299,197,297,308,114,172,206,103,255,0,,,,
2,1790113743824,1244,665,10145,254119,-73303,-46425,0,0,0,265,99,189,217,76,250,481,480,192,468,475,313,0,,,,
1,1790113743840,-2723,7642,10093,511905,575435,-586430,0,0,0,249,197,164,301,195,302,242,81,136,198,101,256,0,,,,
2,1790113743840,1182,698,10117,172263,-95294,-21991,0,0,0,273,97,202,219,73,256,494,451,190,474,467,302,0,,,,
1,1790113743856,-5776,6044,9834,-2269975,439822,-919963,0,0,0,244,188,162,293,193,301,281,98,153,196,99,251,0,,,,
2,1790113743856,990,732,10064,129503,-87964,-8552,0,0,0,281,114,218,218,84,270,500,429,194,458,470,315,0,,,,
1,1790113743872,-6097,4580,8820,-3242472,-520457,-426383,0,0,0,251,188,166,301,192,308,298,110,168,200,101,251,0,,,,
2,1790113743872,981,751,9997,105068,-53756,-13439,0,0,0,276,120,209,224,89,268,500,427,198,443,463,313,0,,,,
1,1790113743888,-3737,4761,7609,-3765373,-1219287,188146,0,0,0,238,183,159,301,190,306,213,73,118,209,104,252,0,,,,
2,1790113743888,1019,760,9964,91629,-30543,-18325,0,0,0,276,117,209,221,88,265,488,403,197,433,452,325,0,,,,
1,1790113743904,-1105,5518,7226,-4453207,-1112996,496022,0,0,0,237,190,159,302,210,306,270,118,182,198,104,252,0,,,,
2,1790113743904,1005,780,9954,90408,-18325,-21991,0,0,0,276,116,213,220,90,271,490,384,209,432,437,331,0,,,,
1,1790113743920,-473,5111,7930,-5314527,-415388,460592,0,0,0,226,177,166,278,181,320,340,132,220,194,98,264,0,,,,
2,1790113743920,995,804,9949,103847,-4886,-25656,0,0,0,275,118,215,223,95,277,483,365,205,431,421,341,0,,,,
1,1790113743936,-1009,4407,8518,-5732359,74525,334754,0,0,0,228,177,154,286,178,306,356,139,203,201,101,248,0,,,,
2,1790113743936,1019,780,9944,125838,2443,-30543,0,0,0,278,125,220,223,106,272,469,356,208,416,411,347,0,,,,
1,1790113743952,-1876,4192,8887,-5943718,283441,141720,0,0,0,228,176,154,284,179,306,354,134,194,203,103,247,0,,,,
2,1790113743952,1072,732,9925,139277,0,-35430,0,0,0,281,147,222,224,147,266,476,352,210,399,401,348,0,,,,
1,1790113743968,-3015,3871,9423,-6155078,261450,-59864,0,0,0,235,178,157,282,173,305,353,132,190,204,104,248,0,,,,
2,1790113743968,1110,708,9916,142942,-14660,-41538,0,0,0,297,156,223,235,170,275,479,337,195,389,380,361,0,,,,
1,1790113743984,-4340,3086,10227,-6309016,-43982,-200363,0,0,0,233,178,157,283,171,303,358,135,206,203,103,247,0,,,,
2,1790113743984,1110,703,9925,151494,-43982,-45204,0,0,0,317,142,234,246,152,287,467,324,193,377,345,376,0,,,,
1,1790113744000,-4819,2187,11251,-6318790,-632856,-226020,0,0,0,232,182,160,283,169,306,360,137,206,202,104,248,0,,,,
2,1790113744000,1076,698,9949,174707,-59864,-42760,0,0,0,313,161,242,245,169,290,478,307,204,366,301,389,0,,,,
1,1790113744016,-4355,1483,12562,-6250373,-1218065,-224798,0,0,0,232,186,167,280,177,315,355,138,205,199,105,257,0,,,,
2,1790113744016,1033,689,9973,201585,-52534,-40317,0,0,0,309,184,252,247,179,304,489,297,221,346,278,411,0,,,,
1,1790113744032,-3718,1005,13960,-6177069,-1554041,-221133,0,0,0,235,185,169,280,183,318,352,141,207,198,107,260,0,,,,
2,1790113744032,1028,660,9983,228463,-25656,-37873,0,0,0,316,173,277,268,160,319,483,291,249,330,278,436,0,,,,
1,1790113744048,-3407,502,15644,-6161186,-1781283,-167377,0,0,0,244,183,164,285,176,313,350,140,195,202,110,248,0,,,,
2,1790113744048,1086,617,9992,266337,3665,-35430,0,0,0,342,169,275,291,172,330,478,231,227,324,233,441,0,,,,
1,1790113744064,-3144,134,17324,-6161186,-1902234,-102625,0,0,0,248,180,168,288,176,317,336,133,195,204,110,251,0,,,,
2,1790113744064,1158,574,10031,312763,21991,-42760,0,0,0,335,149,280,296,181,357,473,239,243,299,218,473,0,,,,
1,1790113744080,-3005,-138,19081,-6073222,-1921782,-140499,0,0,0,236,180,173,289,180,322,320,134,203,202,108,252,0,,,,
2,1790113744080,1172,512,10045,349414,32986,-57421,0,0,0,350,184,293,301,234,355,455,220,249,270,195,495,0,,,,
1,1790113744096,-2890,-507,20995,-5977927,-1993864,-320093,0,0,0,235,180,182,293,178,329,325,121,190,203,104,253,0,,,,
2,1790113744096,1148,440,10074,393397,56199,-75747,0,0,0,378,187,289,336,246,360,460,190,267,271,169,519,0,,,,
1,1790113744112,-2258,-2182,23421,-6010913,-2249205,-774577,0,0,0,235,180,193,300,185,337,225,76,134,217,111,264,0,,,,
2,1790113744112,1162,387,10136,454483,101403,-91629,0,0,0,377,188,259,328,242,372,449,173,266,265,160,540,0,,,,
1,1790113744128,-837,-6058,25728,-6064670,-2675589,-1375668,0,0,0,239,190,181,312,190,336,227,75,136,215,108,259,0,,,,
2,1790113744128,1273,311,10236,558330,175929,-117286,0,0,0,391,201,253,337,246,385,442,167,262,241,138,555,0,,,,
1,1790113744144,2244,-13735,27484,-5927836,-3237585,-2006081,0,0,0,244,193,182,311,193,335,247,85,147,216,111,260,0,,,,
2,1790113744144,1402,186,10375,678060,255341,-147829,0,0,0,407,196,203,341,239,393,445,153,273,231,117,571,0,,,,
1,1790113744160,7260,-22383,26566,-5433035,-3134960,-2048842,0,0,0,243,193,180,316,195,336,253,85,150,210,112,260,0,,,,
2,1790113744160,1555,28,10528,792903,320093,-180816,0,0,0,428,194,163,379,256,391,442,143,272,241,101,594,0,,,,
1,1790113744176,11481,-29174,23488,-4643797,-2037846,-1665218,0,0,0,238,191,189,306,191,339,249,85,148,207,110,260,0,,,,
2,1790113744176,1789,-124,10859,913854,376292,-229685,0,0,0,444,195,148,422,268,394,429,139,273,261,97,621,0,,,,
1,1790113744192,9404,-32500,19210,-3637091,-180816,-1014036,0,0,0,236,193,192,301,190,340,255,89,153,214,112,264,0,,,,
2,1790113744192,2230,-205,11696,1100779,404392,-311541,0,0,0,452,203,140,405,272,402,399,142,281,254,102,644,0,,,,
1,1790113744208,454,-34218,15228,-2480112,995710,0,0,0,0,242,191,198,308,189,346,296,106,181,209,107,264,0,,,,
2,1790113744208,2273,-167,12869,1483180,265115,-428827,0,0,0,459,214,141,368,277,405,363,140,280,233,95,659,0,,,,
1,1790113744224,-2837,-34745,12677,-1186300,590095,1137431,0,0,0,238,187,193,315,191,343,322,118,189,227,122,260,0,,,,
2,1790113744224,1832,-172,13452,1905899,0,-480140,0,0,0,475,217,147,367,267,408,340,131,270,232,79,664,0,,,,
1,1790113744240,6618,-32399,14075,85521,-120951,1194852,0,0,0,213,183,171,297,196,325,350,195,190,267,205,242,0,,,,
2,1790113744240,1464,-291,13921,2326174,-201585,-433714,0,0,0,505,234,150,352,260,407,316,134,257,226,87,673,0,,,,
1,1790113744256,11184,-24527,18123,1714087,653625,339641,0,0,0,197,178,157,279,194,318,390,299,197,311,308,225,0,,,,
2,1790113744256,1598,-459,14510,2796541,-276111,-388510,0,0,0,526,265,149,332,281,386,290,130,239,242,114,693,0,,,,
1,1790113744272,2747,1081,18420,3793473,2415361,-525344,0,0,0,212,177,166,300,191,342,406,322,198,349,349,238,0,,,,
2,1790113744272,1765,-583,14922,3280346,-252898,-390953,0,0,0,516,275,155,327,278,368,281,128,246,256,107,691,0,,,,
1,1790113744288,-3938,18966,15477,4560719,3441614,-146607,0,0,0,221,188,171,320,205,368,408,334,204,368,379,255,0,,,,
2,1790113744288,1502,-550,15223,3756821,-224798,-390953,0,0,0,508,263,162,320,285,371,280,135,267,235,107,673,0,,,,
1,1790113744304,-2268,8217,15893,4362799,3065321,58643,0,0,0,228,189,175,316,195,379,427,372,209,370,390,267,0,,,,
2,1790113744304,1507,-540,15654,4376238,-240680,-367740,0,0,0,478,291,156,302,286,380,206,119,239,215,107,639,0,,,,
1,1790113744320,698,-4489,17281,3613878,1538158,-587652,0,0,0,232,191,193,314,190,380,414,368,199,385,403,272,0,,,,
2,1790113744320,2459,-794,15884,4993212,-362853,-409279,0,0,0,456,312,147,310,323,364,179,103,229,196,109,577,0,,,,
1,1790113744336,2459,-1268,14491,2715906,430049,-998153,0,0,0,236,184,172,326,201,374,435,409,202,413,418,266,0,,,,
2,1790113744336,3417,-1445,16649,5688377,-632856,-601091,0,0,0,420,300,138,295,355,356,168,118,223,187,116,533,0,,,,
1,1790113744352,2067,2617,10610,2445904,206472,-394618,0,0,0,238,188,174,326,188,360,435,403,191,441,430,278,0,,,,
2,1790113744352,4096,-2852,18607,6307794,-862541,-811229,0,0,0,383,242,141,270,252,330,157,99,198,163,85,476,0,,,,
1,1790113744368,258,2211,9892,2466673,72082,188146,0,0,0,249,178,181,326,186,362,429,402,186,462,431,301,0,,,,
2,1790113744368,4814,-4814,22301,6706078,-836885,-970053,0,0,0,360,181,138,255,200,305,163,98,184,154,69,439,0,,,,
1,1790113744384,-966,-138,11797,2179567,-189368,202807,0,0,0,254,215,202,319,193,365,458,453,233,467,423,317,0,,,,
2,1790113744384,4771,-5211,25393,6987076,-707381,-1132544,0,0,0,314,147,137,208,179,263,163,101,159,125,64,351,0,,,,
1,1790113744400,-430,-382,12151,1470963,-287106,24434,0,0,0,270,209,213,320,190,363,464,453,231,480,451,352,0,,,,
2,1790113744400,3938,-3058,27599,7293730,-864985,-1301142,0,0,0,236,99,122,171,108,209,163,97,132,102,48,228,0,,,,
1,1790113744416,-229,-57,11442,883311,-229685,21991,0,0,0,293,226,228,320,214,361,467,439,239,488,472,375,0,,,,
2,1790113744416,6465,1392,25680,7517307,-1064127,-1411098,0,0,0,184,75,115,156,70,189,163,100,124,96,47,167,0,,,,
1,1790113744432,-626,172,10634,505796,-108734,81855,0,0,0,321,232,240,334,227,361,481,453,257,489,469,382,0,,,,
2,1790113744432,9246,6307,17559,7121466,-707381,-1620014,0,0,0,171,78,120,150,65,192,165,98,128,102,49,165,0,,,,
1,1790113744448,-713,220,10423,349414,-63529,54977,0,0,0,331,234,264,340,225,371,491,467,275,489,461,400,0,,,,
2,1790113744448,8083,8236,10983,5142263,-65973,-1556484,0,0,0,172,81,124,148,59,190,170,90,133,110,47,164,0,,,,
1,1790113744464,-521,339,10284,230907,-64751,19547,0,0,0,334,245,279,335,225,377,498,462,282,495,452,415,0,,,,
2,1790113744464,5135,10107,9485,1858252,262672,-861319,0,0,0,173,79,122,147,58,184,170,91,137,110,53,154,0,,,,
1,1790113744480,-440,449,10208,194255,-86742,23212,0,0,0,347,260,266,336,236,368,506,452,269,504,436,415,0,,,,
2,1790113744480,4053,8671,11447,-1248608,-317649,160046,0,0,0,174,79,121,149,61,189,168,97,139,102,55,154,0,,,,
1,1790113744496,-454,502,10141,189368,-106290,31764,0,0,0,356,273,259,343,252,364,508,444,258,505,408,427,0,,,,
2,1790113744496,5537,5642,10993,-2366491,-745255,541226,0,0,0,170,73,119,150,62,188,167,97,131,96,54,146,0,,,,
1,1790113744512,-469,478,10102,211359,-123394,34208,0,0,0,364,263,261,354,256,368,507,433,270,483,368,449,0,,,,
2,1790113744512,6465,4278,8097,-2213775,-302989,245567,0,0,0,168,70,120,143,59,186,174,97,131,95,50,146,0,,,,
1,1790113744528,-416,440,10102,234572,-155159,34208,0,0,0,376,280,274,351,273,379,509,427,273,466,366,457,0,,,,
2,1790113744528,4379,5814,7288,-2781880,284663,1221,0,0,0,176,78,129,149,67,187,164,95,134,108,55,153,0,,,,
1,1790113744544,-411,425,10107,265115,-202807,37873,0,0,0,380,293,256,385,287,389,501,410,271,470,365,466,0,,,,
2,1790113744544,2603,6489,8006,-3907094,344527,-12217,0,0,0,171,75,122,149,69,186,165,96,142,103,66,157,0,,,,
1,1790113744560,-459,416,10145,321315,-254119,42760,0,0,0,390,293,241,397,289,401,518,381,260,486,304,500,0,,,,
2,1790113744560,2584,5293,9102,-4941899,-14660,79412,0,0,0,178,84,125,144,70,186,172,112,136,103,51,152,0,,,,
1,1790113744576,-521,387,10208,388510,-306654,43982,0,0,0,402,315,263,385,288,407,516,369,285,434,275,517,0,,,,
2,1790113744576,3474,3900,9322,-5325523,-129503,76969,0,0,0,171,80,125,144,67,184,165,96,144,94,51,159,0,,,,
1,1790113744592,-612,272,10222,432492,-359188,43982,0,0,0,427,314,244,406,303,422,506,319,317,436,262,517,0,,,,
2,1790113744592,3948,3397,9356,-5530773,178372,81855,0,0,0,172,85,120,151,67,188,174,102,138,94,38,155,0,,,,
1,1790113744608,-717,148,10203,447153,-395840,46425,0,0,0,435,300,243,418,301,423,493,261,299,423,240,519,0,,,,
2,1790113744608,3685,3239,10217,-5764124,549778,262672,0,0,0,174,80,120,154,64,182,177,107,139,107,51,153,0,,,,
1,1790113744624,-789,90,10227,469144,-411723,48869,0,0,0,446,305,232,432,319,424,481,225,278,406,231,518,0,,,,
2,1790113744624,3383,2689,11715,-5940053,783129,608421,0,0,0,169,82,118,154,67,186,178,109,138,99,40,158,0,,,,
1,1790113744640,-847,52,10318,524122,-447153,52534,0,0,0,460,306,216,448,329,438,469,186,271,407,219,521,0,,,,
2,1790113744640,3809,1899,12945,-5951049,831998,984714,0,0,0,168,84,121,156,67,190,174,99,139,102,42,162,0,,,,
1,1790113744656,-880,-14,10404,583987,-508239,57421,0,0,0,478,313,199,459,349,447,457,151,283,401,208,527,0,,,,
2,1790113744656,4876,1488,13988,-5976705,1062905,1297477,0,0,0,92,38,107,148,60,186,169,93,137,101,43,164,0,,,,
1,1790113744672,-995,-148,10480,651182,-593761,68416,0,0,0,488,333,184,459,372,447,451,131,283,393,201,533,0,,,,
2,1790113744672,5407,1067,15238,-6078109,1403768,1536936,0,0,0,106,42,107,149,62,188,171,96,140,97,41,162,0,,,,
1,1790113744688,-1210,-282,10629,724486,-663399,90408,0,0,0,490,349,179,448,382,450,452,130,271,386,196,538,0,,,,
2,1790113744688,5422,531,16779,-6178291,1689653,1676214,0,0,0,172,77,125,156,68,211,177,102,157,104,54,173,0,,,,
1,1790113744704,-1612,-425,11021,801455,-669508,140499,0,0,0,500,355,180,450,398,467,425,134,271,363,196,540,0,,,,
2,1790113744704,5470,86,18300,-6163630,1838704,1635897,0,0,0,171,79,135,157,67,229,182,102,174,106,59,177,0,,,,
1,1790113744720,-2072,-526,11667,961501,-591317,246789,0,0,0,503,362,185,475,410,490,354,114,237,370,200,535,0,,,,
2,1790113744720,4661,-1162,20454,-6084217,1993864,1404990,0,0,0,169,84,139,156,69,235,181,97,179,107,52,176,0,,,,
1,1790113744736,-2091,-612,11969,1208291,-448375,348193,0,0,0,505,379,186,470,452,486,384,146,259,356,211,543,0,,,,
2,1790113744736,2718,-4044,22675,-6036570,2002416,1309695,0,0,0,165,85,141,153,72,238,175,93,175,114,54,186,0,,,,
1,1790113744752,-1847,-818,11495,1486845,-240680,423940,0,0,0,509,390,200,462,477,485,369,147,266,354,214,546,0,,,,
2,1790113744752,268,-9045,24891,-6029239,1897347,1373225,0,0,0,162,81,140,151,70,237,175,100,169,109,54,183,0,,,,
1,1790113744768,-1469,-1048,10715,1626123,-108734,461814,0,0,0,521,402,208,464,468,500,322,131,246,367,236,561,0,,,,
2,1790113744768,-2335,-15582,26097,-6003583,1656666,1437976,0,0,0,158,75,133,156,70,228,183,105,170,98,45,174,0,,,,
1,1790113744784,-1172,-1258,10284,1663996,-35430,450818,0,0,0,525,429,220,469,475,495,320,132,244,380,240,548,0,,,,
2,1790113744784,-4446,-23321,25025,-5663942,928515,1281595,0,0,0,146,75,115,153,66,189,182,98,142,108,57,164,0,,,,
1,1790113744800,-1660,-1440,11007,1732413,57421,438601,0,0,0,535,415,226,493,444,509,276,110,209,363,216,556,0,,,,
2,1790113744800,-4005,-30806,22244,-4950451,-52534,949284,0,0,0,156,79,112,162,72,197,179,101,138,100,50,161,0,,,,
1,1790113744816,-2345,-1631,12184,1916895,188146,488692,0,0,0,542,405,234,472,439,500,302,119,230,357,211,561,0,,,,
2,1790113744816,-741,-36908,18679,-3981619,-841772,459370,0,0,0,166,84,125,161,64,197,187,98,155,104,54,166,0,,,,
1,1790113744832,-2694,-1823,13620,2310292,348193,626747,0,0,0,545,409,224,467,428,485,328,130,249,357,209,565,0,,,,
2,1790113744832,1847,-40842,15300,-2685363,-946841,-161268,0,0,0,166,86,125,161,67,201,187,98,154,104,52,157,0,,,,
1,1790113744848,-2033,-1876,14505,2861292,423940,752585,0,0,0,547,428,235,466,440,483,343,155,271,352,216,572,0,,,,
2,1790113744848,57,-41373,13543,-1054353,-375071,-570548,0,0,0,170,84,129,167,66,203,187,97,145,107,67,165,0,,,,
1,1790113744864,-1201,-1818,14855,3408628,420275,796568,0,0,0,549,434,240,463,456,479,328,143,278,350,209,566,0,,,,
2,1790113744864,-6063,-36807,14960,691499,95294,-302989,0,0,0,112,59,117,156,62,210,233,158,169,140,118,152,0,,,,
1,1790113744880,-531,-1703,15013,3974289,367740,772133,0,0,0,541,436,225,474,462,477,275,100,254,353,192,542,0,,,,
2,1790113744880,-9849,-23852,19411,2288301,-235793,288328,0,0,0,150,79,98,180,77,191,315,286,141,304,304,155,0,,,,
1,1790113744896,-301,-1785,15596,4664566,345749,708603,0,0,0,518,442,215,483,468,489,230,88,247,345,186,514,0,,,,
2,1790113744896,-6666,6355,21536,3523470,-897971,581543,0,0,0,167,90,117,187,92,207,359,342,154,305,355,168,0,,,,
1,1790113744912,-670,-2359,16927,5349957,445931,651182,0,0,0,492,423,209,463,462,491,231,104,277,316,184,497,0,,,,
2,1790113744912,76,24230,19932,4020715,-1946216,70860,0,0,0,184,101,143,185,89,215,372,332,160,318,375,194,0,,,,
1,1790113744928,-2909,-4379,19593,6097656,704938,663399,0,0,0,478,380,192,438,420,458,240,109,260,294,168,481,0,,,,
2,1790113744928,4962,5728,18832,3264463,-2882062,-323758,0,0,0,197,105,150,188,82,213,392,332,161,347,383,198,0,,,,
1,1790113744944,-5350,-6867,23153,6669426,867428,812450,0,0,0,458,324,196,396,366,420,266,125,239,272,151,465,0,,,,
2,1790113744944,3187,-3330,14233,1898569,-2185675,311541,0,0,0,204,103,156,193,78,217,428,355,177,359,400,205,0,,,,
1,1790113744960,-6159,-8399,27293,7215540,915076,1130100,0,0,0,420,291,194,360,303,375,287,101,207,267,125,428,0,,,,
2,1790113744960,-598,1033,9026,1131322,-1209513,590095,0,0,0,221,102,168,208,77,224,467,362,195,390,416,216,0,,,,
1,1790113744976,-5829,-7982,29557,7869166,886976,1490511,0,0,0,352,243,194,304,252,343,322,133,214,209,109,395,0,,,,
2,1790113744976,-344,3694,9169,1097113,-979827,255341,0,0,0,242,107,173,222,84,232,488,364,197,435,420,225,0,,,,
1,1790113744992,-6288,-3857,26470,8054869,849102,1754404,0,0,0,259,219,207,281,209,322,334,126,212,196,101,289,0,,,,
2,1790113744992,698,2163,10720,877202,-872315,81855,0,0,0,251,109,177,219,91,246,495,376,194,452,433,249,0,,,,
1,1790113745008,-7882,1172,18229,7177666,543670,2056172,0,0,0,246,222,185,286,214,320,295,109,183,200,107,275,0,,,,
2,1790113745008,732,1306,10748,535117,-580321,36651,0,0,0,253,104,181,216,88,245,507,359,194,453,438,270,0,,,,
1,1790113745024,-6934,1603,13582,5889962,41538,2404365,0,0,0,245,203,177,300,205,331,283,102,168,197,103,266,0,,,,
2,1790113745024,579,1799,10035,356745,-305432,28099,0,0,0,262,114,188,224,97,250,514,355,198,448,431,281,0,,,,
1,1790113745040,-2794,3503,11127,3364645,-41538,2317622,0,0,0,245,189,211,296,195,323,240,83,146,195,102,260,0,,,,
2,1790113745040,660,2206,9839,342084,-194255,6108,0,0,0,273,119,189,235,110,256,513,337,194,437,438,305,0,,,,
1,1790113745056,-330,5494,9806,106290,390953,1584584,0,0,0,251,188,199,295,192,309,297,112,177,194,100,254,0,,,,
2,1790113745056,794,2187,9959,398284,-184481,-9773,0,0,0,289,126,190,235,120,257,509,329,207,435,386,324,0,,,,
1,1790113745072,-1335,4910,9777,-2420248,812450,508239,0,0,0,256,187,181,297,188,306,268,98,155,202,101,255,0,,,,
2,1790113745072,765,1995,9959,461814,-191811,-17104,0,0,0,313,150,250,254,135,289,518,307,219,452,357,352,0,,,,
1,1790113745088,-2589,3732,9231,-3081204,638965,-136833,0,0,0,257,184,177,296,185,309,211,70,121,205,103,258,0,,,,
2,1790113745088,698,1856,9935,520457,-191811,-30543,0,0,0,337,133,237,279,150,300,538,282,215,430,314,394,0,,,,
1,1790113745104,-2617,3943,7992,-3385415,379958,-463035,0,0,0,254,183,185,291,181,314,222,73,131,200,101,262,0,,,,
2,1790113745104,641,1785,9949,571769,-194255,-46425,0,0,0,351,146,234,285,166,303,506,274,205,391,313,421,0,,,,
1,1790113745120,-2493,4661,7240,-3953519,279776,-575435,0,0,0,250,184,189,283,180,317,259,93,156,200,104,264,0,,,,
2,1790113745120,583,1713,9997,618195,-191811,-58643,0,0,0,356,158,237,291,205,324,495,266,214,334,265,438,0,,,,
1,1790113745136,-3038,4776,7260,-4645019,156381,-613308,0,0,0,250,187,166,282,185,308,307,121,179,202,113,260,0,,,,
2,1790113745136,492,1612,10040,664621,-178372,-74525,0,0,0,372,159,238,294,204,331,499,259,231,305,228,449,0,,,,
1,1790113745152,-3713,4379,7820,-5247332,-130725,-555887,0,0,0,248,181,165,284,181,309,326,121,191,204,102,262,0,,,,
2,1790113745152,421,1493,10002,669508,-157603,-81855,0,0,0,385,162,239,311,203,342,485,238,232,281,190,461,0,,,,
1,1790113745168,-3512,4005,8427,-5738468,-448375,-465479,0,0,0,243,176,165,285,183,314,344,128,205,203,100,259,0,,,,
2,1790113745168,378,1359,9935,627969,-124616,-84299,0,0,0,393,170,232,306,203,338,465,219,242,273,182,486,0,,,,
1,1790113745184,-3038,3670,8944,-6117204,-576656,-439822,0,0,0,244,178,163,285,181,310,354,130,200,204,102,257,0,,,,
2,1790113745184,382,1287,9964,533896,-62308,-74525,0,0,0,393,165,227,311,210,356,465,194,257,267,163,505,0,,,,
1,1790113745200,-3096,3144,9499,-6331007,-642630,-485026,0,0,0,243,184,166,285,186,313,354,143,203,204,112,259,0,,,,
2,1790113745200,469,1210,10078,488692,-1221,-67195,0,0,0,403,179,223,319,237,379,471,183,272,253,143,519,0,,,,
1,1790113745216,-3455,2493,10246,-6395759,-861319,-527787,0,0,0,243,181,170,289,184,322,354,129,217,206,106,266,0,,,,
2,1790113745216,497,1119,10117,508239,24434,-67195,0,0,0,417,201,198,325,266,368,461,188,268,242,144,536,0,,,,
1,1790113745232,-3551,1799,11318,-6334672,-1251052,-519235,0,0,0,247,182,172,289,179,321,350,124,209,209,105,260,0,,,,
2,1790113745232,464,1057,10102,510683,19547,-64751,0,0,0,425,192,169,332,272,353,442,182,253,231,139,555,0,,,,
1,1790113745248,-3072,1320,12672,-6243042,-1617571,-459370,0,0,0,248,186,173,288,179,317,355,130,201,211,105,259,0,,,,
2,1790113745248,435,1005,10198,505796,43982,-58643,0,0,0,431,180,161,333,274,358,441,166,266,221,117,570,0,,,,
1,1790113745264,-2598,1229,14146,-6211277,-1886351,-395840,0,0,0,249,187,175,291,179,318,359,131,200,210,105,259,0,,,,
2,1790113745264,445,923,10361,559552,124616,-57421,0,0,0,440,186,148,348,300,358,456,147,287,225,101,573,0,,,,
1,1790113745280,-2512,1359,15750,-6294355,-2043955,-317649,0,0,0,248,185,179,293,181,321,360,133,203,208,106,259,0,,,,
2,1790113745280,516,827,10528,680503,263893,-74525,0,0,0,457,183,146,361,298,371,433,129,281,231,87,571,0,,,,
1,1790113745296,-2330,1177,17894,-6414085,-2182010,-202807,0,0,0,244,181,197,292,180,333,341,122,204,208,106,264,0,,,,
2,1790113745296,622,717,10528,797790,379958,-96516,0,0,0,463,189,139,358,294,384,403,146,267,231,121,596,0,,,,
1,1790113745312,-1550,368,20660,-6499606,-2244318,-172263,0,0,0,238,179,209,292,179,343,327,113,202,207,105,268,0,,,,
2,1790113745312,746,588,10418,872315,445931,-119729,0,0,0,477,197,135,351,293,398,416,149,263,249,143,625,0,,,,
1,1790113745328,-722,-1909,23637,-6559470,-2268753,-441044,0,0,0,236,180,204,294,181,344,326,114,201,206,105,269,0,,,,
2,1790113745328,890,449,10437,906524,452040,-139277,0,0,0,479,199,146,335,280,392,416,165,297,236,129,636,0,,,,
1,1790113745344,330,-7011,27102,-6603453,-2544864,-880867,0,0,0,236,185,198,294,186,341,324,116,198,206,107,270,0,,,,
2,1790113745344,1005,339,10629,966388,449596,-164933,0,0,0,448,206,140,324,280,392,388,150,281,226,112,632,0,,,,
1,1790113745360,4010,-16195,29102,-6459289,-2978578,-1055575,0,0,0,234,189,197,293,186,338,322,116,195,205,107,265,0,,,,
2,1790113745360,1105,229,11002,1093448,449596,-193033,0,0,0,474,210,132,339,292,398,382,154,280,236,129,653,0,,,,
1,1790113745376,10246,-25728,28068,-5926614,-2654820,-899193,0,0,0,240,187,200,293,183,336,319,109,193,208,104,265,0,,,,
2,1790113745376,1277,86,11289,1257160,427605,-226020,0,0,0,480,219,136,337,293,411,371,145,274,237,129,662,0,,,,
1,1790113745392,13357,-32088,23335,-4728096,-1054353,-767246,0,0,0,240,193,188,295,186,333,312,109,188,209,109,265,0,,,,
2,1790113745392,1536,-124,11581,1450194,371406,-276111,0,0,0,488,220,139,364,294,417,361,148,269,249,128,677,0,,,,
1,1790113745408,9475,-35467,18291,-3314554,657290,-681725,0,0,0,240,193,195,298,187,340,307,107,186,209,109,266,0,,,,
2,1790113745408,2057,-378,12141,1689653,274889,-359188,0,0,0,497,221,144,364,292,417,347,159,258,265,130,693,0,,,,
1,1790113745424,617,-36802,14347,-1874134,1577254,-334754,0,0,0,236,211,191,310,188,341,242,75,155,199,106,268,0,,,,
2,1790113745424,2498,-607,12658,1969429,178372,-480140,0,0,0,508,247,148,360,302,416,337,163,250,261,128,688,0,,,,
1,1790113745440,-3158,-36357,12366,-426383,987158,283441,0,0,0,235,201,180,315,197,334,362,165,202,248,164,256,0,,,,
2,1790113745440,2354,-737,13089,2305405,106290,-621860,0,0,0,520,268,154,358,284,417,314,154,246,247,119,678,0,,,,
1,1790113745456,5752,-31337,16018,1185078,42760,285884,0,0,0,223,193,166,305,210,340,356,230,187,279,247,245,0,,,,
2,1790113745456,1593,-674,13543,2640159,58643,-679282,0,0,0,527,254,160,346,255,404,293,157,244,237,122,685,0,,,,
1,1790113745472,7786,-10356,17377,3420845,621860,-197920,0,0,0,226,190,162,300,203,338,353,262,174,341,308,248,0,,,,
2,1790113745472,995,-665,14185,3049439,-28099,-662177,0,0,0,539,243,168,336,254,383,283,155,250,235,121,676,0,,,,
1,1790113745488,3225,10763,14075,4812396,1573588,-166155,0,0,0,228,190,160,311,209,349,358,270,176,363,334,262,0,,,,
2,1790113745488,737,-770,14883,3517362,-145385,-593761,0,0,0,548,258,168,337,274,373,264,133,248,241,116,648,0,,,,
1,1790113745504,-1052,10586,11777,4907691,1916895,228463,0,0,0,234,194,161,317,211,364,392,321,186,381,369,271,0,,,,
2,1790113745504,531,-837,15620,4100127,-259006,-497244,0,0,0,520,275,160,339,284,367,229,113,240,238,108,622,0,,,,
1,1790113745520,-569,-1210,14706,4230852,1099557,30543,0,0,0,247,189,167,319,193,363,436,393,209,418,410,281,0,,,,
2,1790113745520,1349,-1019,16142,4708549,-384845,-425162,0,0,0,454,282,162,334,283,358,193,99,239,204,84,575,0,,,,
1,1790113745536,827,-3450,19813,3066543,785572,-125838,0,0,0,259,183,190,317,182,359,456,431,235,451,434,299,0,,,,
2,1790113745536,3153,-1646,16879,5360953,-618195,-515570,0,0,0,421,284,157,326,287,357,168,87,206,175,86,522,0,,,,
1,1790113745552,90,-737,19621,1430646,807563,3665,0,0,0,273,203,228,312,191,360,460,429,239,469,442,318,0,,,,
2,1790113745552,4781,-2837,18645,6006027,-896750,-755029,0,0,0,405,254,139,315,253,329,163,94,196,175,64,468,0,,,,
1,1790113745568,-574,1162,13711,346971,585208,-9773,0,0,0,291,221,255,319,192,357,462,415,236,474,433,337,0,,,,
2,1790113745568,5891,-4417,22076,6437297,-957836,-1058018,0,0,0,354,202,143,270,205,305,148,87,190,144,73,426,0,,,,
1,1790113745584,-90,1282,9188,246789,266337,-111177,0,0,0,309,219,284,318,188,362,479,418,254,484,421,350,0,,,,
2,1790113745584,5838,-4694,26211,6901555,-915076,-1442863,0,0,0,319,154,140,285,167,257,163,94,167,155,75,353,0,,,,
1,1790113745600,81,1028,9667,283441,108734,-90408,0,0,0,314,219,303,319,199,362,493,416,263,494,421,356,0,,,,
2,1790113745600,4656,-3216,28982,7382917,-1208291,-1739744,0,0,0,238,99,114,191,99,207,175,92,126,147,81,231,0,,,,
1,1790113745616,-105,1072,10648,224798,29321,-42760,0,0,0,326,223,318,330,199,368,501,406,261,509,425,368,0,,,,
2,1790113745616,6642,-449,28308,7612602,-1699427,-1804495,0,0,0,190,110,131,174,116,199,185,99,136,126,59,170,0,,,,
1,1790113745632,-291,1311,10543,177150,-13439,-20769,0,0,0,341,228,361,323,206,375,471,368,260,490,417,396,0,,,,
2,1790113745632,9442,4278,21718,7153231,-1436755,-1754404,0,0,0,178,99,114,173,107,200,183,94,138,107,54,159,0,,,,
1,1790113745648,-239,1378,10131,229685,-36651,-12217,0,0,0,344,236,377,336,213,379,471,366,260,487,382,404,0,,,,
2,1790113745648,8724,8413,13534,5116607,-434936,-1297477,0,0,0,183,98,112,180,106,205,193,104,133,97,44,146,0,,,,
1,1790113745664,-191,1340,10064,291993,-54977,-1221,0,0,0,358,239,383,347,209,389,453,332,248,478,366,414,0,,,,
2,1790113745664,5695,10428,10945,2084272,15882,-335975,0,0,0,185,83,114,180,77,191,195,93,126,100,39,146,0,,,,
1,1790113745680,-210,1273,10193,335975,-76969,13439,0,0,0,378,253,373,367,221,381,455,332,254,473,330,432,0,,,,
2,1790113745680,4072,9198,11423,-1104444,-570548,860098,0,0,0,185,74,114,180,65,186,196,89,124,115,51,157,0,,,,
1,1790113745696,-229,1244,10246,372627,-102625,25656,0,0,0,381,280,378,369,257,385,461,320,269,453,300,445,0,,,,
2,1790113745696,6020,6494,9002,-1894903,-934623,1007927,0,0,0,181,75,115,181,66,187,201,95,130,123,52,170,0,,,,
1,1790113745712,-224,1220,10236,428827,-128281,37873,0,0,0,381,289,366,377,277,399,480,297,270,436,275,461,0,,,,
2,1790113745712,6671,5503,5680,-2029294,-561996,616973,0,0,0,179,77,117,180,65,189,200,92,129,121,46,170,0,,,,
1,1790113745728,-224,1143,10236,500909,-157603,48869,0,0,0,395,299,341,389,287,403,487,259,276,415,239,478,0,,,,
2,1790113745728,4790,6527,4307,-2460565,103847,100181,0,0,0,179,76,119,176,62,188,203,91,130,118,51,160,0,,,,
1,1790113745744,-287,1072,10270,563217,-183259,68416,0,0,0,418,308,315,409,296,404,480,225,269,394,210,486,0,,,,
2,1790113745744,2924,6934,5829,-3611435,140499,-59864,0,0,0,180,74,119,177,59,187,210,98,137,116,56,157,0,,,,
1,1790113745760,-354,1005,10327,637743,-212581,97738,0,0,0,425,319,305,423,313,410,475,206,263,378,199,485,0,,,,
2,1790113745760,2627,6221,7255,-4679227,-42760,-108734,0,0,0,181,75,117,179,63,188,205,96,132,115,51,157,0,,,,
1,1790113745776,-378,875,10423,739146,-257785,125838,0,0,0,422,347,294,425,334,415,478,201,276,373,192,487,0,,,,
2,1790113745776,3273,5096,7839,-5299866,-26878,-166155,0,0,0,180,79,121,171,71,187,204,93,134,112,50,155,0,,,,
1,1790113745792,-358,717,10581,862541,-298102,138055,0,0,0,432,368,273,429,348,418,482,209,292,373,188,492,0,,,,
2,1790113745792,3311,4335,8375,-5602855,305432,-217468,0,0,0,184,78,127,175,64,192,211,92,144,109,47,150,0,,,,
1,1790113745808,-330,569,10658,1000597,-317649,130725,0,0,0,449,359,262,431,360,427,474,199,298,358,186,493,0,,,,
2,1790113745808,2914,4063,9198,-5765346,620639,-151494,0,0,0,187,82,129,177,67,197,207,95,136,111,50,159,0,,,,
1,1790113745824,-349,406,10638,1091005,-323758,114842,0,0,0,459,358,228,438,360,433,456,171,269,355,183,494,0,,,,
2,1790113745824,2632,3977,10418,-5882632,844215,83077,0,0,0,184,77,127,170,62,192,219,109,147,107,45,165,0,,,,
1,1790113745840,-387,234,10619,1123992,-354301,94073,0,0,0,470,354,225,450,371,445,455,172,283,355,178,500,0,,,,
2,1790113745840,2871,3895,11787,-5997474,1061683,378736,0,0,0,190,77,126,178,66,200,214,101,146,125,58,173,0,,,,
1,1790113745856,-464,47,10648,1148426,-409279,78190,0,0,0,475,357,196,450,420,445,453,172,301,362,178,499,0,,,,
2,1790113745856,3244,3776,13462,-6168517,1395216,664621,0,0,0,183,73,125,178,65,201,211,107,155,118,58,176,0,,,,
1,1790113745872,-598,-100,10648,1170417,-461814,79412,0,0,0,468,348,192,450,392,451,438,144,273,381,178,504,0,,,,
2,1790113745872,2991,3249,15501,-6368880,1714087,890641,0,0,0,185,76,129,173,65,206,209,100,151,118,39,183,0,,,,
1,1790113745888,-928,-258,10591,1197295,-472809,112399,0,0,0,465,368,211,466,422,457,405,133,249,355,185,496,0,,,,
2,1790113745888,2828,2593,17721,-6475171,1897347,1038470,0,0,0,181,77,129,173,66,210,201,101,157,122,46,189,0,,,,
1,1790113745904,-1182,-445,10567,1219287,-432492,179594,0,0,0,494,372,205,446,415,461,408,129,257,333,175,519,0,,,,
2,1790113745904,2847,2120,20531,-6524040,1993864,1076344,0,0,0,181,82,135,174,66,214,201,94,147,117,46,191,0,,,,
1,1790113745920,-1206,-655,10667,1235169,-386066,248011,0,0,0,501,349,191,454,410,468,354,110,253,329,167,524,0,,,,
2,1790113745920,2680,1100,23656,-6616892,2032959,1150870,0,0,0,183,82,139,173,66,216,199,93,149,119,54,193,0,,,,
1,1790113745936,-1215,-847,10926,1277930,-365297,304210,0,0,0,504,357,198,462,405,473,350,114,260,325,165,530,0,,,,
2,1790113745936,2378,-1732,26436,-6674313,2053728,1324355,0,0,0,179,80,135,174,67,215,201,91,157,114,51,187,0,,,,
1,1790113745952,-1220,-995,11079,1378111,-351858,353080,0,0,0,510,375,209,472,404,481,357,116,260,336,172,533,0,,,,
2,1790113745952,818,-6810,28537,-6570466,2222327,1424537,0,0,0,177,78,132,174,65,213,203,90,157,114,50,183,0,,,,
1,1790113745968,-928,-1129,10605,1480737,-290771,384845,0,0,0,508,398,213,482,421,487,339,114,257,350,187,526,0,,,,
2,1790113745968,-2861,-12629,30150,-6399424,2163684,1444085,0,0,0,174,77,130,173,62,217,202,88,156,115,45,184,0,,,,
1,1790113745984,-693,-1344,10212,1540602,-194255,384845,0,0,0,513,418,221,487,434,482,330,116,248,353,194,531,0,,,,
2,1790113745984,-6623,-18066,30045,-6012135,1508837,1569923,0,0,0,172,77,128,174,63,222,205,90,159,119,50,194,0,,,,
1,1790113746000,-1215,-1584,10964,1609019,-84299,381179,0,0,0,531,419,229,490,428,483,321,110,231,353,189,549,0,,,,
2,1790113746000,-4967,-24465,26149,-5161811,277332,1764178,0,0,0,173,83,129,177,67,219,214,97,161,122,61,201,0,,,,
1,1790113746016,-1770,-1761,12333,1814269,53756,437379,0,0,0,540,429,231,483,426,489,305,111,237,345,186,556,0,,,,
2,1790113746016,2952,-34189,19516,-4217413,-739146,1182635,0,0,0,170,87,129,175,68,214,212,95,156,116,48,195,0,,,,
1,1790113746032,-1440,-1813,13409,2162462,178372,511905,0,0,0,542,444,237,468,429,488,317,126,256,335,190,559,0,,,,
2,1790113746032,4699,-43282,14328,-2978578,-102625,-656069,0,0,0,165,81,126,174,68,215,204,96,150,119,49,193,0,,,,
1,1790113746048,-622,-1809,14156,2643824,260228,496022,0,0,0,538,430,232,472,447,477,304,133,264,345,201,555,0,,,,
2,1790113746048,-6116,-45905,13582,-1280373,879645,-2091602,0,0,0,168,80,126,179,72,218,211,103,151,115,55,193,0,,,,
1,1790113746064,-540,-1832,14716,3197268,300545,442266,0,0,0,534,430,242,462,461,483,246,108,269,351,203,541,0,,,,
2,1790113746064,-20177,-39583,16238,610865,196698,-1486845,0,0,0,167,83,128,175,72,217,215,110,150,117,58,186,0,,,,
1,1790113746080,-880,-1890,14931,3742160,316428,437379,0,0,0,526,430,231,478,462,480,230,98,230,356,185,532,0,,,,
2,1790113746080,-15860,-31002,17128,1914451,-1718974,355523,0,0,0,156,105,115,193,95,222,275,212,160,172,179,150,0,,,,
1,1790113746096,-976,-2077,15156,4425107,368962,499687,0,0,0,516,446,197,453,522,491,246,121,271,324,204,535,0,,,,
2,1790113746096,1584,-5690,20267,3152064,-2123367,1244943,0,0,0,163,103,103,172,87,213,300,289,151,234,273,203,0,,,,
1,1790113746112,-847,-2718,16243,5191132,525344,565661,0,0,0,501,444,189,451,514,471,244,133,277,331,211,524,0,,,,
2,1790113746112,7217,23819,13984,4400673,-1729970,630412,0,0,0,171,101,103,190,84,239,338,350,155,266,354,196,0,,,,
1,1790113746128,-2493,-4761,18391,5952270,847880,663399,0,0,0,494,420,194,447,471,450,215,109,238,313,187,505,0,,,,
2,1790113746128,2383,14826,12840,5582086,-1707979,180816,0,0,0,193,88,114,202,74,236,400,387,170,375,404,212,0,,,,
1,1790113746144,-4082,-7159,21794,6533814,1031140,839328,0,0,0,471,388,193,422,430,421,198,93,185,307,181,481,0,,,,
2,1790113746144,-3153,-7882,23125,5233893,-1273043,439822,0,0,0,205,86,148,207,76,238,416,357,173,393,418,225,0,,,,
1,1790113746160,-4111,-8178,26901,7056715,1137431,1033583,0,0,0,439,333,180,373,350,387,255,106,207,278,154,449,0,,,,
2,1790113746160,-1919,-5637,21339,2726902,-373849,152716,0,0,0,226,96,167,206,71,237,432,360,173,400,418,246,0,,,,
1,1790113746176,-5063,-6968,29873,7610159,1395216,1244943,0,0,0,366,279,178,327,286,359,299,119,218,236,126,415,0,,,,
2,1790113746176,918,2368,11993,995710,195476,-178372,0,0,0,233,102,181,207,78,237,431,356,180,411,432,235,0,,,,
1,1790113746192,-6982,-3718,30064,8318762,1585806,1588249,0,0,0,281,236,198,294,240,328,324,123,205,211,109,338,0,,,,
2,1790113746192,1363,4201,7351,919963,298102,-224798,0,0,0,248,103,187,235,78,235,459,361,187,436,437,237,0,,,,
1,1790113746208,-8887,531,24177,8366410,1407433,1999972,0,0,0,243,223,196,284,223,313,309,115,182,203,107,285,0,,,,
2,1790113746208,1134,1306,9600,1164309,190589,-230907,0,0,0,258,103,201,237,84,252,479,359,194,454,434,255,0,,,,
1,1790113746224,-9461,3278,16195,7326717,636521,2525316,0,0,0,248,222,176,294,223,314,269,102,159,198,109,278,0,,,,
2,1790113746224,1387,90,11237,984714,98960,-199142,0,0,0,259,103,231,224,89,270,487,339,196,474,425,279,0,,,,
1,1790113746240,-5484,4307,12065,4791626,-61086,2646268,0,0,0,247,207,178,297,211,313,259,95,152,193,102,270,0,,,,
2,1790113746240,1426,775,10547,696386,108734,-149051,0,0,0,264,106,248,219,89,262,492,319,195,471,415,288,0,,,,
1,1790113746256,-1445,5900,10246,1519832,48869,1999972,0,0,0,243,198,182,295,202,309,278,100,158,193,98,266,0,,,,
2,1790113746256,1459,1143,9906,571769,144164,-127059,0,0,0,269,114,245,221,95,255,481,309,197,436,397,282,0,,,,
1,1790113746272,-665,5900,10002,-1643227,739146,616973,0,0,0,256,197,166,302,198,297,309,111,163,201,98,255,0,,,,
2,1790113746272,1426,1014,9992,554665,191811,-120951,0,0,0,271,118,244,239,112,277,468,294,198,416,364,290,0,,,,
1,1790113746288,-2833,4359,9418,-3027448,928515,-594982,0,0,0,253,192,170,283,189,293,251,84,138,197,101,259,0,,,,
2,1790113746288,1411,971,10112,549778,268780,-125838,0,0,0,284,123,240,244,139,285,472,268,201,393,334,315,0,,,,
1,1790113746304,-4039,4034,8217,-3545461,601091,-1232726,0,0,0,244,188,166,288,192,297,269,97,151,198,102,265,0,,,,
2,1790113746304,1545,933,10093,593761,315206,-142942,0,0,0,307,145,259,243,171,280,492,263,210,378,310,334,0,,,,
1,1790113746320,-3924,4546,7776,-4122118,179594,-1375668,0,0,0,246,188,166,288,189,302,256,88,141,202,102,265,0,,,,
2,1790113746320,1675,746,10054,653625,300545,-157603,0,0,0,328,140,261,258,153,293,497,236,207,359,274,358,0,,,,
1,1790113746336,-3981,4565,8145,-4776966,-3665,-1296256,0,0,0,246,185,163,282,180,301,330,124,186,203,99,262,0,,,,
2,1790113746336,1737,574,10021,685390,278554,-167377,0,0,0,348,150,319,283,184,327,482,214,224,338,216,381,0,,,,
1,1790113746352,-4230,4273,8619,-5406157,-100181,-1033583,0,0,0,244,182,163,283,181,307,316,115,179,204,102,264,0,,,,
2,1790113746352,1780,488,10002,667064,293215,-172263,0,0,0,364,161,309,283,188,320,484,208,242,301,193,398,0,,,,
1,1790113746368,-3948,4024,8973,-5931501,-248011,-723264,0,0,0,239,182,162,288,188,306,332,123,189,204,102,264,0,,,,
2,1790113746368,1842,392,9959,641408,307876,-175929,0,0,0,378,163,294,286,193,326,454,198,230,292,186,417,0,,,,
1,1790113746384,-3527,3680,9566,-6354220,-383623,-487470,0,0,0,238,183,165,286,186,311,342,128,199,203,102,273,0,,,,
2,1790113746384,1928,258,9887,619417,283441,-174707,0,0,0,397,232,314,295,279,331,474,188,231,293,186,432,0,,,,
1,1790113746400,-3192,3302,10504,-6616892,-582765,-335975,0,0,0,240,187,168,284,184,310,343,128,198,204,103,273,0,,,,
2,1790113746400,2033,162,9892,612086,210137,-172263,0,0,0,407,193,289,306,268,338,470,178,228,284,172,435,0,,,,
1,1790113746416,-2828,2991,11667,-6762278,-894306,-273667,0,0,0,242,188,169,287,185,309,321,138,210,206,103,267,0,,,,
2,1790113746416,2120,95,9935,629191,136833,-184481,0,0,0,434,202,286,332,245,343,458,167,229,273,148,446,0,,,,
1,1790113746432,-2201,2464,13089,-6790377,-1265712,-293215,0,0,0,243,189,170,288,184,312,325,142,215,207,105,267,0,,,,
2,1790113746432,2115,23,9964,652404,81855,-210137,0,0,0,445,216,259,334,276,356,442,176,259,267,158,474,0,,,,
1,1790113746448,-1349,1775,14539,-6718295,-1505171,-342084,0,0,0,241,191,170,288,185,315,354,138,205,207,110,270,0,,,,
2,1790113746448,2096,-52,10002,632856,28099,-233350,0,0,0,448,226,262,337,299,377,420,172,264,261,171,497,0,,,,
1,1790113746464,-1378,1526,15984,-6688974,-1707979,-353080,0,0,0,238,191,171,291,190,317,353,140,204,205,114,272,0,,,,
2,1790113746464,2134,-129,10131,632856,-17104,-262672,0,0,0,449,244,276,330,304,385,396,159,255,252,165,504,0,,,,
1,1790113746480,-1722,1636,17860,-6746395,-2010968,-261450,0,0,0,240,191,173,289,186,318,350,134,200,205,109,272,0,,,,
2,1790113746480,2196,-220,10227,689055,-42760,-310319,0,0,0,456,258,260,319,338,382,384,155,258,238,152,507,0,,,,
1,1790113746496,-976,1464,20464,-6844134,-2212553,-138055,0,0,0,243,192,171,289,183,315,352,134,200,205,108,272,0,,,,
2,1790113746496,2167,-349,10222,742812,-54977,-357967,0,0,0,470,256,230,329,358,375,393,153,254,273,150,511,0,,,,
1,1790113746512,196,435,23388,-6982189,-2227214,-196698,0,0,0,243,193,174,291,187,317,344,130,197,206,107,274,0,,,,
2,1790113746512,2110,-469,10303,785572,-43982,-395840,0,0,0,484,255,201,344,349,372,395,155,251,311,163,523,0,,,,
1,1790113746528,1191,-3110,26432,-7188662,-2312735,-662177,0,0,0,247,193,178,307,193,323,219,73,123,211,107,275,0,,,,
2,1790113746528,2191,-579,10619,877202,-8552,-427605,0,0,0,495,275,165,334,372,384,366,177,272,263,175,551,0,,,,
1,1790113746544,2392,-10126,29585,-7349930,-2635272,-1251052,0,0,0,245,201,179,302,194,324,211,66,119,207,104,274,0,,,,
2,1790113746544,2263,-722,10835,1018923,10995,-471587,0,0,0,510,296,148,330,366,391,361,171,281,252,158,560,0,,,,
1,1790113746560,4728,-19645,30930,-7249748,-2736676,-1384220,0,0,0,240,199,174,296,194,320,331,121,205,204,103,269,0,,,,
2,1790113746560,2105,-880,10787,1167974,12217,-510683,0,0,0,524,260,148,352,349,417,343,153,276,254,150,579,0,,,,
1,1790113746576,7767,-29825,28375,-6448293,-1899790,-907745,0,0,0,236,196,173,296,191,321,323,114,189,207,105,272,0,,,,
2,1790113746576,1813,-995,10782,1299921,19547,-510683,0,0,0,533,276,140,363,365,406,327,165,272,286,167,569,0,,,,
1,1790113746592,8475,-37626,22914,-4950451,-610865,-390953,0,0,0,235,200,173,313,201,331,314,113,176,203,109,271,0,,,,
2,1790113746592,1832,-1086,11318,1472185,13439,-486248,0,0,0,562,291,135,353,343,404,316,164,253,249,156,616,0,,,,
1,1790113746608,3790,-40124,17717,-3295007,228463,-158824,0,0,0,234,201,176,305,199,328,334,123,189,205,109,275,0,,,,
2,1790113746608,2392,-1186,12543,1765400,-40317,-487470,0,0,0,577,317,135,330,333,393,296,171,258,253,173,659,0,,,,
1,1790113746624,-521,-40478,14314,-1772730,262672,45204,0,0,0,234,203,181,295,191,328,352,129,206,210,108,280,0,,,,
2,1790113746624,2354,-1258,13649,2244318,-119729,-546113,0,0,0,588,302,146,336,315,379,313,173,253,230,157,634,0,,,,
1,1790113746640,856,-38736,13189,-274889,-508239,208915,0,0,0,227,202,190,299,196,332,348,131,205,230,130,274,0,,,,
2,1790113746640,1536,-1277,14333,2761110,-144164,-538783,0,0,0,589,294,155,315,284,356,280,181,238,214,148,632,0,,,,
1,1790113746656,6623,-34309,14453,1018923,-719599,70860,0,0,0,209,205,181,293,205,328,359,205,199,284,225,256,0,,,,
2,1790113746656,1373,-1392,14735,3269350,-111177,-436157,0,0,0,620,306,179,289,265,348,244,162,230,211,148,640,0,,,,
1,1790113746672,7910,-17721,18367,2588846,-13439,-133168,0,0,0,199,211,156,281,206,324,394,340,201,346,350,244,0,,,,
2,1790113746672,1966,-1603,14845,3850894,-73303,-360410,0,0,0,626,302,164,282,263,341,225,145,232,182,110,623,0,,,,
1,1790113746688,3685,18473,13893,4504520,802676,-17104,0,0,0,219,201,155,298,206,340,411,391,198,392,402,259,0,,,,
2,1790113746688,2703,-1708,14812,4379903,-87964,-388510,0,0,0,600,342,160,283,294,339,204,142,229,169,104,606,0,,,,
1,1790113746704,373,24087,13907,5769011,654847,129503,0,0,0,241,202,162,314,211,336,453,416,204,469,468,266,0,,,,
2,1790113746704,3201,-1665,15376,4972443,-296880,-486248,0,0,0,549,347,144,317,362,339,190,132,220,189,107,570,0,,,,
1,1790113746720,-1641,-2388,26269,4535063,-218689,83077,0,0,0,268,228,218,310,225,340,451,412,213,470,460,291,0,,,,
2,1790113746720,4771,-1995,15917,5690820,-796568,-649960,0,0,0,475,315,134,315,340,345,172,108,215,176,82,545,0,,,,
1,1790113746736,-2656,-6618,23694,1213178,-7330,-1221,0,0,0,292,229,247,314,222,335,470,412,218,478,457,301,0,,,,
2,1790113746736,5943,-3455,17607,6239377,-1281595,-952949,0,0,0,424,276,146,290,298,347,160,104,218,156,83,523,0,,,,
1,1790113746752,-1588,1564,11275,-273667,261450,-51312,0,0,0,302,233,268,326,222,353,471,407,235,483,458,327,0,,,,
2,1790113746752,5699,-6082,22651,6707300,-1766622,-1281595,0,0,0,381,211,149,260,242,319,162,108,215,145,86,467,0,,,,
1,1790113746768,-918,4565,6786,120951,129503,-2443,0,0,0,326,231,276,375,228,356,472,404,232,487,457,346,0,,,,
2,1790113746768,6054,-7312,28178,7017619,-2125811,-1527163,0,0,0,312,143,130,222,157,264,162,101,178,128,56,359,0,,,,
1,1790113746784,-1335,2703,9026,348193,43982,29321,0,0,0,309,229,338,362,229,399,469,390,260,492,439,375,0,,,,
2,1790113746784,7595,-4737,29571,7348708,-2205223,-1754404,0,0,0,232,102,120,182,95,218,155,95,136,108,46,236,0,,,,
1,1790113746800,-1636,1354,11160,245567,80634,14660,0,0,0,293,272,408,354,246,409,463,354,257,492,431,392,0,,,,
2,1790113746800,9629,-837,27030,7509977,-2047620,-1984090,0,0,0,172,71,120,164,65,190,174,95,133,104,60,164,0,,,,
1,1790113746816,-1488,2129,10265,222354,120951,-10995,0,0,0,322,260,435,352,244,411,462,329,264,495,427,406,0,,,,
2,1790113746816,10318,2656,18162,6714630,-1412320,-2085493,0,0,0,185,72,121,182,65,188,203,92,127,122,55,170,0,,,,
1,1790113746832,-1340,2526,9715,301767,129503,-25656,0,0,0,350,266,443,368,280,427,448,313,279,488,398,432,0,,,,
2,1790113746832,7867,5202,10524,4017049,-353080,-1621236,0,0,0,192,72,117,180,58,181,216,101,134,132,57,179,0,,,,
1,1790113746848,-1225,2378,9959,378736,69638,-20769,0,0,0,357,308,452,380,297,449,444,287,295,483,349,464,0,,,,
2,1790113746848,4187,7394,10404,370184,139277,-529009,0,0,0,196,74,112,178,63,170,211,95,125,137,62,181,0,,,,
1,1790113746864,-1162,2230,10169,409279,-25656,-3665,0,0,0,369,328,466,384,286,466,459,258,313,482,309,478,0,,,,
2,1790113746864,3570,6398,12007,-1936442,-634078,414166,0,0,0,196,68,126,178,68,191,213,94,127,137,71,192,0,,,,
1,1790113746880,-1210,2211,10169,434936,-149051,25656,0,0,0,389,320,480,400,292,469,480,238,333,465,264,472,0,,,,
2,1790113746880,5379,4661,10198,-2717128,-1319468,774577,0,0,0,196,78,126,181,62,185,211,90,125,131,51,178,0,,,,
1,1790113746896,-1359,2182,10174,485026,-227241,58643,0,0,0,391,326,482,430,305,466,492,225,349,430,210,475,0,,,,
2,1790113746896,6862,4407,6341,-2582738,-1070235,521678,0,0,0,199,73,116,175,58,178,211,90,128,128,54,196,0,,,,
1,1790113746912,-1531,2096,10227,566882,-227241,105068,0,0,0,387,339,470,462,326,465,484,208,344,400,209,482,0,,,,
2,1790113746912,5733,5513,5001,-3161838,-219911,175929,0,0,0,200,78,118,179,70,186,211,94,122,127,55,189,0,,,,
1,1790113746928,-1493,1966,10212,637743,-129503,141720,0,0,0,401,307,440,480,346,454,493,169,315,380,167,482,0,,,,
2,1790113746928,4029,5824,6063,-4173431,272445,15882,0,0,0,192,77,123,167,71,189,189,99,128,113,37,178,0,,,,
1,1790113746944,-1440,1885,10308,714712,-8552,164933,0,0,0,402,316,437,477,345,446,490,174,347,371,163,484,0,,,,
2,1790113746944,3326,5063,7303,-4939456,327423,8552,0,0,0,186,77,121,158,73,184,173,97,130,106,44,177,0,,,,
1,1790113746960,-1560,1813,10619,850324,101403,190589,0,0,0,425,368,341,515,361,434,430,126,266,399,168,468,0,,,,
2,1790113746960,3287,4469,7877,-5402492,443488,34208,0,0,0,185,80,116,151,65,177,176,100,137,110,54,174,0,,,,
1,1790113746976,-1636,1675,10772,1053131,150272,249233,0,0,0,427,375,296,520,395,473,430,130,257,386,178,469,0,,,,
2,1790113746976,3086,4345,8518,-5712811,784350,130725,0,0,0,186,83,114,150,64,177,172,96,134,110,57,175,0,,,,
1,1790113746992,-1445,1459,10547,1188743,168598,290771,0,0,0,431,352,294,503,400,463,431,132,264,380,169,480,0,,,,
2,1790113746992,1809,4130,10203,-5971818,1114218,378736,0,0,0,184,81,112,155,66,182,188,106,137,106,58,177,0,,,,
1,1790113747008,-1177,1206,10217,1215621,153938,284663,0,0,0,442,376,267,484,451,467,439,155,313,379,190,481,0,,,,
2,1790113747008,780,3613,12045,-6059783,1143539,692721,0,0,0,182,81,114,157,64,185,198,119,143,106,63,177,0,,,,
1,1790113747024,-1220,1000,10122,1186300,127059,267558,0,0,0,443,381,226,487,469,464,450,169,311,369,194,491,0,,,,
2,1790113747024,1129,3350,13381,-6063448,1123992,923628,0,0,0,185,86,122,155,71,188,176,107,135,110,63,180,0,,,,
1,1790113747040,-1435,837,10232,1154535,112399,285884,0,0,0,456,373,205,494,445,479,442,155,302,367,187,495,0,,,,
2,1790113747040,1770,3220,15075,-6217386,1364672,1089783,0,0,0,188,89,126,154,72,188,184,106,142,110,50,184,0,,,,
1,1790113747056,-1488,670,10346,1148426,117286,333532,0,0,0,464,401,188,505,436,494,414,132,268,373,189,496,0,,,,
2,1790113747056,1765,2837,17042,-6484945,1771509,1119105,0,0,0,188,91,124,153,70,187,189,109,148,103,61,185,0,,,,
1,1790113747072,-1397,473,10390,1159422,124616,384845,0,0,0,464,414,181,516,444,491,382,117,230,374,189,497,0,,,,
2,1790113747072,904,2120,19176,-6618113,1963320,1066570,0,0,0,187,86,125,153,69,193,189,112,151,119,76,183,0,,,,
1,1790113747088,-1177,282,10409,1181413,113620,398284,0,0,0,470,395,187,523,448,493,369,119,239,368,188,499,0,,,,
2,1790113747088,-43,1541,21406,-6638883,1908343,1009149,0,0,0,180,82,125,153,66,190,180,101,144,107,71,193,0,,,,
1,1790113747104,-1119,114,10514,1210734,95294,398284,0,0,0,480,420,172,530,464,508,365,125,257,361,196,508,0,,,,
2,1790113747104,-1124,368,23766,-6682865,1703092,1003040,0,0,0,177,84,125,160,74,200,180,97,147,111,61,199,0,,,,
1,1790113747120,-1191,-38,10725,1268156,70860,404392,0,0,0,497,436,155,529,479,508,349,116,241,357,187,516,0,,,,
2,1790113747120,-2479,-3555,26006,-6763499,1530828,1025031,0,0,0,183,86,129,154,68,197,180,90,141,116,61,197,0,,,,
1,1790113747136,-1206,-210,10787,1358564,48869,423940,0,0,0,501,414,176,514,476,501,364,122,254,350,190,519,0,,,,
2,1790113747136,-4292,-9719,27772,-6704856,1413542,955393,0,0,0,181,80,130,151,63,209,176,105,156,128,79,204,0,,,,
1,1790113747152,-1067,-392,10595,1457524,42760,441044,0,0,0,506,437,196,527,478,506,361,127,257,372,200,514,0,,,,
2,1790113747152,-6283,-16908,27748,-6459289,916297,778242,0,0,0,180,84,127,151,66,199,185,102,145,109,55,194,0,,,,
1,1790113747168,-880,-569,10471,1539380,68416,426383,0,0,0,514,444,204,516,486,506,324,116,239,363,218,528,0,,,,
2,1790113747168,-5929,-24847,25254,-5962044,-141720,583987,0,0,0,179,82,124,160,70,200,189,96,141,116,43,196,0,,,,
1,1790113747184,-981,-727,11093,1648114,124616,403171,0,0,0,530,460,205,514,486,507,327,116,250,354,199,551,0,,,,
2,1790113747184,-1895,-31280,21076,-5061629,-1067792,421497,0,0,0,161,72,115,160,71,200,183,104,144,116,69,205,0,,,,
1,1790113747200,-1258,-875,12419,1860695,208915,398284,0,0,0,541,455,203,520,487,493,339,132,240,356,197,562,0,,,,
2,1790113747200,1732,-35802,17300,-3672521,-1166752,301767,0,0,0,200,107,130,184,89,216,187,119,146,116,72,201,0,,,,
1,1790113747216,-1392,-976,13797,2262644,298102,422718,0,0,0,538,467,205,501,491,477,306,123,226,357,203,554,0,,,,
2,1790113747216,1277,-38602,15027,-2161241,-711047,390953,0,0,0,191,103,127,171,87,228,206,148,167,139,106,214,0,,,,
1,1790113747232,-1368,-1009,14840,2773328,361632,460592,0,0,0,538,467,206,489,479,472,260,113,221,353,206,546,0,,,,
2,1790113747232,-3752,-42938,17185,-267558,-139277,845437,0,0,0,168,87,112,172,89,222,267,210,168,194,181,200,0,,,,
1,1790113747248,-1000,-918,15395,3398854,392175,492357,0,0,0,527,476,209,484,466,463,257,114,229,363,211,535,0,,,,
2,1790113747248,-5958,-40468,17525,2977357,51312,1205847,0,0,0,168,85,106,187,95,223,314,284,166,244,265,207,0,,,,
1,1790113747264,-459,-775,15730,4054923,431270,483805,0,0,0,514,480,207,483,481,461,250,109,233,355,204,521,0,,,,
2,1790113747264,-2340,-10648,17195,5839871,-200363,860098,0,0,0,181,87,108,192,90,231,328,312,164,290,314,232,0,,,,
1,1790113747280,-631,-923,16051,4768414,536339,445931,0,0,0,508,485,194,480,498,458,232,107,242,339,195,506,0,,,,
2,1790113747280,473,7834,18492,5115385,-996932,80634,0,0,0,196,95,112,199,89,230,341,310,152,330,332,230,0,,,,
1,1790113747296,-1904,-1641,16831,5452583,697608,494800,0,0,0,495,486,187,462,502,446,234,117,248,334,196,492,0,,,,
2,1790113747296,1622,6140,18047,3670078,-1499063,-382401,0,0,0,201,96,120,195,89,231,368,348,169,337,377,240,0,,,,
1,1790113747312,-4149,-3756,19473,6223495,1032362,745255,0,0,0,472,464,196,429,476,429,234,120,229,317,194,478,0,,,,
2,1790113747312,1560,-1732,15491,2816088,-1169196,-42760,0,0,0,224,90,141,195,67,231,430,363,184,372,392,247,0,,,,
1,1790113747328,-5695,-6556,23847,6798930,1450194,1105666,0,0,0,453,436,191,399,413,394,236,118,203,286,177,455,0,,,,
2,1790113747328,402,-425,13204,2258979,-850324,254119,0,0,0,252,113,172,197,68,229,426,356,176,385,380,253,0,,,,
1,1790113747344,-5886,-7604,28183,7374365,1795943,1522276,0,0,0,432,380,176,368,365,356,273,128,198,258,152,425,0,,,,
2,1790113747344,-167,1478,12060,1599245,-719599,129503,0,0,0,264,104,195,216,68,232,450,359,180,437,423,261,0,,,,
1,1790113747360,-5537,-5331,30418,7930252,2041511,1788613,0,0,0,383,276,180,317,281,344,305,131,207,224,125,392,0,,,,
2,1790113747360,248,1186,11428,940732,-570548,-25656,0,0,0,277,115,223,216,83,235,486,374,185,441,439,261,0,,,,
1,1790113747376,-8714,-1746,27623,8390844,2041511,1947438,0,0,0,240,255,217,268,233,318,314,131,197,192,115,292,0,,,,
2,1790113747376,483,670,10739,507018,-387288,-34208,0,0,0,277,108,226,216,77,243,500,353,193,455,431,279,0,,,,
1,1790113747392,-9820,1823,20387,8191702,1273043,2095267,0,0,0,236,234,230,293,227,351,301,116,206,189,104,296,0,,,,
2,1790113747392,478,871,10203,335975,-222354,1221,0,0,0,284,113,232,212,78,249,496,339,194,463,430,286,0,,,,
1,1790113747408,-5398,2345,15233,7029837,604756,1819156,0,0,0,241,228,202,281,221,338,324,126,208,193,104,280,0,,,,
2,1790113747408,473,1234,10112,282219,-129503,-20769,0,0,0,290,113,231,225,79,243,523,339,188,460,411,276,0,,,,
1,1790113747424,-1301,3938,11835,4734205,822224,803898,0,0,0,247,218,187,284,211,324,303,114,181,195,101,267,0,,,,
2,1790113747424,483,1330,10102,257785,-62308,-48869,0,0,0,292,111,283,246,85,253,523,346,193,454,397,308,0,,,,
1,1790113747440,-2110,6039,10102,994488,1356120,-668286,0,0,0,262,212,167,305,207,308,303,115,170,198,101,260,0,,,,
2,1790113747440,540,1258,10074,268780,-10995,-64751,0,0,0,302,111,271,246,84,244,532,346,202,434,371,295,0,,,,
1,1790113747456,-4766,5326,9715,-1955990,1155757,-1512502,0,0,0,265,203,171,307,203,318,320,120,189,195,97,271,0,,,,
2,1790113747456,607,1158,10035,279776,12217,-70860,0,0,0,297,109,270,245,85,249,513,328,225,419,360,294,0,,,,
1,1790113747472,-5417,3455,9456,-3044552,365297,-1459967,0,0,0,249,193,180,301,198,325,302,110,184,194,96,278,0,,,,
2,1790113747472,650,1124,10031,270002,20769,-79412,0,0,0,303,112,282,252,95,258,515,326,222,414,344,302,0,,,,
1,1790113747488,-3445,3579,8437,-3312111,-52534,-1098335,0,0,0,240,184,179,300,192,323,283,97,170,198,98,281,0,,,,
2,1790113747488,655,1129,10040,252898,20769,-83077,0,0,0,301,111,294,253,99,278,529,308,226,397,323,312,0,,,,
1,1790113747504,-1966,4556,7499,-3866776,69638,-844215,0,0,0,244,184,175,306,198,325,305,102,175,204,99,282,0,,,,
2,1790113747504,660,1134,10050,249233,21991,-84299,0,0,0,300,111,303,242,108,292,523,271,244,371,292,327,0,,,,
1,1790113747520,-2522,4871,7427,-4678005,324980,-739146,0,0,0,243,187,172,299,199,322,338,119,192,204,99,282,0,,,,
2,1790113747520,650,1100,10064,262672,25656,-87964,0,0,0,311,116,327,233,122,293,505,241,243,349,251,342,0,,,,
1,1790113747536,-3665,4422,7863,-5464800,152716,-587652,0,0,0,239,184,169,279,183,310,350,129,201,202,99,278,0,,,,
2,1790113747536,641,1043,10054,280998,40317,-96516,0,0,0,319,117,354,235,116,301,501,222,233,322,215,345,0,,,,
1,1790113747552,-3689,3991,8289,-6019466,-168598,-450818,0,0,0,241,185,168,280,183,308,347,130,197,204,102,270,0,,,,
2,1790113747552,641,990,10054,307876,70860,-108734,0,0,0,334,125,348,241,111,309,490,225,248,286,203,347,0,,,,
1,1790113747568,-2957,3426,8848,-6415306,-360410,-397062,0,0,0,243,186,163,282,182,306,325,119,185,202,102,268,0,,,,
2,1790113747568,660,961,10083,353080,107512,-118507,0,0,0,340,134,349,239,130,327,479,250,279,250,225,367,0,,,,
1,1790113747584,-2464,2684,9605,-6601009,-313984,-466701,0,0,0,248,191,167,286,180,308,248,79,138,205,104,270,0,,,,
2,1790113747584,698,909,10131,421497,152716,-127059,0,0,0,352,158,349,251,160,320,487,248,257,234,191,367,0,,,,
1,1790113747600,-2871,2134,10457,-6657209,-343306,-591317,0,0,0,247,192,166,292,182,309,348,122,193,210,101,271,0,,,,
2,1790113747600,756,818,10169,496022,194255,-130725,0,0,0,375,224,383,266,184,307,467,199,234,253,165,383,0,,,,
1,1790113747616,-3914,1684,11639,-6649878,-797790,-693942,0,0,0,247,195,166,292,181,310,342,119,193,210,98,271,0,,,,
2,1790113747616,842,708,10193,586430,230907,-131946,0,0,0,368,162,389,259,187,335,449,179,241,247,150,407,0,,,,
1,1790113747632,-3890,1057,13208,-6572909,-1386664,-733038,0,0,0,242,200,168,294,187,311,340,117,189,210,101,280,0,,,,
2,1790113747632,856,598,10189,667064,263893,-133168,0,0,0,383,167,328,288,194,308,458,162,260,263,156,441,0,,,,
1,1790113747648,-3225,693,14759,-6465397,-1621236,-686612,0,0,0,241,193,169,292,186,315,342,120,189,208,102,272,0,,,,
2,1790113747648,784,497,10160,697608,290771,-117286,0,0,0,420,193,315,264,222,322,434,165,266,238,143,454,0,,,,
1,1790113747664,-3129,526,16491,-6443406,-1718974,-544891,0,0,0,244,192,166,298,187,316,346,118,188,211,104,273,0,,,,
2,1790113747664,871,382,10145,707381,329867,-81855,0,0,0,412,190,310,278,216,320,424,147,245,229,128,463,0,,,,
1,1790113747680,-3115,162,18592,-6477614,-1830152,-315206,0,0,0,249,192,176,307,190,323,352,122,197,209,101,275,0,,,,
2,1790113747680,1086,258,10155,726929,357967,-74525,0,0,0,423,201,325,286,238,335,416,134,265,228,118,486,0,,,,
1,1790113747696,-2239,-1134,21311,-6497162,-1943773,-208915,0,0,0,246,195,191,308,191,336,348,119,206,206,100,281,0,,,,
2,1790113747696,1225,143,10193,742812,361632,-101403,0,0,0,433,209,278,321,260,351,412,140,282,234,119,519,0,,,,
1,1790113747712,-1057,-4178,24541,-6506936,-2090380,-443488,0,0,0,238,204,194,301,186,335,335,112,199,207,101,282,0,,,,
2,1790113747712,1277,28,10246,770911,350636,-128281,0,0,0,449,231,257,347,260,353,403,140,279,221,107,529,0,,,,
1,1790113747728,43,-10174,27092,-6456845,-2511877,-912632,0,0,0,229,208,189,290,188,328,340,116,203,205,102,281,0,,,,
2,1790113747728,1277,-57,10452,847880,349414,-144164,0,0,0,456,223,223,358,264,356,400,144,272,218,103,534,0,,,,
1,1790113747744,2622,-17793,28059,-6310237,-3025004,-1111774,0,0,0,227,205,183,284,191,325,357,125,212,202,100,278,0,,,,
2,1790113747744,1344,-134,10768,982271,371406,-158824,0,0,0,462,217,176,375,282,364,395,147,270,233,110,561,0,,,,
1,1790113747760,7408,-25814,26484,-5896071,-2981022,-988379,0,0,0,231,204,181,283,188,323,365,129,213,202,98,276,0,,,,
2,1790113747760,1292,-287,10868,1202182,406836,-175929,0,0,0,479,264,148,379,314,373,383,154,271,237,124,597,0,,,,
1,1790113747776,9944,-32084,21770,-4847826,-1606575,-711047,0,0,0,229,207,189,283,189,327,364,129,218,204,102,279,0,,,,
2,1790113747776,1545,-454,11194,1385442,400727,-177150,0,0,0,502,275,140,379,322,395,362,161,267,226,121,616,0,,,,
1,1790113747792,6097,-35223,16769,-3464827,97738,-244346,0,0,0,225,212,191,288,194,334,364,132,222,204,103,281,0,,,,
2,1790113747792,2077,-650,11935,1645670,344527,-217468,0,0,0,523,254,141,386,298,414,337,153,253,223,111,626,0,,,,
1,1790113747808,-492,-35486,13385,-2043955,717155,590095,0,0,0,224,225,189,285,201,334,365,139,225,204,108,285,0,,,,
2,1790113747808,2321,-799,12715,2001194,244346,-311541,0,0,0,540,280,146,381,283,409,313,140,237,234,114,642,0,,,,
1,1790113747824,-157,-34529,11883,-707381,113620,1352455,0,0,0,225,223,190,293,201,334,351,132,219,210,109,279,0,,,,
2,1790113747824,2110,-947,13251,2417804,184481,-389732,0,0,0,552,291,148,364,290,402,289,139,235,238,116,655,0,,,,
1,1790113747840,7767,-32227,13256,357967,-224798,1132544,0,0,0,213,207,183,299,207,329,345,144,210,261,159,270,0,,,,
2,1790113747840,2177,-1153,13864,2873510,190589,-443488,0,0,0,553,337,148,344,305,389,265,137,230,224,139,656,0,,,,
1,1790113747856,10610,-23847,17391,1676214,734260,257785,0,0,0,188,195,146,281,207,311,377,274,183,309,321,244,0,,,,
2,1790113747856,2383,-1239,14405,3332880,218689,-513126,0,0,0,555,326,158,317,359,374,254,142,225,209,138,650,0,,,,
1,1790113747872,2129,4077,19597,3396410,3268129,-729373,0,0,0,194,185,159,281,184,341,399,330,174,372,405,258,0,,,,
2,1790113747872,2230,-1239,14635,3764151,178372,-590095,0,0,0,549,369,143,366,395,384,233,129,225,212,122,639,0,,,,
1,1790113747888,-2392,22014,16956,4541172,4630358,-1115439,0,0,0,220,188,170,309,185,353,433,418,193,429,427,255,0,,,,
2,1790113747888,1689,-1306,14979,4277278,47647,-637743,0,0,0,531,382,153,342,378,411,201,120,245,205,123,633,0,,,,
1,1790113747904,2737,9160,18324,5038416,2764776,-1238834,0,0,0,218,177,174,310,184,353,452,451,211,455,453,261,0,,,,
2,1790113747904,2005,-1684,16042,4913799,-144164,-610865,0,0,0,470,352,134,356,427,436,181,123,245,178,110,565,0,,,,
1,1790113747920,6728,-6360,20153,4095240,2443,-886976,0,0,0,218,175,177,313,179,357,465,465,236,461,441,265,0,,,,
2,1790113747920,3723,-2751,17023,5639507,-340862,-651182,0,0,0,444,351,121,368,429,428,161,109,247,184,98,526,0,,,,
1,1790113747936,3120,-2325,14960,2593733,-632856,-52534,0,0,0,230,171,184,319,172,354,467,467,234,467,447,279,0,,,,
2,1790113747936,4809,-4848,19028,6234490,-442266,-806342,0,0,0,421,291,122,369,399,397,163,115,222,160,89,484,0,,,,
1,1790113747952,-760,3407,9696,1938886,-515570,404392,0,0,0,244,165,216,319,164,354,476,468,233,482,452,303,0,,,,
2,1790113747952,4580,-7642,23493,6586349,-373849,-944397,0,0,0,397,249,140,302,266,322,160,101,201,154,68,440,0,,,,
1,1790113747968,-947,1981,10126,1901012,-488692,326202,0,0,0,261,179,249,317,167,362,486,472,245,494,462,328,0,,,,
2,1790113747968,3469,-8073,27729,6903998,-323758,-1112996,0,0,0,335,195,129,231,171,267,163,97,167,138,57,357,0,,,,
1,1790113747984,-770,-186,11581,1469741,-419053,256563,0,0,0,287,204,264,327,198,362,482,468,240,491,465,347,0,,,,
2,1790113747984,3737,-4359,29212,7199657,-641408,-1274264,0,0,0,245,121,109,191,112,217,168,96,139,115,58,230,0,,,,
1,1790113748000,-842,-612,11859,745255,-216246,172263,0,0,0,318,219,279,339,215,356,486,462,231,493,440,371,0,,,,
2,1790113748000,6972,1301,27240,7374365,-853989,-1450194,0,0,0,183,84,108,167,82,188,171,97,132,96,51,154,0,,,,
1,1790113748016,-804,382,10681,361632,-95294,65973,0,0,0,339,222,318,333,196,368,502,457,253,504,415,404,0,,,,
2,1790113748016,10686,7441,19234,6950424,-410501,-1756848,0,0,0,168,82,114,160,74,184,173,98,135,92,47,145,0,,,,
1,1790113748032,-674,837,10002,266337,-62308,7330,0,0,0,349,227,376,331,216,399,488,431,287,499,397,433,0,,,,
2,1790113748032,9978,10026,11576,5051855,614530,-2125811,0,0,0,166,78,120,163,71,198,180,103,148,97,53,152,0,,,,
1,1790113748048,-559,756,10074,295658,-57421,7330,0,0,0,352,258,368,357,247,410,469,397,267,493,363,450,0,,,,
2,1790113748048,6484,12031,9083,1513724,1413542,-2127032,0,0,0,165,81,123,160,73,206,182,109,156,105,58,157,0,,,,
1,1790113748064,-483,698,10241,305432,-62308,18325,0,0,0,369,258,354,372,240,417,474,372,269,496,326,465,0,,,,
2,1790113748064,3306,10720,10988,-1866804,917519,-1533271,0,0,0,170,86,111,157,68,187,174,103,138,109,59,151,0,,,,
1,1790113748080,-464,698,10251,321315,-97738,19547,0,0,0,378,301,348,358,307,421,472,365,298,489,312,479,0,,,,
2,1790113748080,2718,7781,11012,-3414736,-29321,-1023810,0,0,0,163,77,108,159,65,193,172,97,129,100,43,141,0,,,,
1,1790113748096,-469,636,10150,340862,-147829,10995,0,0,0,393,300,369,387,318,432,472,333,305,465,302,489,0,,,,
2,1790113748096,3771,5886,8590,-3400075,-715934,-767246,0,0,0,163,81,107,162,68,199,165,85,123,94,43,140,0,,,,
1,1790113748112,-483,579,10131,349414,-191811,9773,0,0,0,410,306,322,394,327,414,478,324,301,465,295,497,0,,,,
2,1790113748112,4048,6365,6901,-3448945,-675616,-612086,0,0,0,162,78,105,157,65,196,178,87,136,99,49,146,0,,,,
1,1790113748128,-497,540,10184,353080,-244346,14660,0,0,0,422,322,318,385,335,426,486,290,292,435,263,506,0,,,,
2,1790113748128,3426,6570,7619,-4299269,-397062,-331088,0,0,0,144,63,100,156,66,200,165,89,127,90,45,135,0,,,,
1,1790113748144,-583,492,10232,375071,-301767,25656,0,0,0,434,316,336,389,338,438,488,272,315,413,240,507,0,,,,
2,1790113748144,3239,5589,8600,-5051855,-226020,-84299,0,0,0,171,86,116,160,70,200,178,107,143,106,66,160,0,,,,
1,1790113748160,-703,435,10222,412944,-332310,42760,0,0,0,450,314,341,398,337,451,475,244,318,408,236,503,0,,,,
2,1790113748160,3632,4637,8734,-5298645,31764,29321,0,0,0,168,81,116,160,75,208,181,103,131,100,53,148,0,,,,
1,1790113748176,-751,335,10189,442266,-343306,54977,0,0,0,456,315,328,411,343,452,470,219,323,404,238,504,0,,,,
2,1790113748176,3838,4316,8911,-5420818,481361,109955,0,0,0,169,73,117,154,69,198,185,93,150,114,62,162,0,,,,
1,1790113748192,-794,248,10174,461814,-349414,57421,0,0,0,466,318,308,424,355,449,460,173,296,397,233,512,0,,,,
2,1790113748192,3369,4335,9734,-5589416,961501,241902,0,0,0,166,75,114,157,72,195,183,88,145,112,53,164,0,,,,
1,1790113748208,-899,196,10208,485026,-344527,61086,0,0,0,473,326,286,432,358,452,462,163,291,384,219,518,0,,,,
2,1790113748208,2665,4005,11160,-5820323,1185078,491135,0,0,0,166,79,118,158,69,201,183,91,147,103,55,167,0,,,,
1,1790113748224,-1009,124,10246,504574,-333532,72082,0,0,0,472,340,275,439,348,450,469,174,298,374,207,516,0,,,,
2,1790113748224,2766,3326,12529,-5991366,1254717,759916,0,0,0,172,83,125,159,71,202,183,106,151,100,65,164,0,,,,
1,1790113748240,-1191,14,10327,526565,-309097,103847,0,0,0,477,354,276,449,351,449,447,141,262,379,210,512,0,,,,
2,1790113748240,3474,2761,13811,-6062226,1473406,889419,0,0,0,172,87,124,155,71,199,186,109,154,108,57,164,0,,,,
1,1790113748256,-1378,-52,10600,585208,-249233,164933,0,0,0,485,359,255,444,379,476,446,160,286,381,218,514,0,,,,
2,1790113748256,3661,2593,15596,-6183177,1824043,950506,0,0,0,166,90,116,158,75,205,186,106,151,111,48,162,0,,,,
1,1790113748272,-1392,-90,10911,708603,-100181,244346,0,0,0,498,349,215,456,403,464,482,157,290,348,178,536,0,,,,
2,1790113748272,3426,2455,17822,-6407976,2050063,972497,0,0,0,163,87,114,162,79,212,183,106,150,105,45,158,0,,,,
1,1790113748288,-1306,-191,10902,849102,62308,306654,0,0,0,483,361,178,455,402,467,482,167,301,345,192,542,0,,,,
2,1790113748288,3374,1397,20445,-6577796,2075720,981049,0,0,0,168,87,119,162,75,212,185,105,150,100,44,152,0,,,,
1,1790113748304,-1158,-382,10768,981049,156381,345749,0,0,0,491,329,180,461,368,472,466,143,286,360,184,553,0,,,,
2,1790113748304,3464,-507,22928,-6510601,2119702,1031140,0,0,0,170,87,120,161,67,210,187,103,148,95,44,148,0,,,,
1,1790113748320,-1009,-569,10806,1097113,184481,370184,0,0,0,505,335,209,467,391,479,394,122,255,371,190,545,0,,,,
2,1790113748320,2857,-3570,25316,-6298020,2387261,1172861,0,0,0,163,79,120,156,63,203,186,102,155,100,46,159,0,,,,
1,1790113748336,-928,-741,10768,1210734,179594,378736,0,0,0,511,387,186,473,404,477,427,152,276,363,202,544,0,,,,
2,1790113748336,28,-8571,28207,-6268699,2663372,1379333,0,0,0,162,81,125,159,66,211,185,101,154,107,61,169,0,,,,
1,1790113748352,-784,-918,10557,1303586,177150,378736,0,0,0,527,379,216,477,405,481,341,113,225,369,205,555,0,,,,
2,1790113748352,-4623,-14735,29624,-6348111,2337170,1579697,0,0,0,163,79,123,169,76,221,180,104,151,103,53,160,0,,,,
1,1790113748368,-971,-1052,10825,1386664,194255,373849,0,0,0,533,377,219,487,400,485,367,131,276,354,189,568,0,,,,
2,1790113748368,-6901,-21229,27872,-5810550,1149648,1786169,0,0,0,158,82,119,168,69,214,185,99,150,94,50,163,0,,,,
1,1790113748384,-1598,-1186,11868,1550375,250454,421497,0,0,0,542,369,221,488,390,484,369,132,290,351,182,585,0,,,,
2,1790113748384,-3077,-27489,23364,-4807509,-217468,1772730,0,0,0,155,75,118,166,69,214,187,93,145,104,60,160,0,,,,
1,1790113748400,-1995,-1340,13146,1848478,327423,548556,0,0,0,543,356,250,480,368,477,371,134,287,370,183,584,0,,,,
2,1790113748400,4900,-35903,16970,-3689626,-596204,799011,0,0,0,155,86,139,168,69,230,202,111,173,122,59,176,0,,,,
1,1790113748416,-1158,-1488,14137,2313957,357967,671951,0,0,0,541,359,269,464,358,470,339,118,259,380,189,568,0,,,,
2,1790113748416,4331,-43345,13036,-2406809,312763,-807563,0,0,0,160,87,132,169,76,220,188,88,154,90,44,177,0,,,,
1,1790113748432,-421,-1555,14874,2800206,340862,682947,0,0,0,541,371,259,454,372,466,307,102,236,369,190,563,0,,,,
2,1790113748432,-9906,-44220,14304,-691499,1244943,-1794722,0,0,0,152,94,114,171,87,205,211,133,138,116,92,168,0,,,,
1,1790113748448,-641,-1598,15563,3342654,318871,654847,0,0,0,538,381,244,455,387,464,302,108,241,359,189,564,0,,,,
2,1790113748448,-16180,-36137,19344,1186300,-256563,-739146,0,0,0,146,95,97,175,96,199,278,262,138,182,266,153,0,,,,
1,1790113748464,-1005,-1502,16338,4014606,338419,707381,0,0,0,524,389,233,459,391,465,274,105,239,351,188,543,0,,,,
2,1790113748464,-4958,-12725,22818,3589444,-2597398,543670,0,0,0,153,95,94,183,94,216,330,335,154,245,345,172,0,,,,
1,1790113748480,-904,-1373,17697,4709770,403171,774577,0,0,0,498,376,223,478,384,473,289,112,257,335,167,505,0,,,,
2,1790113748480,5474,14252,16367,5314527,-4269948,498466,0,0,0,162,98,102,195,99,231,353,368,170,278,394,202,0,,,,
1,1790113748496,-2651,-1584,20172,5666385,558330,912632,0,0,0,461,374,213,453,376,458,261,101,222,301,158,473,0,,,,
2,1790113748496,4450,12912,14587,5995031,-4447098,467922,0,0,0,174,100,109,205,98,241,364,396,178,308,423,220,0,,,,
1,1790113748512,-4374,-1804,23761,6775717,812450,1222952,0,0,0,427,335,185,398,343,414,268,109,206,269,151,449,0,,,,
2,1790113748512,-2943,-4053,18602,5365840,-2454456,1028697,0,0,0,186,105,115,205,98,247,371,439,174,343,449,230,0,,,,
1,1790113748528,-2971,-1765,27173,7624819,1163087,1418429,0,0,0,397,294,178,348,292,382,279,106,194,245,124,423,0,,,,
2,1790113748528,-4828,-3819,17319,4186870,-774577,962723,0,0,0,198,114,121,211,99,246,385,466,177,382,486,247,0,,,,
1,1790113748544,-1497,-1588,29442,8354193,1527163,1400103,0,0,0,307,262,191,297,257,352,304,116,198,205,110,396,0,,,,
2,1790113748544,-2373,746,12983,3392745,-157603,216246,0,0,0,219,114,124,221,94,248,423,462,191,408,511,282,0,,,,
1,1790113748560,-3263,-1526,29418,8891754,1966986,1253495,0,0,0,257,214,201,291,217,327,259,93,161,201,103,281,0,,,,
2,1790113748560,1100,1397,12160,2745228,-232128,-300545,0,0,0,253,109,130,230,103,261,466,461,195,423,513,328,0,,,,
1,1790113748576,-7298,1143,23957,8357858,2361605,1334129,0,0,0,256,198,203,291,210,325,305,116,186,202,103,271,0,,,,
2,1790113748576,1454,-1320,13433,1390329,-329867,-128281,0,0,0,297,117,142,256,118,276,488,454,198,457,495,356,0,,,,
1,1790113748592,-8226,3345,17157,6598566,2333505,1458746,0,0,0,260,201,189,289,207,325,327,130,201,198,104,270,0,,,,
2,1790113748592,244,-1531,12151,291993,-237015,62308,0,0,0,327,123,155,271,129,290,511,451,203,478,495,365,0,,,,
1,1790113748608,-5719,4905,13749,3984063,1843591,1270599,0,0,0,260,201,179,289,207,320,315,135,202,197,104,261,0,,,,
2,1790113748608,-9,-57,10303,135612,-58643,37873,0,0,0,341,139,165,277,151,296,514,445,203,464,487,391,0,,,,
1,1790113748624,-3886,6417,11399,867428,1384220,835663,0,0,0,267,196,178,300,202,321,312,130,193,197,102,256,0,,,,
2,1790113748624,421,502,9882,229685,3665,-14660,0,0,0,358,143,168,279,156,295,501,417,206,436,445,442,0,,,,
1,1790113748640,-3866,6125,9729,-1740965,972497,339641,0,0,0,270,192,176,300,191,323,322,121,192,202,101,258,0,,,,
2,1790113748640,646,248,10284,262672,-37873,-17104,0,0,0,352,143,183,286,174,295,488,395,218,443,429,418,0,,,,
1,1790113748656,-3694,4795,8159,-2703689,560774,112399,0,0,0,263,188,171,290,185,319,324,119,197,206,104,260,0,,,,
2,1790113748656,454,162,10303,221133,-53756,-2443,0,0,0,356,147,173,278,178,295,508,392,231,430,414,441,0,,,,
1,1790113748672,-2967,4364,6853,-3231477,344527,-8552,0,0,0,259,180,172,289,185,321,325,123,195,204,105,259,0,,,,
2,1790113748672,358,205,10179,221133,-39095,-4886,0,0,0,368,156,200,295,183,317,491,344,232,412,360,434,0,,,,
1,1790113748688,-2852,4948,6298,-3816686,370184,-84299,0,0,0,256,172,181,289,181,330,337,125,201,202,102,260,0,,,,
2,1790113748688,406,220,10117,243124,-24434,-18325,0,0,0,380,153,171,296,190,308,485,343,222,375,360,440,0,,,,
1,1790113748704,-4115,5039,6666,-4734205,106290,-128281,0,0,0,255,175,181,296,184,334,338,126,196,206,109,260,0,,,,
2,1790113748704,430,157,10122,246789,-19547,-19547,0,0,0,369,165,172,293,190,311,476,301,229,351,303,461,0,,,,
1,1790113748720,-4833,4455,7398,-5453804,-470366,-123394,0,0,0,266,186,182,284,181,318,331,119,188,207,110,259,0,,,,
2,1790113748720,425,134,10141,245567,-12217,-17104,0,0,0,364,175,164,290,242,312,473,275,238,326,265,459,0,,,,
1,1790113748736,-4091,3699,8413,-5964488,-1042136,-164933,0,0,0,259,187,175,291,190,326,339,131,196,208,111,261,0,,,,
2,1790113748736,454,114,10141,254119,-1221,-18325,0,0,0,378,178,166,322,263,334,472,275,273,297,240,464,0,,,,
1,1790113748752,-3048,3048,9485,-6356663,-1241278,-362853,0,0,0,242,193,176,289,191,324,336,130,193,211,117,258,0,,,,
2,1790113748752,507,67,10098,261450,0,-24434,0,0,0,386,191,156,314,268,336,469,254,285,284,218,479,0,,,,
1,1790113748768,-3206,2483,10251,-6571688,-1187522,-638965,0,0,0,241,195,177,288,194,324,340,133,194,209,118,258,0,,,,
2,1790113748768,545,0,10026,260228,-8552,-30543,0,0,0,386,191,142,303,274,330,471,238,284,289,210,496,0,,,,
1,1790113748784,-3852,1799,11136,-6685309,-1358564,-847880,0,0,0,239,198,184,288,199,328,341,138,199,206,120,259,0,,,,
2,1790113748784,512,-23,10002,243124,-14660,-29321,0,0,0,394,185,133,306,274,332,460,227,284,278,203,499,0,,,,
1,1790113748800,-3953,1129,12285,-6655987,-1781283,-880867,0,0,0,239,198,186,289,201,332,330,130,194,206,119,261,0,,,,
2,1790113748800,483,-28,10035,227241,-8552,-25656,0,0,0,400,190,128,309,280,342,442,221,276,263,191,502,0,,,,
1,1790113748816,-3316,713,13764,-6561914,-2067167,-717155,0,0,0,244,200,189,304,205,337,309,120,182,209,122,262,0,,,,
2,1790113748816,521,-62,10078,227241,13439,-29321,0,0,0,400,199,130,319,292,352,439,220,264,264,181,515,0,,,,
1,1790113748832,-2842,555,15381,-6480058,-2205223,-452040,0,0,0,244,203,190,308,209,340,238,90,139,216,127,264,0,,,,
2,1790113748832,593,-114,10117,234572,51312,-46425,0,0,0,410,197,130,314,288,346,443,185,262,255,168,517,0,,,,
1,1790113748848,-2211,813,17717,-6425080,-2333505,-142942,0,0,0,244,206,195,307,211,341,235,87,137,216,127,264,0,,,,
2,1790113748848,717,-162,10126,249233,100181,-79412,0,0,0,414,197,126,317,293,355,446,176,263,254,152,528,0,,,,
1,1790113748864,-1268,1009,20598,-6438519,-2419026,25656,0,0,0,245,208,196,308,214,341,232,84,133,217,126,264,0,,,,
2,1790113748864,847,-220,10174,270002,150272,-122173,0,0,0,414,212,124,322,298,388,424,176,262,234,155,538,0,,,,
1,1790113748880,38,-4,24546,-6576575,-2480112,-117286,0,0,0,246,207,194,312,216,342,215,75,122,219,124,265,0,,,,
2,1790113748880,1115,-277,10327,322536,201585,-193033,0,0,0,420,212,126,323,293,381,426,173,271,234,144,555,0,,,,
1,1790113748896,1450,-4230,27867,-6660874,-2827084,-691499,0,0,0,248,206,195,316,214,344,188,64,106,219,123,266,0,,,,
2,1790113748896,1229,-339,10504,419053,245567,-296880,0,0,0,443,212,135,327,301,394,409,179,282,218,129,570,0,,,,
1,1790113748912,3943,-10748,30447,-6585127,-3308446,-1268156,0,0,0,245,205,200,314,212,345,119,33,65,225,125,269,0,,,,
2,1790113748912,866,-387,10725,576656,265115,-378736,0,0,0,456,226,132,380,306,395,386,151,265,250,118,592,0,,,,
1,1790113748928,8719,-19133,31016,-6324898,-3362202,-1604132,0,0,0,235,204,202,299,208,348,274,96,166,209,119,267,0,,,,
2,1790113748928,397,-435,10844,786794,226020,-365297,0,0,0,457,219,117,365,338,415,373,157,277,241,146,621,0,,,,
1,1790113748944,11993,-27212,27044,-5711589,-2006081,-1601688,0,0,0,231,203,205,294,207,349,289,105,182,208,116,272,0,,,,
2,1790113748944,497,-526,10930,967610,172263,-304210,0,0,0,485,223,121,357,339,402,371,185,275,247,148,637,0,,,,
1,1790113748960,7518,-33515,21196,-4594928,-178372,-1382998,0,0,0,234,205,209,298,206,353,296,106,181,211,118,271,0,,,,
2,1790113748960,899,-631,11371,1161865,134390,-272445,0,0,0,511,232,128,362,332,405,363,167,262,220,120,655,0,,,,
1,1790113748976,-2048,-38028,15616,-2840523,557109,-378736,0,0,0,227,195,226,298,194,363,238,75,156,207,108,276,0,,,,
2,1790113748976,1387,-737,12261,1450194,109955,-302989,0,0,0,520,244,144,357,325,402,351,154,270,219,109,661,0,,,,
1,1790113748992,-1761,-39971,12859,-1106887,-230907,1167974,0,0,0,218,191,185,289,191,335,359,164,198,262,174,253,0,,,,
2,1790113748992,1244,-832,13055,1824043,102625,-364075,0,0,0,532,246,153,337,296,402,324,147,267,224,121,658,0,,,,
1,1790113749008,12361,-37583,17793,670730,-210137,1485624,0,0,0,200,189,155,281,207,320,385,335,199,304,298,226,0,,,,
2,1790113749008,650,-909,13898,2332283,152716,-355523,0,0,0,538,237,150,349,263,395,301,146,270,231,125,672,0,,,,
1,1790113749024,12725,-21751,20320,3565009,1747074,775798,0,0,0,223,181,149,319,216,333,392,350,176,361,333,237,0,,,,
2,1790113749024,760,-1024,14639,2822197,217468,-311541,0,0,0,554,244,150,344,262,378,279,158,262,229,121,687,0,,,,
1,1790113749040,569,4958,18243,6464175,3398854,278554,0,0,0,244,187,152,335,222,343,386,349,168,394,372,257,0,,,,
2,1790113749040,827,-1091,15376,3342654,256563,-285884,0,0,0,557,292,156,313,269,371,253,158,243,211,120,670,0,,,,
1,1790113749056,-3110,5747,19554,6219829,2433687,157603,0,0,0,242,181,167,329,209,355,422,391,190,416,386,267,0,,,,
2,1790113749056,545,-1072,16190,3997502,179594,-245567,0,0,0,518,347,151,304,268,367,223,127,234,193,111,640,0,,,,
1,1790113749072,-62,-1612,20229,4434881,976162,-153938,0,0,0,246,176,170,330,201,365,445,411,209,433,397,277,0,,,,
2,1790113749072,760,-1091,16640,4588819,-37873,-195476,0,0,0,481,359,143,303,308,352,183,100,220,187,96,616,0,,,,
1,1790113749088,2483,-1459,14821,2797762,28099,-130725,0,0,0,254,175,169,328,190,364,446,413,218,448,403,289,0,,,,
2,1790113749088,1880,-1584,17741,5356066,-338419,-199142,0,0,0,462,337,145,336,355,342,162,95,219,178,97,571,0,,,,
1,1790113749104,1794,1722,9547,2362826,-471587,338419,0,0,0,259,176,193,319,175,356,454,422,232,460,398,311,0,,,,
2,1790113749104,4560,-3096,19597,6173404,-561996,-361632,0,0,0,440,315,141,394,339,318,165,114,211,184,103,533,0,,,,
1,1790113749120,-713,2196,9069,2521651,-895528,806342,0,0,0,280,195,228,327,188,361,462,419,247,470,406,347,0,,,,
2,1790113749120,7097,-5455,22560,6935763,-364075,-764803,0,0,0,403,256,139,267,262,318,159,111,187,156,71,464,0,,,,
1,1790113749136,-2354,-765,12385,1897347,-707381,636521,0,0,0,311,219,244,337,206,366,466,412,250,479,413,382,0,,,,
2,1790113749136,5642,-5991,26144,7353595,-196698,-1270599,0,0,0,342,212,142,241,206,282,157,93,164,147,70,389,0,,,,
1,1790113749152,-2263,-2110,13074,869872,-174707,263893,0,0,0,354,236,253,340,221,376,468,402,258,487,417,421,0,,,,
2,1790113749152,3153,-3886,28389,7402464,-836885,-1593136,0,0,0,264,121,127,193,117,232,174,106,156,134,69,274,0,,,,
