sole_id,timestamp,accel_x,accel_y,accel_z,gyro_x,gyro_y,gyro_z,magn_x,magn_y,magn_z,pressure_01,pressure_02,pressure_03,pressure_04,pressure_05,pressure_06,pressure_07,pressure_08,pressure_09,pressure_10,pressure_11,pressure_12,corrupt,concrete,transition,grass,asphalt,brick
1,1789759366672,-6929,16870,14893,2322509,1120326,-289550,0,0,0,201,202,139,321,217,310,334,189,153,257,247,186,0,,,,,
1,1789759366688,-5982,8135,10270,2864957,1587027,-546113,0,0,0,203,206,131,318,228,302,381,261,171,271,291,179,0,,,,,
1,1789759366704,-3627,-3101,10332,3334102,1172861,-1242499,0,0,0,207,207,137,319,233,307,377,274,165,284,311,176,0,,,,,
1,1789759366720,-368,-2689,12983,3222925,164933,-1958433,0,0,0,203,211,143,317,246,309,368,316,175,291,353,174,0,,,,,
1,1789759366736,2837,1871,12854,2844188,103847,-1491732,0,0,0,206,208,142,323,240,307,379,331,176,335,379,172,0,,,,,
1,1789759366752,3024,1708,13309,2726902,371406,-478918,0,0,0,217,203,153,329,218,307,410,345,180,384,382,171,0,,,,,
1,1789759366768,-205,-311,14395,2340835,439822,167377,0,0,0,220,206,178,319,227,309,440,396,197,396,403,170,0,,,,,
1,1789759366784,-2440,-875,13060,1364672,306654,167377,0,0,0,224,207,213,309,236,312,449,416,208,400,432,169,0,,,,,
1,1789759366800,-1569,114,10524,554665,167377,-112399,0,0,0,246,196,244,310,188,314,456,409,227,418,435,170,0,,,,,
1,1789759366816,-885,325,9925,223576,122173,-85521,0,0,0,267,195,250,308,196,310,456,410,228,443,440,171,0,,,,,
1,1789759366832,-1009,191,10169,128281,90408,3665,0,0,0,265,207,261,344,200,325,456,410,225,452,450,187,0,,,,,
1,1789759366848,-1186,224,10141,124616,57421,15882,0,0,0,273,243,297,346,245,341,408,302,165,453,447,218,0,,,,,
1,1789759366864,-1158,311,9997,135612,30543,3665,0,0,0,264,272,297,357,261,372,450,379,260,453,430,245,0,,,,,
1,1789759366880,-1105,315,10016,158824,10995,3665,0,0,0,280,308,325,374,303,389,433,339,233,451,418,254,0,,,,,
1,1789759366896,-1110,272,10098,178372,-7330,7330,0,0,0,292,290,362,391,272,414,441,329,255,444,375,277,0,,,,,
1,1789759366912,-1143,229,10141,185703,-40317,7330,0,0,0,314,333,399,396,302,424,436,288,248,444,351,300,0,,,,,
1,1789759366928,-1158,224,10122,193033,-65973,7330,0,0,0,324,358,375,407,324,434,455,280,273,439,329,330,0,,,,,
1,1789759366944,-1182,210,10117,206472,-87964,10995,0,0,0,336,359,339,420,334,451,462,279,296,428,302,368,0,,,,,
2,1789759366944,-4120,-3713,5723,-212581,-399505,-489913,0,0,0,150,113,94,167,109,189,185,130,145,89,67,102,0,,,,,
1,1789759366960,-1186,172,10155,215024,-107512,26878,0,0,0,352,358,332,433,342,465,453,257,296,398,267,416,0,,,,,
2,1789759366960,-4728,-3436,11538,-1606575,-1870469,-1979203,0,0,0,161,110,96,165,100,191,188,132,149,90,70,107,0,,,,,
1,1789759366976,-1139,138,10184,226020,-133168,39095,0,0,0,373,354,331,461,355,471,445,228,291,369,233,451,0,,,,,
2,1789759366976,1966,2756,10083,-4186870,-2284635,-1593136,0,0,0,161,119,103,170,107,196,194,142,157,90,77,114,0,,,,,
1,1789759366992,-1134,105,10217,262672,-160046,47647,0,0,0,397,344,317,489,373,481,452,209,302,360,208,459,0,,,,,
2,1789759366992,5862,5254,8035,-5628512,-1103222,-47647,0,0,0,146,105,100,167,98,196,191,136,164,92,71,116,0,,,,,
1,1789759367008,-1134,47,10260,339641,-177150,51312,0,0,0,412,340,305,481,375,494,473,201,331,339,181,472,0,,,,,
2,1789759367008,5704,3742,8624,-5769011,138055,1000597,0,0,0,141,99,99,167,95,200,186,134,165,94,70,118,0,,,,,
1,1789759367024,-1129,-14,10351,443488,-184481,50090,0,0,0,448,359,265,487,380,494,458,170,330,333,160,477,0,,,,,
2,1789759367024,5192,2455,10720,-5573534,452040,1058018,0,0,0,140,99,100,171,98,207,190,135,171,92,69,117,0,,,,,
1,1789759367040,-1215,-67,10600,563217,-194255,48869,0,0,0,443,375,248,499,396,501,442,151,354,347,156,468,0,,,,,
2,1789759367040,5407,2282,12610,-5718920,768468,1193630,0,0,0,143,98,105,170,92,201,185,127,162,86,69,114,0,,,,,
1,1789759367056,-1359,-114,10811,695164,-246789,67195,0,0,0,434,354,214,498,375,522,464,167,318,313,150,484,0,,,,,
2,1789759367056,5446,1588,14252,-6015800,1166752,1496619,0,0,0,145,93,106,179,101,218,192,141,182,96,71,122,0,,,,,
1,1789759367072,-1469,-210,10748,818559,-312763,111177,0,0,0,426,351,198,490,384,495,485,181,325,307,146,491,0,,,,,
2,1789759367072,5494,-617,15955,-5911953,1481959,1674992,0,0,0,148,92,103,185,101,225,191,128,173,96,72,129,0,,,,,
1,1789759367088,-1411,-344,10528,885754,-288328,146607,0,0,0,461,347,180,473,400,516,461,176,335,310,166,492,0,,,,,
2,1789759367088,5498,-2278,18229,-5494121,1761735,1682322,0,0,0,152,92,102,186,92,220,201,126,173,89,63,116,0,,,,,
1,1789759367104,-1277,-464,10394,912632,-235793,151494,0,0,0,445,392,162,482,432,508,446,185,312,330,187,493,0,x,,,,
2,1789759367104,5058,-2096,21129,-5340183,1827708,1787391,0,0,0,147,87,103,179,86,209,187,115,161,93,65,119,0,x,,,,
1,1789759367120,-1244,-612,10289,922406,-226020,130725,0,0,0,442,353,154,495,422,509,442,152,297,324,168,503,0,,,,,
2,1789759367120,4867,-2426,23503,-5583308,1733635,2163684,0,0,0,145,85,98,186,92,215,200,120,166,93,61,118,0,,,,,
1,1789759367136,-1292,-784,10179,926071,-252898,114842,0,0,0,462,352,180,503,411,497,448,144,288,329,167,508,0,,,,,
2,1789759367136,4838,-4924,24962,-6052452,1659109,2750115,0,0,0,145,89,98,185,89,216,205,123,174,91,62,118,0,,,,,
1,1789759367152,-1335,-933,10126,929736,-274889,109955,0,0,0,474,377,178,512,415,494,447,141,315,352,186,509,0,,,,,
2,1789759367152,4134,-8949,25508,-6178291,1600466,3054326,0,0,0,159,88,95,191,90,212,206,119,178,95,68,119,0,,,,,
1,1789759367168,-1392,-1067,10174,944397,-267558,105068,0,0,0,474,406,168,531,444,494,430,146,305,368,193,507,0,,,,,
2,1789759367168,3881,-12285,25273,-5953492,1280373,3000570,0,0,0,177,88,95,203,92,218,208,118,174,96,64,118,0,,,,,
1,1789759367184,-1521,-1201,10289,973719,-244346,108734,0,0,0,476,409,173,526,468,504,404,144,282,365,197,511,0,,,,,
2,1789759367184,5302,-15874,23249,-5419596,831998,2576629,0,0,0,196,89,92,216,92,225,220,122,176,102,61,120,0,,,,,
1,1789759367200,-1670,-1340,10380,1023810,-211359,133168,0,0,0,484,387,175,511,475,515,393,134,278,352,193,521,0,,,,,
2,1789759367200,7236,-21684,19578,-4747644,725707,1814269,0,0,0,211,93,92,224,93,230,223,123,181,109,62,123,0,,,,,
1,1789759367216,-1751,-1483,10418,1088561,-171042,172263,0,0,0,495,383,166,513,487,517,396,140,283,341,182,531,0,,,,,
2,1789759367216,6255,-29959,15046,-3836233,1205847,444709,0,0,0,184,98,97,213,98,232,220,122,182,106,67,130,0,,,,,
1,1789759367232,-1818,-1641,10591,1172861,-125838,216246,0,0,0,509,402,166,505,509,526,382,147,297,338,194,544,0,,,,,
2,1789759367232,-3622,-35596,12926,-2506990,1764178,-934623,0,0,0,146,102,102,196,101,231,222,122,187,99,70,139,0,,,,,
1,1789759367248,-1785,-1785,10930,1298699,-72082,260228,0,0,0,523,407,174,513,520,518,371,139,295,347,201,548,0,,,,,
2,1789759367248,-15180,-35974,12768,-932180,1214400,-1291369,0,0,0,156,112,106,202,120,232,228,140,187,103,82,135,0,,,,,
1,1789759367264,-1612,-1923,11409,1486845,-20769,288328,0,0,0,529,408,168,509,502,495,383,161,317,346,194,578,0,,,,,
2,1789759367264,-16415,-30715,12964,531452,-618195,-459370,0,0,0,171,117,91,215,152,225,256,197,187,125,136,128,0,,,,,
1,1789759367280,-1770,-2077,12002,1755626,1221,302989,0,0,0,529,433,185,523,509,510,313,130,260,355,199,553,0,,,,,
2,1789759367280,-3555,-15553,16625,2009746,-2006081,345749,0,0,0,203,84,96,216,93,220,283,234,185,184,214,152,0,,,,,
1,1789759367296,-2005,-2225,12596,2102598,7330,348193,0,0,0,523,424,213,519,530,500,345,137,256,357,204,528,0,,,,,
2,1789759367296,6365,7083,16013,3483153,-2338392,256563,0,0,0,127,82,109,187,80,235,302,268,198,213,238,177,0,,,,,
1,1789759367312,-1890,-2330,13017,2506990,-3665,416610,0,0,0,512,426,197,533,540,474,310,137,246,356,215,520,0,,,,,
2,1789759367312,5240,8365,11184,4431216,-3139847,-140499,0,0,0,178,102,104,235,111,253,371,348,193,232,298,181,0,,,,,
1,1789759367328,-1502,-2455,13529,2985909,-19547,439822,0,0,0,522,434,229,519,536,484,331,146,280,348,192,509,0,,,,,
2,1789759367328,1641,-1555,12122,4460537,-2883283,376292,0,0,0,172,102,102,223,109,263,332,333,212,215,335,172,0,,,,,
1,1789759367344,-1818,-2617,13859,3550348,-20769,455705,0,0,0,508,415,215,529,531,501,344,145,284,342,187,498,0,,,,,
2,1789759367344,-1028,-3172,15663,3995058,-1527163,1248608,0,0,0,187,116,118,239,125,284,358,425,212,222,423,194,0,,,,,
1,1789759367360,-2067,-2804,14003,4102570,-19547,530231,0,0,0,482,425,217,535,530,509,336,122,298,311,163,475,0,,,,,
2,1789759367360,-3431,502,16204,3506366,-712268,1062905,0,0,0,184,110,115,229,116,288,380,466,223,245,431,194,0,,,,,
1,1789759367376,-2215,-3335,14869,4734205,-68416,623082,0,0,0,454,397,221,524,488,514,346,102,310,317,143,453,0,,,,,
2,1789759367376,-2904,1459,15544,3105638,-598647,255341,0,0,0,186,106,112,236,107,273,441,490,216,280,442,197,0,,,,,
1,1789759367392,-2713,-4594,16802,5391496,-184481,717155,0,0,0,435,356,205,501,439,481,313,93,268,312,132,432,0,,,,,
2,1789759367392,86,315,14189,2371378,-654847,-150272,0,0,0,194,106,117,245,109,269,459,499,211,329,444,189,0,,,,,
1,1789759367408,-3105,-6317,20014,5944940,-312763,746477,0,0,0,422,322,182,480,401,442,259,83,199,294,130,418,0,,,,,
2,1789759367408,928,-28,12179,1428202,-526565,-12217,0,0,0,194,107,132,236,109,297,490,500,238,343,434,206,0,,,,,
1,1789759367424,-3603,-6671,22368,6343224,-379958,758694,0,0,0,401,288,155,458,369,412,271,94,189,270,124,403,0,,,,,
2,1789759367424,229,430,10485,659734,-322536,145385,0,0,0,206,116,143,238,108,277,502,507,228,347,430,198,0,,,,,
1,1789759367440,-3445,-5776,23383,6796486,-361632,897971,0,0,0,345,260,140,405,324,376,315,123,210,232,116,369,0,,,,,
2,1789759367440,0,636,10093,296880,-180816,95294,0,0,0,209,114,152,247,109,263,531,511,221,360,433,194,0,,,,,
1,1789759367456,-4527,-5063,23144,7299839,-284663,1126435,0,0,0,266,239,152,332,260,334,321,132,189,204,119,291,0,,,,,
2,1789759367456,138,650,10117,146607,-98960,32986,0,0,0,212,108,169,247,109,266,534,512,217,372,430,190,0,,,,,
1,1789759367472,-7619,-2670,20133,7319387,-384845,1439198,0,0,0,229,218,158,299,215,294,351,140,181,202,119,191,0,,,,,
2,1789759367472,234,679,10040,81855,-68416,25656,0,0,0,208,108,178,240,112,265,516,514,211,365,430,183,0,,,,,
1,1789759367488,-9078,2287,15510,6407976,-941954,1986533,0,0,0,255,216,159,313,218,294,339,141,172,202,126,190,0,,,,,
2,1789759367488,205,732,9968,50090,-65973,24434,0,0,0,201,114,176,239,117,260,524,509,213,355,428,190,0,,,,,
1,1789759367504,-7250,4584,11883,5051855,-1359786,2547308,0,0,0,240,215,163,305,217,294,332,148,176,196,132,189,0,,,,,
2,1789759367504,167,770,9968,46425,-70860,10995,0,0,0,207,122,188,243,116,267,537,505,218,364,415,202,0,,,,,
1,1789759367520,-2986,5541,9499,2856405,-1080009,2483778,0,0,0,223,212,168,300,216,288,325,141,171,191,127,191,0,,,,,
2,1789759367520,167,760,9978,57421,-69638,-1221,0,0,0,207,124,205,233,114,285,538,504,233,365,413,210,0,,,,,
1,1789759367536,-708,6030,8365,-179594,85521,1395216,0,0,0,214,201,165,298,209,302,293,122,155,194,128,188,0,,,,,
2,1789759367536,177,756,9978,68416,-67195,-7330,0,0,0,213,123,180,231,107,258,527,455,218,368,386,211,0,,,,,
1,1789759367552,-1923,5029,7820,-2608394,1176526,333532,0,0,0,219,195,178,294,201,302,328,140,164,191,123,178,0,,,,,
2,1789759367552,186,746,9968,84299,-70860,-10995,0,0,0,223,121,178,259,113,293,536,443,230,406,365,205,0,,,,,
1,1789759367568,-4522,3938,7341,-3734830,1202182,-14660,0,0,0,211,192,189,293,199,302,339,145,184,188,121,189,0,,,,,
2,1789759367568,205,737,9959,102625,-81855,-13439,0,0,0,220,129,193,246,126,287,522,449,227,367,348,240,0,,,,,
1,1789759367584,-5072,3732,6972,-4366464,577878,61086,0,0,0,211,192,194,291,195,300,341,145,190,189,120,191,0,,,,,
2,1789759367584,215,737,9954,118507,-94073,-14660,0,0,0,234,123,207,262,137,295,525,388,204,373,321,239,0,,,,,
1,1789759367600,-3766,3685,7126,-4943121,-97738,235793,0,0,0,218,191,182,297,197,294,331,137,179,192,123,189,0,,,,,
2,1789759367600,210,717,9964,134390,-100181,-15882,0,0,0,262,145,211,282,157,283,537,350,223,367,307,259,0,,,,,
1,1789759367616,-1947,3015,7982,-5479461,-288328,299323,0,0,0,220,193,172,290,204,291,340,142,176,194,128,193,0,,,,,
2,1789759367616,172,665,9973,140499,-96516,-17104,0,0,0,250,222,201,268,181,294,534,325,245,376,296,278,0,,,,,
1,1789759367632,-942,2249,8748,-5756794,-114842,270002,0,0,0,211,192,173,281,201,289,340,141,182,194,126,199,0,,,,,
2,1789759367632,143,631,9987,136833,-90408,-18325,0,0,0,266,190,200,293,193,303,530,298,232,354,288,296,0,,,,,
1,1789759367648,-1052,2010,9227,-5863084,70860,139277,0,0,0,207,189,169,281,193,284,328,135,178,196,124,195,0,,,,,
2,1789759367648,157,636,10011,139277,-83077,-19547,0,0,0,269,181,259,291,195,312,533,260,248,345,245,327,0,,,,,
1,1789759367664,-1488,1976,9853,-6017022,2443,-42760,0,0,0,207,190,172,283,194,287,332,138,178,198,126,190,0,,,,,
2,1789759367664,186,641,10045,155159,-70860,-19547,0,0,0,309,193,235,315,225,319,538,233,246,316,199,354,0,,,,,
1,1789759367680,-1871,1627,10681,-6139195,-316428,-232128,0,0,0,206,190,184,283,194,294,335,137,183,197,127,194,0,,,,,
2,1789759367680,191,607,10050,173485,-59864,-25656,0,0,0,324,204,243,340,236,337,544,204,277,294,169,391,0,,,,,
1,1789759367696,-1899,823,11639,-6056117,-812450,-386066,0,0,0,209,189,188,286,193,298,335,136,179,199,127,195,0,,,,,
2,1789759367696,177,559,10045,185703,-46425,-29321,0,0,0,321,226,235,363,235,342,557,181,289,297,156,412,0,,,,,
1,1789759367712,-1679,153,12758,-5897293,-1209513,-466701,0,0,0,205,187,199,286,192,304,338,137,188,199,126,200,0,,,,,
2,1789759367712,167,526,10069,200363,-31764,-32986,0,0,0,341,233,219,385,236,363,563,166,281,282,141,425,0,,,,,
1,1789759367728,-1521,-239,14520,-5798332,-1470963,-465479,0,0,0,210,188,188,292,194,299,347,141,188,210,124,195,0,,,,,
2,1789759367728,172,492,10141,237015,-12217,-39095,0,0,0,371,225,221,381,236,386,566,146,290,255,119,440,0,,,,,
1,1789759367744,-1469,-373,16530,-5815437,-1631010,-392175,0,0,0,212,188,194,291,194,301,344,137,186,277,123,192,0,,,,,
2,1789759367744,196,454,10232,307876,18325,-45204,0,0,0,381,233,202,367,246,384,560,130,296,247,109,450,0,,,,,
1,1789759367760,-1402,-483,19052,-5929058,-1756848,-251676,0,0,0,212,193,193,293,196,301,300,116,160,205,128,197,0,,,,,
2,1789759367760,220,411,10375,419053,98960,-56199,0,0,0,386,243,183,389,266,397,539,128,303,240,112,470,0,,,,,
1,1789759367776,-1268,-1005,22014,-6096435,-1860695,-127059,0,0,0,215,199,185,291,200,296,332,135,175,200,129,195,0,,,,,
2,1789759367776,268,349,10519,551000,249233,-72082,0,0,0,407,247,142,408,298,396,554,122,314,248,112,494,0,,,,,
1,1789759367792,-1005,-2364,25283,-6312681,-1986533,-80634,0,0,0,214,202,186,289,202,296,338,139,178,200,129,194,0,,,,,
2,1789759367792,358,263,10571,680503,371406,-90408,0,0,0,403,252,127,392,326,405,524,126,310,230,114,522,0,,,,,
1,1789759367808,-344,-5388,28217,-6559470,-2150245,-147829,0,0,0,211,199,186,289,200,299,341,142,183,249,130,191,0,,,,,
2,1789759367808,464,148,10614,802676,392175,-105068,0,0,0,424,254,119,409,303,442,486,128,341,229,95,542,0,,,,,
1,1789759367824,1526,-10390,29705,-6624222,-2310292,-379958,0,0,0,205,198,191,286,198,304,345,143,189,218,129,194,0,,,,,
2,1789759367824,555,33,10753,929736,367740,-123394,0,0,0,415,263,121,420,297,438,475,140,358,233,108,550,0,,,,,
1,1789759367840,3445,-14668,28528,-6326120,-2128254,-733038,0,0,0,213,195,189,296,200,309,347,142,191,197,127,195,0,,,,,
2,1789759367840,603,-71,10964,1070235,317649,-144164,0,0,0,442,227,120,428,319,451,459,144,346,233,117,587,0,,,,,
1,1789759367856,1560,-19066,24254,-5663942,-1320690,-1056796,0,0,0,223,199,185,305,205,311,352,146,191,198,128,194,0,,,,,
2,1789759367856,555,-196,11160,1214400,252898,-145385,0,0,0,454,279,142,448,351,469,459,155,353,231,109,609,0,,,,,
1,1789759367872,-5838,-25790,16999,-4487416,-1231504,-411723,0,0,0,226,206,174,308,208,306,351,148,186,199,131,194,0,,,,,
2,1789759367872,579,-344,11538,1378111,212581,-131946,0,0,0,455,258,125,447,383,437,421,174,356,232,126,623,0,,,,,
1,1789759367888,100,-30117,12672,-3241250,-2845410,1078788,0,0,0,230,210,162,311,210,300,346,146,178,203,131,198,0,,,,,
2,1789759367888,756,-502,12184,1626123,201585,-127059,0,0,0,482,253,135,461,354,425,393,163,331,263,136,647,0,,,,,
1,1789759367904,15635,-31591,10160,-1789835,-3128851,1805717,0,0,0,233,210,166,311,211,302,349,147,176,205,133,200,0,,,,,
2,1789759367904,1005,-674,12816,1963320,186924,-151494,0,0,0,509,277,153,415,336,434,368,163,315,245,127,658,0,,,,,
1,1789759367920,22009,-29360,9145,-298102,-648738,719599,0,0,0,234,211,171,313,210,305,354,147,179,207,133,202,0,,,,,
2,1789759367920,1153,-827,13137,2351831,162490,-210137,0,0,0,502,286,149,401,372,426,335,168,284,231,140,670,0,,,,,
1,1789759367936,10102,-23139,9456,1222952,1984090,-808785,0,0,0,228,214,173,311,214,306,349,154,179,206,145,200,0,,,,,
2,1789759367936,1057,-966,13338,2750115,123394,-263893,0,0,0,501,293,141,392,365,420,315,167,255,229,142,665,0,,,,,
1,1789759367952,-832,-16051,11840,2047620,2305405,-1144761,0,0,0,213,218,152,324,219,295,313,179,147,220,206,177,0,,,,,
2,1789759367952,1057,-1162,13610,3143512,83077,-300545,0,0,0,518,312,145,386,355,442,312,154,263,225,138,657,0,,,,,
1,1789759367968,-4642,-2086,17884,2539977,1514945,-690277,0,0,0,210,195,120,328,213,282,345,215,186,252,250,170,0,,,,,
2,1789759367968,1052,-1325,14017,3538131,46425,-324980,0,0,0,520,322,151,380,364,445,287,174,285,209,137,628,0,,,,,
1,1789759367984,-3977,13706,15611,3347541,1693318,-332310,0,0,0,188,213,122,310,222,288,405,313,175,295,295,170,0,,,,,
2,1789759367984,1430,-1569,14170,4063475,-13439,-377514,0,0,0,485,328,142,376,362,433,236,159,295,198,122,587,0,,,,,
1,1789759368000,-2368,7202,10830,4184426,2048842,-423940,0,0,0,203,210,131,326,239,304,385,295,176,308,322,176,0,,,,,
2,1789759368000,1497,-1794,14285,4585154,-72082,-469144,0,0,0,435,345,128,365,356,432,187,112,286,187,107,543,0,,,,,
1,1789759368016,-1143,-4580,11897,4503298,1009149,-1047023,0,0,0,199,205,125,326,257,318,358,284,170,305,346,184,0,,,,,
2,1789759368016,1502,-2378,15051,5126381,-116064,-543670,0,0,0,399,350,120,351,349,425,171,106,270,177,106,491,0,,,,,
1,1789759368032,1861,-2258,15491,3937637,-265115,-1149648,0,0,0,214,217,133,327,246,327,359,304,163,338,390,191,0,,,,,
2,1789759368032,1890,-3685,16611,5677381,-98960,-610865,0,0,0,369,317,112,346,324,395,178,99,259,190,100,448,0,,,,,
1,1789759368048,1837,492,16712,3514918,74525,-200363,0,0,0,230,216,163,325,215,325,407,364,184,381,411,188,0,,,,,
2,1789759368048,2163,-5709,19966,6118426,113620,-638965,0,0,0,342,274,123,279,281,341,147,88,243,160,100,416,0,,,,,
1,1789759368064,-751,177,16472,2857627,456927,472809,0,0,0,231,205,182,319,195,326,443,407,216,404,419,192,0,,,,,
2,1789759368064,2043,-6116,23273,6360328,465479,-635299,0,0,0,290,225,140,226,232,311,157,98,212,131,76,365,0,,,,,
1,1789759368080,-2833,-1134,12969,1426981,377514,238237,0,0,0,236,201,194,318,194,332,454,425,234,417,428,199,0,,,,,
2,1789759368080,1971,-4776,24364,6618113,499687,-730594,0,0,0,247,199,124,208,179,276,160,93,199,117,71,290,0,,,,,
1,1789759368096,-1497,-162,10260,488692,141720,-122173,0,0,0,257,203,216,330,198,332,444,399,206,434,437,197,0,,,,,
2,1789759368096,3479,-1579,23551,6989520,103847,-937067,0,0,0,186,111,100,170,121,214,161,108,168,93,71,177,0,,,,,
1,1789759368112,-823,421,9772,144164,65973,-134390,0,0,0,273,209,250,335,198,334,430,370,174,447,445,198,0,,,,,
2,1789759368112,6944,2790,19990,7055493,0,-1202182,0,0,0,153,113,102,178,112,213,163,116,163,83,61,127,0,,,,,
1,1789759368128,-1076,368,10203,138055,56199,-26878,0,0,0,268,218,280,318,206,346,454,439,220,446,448,215,0,,,,,
2,1789759368128,10050,7891,11974,6139195,675616,-1656666,0,0,0,161,105,100,183,109,213,169,117,167,90,67,131,0,,,,,
1,1789759368144,-1292,320,10217,124616,25656,1221,0,0,0,284,250,271,348,231,351,436,384,191,452,449,235,0,,,,,
2,1789759368144,8174,11069,8590,3393967,1552819,-2003637,0,0,0,153,110,102,185,100,205,177,117,163,97,69,122,0,,,,,
1,1789759368160,-1253,363,9997,102625,1221,-14660,0,0,0,274,252,304,322,238,360,463,441,252,451,427,227,0,,,,,
2,1789759368160,3613,12002,10212,-386066,1530828,-1760513,0,0,0,155,112,100,191,99,202,184,118,166,102,67,122,0,,,,,
1,1789759368176,-1177,387,10007,106290,1221,-8552,0,0,0,290,273,298,335,233,361,468,447,271,455,431,246,0,,,,,
2,1789759368176,1124,8987,11811,-3240029,361632,-1073901,0,0,0,150,112,106,183,97,202,177,117,167,97,67,122,0,,,,,
1,1789759368192,-1177,387,10117,114842,-4886,0,0,0,0,285,279,304,347,255,391,458,419,268,449,394,258,0,,,,,
2,1789759368192,2402,5398,9987,-3887546,-733038,-659734,0,0,0,143,123,108,172,103,205,178,128,167,93,70,126,0,,,,,
1,1789759368208,-1191,378,10122,129503,-24434,3665,0,0,0,300,299,345,343,268,373,460,383,263,446,358,275,0,,,,,
2,1789759368208,3531,4374,7992,-3929085,-1117883,-518013,0,0,0,141,116,108,168,101,203,179,131,165,85,71,122,0,,,,,
1,1789759368224,-1182,373,10059,151494,-41538,4886,0,0,0,295,336,355,362,278,393,458,362,294,433,328,300,0,,,,,
2,1789759368224,3067,4953,8456,-4456872,-939510,-410501,0,0,0,139,111,113,167,95,211,180,129,168,101,76,125,0,,,,,
1,1789759368240,-1182,349,10026,172263,-50090,8552,0,0,0,305,338,356,375,290,420,458,333,304,415,298,325,0,,,,,
2,1789759368240,2613,4479,9475,-5086063,-830776,-228463,0,0,0,138,113,113,167,97,217,177,126,168,101,76,125,0,,,,,
1,1789759368256,-1206,320,10054,182037,-51312,17104,0,0,0,319,347,369,385,295,440,457,312,302,400,280,348,0,,,,,
2,1789759368256,2933,3239,9767,-5259549,-735481,-54977,0,0,0,137,110,107,169,100,217,170,121,162,83,67,123,0,,,,,
1,1789759368272,-1220,287,10107,200363,-57421,29321,0,0,0,336,363,371,393,319,448,471,289,302,373,247,370,0,,,,,
2,1789759368272,3469,2914,9729,-5033529,-280998,81855,0,0,0,132,106,103,171,97,219,173,122,162,90,64,130,0,,,,,
1,1789759368288,-1186,248,10145,235793,-76969,39095,0,0,0,366,365,354,418,335,449,480,265,314,362,221,408,0,,,,,
2,1789759368288,3235,3216,10485,-4983438,277332,266337,0,0,0,134,110,109,170,95,215,179,123,165,89,70,128,0,,,,,
1,1789759368304,-1143,201,10174,271224,-100181,45204,0,0,0,400,376,348,448,348,456,465,231,310,375,220,449,0,,,,,
2,1789759368304,2546,3464,11873,-5149593,706160,559552,0,0,0,134,114,112,169,99,217,178,123,166,85,73,130,0,,,,,
1,1789759368320,-1139,157,10246,323758,-128281,46425,0,0,0,424,401,344,455,382,467,458,194,292,375,212,469,0,,,,,
2,1789759368320,2287,3125,13189,-5397605,913854,929736,0,0,0,133,107,104,164,99,213,186,132,170,84,69,129,0,,,,,
1,1789759368336,-1186,95,10380,416610,-135612,45204,0,0,0,435,401,303,458,384,462,469,194,320,358,196,476,0,,,,,
2,1789759368336,2469,2364,14261,-5578421,1120326,1230282,0,0,0,131,112,108,163,99,208,185,132,176,74,59,127,0,,,,,
1,1789759368352,-1268,28,10514,541226,-124616,50090,0,0,0,442,411,287,484,407,484,415,150,270,371,195,454,0,,,,,
2,1789759368352,2622,1359,15529,-5661499,1436755,1400103,0,0,0,131,110,107,167,99,213,185,127,178,87,65,129,0,,,,,
1,1789759368368,-1292,-47,10715,692721,-76969,70860,0,0,0,450,398,271,477,422,468,422,165,274,362,199,460,0,,,,,
2,1789759368368,2364,392,17056,-5672494,1695761,1433089,0,0,0,132,118,107,173,106,223,187,130,176,88,73,133,0,,,,,
1,1789759368384,-1306,-110,10906,825889,-31764,92851,0,0,0,465,418,217,478,437,470,438,169,304,361,185,471,0,,,,,
2,1789759368384,2081,-325,18688,-5645616,1778839,1345125,0,0,0,134,112,111,172,103,222,196,127,179,94,71,134,0,,,,,
1,1789759368400,-1306,-186,10902,918741,-15882,117286,0,0,0,468,398,206,501,425,495,418,166,275,354,200,464,0,,,,,
2,1789759368400,1971,-813,20564,-5751907,1786169,1226617,0,0,0,136,108,114,183,102,228,196,122,183,99,75,138,0,,,,,
1,1789759368416,-1215,-339,10734,985936,-15882,124616,0,0,0,464,401,184,487,459,492,398,140,249,350,197,469,0,,,,,
2,1789759368416,1483,-1713,22282,-6001140,1781283,1216843,0,0,0,143,111,115,187,105,229,211,127,195,99,73,135,0,,,,,
1,1789759368432,-1201,-521,10643,1039692,-24434,124616,0,0,0,458,384,181,503,448,483,408,149,253,360,190,475,0,,,,,
2,1789759368432,559,-3776,23354,-6183177,1684766,1321912,0,0,0,144,110,113,184,103,224,208,129,184,99,65,131,0,,,,,
1,1789759368448,-1239,-689,10658,1081231,-26878,127059,0,0,0,461,394,192,505,427,490,409,153,263,361,192,477,0,,,,,
2,1789759368448,-521,-6226,23967,-6144082,1472185,1413542,0,0,0,141,112,113,184,102,224,207,130,181,94,65,131,0,,,,,
1,1789759368464,-1301,-827,10658,1120326,-12217,139277,0,0,0,486,397,198,498,428,478,409,151,266,370,193,494,0,,,,,
2,1789759368464,-1497,-8624,24005,-5870414,1086118,1510058,0,0,0,140,112,111,189,102,228,216,125,186,104,68,133,0,,,,,
1,1789759368480,-1330,-981,10629,1175304,-1221,162490,0,0,0,489,405,203,501,453,467,395,154,268,362,200,500,0,,,,,
2,1789759368480,-856,-11107,22818,-5439144,525344,1613905,0,0,0,139,111,114,189,102,234,217,121,190,105,68,138,0,,,,,
1,1789759368496,-1287,-1158,10614,1264491,0,191811,0,0,0,488,415,192,508,460,471,383,147,259,360,209,506,0,,,,,
2,1789759368496,1966,-14204,20397,-4910134,-7330,1503950,0,0,0,138,108,116,185,98,236,211,120,190,97,65,143,0,,,,,
1,1789759368512,-1287,-1320,10772,1367116,6108,212581,0,0,0,500,416,176,502,456,468,350,126,226,366,214,516,0,,,,,
2,1789759368512,5652,-19238,16745,-4277278,67195,753807,0,0,0,176,106,112,198,96,237,214,124,191,105,63,146,0,,,,,
1,1789759368528,-1560,-1512,11150,1518610,41538,249233,0,0,0,513,416,173,493,478,463,312,121,206,360,217,523,0,,,,,
2,1789759368528,3622,-24790,14194,-3494149,763581,-375071,0,0,0,231,107,113,219,101,242,223,130,197,119,69,154,0,,,,,
1,1789759368544,-1756,-1722,11533,1721418,98960,323758,0,0,0,521,432,180,499,513,474,336,153,248,358,227,528,0,,,,,
2,1789759368544,-7130,-28418,13807,-2333505,1058018,-1133765,0,0,0,230,107,113,222,106,248,224,129,197,121,72,158,0,,,,,
1,1789759368560,-1588,-1885,11969,1969429,160046,403171,0,0,0,520,445,202,496,511,462,362,167,277,372,229,512,0,,,,,
2,1789759368560,-13630,-28499,13266,-961501,-206472,-598647,0,0,0,227,104,112,217,107,248,215,128,196,115,71,155,0,,,,,
1,1789759368576,-1349,-2043,12615,2313957,224798,445931,0,0,0,529,464,219,493,504,471,389,172,290,359,219,517,0,,,,,
2,1789759368576,-10720,-26790,12103,288328,-1566258,234572,0,0,0,210,105,108,211,106,246,218,148,191,119,95,151,0,,,,,
1,1789759368592,-1340,-2167,13156,2691472,278554,470366,0,0,0,534,491,235,500,519,476,331,172,284,349,227,518,0,,,,,
2,1789759368592,-2273,-22182,12849,1330464,-2035402,519235,0,0,0,130,101,105,189,102,237,266,222,183,159,190,141,0,,,,,
1,1789759368608,-1450,-2306,13400,3141069,333532,509461,0,0,0,515,463,238,486,507,480,273,139,237,345,223,508,0,,,,,
2,1789759368608,4819,-5857,16563,2711019,-1480737,-131946,0,0,0,130,104,97,194,122,248,298,324,188,236,272,186,0,,,,,
1,1789759368624,-1445,-2431,13548,3646865,372627,580321,0,0,0,525,481,214,496,548,488,295,141,296,322,199,508,0,,,,,
2,1789759368624,7575,9518,14008,4432438,-1501506,-868650,0,0,0,159,102,104,225,116,264,371,456,190,323,407,170,0,,,,,
1,1789759368640,-1340,-2584,14041,4163657,431270,652404,0,0,0,517,482,209,510,558,479,272,138,289,324,192,467,0,,,,,
2,1789759368640,4785,2325,17855,5722585,-2145358,-326202,0,0,0,176,113,98,238,130,268,406,523,208,339,507,180,0,,,,,
1,1789759368656,-1588,-3048,15127,4827057,605978,719599,0,0,0,500,485,195,502,549,491,241,146,267,295,185,462,0,,,,,
2,1789759368656,612,-3393,23517,5751907,-1685988,812450,0,0,0,190,116,102,239,134,288,405,531,190,332,519,177,0,,,,,
1,1789759368672,-1943,-3910,16606,5469687,850324,812450,0,0,0,473,444,195,494,530,474,256,143,279,289,175,464,0,,,,,
2,1789759368672,-3058,-1541,20842,4291939,-682947,1196074,0,0,0,190,112,99,262,123,274,453,520,196,350,550,183,0,,,,,
1,1789759368688,-1689,-5585,19109,6040235,1167974,874759,0,0,0,442,383,189,470,483,447,248,123,243,287,163,444,0,,,,,
2,1789759368688,-2100,1311,13764,3027448,-401949,364075,0,0,0,205,113,112,242,117,275,467,524,203,388,539,218,0,,,,,
1,1789759368704,-2857,-7217,22311,6515488,1419650,889419,0,0,0,411,330,202,438,413,419,256,122,213,269,142,421,0,,,,,
2,1789759368704,229,1564,10882,2354274,-456927,-195476,0,0,0,209,113,118,238,115,263,492,546,193,423,533,225,0,,,,,
1,1789759368720,-4819,-7073,25216,6984633,1484402,1066570,0,0,0,362,310,197,396,346,382,251,114,178,238,127,383,0,,,,,
2,1789759368720,1062,454,11529,1827708,-535117,-117286,0,0,0,218,115,142,238,108,258,506,563,195,431,529,209,0,,,,,
1,1789759368736,-5709,-6197,25982,7711562,1276708,1439198,0,0,0,287,296,153,335,296,337,246,112,145,207,134,300,0,,,,,
2,1789759368736,378,449,11112,992045,-395840,86742,0,0,0,224,118,152,242,100,252,531,572,197,426,523,204,0,,,,,
1,1789759368752,-5891,-3594,23321,8005999,868650,1662775,0,0,0,232,252,147,298,258,296,319,152,170,199,140,221,0,,,,,
2,1789759368752,47,842,10179,387288,-240680,111177,0,0,0,226,117,156,246,98,248,561,577,194,437,522,199,0,,,,,
1,1789759368768,-6618,1966,18434,7037167,139277,1822821,0,0,0,232,229,160,316,234,285,334,132,158,220,127,213,0,,,,,
2,1789759368768,220,928,9964,212581,-179594,48869,0,0,0,225,117,176,249,96,247,576,574,198,438,515,189,0,,,,,
1,1789759368784,-5786,4000,14199,5552765,-267558,1916895,0,0,0,216,232,142,298,237,280,325,157,155,206,163,210,0,,,,,
2,1789759368784,282,890,10064,174707,-145385,20769,0,0,0,223,118,191,253,94,247,573,554,199,429,504,180,0,,,,,
1,1789759368800,-3493,4699,10581,3319441,-31764,1599245,0,0,0,215,228,146,297,244,278,343,194,164,191,170,202,0,,,,,
2,1789759368800,239,928,10074,149051,-106290,15882,0,0,0,223,125,194,247,103,253,561,527,195,427,489,178,0,,,,,
1,1789759368816,-2493,5532,8734,-45204,569326,733038,0,0,0,213,222,149,296,231,281,330,179,169,190,159,196,0,,,,,
2,1789759368816,215,1000,9968,131946,-79412,1221,0,0,0,219,131,209,237,116,265,552,501,204,399,467,194,0,,,,,
1,1789759368832,-3594,4704,8164,-3153286,849102,-18325,0,0,0,220,212,149,300,227,275,330,178,160,192,157,189,0,,,,,
2,1789759368832,224,1000,9940,139277,-67195,-12217,0,0,0,212,131,221,243,119,276,551,452,209,365,458,216,0,,,,,
1,1789759368848,-4804,3082,8016,-4514294,518013,-162490,0,0,0,219,206,145,301,227,275,312,164,142,194,158,187,0,,,,,
2,1789759368848,239,961,9959,155159,-62308,-19547,0,0,0,218,139,209,235,119,266,525,424,209,392,390,234,0,,,,,
1,1789759368864,-4000,2364,7250,-4966334,-57421,-47647,0,0,0,199,197,153,283,214,286,319,166,157,193,155,196,0,,,,,
2,1789759368864,224,947,9968,169820,-53756,-23212,0,0,0,239,135,216,246,113,269,543,374,211,399,310,238,0,,,,,
1,1789759368880,-2608,1837,6628,-5318192,-441044,-73303,0,0,0,208,193,173,297,212,291,326,160,160,198,154,200,0,,,,,
2,1789759368880,224,928,9959,178372,-45204,-24434,0,0,0,230,134,207,246,126,272,544,356,214,354,284,263,0,,,,,
1,1789759368896,-1569,909,6695,-5516113,-585208,-263893,0,0,0,210,197,153,294,216,275,339,168,156,202,157,192,0,,,,,
2,1789759368896,248,880,9954,183259,-42760,-26878,0,0,0,247,139,232,245,153,305,556,286,259,350,265,292,0,,,,,
1,1789759368912,-770,344,6982,-5488013,-604756,-494800,0,0,0,210,201,145,291,220,270,315,158,144,201,159,190,0,,,,,
2,1789759368912,268,842,9964,185703,-48869,-30543,0,0,0,266,142,233,258,167,298,548,260,259,334,232,309,0,,,,,
1,1789759368928,-650,559,7360,-5379279,-569326,-717155,0,0,0,209,201,146,293,219,271,291,141,133,202,156,191,0,,,,,
2,1789759368928,277,827,9983,197920,-57421,-32986,0,0,0,253,144,287,257,169,328,543,234,260,336,212,361,0,,,,,
1,1789759368944,-1301,923,7973,-5418374,-762359,-863763,0,0,0,206,200,155,292,214,276,298,143,141,204,153,192,0,,,,,
2,1789759368944,268,799,10016,252898,-78190,-39095,0,0,0,278,157,242,283,183,312,558,213,257,332,181,369,0,,,,,
1,1789759368960,-1698,741,8834,-5457470,-1169196,-836885,0,0,0,205,198,174,287,211,286,324,160,163,203,153,195,0,,,,,
2,1789759368960,234,751,10040,313984,-100181,-42760,0,0,0,288,156,212,301,188,318,552,191,271,312,165,387,0,,,,,
1,1789759368976,-1277,397,9983,-5369505,-1557706,-580321,0,0,0,206,196,180,289,212,293,272,129,135,206,154,200,0,,,,,
2,1789759368976,201,693,10040,320093,-89186,-42760,0,0,0,311,165,207,295,197,327,532,190,279,277,155,400,0,,,,,
1,1789759368992,-617,402,11375,-5315749,-1764178,-208915,0,0,0,211,199,186,303,218,300,76,25,27,215,156,205,0,,,,,
2,1789759368992,201,646,10054,295658,-53756,-39095,0,0,0,334,181,203,307,217,336,534,190,278,249,143,426,0,,,,,
1,1789759369008,-320,555,13070,-5459913,-1824043,200363,0,0,0,216,200,181,307,223,296,135,62,63,213,154,201,0,,,,,
2,1789759369008,224,598,10083,291993,-21991,-39095,0,0,0,346,186,210,318,230,345,534,182,288,239,140,445,0,,,,,
1,1789759369024,-239,349,14970,-5667607,-1913229,560774,0,0,0,214,204,182,306,229,300,350,175,182,203,150,199,0,,,,,
2,1789759369024,244,545,10136,335975,-6108,-40317,0,0,0,352,191,206,330,233,350,538,178,295,242,135,456,0,,,,,
1,1789759369040,-392,-67,17071,-5827654,-2069611,801455,0,0,0,204,204,178,285,222,290,346,174,176,203,155,199,0,,,,,
2,1789759369040,268,502,10212,397062,15882,-43982,0,0,0,348,198,190,352,239,370,545,155,295,245,115,467,0,,,,,
1,1789759369056,-296,-167,19617,-5911953,-2357939,905302,0,0,0,199,208,194,284,222,303,337,170,183,201,157,205,0,,,,,
2,1789759369056,282,445,10289,477696,81855,-53756,0,0,0,347,207,180,367,263,404,542,120,305,235,103,480,0,,,,,
1,1789759369072,454,-536,22469,-6043900,-2636494,886976,0,0,0,206,202,185,286,214,296,350,174,185,201,150,200,0,,,,,
2,1789759369072,311,373,10346,555887,171042,-65973,0,0,0,365,222,149,380,303,414,546,124,308,225,112,504,0,,,,,
1,1789759369088,1474,-2617,25699,-6238155,-2824640,634078,0,0,0,210,202,178,287,214,292,355,173,181,203,149,197,0,,,,,
2,1789759369088,354,291,10442,624304,250454,-78190,0,0,0,380,210,117,403,290,405,527,122,278,232,100,519,0,,,,,
1,1789759369104,2660,-6164,28188,-6328563,-2935818,204028,0,0,0,214,200,182,295,208,291,361,155,177,211,132,196,0,,,,,
2,1789759369104,440,177,10610,735481,309097,-94073,0,0,0,398,227,122,407,342,427,515,124,288,236,124,547,0,,,,,
1,1789759369120,4527,-10500,28753,-6180734,-2929709,-392175,0,0,0,214,200,177,298,207,291,361,143,179,214,124,198,0,,,,,
2,1789759369120,492,86,10768,866206,337197,-108734,0,0,0,404,228,133,442,311,436,489,145,324,255,106,554,0,,,,,
1,1789759369136,6255,-14486,26800,-5729915,-2539977,-1088561,0,0,0,216,202,164,304,207,288,367,139,175,221,125,194,0,,,,,
2,1789759369136,598,-9,10988,1014036,322536,-117286,0,0,0,428,299,130,412,343,440,463,170,325,228,133,587,0,,,,,
1,1789759369152,4709,-19009,23058,-5087285,-1792278,-1649336,0,0,0,224,205,155,313,207,287,380,136,172,228,124,190,0,,,,,
2,1789759369152,708,-143,11227,1176526,256563,-131946,0,0,0,422,255,142,415,318,440,483,129,332,225,112,621,0,,,,,
1,1789759369168,-861,-26312,17348,-4124562,-1494176,-1326799,0,0,0,228,208,154,316,208,295,381,138,178,228,120,196,0,,,,,
2,1789759369168,804,-301,11586,1362229,174707,-150272,0,0,0,464,267,157,419,323,443,401,142,308,227,108,632,0,,,,,
1,1789759369184,1890,-33084,12495,-2789210,-2299296,-167377,0,0,0,225,211,158,314,210,303,369,141,182,225,122,202,0,,,,,
2,1789759369184,1009,-478,12146,1606575,105068,-184481,0,0,0,470,326,153,385,330,450,373,143,327,212,117,644,0,,,,,
1,1789759369200,15917,-34113,10705,-1313360,-2356718,494800,0,0,0,223,210,167,312,211,312,355,137,178,220,130,208,0,,,,,
2,1789759369200,1153,-617,12624,1860695,46425,-233350,0,0,0,499,303,149,408,326,433,342,141,303,258,127,660,0,,,,,
1,1789759369216,20119,-30160,10275,204028,-103847,-372627,0,0,0,223,210,166,319,222,318,324,141,156,230,162,204,0,,,,,
2,1789759369216,1110,-765,13041,2204001,-25656,-300545,0,0,0,508,328,158,395,332,464,331,147,284,239,129,659,0,,,,,
1,1789759369232,10394,-23924,12696,1595580,1886351,-1181413,0,0,0,204,216,144,313,244,298,271,166,128,256,251,186,0,,,,,
2,1789759369232,804,-875,13534,2585181,-87964,-316428,0,0,0,518,328,160,397,353,451,339,145,283,250,135,651,0,,,,,
1,1789759369248,-3259,-7307,17181,3180164,2322509,-590095,0,0,0,209,213,128,320,239,291,368,227,166,266,263,182,0,,,,,
2,1789759369248,961,-1028,14122,3018896,-149051,-307876,0,0,0,518,332,163,379,357,415,311,134,303,236,120,649,0,,,,,
1,1789759369264,-3809,6695,14778,4495968,2787988,842994,0,0,0,201,217,125,314,247,301,363,274,169,288,312,178,0,,,,,
2,1789759369264,1445,-1220,14376,3468492,-224798,-348193,0,0,0,502,342,158,374,371,408,272,128,304,215,109,626,0,,,,,
1,1789759369280,-1483,2321,12878,4886921,2796541,1175304,0,0,0,193,232,121,307,255,300,377,320,170,274,355,180,0,,,,,
2,1789759369280,1579,-1421,14462,3959628,-342084,-450818,0,0,0,483,366,145,371,372,409,228,124,283,210,114,572,0,,,,,
1,1789759369296,-1914,-2656,14792,4268726,868650,-9773,0,0,0,201,237,129,321,268,312,376,322,167,278,388,181,0,,,,,
2,1789759369296,1880,-1732,14917,4492302,-496022,-565661,0,0,0,458,377,131,358,367,400,189,119,278,201,122,519,0,,,,,
1,1789759369312,-1368,-1430,15697,3607770,-422718,-713490,0,0,0,202,222,125,322,250,312,391,357,162,325,381,191,0,,,,,
2,1789759369312,2943,-2517,15908,5122715,-646295,-750142,0,0,0,414,350,126,347,353,389,180,111,281,185,118,489,0,,,,,
1,1789759369328,76,402,15080,3295007,-279776,-285884,0,0,0,212,224,148,321,233,305,422,383,164,351,403,188,0,,,,,
2,1789759369328,3799,-4005,17741,5710368,-647517,-976162,0,0,0,367,314,131,317,316,359,171,101,259,168,100,456,0,,,,,
1,1789759369344,-497,38,14644,2945592,54977,273667,0,0,0,224,205,190,323,210,313,438,396,192,381,411,184,0,,,,,
2,1789759369344,3685,-5824,21225,6206390,-343306,-1183856,0,0,0,336,280,121,266,287,306,141,98,202,149,94,392,0,,,,,
1,1789759369360,-2057,-1134,13256,1990198,191811,287106,0,0,0,247,208,202,332,204,309,445,409,206,390,409,192,0,,,,,
2,1789759369360,2048,-5053,23981,6547253,4886,-1301142,0,0,0,282,209,118,219,232,274,139,92,180,137,87,345,0,,,,,
1,1789759369376,-1718,-1019,11299,827111,112399,-17104,0,0,0,269,222,210,347,216,324,438,395,197,387,407,216,0,,,,,
2,1789759369376,1675,-3345,25316,6922324,-61086,-1385442,0,0,0,237,154,110,198,165,240,151,94,165,119,68,231,0,,,,,
1,1789759369392,-1148,-392,10069,130725,10995,-118507,0,0,0,281,231,230,359,230,349,425,364,193,393,407,243,0,,,,,
2,1789759369392,4359,-1249,24996,7343821,-474031,-1533271,0,0,0,183,117,88,186,113,194,161,120,149,77,51,114,0,,,,,
1,1789759369408,-1110,38,9935,91629,-43982,-25656,0,0,0,283,239,245,367,238,358,428,360,217,406,402,264,0,,,,,
2,1789759369408,7599,3957,19559,7073819,-400727,-1838704,0,0,0,152,120,97,172,112,194,151,114,145,72,62,117,0,,,,,
1,1789759369424,-1359,-33,10102,193033,-36651,14660,0,0,0,282,249,258,382,260,383,440,369,256,416,389,289,0,,,,,
2,1789759369424,7480,9136,12605,5742133,64751,-1948660,0,0,0,158,110,100,177,102,197,167,122,160,77,56,114,0,,,,,
1,1789759369440,-1407,-100,10102,191811,-31764,6108,0,0,0,298,277,274,412,307,424,442,335,269,419,387,322,0,,,,,
2,1789759369440,3943,11940,10605,2494773,144164,-1031140,0,0,0,160,113,107,168,105,194,166,126,158,78,58,112,0,,,,,
1,1789759369456,-1335,-95,10045,155159,-40317,1221,0,0,0,311,259,271,413,274,435,449,341,287,417,363,326,0,,,,,
2,1789759369456,2215,11007,11361,-831998,-466701,366519,0,0,0,154,116,115,170,107,200,164,124,161,82,61,121,0,,,,,
1,1789759369472,-1316,-90,10050,141720,-54977,10995,0,0,0,303,286,280,424,279,443,453,331,290,419,363,335,0,,,,,
2,1789759369472,3493,7126,10897,-2736676,-1154535,1440420,0,0,0,160,121,117,165,105,197,164,122,161,89,64,125,0,,,,,
1,1789759369488,-1330,-110,10093,139277,-74525,20769,0,0,0,282,287,296,399,281,445,447,341,290,424,343,359,0,,,,,
2,1789759369488,4192,5250,7772,-2552194,-1160643,1406211,0,0,0,160,119,116,165,99,197,169,122,161,85,57,124,0,,,,,
1,1789759369504,-1344,-124,10069,135612,-89186,19547,0,0,0,296,275,294,413,273,448,432,273,278,418,309,373,0,,,,,
2,1789759369504,3335,5833,5809,-2547308,-1080009,1047023,0,0,0,155,119,119,167,95,206,167,123,162,82,58,126,0,,,,,
1,1789759369520,-1359,-129,10040,136833,-102625,24434,0,0,0,310,273,315,430,282,452,427,240,284,406,284,382,0,,,,,
2,1789759369520,2904,6389,5987,-3495370,-1102000,674395,0,0,0,155,116,120,172,97,210,172,125,167,91,63,132,0,,,,,
1,1789759369536,-1368,-134,10040,147829,-108734,41538,0,0,0,310,291,298,425,300,455,440,258,303,367,252,399,0,,,,,
2,1789759369536,3397,5637,6767,-4503298,-948062,334754,0,0,0,154,113,118,174,100,208,176,131,170,93,66,134,0,,,,,
1,1789759369552,-1344,-162,10069,164933,-118507,52534,0,0,0,305,291,285,443,310,466,423,203,269,354,228,416,0,,,,,
2,1789759369552,3699,4273,7566,-5180137,-529009,-48869,0,0,0,150,122,119,167,101,208,171,136,168,86,69,134,0,,,,,
1,1789759369568,-1335,-191,10102,193033,-134390,51312,0,0,0,313,302,275,468,307,471,430,197,290,355,206,441,0,,,,,
2,1789759369568,3110,3584,8365,-5469687,-105068,-328645,0,0,0,151,123,121,167,101,208,176,136,172,86,66,132,0,,,,,
1,1789759369584,-1363,-229,10117,237015,-151494,45204,0,0,0,314,305,264,463,293,473,476,233,348,344,184,461,0,,,,,
2,1789759369584,2756,3335,9322,-5694485,175929,-398284,0,0,0,147,115,117,167,102,208,174,134,172,85,64,126,0,,,,,
1,1789759369600,-1397,-282,10122,289550,-164933,46425,0,0,0,318,304,252,461,289,482,461,210,326,333,176,457,0,,,,,
2,1789759369600,2747,3158,10729,-5968153,439822,-250454,0,0,0,145,120,119,170,115,216,173,134,170,84,63,128,0,,,,,
1,1789759369616,-1416,-330,10145,338419,-172263,53756,0,0,0,322,311,236,471,303,491,434,190,301,329,177,450,0,,,,,
2,1789759369616,2924,2756,12438,-6258925,708603,2443,0,0,0,143,114,116,171,102,220,169,126,161,85,67,128,0,,,,,
1,1789759369632,-1426,-382,10212,395840,-189368,63529,0,0,0,319,314,214,476,323,496,459,198,324,332,175,463,0,,,,,
2,1789759369632,3378,1933,14256,-6460510,1015258,306654,0,0,0,135,109,120,170,93,216,172,129,168,90,70,137,0,,,,,
1,1789759369648,-1464,-445,10327,461814,-213802,75747,0,0,0,333,321,182,488,339,497,454,156,303,351,174,474,0,,,,,
2,1789759369648,3886,804,16204,-6460510,1463633,536339,0,0,0,137,108,117,169,93,216,177,125,171,90,66,138,0,,,,,
1,1789759369664,-1512,-492,10442,525344,-256563,89186,0,0,0,346,332,164,494,342,492,436,121,307,375,170,476,0,,,,,
2,1789759369664,4015,-469,18741,-6360328,1919338,659734,0,0,0,179,105,116,192,100,224,186,126,168,119,79,144,0,,,,,
1,1789759369680,-1550,-569,10442,598647,-301767,107512,0,0,0,355,305,156,488,341,497,457,129,324,367,165,490,0,,,,,
2,1789759369680,3852,-2100,22129,-6178291,2214997,687834,0,0,0,144,111,119,177,95,221,188,127,172,96,66,143,0,,,,,
1,1789759369696,-1584,-665,10437,667064,-323758,127059,0,0,0,399,338,147,482,329,513,488,158,306,360,171,518,0,,,,,
2,1789759369696,3981,-4192,25211,-5948605,2283414,740368,0,0,0,137,107,119,177,98,228,192,117,177,99,69,148,0,,,,,
1,1789759369712,-1636,-765,10500,737925,-312763,141720,0,0,0,396,332,169,491,350,499,489,181,331,366,171,518,0,,,,,
2,1789759369712,3383,-6470,27274,-5903401,2476447,940732,0,0,0,139,108,116,183,95,230,193,113,178,93,64,150,0,,,,,
1,1789759369728,-1732,-861,10619,829554,-265115,162490,0,0,0,423,341,161,502,347,522,471,153,357,362,162,518,0,,,,,
2,1789759369728,368,-9820,28695,-6098878,2557081,1395216,0,0,0,144,115,120,180,98,228,195,115,180,93,63,144,0,,,,,
1,1789759369744,-1780,-952,10667,919963,-196698,188146,0,0,0,440,358,149,508,385,523,471,143,347,369,176,524,0,,,,,
2,1789759369744,-2474,-13749,28494,-6084217,2182010,1948660,0,0,0,141,111,119,178,95,228,195,115,179,92,60,140,0,,,,,
1,1789759369760,-1722,-1110,10634,1012814,-140499,212581,0,0,0,452,346,152,516,390,529,479,137,333,365,181,545,0,,,,,
2,1789759369760,-2072,-18588,25589,-5645616,1412320,2376265,0,0,0,139,110,115,181,102,233,197,120,182,87,60,142,0,,,,,
1,1789759369776,-1574,-1301,10653,1112996,-155159,213802,0,0,0,469,361,175,529,426,545,440,122,315,370,201,550,0,,,,,
2,1789759369776,3441,-27915,18779,-4846604,828333,1869247,0,0,0,137,113,114,186,110,240,198,126,182,87,62,143,0,,,,,
1,1789759369792,-1483,-1459,10806,1240056,-221133,201585,0,0,0,483,359,186,541,441,553,418,115,340,366,199,554,0,,,,,
2,1789759369792,5671,-39018,12160,-3766595,1265712,149051,0,0,0,136,115,116,185,106,237,198,134,184,89,70,144,0,,,,,
1,1789759369808,-1383,-1588,11074,1403768,-305432,175929,0,0,0,497,343,174,554,442,573,415,114,363,352,184,568,0,,,,,
2,1789759369808,-5943,-44163,10796,-2051285,2122145,-1810604,0,0,0,138,119,117,181,103,230,202,143,190,87,80,144,0,,,,,
1,1789759369824,-1311,-1737,11519,1621236,-367740,122173,0,0,0,507,351,169,564,449,584,402,112,356,358,184,581,0,,,,,
2,1789759369824,-19004,-40770,12601,-89186,1326799,-2329840,0,0,0,134,115,115,183,104,227,217,162,185,91,86,130,0,,,,,
1,1789759369840,-1622,-1876,12333,1910786,-409279,73303,0,0,0,518,360,178,561,456,569,395,114,351,373,185,583,0,,,,,
2,1789759369840,-16999,-28777,15979,1626123,-1352455,-1039692,0,0,0,122,97,110,178,96,210,272,245,179,118,146,109,0,,,,,
1,1789759369856,-2536,-1990,13328,2318844,-397062,120951,0,0,0,531,360,189,546,476,567,388,131,349,373,189,578,0,,,,,
2,1789759369856,1474,1095,19363,2900388,-3342654,257785,0,0,0,132,102,104,202,115,240,324,291,189,164,216,155,0,,,,,
1,1789759369872,-3168,-2081,14084,2862514,-320093,277332,0,0,0,517,391,212,534,487,561,374,154,330,379,204,567,0,,,,,
2,1789759369872,10480,18645,14089,3695734,-4329812,797790,0,0,0,155,94,95,225,98,245,365,335,197,232,252,167,0,,,,,
1,1789759369888,-2747,-2139,14568,3428175,-230907,450818,0,0,0,518,383,208,531,478,554,387,134,326,365,192,559,0,,,,,
2,1789759369888,4685,4776,8332,4206418,-4216191,1209513,0,0,0,171,110,95,232,136,266,373,437,205,228,337,187,0,,,,,
1,1789759369904,-2450,-2187,15386,4118453,-173485,536339,0,0,0,510,411,204,551,483,552,350,127,350,352,194,538,0,,,,,
2,1789759369904,-3895,-5470,13816,4555832,-2397035,2069611,0,0,0,187,109,102,246,125,265,424,501,199,336,467,188,0,,,,,
1,1789759369920,-3115,-2316,16008,4884478,-81855,646295,0,0,0,496,403,177,551,451,540,356,124,363,286,144,510,0,,,,,
2,1789759369920,-7949,-2373,20081,4462981,-1258382,1897347,0,0,0,205,116,110,251,119,262,468,525,199,368,491,174,0,,,,,
1,1789759369936,-3579,-2924,17181,5567425,80634,805120,0,0,0,451,399,184,505,446,505,332,117,332,286,128,454,0,,,,,
2,1789759369936,-5532,1024,20751,3690847,-1087340,605978,0,0,0,210,123,141,246,120,272,487,513,212,369,479,181,0,,,,,
1,1789759369952,-3828,-4962,20153,6225938,456927,923628,0,0,0,429,359,179,467,411,454,316,112,288,277,126,424,0,,,,,
2,1789759369952,-205,215,14146,1963320,-864985,-95294,0,0,0,222,122,159,242,116,252,516,490,198,399,450,186,0,,,,,
1,1789759369968,-4943,-6992,23488,6675535,831998,951728,0,0,0,413,307,160,433,346,409,302,108,250,253,109,407,0,,,,,
2,1789759369968,804,-201,9739,719599,-437379,37873,0,0,0,221,119,175,243,112,258,526,476,198,418,418,200,0,,,,,
1,1789759369984,-5896,-5967,24828,7011511,984714,1137431,0,0,0,355,282,157,378,313,379,294,106,220,223,114,374,0,,,,,
2,1789759369984,-296,114,9652,235793,-134390,168598,0,0,0,239,121,196,252,119,269,539,448,207,433,400,220,0,,,,,
1,1789759370000,-6082,-4302,25407,7425677,1221730,1424537,0,0,0,259,254,155,326,277,334,305,125,204,200,116,278,0,,,,,
2,1789759370000,-497,421,10346,182037,-83077,75747,0,0,0,264,135,232,260,149,277,553,424,221,436,386,252,0,,,,,
1,1789759370016,-8360,-1445,24120,7657806,1401324,1648114,0,0,0,208,226,152,307,250,305,323,135,188,196,119,217,0,,,,,
2,1789759370016,-143,488,10246,202807,-109955,0,0,0,0,274,147,245,266,182,296,571,408,246,433,364,289,0,,,,,
1,1789759370032,-11150,4790,18004,6928433,620639,1968207,0,0,0,204,212,158,305,239,305,345,138,187,196,120,203,0,,,,,
2,1789759370032,-14,478,10026,208915,-111177,-2443,0,0,0,285,154,230,283,191,320,590,377,256,424,327,334,0,,,,,
1,1789759370048,-8399,6953,13170,5375614,-189368,2389704,0,0,0,201,206,164,299,234,304,217,86,115,201,123,198,0,,,,,
2,1789759370048,-81,483,10050,222354,-81855,10995,0,0,0,304,169,226,307,197,334,589,321,242,396,277,383,0,,,,,
1,1789759370064,-4240,8399,10126,2833192,-332310,2327396,0,0,0,199,204,154,295,231,289,15,1,0,215,135,197,0,,,,,
2,1789759370064,-124,473,10141,262672,-53756,-6108,0,0,0,315,181,217,317,207,335,576,262,258,367,229,410,0,,,,,
1,1789759370080,-1560,8657,8762,-508239,265115,1563815,0,0,0,200,204,137,295,229,277,114,42,50,221,138,189,0,,,,,
2,1789759370080,-100,425,10169,321315,-43982,-24434,0,0,0,342,201,240,314,214,350,560,240,285,307,179,440,0,,,,,
1,1789759370096,-2349,6341,7987,-3131295,1073901,649960,0,0,0,202,198,134,298,226,279,343,139,168,218,132,188,0,,,,,
2,1789759370096,-28,344,10131,383623,-47647,-40317,0,0,0,349,211,222,336,244,376,549,183,292,271,147,433,0,,,,,
1,1789759370112,-4048,4560,6939,-4006054,1258382,321315,0,0,0,197,194,134,295,225,278,327,130,159,211,129,188,0,,,,,
2,1789759370112,-76,258,10145,392175,-15882,-43982,0,0,0,363,210,199,369,258,382,541,160,314,246,118,464,0,,,,,
1,1789759370128,-4915,4335,5881,-4251622,813672,376292,0,0,0,188,190,136,278,220,281,325,132,165,208,129,192,0,,,,,
2,1789759370128,-124,196,10275,410501,34208,-36651,0,0,0,369,218,191,379,259,392,547,136,353,236,108,477,0,,,,,
1,1789759370144,-4312,4556,6121,-4827057,282219,452040,0,0,0,223,190,133,296,212,272,347,132,165,225,128,190,0,,,,,
2,1789759370144,-71,148,10452,487470,103847,-31764,0,0,0,379,234,178,358,267,426,479,151,319,205,120,493,0,,,,,
1,1789759370160,-3570,3977,7116,-5464800,59864,450818,0,0,0,201,195,133,283,213,273,334,137,165,211,132,191,0,,,,,
2,1789759370160,-4,71,10452,596204,223576,-42760,0,0,0,400,227,159,383,268,414,498,121,316,221,106,500,0,,,,,
1,1789759370176,-3263,3034,8059,-5826432,117286,364075,0,0,0,191,199,141,282,215,282,326,136,175,210,133,204,0,,,,,
2,1789759370176,33,0,10346,646295,317649,-52534,0,0,0,397,205,134,396,278,408,489,113,342,226,86,518,0,,,,,
1,1789759370192,-3488,2469,8719,-5982814,106290,141720,0,0,0,189,195,143,281,217,287,333,141,175,210,136,204,0,,,,,
2,1789759370192,186,-100,10342,653625,335975,-64751,0,0,0,425,205,132,394,293,420,458,116,338,222,85,529,0,,,,,
1,1789759370208,-3900,2120,9504,-6100100,-131946,-149051,0,0,0,191,195,142,284,221,287,342,144,175,209,135,198,0,,,,,
2,1789759370208,344,-191,10390,662177,285884,-92851,0,0,0,429,208,132,407,301,399,442,111,329,227,86,525,0,,,,,
1,1789759370224,-4192,1641,10605,-6145304,-632856,-431270,0,0,0,194,197,143,287,224,285,347,145,176,209,135,194,0,,,,,
2,1789759370224,373,-296,10375,680503,174707,-127059,0,0,0,436,273,131,387,308,403,427,115,329,220,95,533,0,,,,,
1,1789759370240,-4192,1115,11859,-6115982,-1207069,-613308,0,0,0,195,200,142,287,226,287,350,149,179,210,136,194,0,,,,,
2,1789759370240,287,-387,10303,695164,50090,-147829,0,0,0,455,298,133,374,325,414,410,126,325,216,105,546,0,,,,,
1,1789759370256,-3737,598,13548,-6052452,-1803274,-658512,0,0,0,193,200,143,287,225,289,352,152,182,209,136,192,0,,,,,
2,1789759370256,181,-492,10227,701273,-32986,-141720,0,0,0,468,271,137,379,339,415,400,133,310,216,109,559,0,,,,,
1,1789759370272,-2780,229,15903,-6051231,-2194227,-561996,0,0,0,192,198,147,287,221,292,355,151,186,209,134,193,0,,,,,
2,1789759370272,162,-593,10227,713490,-47647,-123394,0,0,0,468,255,135,379,333,424,382,130,290,210,109,570,0,,,,,
1,1789759370288,-2010,43,18659,-6123313,-2370157,-439822,0,0,0,194,196,151,289,217,299,359,149,190,211,131,197,0,,,,,
2,1789759370288,177,-693,10212,734260,-45204,-113620,0,0,0,463,254,140,370,314,418,352,117,273,207,106,568,0,,,,,
1,1789759370304,-1785,-62,21976,-6260146,-2471560,-321315,0,0,0,194,191,150,293,213,297,361,145,190,214,127,196,0,,,,,
2,1789759370304,157,-804,10160,764803,-31764,-107512,0,0,0,467,275,156,347,310,406,337,110,272,210,101,585,0,,,,,
1,1789759370320,-1215,-1095,26551,-6504493,-2686585,-228463,0,0,0,196,191,148,296,213,298,360,142,188,214,125,195,0,,,,,
2,1789759370320,177,-933,10232,803898,-13439,-97738,0,0,0,483,270,153,362,336,432,350,129,286,214,106,624,0,,,,,
1,1789759370336,138,-4393,30375,-6800151,-2992017,-305432,0,0,0,198,191,148,298,212,298,361,138,187,216,124,192,0,,,,,
2,1789759370336,315,-1072,10404,864985,-1221,-97738,0,0,0,486,286,157,379,334,430,372,133,291,226,99,608,0,,,,,
1,1789759370352,3086,-10878,32725,-6979746,-3209485,-590095,0,0,0,213,191,140,327,212,297,371,134,181,229,122,190,0,,,,,
2,1789759370352,416,-1201,10557,954171,-2443,-119729,0,0,0,491,314,147,392,373,431,340,136,281,233,127,617,0,,,,,
1,1789759370368,5790,-17721,32122,-6816034,-2802649,-1029918,0,0,0,215,198,142,324,207,299,338,170,216,219,130,192,0,,,,,
2,1789759370368,440,-1311,10849,1067792,-6108,-147829,0,0,0,500,293,148,414,361,430,333,121,292,238,111,623,0,,,,,
1,1789759370384,1488,-25479,26455,-5973040,-1565036,-1345125,0,0,0,197,199,148,303,208,302,370,149,207,211,120,192,0,,,,,
2,1789759370384,344,-1397,11304,1226617,-13439,-169820,0,0,0,535,309,164,407,339,427,367,123,277,249,115,651,0,,,,,
1,1789759370400,-4680,-34180,18755,-4729318,-1473406,-767246,0,0,0,203,198,144,302,207,299,383,146,208,213,118,195,0,,,,,
2,1789759370400,143,-1512,11797,1479515,-21991,-158824,0,0,0,523,295,166,406,350,411,327,120,279,253,108,646,0,,,,,
1,1789759370416,1258,-41449,12462,-3139847,-3116634,807563,0,0,0,205,198,160,295,203,319,388,144,219,212,116,222,0,,,,,
2,1789759370416,148,-1646,12261,1750739,-15882,-127059,0,0,0,530,319,173,410,342,432,294,112,299,263,121,664,0,,,,,
1,1789759370432,21071,-41990,11012,-1380555,-2850297,1075122,0,0,0,207,205,154,308,219,314,356,151,203,253,137,205,0,,,,,
2,1789759370432,636,-1871,12749,2097711,-24434,-131946,0,0,0,541,350,168,394,349,412,341,122,284,249,115,652,0,,,,,
1,1789759370448,25857,-37080,11739,632856,349414,-436157,0,0,0,202,202,137,313,228,294,282,151,146,271,219,177,0,,,,,
2,1789759370448,880,-2057,13132,2486221,-70860,-196698,0,0,0,549,376,164,387,399,430,318,131,296,239,135,632,0,,,,,
1,1789759370464,3187,-15204,16563,2778215,2736676,-1218065,0,0,0,199,207,126,310,234,289,238,154,104,277,286,172,0,,,,,
2,1789759370464,689,-2163,13586,2875953,-164933,-261450,0,0,0,529,377,166,378,404,421,259,136,290,230,140,616,0,,,,,
1,1789759370480,-9480,10935,15970,4550946,3237585,-312763,0,0,0,199,219,122,310,248,300,283,221,125,282,327,181,0,,,,,
2,1789759370480,1129,-2431,14041,3352428,-304210,-327423,0,0,0,500,387,164,369,388,410,254,120,297,217,117,596,0,,,,,
1,1789759370496,-4934,5857,13160,4962669,2665815,293215,0,0,0,191,219,130,311,257,331,346,299,175,280,368,194,0,,,,,
2,1789759370496,1440,-2670,14400,3848451,-430049,-436157,0,0,0,483,378,150,364,391,408,227,107,287,201,115,559,0,,,,,
1,1789759370512,-411,-3957,14161,4787961,1091005,-401949,0,0,0,188,216,140,312,254,363,354,319,190,307,397,214,0,,,,,
2,1789759370512,1770,-3048,15065,4433659,-531452,-579100,0,0,0,439,382,131,348,378,385,187,100,260,196,120,527,0,,,,,
1,1789759370528,1756,-3752,17185,4342030,-197920,-1064127,0,0,0,203,216,139,316,234,348,386,368,185,369,422,218,0,,,,,
2,1789759370528,2608,-4350,16913,5090950,-480140,-761138,0,0,0,381,365,113,316,348,348,166,94,238,181,108,486,0,,,,,
1,1789759370544,938,-143,17985,3826459,120951,-182037,0,0,0,220,206,149,315,208,323,429,382,189,391,419,194,0,,,,,
2,1789759370544,3010,-6178,20239,5674938,-202807,-928515,0,0,0,343,303,105,280,309,320,155,92,215,153,94,419,0,,,,,
1,1789759370560,-1603,-119,16113,2809980,487470,475253,0,0,0,231,198,180,322,196,323,433,390,178,406,439,190,0,,,,,
2,1789759370560,1923,-6537,23981,6098878,141720,-1077566,0,0,0,304,236,111,241,233,288,151,87,185,142,86,353,0,,,,,
1,1789759370576,-2330,-1038,12285,1258382,373849,191811,0,0,0,230,201,212,312,235,334,460,442,223,406,431,202,0,,,,,
2,1789759370576,1335,-5269,25388,6431189,116064,-1198517,0,0,0,267,166,108,215,168,253,153,86,172,131,68,280,0,,,,,
1,1789759370592,-1588,-770,10189,299323,146607,-123394,0,0,0,265,223,255,343,239,348,442,398,209,431,427,221,0,,,,,
2,1789759370592,2785,-2613,25120,6882007,-317649,-1358564,0,0,0,218,122,96,189,111,208,161,94,154,107,53,176,0,,,,,
1,1789759370608,-957,124,9887,26878,8552,-129503,0,0,0,272,240,270,348,238,354,444,407,217,434,431,240,0,,,,,
2,1789759370608,6068,2330,21574,7017619,-637743,-1618792,0,0,0,171,120,99,172,110,192,162,109,159,80,54,111,0,,,,,
1,1789759370624,-1316,201,10179,156381,17104,-2443,0,0,0,278,268,279,366,252,373,432,365,204,447,433,251,0,,,,,
2,1789759370624,8686,6867,14754,6414085,-357967,-1979203,0,0,0,166,152,102,171,147,194,167,120,161,79,62,113,0,,,,,
1,1789759370640,-1497,86,10160,182037,7330,18325,0,0,0,290,288,291,385,276,390,424,319,178,445,414,286,0,,,,,
2,1789759370640,8470,8829,9054,4587597,608421,-2409252,0,0,0,173,107,96,197,112,198,168,128,161,84,55,106,0,,,,,
1,1789759370656,-1426,67,10064,142942,-23212,-3665,0,0,0,303,308,322,390,309,411,431,334,213,430,393,313,0,,,,,
2,1789759370656,3618,9796,9691,1215621,1137431,-2265088,0,0,0,160,116,104,176,99,198,163,115,155,84,56,106,0,,,,,
1,1789759370672,-1368,105,10064,131946,-48869,-2443,0,0,0,314,310,331,400,308,428,428,321,226,434,367,336,0,,,,,
2,1789759370672,-105,8738,10725,-1936442,504574,-1519832,0,0,0,159,111,108,166,101,204,172,121,163,77,49,114,0,,,,,
1,1789759370688,-1373,100,10083,146607,-69638,13439,0,0,0,320,316,324,412,292,439,408,244,196,440,352,360,0,,,,,
2,1789759370688,861,5963,8887,-3174055,-561996,-623082,0,0,0,157,112,106,162,107,199,170,119,162,72,41,111,0,,,,,
1,1789759370704,-1387,81,10098,169820,-107512,19547,0,0,0,329,323,327,419,291,441,395,175,186,443,340,379,0,,,,,
2,1789759370704,2464,4919,6671,-3404962,-807563,-116064,0,0,0,159,111,100,164,101,204,173,114,159,85,58,123,0,,,,,
1,1789759370720,-1402,71,10088,183259,-146607,21991,0,0,0,336,321,333,427,294,449,404,174,220,436,313,405,0,,,,,
2,1789759370720,2641,5441,6116,-3684739,-421497,140499,0,0,0,157,108,98,163,100,199,175,119,163,85,64,128,0,,,,,
1,1789759370736,-1435,28,10054,191811,-169820,30543,0,0,0,330,327,329,439,305,469,425,217,280,405,278,437,0,,,,,
2,1789759370736,1785,5642,7245,-4416555,-30543,403171,0,0,0,156,111,99,158,98,194,178,121,167,80,59,124,0,,,,,
1,1789759370752,-1454,-9,10050,207694,-174707,39095,0,0,0,337,337,320,455,338,471,439,221,321,384,233,451,0,,,,,
2,1789759370752,1411,5053,8207,-5004208,97738,643851,0,0,0,151,111,99,158,99,198,180,122,167,78,54,124,0,,,,,
1,1789759370768,-1459,-38,10083,233350,-174707,45204,0,0,0,339,337,290,448,325,466,461,218,330,376,210,464,0,,,,,
2,1789759370768,2029,4163,8671,-5329188,153938,810007,0,0,0,147,107,99,163,101,203,179,122,168,81,54,126,0,,,,,
1,1789759370784,-1478,-71,10098,276111,-182037,48869,0,0,0,333,360,267,448,334,462,482,241,354,356,226,467,0,,,,,
2,1789759370784,2876,3536,9212,-5540547,438601,872315,0,0,0,149,106,104,165,98,204,177,117,169,82,57,127,0,,,,,
1,1789759370800,-1483,-119,10088,312763,-186924,51312,0,0,0,352,339,269,463,337,476,482,252,363,355,219,467,0,,,,,
2,1789759370800,2952,3134,10346,-5742133,944397,862541,0,0,0,155,109,109,169,91,204,192,115,169,87,58,127,0,,,,,
1,1789759370816,-1493,-172,10117,348193,-190589,51312,0,0,0,366,355,239,493,361,485,431,183,313,377,197,454,0,,,,,
2,1789759370816,2263,2861,11959,-5969375,1293812,897971,0,0,0,157,107,105,183,91,206,213,115,170,100,61,127,0,,,,,
1,1789759370832,-1517,-224,10193,387288,-199142,51312,0,0,0,402,326,219,501,358,490,432,174,316,363,184,461,0,,,,,
2,1789759370832,2201,2565,13668,-6228381,1534493,1000597,0,0,0,149,104,105,174,97,214,183,108,168,81,61,121,0,,,,,
1,1789759370848,-1560,-277,10270,436157,-222354,57421,0,0,0,397,361,197,497,378,489,428,157,336,358,179,468,0,,,,,
2,1789759370848,2440,1469,15539,-6361550,1826487,1145983,0,0,0,149,105,106,170,88,217,188,111,172,78,56,127,0,,,,,
1,1789759370864,-1612,-349,10270,496022,-272445,76969,0,0,0,387,368,184,494,371,495,441,157,344,354,175,478,0,,,,,
2,1789759370864,2359,-239,17817,-6233268,2119702,1315803,0,0,0,150,110,98,185,98,243,199,122,162,83,57,136,0,,,,,
1,1789759370880,-1627,-430,10232,548556,-299323,95294,0,0,0,395,358,173,501,372,494,437,159,334,364,171,478,0,,,,,
2,1789759370880,2555,-1507,20267,-5922949,2233323,1428202,0,0,0,140,140,92,193,177,244,188,152,160,86,92,135,0,,,,,
1,1789759370896,-1665,-516,10232,587652,-278554,102625,0,0,0,397,335,166,510,375,503,422,146,316,379,173,473,0,,,,,
2,1789759370896,3306,-2287,23220,-5751907,2167349,1425759,0,0,0,132,104,98,189,109,235,200,143,181,89,82,142,0,,,,,
1,1789759370912,-1698,-598,10251,626747,-251676,109955,0,0,0,403,323,161,519,381,507,430,153,302,371,184,484,0,,,,,
2,1789759370912,3522,-3531,25680,-5898514,1970651,1448972,0,0,0,132,105,102,189,108,240,197,141,181,91,79,147,0,,,,,
1,1789759370928,-1722,-674,10260,658512,-235793,119729,0,0,0,418,325,162,523,387,511,454,160,317,360,181,505,0,,,,,
2,1789759370928,3077,-6456,27130,-6352998,1689653,1650557,0,0,0,129,104,100,192,109,240,200,139,173,89,77,140,0,,,,,
1,1789759370944,-1722,-775,10265,689055,-217468,127059,0,0,0,438,341,171,519,389,521,467,149,346,366,172,518,0,,,,,
2,1789759370944,2818,-10863,27039,-6451958,1486845,1926668,0,0,0,130,107,97,186,110,240,198,139,176,85,81,142,0,,,,,
1,1789759370960,-1746,-875,10375,728151,-210137,131946,0,0,0,454,371,174,512,398,530,465,143,365,372,178,519,0,,,,,
2,1789759370960,2742,-14572,25991,-6062226,1339016,2089159,0,0,0,135,108,101,192,104,237,200,128,180,90,72,142,0,,,,,
1,1789759370976,-1823,-985,10581,805120,-216246,144164,0,0,0,446,368,165,507,415,546,457,143,370,365,183,528,0,,,,,
2,1789759370976,3105,-18458,22962,-5281540,1172861,2091602,0,0,0,144,111,104,191,99,237,195,118,176,94,71,138,0,,,,,
1,1789759370992,-1885,-1095,10715,922406,-232128,167377,0,0,0,455,362,171,533,439,561,382,106,297,384,205,536,0,,,,,
2,1789759370992,4245,-24321,18655,-4447098,1110553,1662775,0,0,0,142,110,101,198,102,244,194,111,174,93,65,140,0,,,,,
1,1789759371008,-1885,-1225,10729,1040914,-252898,189368,0,0,0,466,375,166,538,446,559,398,139,361,400,221,551,0,,,,,
2,1789759371008,3776,-32433,13864,-3364645,1466076,371406,0,0,0,140,111,102,199,106,247,199,113,179,89,58,139,0,,,,,
1,1789759371024,-1770,-1368,10658,1159422,-278554,200363,0,0,0,479,352,159,542,415,575,402,170,335,379,215,566,0,,,,,
2,1789759371024,-6379,-37037,11710,-1782504,2015855,-1326799,0,0,0,143,114,106,196,106,245,202,116,182,94,65,141,0,,,,,
1,1789759371040,-1703,-1521,10787,1286482,-285884,179594,0,0,0,492,346,160,547,439,571,396,180,335,382,199,584,0,,,,,
2,1789759371040,-16391,-34108,12122,-265115,1205847,-1694540,0,0,0,143,113,103,205,104,242,204,132,175,105,79,135,0,,,,,
1,1789759371056,-1957,-1651,11332,1437976,-252898,160046,0,0,0,508,355,185,554,440,567,420,183,353,373,208,589,0,,,,,
2,1789759371056,-13486,-26159,12830,1080009,-818559,-800233,0,0,0,138,102,97,207,100,234,224,172,172,117,96,125,0,,,,,
1,1789759371072,-2502,-1780,12242,1727526,-180816,202807,0,0,0,519,369,178,546,466,554,387,164,334,379,214,587,0,,,,,
2,1789759371072,-3239,-13510,16453,2199114,-2142915,-34208,0,0,0,131,89,100,185,103,227,273,222,183,141,144,144,0,,,,,
1,1789759371088,-2876,-1914,13141,2153910,-107512,318871,0,0,0,519,370,178,551,484,554,356,125,330,396,217,578,0,,,,,
2,1789759371088,5776,8944,17879,3186273,-2660928,150272,0,0,0,152,97,111,202,109,244,319,293,181,175,207,160,0,,,,,
1,1789759371104,-2517,-2033,13730,2685363,-58643,444709,0,0,0,527,380,179,557,507,554,329,107,311,385,207,571,0,,,,,
2,1789759371104,5723,11194,11562,3802025,-3341432,300545,0,0,0,172,100,100,224,108,240,377,320,185,221,289,176,0,,,,,
1,1789759371120,-1871,-2115,14328,3230255,-69638,489913,0,0,0,527,391,179,542,519,549,323,125,321,368,203,562,0,,,,,
2,1789759371120,2191,-660,9834,4155105,-2965139,1006705,0,0,0,169,109,129,215,127,273,339,391,198,224,363,192,0,,,,,
1,1789759371136,-1847,-2148,14922,3843564,-97738,467922,0,0,0,517,415,190,521,522,545,326,134,345,361,208,547,0,,,,,
2,1789759371136,-1344,-4599,13864,4174653,-1404990,1988977,0,0,0,192,125,106,234,144,260,416,436,202,250,394,183,0,,,,,
1,1789759371152,-2474,-2263,15314,4586376,-39095,504574,0,0,0,501,427,202,515,505,545,310,122,351,350,200,522,0,,,,,
2,1789759371152,-4843,-19,16616,3794694,-733038,1715309,0,0,0,204,116,119,243,116,284,428,425,214,311,415,192,0,,,,,
1,1789759371168,-3105,-2751,16027,5321857,87964,612086,0,0,0,474,405,198,517,481,541,265,101,319,333,180,488,0,,,,,
2,1789759371168,-4929,1320,17219,3197268,-862541,476474,0,0,0,204,108,123,250,108,272,448,434,200,359,431,197,0,,,,,
1,1789759371184,-3603,-4206,17803,5942497,280998,748920,0,0,0,450,393,194,501,474,515,243,76,248,320,165,461,0,,,,,
2,1789759371184,-626,9,14663,2252871,-882089,-129503,0,0,0,214,102,124,251,98,269,488,417,199,397,442,208,0,,,,,
1,1789759371200,-4192,-5939,20665,6491054,497244,844215,0,0,0,427,348,194,477,384,476,300,94,287,300,132,436,0,,,,,
2,1789759371200,804,-67,11730,1409876,-614530,0,0,0,0,227,110,151,238,92,277,500,420,225,388,432,213,0,,,,,
1,1789759371216,-4972,-5800,23589,6960198,518013,927293,0,0,0,408,305,177,455,347,435,303,106,265,281,128,415,0,,,,,
2,1789759371216,-143,521,9944,781907,-300545,217468,0,0,0,218,116,175,230,98,258,521,419,217,412,458,200,0,,,,,
1,1789759371232,-5173,-4953,25718,7568620,401949,1120326,0,0,0,341,265,156,392,302,381,271,94,210,247,120,396,0,,,,,
2,1789759371232,-478,378,10251,434936,-196698,106290,0,0,0,227,129,229,227,102,260,530,413,210,424,463,227,0,,,,,
1,1789759371248,-5843,-4245,25570,8232019,372627,1390329,0,0,0,249,254,160,325,264,335,276,101,165,223,119,299,0,,,,,
2,1789759371248,-272,177,10361,160046,-139277,18325,0,0,0,238,136,278,236,115,280,532,403,212,436,458,231,0,,,,,
1,1789759371264,-9389,-521,20976,8163603,136833,1707979,0,0,0,207,206,164,291,219,306,308,113,175,210,114,231,0,,,,,
2,1789759371264,-100,320,10098,58643,-112399,6108,0,0,0,257,142,292,248,122,285,542,397,213,448,451,222,0,,,,,
1,1789759371280,-10969,4125,16271,7425677,-679282,2262644,0,0,0,216,210,176,292,209,308,69,20,33,206,127,216,0,,,,,
2,1789759371280,-105,507,9959,68416,-108734,9773,0,0,0,277,148,293,257,125,283,555,393,214,449,441,224,0,,,,,
1,1789759371296,-8351,4278,13079,6527705,-1180191,2968805,0,0,0,225,205,164,304,210,300,17,0,0,221,129,209,0,,,,,
2,1789759371296,-143,555,10011,94073,-109955,6108,0,0,0,277,168,280,259,179,284,556,390,221,459,435,223,0,,,,,
1,1789759371312,-3565,6020,9432,4201531,-616973,2755002,0,0,0,219,202,154,300,208,286,237,100,124,213,129,196,0,,,,,
2,1789759371312,-148,531,10054,100181,-98960,1221,0,0,0,281,180,245,261,214,279,565,366,228,479,417,231,0,,,,,
1,1789759371328,-459,8394,7537,637743,458148,1563815,0,0,0,216,197,157,294,203,285,326,136,178,205,122,192,0,,,,,
2,1789759371328,-143,512,10050,107512,-79412,0,0,0,0,286,172,239,271,182,289,572,324,228,485,400,242,0,,,,,
1,1789759371344,-1909,6838,7508,-2648711,1633453,324980,0,0,0,220,192,156,292,196,289,278,103,145,213,122,189,0,,,,,
2,1789759371344,-138,497,10045,122173,-61086,0,0,0,0,286,210,243,274,213,292,563,321,221,470,400,246,0,,,,,
1,1789759371360,-4757,4379,7418,-4719544,2124589,-261450,0,0,0,224,190,153,292,192,285,181,76,120,217,124,184,0,,,,,
2,1789759371360,-110,469,10050,140499,-56199,-4886,0,0,0,300,225,257,268,231,281,555,313,222,436,376,263,0,,,,,
1,1789759371376,-6235,3278,7571,-5926614,1696983,-290771,0,0,0,220,189,152,291,190,274,188,95,144,212,120,183,0,,,,,
2,1789759371376,-100,454,10059,172263,-64751,-14660,0,0,0,329,202,292,285,242,297,540,316,228,399,347,275,0,,,,,
1,1789759371392,-5790,2483,8834,-6925990,891863,-217468,0,0,0,217,183,153,284,183,272,354,132,172,214,118,185,0,,,,,
2,1789759371392,-105,430,10059,212581,-76969,-24434,0,0,0,308,201,287,275,205,331,529,269,264,362,293,301,0,,,,,
1,1789759371408,-5154,1052,9772,-7226535,254119,-57421,0,0,0,218,180,169,295,187,287,339,127,174,214,120,190,0,,,,,
2,1789759371408,-129,387,10035,229685,-76969,-30543,0,0,0,337,216,301,293,217,318,529,253,231,343,252,330,0,,,,,
1,1789759371424,-4340,253,9863,-6995628,-158824,129503,0,0,0,210,186,157,285,185,279,337,125,167,218,125,188,0,,,,,
2,1789759371424,-157,344,10035,208915,-58643,-29321,0,0,0,341,223,292,290,225,329,506,232,245,273,196,348,0,,,,,
1,1789759371440,-2943,583,9696,-6673091,-410501,174707,0,0,0,206,217,158,286,199,287,277,98,139,218,131,193,0,,,,,
2,1789759371440,-143,315,10078,200363,-39095,-24434,0,0,0,342,246,319,306,244,335,497,238,265,253,164,364,0,,,,,
1,1789759371456,-1636,1177,10404,-6681643,-461814,-125838,0,0,0,206,218,166,283,201,289,315,124,169,215,132,195,0,,,,,
2,1789759371456,-119,291,10131,226020,-28099,-28099,0,0,0,384,245,317,302,267,347,494,214,277,241,156,402,0,,,,,
1,1789759371472,-1344,1249,11543,-6762278,-436157,-564439,0,0,0,207,230,150,291,210,283,299,156,192,215,132,191,0,,,,,
2,1789759371472,-119,263,10189,283441,-20769,-36651,0,0,0,387,240,302,322,243,390,483,197,277,235,134,407,0,,,,,
1,1789759371488,-2201,861,12768,-6758613,-564439,-938289,0,0,0,210,231,154,292,211,285,337,140,178,215,134,191,0,,,,,
2,1789759371488,-114,205,10256,370184,-2443,-42760,0,0,0,382,240,299,330,272,398,481,180,290,228,120,432,0,,,,,
1,1789759371504,-2775,368,14070,-6646213,-1043357,-1042136,0,0,0,210,230,157,292,211,287,341,131,173,217,131,191,0,,,,,
2,1789759371504,-86,119,10332,478918,41538,-48869,0,0,0,401,258,296,332,280,387,464,137,306,223,110,459,0,,,,,
1,1789759371520,-2541,-162,15893,-6519153,-1566258,-1007927,0,0,0,208,226,156,294,211,286,342,126,169,221,131,191,0,,,,,
2,1789759371520,-33,43,10433,579100,129503,-61086,0,0,0,438,266,264,340,280,394,443,115,309,214,100,468,0,,,,,
1,1789759371536,-1799,-521,18391,-6486167,-1863138,-856433,0,0,0,209,227,161,293,212,287,349,131,175,219,133,191,0,,,,,
2,1789759371536,33,-14,10557,678060,216246,-81855,0,0,0,458,258,209,346,293,396,434,121,308,211,94,483,0,,,,,
1,1789759371552,-1541,-789,21349,-6708522,-1877799,-719599,0,0,0,210,230,158,290,213,284,352,135,179,216,134,190,0,,,,,
2,1789759371552,95,-95,10715,794124,266337,-109955,0,0,0,468,262,166,357,310,393,430,132,311,215,98,509,0,,,,,
1,1789759371568,-1450,-2014,24536,-7105584,-1921782,-736703,0,0,0,210,230,152,292,215,282,355,140,179,215,135,190,0,,,,,
2,1789759371568,62,-196,10777,907745,246789,-124616,0,0,0,469,290,147,377,329,404,420,138,312,214,103,524,0,,,,,
1,1789759371584,-914,-5939,27561,-7430564,-2054950,-1028697,0,0,0,207,228,147,294,218,284,362,139,177,217,134,190,0,,,,,
2,1789759371584,28,-311,10815,1009149,197920,-124616,0,0,0,448,311,137,395,341,418,411,136,308,209,97,535,0,,,,,
1,1789759371600,-201,-10973,29126,-7340156,-2074498,-1357342,0,0,0,210,227,144,295,218,284,368,133,175,222,132,189,0,,,,,
2,1789759371600,134,-459,11031,1127657,153938,-113620,0,0,0,471,284,142,416,354,435,406,138,311,211,98,558,0,,,,,
1,1789759371616,-425,-16649,28174,-6734178,-1705535,-1618792,0,0,0,214,216,165,298,207,296,364,126,183,226,125,195,0,,,,,
2,1789759371616,325,-636,11395,1296256,133168,-122173,0,0,0,505,260,143,422,378,440,379,143,299,222,99,573,0,,,,,
1,1789759371632,-2948,-21928,25015,-5900958,-1164309,-1732413,0,0,0,211,195,183,303,195,314,355,115,194,228,115,202,0,,,,,
2,1789759371632,459,-799,11859,1525941,131946,-157603,0,0,0,523,291,141,405,390,435,371,134,292,221,108,595,0,,,,,
1,1789759371648,-8375,-27896,18736,-4647462,-1174082,-1285260,0,0,0,215,189,155,307,198,312,339,111,175,229,118,199,0,,,,,
2,1789759371648,483,-909,12380,1808161,120951,-194255,0,0,0,547,318,153,387,406,419,367,142,288,225,140,607,0,,,,,
1,1789759371664,-4374,-31916,14730,-3422067,-2599842,-73303,0,0,0,209,194,154,303,202,312,313,108,161,220,122,203,0,,,,,
2,1789759371664,464,-1024,12945,2128254,97738,-218689,0,0,0,540,323,140,391,369,421,342,132,283,234,132,620,0,,,,,
1,1789759371680,8518,-33783,12562,-1924225,-3324328,853989,0,0,0,212,194,152,303,202,312,342,119,177,219,120,204,0,,,,,
2,1789759371680,617,-1201,13529,2527760,50090,-243124,0,0,0,564,331,153,374,392,414,305,140,267,235,145,632,0,,,,,
1,1789759371696,15156,-31830,11730,-459370,-1414763,317649,0,0,0,216,196,168,322,216,301,369,154,180,254,178,200,0,,,,,
2,1789759371696,679,-1330,13821,2996904,7330,-294437,0,0,0,539,346,154,363,392,437,281,138,270,211,139,631,0,,,,,
1,1789759371712,9404,-27475,13448,965167,717155,-384845,0,0,0,187,200,119,299,232,285,304,217,134,284,306,171,0,,,,,
2,1789759371712,282,-1387,14032,3468492,-24434,-328645,0,0,0,540,367,155,367,379,428,290,124,271,223,117,626,0,,,,,
1,1789759371728,-1052,-12390,14926,3090978,1753183,-322536,0,0,0,200,220,117,309,251,297,331,295,147,284,363,168,0,,,,,
2,1789759371728,325,-1550,14309,3998723,-91629,-311541,0,0,0,529,397,151,394,396,433,253,123,307,204,115,579,0,,,,,
1,1789759371744,-4967,6245,12892,5583308,2178345,419053,0,0,0,202,226,129,315,259,330,365,350,192,295,383,190,0,,,,,
2,1789759371744,1067,-1928,14553,4585154,-185703,-349414,0,0,0,503,399,151,379,402,434,214,115,301,190,110,564,0,,,,,
1,1789759371760,-3239,1727,15285,6081774,1794722,271224,0,0,0,211,227,134,328,272,345,391,372,207,313,407,193,0,,,,,
2,1789759371760,1612,-2354,15333,5172806,-276111,-475253,0,0,0,447,410,128,371,401,416,196,109,277,192,111,527,0,,,,,
1,1789759371776,-961,-2952,19109,5137376,625526,-466701,0,0,0,207,217,132,328,267,349,391,384,193,339,425,196,0,,,,,
2,1789759371776,1995,-3436,17750,5875301,-315206,-645073,0,0,0,411,380,118,360,366,394,184,116,269,195,115,493,0,,,,,
1,1789759371792,784,-1995,19736,4157548,101403,-492357,0,0,0,219,207,130,324,239,342,418,419,195,389,438,200,0,,,,,
2,1789759371792,1765,-5312,21813,6535036,-211359,-744033,0,0,0,372,313,115,316,315,361,169,111,241,183,107,444,0,,,,,
1,1789759371808,-100,449,16721,3321885,277332,194255,0,0,0,245,211,143,324,217,335,452,450,207,425,447,204,0,,,,,
2,1789759371808,1153,-6049,25953,7023728,186924,-722042,0,0,0,325,246,108,257,260,320,158,100,207,156,86,370,0,,,,,
1,1789759371824,-2158,177,12983,2324953,399505,321315,0,0,0,256,214,169,328,212,338,456,455,213,439,453,210,0,,,,,
2,1789759371824,248,-4661,28604,7517307,361632,-745255,0,0,0,283,184,110,216,191,285,155,100,189,132,71,291,0,,,,,
1,1789759371840,-2249,-335,10820,1290147,355523,50090,0,0,0,262,201,198,335,213,345,456,448,215,462,462,222,0,,,,,
2,1789759371840,1986,-1363,28772,8181929,92851,-829554,0,0,0,215,134,108,192,135,250,157,109,173,105,63,189,0,,,,,
1,1789759371856,-1383,-392,10476,509461,261450,-119729,0,0,0,270,211,238,335,218,353,443,422,193,462,462,244,0,,,,,
2,1789759371856,6714,5010,22675,8271115,280998,-1095892,0,0,0,158,117,102,181,114,229,166,129,180,81,59,120,0,,,,,
1,1789759371872,-1277,-57,10418,183259,183259,-59864,0,0,0,261,212,271,313,192,357,471,468,235,472,472,217,0,,,,,
2,1789759371872,9160,10705,13859,7016398,1051909,-1557706,0,0,0,151,118,101,178,111,228,173,130,183,82,62,126,0,,,,,
1,1789759371888,-1387,224,10160,70860,117286,-10995,0,0,0,276,236,297,328,209,354,457,436,203,475,475,233,0,,,,,
2,1789759371888,6752,12998,9389,4013384,1714087,-1734857,0,0,0,158,111,106,169,110,225,177,128,186,90,70,128,0,,,,,
1,1789759371904,-1397,277,10035,72082,72082,-7330,0,0,0,291,254,330,354,246,365,432,367,173,473,473,262,0,,,,,
2,1789759371904,1876,12687,10921,-518013,1083674,-842994,0,0,0,158,103,115,174,93,227,179,122,189,85,53,124,0,,,,,
1,1789759371920,-1344,263,10059,73303,37873,-7330,0,0,0,284,255,350,343,242,378,445,406,201,471,470,255,0,,,,,
2,1789759371920,1531,8609,12093,-3995058,-263893,412944,0,0,0,158,103,107,176,92,228,174,127,188,97,68,144,0,,,,,
1,1789759371936,-1325,277,10078,78190,6108,-1221,0,0,0,299,348,320,338,284,358,421,345,154,471,471,252,0,,,,,
2,1789759371936,4709,5154,9600,-4334699,-526565,785572,0,0,0,159,108,112,175,96,228,187,130,195,98,70,148,0,,,,,
1,1789759371952,-1311,291,10069,95294,-23212,2443,0,0,0,319,300,349,347,276,370,413,310,158,464,464,260,0,,,,,
2,1789759371952,4919,4804,7619,-4291939,-32986,607200,0,0,0,161,114,118,175,101,228,200,133,203,99,73,152,0,,,,,
1,1789759371968,-1306,291,10031,122173,-45204,2443,0,0,0,315,303,337,346,266,360,418,311,173,463,452,247,0,,,,,
2,1789759371968,2316,5652,8102,-4822170,432492,298102,0,0,0,150,120,108,175,114,232,186,137,192,87,68,145,0,,,,,
1,1789759371984,-1296,277,10031,151494,-59864,1221,0,0,0,310,315,349,349,269,366,423,307,202,454,410,263,0,,,,,
2,1789759371984,220,5034,9806,-5742133,300545,136833,0,0,0,150,127,115,170,123,233,183,139,194,97,81,155,0,,,,,
1,1789759372000,-1311,244,10026,166155,-67195,4886,0,0,0,308,334,358,345,300,387,420,292,211,443,375,279,0,,,,,
2,1789759372000,57,3838,10437,-6169738,171042,2443,0,0,0,150,131,113,169,128,233,181,138,191,90,74,151,0,,,,,
1,1789759372016,-1354,215,10021,171042,-73303,14660,0,0,0,328,343,368,352,323,403,416,267,219,432,351,295,0,,,,,
2,1789759372016,248,3235,10586,-6119647,536339,-184481,0,0,0,150,131,112,169,128,231,182,133,191,89,72,152,0,,,,,
1,1789759372032,-1387,181,10021,173485,-73303,31764,0,0,0,341,347,390,366,330,426,418,254,232,418,336,322,0,,,,,
2,1789759372032,-550,3335,11438,-6054896,1048244,-291993,0,0,0,153,121,117,171,107,240,184,128,194,88,68,147,0,,,,,
1,1789759372048,-1359,153,10026,178372,-67195,45204,0,0,0,349,349,405,378,319,450,430,256,251,412,317,350,0,,,,,
2,1789759372048,-1876,3689,13065,-6134308,1363451,-232128,0,0,0,154,113,118,175,94,246,186,123,193,88,64,142,0,,,,,
1,1789759372064,-1311,129,10088,197920,-68416,46425,0,0,0,376,351,398,386,299,458,440,246,279,419,280,378,0,,,,,
2,1789759372064,-2383,3776,14974,-6417750,1440420,1221,0,0,0,158,113,120,175,92,250,186,120,195,89,67,145,0,,,,,
1,1789759372080,-1330,110,10150,233350,-76969,47647,0,0,0,381,376,385,389,339,464,431,228,285,401,273,422,0,,,,,
2,1789759372080,-2187,2857,16908,-6680422,1517389,280998,0,0,0,158,109,122,174,90,254,191,120,201,88,68,150,0,,,,,
1,1789759372096,-1387,67,10165,280998,-80634,54977,0,0,0,401,383,354,417,386,451,421,224,271,369,287,442,0,,,,,
2,1789759372096,-1804,727,18913,-6504493,1650557,442266,0,0,0,150,102,118,177,85,254,204,120,206,86,63,149,0,,,,,
1,1789759372112,-1387,14,10189,332310,-64751,68416,0,0,0,432,360,367,437,377,453,448,209,299,363,235,464,0,,,,,
2,1789759372112,-1258,-1052,21196,-6146526,1705535,469144,0,0,0,150,106,120,177,86,254,206,125,209,87,62,147,0,,,,,
1,1789759372128,-1402,-23,10260,397062,-46425,84299,0,0,0,459,423,336,450,390,476,406,165,276,383,219,449,0,,,,,
2,1789759372128,-516,-2225,23536,-6013357,1655444,390953,0,0,0,151,117,127,180,109,256,205,131,206,90,68,149,0,,,,,
1,1789759372144,-1407,-81,10366,483805,-31764,103847,0,0,0,468,430,338,466,426,470,398,126,239,377,222,453,0,,,,,
2,1789759372144,-502,-4130,25838,-6333450,1508837,408057,0,0,0,152,126,130,176,120,253,210,131,209,92,69,147,0,,,,,
1,1789759372160,-1416,-167,10519,603534,0,125838,0,0,0,465,407,303,482,423,473,416,175,287,367,220,469,0,,,,,
2,1789759372160,-1086,-7394,27465,-6761056,1204626,678060,0,0,0,144,130,126,177,134,256,209,130,209,96,73,155,0,,,,,
1,1789759372176,-1416,-244,10815,736703,40317,147829,0,0,0,474,425,227,479,437,464,439,197,299,357,221,480,0,,,,,
2,1789759372176,-1067,-11940,27126,-6732956,818559,1255938,0,0,0,143,136,128,172,141,259,203,124,209,108,99,162,0,,,,,
1,1789759372192,-1373,-287,11179,878424,35430,158824,0,0,0,492,426,188,502,451,465,414,170,272,371,222,495,0,,,,,
2,1789759372192,129,-16195,25211,-6240599,475253,1816713,0,0,0,137,131,175,171,135,291,204,123,235,142,114,187,0,,,,,
1,1789759372208,-1368,-402,11385,1036027,4886,172263,0,0,0,495,425,180,498,469,472,420,179,288,372,221,504,0,,,,,
2,1789759372208,3125,-20531,21493,-5462356,183259,2101376,0,0,0,137,130,124,171,149,259,202,123,207,116,114,165,0,,,,,
1,1789759372224,-1402,-555,11572,1227839,-23212,189368,0,0,0,491,428,183,496,481,485,430,191,299,366,219,507,0,,,,,
2,1789759372224,6489,-26331,16831,-4585154,291993,1654223,0,0,0,138,119,121,176,104,260,203,109,209,113,97,162,0,,,,,
1,1789759372240,-1469,-717,11686,1473406,-51312,217468,0,0,0,497,419,191,498,482,487,395,171,279,371,227,510,0,,,,,
2,1789759372240,3431,-33907,13591,-3381749,1106887,69638,0,0,0,139,111,121,178,93,260,205,113,209,108,95,160,0,,,,,
1,1789759372256,-1273,-928,11514,1681101,-87964,241902,0,0,0,511,416,191,493,484,483,369,155,266,374,233,525,0,,,,,
2,1789759372256,-6058,-38181,12840,-2021963,1412320,-1285260,0,0,0,139,109,121,179,94,261,203,111,209,111,96,162,0,,,,,
1,1789759372272,-1038,-1095,11548,1859473,-116064,232128,0,0,0,520,433,190,506,494,479,383,162,266,371,231,544,0,,,,,
2,1789759372272,-13036,-36611,12845,-397062,216246,-1433089,0,0,0,127,99,111,179,87,245,228,151,201,107,96,139,0,,,,,
1,1789759372288,-1210,-1249,12175,2090380,-108734,191811,0,0,0,524,444,197,508,499,471,380,166,264,371,233,547,0,,,,,
2,1789759372288,-9361,-30279,14596,1062905,-1345125,-814894,0,0,0,139,96,106,188,91,243,273,210,197,136,152,135,0,,,,,
1,1789759372304,-1895,-1421,13041,2384817,-39095,204028,0,0,0,531,443,204,474,484,480,361,163,270,362,227,540,0,,,,,
2,1789759372304,789,-11428,19267,2690250,-2278527,-306654,0,0,0,161,99,106,202,98,249,315,257,198,192,232,149,0,,,,,
1,1789759372320,-2397,-1631,13730,2825862,87964,331088,0,0,0,522,420,225,491,478,485,309,136,268,355,220,518,0,,,,,
2,1789759372320,6331,8217,14501,4312708,-3108082,-189368,0,0,0,175,100,106,216,104,269,342,328,213,226,314,173,0,,,,,
1,1789759372336,-2220,-1785,14352,3320663,216246,481361,0,0,0,522,442,252,479,485,489,310,150,293,338,202,507,0,,,,,
2,1789759372336,4891,5197,11103,5083620,-3299894,348193,0,0,0,189,104,112,230,111,290,375,420,221,254,384,199,0,,,,,
1,1789759372352,-2072,-1804,15228,3914424,353080,566882,0,0,0,504,424,205,476,493,470,322,146,305,330,187,500,0,,,,,
2,1789759372352,-387,-2158,15424,4839274,-1842369,1375668,0,0,0,196,105,115,238,111,292,413,483,217,291,423,205,0,,,,,
1,1789759372368,-2703,-1943,15955,4613254,537561,680503,0,0,0,470,447,205,491,514,486,267,126,273,299,178,463,0,,,,,
2,1789759372368,-5135,-2196,19760,4282165,-706160,1527163,0,0,0,201,99,109,246,106,285,442,493,227,318,443,201,0,,,,,
1,1789759372384,-3474,-2435,17066,5330410,801455,872315,0,0,0,447,424,178,491,487,455,266,124,269,303,167,444,0,,,,,
2,1789759372384,-4474,387,19368,3411071,-607200,454483,0,0,0,216,97,113,259,95,282,470,459,233,354,449,204,0,,,,,
1,1789759372400,-4134,-3886,19679,6046344,1174082,1126435,0,0,0,416,386,173,457,459,438,76,29,71,283,149,433,0,,,,,
2,1789759372400,-186,574,13984,2119702,-697608,-90408,0,0,0,222,106,123,248,99,282,489,470,213,395,478,193,0,,,,,
1,1789759372416,-4599,-5991,23096,6636439,1499063,1345125,0,0,0,390,358,164,423,389,401,206,83,157,271,143,416,0,,,,,
2,1789759372416,871,488,10308,1133765,-541226,4886,0,0,0,223,102,141,240,89,283,499,466,206,409,479,192,0,,,,,
1,1789759372432,-4398,-5991,25489,7057936,1584584,1514945,0,0,0,337,309,164,378,329,362,308,128,217,249,135,385,0,,,,,
2,1789759372432,-47,459,9815,612086,-317649,152716,0,0,0,226,104,155,230,81,271,511,483,221,412,469,189,0,,,,,
1,1789759372448,-4221,-3771,26963,7626041,1802052,1651779,0,0,0,265,262,159,332,283,322,281,113,166,225,128,299,0,,,,,
2,1789759372448,-287,459,10476,307876,-183259,75747,0,0,0,242,108,167,250,96,276,540,483,221,440,475,207,0,,,,,
1,1789759372464,-7092,-1756,24589,7860613,1893682,1745852,0,0,0,226,239,162,311,252,301,289,117,154,215,128,228,0,,,,,
2,1789759372464,-57,574,10332,111177,-108734,15882,0,0,0,229,113,187,245,91,284,557,498,227,430,474,197,0,,,,,
1,1789759372480,-8959,1995,19674,7329161,1359786,1852143,0,0,0,221,232,180,307,242,306,335,143,191,209,130,217,0,,,,,
2,1789759372480,57,689,9983,64751,-84299,13439,0,0,0,220,119,209,240,106,285,540,504,242,401,467,208,0,,,,,
1,1789759372496,-6015,4977,14577,5613851,767246,1616349,0,0,0,215,226,184,301,239,310,322,139,187,203,130,214,0,,,,,
2,1789759372496,19,732,9954,74525,-80634,14660,0,0,0,212,127,232,235,106,298,550,491,252,408,457,214,0,,,,,
1,1789759372512,-3297,7011,11194,3097086,885754,824668,0,0,0,213,213,169,299,225,297,279,120,150,205,126,204,0,,,,,
2,1789759372512,-14,756,10035,85521,-73303,3665,0,0,0,223,125,206,231,94,281,531,489,223,408,435,205,0,,,,,
1,1789759372528,-3766,7628,9284,-244346,1131322,-246789,0,0,0,221,212,160,296,215,289,247,110,149,204,121,194,0,,,,,
2,1789759372528,0,775,10035,96516,-64751,-7330,0,0,0,240,126,205,239,95,277,534,448,224,392,383,214,0,,,,,
1,1789759372544,-5498,5800,8207,-2409252,586430,-691499,0,0,0,222,210,155,301,214,285,317,128,161,209,121,191,0,,,,,
2,1789759372544,33,784,9987,128281,-68416,-13439,0,0,0,253,157,220,245,170,280,543,423,228,387,356,233,0,,,,,
1,1789759372560,-5139,4426,6810,-3205820,-178372,-624304,0,0,0,222,210,170,297,214,293,338,148,182,206,127,200,0,,,,,
2,1789759372560,19,737,9983,161268,-80634,-15882,0,0,0,267,160,236,247,175,289,540,393,227,392,335,251,0,,,,,
1,1789759372576,-2952,4785,5541,-3370754,-470366,-343306,0,0,0,211,203,160,287,209,295,285,114,159,207,123,202,0,,,,,
2,1789759372576,14,689,9997,180816,-94073,-20769,0,0,0,281,149,252,253,145,295,540,342,231,379,302,272,0,,,,,
1,1789759372592,-1684,5307,5216,-3871663,-404392,-190589,0,0,0,213,202,159,300,212,294,161,55,81,219,129,204,0,,,,,
2,1789759372592,19,660,10031,202807,-109955,-26878,0,0,0,295,172,261,259,186,287,540,285,231,358,263,303,0,,,,,
1,1789759372608,-1569,5101,5857,-4673119,-370184,-141720,0,0,0,205,198,163,306,216,307,287,118,161,215,126,205,0,,,,,
2,1789759372608,14,622,10026,238237,-129503,-35430,0,0,0,305,185,279,269,207,297,534,250,229,348,241,326,0,,,,,
1,1789759372624,-1608,4364,6762,-5270545,-577878,-123394,0,0,0,197,194,156,295,210,298,347,148,191,211,125,205,0,,,,,
2,1789759372624,-19,564,9992,239459,-133168,-41538,0,0,0,314,187,293,288,198,318,539,248,232,332,234,333,0,,,,,
1,1789759372640,-1478,3761,7595,-5663942,-792903,-133168,0,0,0,196,193,148,291,208,292,352,146,186,212,125,203,0,,,,,
2,1789759372640,-43,536,10007,201585,-107512,-42760,0,0,0,346,212,272,302,206,322,535,222,242,326,191,345,0,,,,,
1,1789759372656,-1373,3230,8509,-5894849,-954171,-205250,0,0,0,198,191,144,294,210,293,353,144,184,236,125,199,0,,,,,
2,1789759372656,-23,521,10078,186924,-81855,-46425,0,0,0,381,226,275,340,229,350,522,198,263,304,174,360,0,,,,,
1,1789759372672,-1478,2450,9863,-6009692,-1120326,-332310,0,0,0,198,191,144,294,210,293,355,146,186,235,125,200,0,,,,,
2,1789759372672,0,497,10160,213802,-74525,-54977,0,0,0,377,234,279,340,236,347,510,193,274,260,160,391,0,,,,,
1,1789759372688,-1895,1837,11447,-6051231,-1343903,-433714,0,0,0,202,195,152,291,209,294,352,144,185,214,125,205,0,,,,,
2,1789759372688,0,440,10184,263893,-76969,-65973,0,0,0,399,253,263,323,267,383,489,188,278,261,184,429,0,,,,,
1,1789759372704,-2306,1301,13682,-6080552,-1704314,-474031,0,0,0,207,197,160,288,206,294,351,144,185,215,126,207,0,,,,,
2,1789759372704,-4,387,10208,321315,-76969,-75747,0,0,0,442,252,249,332,283,383,472,163,278,235,137,432,0,,,,,
1,1789759372720,-2254,607,16257,-6134308,-2013411,-477696,0,0,0,210,201,163,291,209,295,348,143,185,214,127,207,0,,,,,
2,1789759372720,-9,339,10361,416610,-50090,-84299,0,0,0,418,265,223,362,300,406,457,147,270,232,112,446,0,,,,,
1,1789759372736,-1847,-607,19439,-6239377,-2188119,-503352,0,0,0,221,211,172,302,213,301,301,119,159,213,126,205,0,,,,,
2,1789759372736,-33,287,10600,544891,23212,-91629,0,0,0,434,284,206,346,303,398,443,141,288,231,106,460,0,,,,,
1,1789759372752,-1454,-2785,22579,-6417750,-2298075,-684169,0,0,0,222,211,171,305,214,300,202,72,103,217,131,204,0,,,,,
2,1789759372752,0,215,10844,707381,144164,-101403,0,0,0,459,300,174,384,336,401,454,140,298,379,125,451,0,,,,,
1,1789759372768,-1028,-5848,25393,-6615670,-2579073,-987158,0,0,0,209,207,165,295,215,298,273,106,141,214,133,203,0,,,,,
2,1789759372768,23,153,10954,883311,232128,-114842,0,0,0,469,300,143,393,398,398,444,144,309,272,134,496,0,,,,,
1,1789759372784,684,-10930,28399,-6802595,-3048217,-1380555,0,0,0,206,204,155,298,215,298,265,97,140,220,130,202,0,,,,,
2,1789759372784,-67,62,10978,1016479,200363,-100181,0,0,0,472,294,135,424,373,413,413,134,312,240,130,521,0,,,,,
1,1789759372800,3771,-17023,30380,-6778160,-3131295,-1743409,0,0,0,213,207,160,314,220,302,329,127,174,216,125,200,0,,,,,
2,1789759372800,86,-105,11165,1145983,164933,-73303,0,0,0,486,294,135,431,359,413,422,146,294,249,123,535,0,,,,,
1,1789759372816,5273,-22871,29006,-6283359,-2269975,-2047620,0,0,0,209,193,171,306,207,307,369,137,198,221,122,207,0,,,,,
2,1789759372816,325,-282,11529,1315803,168598,-76969,0,0,0,509,292,138,410,378,423,433,150,292,249,128,565,0,,,,,
1,1789759372832,-459,-29466,22598,-5258327,-1023810,-1897347,0,0,0,208,191,164,301,205,304,374,138,202,218,119,207,0,,,,,
2,1789759372832,306,-416,11892,1578475,202807,-109955,0,0,0,529,292,141,398,380,427,393,140,307,244,131,600,0,,,,,
1,1789759372848,-7202,-36917,14568,-3995058,-895528,-761138,0,0,0,209,195,162,302,206,300,372,138,195,220,122,203,0,,,,,
2,1789759372848,-9,-521,12021,1864360,268780,-114842,0,0,0,535,306,142,402,358,409,359,129,302,245,128,624,0,,,,,
1,1789759372864,-966,-40732,10308,-2428800,-2470339,1031140,0,0,0,210,198,159,302,209,300,375,141,193,224,124,202,0,,,,,
2,1789759372864,-57,-660,12428,2173458,405614,-73303,0,0,0,549,305,145,404,333,402,354,124,287,260,133,641,0,,,,,
1,1789759372880,14395,-39760,10174,-614530,-3121521,1775174,0,0,0,207,198,153,305,217,304,364,164,194,231,156,190,0,,,,,
2,1789759372880,296,-847,13113,2509434,511905,-54977,0,0,0,559,284,146,393,332,418,330,123,289,254,139,644,0,,,,,
1,1789759372896,20942,-32131,13692,1235169,-735481,775798,0,0,0,205,191,138,309,213,303,374,201,185,250,199,186,0,,,,,
2,1789759372896,760,-1086,13811,2950479,511905,-105068,0,0,0,537,290,150,376,345,435,317,119,282,222,127,628,0,,,,,
1,1789759372912,3350,-6523,15769,2948035,2301740,7330,0,0,0,199,184,124,303,205,298,366,215,161,268,246,193,0,,,,,
2,1789759372912,1148,-1287,14414,3425732,452040,-186924,0,0,0,517,310,159,376,339,450,302,123,279,215,110,612,0,,,,,
1,1789759372928,-8059,11777,13031,3858224,3384193,163711,0,0,0,191,193,126,294,215,300,300,203,133,277,304,191,0,,,,,
2,1789759372928,1564,-1478,15089,4043927,343306,-332310,0,0,0,488,327,138,373,368,444,270,130,276,219,120,571,0,,,,,
1,1789759372944,-6063,4891,10854,3997502,2640159,184481,0,0,0,196,210,132,302,230,307,292,241,131,298,353,185,0,,,,,
2,1789759372944,2000,-1622,16094,4680449,212581,-492357,0,0,0,454,314,126,362,381,454,241,102,273,203,119,522,0,,,,,
1,1789759372960,-995,-3034,13314,4085466,1214400,-585208,0,0,0,184,194,128,305,218,314,400,352,174,328,387,182,0,,,,,
2,1789759372960,2345,-2086,18133,5446474,64751,-680503,0,0,0,394,315,118,319,365,424,206,107,256,165,106,471,0,,,,,
1,1789759372976,2067,-2172,17621,3922976,696386,-797790,0,0,0,206,201,159,303,190,309,436,398,190,351,425,185,0,,,,,
2,1789759372976,1478,-3761,22177,6246707,-12217,-742812,0,0,0,345,262,130,277,301,354,174,96,244,149,109,428,0,,,,,
1,1789759372992,502,-315,17654,2801427,777020,-62308,0,0,0,218,188,182,303,184,318,439,383,208,403,437,185,0,,,,,
2,1789759372992,818,-5125,26168,6754947,54977,-627969,0,0,0,297,258,139,241,236,354,182,100,239,136,81,387,0,,,,,
1,1789759373008,-1895,-626,13199,1231504,535117,233350,0,0,0,248,211,203,307,191,326,440,384,204,419,435,194,0,,,,,
2,1789759373008,1062,-4163,28427,7120245,101403,-524122,0,0,0,264,169,114,210,158,290,170,90,202,117,60,305,0,,,,,
1,1789759373024,-1856,-569,10098,333532,194255,-9773,0,0,0,274,196,237,337,207,349,456,387,249,428,439,234,0,,,,,
2,1789759373024,3536,-871,27776,7591833,-433714,-663399,0,0,0,192,114,107,183,107,243,168,105,193,102,66,189,0,,,,,
1,1789759373040,-1273,-28,9624,118507,52534,-114842,0,0,0,285,232,278,369,228,385,439,345,233,446,408,266,0,,,,,
2,1789759373040,8231,3862,23287,7794640,-761138,-941954,0,0,0,160,101,114,173,99,245,175,116,196,93,69,154,0,,,,,
1,1789759373056,-1201,229,10279,254119,81855,-24434,0,0,0,307,258,322,380,241,408,441,328,252,440,391,333,0,,,,,
2,1789759373056,11533,11098,13060,6582683,178372,-1450194,0,0,0,156,109,123,168,105,241,172,117,191,103,74,156,0,,,,,
1,1789759373072,-1392,57,10265,265115,81855,20769,0,0,0,309,284,324,393,284,431,430,299,261,422,377,362,0,,,,,
2,1789759373072,9485,16353,8796,3707952,1298699,-1758070,0,0,0,161,111,124,174,97,237,184,117,185,107,73,149,0,,,,,
1,1789759373088,-1426,-23,10141,233350,37873,14660,0,0,0,322,309,345,406,325,461,430,283,263,422,360,382,0,,,,,
2,1789759373088,3330,17664,11835,-651182,1246165,-1362229,0,0,0,159,106,122,179,94,242,186,122,186,95,69,143,0,,,,,
1,1789759373104,-1359,0,10117,213802,-25656,1221,0,0,0,353,323,356,432,310,474,442,273,287,403,324,412,0,,,,,
2,1789759373104,1794,13146,12696,-3175277,-395840,-560774,0,0,0,152,104,125,175,98,250,178,125,191,86,69,144,0,,,,,
1,1789759373120,-1397,0,10193,233350,-76969,14660,0,0,0,360,339,359,440,331,481,451,272,326,374,276,434,0,,,,,
2,1789759373120,3785,9504,9796,-3655417,-1315803,-226020,0,0,0,154,109,128,177,97,252,181,124,194,87,69,146,0,,,,,
1,1789759373136,-1459,-38,10217,270002,-116064,35430,0,0,0,360,362,361,431,380,486,447,254,337,365,238,446,0,,,,,
2,1789759373136,5240,8906,6896,-3660304,-875980,-307876,0,0,0,157,115,128,179,97,250,181,124,193,87,68,145,0,,,,,
1,1789759373152,-1440,-90,10217,327423,-147829,53756,0,0,0,396,373,334,449,371,483,433,204,314,362,214,459,0,,,,,
2,1789759373152,4178,9346,7116,-4409225,-34208,-377514,0,0,0,155,129,128,176,104,248,180,129,190,84,67,141,0,,,,,
1,1789759373168,-1402,-143,10236,390953,-172263,63529,0,0,0,432,374,302,473,394,502,434,202,322,357,202,465,0,,,,,
2,1789759373168,2196,8212,9317,-5593082,305432,-272445,0,0,0,154,148,127,175,115,247,185,136,192,85,71,140,0,,,,,
1,1789759373184,-1402,-215,10284,463035,-189368,69638,0,0,0,423,383,247,485,380,516,438,179,312,352,184,467,0,,,,,
2,1789759373184,2163,5585,10145,-6095213,124616,-160046,0,0,0,152,135,123,174,109,246,191,133,198,85,66,142,0,,,,,
1,1789759373200,-1426,-291,10409,543670,-183259,72082,0,0,0,437,406,208,497,376,501,440,199,315,350,179,468,0,,,,,
2,1789759373200,3110,3646,10275,-6163630,168598,-131946,0,0,0,150,105,122,171,98,250,183,118,194,84,70,147,0,,,,,
1,1789759373216,-1512,-378,10672,654847,-196698,80634,0,0,0,432,416,186,490,398,502,437,183,322,352,181,475,0,,,,,
2,1789759373216,3766,3005,10949,-6156299,640186,-130725,0,0,0,154,111,127,165,93,250,187,123,198,88,62,149,0,,,,,
1,1789759373232,-1588,-449,10796,773355,-238237,109955,0,0,0,462,379,170,514,394,487,435,158,313,349,169,487,0,,,,,
2,1789759373232,3541,2742,12988,-6335894,1209513,-18325,0,0,0,150,110,128,169,93,253,186,120,199,87,72,155,0,,,,,
1,1789759373248,-1564,-536,10681,857654,-227241,129503,0,0,0,453,365,179,506,384,502,412,131,268,350,172,484,0,,,,,
2,1789759373248,3311,2239,15601,-6536258,1634675,222354,0,0,0,144,103,126,171,93,256,189,118,196,86,68,155,0,,,,,
1,1789759373264,-1531,-674,10394,890641,-185703,129503,0,0,0,475,352,185,484,379,513,422,135,300,336,162,506,0,,,,,
2,1789759373264,3541,1335,18195,-6632774,1897347,560774,0,0,0,137,94,126,171,85,257,199,123,204,88,68,161,0,,,,,
1,1789759373280,-1536,-842,10122,885754,-171042,129503,0,0,0,478,368,178,491,381,505,448,140,321,334,163,508,0,,,,,
2,1789759373280,3857,-186,20866,-6653544,2169793,924849,0,0,0,146,101,127,175,90,263,210,118,205,99,72,166,0,,,,,
1,1789759373296,-1526,-990,10011,864985,-179594,134390,0,0,0,482,350,177,489,376,503,458,144,329,339,167,513,0,,,,,
2,1789759373296,4015,-2723,23799,-6564357,2465452,1387885,0,0,0,149,107,132,177,88,266,213,121,206,105,73,167,0,,,,,
1,1789759373312,-1474,-1110,10088,853989,-180816,130725,0,0,0,483,358,182,492,408,515,416,131,301,340,171,516,0,,,,,
2,1789759373312,3340,-5790,25919,-6410419,2634050,1902234,0,0,0,152,102,134,182,86,267,215,121,206,98,69,165,0,,,,,
1,1789759373328,-1474,-1225,10222,869872,-177150,119729,0,0,0,494,371,190,496,434,523,412,127,303,341,176,527,0,,,,,
2,1789759373328,1651,-9078,27662,-6294355,2636494,2389704,0,0,0,149,98,130,184,87,268,212,117,205,100,71,168,0,,,,,
1,1789759373344,-1622,-1344,10385,924849,-179594,114842,0,0,0,500,373,185,496,448,522,416,166,332,344,185,539,0,,,,,
2,1789759373344,-650,-13050,28370,-6188064,2157576,2822197,0,0,0,147,98,124,187,90,269,213,118,203,99,73,167,0,,,,,
1,1789759373360,-1718,-1474,10447,1006705,-179594,134390,0,0,0,499,389,175,497,472,525,368,170,306,348,193,541,0,,,,,
2,1789759373360,-971,-18219,27154,-5871636,1219287,3101973,0,0,0,152,103,127,190,91,273,215,120,206,97,73,164,0,,,,,
1,1789759373376,-1746,-1631,10413,1088561,-169820,161268,0,0,0,509,408,188,496,489,531,324,106,248,356,202,543,0,,,,,
2,1789759373376,3139,-25312,22871,-5193576,293215,2803871,0,0,0,153,107,133,192,92,281,215,121,211,100,74,167,0,,,,,
1,1789759373392,-1842,-1785,10399,1166752,-149051,191811,0,0,0,511,399,211,505,483,527,356,125,291,366,216,557,0,,,,,
2,1789759373392,7068,-35644,16324,-4118453,350636,1281595,0,0,0,150,107,131,189,93,282,216,124,211,101,74,179,0,,,,,
1,1789759373408,-1957,-1928,10715,1279151,-97738,235793,0,0,0,526,415,194,526,494,521,368,124,293,363,204,563,0,,,,,
2,1789759373408,1521,-43996,12304,-2693915,1281595,-817337,0,0,0,152,112,131,181,91,275,214,120,210,103,68,191,0,,,,,
1,1789759373424,-1919,-2062,11136,1425759,-14660,276111,0,0,0,542,415,197,509,496,521,355,137,316,362,204,576,0,,,,,
2,1789759373424,-13668,-44599,13012,-1000597,1507615,-2028072,0,0,0,147,112,130,175,92,263,224,147,206,114,88,176,0,,,,,
1,1789759373440,-1574,-2211,11777,1666440,48869,282219,0,0,0,540,418,197,507,503,504,318,125,283,369,216,558,0,,,,,
2,1789759373440,-17468,-32835,17793,1080009,-974940,-1197295,0,0,0,137,96,116,176,99,256,271,238,208,154,171,164,0,,,,,
1,1789759373456,-1727,-2354,12711,2024407,67195,266337,0,0,0,533,417,205,511,485,507,355,150,316,373,219,570,0,,,,,
2,1789759373456,-2345,-6207,20186,3009122,-3209485,-185703,0,0,0,148,100,116,187,97,272,314,278,213,180,226,202,0,,,,,
1,1789759373472,-2167,-2459,13371,2484999,61086,316428,0,0,0,536,424,227,535,511,527,323,131,290,371,205,548,0,,,,,
2,1789759373472,8159,10413,13835,4221078,-4051258,50090,0,0,0,164,107,109,209,117,285,346,343,213,212,292,188,0,,,,,
1,1789759373488,-2043,-2569,13931,3005456,72082,394618,0,0,0,546,427,213,540,521,508,320,135,324,358,207,555,0,,,,,
2,1789759373488,6776,3651,10658,4609589,-3507588,653625,0,0,0,191,106,112,216,116,286,361,380,221,244,346,197,0,,,,,
1,1789759373504,-2029,-2641,14534,3571118,109955,443488,0,0,0,536,423,196,530,506,516,330,140,328,326,186,543,0,,,,,
2,1789759373504,119,-4546,14285,4401894,-1709200,1882686,0,0,0,184,103,112,232,116,292,380,422,226,260,362,193,0,,,,,
1,1789759373520,-2459,-2756,14936,4262617,158824,544891,0,0,0,498,430,204,541,518,512,324,129,307,321,179,500,0,,,,,
2,1789759373520,-5675,-1368,16984,3913202,-675616,2056172,0,0,0,192,103,124,230,103,294,472,454,229,293,392,198,0,,,,,
1,1789759373536,-2632,-3192,15893,5072624,196698,692721,0,0,0,463,412,210,525,488,486,317,118,304,319,168,471,0,,,,,
2,1789759373536,-6068,1258,16726,3457497,-715934,884532,0,0,0,202,101,124,240,98,295,463,465,229,328,425,204,0,,,,,
1,1789759373552,-3086,-4852,18286,5808106,204028,817337,0,0,0,442,385,193,482,446,455,298,110,278,316,156,454,0,,,,,
2,1789759373552,-880,607,14955,2791654,-963945,-321315,0,0,0,209,101,137,248,95,307,482,460,250,364,437,210,0,,,,,
1,1789759373568,-3522,-6867,21473,6339559,216246,871093,0,0,0,429,353,172,450,394,437,271,97,239,295,138,435,0,,,,,
2,1789759373568,1167,-224,12304,1755626,-729373,-107512,0,0,0,223,110,163,229,89,282,497,468,230,394,460,199,0,,,,,
1,1789759373584,-4005,-7260,24642,6739065,218689,907745,0,0,0,412,309,171,427,327,419,260,87,221,260,119,415,0,,,,,
2,1789759373584,311,-23,10595,899193,-442266,177150,0,0,0,222,113,175,240,90,274,507,478,215,417,460,201,0,,,,,
1,1789759373600,-3575,-5805,26298,7313278,316428,1072679,0,0,0,357,274,173,377,286,372,274,99,203,241,116,365,0,,,,,
2,1789759373600,-397,224,10284,353080,-233350,139277,0,0,0,221,122,186,249,103,273,523,471,216,430,449,227,0,,,,,
1,1789759373616,-5302,-4407,25986,7933917,427605,1246165,0,0,0,256,260,161,334,256,330,312,121,183,215,114,257,0,,,,,
2,1789759373616,-224,296,10246,107512,-124616,23212,0,0,0,234,125,210,247,111,282,533,467,228,447,447,240,0,,,,,
1,1789759373632,-9064,-358,21727,7803192,-211359,1505171,0,0,0,234,237,168,317,239,300,324,130,189,208,114,212,0,,,,,
2,1789759373632,95,382,10098,70860,-87964,-14660,0,0,0,246,139,229,244,116,297,541,465,233,449,447,253,0,,,,,
1,1789759373648,-8222,2900,16692,7027393,-1038470,1784948,0,0,0,220,223,158,316,240,313,339,134,218,201,115,217,0,,,,,
2,1789759373648,71,473,9992,98960,-81855,4886,0,0,0,254,157,218,252,122,304,545,441,234,443,434,258,0,,,,,
1,1789759373664,-4307,3455,13390,5948605,-583987,1192408,0,0,0,227,230,168,313,233,304,309,119,189,202,115,213,0,,,,,
2,1789759373664,0,502,10002,112399,-75747,9773,0,0,0,274,161,207,280,126,295,541,403,232,453,416,256,0,,,,,
1,1789759373680,-2708,5690,10117,3827681,250454,-54977,0,0,0,235,238,178,311,227,296,279,104,161,203,116,210,0,,,,,
2,1789759373680,0,502,10026,124616,-64751,-1221,0,0,0,292,157,223,294,141,282,534,375,223,456,391,269,0,,,,,
1,1789759373696,-4536,7824,7336,467922,717155,-1373225,0,0,0,222,236,162,306,246,294,48,12,19,214,127,207,0,,,,,
2,1789759373696,38,488,10031,149051,-54977,-12217,0,0,0,290,158,229,259,172,288,528,350,221,420,341,298,0,,,,,
1,1789759373712,-6221,6661,6724,-2389704,213802,-1540602,0,0,0,223,213,168,306,219,294,183,61,97,211,117,202,0,,,,,
2,1789759373712,62,478,10035,184481,-53756,-18325,0,0,0,302,167,220,265,184,301,536,319,234,369,294,357,0,,,,,
1,1789759373728,-5163,5130,6834,-3860668,-162490,-1025031,0,0,0,217,206,163,307,215,298,69,17,31,200,114,195,0,,,,,
2,1789759373728,76,440,10059,229685,-58643,-29321,0,0,0,317,176,232,268,186,320,528,264,258,339,237,382,0,,,,,
1,1789759373744,-2866,4623,6623,-4634023,39095,-332310,0,0,0,201,204,152,292,213,291,239,90,131,196,111,197,0,,,,,
2,1789759373744,67,382,10069,272445,-75747,-41538,0,0,0,338,199,233,284,198,347,537,240,261,320,196,386,0,,,,,
1,1789759373760,-2392,4446,6700,-5459913,575435,120951,0,0,0,204,199,162,295,209,289,272,103,148,198,112,195,0,,,,,
2,1789759373760,28,335,10040,290771,-85521,-50090,0,0,0,382,227,226,307,243,320,524,220,284,301,197,403,0,,,,,
1,1789759373776,-3192,3685,7585,-6177069,739146,463035,0,0,0,217,196,164,304,208,289,282,108,152,204,116,195,0,,,,,
2,1789759373776,0,287,10045,257785,-58643,-46425,0,0,0,365,211,231,319,223,335,532,181,267,286,157,426,0,,,,,
1,1789759373792,-3651,2818,8748,-6598566,365297,799011,0,0,0,223,193,159,302,202,287,347,135,191,206,119,199,0,,,,,
2,1789759373792,-14,244,10093,238237,-25656,-39095,0,0,0,368,244,225,310,235,337,522,167,266,261,140,434,0,,,,,
1,1789759373808,-3072,2416,9609,-6820921,-113620,1028697,0,0,0,219,189,161,293,195,287,337,129,190,205,117,197,0,,,,,
2,1789759373808,0,201,10155,273667,0,-31764,0,0,0,370,239,207,333,239,348,516,159,272,344,128,439,0,,,,,
1,1789759373824,-1986,2349,10337,-6947981,-387288,1020144,0,0,0,205,187,174,282,192,298,330,124,203,202,112,202,0,,,,,
2,1789759373824,57,148,10212,333532,23212,-30543,0,0,0,392,233,195,347,238,359,494,164,292,285,120,469,0,,,,,
1,1789759373840,-1694,2072,11476,-7067710,-425162,764803,0,0,0,195,178,220,279,185,326,333,122,232,199,109,218,0,,,,,
2,1789759373840,114,105,10342,416610,85521,-41538,0,0,0,406,249,169,364,284,384,488,150,297,245,130,510,0,,,,,
1,1789759373856,-1986,1555,12768,-7098254,-554665,452040,0,0,0,200,183,209,281,190,314,336,123,226,206,112,217,0,,,,,
2,1789759373856,119,52,10461,529009,212581,-58643,0,0,0,419,243,139,396,291,400,494,136,296,243,111,521,0,,,,,
1,1789759373872,-2445,861,14185,-6945537,-906524,136833,0,0,0,200,185,222,280,191,324,334,128,230,200,113,217,0,,,,,
2,1789759373872,205,-14,10514,631634,327423,-78190,0,0,0,419,243,126,412,294,397,478,144,302,232,106,533,0,,,,,
1,1789759373888,-2651,248,16070,-6643770,-1398881,-56199,0,0,0,203,185,195,283,194,310,333,128,214,202,116,207,0,,,,,
2,1789759373888,335,-129,10658,731816,406836,-105068,0,0,0,432,238,124,413,313,398,466,153,309,226,112,557,0,,,,,
1,1789759373904,-2474,-90,18923,-6462954,-1747074,-76969,0,0,0,208,190,167,293,199,299,333,129,207,205,117,199,0,,,,,
2,1789759373904,440,-244,10935,868650,414166,-134390,0,0,0,444,234,131,408,329,402,442,156,308,224,113,576,0,,,,,
1,1789759373920,-2129,-368,22612,-6481280,-1861917,8552,0,0,0,209,196,163,296,207,298,334,130,207,259,115,197,0,,,,,
2,1789759373920,483,-339,11060,1017701,377514,-160046,0,0,0,447,252,144,402,345,411,409,148,303,217,110,596,0,,,,,
1,1789759373936,-1837,-1244,27135,-6701191,-1814269,124616,0,0,0,209,198,162,300,207,299,332,126,202,219,113,204,0,,,,,
2,1789759373936,397,-445,11069,1174082,289550,-172263,0,0,0,478,259,152,400,345,434,412,127,313,212,95,625,0,,,,,
1,1789759373952,-1268,-4560,31040,-6967528,-1953547,83077,0,0,0,210,198,162,302,210,301,336,126,203,203,114,199,0,,,,,
2,1789759373952,473,-622,11098,1307251,210137,-163711,0,0,0,483,260,149,400,330,438,397,130,340,215,92,642,0,,,,,
1,1789759373968,234,-9767,33610,-7125132,-2432465,-112399,0,0,0,253,190,154,318,202,298,343,125,205,216,111,198,0,,,,,
2,1789759373968,799,-851,11275,1452637,158824,-174707,0,0,0,502,274,140,407,335,424,390,124,339,232,108,649,0,,,,,
1,1789759373984,4111,-15769,34065,-7037167,-2940705,-530231,0,0,0,245,195,155,317,204,298,345,125,208,222,111,201,0,,,,,
2,1789759373984,1038,-1038,11811,1667662,107512,-234572,0,0,0,518,296,152,400,341,452,361,134,286,231,115,651,0,,,,,
1,1789759374000,5924,-24063,29073,-6354220,-2353052,-1213178,0,0,0,213,200,165,308,209,309,341,123,209,213,112,206,0,,,,,
2,1789759374000,947,-1172,12222,1925447,63529,-301767,0,0,0,541,305,164,384,317,428,342,139,286,225,115,684,0,,,,,
1,1789759374016,583,-36577,19435,-5209458,-1483180,-1155757,0,0,0,209,198,168,311,208,320,332,118,204,213,114,213,0,,,,,
2,1789759374016,138,-1196,12519,2244318,48869,-290771,0,0,0,563,318,165,408,369,438,349,152,274,257,152,688,0,,,,,
1,1789759374032,4350,-47350,11375,-3364645,-2471560,351858,0,0,0,216,201,166,319,209,323,318,114,198,225,120,219,0,,,,,
2,1789759374032,-124,-1330,12864,2560747,57421,-194255,0,0,0,544,342,159,394,348,456,309,150,286,241,127,687,0,,,,,
1,1789759374048,21521,-48987,8863,-1134987,-2612059,1232726,0,0,0,217,202,165,321,214,321,322,142,194,229,150,212,0,,,,,
2,1789759374048,698,-1646,13361,2932153,69638,-124616,0,0,0,548,381,165,379,351,440,283,156,287,235,139,674,0,,,,,
1,1789759374064,28466,-39018,12457,1108109,492357,-8552,0,0,0,191,196,136,297,225,309,375,245,194,248,244,186,0,,,,,
2,1789759374064,1550,-1938,13965,3420845,13439,-221133,0,0,0,549,357,172,382,379,434,256,141,299,225,134,656,0,,,,,
1,1789759374080,2507,-9447,19301,3356093,3106860,-1274264,0,0,0,209,204,127,322,232,314,375,276,186,270,299,191,0,,,,,
2,1789759374080,1799,-2124,14539,3907094,-119729,-356745,0,0,0,531,402,156,407,375,440,228,125,293,224,117,616,0,,,,,
1,1789759374096,-10629,13438,17444,4756196,3340211,-733038,0,0,0,203,210,132,322,238,314,356,315,179,277,349,184,0,,,,,
2,1789759374096,2234,-2373,14946,4434881,-293215,-507018,0,0,0,482,418,121,415,388,418,228,112,316,224,112,565,0,,,,,
1,1789759374112,-5637,4364,13491,4971221,2302961,-431270,0,0,0,205,216,143,322,251,336,362,341,205,293,396,191,0,,,,,
2,1789759374112,2780,-2943,15759,5103168,-444709,-725707,0,0,0,431,383,123,384,381,409,192,102,297,198,110,544,0,,,,,
1,1789759374128,966,-5283,14156,4846604,430049,-1240056,0,0,0,200,197,137,315,219,350,384,371,206,392,431,217,0,,,,,
2,1789759374128,3196,-4580,17975,5814215,-516791,-962723,0,0,0,378,340,127,348,344,370,169,101,243,177,100,483,0,,,,,
1,1789759374144,3972,-3115,18669,4660901,-309097,-1395216,0,0,0,208,184,149,320,200,327,428,386,196,445,451,209,0,,,,,
2,1789759374144,3029,-7039,22703,6280916,-287106,-1065348,0,0,0,323,293,118,293,299,322,157,98,203,148,93,407,0,,,,,
1,1789759374160,1162,-512,19861,3638313,279776,-158824,0,0,0,225,189,166,315,196,320,440,382,196,456,456,206,0,,,,,
2,1789759374160,2407,-7221,26733,6618113,26878,-1123992,0,0,0,281,238,112,238,254,291,155,94,188,120,83,334,0,,,,,
1,1789759374176,-2359,-612,15022,1667662,565661,414166,0,0,0,236,195,194,313,202,330,445,389,209,454,457,224,0,,,,,
2,1789759374176,2383,-4718,28365,7031058,-47647,-1243721,0,0,0,232,177,109,208,185,255,163,96,172,105,64,230,0,,,,,
1,1789759374192,-2498,-588,9858,152716,276111,79412,0,0,0,254,201,242,323,207,347,443,385,214,458,459,242,0,,,,,
2,1789759374192,5369,-162,27011,7441560,-634078,-1492954,0,0,0,167,123,98,183,116,216,159,107,151,86,57,137,0,,,,,
1,1789759374208,-1239,258,9313,-35430,0,-140499,0,0,0,264,206,272,345,223,364,442,381,214,464,458,258,0,,,,,
2,1789759374208,9499,6532,21569,7296174,-701273,-1842369,0,0,0,158,112,98,184,117,206,171,126,161,92,67,130,0,,,,,
1,1789759374224,-1206,492,10074,128281,-23212,-59864,0,0,0,269,215,284,358,231,375,444,380,221,465,457,270,0,,,,,
2,1789759374224,10945,10926,13060,5648059,394618,-2273640,0,0,0,161,115,106,182,104,207,174,122,163,95,67,129,0,,,,,
1,1789759374240,-1526,425,10284,178372,1221,19547,0,0,0,277,236,294,359,235,383,442,364,226,463,445,281,0,,,,,
2,1789759374240,7968,13041,10040,2571742,1502728,-2260201,0,0,0,161,116,106,175,103,202,180,129,166,92,68,123,0,,,,,
1,1789759374256,-1579,354,9968,113620,3665,8552,0,0,0,281,254,305,373,251,404,432,327,218,460,416,304,0,,,,,
2,1789759374256,2455,12620,11753,-1508837,1490511,-1423316,0,0,0,161,112,102,172,102,195,182,129,160,90,64,128,0,,,,,
1,1789759374272,-1450,392,9959,113620,-4886,-3665,0,0,0,292,265,331,395,259,429,418,271,204,457,388,329,0,,,,,
2,1789759374272,1407,8810,11725,-3607770,131946,-305432,0,0,0,160,113,104,175,105,201,183,137,159,94,60,130,0,,,,,
1,1789759374288,-1392,425,10088,146607,-23212,2443,0,0,0,328,298,339,396,270,420,418,258,202,450,354,335,0,,,,,
2,1789759374288,2890,5920,9356,-4002389,-769690,318871,0,0,0,165,112,104,174,101,205,183,124,165,95,71,130,0,,,,,
1,1789759374304,-1416,411,10150,177150,-64751,17104,0,0,0,321,298,350,383,271,455,446,288,258,434,333,360,0,,,,,
2,1789759374304,3900,5623,7547,-4021936,-664621,465479,0,0,0,159,110,112,175,95,213,193,123,173,94,67,137,0,,,,,
1,1789759374320,-1440,387,10088,201585,-109955,21991,0,0,0,346,295,379,423,282,467,415,223,231,419,300,404,0,,,,,
2,1789759374320,3488,6140,7882,-4689001,-163711,529009,0,0,0,154,110,119,176,99,222,188,125,175,96,70,142,0,,,,,
1,1789759374336,-1502,358,10054,229685,-156381,30543,0,0,0,354,308,346,439,303,475,422,222,268,379,253,443,0,,,,,
2,1789759374336,2502,5632,9633,-5709146,160046,593761,0,0,0,169,128,116,189,109,219,188,129,171,98,69,140,0,,,,,
1,1789759374352,-1531,311,10093,243124,-175929,50090,0,0,0,346,324,304,450,300,465,452,232,316,373,219,461,0,,,,,
2,1789759374352,2565,4063,10375,-6107430,149051,558330,0,0,0,152,118,112,182,100,225,186,123,184,92,62,143,0,,,,,
1,1789759374368,-1536,258,10126,268780,-183259,70860,0,0,0,373,346,304,472,332,466,459,224,326,357,196,465,0,,,,,
2,1789759374368,3230,2904,10600,-6173404,250454,426383,0,0,0,147,114,118,179,92,235,183,123,187,99,70,151,0,,,,,
1,1789759374384,-1531,210,10174,326202,-180816,81855,0,0,0,370,350,267,489,374,493,435,179,297,360,197,459,0,,,,,
2,1789759374384,3737,2627,11103,-6145304,638965,260228,0,0,0,143,110,110,180,94,222,180,127,176,88,63,137,0,,,,,
1,1789759374400,-1521,134,10265,416610,-177150,86742,0,0,0,365,347,231,489,390,493,421,154,276,360,194,461,0,,,,,
2,1789759374400,3287,2809,12845,-6301685,1178969,184481,0,0,0,145,109,105,181,96,214,185,130,171,90,64,136,0,,,,,
1,1789759374416,-1493,38,10394,519235,-177150,85521,0,0,0,362,349,202,500,382,481,447,168,300,346,180,478,0,,,,,
2,1789759374416,2589,2651,14984,-6498384,1525941,261450,0,0,0,149,112,108,182,95,215,187,127,171,96,70,141,0,,,,,
1,1789759374432,-1526,-19,10600,621860,-222354,80634,0,0,0,374,374,180,514,396,482,454,179,316,345,179,483,0,,,,,
2,1789759374432,2397,1904,17013,-6548475,1739744,499687,0,0,0,155,115,117,178,96,226,184,123,183,93,73,147,0,,,,,
1,1789759374448,-1675,-71,10729,747699,-294437,90408,0,0,0,393,387,164,511,407,494,454,171,331,369,176,484,0,,,,,
2,1789759374448,2368,1306,19071,-6514266,1998751,747699,0,0,0,160,115,120,176,99,232,184,122,191,97,76,154,0,,,,,
1,1789759374464,-1842,-148,10705,860098,-300545,123394,0,0,0,407,362,156,515,389,500,470,156,353,379,164,498,0,,,,,
2,1789759374464,1928,330,21828,-6472728,2257757,1009149,0,0,0,157,116,111,182,99,221,188,125,172,101,74,147,0,,,,,
1,1789759374480,-1852,-263,10662,930958,-178372,157603,0,0,0,437,348,172,530,399,501,449,139,335,355,174,507,0,,,,,
2,1789759374480,1440,-2345,24685,-6240599,2348165,1255938,0,0,0,157,119,111,181,97,222,192,130,176,102,77,147,0,,,,,
1,1789759374496,-1799,-421,10547,972497,-41538,179594,0,0,0,460,346,181,521,413,517,445,151,344,349,180,518,0,,,,,
2,1789759374496,789,-5637,27159,-5920505,2411695,1406211,0,0,0,157,119,111,184,96,222,198,133,176,101,81,144,0,,,,,
1,1789759374512,-1708,-603,10433,998153,14660,190589,0,0,0,466,347,170,517,410,507,461,160,360,342,171,531,0,,,,,
2,1789759374512,-1459,-9351,29145,-5877745,2346944,1450194,0,0,0,153,115,113,181,95,226,194,120,177,97,69,145,0,,,,,
1,1789759374528,-1631,-760,10471,1037249,0,197920,0,0,0,472,350,173,513,435,518,432,154,308,368,187,532,0,,,,,
2,1789759374528,-4656,-13586,28939,-6144082,1772730,1599245,0,0,0,145,115,108,181,90,225,203,120,184,101,73,152,0,,,,,
1,1789759374544,-1646,-899,10614,1104444,-18325,205250,0,0,0,495,400,186,521,478,519,381,127,292,366,199,527,0,,,,,
2,1789759374544,-5192,-18568,26460,-6013357,906524,1947438,0,0,0,130,103,106,183,88,226,201,121,184,102,69,151,0,,,,,
1,1789759374560,-1761,-1052,10763,1211956,-21991,217468,0,0,0,503,402,174,522,464,507,380,129,299,377,211,537,0,,,,,
2,1789759374560,248,-25972,21100,-5213123,124616,2053728,0,0,0,155,112,108,190,93,229,220,132,197,100,68,145,0,,,,,
1,1789759374576,-1947,-1215,10911,1345125,-20769,252898,0,0,0,504,407,191,527,456,519,361,120,276,381,215,543,0,,,,,
2,1789759374576,5604,-35654,14553,-4089131,175929,1325577,0,0,0,149,107,109,190,95,234,220,130,193,104,68,156,0,,,,,
1,1789759374592,-1813,-1373,11069,1503950,-12217,305432,0,0,0,512,434,181,543,465,535,343,116,277,371,208,561,0,,,,,
2,1789759374592,842,-43206,10940,-2608394,1324355,-107512,0,0,0,156,117,111,197,98,237,228,135,193,105,66,153,0,,,,,
1,1789759374608,-1392,-1526,11313,1683544,1221,317649,0,0,0,522,445,182,542,500,532,364,137,292,375,222,564,0,,,,,
2,1789759374608,-14309,-42550,12414,-681725,1339016,-745255,0,0,0,143,115,104,190,120,221,236,207,174,116,108,132,0,,,,,
1,1789759374624,-1153,-1679,11864,1916895,18325,263893,0,0,0,535,441,206,515,510,510,358,151,291,378,238,571,0,,,,,
2,1789759374624,-16956,-35132,16975,1160643,-428827,-163711,0,0,0,160,108,100,196,113,225,294,272,179,165,206,141,0,,,,,
1,1789759374640,-1756,-1856,12763,2261423,25656,229685,0,0,0,542,435,209,513,510,499,341,154,292,367,234,573,0,,,,,
2,1789759374640,-2498,-10624,16846,3666413,-2305405,364075,0,0,0,181,103,103,218,110,241,332,335,188,202,274,164,0,,,,,
1,1789759374656,-2301,-2024,13572,2684141,39095,283441,0,0,0,544,430,204,517,508,494,329,147,295,363,219,568,0,,,,,
2,1789759374656,7154,7571,12864,5384166,-3233920,345749,0,0,0,213,114,116,224,118,262,335,388,202,221,329,182,0,,,,,
1,1789759374672,-2215,-2115,14548,3220481,87964,392175,0,0,0,540,433,217,499,509,496,312,140,298,358,206,552,0,,,,,
2,1789759374672,5087,3369,12983,5433035,-2519208,830776,0,0,0,220,123,119,228,130,281,350,434,214,236,384,198,0,,,,,
1,1789759374688,-2483,-2153,15501,3911980,216246,481361,0,0,0,528,436,217,502,521,516,302,142,314,323,190,525,0,,,,,
2,1789759374688,-1789,-2584,17697,4645019,-868650,1748296,0,0,0,214,119,114,241,128,283,378,456,207,280,411,220,0,,,,,
1,1789759374704,-2895,-2263,16027,4664566,393397,624304,0,0,0,501,421,201,527,515,527,293,130,309,304,167,510,0,,,,,
2,1789759374704,-5814,-1885,18803,3886324,-266337,1516167,0,0,0,224,116,119,240,113,272,403,452,200,322,426,231,0,,,,,
1,1789759374720,-3273,-2986,17267,5494121,664621,810007,0,0,0,457,391,208,524,482,523,256,110,290,307,153,468,0,,,,,
2,1789759374720,-3627,631,16262,3186273,-603534,226020,0,0,0,221,112,125,230,104,271,439,447,214,326,451,219,0,,,,,
1,1789759374736,-4029,-4776,19731,6195395,946841,1001818,0,0,0,440,374,226,495,435,479,216,85,243,303,144,443,0,,,,,
2,1789759374736,818,445,13361,2370157,-812450,-218689,0,0,0,224,111,141,236,100,279,484,462,222,393,468,216,0,,,,,
1,1789759374752,-4852,-6599,23024,6707300,1166752,1166752,0,0,0,413,334,220,455,393,459,261,107,279,271,138,427,0,,,,,
2,1789759374752,1296,-100,11304,1429424,-646295,28099,0,0,0,233,124,168,218,91,248,510,489,206,426,466,225,0,,,,,
1,1789759374768,-5422,-6092,25149,7177666,1207069,1358564,0,0,0,394,316,168,435,345,410,272,107,231,262,122,411,0,,,,,
2,1789759374768,33,-47,10524,654847,-353080,147829,0,0,0,247,132,185,229,91,252,523,443,214,414,466,219,0,,,,,
1,1789759374784,-5187,-4340,26317,7793418,1167974,1595580,0,0,0,294,273,160,373,299,369,314,137,208,227,119,350,0,,,,,
2,1789759374784,-210,138,10251,157603,-161268,65973,0,0,0,233,139,193,235,97,276,541,442,214,459,466,219,0,,,,,
1,1789759374800,-7188,-2962,24867,8251567,1040914,1788613,0,0,0,220,229,147,305,233,295,334,133,191,213,114,230,0,,,,,
2,1789759374800,181,272,10160,51312,-112399,-3665,0,0,0,247,135,206,231,94,250,540,431,242,468,468,207,0,,,,,
1,1789759374816,-9370,1119,20291,7861835,455705,2018298,0,0,0,224,224,153,317,227,298,345,122,165,221,115,199,0,,,,,
2,1789759374816,263,368,10054,68416,-100181,6108,0,0,0,261,135,244,265,103,264,548,434,239,489,459,200,0,,,,,
1,1789759374832,-8044,4455,14936,6640105,-313984,2269975,0,0,0,228,220,160,328,232,305,180,87,141,218,112,202,0,,,,,
2,1789759374832,191,425,10016,72082,-87964,13439,0,0,0,256,134,236,255,113,282,546,435,214,454,461,209,0,,,,,
1,1789759374848,-4364,5259,11222,4752531,-157603,1861917,0,0,0,225,215,157,325,224,295,57,36,59,225,116,202,0,,,,,
2,1789759374848,157,445,10021,64751,-74525,4886,0,0,0,258,133,232,249,118,275,543,414,206,436,447,206,0,,,,,
1,1789759374864,-1928,7513,8499,1317025,464257,685390,0,0,0,236,211,158,319,207,284,26,4,1,232,119,200,0,,,,,
2,1789759374864,186,454,10016,74525,-64751,-1221,0,0,0,264,130,229,246,105,271,540,413,211,439,425,226,0,,,,,
1,1789759374880,-3201,6939,8370,-1932777,970053,-311541,0,0,0,245,205,168,315,197,285,176,55,85,223,114,196,0,,,,,
2,1789759374880,210,449,10007,100181,-59864,-4886,0,0,0,269,126,232,250,94,265,539,374,210,456,407,236,0,,,,,
1,1789759374896,-5384,5139,8174,-3852116,970053,-670730,0,0,0,233,199,178,303,193,288,338,119,178,212,112,201,0,,,,,
2,1789759374896,201,435,10002,123394,-59864,-6108,0,0,0,275,136,237,247,103,263,541,349,216,443,375,245,0,,,,,
1,1789759374912,-6240,4321,7087,-4532620,129503,-337197,0,0,0,219,198,184,287,192,289,218,80,116,209,117,214,0,,,,,
2,1789759374912,201,430,10007,145385,-58643,-12217,0,0,0,276,148,241,246,124,276,546,331,229,416,344,262,0,,,,,
1,1789759374928,-5116,4532,6680,-5068959,-761138,36651,0,0,0,226,203,186,301,203,297,78,27,37,210,117,207,0,,,,,
2,1789759374928,224,416,10035,183259,-59864,-20769,0,0,0,281,159,253,254,162,286,537,327,233,383,314,287,0,,,,,
1,1789759374944,-3062,4029,7628,-5732359,-1237612,204028,0,0,0,227,212,167,307,209,289,309,128,175,206,121,194,0,,,,,
2,1789759374944,234,363,10035,233350,-79412,-30543,0,0,0,296,170,270,260,183,284,518,294,227,347,262,321,0,,,,,
1,1789759374960,-1387,2971,8724,-6117204,-1274264,180816,0,0,0,230,197,198,300,198,296,277,101,154,207,115,198,0,,,,,
2,1789759374960,205,301,10035,276111,-101403,-37873,0,0,0,320,184,271,268,177,293,510,220,231,331,212,356,0,,,,,
1,1789759374976,-521,2388,9265,-6122091,-996932,-14660,0,0,0,244,198,171,313,198,282,50,10,18,208,111,191,0,,,,,
2,1789759374976,162,263,10035,293215,-101403,-40317,0,0,0,349,205,264,284,211,307,503,214,243,312,199,379,0,,,,,
1,1789759374992,-760,2541,9652,-6065891,-781907,-310319,0,0,0,229,193,166,298,191,282,321,125,169,210,116,192,0,,,,,
2,1789759374992,148,224,10050,274889,-72082,-39095,0,0,0,358,225,277,288,249,314,497,223,261,261,173,397,0,,,,,
1,1789759375008,-1488,2617,10428,-6085439,-844215,-576656,0,0,0,228,195,171,292,189,283,356,141,191,210,116,195,0,,,,,
2,1789759375008,177,177,10098,257785,-35430,-37873,0,0,0,363,214,261,298,232,329,462,193,293,238,131,423,0,,,,,
1,1789759375024,-1962,2397,11581,-6150191,-1198517,-685390,0,0,0,223,192,199,293,189,302,337,127,196,207,116,207,0,,,,,
2,1789759375024,196,129,10160,285884,-20769,-43982,0,0,0,378,200,242,326,224,363,482,143,273,245,132,451,0,,,,,
1,1789759375040,-1785,1952,13304,-6222273,-1666440,-586430,0,0,0,224,194,190,297,194,300,335,127,190,204,114,203,0,,,,,
2,1789759375040,186,81,10222,345749,-2443,-50090,0,0,0,374,203,233,326,223,360,479,143,313,236,113,475,0,,,,,
1,1789759375056,-1344,1407,15266,-6305350,-1999972,-335975,0,0,0,234,201,181,305,203,300,337,133,190,205,116,205,0,,,,,
2,1789759375056,177,28,10279,439822,42760,-52534,0,0,0,431,222,217,343,235,350,485,148,303,242,108,500,0,,,,,
1,1789759375072,-976,727,17774,-6405532,-2174680,56199,0,0,0,239,208,182,308,208,303,269,102,151,207,118,206,0,,,,,
2,1789759375072,181,-19,10385,541226,128281,-53756,0,0,0,404,245,203,351,276,376,488,127,315,232,103,515,0,,,,,
1,1789759375088,-756,268,20468,-6515488,-2251649,389732,0,0,0,239,209,181,313,209,303,212,74,116,211,121,202,0,,,,,
