sole_id,timestamp,accel_x,accel_y,accel_z,gyro_x,gyro_y,gyro_z,magn_x,magn_y,magn_z,pressure_01,pressure_02,pressure_03,pressure_04,pressure_05,pressure_06,pressure_07,pressure_08,pressure_09,pressure_10,pressure_11,pressure_12,corrupt,transition,asphalt
1,1789506127296,-2517,-1990,10016,2057394,-2240653,1530828,0,0,0,190,127,123,299,146,270,340,95,161,245,125,166,0,,
2,1789506127296,397,86,9973,-45204,-48869,2443,0,0,0,183,66,128,210,64,185,578,573,173,400,461,79,0,,
1,1789506127312,-918,5589,8135,1221730,-839328,1765400,0,0,0,197,116,126,298,150,265,314,88,150,250,128,156,0,,
2,1789506127312,373,90,9959,-24434,-54977,0,0,0,0,179,58,146,199,67,185,574,549,212,392,453,63,0,,
1,1789506127328,-851,12706,7461,-243124,271224,2287079,0,0,0,200,108,123,296,139,258,345,100,162,250,127,146,0,,
2,1789506127328,354,86,9959,-8552,-62308,-3665,0,0,0,183,57,129,200,66,178,586,554,181,409,448,90,0,,
1,1789506127344,-708,14414,7049,-1932777,621860,3153286,0,0,0,186,99,156,292,123,288,312,83,161,247,125,169,0,,
2,1789506127344,349,81,9968,0,-64751,-4886,0,0,0,189,65,127,197,68,173,585,558,178,406,466,86,0,,
1,1789506127360,516,12476,6695,-2605951,772133,3379306,0,0,0,181,94,171,289,118,288,291,74,158,248,125,180,0,,
2,1789506127360,358,81,9973,9773,-62308,-2443,0,0,0,190,63,125,195,64,166,585,558,176,408,467,84,0,,
1,1789506127376,478,11198,6661,-3016452,1142317,2971248,0,0,0,193,117,143,287,131,252,350,104,173,249,127,163,0,,
2,1789506127376,358,86,9954,17104,-62308,0,0,0,0,178,56,110,199,66,161,582,552,171,420,458,108,0,,
1,1789506127392,-1100,10303,6891,-3303559,1420872,2113593,0,0,0,184,146,148,280,148,264,341,111,169,244,137,170,0,,
2,1789506127392,363,86,9949,23212,-64751,0,0,0,0,176,52,104,199,65,155,583,547,161,429,451,120,0,,
1,1789506127408,-2684,8882,7384,-3480710,1277930,1420872,0,0,0,191,104,141,282,130,265,329,109,151,248,144,150,0,,
2,1789506127408,358,71,9949,28099,-69638,0,0,0,0,180,57,107,198,63,158,584,544,162,420,443,109,0,,
1,1789506127424,-3608,7379,8370,-3563787,957836,933402,0,0,0,190,109,140,278,129,253,284,94,142,239,140,164,0,,
2,1789506127424,358,57,9959,34208,-70860,1221,0,0,0,178,60,117,200,62,169,595,550,181,404,432,86,0,,
1,1789506127440,-3742,6087,9925,-3606548,652404,613308,0,0,0,185,114,133,282,132,252,57,10,18,259,156,171,0,,
2,1789506127440,344,47,9964,36651,-72082,0,0,0,0,176,54,117,210,63,173,586,529,194,410,428,67,0,,
1,1789506127456,-3618,4556,11854,-3671300,542448,329867,0,0,0,182,116,123,271,130,233,303,118,161,240,152,158,0,x,
2,1789506127456,330,47,9968,37873,-70860,0,0,0,0,179,52,109,220,68,170,570,505,176,426,432,73,0,x,
1,1789506127472,-3747,2632,13716,-3717725,546113,92851,0,0,0,185,121,155,265,143,260,104,40,96,225,169,170,0,,
2,1789506127472,335,57,9973,37873,-68416,-1221,0,0,0,183,61,114,220,71,172,593,522,154,431,433,89,0,,
1,1789506127488,-4077,933,14941,-3670078,444709,-21991,0,0,0,182,127,142,258,145,254,269,113,145,221,149,163,0,,
2,1789506127488,344,57,9973,42760,-68416,-1221,0,0,0,191,91,123,224,84,177,599,521,166,437,439,84,0,,
1,1789506127504,-4206,-339,15994,-3571118,144164,-107512,0,0,0,181,125,139,258,145,258,346,150,173,218,139,154,0,,
2,1789506127504,344,43,9968,52534,-68416,0,0,0,0,197,142,133,233,115,195,607,529,187,456,446,88,0,,
1,1789506127520,-3871,-1129,16946,-3490483,-312763,-212581,0,0,0,179,122,136,257,145,263,343,154,176,215,138,155,0,,
2,1789506127520,335,38,9964,70860,-69638,0,0,0,0,211,142,207,239,103,209,599,479,191,466,417,117,0,,
1,1789506127536,-3316,-2005,17774,-3457497,-740368,-360410,0,0,0,180,124,134,255,144,268,343,155,178,214,139,158,0,,
2,1789506127536,330,28,9973,100181,-73303,0,0,0,0,204,74,222,245,80,235,610,439,233,430,403,123,0,,
1,1789506127552,-2617,-3345,18171,-3442836,-1007927,-569326,0,0,0,184,132,138,254,146,264,346,156,177,215,140,157,0,,
2,1789506127552,330,9,9987,128281,-78190,-1221,0,0,0,201,96,220,258,105,250,574,435,203,395,422,148,0,,
1,1789506127568,-1545,-5173,17697,-3337767,-1119105,-885754,0,0,0,188,137,139,254,147,257,350,158,182,215,141,159,0,,
2,1789506127568,325,-4,10007,145385,-84299,-1221,0,0,0,210,101,231,288,91,219,581,342,190,433,366,165,0,,
1,1789506127584,-349,-7183,16678,-3177720,-1200961,-1290147,0,0,0,186,132,142,257,141,265,353,157,187,219,141,171,0,,
2,1789506127584,311,-4,10026,158824,-80634,0,0,0,0,232,121,239,259,115,234,589,292,216,387,289,191,0,,
1,1789506127600,-985,-9973,14606,-2948035,-1078788,-1551597,0,0,0,183,136,154,256,149,269,359,157,184,225,143,172,0,,
2,1789506127600,306,-23,10031,183259,-67195,0,0,0,0,219,205,332,275,163,286,606,285,241,350,274,248,0,,
1,1789506127616,-2651,-13251,12060,-2554638,-1102000,-1342681,0,0,0,187,146,140,267,169,258,372,159,180,230,146,155,0,,
2,1789506127616,287,-81,10007,245567,-52534,0,0,0,0,244,204,293,309,206,294,569,252,278,343,245,302,0,,
1,1789506127632,-1474,-16247,9772,-1857030,-1496619,-613308,0,0,0,188,149,140,267,172,261,374,163,188,229,148,160,0,,
2,1789506127632,263,-129,10054,340862,-36651,-1221,0,0,0,262,183,253,353,223,301,575,217,274,343,207,344,0,,
1,1789506127648,4589,-16793,8930,-974940,-1490511,-98960,0,0,0,191,133,140,271,151,263,367,139,199,222,124,164,0,,
2,1789506127648,229,-172,10308,442266,3665,4886,0,0,0,260,227,226,370,257,322,580,185,262,313,181,379,0,,
1,1789506127664,8308,-16156,9040,-133168,-777020,-199142,0,0,0,194,144,138,271,159,255,366,160,186,228,142,154,0,,
2,1789506127664,172,-248,10739,641408,86742,26878,0,0,0,266,246,164,403,261,349,563,172,276,298,160,424,0,,
1,1789506127680,5575,-17094,10725,1099557,310319,-536339,0,0,0,189,133,128,265,152,248,371,176,185,238,192,151,0,,
2,1789506127680,248,-315,11184,922406,233350,39095,0,0,0,308,202,120,446,230,386,550,168,282,313,140,494,0,,
1,1789506127696,2100,-12720,11222,2530203,1038470,-326202,0,0,0,192,144,132,270,168,268,344,202,179,245,245,158,0,,
2,1789506127696,598,-416,11744,1266934,403171,6108,0,0,0,360,182,107,445,247,402,508,157,287,307,131,559,0,,
1,1789506127712,-775,1325,12026,3535688,1353677,384845,0,0,0,179,150,126,276,188,251,321,223,144,266,317,167,0,,
2,1789506127712,938,-574,12261,1585806,443488,-57421,0,0,0,359,221,102,428,291,388,452,181,306,286,153,589,0,,
1,1789506127728,-1718,3493,12318,3137403,917519,507018,0,0,0,194,151,146,288,185,267,348,236,155,302,348,160,0,,
2,1789506127728,966,-722,12720,1921782,345749,-134390,0,0,0,351,282,130,406,306,384,413,217,279,292,182,611,0,,
1,1789506127744,-2316,540,12581,2775771,280998,199142,0,0,0,208,154,144,293,176,270,393,272,171,325,362,140,0,,
2,1789506127744,842,-875,12964,2189341,213802,-166155,0,0,0,394,295,118,402,342,377,339,181,273,299,154,607,0,,
1,1789506127760,-1947,-1392,13357,2560747,-141720,-179594,0,0,0,204,160,128,289,179,260,413,317,171,334,378,134,0,,
2,1789506127760,933,-1033,13251,2454456,135612,-189368,0,0,0,401,214,117,376,330,399,355,159,263,281,146,573,0,,
1,1789506127776,-942,-469,14371,2251649,124616,-98960,0,0,0,191,164,127,276,191,262,405,342,171,347,391,143,0,,
2,1789506127776,1129,-1186,13744,2805093,124616,-235793,0,0,0,346,240,117,349,339,355,344,154,247,277,173,552,0,,
1,1789506127792,-1000,-86,13735,1666440,337197,68416,0,0,0,191,162,142,263,190,259,403,351,174,371,402,151,0,,
2,1789506127792,1253,-1340,14534,3271794,124616,-301767,0,0,0,322,271,119,325,278,389,328,154,262,247,144,470,0,,
1,1789506127808,-1344,-119,11538,1009149,201585,20769,0,0,0,215,162,175,265,172,255,424,346,168,400,400,156,0,,
2,1789506127808,1584,-1536,15415,3789807,108734,-377514,0,0,0,335,282,107,350,264,350,298,146,233,251,127,431,0,,
1,1789506127824,-1316,-138,10150,570548,37873,-65973,0,0,0,224,189,168,274,193,245,420,342,153,409,398,147,0,,
2,1789506127824,1655,-1842,16367,4449542,31764,-476474,0,0,0,264,252,69,319,249,282,279,118,186,256,141,363,0,,
1,1789506127840,-1215,-181,10117,306654,31764,-70860,0,0,0,220,161,246,267,171,282,414,315,173,423,435,186,0,,
2,1789506127840,1617,-2569,17252,5010316,-56199,-530231,0,0,0,254,219,84,295,232,267,290,101,176,232,123,299,0,,
1,1789506127856,-1191,-129,10203,134390,70860,-45204,0,0,0,236,172,240,264,184,275,433,379,175,439,446,170,0,,
2,1789506127856,1923,-3804,18372,5408600,-46425,-553443,0,0,0,216,169,83,258,184,248,231,102,149,197,109,261,0,,
1,1789506127872,-1191,-19,10141,68416,80634,-20769,0,0,0,265,168,243,294,160,294,448,392,206,459,461,176,0,,
2,1789506127872,2608,-4264,19028,5506339,207694,-624304,0,0,0,195,105,78,209,117,201,173,102,136,161,91,196,0,,
1,1789506127888,-1191,4,10098,85521,50090,-4886,0,0,0,286,150,283,299,148,345,445,385,220,468,468,210,0,,
2,1789506127888,3278,-3785,18573,5456248,255341,-785572,0,0,0,168,66,83,164,84,145,141,107,101,142,93,135,0,,
1,1789506127904,-1191,14,10117,108734,23212,2443,0,0,0,258,161,275,307,167,353,468,375,210,482,484,212,0,,
2,1789506127904,4331,-2742,16539,5320636,26878,-1011592,0,0,0,92,62,65,113,88,111,128,138,82,103,114,81,0,,
1,1789506127920,-1167,9,10131,130725,-2443,4886,0,0,0,292,185,283,334,171,353,482,369,226,486,483,222,0,,
2,1789506127920,4532,-162,13400,4950451,-48869,-1260825,0,0,0,52,56,60,95,82,120,121,138,89,86,112,71,0,,
1,1789506127936,-1148,0,10117,156381,-31764,4886,0,0,0,291,203,322,347,180,404,481,353,277,478,423,284,0,,
2,1789506127936,3598,5398,9906,4063475,-246789,-1397659,0,0,0,48,45,52,97,70,121,125,130,93,83,95,67,0,,
1,1789506127952,-1158,0,10112,185703,-54977,3665,0,0,0,320,220,345,379,181,422,484,327,305,466,336,307,0,,
2,1789506127952,3689,10873,8537,1955990,-668286,-1117883,0,0,0,51,43,34,105,70,103,150,135,83,91,98,59,0,,
1,1789506127968,-1210,-19,10150,223576,-70860,7330,0,0,0,363,229,341,405,189,435,487,305,315,444,282,334,0,,
2,1789506127968,4158,11313,7997,-202807,-741590,-777020,0,0,0,68,45,40,119,69,107,159,128,74,109,100,74,0,,
1,1789506127984,-1239,-67,10222,256563,-87964,20769,0,0,0,365,278,343,425,245,437,496,288,323,407,257,388,0,,
2,1789506127984,3866,8255,6456,-1492954,-563217,-752585,0,0,0,60,46,48,99,61,114,126,121,85,79,80,67,0,,
1,1789506128000,-1206,-110,10299,298102,-118507,39095,0,0,0,368,330,332,462,297,428,499,275,325,376,232,413,0,,
2,1789506128000,2952,6843,5144,-1639562,-420275,-1084896,0,0,0,55,43,50,102,59,116,115,101,83,86,92,72,0,,
1,1789506128016,-1182,-143,10404,381179,-141720,46425,0,0,0,404,320,284,496,306,459,468,229,295,373,201,418,0,,
2,1789506128016,1971,7307,5312,-1938886,-367740,-1264491,0,0,0,62,44,59,97,53,120,126,107,87,84,83,78,0,,
1,1789506128032,-1220,-210,10504,519235,-146607,53756,0,0,0,412,330,276,493,351,483,437,122,236,369,166,460,0,,
2,1789506128032,1497,7767,6451,-2731789,-416610,-1026253,0,0,0,63,58,63,92,56,122,112,98,82,88,96,83,0,,
1,1789506128048,-1225,-344,10629,681725,-128281,67195,0,0,0,417,306,281,491,342,479,465,131,279,376,142,495,0,,
2,1789506128048,1564,7159,7351,-3552792,-430049,-599869,0,0,0,61,50,55,110,70,119,121,123,83,91,104,72,0,,
1,1789506128064,-1311,-454,11007,825889,-108734,79412,0,0,0,400,319,195,523,372,492,430,126,272,364,156,491,0,,
2,1789506128064,2033,5814,7800,-4057366,-306654,-107512,0,0,0,66,60,58,104,67,132,149,145,105,90,100,75,0,,
1,1789506128080,-1450,-559,11146,981049,-134390,114842,0,0,0,445,313,175,519,418,509,455,140,285,342,155,507,0,,
2,1789506128080,2498,4828,8279,-4184426,-37873,346971,0,0,0,68,54,56,120,68,124,150,142,100,99,102,76,0,,
1,1789506128096,-1373,-684,10859,1091005,-178372,153938,0,0,0,415,306,166,540,391,528,431,137,286,372,149,490,0,,
2,1789506128096,2890,4374,9136,-4318817,224798,763581,0,0,0,70,51,53,123,64,119,150,148,100,92,97,75,0,,
1,1789506128112,-1206,-832,10547,1128878,-190589,161268,0,0,0,431,281,191,529,376,552,382,109,266,374,152,527,0,,
2,1789506128112,3441,3986,10232,-4582711,449596,1103222,0,0,0,72,44,49,123,65,119,154,150,102,103,96,77,0,,
1,1789506128128,-1249,-1014,10351,1121548,-186924,150272,0,0,0,458,291,165,505,394,520,383,130,301,359,171,536,0,,
2,1789506128128,4048,2881,11485,-4853935,786794,1263269,0,0,0,75,43,46,147,69,121,160,157,101,117,92,80,0,,
1,1789506128144,-1330,-1210,10107,1086118,-188146,152716,0,0,0,472,304,159,496,425,528,407,142,301,364,182,540,0,,
2,1789506128144,3948,1646,12969,-4930904,1156978,1279151,0,0,0,64,39,59,129,72,141,152,155,106,103,93,97,0,,
1,1789506128160,-1306,-1378,9901,1028697,-173485,158824,0,0,0,462,320,150,501,457,543,395,154,290,355,189,540,0,,
2,1789506128160,3311,521,15013,-4849048,1402546,1277930,0,0,0,52,34,71,98,70,152,139,148,114,97,110,116,0,,
1,1789506128176,-1340,-1550,9686,957836,-127059,158824,0,0,0,461,330,157,499,442,522,367,150,287,360,203,532,0,,
2,1789506128176,3110,-363,17066,-4730540,1511280,1266934,0,0,0,53,41,67,92,70,140,135,148,110,101,124,108,0,,
1,1789506128192,-1282,-1698,9538,889419,-85521,161268,0,0,0,466,332,176,493,412,492,322,121,261,385,211,527,0,,
2,1789506128192,3024,-703,19301,-4687779,1638340,1158200,0,0,0,61,57,66,94,76,133,140,152,109,91,123,85,0,,
1,1789506128208,-1167,-1837,9466,821002,-52534,152716,0,0,0,463,337,172,492,403,485,306,111,242,399,209,532,0,,
2,1789506128208,2048,-1057,21363,-4873482,1699427,1103222,0,0,0,68,61,70,97,77,141,143,152,119,89,114,82,0,,
1,1789506128224,-1148,-1976,9528,756251,-28099,128281,0,0,0,473,353,163,486,392,498,389,153,301,389,212,546,0,,
2,1789506128224,435,-2469,22751,-5264436,1512502,1258382,0,0,0,65,57,68,103,73,141,140,144,106,93,106,84,0,,
1,1789506128240,-1253,-2077,9667,722042,-8552,114842,0,0,0,493,375,188,469,415,510,375,173,325,362,215,561,0,,
2,1789506128240,-138,-4747,22933,-5496565,1159422,1534493,0,0,0,69,54,62,112,73,136,142,132,96,104,105,87,0,,
1,1789506128256,-1258,-2172,9815,722042,7330,118507,0,0,0,490,376,187,478,445,514,364,176,298,363,233,565,0,,
2,1789506128256,856,-7351,22498,-5349957,819781,1727526,0,0,0,68,59,69,104,74,140,147,144,115,97,112,86,0,,
1,1789506128272,-1234,-2273,9973,746477,17104,119729,0,0,0,497,362,182,494,487,526,339,147,263,384,253,574,0,,
2,1789506128272,2986,-10892,21330,-4990769,463035,1844813,0,0,0,67,63,62,113,85,137,153,163,122,92,105,78,0,,
1,1789506128288,-1354,-2383,10165,806342,24434,131946,0,0,0,514,430,189,465,461,534,306,138,255,358,234,559,0,,
2,1789506128288,5498,-15640,18425,-4414112,400727,1778839,0,0,0,66,50,63,123,76,142,165,145,115,102,99,81,0,,
1,1789506128304,-1368,-2493,10236,882089,35430,156381,0,0,0,477,412,223,532,479,508,388,191,290,357,235,552,0,,
2,1789506128304,5738,-20411,15271,-3621209,827111,1445307,0,0,0,66,38,64,133,68,148,178,128,108,113,93,84,0,,
1,1789506128320,-1273,-2603,10370,974940,51312,171042,0,0,0,523,396,206,513,453,525,390,231,285,351,224,576,0,,
2,1789506128320,536,-24517,13156,-2602285,1578475,773355,0,0,0,67,39,64,138,83,161,191,135,123,104,90,98,0,,
1,1789506128336,-1402,-2718,10796,1102000,75747,185703,0,0,0,535,412,221,498,443,521,334,214,276,370,236,575,0,,
2,1789506128336,-9021,-26537,12629,-1492954,1373225,194255,0,0,0,70,49,54,141,82,152,186,136,109,108,88,87,0,,
1,1789506128352,-1655,-2837,11447,1306029,113620,229685,0,0,0,535,409,226,510,495,499,324,213,279,382,250,563,0,,
2,1789506128352,-12165,-26326,11859,-450818,160046,18325,0,0,0,75,48,57,137,72,156,201,160,113,129,98,103,0,,
1,1789506128368,-1636,-2952,11911,1579697,140499,298102,0,0,0,553,456,227,495,516,512,342,220,297,363,246,571,0,,
2,1789506128368,-5101,-25273,13165,849102,-955393,-238237,0,0,0,85,69,63,138,75,142,230,191,108,150,168,104,0,,
1,1789506128384,-1359,-3067,12318,1940107,141720,361632,0,0,0,560,450,220,484,496,524,353,214,320,356,247,587,0,,
2,1789506128384,2450,-16506,14261,2939483,-1539380,-1103222,0,0,0,73,48,48,150,99,155,229,226,114,146,216,95,0,,
1,1789506128400,-1086,-3163,12897,2337170,97738,386066,0,0,0,543,426,215,493,502,522,340,208,333,353,245,574,0,,
2,1789506128400,5044,119,13893,4371351,-2311514,-1874134,0,0,0,79,46,51,154,108,164,221,321,131,159,273,97,0,,
1,1789506128416,-1363,-3292,13807,2867401,37873,403171,0,0,0,530,443,220,495,516,524,303,181,318,337,223,544,0,,
2,1789506128416,5608,3144,13754,4002389,-2538755,-1222952,0,0,0,92,54,60,167,105,178,259,369,150,180,316,104,0,,
1,1789506128432,-1756,-3445,14639,3494149,-4886,470366,0,0,0,523,421,223,503,502,536,269,123,286,334,190,525,0,,
2,1789506128432,5331,354,13601,3357315,-1660331,237015,0,0,0,91,48,61,177,105,195,285,378,164,184,332,112,0,,
1,1789506128448,-1995,-3699,15625,4243069,-37873,592539,0,0,0,496,359,216,532,507,550,292,115,300,328,159,502,0,,
2,1789506128448,1009,-445,13199,3104417,-728151,1188743,0,0,0,95,49,69,171,105,194,298,421,165,231,358,115,0,,
1,1789506128464,-2646,-4503,17238,5027420,-103847,731816,0,0,0,458,342,213,496,446,502,317,135,342,288,149,478,0,,
2,1789506128464,-3469,248,13299,2982244,-504574,984714,0,0,0,112,58,77,176,101,188,347,464,162,304,403,106,0,,
1,1789506128480,-2651,-6077,19645,5677381,-307876,810007,0,0,0,439,305,213,448,368,471,300,118,369,271,132,446,0,,x
2,1789506128480,-2909,234,14524,2774549,-700051,75747,0,0,0,122,57,80,177,96,179,374,479,162,303,424,105,0,,x
1,1789506128496,-2364,-7092,21593,6170960,-640186,781907,0,0,0,393,252,163,427,320,445,275,101,268,245,110,419,0,,
2,1789506128496,488,-507,13792,1975538,-604756,-185703,0,0,0,157,56,94,183,88,153,477,458,149,376,433,111,0,,
1,1789506128512,-2469,-6312,22344,6451958,-915076,779464,0,0,0,292,286,155,321,290,360,280,128,242,207,118,385,0,,
2,1789506128512,1191,-559,11509,1000597,-362853,13439,0,0,0,168,63,111,195,72,164,531,452,150,409,480,109,0,,
1,1789506128528,-3761,-4953,21976,6692639,-689055,1022588,0,0,0,249,188,124,307,244,312,274,97,170,214,109,274,0,,
2,1789506128528,268,-263,9920,261450,-153938,156381,0,0,0,172,75,116,196,82,167,504,459,142,447,485,103,0,,
1,1789506128544,-5939,-2124,20004,6687752,-157603,1433089,0,0,0,157,162,158,231,167,279,282,117,175,192,117,190,0,,
2,1789506128544,28,-95,10031,109955,-75747,61086,0,0,0,198,78,206,228,82,205,514,444,135,448,486,132,0,,
1,1789506128560,-8025,3306,15955,6136752,355523,1931555,0,0,0,132,160,160,206,158,281,317,137,194,187,118,175,0,,
2,1789506128560,311,-14,10193,153938,-54977,-8552,0,0,0,181,88,158,217,101,189,542,431,181,444,471,168,0,,
1,1789506128576,-7786,6298,11883,4924795,522900,2312735,0,0,0,146,168,129,212,168,252,324,149,181,185,124,174,0,,
2,1789506128576,445,0,10093,188146,-63529,-4886,0,0,0,175,97,176,223,101,233,570,433,230,423,431,210,0,,
1,1789506128592,-6135,7599,9480,2896722,367740,2223549,0,0,0,143,163,126,219,160,233,328,145,176,189,119,164,0,,
2,1789506128592,411,0,10045,190589,-72082,-2443,0,0,0,193,175,163,235,152,207,568,399,209,416,373,185,0,,
1,1789506128608,-3924,8150,8590,-249233,135612,1470963,0,0,0,155,150,135,242,152,242,325,134,174,191,113,162,0,,
2,1789506128608,325,-4,10074,194255,-64751,-14660,0,0,0,201,157,216,247,201,205,586,360,211,373,323,246,0,,
1,1789506128624,-2689,7116,8207,-2698802,204028,680503,0,0,0,162,138,138,242,148,252,313,130,171,189,113,167,0,,
2,1789506128624,325,-14,10107,224798,-40317,-24434,0,0,0,220,153,229,262,174,229,602,290,234,378,270,272,0,,
1,1789506128640,-2742,5221,7374,-3920533,491135,125838,0,0,0,154,136,157,221,144,254,279,115,160,185,110,170,0,,
2,1789506128640,382,-47,10131,283441,-21991,-31764,0,0,0,239,166,199,297,160,270,577,220,240,328,224,273,0,,
1,1789506128656,-2952,4886,6570,-4246735,511905,-10995,0,0,0,168,139,172,229,142,259,263,98,147,181,106,172,0,,
2,1789506128656,411,-124,10145,360410,-15882,-41538,0,0,0,219,149,153,304,172,280,573,185,232,289,180,294,0,,
1,1789506128672,-2732,4924,6570,-4855156,403171,-131946,0,0,0,162,132,157,213,133,243,342,137,190,180,105,164,0,,
2,1789506128672,378,-215,10141,386066,10995,-41538,0,0,0,221,162,138,346,215,302,573,227,278,296,168,333,0,,
1,1789506128688,-2541,4331,7461,-5457470,376292,-234572,0,0,0,188,133,154,248,138,254,336,130,179,181,102,156,0,,
2,1789506128688,363,-268,10208,394618,67195,-32986,0,0,0,238,190,141,373,228,354,572,274,314,304,171,391,0,,
1,1789506128704,-2732,3426,8394,-5897293,409279,-331088,0,0,0,170,126,157,217,129,259,291,110,168,181,100,184,0,,
2,1789506128704,411,-301,10323,442266,146607,-32986,0,0,0,237,196,137,365,208,383,565,273,315,298,159,437,0,,
1,1789506128720,-3330,2895,9069,-6073222,348193,-417831,0,0,0,162,131,160,221,137,247,321,122,181,190,109,169,0,,
2,1789506128720,521,-368,10409,529009,251676,-46425,0,0,0,247,206,130,386,211,388,538,260,327,280,150,445,0,,
1,1789506128736,-3962,2560,9887,-6205169,35430,-524122,0,0,0,162,123,186,222,128,265,340,128,204,194,102,181,0,,
2,1789506128736,674,-483,10433,624304,324980,-76969,0,0,0,260,201,117,386,212,397,536,232,327,269,140,471,0,,
1,1789506128752,-4393,1971,10993,-6278472,-399505,-603534,0,0,0,172,124,188,228,125,265,343,125,203,200,105,178,0,,
2,1789506128752,732,-574,10457,709825,326202,-106290,0,0,0,253,163,113,390,217,400,526,176,347,263,110,515,0,,
1,1789506128768,-4584,1100,12467,-6228381,-880867,-587652,0,0,0,177,129,180,236,128,261,314,109,177,202,108,172,0,,
2,1789506128768,760,-674,10342,753807,270002,-128281,0,0,0,246,164,108,379,227,404,486,217,333,249,127,528,0,,
1,1789506128784,-4536,272,14132,-6148969,-1318247,-519235,0,0,0,187,134,187,254,136,270,288,97,164,201,108,175,0,,
2,1789506128784,808,-789,10212,747699,215024,-141720,0,0,0,283,167,110,422,220,385,489,163,326,255,116,542,0,,
1,1789506128800,-4225,-402,16348,-6079330,-1709200,-428827,0,0,0,194,133,197,266,140,280,311,108,186,200,105,182,0,,
2,1789506128800,851,-890,10198,752585,182037,-158824,0,0,0,276,193,97,406,266,390,485,147,306,282,132,552,0,,
1,1789506128816,-3895,-684,19119,-6080552,-1929112,-365297,0,0,0,184,136,200,256,140,281,337,123,203,202,108,185,0,,
2,1789506128816,717,-981,10222,770911,153938,-171042,0,0,0,274,185,87,384,272,381,459,145,270,279,122,564,0,,
1,1789506128832,-3565,-1253,22679,-6135530,-2106263,-349414,0,0,0,175,140,195,254,140,277,338,124,197,209,112,185,0,,
2,1789506128832,540,-1086,10145,790459,138055,-138055,0,0,0,269,255,107,385,338,380,445,162,298,287,165,569,0,,
1,1789506128848,-2713,-3259,26427,-6245486,-2309070,-516791,0,0,0,179,147,187,272,147,274,330,117,184,217,116,183,0,,
2,1789506128848,583,-1220,10054,811229,140499,-98960,0,0,0,287,266,120,398,347,388,449,179,378,291,171,597,0,,
1,1789506128864,-1320,-6791,29432,-6388428,-2591290,-847880,0,0,0,178,171,181,274,162,267,319,114,169,222,123,185,0,,
2,1789506128864,760,-1373,10112,851546,168598,-73303,0,0,0,317,265,127,441,320,408,457,179,387,285,156,616,0,,
1,1789506128880,636,-11849,30772,-6475171,-2783102,-1220508,0,0,0,165,184,176,251,169,261,367,146,196,217,132,197,0,,
2,1789506128880,928,-1521,10270,919963,202807,-67195,0,0,0,311,275,117,442,291,421,476,172,385,308,151,632,0,,
1,1789506128896,368,-18186,28427,-6167295,-2179567,-1486845,0,0,0,141,185,180,226,179,275,358,156,214,195,131,189,0,,
2,1789506128896,1048,-1622,10504,1014036,216246,-80634,0,0,0,344,287,132,444,323,453,467,189,386,299,152,651,0,,
1,1789506128912,-3986,-25608,22455,-5290092,-1640784,-1398881,0,0,0,153,185,164,253,187,270,352,145,192,202,125,173,0,,
2,1789506128912,1210,-1746,11002,1167974,191811,-113620,0,0,0,378,288,149,453,322,461,458,178,372,296,150,685,0,,
1,1789506128928,-3402,-32586,15869,-3914424,-2781880,-307876,0,0,0,163,191,180,254,201,307,356,145,214,221,125,209,0,,
2,1789506128928,1282,-1871,11562,1374446,166155,-156381,0,0,0,394,300,149,436,307,451,464,152,335,310,164,690,0,,
1,1789506128944,9069,-37204,12170,-2469117,-3889989,773355,0,0,0,159,187,182,259,194,309,356,140,214,225,125,209,0,,
2,1789506128944,1081,-1986,12136,1700648,175929,-185703,0,0,0,413,322,149,421,318,474,448,151,321,300,161,683,0,,
1,1789506128960,23527,-37764,11112,-872315,-2489886,485026,0,0,0,142,184,176,245,199,296,343,175,204,233,180,191,0,,
2,1789506128960,1076,-2129,12634,2070833,210137,-188146,0,0,0,433,307,152,415,307,489,403,156,326,271,137,701,0,,
1,1789506128976,15496,-31840,13481,1076344,875980,-748920,0,0,0,157,193,123,250,231,258,341,262,170,238,274,156,0,,
2,1789506128976,1421,-2301,13041,2459343,238237,-208915,0,0,0,453,287,151,416,313,453,370,161,309,267,145,703,0,,
1,1789506128992,306,-13831,16582,3384193,3130073,-918741,0,0,0,169,183,99,260,224,243,331,301,157,264,349,135,0,,
2,1789506128992,1502,-2469,13491,2939483,250454,-278554,0,0,0,477,326,141,462,353,423,369,179,332,293,155,702,0,,
1,1789506129008,-4364,3843,15142,4908913,3815464,-124616,0,0,0,165,174,109,252,211,257,340,345,181,283,394,141,0,,
2,1789506129008,1426,-2608,14094,3430619,263893,-327423,0,0,0,496,345,123,410,353,399,387,202,319,295,172,663,0,,
1,1789506129024,-2479,2790,14486,5117828,2888170,-238237,0,0,0,168,190,125,245,223,289,372,393,202,301,416,160,0,,
2,1789506129024,1880,-2814,14836,4018271,280998,-381179,0,0,0,401,357,120,416,361,438,343,151,333,282,158,607,0,,
1,1789506129040,942,-3206,16022,4641354,863763,-1138652,0,0,0,168,195,124,258,231,308,375,383,178,353,429,162,0,,
2,1789506129040,2770,-3220,15979,4718323,326202,-518013,0,0,0,335,402,102,418,377,404,359,129,332,256,155,621,0,,
1,1789506129056,3239,-1962,18401,4120896,315206,-846659,0,0,0,161,171,113,275,220,289,371,361,134,418,444,155,0,,
2,1789506129056,3560,-4288,18339,5517334,442266,-713490,0,0,0,287,374,82,307,312,369,219,103,228,210,146,494,0,,
1,1789506129072,1301,-823,18387,3315776,648738,59864,0,0,0,191,162,145,282,195,280,431,380,146,459,460,177,0,,
2,1789506129072,3689,-6207,22330,6194173,827111,-818559,0,0,0,268,262,87,268,262,288,149,95,173,198,124,412,0,,
1,1789506129088,-1579,-981,14166,1723861,634078,267558,0,0,0,203,143,203,264,175,316,446,416,175,472,473,190,0,,
2,1789506129088,3785,-6733,25393,6613227,1375668,-856433,0,0,0,220,159,98,211,156,245,135,89,142,161,91,288,0,,
1,1789506129104,-1655,-871,10404,421497,288328,-42760,0,0,0,220,136,211,296,171,307,461,451,210,474,474,212,0,,
2,1789506129104,5020,-5087,26546,6834360,1903456,-1039692,0,0,0,225,102,69,211,96,181,132,85,105,141,72,158,0,,
1,1789506129120,-536,-315,9605,9773,63529,-184481,0,0,0,253,152,180,346,194,327,461,414,194,490,490,209,0,,
2,1789506129120,6738,-1239,25829,7029837,2184454,-1583362,0,0,0,96,70,53,124,88,129,122,139,85,97,109,84,0,,
1,1789506129136,-617,-47,10256,147829,80634,-30543,0,0,0,250,174,229,348,205,359,456,387,208,494,493,269,0,,
2,1789506129136,7810,5273,21942,6930877,2141693,-2268753,0,0,0,30,85,58,97,115,136,117,148,83,82,123,87,0,,
1,1789506129152,-961,-62,10346,211359,74525,35430,0,0,0,279,187,278,348,201,370,467,395,236,491,491,253,0,,
2,1789506129152,7250,13515,14606,5583308,1598023,-2817310,0,0,0,36,149,73,97,147,148,124,154,96,91,136,103,0,,
1,1789506129168,-961,-100,10145,171042,19547,7330,0,0,0,298,217,307,353,210,371,492,378,236,495,479,235,0,,
2,1789506129168,4632,16798,11773,1668883,735481,-2194227,0,0,0,39,180,55,87,157,133,120,167,90,83,143,82,0,,
1,1789506129184,-871,-90,10136,160046,-31764,-1221,0,0,0,299,232,348,373,235,392,493,332,233,506,445,273,0,,
2,1789506129184,2837,14295,12088,-1960877,-56199,-1121548,0,0,0,31,175,33,80,153,111,117,168,80,74,140,66,0,,
1,1789506129200,-842,-100,10212,184481,-76969,9773,0,0,0,304,278,300,398,272,392,482,321,235,495,426,294,0,,
2,1789506129200,2938,9418,9983,-3431840,-751364,-635299,0,0,0,28,172,38,83,151,109,125,168,87,85,145,80,0,,
1,1789506129216,-880,-129,10212,201585,-124616,17104,0,0,0,320,288,313,416,272,408,465,306,272,444,390,330,0,,
2,1789506129216,3259,7585,6987,-3582113,-873537,-774577,0,0,0,29,171,51,89,153,126,124,170,91,95,150,99,0,,
1,1789506129232,-952,-138,10198,207694,-157603,19547,0,0,0,365,308,349,424,251,410,457,257,296,404,324,369,0,,
2,1789506129232,2689,8145,6010,-3932750,-508239,-987158,0,0,0,32,172,64,77,146,131,114,165,93,87,150,111,0,,
1,1789506129248,-995,-167,10217,233350,-171042,34208,0,0,0,387,333,340,424,246,412,461,215,308,383,270,393,0,,
2,1789506129248,1440,7877,7638,-5064072,-249233,-834441,0,0,0,33,162,58,84,143,131,121,166,93,93,152,109,0,,
1,1789506129264,-947,-220,10265,305432,-171042,50090,0,0,0,374,331,299,428,280,435,453,207,321,369,245,410,0,,
2,1789506129264,832,6326,8667,-5798332,-293215,-609643,0,0,0,29,150,47,84,130,119,125,162,88,96,144,94,0,,
1,1789506129280,-938,-301,10294,394618,-167377,54977,0,0,0,391,344,249,439,323,448,435,194,314,359,215,434,0,,
2,1789506129280,1105,4977,8853,-5918062,-359188,-375071,0,0,0,23,165,61,83,143,137,117,159,92,96,154,116,0,,
1,1789506129296,-1014,-382,10366,470366,-128281,57421,0,0,0,411,341,240,434,314,478,445,156,318,325,165,457,0,,
2,1789506129296,1713,4580,9356,-5973040,-194255,-61086,0,0,0,33,173,62,94,146,140,124,168,100,95,152,107,0,,
1,1789506129312,-1100,-459,10701,538783,-75747,70860,0,0,0,424,327,232,477,352,498,420,141,274,333,180,456,0,,
2,1789506129312,2311,4541,10686,-6201503,200363,387288,0,0,0,23,169,69,94,149,161,120,173,101,49,123,88,0,,
1,1789506129328,-1143,-507,10868,636521,-73303,95294,0,0,0,427,376,173,448,372,445,442,198,318,338,192,458,0,,
2,1789506129328,2857,3943,12505,-6449515,599869,849102,0,0,0,42,176,55,97,143,145,136,176,94,84,136,96,0,,
1,1789506129344,-1081,-579,10753,728151,-69638,117286,0,0,0,432,329,199,460,369,456,427,178,310,331,182,459,0,,
2,1789506129344,3359,3058,14472,-6576575,949284,1188743,0,0,0,30,165,42,96,145,157,162,200,123,99,148,113,0,,
1,1789506129360,-1043,-689,10547,794124,-30543,130725,0,0,0,450,345,179,484,385,467,436,152,294,326,159,475,0,,
2,1789506129360,3709,1584,17085,-6524040,1329242,1391551,0,0,0,26,166,60,88,143,158,143,190,126,92,144,120,0,,
1,1789506129376,-1072,-832,10370,825889,-3665,144164,0,0,0,451,376,196,481,423,481,394,159,326,329,185,497,0,,
2,1789506129376,3728,-43,20186,-6335894,1634675,1532050,0,0,0,26,165,73,86,145,164,127,183,121,87,144,121,0,,
1,1789506129392,-1009,-971,10337,856433,-15882,160046,0,0,0,456,364,178,492,424,507,333,137,283,341,180,509,0,,
2,1789506129392,3493,-1698,23972,-6082996,1721418,1758070,0,0,0,29,165,76,87,142,164,133,180,122,92,145,124,0,,
1,1789506129408,-990,-1076,10533,902858,-48869,168598,0,0,0,475,385,183,488,424,524,313,123,266,339,184,513,0,,
2,1789506129408,2814,-4029,27374,-6122091,1682322,2240653,0,0,0,31,163,73,84,136,160,144,182,129,96,145,127,0,,
1,1789506129424,-1119,-1201,10763,1000597,-62308,188146,0,0,0,495,403,189,488,413,520,317,123,267,342,194,521,0,,
2,1789506129424,760,-7954,29959,-6392093,1576032,2841745,0,0,0,38,159,72,88,135,165,140,180,124,93,142,126,0,,
1,1789506129440,-1072,-1349,10801,1121548,-69638,219911,0,0,0,507,414,196,510,432,483,297,116,247,349,204,528,0,,
2,1789506129440,-1292,-13204,30543,-6473949,972497,3389080,0,0,0,53,117,73,97,109,163,147,174,120,89,131,122,0,,
1,1789506129456,-1000,-1502,10801,1243721,-69638,233350,0,0,0,522,436,200,507,459,469,280,108,214,345,201,550,0,,
2,1789506129456,2177,-18602,27470,-5963266,-120951,3571118,0,0,0,63,57,69,100,75,155,157,181,126,91,122,121,0,,
1,1789506129472,-1081,-1670,10926,1376890,-51312,248011,0,0,0,536,459,199,481,460,500,293,114,217,352,205,572,0,,
2,1789506129472,9734,-26432,21311,-5261993,-687834,2992017,0,0,0,67,60,74,104,86,168,144,192,120,99,133,127,0,,
1,1789506129488,-1134,-1856,11222,1555262,-4886,274889,0,0,0,534,463,210,491,466,515,302,125,245,390,238,566,0,,
2,1789506129488,11395,-36286,14778,-4205196,412944,940732,0,0,0,66,58,79,107,87,175,144,185,121,104,143,141,0,,
1,1789506129504,-775,-2000,11557,1759291,37873,279776,0,0,0,536,450,227,495,455,526,325,147,240,391,232,572,0,,
2,1789506129504,306,-42789,12218,-2741563,1844813,-1285260,0,0,0,79,67,69,119,91,175,142,184,116,108,140,134,0,,
1,1789506129520,-397,-2105,12208,2024407,70860,218689,0,0,0,546,432,252,500,442,520,343,163,272,382,246,587,0,,
2,1789506129520,-16712,-41918,13515,-985936,1490511,-2018298,0,0,0,80,70,65,120,72,189,173,176,135,116,133,116,0,,
1,1789506129536,-1019,-2254,13304,2411695,94073,162490,0,0,0,546,448,249,516,492,491,322,144,231,376,241,562,0,,
2,1789506129536,-12620,-34477,15290,735481,-1053131,-993266,0,0,0,83,36,58,150,69,176,210,187,123,161,169,96,0,,
1,1789506129552,-1813,-2416,14228,2889392,120951,215024,0,0,0,566,430,249,510,477,468,345,143,272,376,244,563,0,,
2,1789506129552,2708,-18899,16903,2814867,-2364048,-607200,0,0,0,105,43,66,161,95,193,236,295,146,176,305,132,0,,
1,1789506129568,-2153,-2522,15319,3539353,174707,378736,0,0,0,550,447,262,494,456,479,294,124,262,359,233,526,0,,
2,1789506129568,10212,2033,13663,4890587,-2235766,-1112996,0,0,0,113,55,72,160,89,190,272,364,162,222,411,136,0,,
1,1789506129584,-2742,-2613,16716,4335921,301767,583987,0,0,0,509,449,245,506,468,490,318,145,314,327,200,496,0,,
2,1789506129584,6819,3402,12883,5687155,-1715309,-565661,0,0,0,139,61,77,220,106,214,326,466,172,266,487,156,0,,
1,1789506129600,-3929,-2900,18291,5188689,464257,851546,0,0,0,472,404,231,477,447,481,306,134,292,297,171,469,0,,
2,1789506129600,1320,-1952,16740,5448917,-1095892,646295,0,0,0,159,61,72,228,95,224,372,534,175,320,485,142,0,,
1,1789506129616,-4503,-4316,21794,6212499,594982,1232726,0,0,0,437,359,202,429,424,426,318,144,265,283,158,437,0,,
2,1789506129616,-3397,-3570,21646,4784296,-1036027,978606,0,0,0,156,61,129,202,83,200,431,526,172,334,498,161,0,,
1,1789506129632,-4063,-6178,25666,6967528,686612,1452637,0,0,0,413,283,190,394,358,391,287,136,249,268,145,419,0,,
2,1789506129632,-2048,-1694,19521,3301115,-1158200,108734,0,0,0,154,59,144,185,80,194,507,524,184,367,524,142,0,,
1,1789506129648,-3383,-5790,27566,7369478,875980,1538158,0,0,0,349,234,179,355,267,345,248,131,207,236,146,338,0,,
2,1789506129648,804,-344,12758,1499063,-741590,-217468,0,0,0,178,70,138,206,75,208,555,511,183,379,534,131,0,,
1,1789506129664,-4005,-3709,27312,7622376,1262047,1633453,0,0,0,233,198,137,280,196,270,267,147,179,200,144,215,0,,
2,1789506129664,918,-287,9504,414166,-223576,40317,0,0,0,194,78,193,217,70,209,588,499,193,390,523,163,0,,
1,1789506129680,-7575,1182,24670,7533190,1562593,1819156,0,0,0,156,182,112,222,186,230,301,188,177,180,158,148,0,,
2,1789506129680,263,-373,9786,150272,-54977,130725,0,0,0,206,102,212,237,79,221,608,472,195,412,503,184,0,,
1,1789506129696,-10437,6896,19746,6762278,1291369,2111150,0,0,0,159,179,131,227,199,247,291,204,170,182,175,153,0,,
2,1789506129696,191,-134,10366,219911,-81855,34208,0,0,0,208,135,183,261,101,248,619,425,195,406,458,183,0,,
1,1789506129712,-9700,10476,13998,4973664,634078,2467895,0,0,0,166,136,127,236,159,258,287,152,164,191,137,162,0,,
2,1789506129712,392,19,10227,248011,-95294,-25656,0,0,0,197,144,199,264,123,265,638,367,216,387,390,208,0,,
1,1789506129728,-6412,11557,11251,1734857,133168,2211332,0,0,0,172,138,133,233,150,252,312,169,175,198,140,159,0,,
2,1789506129728,488,0,10016,237015,-73303,-28099,0,0,0,205,147,224,282,145,288,660,304,224,398,331,260,0,,
1,1789506129744,-4173,10150,9696,-1448972,-128281,1326799,0,0,0,160,141,128,233,160,227,316,170,174,199,147,166,0,,
2,1789506129744,435,-52,10117,268780,-51312,-25656,0,0,0,218,180,213,304,170,315,652,266,229,372,257,316,0,,
1,1789506129760,-3847,7159,7729,-2963918,-250454,211359,0,0,0,146,145,172,221,169,264,315,171,198,184,141,174,0,,
2,1789506129760,402,-105,10189,335975,-43982,-36651,0,0,0,208,211,217,294,223,328,615,210,245,339,200,374,0,,
1,1789506129776,-3551,6537,5881,-2955366,-432492,-488692,0,0,0,162,148,114,245,180,234,341,168,166,217,137,147,0,,
2,1789506129776,402,-148,10198,394618,-34208,-48869,0,0,0,231,207,220,331,240,302,603,211,261,295,195,370,0,,
1,1789506129792,-2756,7346,5441,-3373197,-563217,-967610,0,0,0,161,141,119,251,180,266,342,162,180,219,131,167,0,,
2,1789506129792,387,-224,10246,421497,14660,-48869,0,0,0,229,202,237,323,198,316,587,165,280,278,135,418,0,,
1,1789506129808,-2670,7111,6499,-4480085,-634078,-1207069,0,0,0,149,146,122,237,186,266,326,174,172,195,141,156,0,,
2,1789506129808,354,-287,10394,470366,92851,-40317,0,0,0,277,220,139,341,211,329,522,170,307,271,146,454,0,,
1,1789506129824,-2861,5742,7580,-5362175,-792903,-1204626,0,0,0,145,150,121,237,196,262,320,183,165,184,147,146,0,,
2,1789506129824,387,-344,10567,580321,244346,-31764,0,0,0,275,183,112,326,238,304,522,150,300,274,114,437,0,,
1,1789506129840,-2608,4216,8619,-5761680,-1025031,-888198,0,0,0,147,161,115,235,204,253,321,190,161,185,153,148,0,,
2,1789506129840,555,-449,10571,701273,394618,-36651,0,0,0,238,161,93,363,227,324,517,172,309,258,107,479,0,,
1,1789506129856,-2124,3570,9705,-5916840,-1197295,-536339,0,0,0,147,166,122,233,204,259,322,194,164,185,158,154,0,,
2,1789506129856,737,-569,10538,774577,419053,-54977,0,0,0,281,166,105,362,214,351,472,164,296,231,106,523,0,,
1,1789506129872,-1842,3378,11194,-6115982,-1365894,-244346,0,0,0,148,168,123,234,201,267,324,197,166,184,159,155,0,,
2,1789506129872,880,-703,10461,810007,333532,-87964,0,0,0,287,225,93,367,239,357,450,179,291,250,143,533,0,,
1,1789506129888,-1780,3082,12902,-6387206,-1609019,-59864,0,0,0,156,172,116,241,199,261,327,197,163,188,160,152,0,,
2,1789506129888,957,-827,10270,840550,257785,-128281,0,0,0,283,222,93,374,242,350,455,164,291,268,140,538,0,,
1,1789506129904,-1430,2421,14879,-6602231,-1924225,7330,0,0,0,158,171,126,248,199,263,332,194,167,193,160,149,0,,
2,1789506129904,909,-942,10150,844215,199142,-155159,0,0,0,306,196,90,398,230,381,443,156,300,293,130,555,0,,
1,1789506129920,-1469,1785,16836,-6718295,-2206445,2443,0,0,0,147,169,127,237,205,264,324,198,166,185,161,146,0,,
2,1789506129920,760,-1048,10112,833220,146607,-160046,0,0,0,324,207,91,402,244,399,435,178,306,298,137,590,0,,
1,1789506129936,-1402,1311,19526,-6753726,-2480112,-43982,0,0,0,145,165,127,238,201,269,324,197,170,186,157,147,0,,
2,1789506129936,693,-1186,10107,830776,116064,-139277,0,0,0,326,245,103,375,255,383,428,198,307,285,152,614,0,,
1,1789506129952,-1091,995,23196,-6814812,-2608394,-136833,0,0,0,147,166,133,230,200,275,335,197,178,175,153,152,0,,
2,1789506129952,813,-1320,10131,860098,122173,-120951,0,0,0,328,260,106,378,239,382,413,205,309,292,169,619,0,,
1,1789506129968,-904,-62,28121,-7046941,-2605951,-348193,0,0,0,135,172,134,226,212,277,330,225,175,166,190,144,0,,
2,1789506129968,871,-1440,10217,907745,129503,-117286,0,0,0,336,260,112,401,235,406,408,195,318,289,164,637,0,,
1,1789506129984,-746,-3369,32457,-7380473,-2753780,-647517,0,0,0,147,163,142,241,199,281,329,187,170,183,152,148,0,,
2,1789506129984,923,-1564,10447,982271,129503,-117286,0,0,0,367,287,124,388,253,432,386,171,347,270,150,663,0,,
1,1789506130000,430,-9763,35166,-7593054,-3095865,-884532,0,0,0,142,168,125,251,212,280,335,182,173,190,148,145,0,,
2,1789506130000,1091,-1713,10691,1093448,125838,-128281,0,0,0,403,274,122,387,290,429,371,168,376,281,164,696,0,,
1,1789506130016,1627,-18406,34113,-7178888,-2756223,-919963,0,0,0,163,167,155,257,201,269,354,177,181,200,138,150,0,,
2,1789506130016,1273,-1876,10892,1257160,113620,-169820,0,0,0,444,255,129,400,317,426,374,170,395,287,143,716,0,,
1,1789506130032,-1306,-27968,28662,-6125756,-2123367,-695164,0,0,0,160,176,148,261,204,271,352,176,191,198,142,164,0,,
2,1789506130032,1277,-2014,11227,1445307,85521,-221133,0,0,0,464,321,127,401,304,433,351,159,345,315,188,722,0,,
1,1789506130048,210,-39042,19612,-4340808,-2795319,226020,0,0,0,142,181,149,245,212,299,347,185,207,186,153,184,0,,
2,1789506130048,1215,-2139,11844,1705535,52534,-255341,0,0,0,438,308,143,411,326,459,311,158,327,297,173,715,0,,
1,1789506130064,13821,-46125,13921,-2564412,-3582113,747699,0,0,0,146,183,150,241,209,301,354,188,213,190,157,196,0,,
2,1789506130064,765,-2201,12404,2032959,57421,-260228,0,0,0,438,317,129,375,340,465,414,187,320,271,173,728,0,,
1,1789506130080,28193,-48446,12065,-665843,-2305405,-186924,0,0,0,160,190,139,253,206,272,327,196,185,208,193,179,0,,
2,1789506130080,411,-2316,12912,2439795,106290,-174707,0,0,0,474,332,136,412,345,426,364,150,344,295,131,744,0,,
1,1789506130096,17999,-41579,13701,1329242,707381,-1574810,0,0,0,155,178,115,250,206,244,310,255,161,246,284,150,0,,
2,1789506130096,1172,-2603,13428,2886949,144164,-113620,0,0,0,502,341,136,428,375,477,323,165,320,276,134,728,0,,
1,1789506130112,-823,-14845,18669,3334102,2447126,-1706757,0,0,0,144,148,93,236,200,241,348,340,172,290,379,136,0,,
2,1789506130112,2077,-2895,13965,3401297,130725,-213802,0,0,0,452,339,151,404,332,503,313,148,350,273,132,704,0,,
1,1789506130128,-8260,15821,15491,4789183,3088534,-1045801,0,0,0,158,156,105,249,198,262,382,378,178,309,418,131,0,,
2,1789506130128,2301,-3024,15281,3992615,63529,-366519,0,0,0,426,378,130,378,404,468,259,183,344,256,178,651,0,,
1,1789506130144,-4546,8432,11964,5750685,3099530,-1178969,0,0,0,170,169,119,261,205,276,443,453,191,351,434,134,0,,
2,1789506130144,3522,-3345,17027,4686558,-79412,-540004,0,0,0,361,383,112,386,394,431,259,127,329,284,158,598,0,,
1,1789506130160,2823,-8801,15730,5847202,1729970,-2081828,0,0,0,170,163,128,276,206,294,468,473,210,381,460,135,0,,
2,1789506130160,5360,-4804,19167,5585751,-123394,-919963,0,0,0,331,350,102,375,299,366,254,84,274,289,127,542,0,,
1,1789506130176,6527,-4517,20311,5467243,908967,-1473406,0,0,0,159,141,108,291,185,279,459,473,171,453,494,150,0,,
2,1789506130176,5336,-6786,22770,6368880,102625,-1258382,0,0,0,293,290,113,337,227,303,209,82,209,258,101,417,0,,
1,1789506130192,2933,229,21363,4772079,1053131,23212,0,0,0,226,131,172,314,163,287,445,445,157,491,490,224,0,,
2,1789506130192,4943,-7140,25915,6796486,560774,-1403768,0,0,0,240,196,100,267,171,227,161,87,147,196,87,270,0,,
1,1789506130208,-2177,-746,16668,2933374,1105666,503352,0,0,0,247,159,193,340,176,303,430,406,123,492,492,187,0,,
2,1789506130208,5829,-4891,27145,7062823,938289,-1649336,0,0,0,170,101,61,180,104,154,138,93,97,134,84,165,0,,
1,1789506130224,-1502,-1904,11002,685390,450818,-64751,0,0,0,279,161,313,387,189,365,439,378,182,490,490,241,0,,
2,1789506130224,7441,-1526,27260,7330382,1181413,-2103819,0,0,0,80,51,57,116,68,140,132,113,90,96,73,101,0,,
1,1789506130240,-239,-894,9428,-40317,17104,-222354,0,0,0,262,193,357,367,225,418,429,309,196,488,488,289,0,,
2,1789506130240,8777,5982,22924,6977302,1260825,-2794097,0,0,0,55,45,75,97,72,148,137,144,110,59,72,90,0,,
1,1789506130256,-483,-62,10160,239459,-10995,-29321,0,0,0,278,241,383,374,262,439,447,324,250,491,472,332,0,,
2,1789506130256,7738,11610,16635,5441587,952949,-3262020,0,0,0,79,61,56,106,72,107,142,161,97,79,92,67,0,,
1,1789506130272,-918,-134,10480,382401,13439,58643,0,0,0,308,271,376,407,307,451,443,282,246,492,427,341,0,,
2,1789506130272,4699,13333,12778,2229658,260228,-2908940,0,0,0,72,61,52,90,71,102,133,163,96,64,83,53,0,,
1,1789506130288,-952,-368,10318,304210,-35430,34208,0,0,0,312,297,392,423,343,475,448,250,262,470,342,351,0,,
2,1789506130288,2306,11165,12079,-1149648,-634078,-1676214,0,0,0,78,53,46,99,71,99,128,162,73,77,84,45,0,,
1,1789506130304,-780,-325,10203,254119,-131946,17104,0,0,0,326,289,390,437,323,496,441,199,272,432,265,388,0,,
2,1789506130304,2158,8332,10078,-2866179,-1445307,-739146,0,0,0,78,64,59,98,75,101,128,169,87,62,91,49,0,,
1,1789506130320,-784,-306,10279,312763,-175929,29321,0,0,0,360,280,350,444,304,499,464,161,292,393,218,432,0,,
2,1789506130320,3493,6867,6671,-3025004,-1660331,-382401,0,0,0,76,53,60,118,70,114,164,173,96,86,95,60,0,,
1,1789506130336,-875,-416,10346,425162,-195476,42760,0,0,0,376,308,317,433,340,498,522,192,342,360,186,463,0,,
2,1789506130336,4211,6829,4670,-3172834,-1339016,-248011,0,0,0,71,52,60,109,78,116,137,169,86,73,94,64,0,,
1,1789506130352,-890,-531,10399,522900,-208915,45204,0,0,0,384,317,259,452,357,499,489,174,307,339,174,465,0,,
2,1789506130352,4154,6982,4809,-3902207,-819781,-97738,0,0,0,66,66,49,107,86,114,140,169,77,77,88,52,0,,
1,1789506130368,-847,-588,10595,607200,-228463,40317,0,0,0,407,334,186,485,340,476,484,196,327,326,158,447,0,,
2,1789506130368,4053,6164,5867,-4840496,-433714,70860,0,0,0,65,62,49,94,77,106,138,168,79,69,92,58,0,,
1,1789506130384,-938,-622,10739,725707,-293215,45204,0,0,0,428,298,181,465,327,506,462,189,302,332,153,466,0,,
2,1789506130384,4082,5015,6834,-5510004,-91629,195476,0,0,0,63,79,60,94,87,116,139,180,94,76,100,68,0,,
1,1789506130400,-1081,-741,10643,842994,-342084,64751,0,0,0,423,307,160,446,353,512,476,212,319,308,159,471,0,,
2,1789506130400,4158,4216,7882,-5845980,224798,309097,0,0,0,61,68,59,96,87,119,136,174,94,76,96,60,0,,
1,1789506130416,-1105,-894,10351,886976,-316428,87964,0,0,0,406,320,192,458,329,503,472,187,334,308,150,484,0,,
2,1789506130416,4235,3857,9681,-6190508,516791,543670,0,0,0,60,54,55,95,80,115,128,165,83,66,89,47,0,,
1,1789506130432,-1086,-1019,10136,845437,-243124,96516,0,0,0,402,310,170,448,383,512,464,186,343,318,162,483,0,,
2,1789506130432,4560,3192,11787,-6607118,736703,872315,0,0,0,60,54,55,96,78,114,125,164,79,57,85,41,0,,
1,1789506130448,-1143,-1129,10054,797790,-191811,103847,0,0,0,411,321,211,348,366,496,463,173,368,317,183,496,0,,
2,1789506130448,5427,1684,13816,-6912551,992045,1193630,0,0,0,62,59,55,95,81,116,128,166,85,58,83,47,0,,
1,1789506130464,-1191,-1268,10002,758694,-158824,123394,0,0,0,427,311,184,414,366,516,456,157,370,319,181,497,0,,
2,1789506130464,6111,301,15563,-6984633,1395216,1408655,0,0,0,67,64,62,90,81,114,135,170,97,66,87,59,0,,
1,1789506130480,-1153,-1402,10031,733038,-141720,142942,0,0,0,446,298,163,476,386,534,457,165,368,328,173,496,0,,
2,1789506130480,6082,-411,17870,-6928433,1930334,1610240,0,0,0,65,58,64,92,74,112,147,172,108,63,86,53,0,,
1,1789506130496,-1119,-1497,10122,728151,-140499,151494,0,0,0,456,320,169,474,390,531,448,171,358,335,185,508,0,,
2,1789506130496,5508,-574,21727,-6982189,2184454,1999972,0,0,0,52,46,48,93,68,117,156,168,109,62,80,45,0,,
1,1789506130512,-1052,-1598,10251,747699,-136833,156381,0,0,0,465,349,187,475,378,520,427,158,342,339,191,519,0,,
2,1789506130512,5675,-1450,25747,-7165449,2183232,2504547,0,0,0,54,47,62,103,72,140,156,154,116,67,85,64,0,,
1,1789506130528,-1086,-1703,10313,791681,-125838,155159,0,0,0,484,342,200,493,378,529,397,140,316,339,184,524,0,,
2,1789506130528,6087,-4422,29121,-7312056,2262644,3021339,0,0,0,64,56,78,107,74,140,178,155,129,77,76,76,0,,
1,1789506130544,-1162,-1837,10308,868650,-122173,162490,0,0,0,503,327,196,509,390,553,356,128,281,347,186,526,0,,
2,1789506130544,5417,-8978,31658,-7192327,2483778,3308446,0,0,0,57,66,99,97,95,160,159,168,153,49,68,71,0,,
1,1789506130560,-1201,-1957,10265,949284,-134390,178372,0,0,0,504,381,201,526,400,539,314,120,274,380,200,525,0,,
2,1789506130560,3785,-14089,32644,-6790377,2288301,3204599,0,0,0,61,50,67,106,76,140,153,142,118,81,88,93,0,,
1,1789506130576,-1258,-2096,10413,1050688,-162490,205250,0,0,0,518,419,206,551,456,546,295,134,248,368,202,555,0,,
2,1789506130576,4436,-20425,29758,-6133086,1246165,2800206,0,0,0,33,24,47,108,63,138,169,115,122,126,85,105,0,,
1,1789506130592,-1354,-2225,10806,1182635,-178372,238237,0,0,0,523,438,196,505,431,552,369,135,282,380,216,557,0,,
2,1789506130592,7575,-28609,23163,-5222897,807563,2117258,0,0,0,77,75,65,120,91,158,169,148,138,113,99,130,0,,
1,1789506130608,-1316,-2340,11222,1361007,-162490,268780,0,0,0,538,380,187,489,473,554,445,156,330,388,214,593,0,,
2,1789506130608,6944,-39334,15879,-3991393,1771509,708603,0,0,0,95,60,72,134,74,166,170,123,141,106,75,119,0,,
1,1789506130624,-981,-2483,11696,1635897,-129503,266337,0,0,0,558,392,216,532,487,548,417,158,325,380,218,610,0,,
2,1789506130624,-8710,-46958,14008,-2211332,2778215,-841772,0,0,0,101,56,87,135,66,182,173,115,152,104,74,127,0,,
1,1789506130640,-904,-2622,12471,1944994,-130725,222354,0,0,0,549,383,209,532,488,543,396,159,344,389,213,604,0,,
2,1789506130640,-22402,-44790,15238,-98960,1235169,-879645,0,0,0,96,58,92,135,79,187,186,155,162,118,92,125,0,,
1,1789506130656,-1660,-2747,13452,2401922,-147829,222354,0,0,0,554,371,224,531,518,543,361,150,335,384,212,588,0,,
2,1789506130656,-11323,-32050,15271,1523497,-1552819,193033,0,0,0,93,51,70,158,90,171,238,246,162,153,188,107,0,,
1,1789506130672,-2191,-2866,13931,2928487,-172263,317649,0,0,0,554,382,240,530,526,556,388,166,357,369,209,576,0,,
2,1789506130672,3957,-12931,18205,2684141,-2438574,511905,0,0,0,95,48,59,173,100,176,263,312,171,187,289,122,0,,
1,1789506130688,-1890,-2948,14099,3551570,-239459,472809,0,0,0,548,398,235,560,555,563,377,150,334,345,196,550,0,,
2,1789506130688,11012,14405,16903,4059810,-2075720,153938,0,0,0,105,46,70,179,98,190,289,376,186,218,343,140,0,,
1,1789506130704,-1378,-2995,15596,4318817,-354301,541226,0,0,0,536,394,223,579,551,580,363,126,350,326,171,535,0,,
2,1789506130704,5460,8643,12045,5309640,-2235766,241902,0,0,0,130,48,73,212,89,188,345,485,193,257,398,134,0,,
1,1789506130720,-2569,-3460,18071,5232671,-443488,616973,0,0,0,517,365,218,551,489,555,368,114,376,337,156,533,0,,
2,1789506130720,33,-4192,14166,5678603,-1683544,944397,0,0,0,152,63,70,236,100,195,378,570,192,304,459,141,0,,
1,1789506130736,-3364,-4972,21253,6087882,-509461,750142,0,0,0,480,326,218,499,407,485,323,100,322,325,154,497,0,,
2,1789506130736,-3594,-4455,18635,5028642,-1015258,1038470,0,0,0,148,69,71,210,105,201,437,595,183,359,512,144,0,,
1,1789506130752,-4029,-6862,25163,6925990,-624304,807563,0,0,0,432,290,206,448,342,430,261,96,244,266,143,437,0,,
2,1789506130752,-2900,-402,20114,4056145,-1015258,217468,0,0,0,149,60,70,223,97,198,471,585,186,417,550,160,0,,
1,1789506130768,-4632,-6546,27025,7413460,-823446,845437,0,0,0,377,248,170,379,288,413,303,121,257,235,109,399,0,,
2,1789506130768,847,239,16932,2871066,-1186300,-323758,0,0,0,166,64,90,224,82,193,521,608,179,432,551,152,0,,
1,1789506130784,-4900,-4709,28389,7896044,-978606,1120326,0,0,0,249,176,159,289,205,354,303,126,227,206,104,291,0,,
2,1789506130784,1186,-655,11792,1403768,-747699,-13439,0,0,0,173,61,114,219,93,185,559,591,177,474,536,123,0,,
1,1789506130800,-7044,-1062,27829,8224689,-948062,1571145,0,0,0,160,137,139,222,162,221,308,154,185,199,123,159,0,,
2,1789506130800,358,-545,9920,553443,-337197,157603,0,0,0,173,58,115,214,78,191,593,568,181,479,545,178,0,,
1,1789506130816,-10002,6661,22502,7547850,-1094670,2274862,0,0,0,172,147,146,238,150,259,315,123,196,215,128,183,0,,
2,1789506130816,153,-110,10122,216246,-156381,106290,0,0,0,181,66,118,206,78,170,623,549,175,482,529,130,0,,
1,1789506130832,-9643,11887,16185,5831319,-1249830,3021339,0,0,0,181,134,180,226,149,272,201,76,129,199,126,180,0,,
2,1789506130832,382,43,10270,166155,-123394,18325,0,0,0,192,99,169,228,116,199,622,533,169,475,508,153,0,,
1,1789506130848,-5900,13898,11945,2503325,-1088561,3060434,0,0,0,191,162,138,245,189,245,267,141,151,209,148,181,0,,
2,1789506130848,512,52,10107,175929,-109955,-7330,0,0,0,196,90,181,226,91,203,632,489,205,464,494,164,0,,
1,1789506130864,-2924,12658,11016,-1594358,-488692,1849699,0,0,0,185,155,120,263,204,237,279,149,141,212,164,175,0,,
2,1789506130864,473,57,10021,195476,-94073,-1221,0,0,0,185,143,211,223,124,222,637,438,249,440,465,211,0,,
1,1789506130880,-2493,9308,10002,-4227187,238237,657290,0,0,0,176,145,115,270,193,239,287,147,148,207,156,169,0,,
2,1789506130880,445,62,10074,207694,-72082,-8552,0,0,0,183,168,246,235,161,244,608,353,247,415,389,200,0,,
1,1789506130896,-3369,7083,8001,-4764748,499687,234572,0,0,0,165,148,110,267,204,249,303,158,153,204,156,158,0,,
2,1789506130896,435,38,10112,224798,-50090,-24434,0,0,0,187,212,235,244,175,243,594,279,221,407,310,226,0,,
1,1789506130912,-3182,6676,6877,-5133711,383623,152716,0,0,0,156,155,111,247,214,251,282,156,146,217,178,158,0,,
2,1789506130912,445,0,10093,249233,-32986,-32986,0,0,0,192,223,207,263,171,227,568,237,211,387,258,251,0,,
1,1789506130928,-2091,6556,7666,-5990144,213802,133168,0,0,0,151,155,124,232,201,259,265,150,158,229,186,172,0,,
2,1789506130928,507,-43,10093,278554,-24434,-42760,0,0,0,206,199,236,265,157,259,546,217,235,327,203,292,0,,
1,1789506130944,-1344,5498,9045,-6823364,228463,97738,0,0,0,152,143,129,241,185,271,290,151,177,230,173,177,0,,
2,1789506130944,540,-95,10083,290771,-17104,-54977,0,0,0,221,188,250,270,160,302,551,204,255,288,160,319,0,,
1,1789506130960,-1411,3972,10002,-7155675,302989,87964,0,0,0,157,129,114,254,175,263,304,143,170,235,161,166,0,,
2,1789506130960,497,-148,10093,291993,-3665,-61086,0,0,0,222,188,230,301,169,328,542,192,266,272,150,343,0,,
1,1789506130976,-2201,3206,10495,-6994406,46425,84299,0,0,0,156,146,112,256,201,270,292,146,177,239,156,165,0,,
2,1789506130976,464,-196,10117,306654,3665,-56199,0,0,0,217,199,231,319,175,358,531,181,280,247,143,399,0,,
1,1789506130992,-2852,2656,11471,-6805038,-491135,81855,0,0,0,155,145,126,243,186,272,279,153,195,238,154,176,0,,
2,1789506130992,531,-244,10155,339641,6108,-52534,0,0,0,223,224,208,315,208,338,540,174,273,252,142,396,0,,
1,1789506131008,-2766,2163,13050,-6680422,-1104444,84299,0,0,0,142,132,171,230,177,305,309,133,219,225,137,211,0,,
2,1789506131008,593,-287,10203,388510,24434,-62308,0,0,0,231,264,201,289,218,300,497,176,273,240,144,426,0,,
1,1789506131024,-2057,1574,15113,-6626666,-1539380,79412,0,0,0,147,127,152,238,157,290,312,126,196,231,137,188,0,,
2,1789506131024,564,-354,10232,444709,83077,-79412,0,0,0,251,281,162,304,262,316,510,168,276,238,139,449,0,,
1,1789506131040,-1526,1062,17439,-6588792,-1764178,69638,0,0,0,149,139,150,240,183,283,313,138,195,211,135,179,0,,
2,1789506131040,593,-430,10246,499687,146607,-91629,0,0,0,259,305,187,324,256,345,511,177,310,243,142,446,0,,
1,1789506131056,-1483,780,20382,-6563136,-1883908,73303,0,0,0,149,156,146,240,202,283,302,143,189,200,139,173,0,,
2,1789506131056,689,-507,10279,561996,182037,-108734,0,0,0,286,278,136,353,256,333,518,189,317,268,142,487,0,,
1,1789506131072,-1268,272,25077,-6585127,-2047620,61086,0,0,0,167,159,155,258,203,282,309,151,191,201,142,178,0,,
2,1789506131072,741,-593,10385,630412,173485,-130725,0,0,0,312,299,120,353,253,348,474,205,320,257,137,521,0,,
1,1789506131088,-464,-1383,29873,-6715852,-2191784,-61086,0,0,0,166,161,154,257,204,280,302,148,185,204,144,179,0,,
2,1789506131088,737,-670,10662,752585,164933,-151494,0,0,0,341,304,111,415,276,392,461,193,288,284,155,530,0,,
1,1789506131104,1143,-6360,33567,-6976081,-2552194,-334754,0,0,0,167,154,153,257,189,284,301,127,178,212,134,181,0,,
2,1789506131104,813,-770,10978,926071,175929,-172263,0,0,0,369,303,126,438,295,392,517,188,319,315,165,562,0,,
1,1789506131120,4398,-13251,35443,-7152010,-2943148,-640186,0,0,0,177,141,157,266,170,288,325,107,180,231,120,189,0,,
2,1789506131120,799,-894,11127,1121548,185703,-201585,0,0,0,370,320,128,425,310,393,520,190,327,299,171,605,0,,
1,1789506131136,4929,-22053,32557,-6772052,-2337170,-1062905,0,0,0,173,140,153,261,168,281,329,108,184,237,121,199,0,,
2,1789506131136,823,-1048,11361,1321912,196698,-213802,0,0,0,379,337,114,450,360,412,474,210,336,297,208,651,0,,
1,1789506131152,-344,-33773,24862,-5672494,-1639562,-1095892,0,0,0,162,146,159,253,176,281,312,114,190,227,127,212,0,,
2,1789506131152,1076,-1206,12088,1622458,201585,-235793,0,0,0,415,380,120,473,375,445,421,212,341,306,192,705,0,,
1,1789506131168,-564,-45484,15415,-3803246,-2310292,-113620,0,0,0,167,154,183,264,185,301,333,110,195,232,124,222,0,,
2,1789506131168,990,-1306,12691,1971872,185703,-265115,0,0,0,458,333,143,460,328,450,411,199,344,310,151,740,0,,
1,1789506131184,17650,-49289,11481,-1707979,-2579073,526565,0,0,0,178,167,147,273,192,276,330,128,163,243,154,201,0,,
2,1789506131184,464,-1387,13084,2368935,199142,-246789,0,0,0,496,266,142,431,305,445,399,195,358,306,153,746,0,,
1,1789506131200,26934,-46408,11686,445931,-289550,-455705,0,0,0,149,145,154,243,187,296,311,215,181,257,286,190,0,,
2,1789506131200,660,-1550,13783,2790432,279776,-174707,0,0,0,499,296,134,407,328,444,363,204,346,294,174,739,0,,
1,1789506131216,8126,-25929,17678,3037221,2279749,-1335351,0,0,0,143,166,115,237,246,269,260,299,144,249,351,138,0,,
2,1789506131216,1335,-1727,14658,3268129,318871,-173485,0,0,0,473,326,143,381,347,420,368,215,305,285,179,715,0,,
1,1789506131232,-4938,1392,18468,5474574,3532022,-851546,0,0,0,189,189,140,289,235,279,325,389,165,311,396,141,0,,
2,1789506131232,2000,-1861,15687,3881437,256563,-270002,0,0,0,468,350,130,358,353,420,353,204,312,276,169,666,0,,
1,1789506131248,-5226,7370,16099,6395759,2935818,-438601,0,0,0,165,205,111,251,241,286,324,429,196,331,441,149,0,,
2,1789506131248,2957,-1976,16664,4604702,101403,-452040,0,0,0,422,397,124,382,324,431,280,172,308,274,153,625,0,,
1,1789506131264,784,-3062,17267,5527108,348193,-1530828,0,0,0,162,207,110,245,245,287,365,449,232,385,451,166,0,,
2,1789506131264,4058,-2258,17865,5428148,-45204,-731816,0,0,0,370,391,105,366,363,427,212,190,299,245,161,583,0,,
1,1789506131280,5092,-4522,19908,4725653,-522900,-1602910,0,0,0,193,192,116,269,227,281,400,443,175,437,453,170,0,,
2,1789506131280,4938,-3742,21167,6416528,-24434,-1089783,0,0,0,299,346,120,265,262,348,152,94,210,181,122,489,0,,
1,1789506131296,2569,-1780,19133,3690847,224798,-215024,0,0,0,227,149,195,301,166,310,448,457,190,465,464,184,0,,
2,1789506131296,5053,-5848,25800,7172779,218689,-1312138,0,0,0,264,214,147,243,187,304,159,129,215,172,109,356,0,,
1,1789506131312,-1804,-693,14242,1969429,620639,480140,0,0,0,231,158,237,306,171,347,473,473,214,481,481,206,0,,
2,1789506131312,4771,-5881,29341,7553959,681725,-1440420,0,0,0,190,149,98,169,124,194,122,83,124,206,79,279,0,,
1,1789506131328,-1981,-933,10217,502131,331088,58643,0,0,0,250,195,279,320,205,347,466,452,210,486,486,227,0,,
2,1789506131328,5470,-1694,29466,7732332,673173,-1739744,0,0,0,138,55,55,191,88,166,122,93,112,119,77,126,0,,
1,1789506131344,-449,-564,9796,46425,90408,-160046,0,0,0,284,209,304,359,224,342,439,377,209,485,485,238,0,,
2,1789506131344,8202,4603,26585,7882605,232128,-2221106,0,0,0,57,100,59,102,97,138,130,116,116,84,70,88,0,,
1,1789506131360,-282,-134,10289,142942,69638,-53756,0,0,0,290,206,323,376,233,361,424,330,215,486,486,262,0,,
2,1789506131360,11098,11519,19942,7451334,86742,-2780658,0,0,0,46,128,62,86,114,136,133,120,121,84,88,93,0,,
1,1789506131376,-717,-4,10409,266337,80634,46425,0,0,0,278,222,387,364,253,394,426,326,206,481,476,301,0,,
2,1789506131376,9394,15252,13840,4926017,542448,-2873510,0,0,0,44,132,81,89,119,154,143,115,117,80,80,98,0,,
1,1789506131392,-789,-81,10227,241902,13439,21991,0,0,0,306,257,424,390,282,431,422,255,211,474,438,313,0,,
2,1789506131392,4379,16142,11921,339641,707381,-1964542,0,0,0,49,113,69,88,97,129,130,106,93,78,84,89,0,,
1,1789506131408,-689,-114,10198,228463,-59864,2443,0,0,0,311,293,430,390,252,462,466,280,295,485,371,355,0,,
2,1789506131408,2115,11701,11485,-2961474,-350636,-714712,0,0,0,49,108,58,89,93,112,120,109,87,70,87,72,0,,
1,1789506131424,-650,-143,10256,249233,-120951,20769,0,0,0,327,308,426,414,291,465,440,227,306,462,288,420,0,,
2,1789506131424,3268,7365,8437,-3826459,-1191187,-166155,0,0,0,44,91,57,91,87,113,128,114,98,71,79,68,0,,
1,1789506131440,-665,-162,10318,273667,-171042,36651,0,0,0,375,347,373,442,316,469,400,123,222,451,239,442,0,,
2,1789506131440,4838,6077,4881,-3409849,-982271,-202807,0,0,0,50,63,56,91,63,106,130,108,96,79,70,65,0,,
1,1789506131456,-741,-210,10366,331088,-204028,40317,0,0,0,384,380,352,431,395,475,419,155,251,413,242,460,0,,
2,1789506131456,3512,7427,5226,-3860668,-85521,-139277,0,0,0,60,61,64,89,55,108,125,99,87,81,69,60,0,,
1,1789506131472,-827,-301,10428,441044,-211359,54977,0,0,0,392,359,290,465,381,473,422,159,264,371,199,461,0,,
2,1789506131472,1761,7705,7150,-4888143,384845,178372,0,0,0,59,60,63,90,55,114,130,94,89,83,81,71,0,,
1,1789506131488,-813,-402,10509,566882,-183259,76969,0,0,0,425,357,205,470,377,460,453,177,267,378,189,487,0,,
2,1789506131488,1588,6183,8312,-5659055,256563,526565,0,0,0,63,61,60,90,60,116,136,101,103,87,68,73,0,,
1,1789506131504,-818,-492,10916,698829,-124616,90408,0,0,0,429,342,183,469,377,467,426,168,252,370,199,479,0,,
2,1789506131504,2364,4632,8724,-5988922,178372,723264,0,0,0,57,58,56,98,70,125,132,98,95,85,69,73,0,,
1,1789506131520,-938,-559,11275,825889,-83077,108734,0,0,0,436,341,174,461,416,495,414,164,277,363,212,474,0,,
2,1789506131520,3034,4053,9365,-6081774,465479,791681,0,0,0,53,76,68,96,78,138,142,108,116,83,73,83,0,,
1,1789506131536,-885,-641,11050,939510,-69638,130725,0,0,0,450,379,174,443,412,491,422,181,303,343,221,480,0,,
2,1789506131536,2723,4154,11404,-6315124,1023810,937067,0,0,0,52,90,69,96,87,136,128,94,110,91,76,79,0,,
1,1789506131552,-693,-813,10509,983493,-59864,120951,0,0,0,461,371,196,440,402,496,391,160,282,336,206,486,0,,
2,1789506131552,2167,3981,13921,-6592457,1361007,1187522,0,0,0,77,110,83,100,104,152,134,104,115,91,81,93,0,,
1,1789506131568,-746,-985,10380,978606,-57421,100181,0,0,0,469,358,206,447,386,491,379,143,274,376,197,477,0,,
2,1789506131568,2301,3120,16271,-6773273,1431868,1461189,0,0,0,65,88,75,95,77,140,145,109,128,102,83,104,0,,
1,1789506131584,-952,-1110,10533,990823,-62308,116064,0,0,0,471,369,190,457,374,464,379,142,290,396,196,484,0,,
2,1789506131584,2780,2010,18664,-6868568,1558928,1681101,0,0,0,87,80,83,116,81,149,150,105,125,107,83,103,0,,
1,1789506131600,-1048,-1258,10638,1044579,-65973,160046,0,0,0,469,370,169,469,396,460,339,121,277,355,186,523,0,,
2,1789506131600,3096,1024,21550,-6901555,1772730,1815491,0,0,0,65,89,101,108,89,170,148,113,148,95,83,119,0,,
1,1789506131616,-957,-1392,10686,1130100,-64751,202807,0,0,0,478,384,170,470,394,476,337,116,252,369,198,526,0,,
2,1789506131616,3067,-110,25551,-6952868,1868025,1912008,0,0,0,95,91,106,135,92,169,194,117,148,126,81,121,0,,
1,1789506131632,-851,-1555,10777,1257160,-48869,224798,0,0,0,511,362,183,467,406,483,338,112,236,353,186,537,0,,
2,1789506131632,2775,-2340,29035,-7039611,1814269,2013411,0,0,0,88,91,107,117,78,170,166,104,142,112,82,122,0,,
1,1789506131648,-981,-1722,10892,1386664,-37873,245567,0,0,0,500,369,201,487,433,516,271,96,212,361,193,521,0,,
2,1789506131648,1852,-6810,31725,-7138571,1639562,2145358,0,0,0,79,85,109,111,73,169,167,114,147,116,91,130,0,,
1,1789506131664,-1072,-1899,10878,1535715,-34208,293215,0,0,0,505,378,209,486,434,474,301,120,255,385,208,543,0,,
2,1789506131664,2081,-13366,31887,-7020063,971275,2243097,0,0,0,51,69,99,108,81,163,176,148,147,127,126,128,0,,
1,1789506131680,-928,-2105,10763,1685988,-35430,342084,0,0,0,520,416,215,482,452,506,306,145,289,361,217,546,0,,
2,1789506131680,5350,-19952,29092,-6513045,202807,2141693,0,0,0,38,85,101,98,99,165,166,177,153,110,163,123,0,,
1,1789506131696,-713,-2301,10753,1830152,-43982,364075,0,0,0,530,421,218,468,472,501,338,156,292,364,229,554,0,,
2,1789506131696,10299,-29097,22684,-5406157,28099,1507615,0,0,0,79,125,118,119,114,175,195,182,165,107,172,127,0,,
1,1789506131712,-464,-2474,11174,2012190,-35430,344527,0,0,0,546,409,238,475,493,498,334,132,255,370,209,554,0,,
2,1789506131712,5283,-40138,16654,-3798360,1407433,54977,0,0,0,98,132,122,146,112,179,229,180,165,123,165,124,0,,
1,1789506131728,-201,-2656,11801,2265088,12217,285884,0,0,0,552,431,244,491,521,496,325,125,235,374,214,549,0,,
2,1789506131728,-10256,-48528,14797,-2083050,2167349,-860098,0,0,0,84,122,103,137,111,168,227,201,160,127,160,119,0,,
1,1789506131744,-425,-2847,12720,2608394,65973,210137,0,0,0,547,458,250,508,521,520,282,132,239,365,222,535,0,,
2,1789506131744,-17061,-47393,14970,-128281,422718,-246789,0,0,0,62,94,53,119,98,136,218,254,135,149,194,111,0,,
1,1789506131760,-1387,-3058,13921,3084869,108734,213802,0,0,0,546,470,260,515,533,543,250,137,250,352,215,529,0,,
2,1789506131760,-6992,-35099,17946,2212553,-1540602,377514,0,0,0,98,51,60,148,79,163,277,335,155,197,288,128,0,,
1,1789506131776,-2105,-3187,15127,3710395,177150,371406,0,0,0,553,474,248,510,555,537,293,147,278,340,206,535,0,,
2,1789506131776,5733,-7997,17037,5011538,-2371378,26878,0,0,0,131,52,78,180,98,194,306,441,156,285,399,166,0,,
1,1789506131792,-2732,-3326,16984,4598593,306654,610865,0,0,0,547,462,227,519,540,513,331,153,314,322,194,535,0,,
2,1789506131792,6523,3665,15491,6492275,-2695137,-222354,0,0,0,157,61,76,242,100,224,382,506,172,329,515,146,0,,
1,1789506131808,-4010,-4029,19564,5552765,443488,897971,0,0,0,509,422,230,537,518,465,282,132,294,312,177,512,0,,
2,1789506131808,1186,-1091,18224,6298020,-2051285,566882,0,0,0,165,53,66,291,100,212,412,582,182,379,550,136,0,,
1,1789506131824,-4379,-6322,23981,6582683,574213,1220508,0,0,0,455,372,222,466,487,431,282,116,237,320,184,462,0,,
2,1789506131824,-3062,-3656,21861,5336518,-1368338,895528,0,0,0,160,52,72,262,81,222,498,606,173,428,580,146,0,,
1,1789506131840,-4264,-7700,27475,7324274,635299,1387885,0,0,0,415,301,190,360,372,378,251,123,256,263,162,420,0,,
2,1789506131840,-2785,-2421,21292,4043927,-1111774,414166,0,0,0,173,94,90,230,87,231,526,605,190,473,584,156,0,,
1,1789506131856,-3551,-5675,29059,7834957,761138,1541823,0,0,0,346,243,149,346,296,366,281,130,238,229,130,355,0,,
2,1789506131856,459,-277,14864,2302961,-934623,-84299,0,0,0,202,97,142,251,91,228,594,614,199,524,585,135,0,,
1,1789506131872,-4967,-3340,29504,8295549,1043357,1710422,0,0,0,238,195,127,279,224,277,295,132,177,200,130,169,0,,
2,1789506131872,976,-119,10236,933402,-540004,40317,0,0,0,210,76,144,236,83,247,618,622,205,550,588,180,0,,
1,1789506131888,-9294,1564,25211,8225911,984714,1957212,0,0,0,206,184,150,236,183,270,314,153,195,187,136,158,0,,
2,1789506131888,373,-421,9719,318871,-251676,125838,0,0,0,211,69,154,242,82,233,635,606,198,547,551,168,0,,
1,1789506131904,-9083,6896,17994,6795264,178372,2205223,0,0,0,163,164,146,218,174,266,320,167,206,226,140,169,0,,
2,1789506131904,57,-320,10323,139277,-114842,73303,0,0,0,232,98,219,241,82,219,643,572,182,538,505,156,0,,
1,1789506131920,-4910,9002,13491,4482529,14660,1866804,0,0,0,141,157,157,199,172,271,323,166,218,199,137,189,0,,
2,1789506131920,330,52,10270,173485,-106290,-3665,0,0,0,244,153,234,278,140,241,633,503,168,535,462,165,0,,
1,1789506131936,-2502,9667,11127,731816,542448,521678,0,0,0,141,174,157,209,196,277,327,169,217,181,142,192,0,,
2,1789506131936,464,138,10064,201585,-97738,-9773,0,0,0,235,178,254,286,175,253,621,444,187,517,440,192,0,,
1,1789506131952,-3665,7934,9667,-2673146,796568,-948062,0,0,0,145,182,147,211,198,283,325,174,206,179,141,183,0,,
2,1789506131952,435,100,10059,212581,-63529,-2443,0,0,0,232,189,289,266,166,248,624,386,221,488,392,221,0,,
1,1789506131968,-5010,6001,7815,-3612657,262672,-1435533,0,0,0,149,179,152,206,193,293,314,172,201,176,138,181,0,,
2,1789506131968,411,76,10117,234572,-40317,-15882,0,0,0,234,207,242,276,175,257,623,316,233,451,317,263,0,,
1,1789506131984,-4197,5809,6087,-3880215,-230907,-1357342,0,0,0,156,183,163,212,200,298,306,166,200,181,141,187,0,,
2,1789506131984,425,33,10102,250454,-34208,-31764,0,0,0,220,199,196,269,163,255,599,280,251,389,282,319,0,,
1,1789506132000,-2282,6618,5613,-4527733,-301767,-971275,0,0,0,159,182,161,222,202,288,306,164,191,188,143,185,0,,
2,1789506132000,459,-23,10083,248011,-25656,-43982,0,0,0,230,203,235,297,158,254,573,225,265,339,221,286,0,,
1,1789506132016,-2072,6274,6724,-5579643,-97738,-615752,0,0,0,161,173,145,241,203,271,316,164,178,198,146,169,0,,
2,1789506132016,502,-90,10098,255341,-21991,-51312,0,0,0,259,176,220,290,170,263,532,226,281,291,182,309,0,,
1,1789506132032,-2187,5192,7906,-6462954,-96516,-210137,0,0,0,176,170,135,249,190,262,338,160,177,211,145,165,0,,
2,1789506132032,521,-138,10150,291993,-32986,-65973,0,0,0,308,190,235,299,184,289,540,218,273,275,194,372,0,,
1,1789506132048,-1536,4106,8734,-6715852,-332310,92851,0,0,0,173,172,144,257,191,274,345,160,186,212,140,178,0,,
2,1789506132048,483,-172,10198,345749,-51312,-81855,0,0,0,277,186,226,305,178,305,507,155,270,275,126,437,0,,
1,1789506132064,-904,3522,9566,-6718295,-511905,215024,0,0,0,171,146,193,259,168,306,350,144,213,210,125,196,0,,
2,1789506132064,440,-210,10279,399505,-35430,-83077,0,0,0,317,260,213,277,288,287,456,196,267,248,161,430,0,,
1,1789506132080,-899,3287,10801,-6654765,-668286,150272,0,0,0,167,163,168,256,186,298,355,158,204,206,133,188,0,,
2,1789506132080,502,-268,10404,467922,15882,-87964,0,0,0,343,270,176,304,248,297,438,160,303,241,126,435,0,,
1,1789506132096,-1349,2948,12672,-6709743,-995710,-32986,0,0,0,168,157,169,258,187,297,358,158,202,207,133,182,0,,
2,1789506132096,626,-354,10471,558330,59864,-112399,0,0,0,345,272,204,306,249,332,432,187,282,263,153,441,0,,
1,1789506132112,-1689,2378,14764,-6797708,-1415985,-212581,0,0,0,173,156,166,262,191,300,353,151,199,208,131,185,0,,
2,1789506132112,674,-478,10433,614530,23212,-147829,0,0,0,356,317,179,322,325,347,437,181,287,268,163,492,0,,
1,1789506132128,-1813,1742,17214,-6855129,-1772730,-348193,0,0,0,172,181,157,263,214,291,354,160,187,208,139,177,0,,
2,1789506132128,612,-559,10586,704938,-2443,-180816,0,0,0,400,319,158,358,356,348,433,171,292,280,168,527,0,,
1,1789506132144,-1761,1229,20598,-6979746,-1943773,-426383,0,0,0,168,189,157,259,227,289,340,163,179,206,149,175,0,,
2,1789506132144,411,-603,10729,821002,-6108,-184481,0,0,0,435,341,141,398,353,353,411,162,276,288,168,536,0,,
1,1789506132160,-1622,277,24857,-7286400,-2100154,-487470,0,0,0,159,185,178,252,229,297,320,156,183,207,150,177,0,,
2,1789506132160,358,-727,10696,922406,3665,-151494,0,0,0,468,350,134,395,333,369,369,164,274,283,159,562,0,,
1,1789506132176,-1378,-2708,29590,-7755545,-2455678,-488692,0,0,0,155,193,209,242,235,309,313,157,195,193,144,176,0,,
2,1789506132176,516,-885,10748,1012814,39095,-133168,0,0,0,474,356,134,378,337,373,347,163,271,269,152,583,0,,
1,1789506132192,-143,-7839,33558,-8080525,-2935818,-371406,0,0,0,156,197,219,240,242,314,326,159,202,180,137,177,0,,
2,1789506132192,703,-1057,10825,1138652,78190,-155159,0,0,0,463,364,122,390,358,370,342,162,257,264,156,584,0,,
1,1789506132208,2574,-15156,35175,-7997447,-3081204,-263893,0,0,0,170,191,196,254,227,301,344,149,196,192,129,177,0,,
2,1789506132208,689,-1201,10815,1274264,108734,-184481,0,0,0,499,332,112,411,341,374,351,167,267,282,152,601,0,,
1,1789506132224,2967,-24771,32074,-6973637,-2128254,-559552,0,0,0,194,190,176,267,201,289,352,140,190,209,128,175,0,,
2,1789506132224,579,-1320,10997,1415985,135612,-200363,0,0,0,552,311,134,408,323,380,402,158,285,299,130,635,0,,
1,1789506132240,-1938,-33610,24551,-5099503,-1271821,-940732,0,0,0,185,203,206,251,205,319,355,148,217,203,138,194,0,,
2,1789506132240,679,-1454,11543,1599245,125838,-202807,0,0,0,574,340,160,403,364,407,406,163,273,295,147,672,0,,
1,1789506132256,-679,-39377,17544,-3181386,-2476447,-549778,0,0,0,181,216,208,241,224,338,362,142,250,212,144,205,0,,
2,1789506132256,684,-1608,11988,1838704,79412,-210137,0,0,0,585,346,147,407,350,423,315,162,266,276,159,661,0,,
1,1789506132272,10964,-43067,14122,-1668883,-3348763,-254119,0,0,0,183,224,201,245,238,348,356,162,240,218,173,213,0,,
2,1789506132272,454,-1775,12261,2138028,36651,-194255,0,0,0,569,350,135,356,374,399,299,167,297,262,180,672,0,,
1,1789506132288,20521,-43809,12754,-122173,-1908343,-860098,0,0,0,164,193,158,264,234,316,362,186,206,234,206,173,0,,
2,1789506132288,516,-1952,12691,2499660,54977,-155159,0,0,0,538,384,153,366,402,403,282,170,281,276,170,652,0,,
1,1789506132304,9313,-32490,15893,1836260,585208,-1514945,0,0,0,155,189,121,263,226,271,313,291,176,240,321,153,0,,
2,1789506132304,995,-2187,13223,2932153,92851,-161268,0,0,0,508,418,171,378,432,409,266,174,266,292,160,632,0,,
1,1789506132320,-4383,-2239,17410,4106236,1971872,-1098335,0,0,0,173,219,113,308,247,258,330,333,166,288,394,140,0,,
2,1789506132320,1229,-2368,14027,3430619,98960,-239459,0,0,0,518,433,122,385,450,408,314,159,275,295,168,617,0,,
1,1789506132336,-5762,9705,13443,5524665,2576629,-349414,0,0,0,171,206,124,266,227,272,351,413,186,326,442,142,0,,
2,1789506132336,1966,-2651,15266,4017049,41538,-343306,0,0,0,474,420,114,434,457,373,319,150,280,329,168,559,0,,
1,1789506132352,-2474,76,13601,5869193,2059837,-643851,0,0,0,201,221,133,259,223,266,370,425,180,389,456,140,0,,
2,1789506132352,3589,-3077,16558,4754975,-42760,-576656,0,0,0,426,440,97,404,456,361,257,139,268,301,166,544,0,,
1,1789506132368,2268,-4737,17161,5271767,799011,-1240056,0,0,0,186,199,152,275,212,322,412,436,194,423,455,189,0,,
2,1789506132368,3862,-3862,18578,5601634,-50090,-921184,0,0,0,345,365,106,350,401,356,214,127,252,263,151,501,0,,
1,1789506132384,3919,-1746,19186,4768414,510683,-675616,0,0,0,165,168,176,281,195,354,402,414,179,447,458,221,0,,
2,1789506132384,3393,-5628,21832,6355441,124616,-1115439,0,0,0,285,282,109,308,358,294,173,119,198,219,163,399,0,,
1,1789506132400,550,-23,18923,4105014,851546,354301,0,0,0,191,156,172,305,190,303,426,431,176,474,474,190,0,,
2,1789506132400,2727,-5943,25202,6748839,570548,-1127657,0,0,0,230,227,108,256,248,236,159,104,173,180,123,324,0,,
1,1789506132416,-2005,-1330,14783,2366491,750142,298102,0,0,0,223,154,225,317,183,304,477,465,220,489,489,193,0,,
2,1789506132416,2096,-4020,27441,7071376,715934,-1209513,0,0,0,171,145,102,185,138,206,145,96,159,133,79,238,0,,
1,1789506132432,-1354,-1574,10868,658512,353080,-118507,0,0,0,253,180,326,322,186,360,471,429,239,494,495,238,0,,
2,1789506132432,3426,-727,27279,7558846,431270,-1411098,0,0,0,98,98,94,117,105,174,125,106,127,84,70,129,0,,
1,1789506132448,-220,-559,9657,-7330,87964,-182037,0,0,0,281,212,343,359,220,368,462,402,233,493,493,251,0,,
2,1789506132448,7250,4546,22230,7830070,399505,-1821600,0,0,0,48,133,75,90,124,135,129,139,112,68,86,68,0,,
1,1789506132464,-583,-148,10150,189368,90408,-4886,0,0,0,263,226,360,355,248,417,454,385,254,484,483,297,0,,
2,1789506132464,9590,10093,15104,6991963,983493,-2361605,0,0,0,58,115,56,107,117,121,145,157,116,87,110,73,0,,
1,1789506132480,-933,-234,10375,311541,79412,48869,0,0,0,297,266,358,388,238,440,428,267,213,483,470,340,0,,
2,1789506132480,7652,13907,10825,4035375,1766622,-2604729,0,0,0,75,54,60,122,84,121,146,138,107,90,99,76,0,,
1,1789506132496,-880,-301,10270,262672,1221,9773,0,0,0,344,274,382,373,241,440,488,267,281,476,415,391,0,,
2,1789506132496,2641,13979,11462,-477696,1379333,-1821600,0,0,0,73,41,66,102,71,124,120,117,99,59,61,49,0,,
1,1789506132512,-784,-263,10212,230907,-75747,0,0,0,0,361,302,429,403,257,467,468,275,314,432,341,442,0,,
2,1789506132512,531,10117,11452,-3576005,78190,-777020,0,0,0,65,41,76,100,61,134,137,113,120,59,47,66,0,,
1,1789506132528,-751,-258,10270,256563,-130725,17104,0,0,0,374,301,437,423,311,476,442,218,272,411,282,468,0,,
2,1789506132528,2536,6456,8164,-3925420,-806342,-189368,0,0,0,60,41,73,91,58,135,138,107,122,75,54,66,0,,
1,1789506132544,-827,-335,10308,315206,-177150,21991,0,0,0,392,297,380,428,304,462,456,191,290,397,225,449,0,,
2,1789506132544,3689,5934,5963,-3870442,-674395,13439,0,0,0,73,55,96,97,53,146,131,106,130,72,57,77,0,,
1,1789506132560,-914,-435,10289,378736,-201585,28099,0,0,0,426,297,345,451,294,484,454,175,313,375,182,448,0,,
2,1789506132560,2900,6570,6465,-4417777,-166155,157603,0,0,0,63,47,88,102,62,150,126,95,110,62,50,79,0,,
1,1789506132576,-894,-507,10308,442266,-194255,35430,0,0,0,424,299,312,455,289,491,455,179,324,347,164,453,0,,
2,1789506132576,1751,5900,8212,-5379279,-52534,368962,0,0,0,69,43,83,101,61,142,127,107,117,55,51,62,0,,
1,1789506132592,-842,-583,10485,533896,-175929,35430,0,0,0,416,302,240,472,330,471,448,178,315,340,162,461,0,,
2,1789506132592,1804,4666,9021,-5946162,-149051,481361,0,0,0,73,47,78,98,65,136,131,104,105,69,60,67,0,,
1,1789506132608,-894,-641,10787,636521,-195476,36651,0,0,0,418,321,192,466,372,479,442,189,306,344,178,466,0,,
2,1789506132608,2675,3857,9227,-6159965,-30543,463035,0,0,0,58,68,74,96,99,133,129,106,102,74,63,69,0,,
1,1789506132624,-1038,-717,10753,733038,-252898,50090,0,0,0,426,334,183,449,382,503,428,190,284,340,202,464,0,,
2,1789506132624,3144,3469,9997,-6329785,364075,433714,0,0,0,56,89,75,96,110,138,140,115,114,76,70,82,0,,
1,1789506132640,-1139,-837,10490,785572,-243124,74525,0,0,0,432,330,190,444,386,504,411,168,264,328,210,465,0,,
2,1789506132640,2785,3268,11600,-6488610,761138,498466,0,0,0,55,77,66,99,88,131,138,120,111,78,69,80,0,,
1,1789506132656,-1091,-957,10275,785572,-166155,95294,0,0,0,437,336,212,433,398,499,407,159,275,322,202,470,0,,
2,1789506132656,2828,2852,13606,-6640105,1005484,702495,0,0,0,53,57,56,99,69,125,141,119,112,76,60,67,0,,
1,1789506132672,-985,-1076,10203,778242,-134390,106290,0,0,0,456,354,219,452,410,491,387,158,269,332,209,481,0,,
2,1789506132672,3268,2144,15544,-6750060,1321912,921184,0,0,0,63,54,57,113,68,134,154,110,110,87,65,76,0,,
1,1789506132688,-952,-1201,10256,784350,-168598,106290,0,0,0,473,359,175,501,434,481,362,151,244,356,216,521,0,,
2,1789506132688,3206,1234,18257,-6775717,1742187,1161865,0,0,0,71,65,73,116,75,150,160,114,120,92,85,89,0,,
1,1789506132704,-1014,-1306,10308,806342,-202807,107512,0,0,0,437,356,154,507,408,502,386,172,253,346,212,530,0,,
2,1789506132704,2948,775,21928,-6798930,1868025,1435533,0,0,0,70,66,79,110,77,159,153,117,130,83,84,87,0,,
1,1789506132720,-1072,-1426,10236,840550,-216246,117286,0,0,0,459,357,210,478,385,521,343,156,252,341,224,513,0,,
2,1789506132720,3072,-114,25776,-7000515,1838704,1751961,0,0,0,65,80,70,109,81,153,147,113,124,89,77,89,0,,
1,1789506132736,-1072,-1541,10193,878424,-217468,127059,0,0,0,476,360,186,511,409,539,282,124,206,326,208,511,0,,
2,1789506132736,3010,-3670,28901,-7217983,1826487,2061059,0,0,0,55,131,67,100,107,144,151,133,127,102,105,97,0,,
1,1789506132752,-1143,-1675,10284,940732,-215024,135612,0,0,0,472,396,178,488,448,528,347,158,243,350,234,515,0,,
2,1789506132752,2751,-8303,30753,-7147123,1677435,2164906,0,0,0,63,163,72,108,136,155,157,170,128,100,150,96,0,,
1,1789506132768,-1229,-1823,10428,1031140,-228463,158824,0,0,0,488,374,189,487,436,543,366,166,290,356,234,537,0,,
2,1789506132768,3785,-13146,30835,-6781825,1102000,2014633,0,0,0,100,172,66,131,140,136,178,186,118,118,174,95,0,,
1,1789506132784,-1316,-1962,10686,1145983,-246789,190589,0,0,0,511,352,205,515,432,533,372,157,343,375,211,562,0,,
2,1789506132784,7307,-19435,27078,-6014579,571769,1668883,0,0,0,68,122,74,120,120,159,167,176,127,108,156,93,0,,
1,1789506132800,-1349,-2100,10945,1293812,-246789,226020,0,0,0,528,354,196,527,451,536,378,159,339,376,208,577,0,,
2,1789506132800,9863,-27623,20583,-4800179,1050688,1100779,0,0,0,72,166,83,118,153,173,169,208,141,88,212,109,0,,
1,1789506132816,-1215,-2230,11069,1462411,-219911,246789,0,0,0,539,374,198,516,462,538,376,164,324,372,213,590,0,,
2,1789506132816,3584,-36573,15994,-3276681,2668259,201585,0,0,0,57,159,88,111,154,192,165,192,157,105,246,136,0,,
1,1789506132832,-823,-2388,11261,1671327,-185703,218689,0,0,0,549,391,217,516,456,545,358,155,308,371,215,600,0,,
2,1789506132832,-10672,-43852,14898,-1634675,3368310,-346971,0,0,0,66,115,94,114,121,193,159,190,148,92,239,132,0,,
1,1789506132848,-952,-2565,12088,1958433,-194255,155159,0,0,0,553,396,235,526,466,552,325,136,285,377,234,602,0,,
2,1789506132848,-18755,-43316,15123,0,1481959,107512,0,0,0,70,141,88,114,117,190,188,179,148,94,129,97,0,,
1,1789506132864,-1608,-2713,13079,2327396,-234572,149051,0,0,0,548,406,251,528,497,550,293,126,295,384,248,600,0,,
2,1789506132864,-8557,-30787,16721,1811826,-1238834,803898,0,0,0,81,67,53,147,98,159,253,261,132,150,209,76,0,,
1,1789506132880,-2230,-2833,14079,2900388,-316428,257785,0,0,0,550,418,259,545,513,570,300,127,303,372,228,592,0,,
2,1789506132880,3259,-7518,17932,3841120,-2471560,1039692,0,0,0,100,52,54,153,97,181,291,353,176,222,298,115,0,,
1,1789506132896,-1990,-2895,15094,3538131,-368962,398284,0,0,0,550,409,258,536,522,562,332,119,306,369,216,575,0,,
2,1789506132896,7073,8825,13673,5599190,-2713463,1137431,0,0,0,132,62,61,204,97,198,371,440,189,270,416,131,0,,
1,1789506132912,-2531,-2952,16597,4356690,-282219,514348,0,0,0,538,380,231,529,517,578,289,117,315,340,186,539,0,,
2,1789506132912,2689,1215,14103,5971818,-1946216,1827708,0,0,0,159,59,68,256,92,203,415,507,185,310,469,136,0,,
1,1789506132928,-3747,-3306,18391,5270545,-155159,726929,0,0,0,507,371,216,485,467,563,354,123,383,291,155,516,0,,
2,1789506132928,-4460,-4446,18377,5415931,-960280,2206445,0,0,0,169,67,82,221,93,206,391,559,191,340,518,156,0,,
1,1789506132944,-4249,-5010,21622,6162408,-91629,961501,0,0,0,439,322,232,484,411,457,283,104,287,287,136,449,0,,
2,1789506132944,-6647,-2254,20052,4458094,-938289,967610,0,0,0,169,82,91,196,106,208,420,585,192,375,562,168,0,,
1,1789506132960,-4809,-7087,25235,6899112,-172263,1071457,0,0,0,409,257,168,439,301,442,204,62,182,258,116,423,0,,
2,1789506132960,-1780,-344,18114,3343876,-1178969,-334754,0,0,0,179,81,97,220,95,195,515,577,185,448,574,165,0,,
1,1789506132976,-5317,-6815,26963,7337713,-464257,1143539,0,0,0,337,218,160,332,278,373,259,130,223,228,132,386,0,,
2,1789506132976,2282,-478,13764,2001194,-1042136,-383623,0,0,0,188,73,118,217,78,187,570,583,191,501,586,168,0,,
1,1789506132992,-5494,-4412,27403,7692015,-613308,1433089,0,0,0,260,160,136,268,233,310,304,131,217,212,127,254,0,,
2,1789506132992,952,-579,10667,810007,-518013,61086,0,0,0,182,79,146,218,98,203,587,617,200,503,587,172,0,,
1,1789506133008,-8446,301,25896,7875274,-730594,1920560,0,0,0,195,155,124,248,195,244,283,123,159,212,135,167,0,,
2,1789506133008,-124,-287,9983,266337,-201585,140499,0,0,0,193,80,170,228,93,216,593,606,190,548,589,176,0,,
1,1789506133024,-10270,7427,20440,7070154,-970053,2637716,0,0,0,161,152,140,248,186,240,286,128,159,214,140,150,0,,
2,1789506133024,62,19,10212,174707,-125838,31764,0,0,0,196,84,234,225,88,240,594,562,204,539,576,184,0,,
1,1789506133040,-8825,10600,14912,5594303,-824668,3221703,0,0,0,156,153,147,255,190,256,298,142,170,211,141,156,0,,
2,1789506133040,406,143,10189,195476,-112399,-9773,0,0,0,190,159,205,225,130,234,627,508,219,523,490,189,0,,
1,1789506133056,-5407,11653,11136,2370157,-459370,2728124,0,0,0,164,164,128,259,187,247,281,142,149,210,145,150,0,,
2,1789506133056,411,110,10040,235793,-105068,0,0,0,0,203,169,196,265,139,230,614,424,228,491,478,178,0,,
1,1789506133072,-2785,11624,9600,-1208291,-255341,1395216,0,0,0,167,165,116,259,185,253,283,135,146,213,141,143,0,,
2,1789506133072,291,95,10059,274889,-92851,-3665,0,0,0,202,143,249,243,145,229,601,365,213,407,406,202,0,,
1,1789506133088,-1517,9160,8729,-3932750,139277,-74525,0,0,0,164,156,120,264,183,273,284,124,149,213,128,146,0,,
2,1789506133088,268,62,10141,310319,-69638,-24434,0,0,0,212,186,252,268,165,245,596,336,246,381,315,252,0,,
1,1789506133104,-2096,6819,7150,-4351803,529009,-456927,0,0,0,166,146,118,276,172,263,219,88,108,214,131,144,0,,
2,1789506133104,296,0,10165,326202,-37873,-34208,0,0,0,228,201,284,256,166,275,566,287,280,345,256,304,0,,
1,1789506133120,-2187,6159,6211,-4554611,470366,-359188,0,0,0,174,137,149,282,168,279,205,81,111,218,130,157,0,,
2,1789506133120,335,-81,10145,326202,-4886,-34208,0,0,0,301,234,263,329,217,289,583,198,248,336,193,318,0,,
1,1789506133136,-1000,6345,6834,-5172806,160046,-79412,0,0,0,171,140,128,291,182,271,306,135,152,219,131,146,0,,
2,1789506133136,339,-157,10184,344527,19547,-39095,0,0,0,325,226,223,318,231,301,578,196,247,308,169,390,0,,
1,1789506133152,62,5809,8140,-5977927,72082,221133,0,0,0,162,154,130,259,193,269,294,155,161,208,147,148,0,,
2,1789506133152,325,-229,10303,423940,61086,-40317,0,0,0,308,222,228,319,251,303,553,189,244,285,148,418,0,,
1,1789506133168,124,4982,9107,-6487388,6108,532674,0,0,0,157,155,131,251,182,268,306,146,168,200,138,148,0,,
2,1789506133168,349,-287,10366,515570,108734,-36651,0,0,0,316,229,211,317,269,307,497,183,262,263,147,426,0,,
1,1789506133184,-196,4388,9758,-6549697,-309097,684169,0,0,0,159,155,151,254,170,278,319,142,179,201,129,155,0,,
2,1789506133184,449,-363,10442,597426,157603,-36651,0,0,0,343,262,170,354,304,323,450,234,319,268,161,463,0,,
1,1789506133200,-330,3857,10811,-6536258,-718377,697608,0,0,0,164,154,157,254,174,276,319,146,180,198,132,155,0,,
2,1789506133200,636,-459,10653,731816,227241,-67195,0,0,0,343,269,151,384,308,347,452,233,329,338,169,479,0,,
1,1789506133216,-521,3393,12443,-6519153,-1116661,555887,0,0,0,161,173,151,250,198,281,317,151,200,194,137,173,0,,
2,1789506133216,717,-574,10725,874759,263893,-113620,0,0,0,331,253,151,365,294,362,457,193,299,357,176,503,0,,
1,1789506133232,-804,2790,14462,-6541144,-1506393,373849,0,0,0,154,193,155,249,218,281,320,160,199,194,144,175,0,,
2,1789506133232,722,-670,10595,899193,189368,-149051,0,0,0,335,263,139,353,305,361,444,199,295,301,177,567,0,,
1,1789506133248,-890,2057,16826,-6558249,-1909564,217468,0,0,0,152,179,169,246,199,289,318,156,200,196,140,174,0,,
2,1789506133248,698,-770,10495,883311,73303,-172263,0,0,0,358,281,119,379,309,359,433,198,294,298,155,600,0,,
1,1789506133264,-894,1564,19569,-6596122,-2133141,158824,0,0,0,161,159,172,250,175,306,303,138,205,202,134,188,0,,
2,1789506133264,631,-880,10423,911410,6108,-182037,0,0,0,393,278,126,422,311,377,400,202,289,312,172,610,0,,
1,1789506133280,-1033,1024,23273,-6721961,-2272418,160046,0,0,0,172,161,164,264,185,304,296,135,190,208,136,187,0,,
2,1789506133280,593,-1052,10399,979827,13439,-188146,0,0,0,393,273,110,419,311,388,398,189,282,301,165,618,0,,
1,1789506133296,-760,-751,27700,-6910107,-2456899,85521,0,0,0,170,159,163,266,191,290,318,149,197,204,135,181,0,,
2,1789506133296,603,-1177,10528,1043357,35430,-189368,0,0,0,398,298,121,416,393,380,384,208,292,302,193,631,0,,
1,1789506133312,378,-4809,31691,-7061602,-2797762,-113620,0,0,0,179,169,169,263,182,290,320,148,212,207,134,192,0,,
2,1789506133312,655,-1316,10748,1133765,42760,-194255,0,0,0,463,287,145,448,333,398,377,197,308,323,166,660,0,,
1,1789506133328,3345,-10868,34103,-7115358,-3123964,-315206,0,0,0,171,170,180,261,178,293,331,147,220,207,133,185,0,,
2,1789506133328,703,-1497,10820,1276708,54977,-206472,0,0,0,503,276,129,434,296,397,391,199,317,317,165,680,0,,
1,1789506133344,5939,-18650,32969,-6798930,-2620611,-599869,0,0,0,172,180,176,259,197,291,339,160,197,203,142,190,0,,
2,1789506133344,713,-1694,10863,1447750,83077,-224798,0,0,0,536,275,147,456,340,390,392,190,298,320,156,692,0,,
1,1789506133360,3129,-27446,27676,-5907066,-1879021,-873537,0,0,0,175,245,161,250,229,274,328,197,193,194,191,172,0,,
2,1789506133360,847,-1871,11217,1624901,101403,-244346,0,0,0,547,322,149,402,363,398,394,198,328,306,181,703,0,,
1,1789506133376,-746,-38367,18937,-4362799,-2046398,-575435,0,0,0,187,184,166,271,193,286,332,149,214,217,140,204,0,,
2,1789506133376,770,-1966,11849,1857030,80634,-266337,0,0,0,546,319,143,389,401,391,397,205,331,310,190,702,0,,
1,1789506133392,10485,-46063,12782,-2421469,-2943148,265115,0,0,0,172,176,153,272,200,300,337,149,221,214,141,201,0,,
2,1789506133392,201,-2024,12361,2150245,25656,-246789,0,0,0,542,327,143,390,418,380,388,210,311,300,196,700,0,,
1,1789506133408,23752,-47288,11232,-599869,-1999972,12217,0,0,0,158,171,141,265,221,261,342,220,179,267,286,148,0,,
2,1789506133408,47,-2201,12778,2482556,-6108,-144164,0,0,0,576,366,158,379,396,376,383,236,301,299,227,700,0,,
1,1789506133424,14352,-34864,15558,1858252,709825,-1076344,0,0,0,170,165,101,282,234,237,321,364,160,279,390,122,0,,
2,1789506133424,827,-2536,13294,2871066,-1221,-90408,0,0,0,556,407,156,368,425,373,353,240,294,296,235,677,0,,
1,1789506133440,-2608,-6116,16721,5005429,2163684,-879645,0,0,0,166,176,122,266,231,263,268,404,155,329,434,152,0,,
2,1789506133440,1727,-2833,14094,3386636,30543,-166155,0,0,0,505,420,138,402,450,384,301,191,269,288,206,634,0,,
1,1789506133456,-7288,7355,15381,7040832,2076941,0,0,0,0,166,184,133,261,225,286,327,435,195,398,462,169,0,,
2,1789506133456,2565,-3000,15472,4070805,40317,-355523,0,0,0,474,409,119,434,418,393,258,138,243,286,173,603,0,,
1,1789506133472,-2703,-469,18822,6655987,850324,-333532,0,0,0,177,171,117,279,218,312,422,460,221,450,475,185,0,,
2,1789506133472,3680,-3359,17018,4830722,35430,-629191,0,0,0,404,390,95,394,398,376,232,123,239,267,151,574,0,,
1,1789506133488,813,-4886,23785,5334075,731816,-690277,0,0,0,194,170,124,286,217,327,438,446,193,482,482,209,0,,
2,1789506133488,4575,-4623,20325,5809328,174707,-993266,0,0,0,320,334,90,346,360,355,213,110,231,223,136,498,0,,
1,1789506133504,-67,-2790,20033,3264463,1709200,-290771,0,0,0,214,191,153,282,214,305,440,455,180,506,506,205,0,,
2,1789506133504,4245,-6795,26001,6797708,541226,-1264491,0,0,0,291,268,93,279,274,274,160,102,182,191,107,385,0,,
1,1789506133520,-1253,-315,12242,1612684,1439198,-2443,0,0,0,215,156,195,312,171,336,489,488,223,527,527,203,0,,
2,1789506133520,3579,-7269,30021,7305948,988379,-1326799,0,0,0,234,169,99,236,196,231,140,96,164,137,86,287,0,,
1,1789506133536,-990,-382,9810,780685,552222,-32986,0,0,0,227,185,282,324,241,361,471,467,234,519,519,256,0,,
2,1789506133536,4637,-3881,29920,7496538,1007927,-1552819,0,0,0,122,156,96,140,208,182,135,129,122,106,120,148,0,,
1,1789506133552,-732,-660,10222,370184,114842,-53756,0,0,0,240,221,249,365,258,373,454,404,192,526,526,292,0,,
2,1789506133552,6518,2172,26925,7624819,300545,-2062281,0,0,0,61,146,60,122,137,125,125,118,119,56,78,86,0,,
1,1789506133568,-942,-325,10677,316428,139277,-1221,0,0,0,282,241,277,363,239,388,499,399,217,530,530,233,0,,
2,1789506133568,9700,9844,19746,7101919,-376292,-2615724,0,0,0,50,90,72,89,112,139,120,112,117,64,72,87,0,,
1,1789506133584,-1048,-105,10284,359188,168598,41538,0,0,0,283,288,322,387,278,424,475,355,243,520,521,305,0,,
2,1789506133584,10844,14946,12122,5121494,-86742,-2872288,0,0,0,63,80,73,97,83,138,121,104,107,68,69,86,0,,
1,1789506133600,-976,-134,10098,355523,102625,54977,0,0,0,272,318,374,346,322,440,463,328,280,500,471,355,0,,
2,1789506133600,7331,16209,9672,1268156,718377,-2408030,0,0,0,63,70,69,96,82,129,123,110,100,71,71,81,0,,
1,1789506133616,-875,-277,10222,309097,-23212,43982,0,0,0,298,295,370,401,285,464,425,247,244,480,389,418,0,,
2,1789506133616,2177,12414,10748,-2819753,193033,-1318247,0,0,0,59,67,71,99,86,132,129,110,103,83,82,89,0,,
1,1789506133632,-914,-291,10284,295658,-107512,34208,0,0,0,317,295,336,416,293,467,445,248,269,442,320,390,0,,
2,1789506133632,1794,7944,9045,-4103792,-995710,-729373,0,0,0,63,67,80,93,78,131,128,110,105,68,66,81,0,,
1,1789506133648,-981,-282,10256,317649,-144164,31764,0,0,0,351,299,334,421,291,463,448,209,270,413,258,399,0,,
2,1789506133648,3876,6207,5824,-3843564,-1347568,-679282,0,0,0,66,75,83,96,78,140,125,103,109,65,66,83,0,,
1,1789506133664,-1057,-311,10251,366519,-153938,48869,0,0,0,371,314,332,439,301,473,442,168,262,403,222,445,0,,
2,1789506133664,4398,6417,4848,-3952298,-834441,-636521,0,0,0,61,87,82,95,90,144,126,103,112,69,66,86,0,,
1,1789506133680,-1028,-382,10284,419053,-163711,67195,0,0,0,364,337,279,450,335,485,459,188,293,400,213,475,0,,
2,1789506133680,3115,6858,6408,-4724431,-117286,-388510,0,0,0,63,85,81,94,91,142,120,100,108,72,69,84,0,,
1,1789506133696,-985,-483,10399,487470,-188146,70860,0,0,0,357,337,210,452,350,489,466,212,324,381,205,484,0,,
2,1789506133696,2187,6049,8140,-5533217,168598,-21991,0,0,0,68,78,87,93,83,144,122,103,109,65,63,77,0,,
1,1789506133712,-1033,-559,10576,553443,-223576,65973,0,0,0,356,334,180,459,367,497,449,210,309,344,208,476,0,,
2,1789506133712,2699,4498,8892,-5847202,259006,290771,0,0,0,66,83,87,89,94,146,129,113,116,55,57,75,0,,
1,1789506133728,-1072,-622,10691,635299,-278554,69638,0,0,0,376,350,153,477,378,497,442,210,264,338,229,486,0,,
2,1789506133728,3278,3680,9600,-5881410,551000,502131,0,0,0,62,92,84,91,108,147,128,117,119,59,70,77,0,,
1,1789506133744,-1239,-717,10571,726929,-299323,90408,0,0,0,412,344,167,492,403,497,420,208,274,327,240,472,0,,
2,1789506133744,3283,3536,11074,-5971818,1010371,676838,0,0,0,69,95,93,97,93,148,132,124,123,63,74,71,0,,
1,1789506133760,-1387,-851,10394,792903,-248011,130725,0,0,0,419,303,177,493,394,502,420,189,273,346,208,480,0,,
2,1789506133760,3206,3326,12983,-6151412,1442863,850324,0,0,0,75,89,92,94,87,141,131,127,124,64,77,73,0,,
1,1789506133776,-1330,-947,10313,799011,-169820,160046,0,0,0,457,345,200,480,384,507,420,183,293,353,220,486,0,,
2,1789506133776,3168,2885,15056,-6332229,1789835,976162,0,0,0,80,81,97,95,76,141,131,111,115,52,64,77,0,,
1,1789506133792,-1182,-1057,10323,807563,-136833,175929,0,0,0,464,355,188,511,370,508,396,152,260,357,211,497,0,,
2,1789506133792,2837,2167,17793,-6499606,2100154,1055575,0,0,0,64,98,104,104,89,170,144,123,138,64,66,86,0,,
1,1789506133808,-1091,-1177,10409,835663,-155159,172263,0,0,0,454,339,171,502,402,513,416,173,284,350,220,528,0,,
2,1789506133808,2349,1521,21057,-6664539,2284635,1148426,0,0,0,81,75,100,104,86,161,133,112,125,68,65,91,0,,
1,1789506133824,-1206,-1306,10418,886976,-172263,169820,0,0,0,460,352,177,495,401,503,347,143,242,352,215,505,0,,
2,1789506133824,1938,574,24934,-6829473,2313957,1324355,0,0,0,92,76,105,105,127,157,145,126,131,76,77,94,0,,
1,1789506133840,-1277,-1430,10428,950506,-168598,180816,0,0,0,478,352,184,508,406,508,347,142,255,365,206,516,0,,
2,1789506133840,1464,-1440,28418,-6945537,2322509,1572367,0,0,0,87,106,99,111,103,149,145,118,122,71,61,81,0,,
1,1789506133856,-1244,-1555,10509,1036027,-156381,194255,0,0,0,492,356,212,519,394,523,367,140,271,377,203,523,0,,
2,1789506133856,813,-5551,31519,-6966307,2399478,1786169,0,0,0,79,100,99,110,100,163,146,121,133,62,47,82,0,,
1,1789506133872,-1201,-1718,10433,1141096,-175929,204028,0,0,0,501,379,217,523,408,537,360,141,291,369,204,528,0,,
2,1789506133872,-507,-10926,33711,-6869790,2222327,1712866,0,0,0,90,116,85,125,129,154,181,130,138,82,64,92,0,,
1,1789506133888,-1110,-1928,10303,1251052,-228463,206472,0,0,0,510,391,203,529,429,542,343,144,283,369,219,555,0,,
2,1789506133888,-339,-16558,33203,-6615670,1496619,1554041,0,0,0,96,90,87,122,90,146,169,121,141,79,56,94,0,,
1,1789506133904,-1148,-2062,10543,1339016,-238237,194255,0,0,0,526,401,210,536,451,538,310,132,245,392,236,582,0,,
2,1789506133904,5068,-28466,25867,-5830097,878424,939510,0,0,0,100,93,99,124,89,160,170,144,148,87,93,112,0,,
1,1789506133920,-1215,-2215,11093,1495398,-199142,178372,0,0,0,550,424,229,535,479,548,274,116,243,402,238,592,0,,
2,1789506133920,5982,-43881,16223,-4533841,1822821,-563217,0,0,0,106,98,106,129,93,175,172,143,150,89,97,119,0,,
1,1789506133936,-1043,-2349,11691,1711644,-133168,155159,0,0,0,564,413,229,532,459,588,297,134,282,385,245,617,0,,
2,1789506133936,-9389,-54012,12246,-2678033,3409849,-1888795,0,0,0,101,86,105,127,83,179,185,140,161,94,81,118,0,,
1,1789506133952,-928,-2479,12596,2030516,-80634,89186,0,0,0,566,433,241,538,481,605,284,147,288,375,260,624,0,,
2,1789506133952,-25819,-50576,15094,-131946,1759291,-912632,0,0,0,92,76,81,125,95,168,214,221,159,133,196,111,0,,
1,1789506133968,-1698,-2613,13716,2463008,-51312,58643,0,0,0,586,428,254,538,494,604,309,164,311,382,252,631,0,,
2,1789506133968,-16678,-34065,19952,2160019,-1612684,763581,0,0,0,98,69,58,151,111,166,258,329,148,194,343,117,0,,
1,1789506133984,-2670,-2727,14692,3055547,-45204,199142,0,0,0,569,444,244,559,536,564,293,155,295,381,243,591,0,,
2,1789506133984,2780,-2900,18281,4384790,-3703065,1175304,0,0,0,116,56,72,194,102,193,324,387,166,248,376,139,0,,
1,1789506134000,-3048,-2780,15931,3771481,-25656,414166,0,0,0,579,445,275,548,525,562,266,125,288,390,249,591,0,,
2,1789506134000,8217,8370,13007,5723807,-4208861,1037249,0,0,0,138,64,85,201,107,207,365,463,180,275,454,129,0,,
1,1789506134016,-4245,-2809,17511,4721988,39095,723264,0,0,0,550,448,248,549,515,572,259,102,325,341,200,552,0,,
2,1789506134016,1139,-1191,13093,5848423,-2857627,1558928,0,0,0,151,94,79,222,124,202,394,538,188,274,498,128,0,,
1,1789506134032,-5125,-3335,19995,5805663,111177,1141096,0,0,0,511,383,222,514,474,545,282,110,344,310,182,536,0,,
2,1789506134032,-7035,-4278,19755,5373170,-1314581,1901012,0,0,0,152,101,71,232,98,187,418,594,184,302,564,144,0,,
1,1789506134048,-4560,-5206,23823,6796486,285884,1444085,0,0,0,446,321,208,448,390,489,261,135,264,291,146,475,0,,
2,1789506134048,-6551,-1780,22756,4624249,-1284038,831998,0,0,0,173,88,91,219,107,188,506,601,170,394,540,136,0,,
1,1789506134064,-3986,-7662,26958,7379252,419053,1452637,0,0,0,374,284,179,371,330,429,256,126,247,251,129,421,0,,
2,1789506134064,-516,-521,18123,3122743,-1434311,-141720,0,0,0,176,99,113,217,101,202,539,602,175,371,549,132,0,,
1,1789506134080,-4039,-6834,27848,7604050,499687,1486845,0,0,0,271,226,157,306,281,362,269,128,233,218,131,339,0,,
2,1789506134080,1143,-832,11270,1128878,-739146,51312,0,0,0,230,77,195,228,71,181,609,580,173,426,513,162,0,,
1,1789506134096,-7485,-2641,26690,7582059,904080,1743409,0,0,0,186,189,141,271,248,301,301,153,201,215,155,232,0,,
2,1789506134096,62,-741,9236,153938,-152716,232128,0,0,0,196,89,178,233,104,223,643,563,208,461,484,182,0,,
1,1789506134112,-11926,4058,23426,7227757,834441,2140471,0,0,0,158,184,138,259,232,275,312,155,186,215,174,168,0,,
2,1789506134112,-521,-301,9987,92851,-8552,130725,0,0,0,188,112,252,224,117,256,642,526,222,442,462,220,0,,
1,1789506134128,-11883,11227,17027,6045122,134390,2691472,0,0,0,159,165,161,250,204,281,270,130,178,196,148,171,0,,
2,1789506134128,33,-28,10385,251676,-103847,-15882,0,0,0,204,135,284,261,141,265,666,494,226,414,422,237,0,,
1,1789506134144,-7288,13754,12581,3128851,-75747,2790432,0,0,0,171,157,157,249,166,264,288,134,192,184,123,188,0,,
2,1789506134144,320,-23,10165,257785,-119729,-36651,0,0,0,232,140,281,285,140,268,662,407,229,419,377,266,0,,
1,1789506134160,-4005,12648,10926,-789237,105068,2117258,0,0,0,169,157,142,224,177,246,287,143,180,184,132,179,0,,
2,1789506134160,201,-86,10059,218689,-67195,-17104,0,0,0,234,201,275,281,178,279,660,325,256,397,322,316,0,,
1,1789506134176,-3622,9006,9863,-3103195,279776,1136209,0,0,0,147,171,124,225,200,241,249,171,182,188,150,174,0,,
2,1789506134176,114,-105,10107,233350,-37873,-21991,0,0,0,231,248,245,268,222,277,636,269,242,354,262,330,0,,
1,1789506134192,-3474,6910,7111,-3292563,193033,486248,0,0,0,176,153,132,265,168,275,309,143,186,196,127,201,0,,
2,1789506134192,153,-124,10155,293215,-36651,-35430,0,0,0,244,236,259,274,220,281,609,217,226,310,205,333,0,,
1,1789506134208,-2507,6853,5211,-3316998,51312,28099,0,0,0,189,149,152,270,172,293,300,127,190,217,131,212,0,,
2,1789506134208,210,-191,10155,338419,-24434,-43982,0,0,0,260,217,275,322,206,296,588,199,248,284,163,356,0,,
1,1789506134224,-1737,7197,5709,-4170987,-18325,-432492,0,0,0,181,147,136,280,180,297,292,122,175,229,136,187,0,,
2,1789506134224,191,-258,10155,350636,4886,-45204,0,0,0,270,222,229,350,206,296,566,214,260,305,153,383,0,,
1,1789506134240,-1904,6398,6882,-5134933,-84299,-783129,0,0,0,174,139,136,254,171,314,296,134,191,216,144,198,0,,
2,1789506134240,167,-306,10198,366519,51312,-40317,0,0,0,265,233,201,290,206,295,568,210,264,320,167,413,0,,
1,1789506134256,-2522,4943,7824,-5751907,-259006,-912632,0,0,0,165,167,143,254,205,317,285,146,187,199,153,209,0,,
2,1789506134256,191,-339,10241,399505,111177,-36651,0,0,0,265,238,162,291,232,291,556,219,269,245,155,421,0,,
1,1789506134272,-2627,4087,8590,-5916840,-586430,-783129,0,0,0,162,188,144,250,233,306,184,109,116,206,170,213,0,,
2,1789506134272,287,-411,10198,438601,174707,-42760,0,0,0,283,281,173,321,287,302,559,208,263,285,171,447,0,,
1,1789506134288,-2464,3646,9815,-6072000,-923628,-577878,0,0,0,174,204,153,257,244,295,186,124,126,203,177,196,0,,
2,1789506134288,373,-497,10217,470366,188146,-56199,0,0,0,298,289,149,356,291,347,542,179,274,277,166,453,0,,
1,1789506134304,-2455,3187,11715,-6301685,-1249830,-313984,0,0,0,180,205,156,269,245,294,267,167,177,197,177,180,0,,
2,1789506134304,373,-579,10394,511905,124616,-70860,0,0,0,361,255,141,362,276,357,527,158,283,309,149,488,0,,
1,1789506134320,-2388,2550,13797,-6489832,-1583362,-65973,0,0,0,174,189,150,273,233,297,307,174,187,202,172,180,0,,
2,1789506134320,349,-650,10346,543670,50090,-83077,0,0,0,307,223,141,375,317,393,537,152,314,277,134,529,0,,
1,1789506134336,-2081,1832,16113,-6615670,-1896125,128281,0,0,0,174,175,156,268,206,300,319,169,198,204,158,182,0,,
2,1789506134336,406,-727,10040,527787,31764,-91629,0,0,0,351,237,108,387,306,385,497,189,309,277,145,532,0,,
1,1789506134352,-1871,1100,19176,-6717074,-2160019,224798,0,0,0,176,168,161,260,188,308,311,165,205,199,150,186,0,,
2,1789506134352,454,-804,10007,508239,39095,-102625,0,0,0,380,255,124,369,304,386,501,190,326,269,152,571,0,,
1,1789506134368,-1770,339,23120,-6818477,-2409252,224798,0,0,0,177,165,162,268,189,305,310,155,195,201,154,185,0,,
2,1789506134368,392,-851,10126,519235,25656,-112399,0,0,0,365,243,134,387,289,411,476,201,349,261,139,578,0,,
1,1789506134384,-1052,-1584,27657,-6994406,-2706133,-2443,0,0,0,176,172,166,256,194,305,318,167,207,194,157,188,0,,
2,1789506134384,311,-914,10212,552222,18325,-112399,0,0,0,344,231,138,418,272,424,485,191,329,286,156,606,0,,
1,1789506134400,234,-5460,31265,-7226535,-3144734,-414166,0,0,0,173,172,163,254,196,297,327,173,208,194,162,186,0,,
2,1789506134400,315,-1000,10337,618195,39095,-98960,0,0,0,356,233,137,431,307,418,478,184,334,276,154,608,0,,
1,1789506134416,3096,-11887,33988,-7414682,-3652974,-872315,0,0,0,182,184,180,248,209,295,329,180,206,194,169,192,0,,
2,1789506134416,421,-1105,10361,703716,68416,-95294,0,0,0,388,292,139,463,338,413,475,178,337,279,148,623,0,,
1,1789506134432,6288,-19655,33950,-7112914,-3095865,-1273043,0,0,0,168,173,160,264,208,294,334,151,202,205,136,180,0,,
2,1789506134432,512,-1225,10289,789237,86742,-105068,0,0,0,406,330,137,471,364,418,479,200,319,299,176,651,0,,
1,1789506134448,2809,-28178,29131,-6090326,-1628566,-1497841,0,0,0,163,168,169,260,203,301,324,151,216,202,140,188,0,,
2,1789506134448,684,-1349,10662,893084,86742,-133168,0,0,0,429,325,135,452,365,432,466,209,318,293,183,673,0,,
1,1789506134464,-3656,-38281,19372,-4498411,-1617571,-597426,0,0,0,172,169,180,266,208,327,334,150,230,206,137,206,0,,
2,1789506134464,770,-1435,11328,1050688,75747,-171042,0,0,0,468,336,136,454,329,437,434,185,333,282,158,697,0,,
1,1789506134480,3464,-45426,12677,-2930931,-2981022,693942,0,0,0,187,160,184,277,198,329,348,144,230,215,133,214,0,,
2,1789506134480,526,-1502,11954,1302364,72082,-200363,0,0,0,496,332,130,450,325,428,391,190,348,293,167,706,0,,
1,1789506134496,22799,-47681,10969,-1119105,-3218038,808785,0,0,0,186,147,169,281,187,312,339,156,219,231,160,197,0,,
2,1789506134496,220,-1569,12701,1654223,113620,-161268,0,0,0,517,304,136,451,315,426,368,180,366,326,174,720,0,,
1,1789506134512,22699,-41043,13290,1023810,-79412,-1018923,0,0,0,163,158,141,257,198,284,328,227,213,251,264,172,0,,
2,1789506134512,650,-1698,13582,2063502,152716,-125838,0,0,0,519,266,153,441,286,433,352,185,330,313,154,730,0,,
1,1789506134528,2368,-15338,18454,3419623,2673146,-1949881,0,0,0,140,176,124,234,218,285,316,309,208,268,380,160,0,,
2,1789506134528,1119,-1861,14161,2602285,125838,-184481,0,0,0,525,329,152,371,300,404,303,186,316,291,182,702,0,,
1,1789506134544,-7872,12194,16075,5005429,3690847,-862541,0,0,0,143,165,122,254,222,321,314,348,197,297,413,160,0,,
2,1789506134544,1268,-1981,14740,3123964,52534,-256563,0,0,0,491,361,144,374,369,369,296,191,288,299,186,678,0,,
1,1789506134560,-4383,7044,13079,5512447,3662747,-221133,0,0,0,165,165,124,270,212,309,377,402,204,350,425,166,0,,
2,1789506134560,2359,-2254,15539,3756821,-65973,-392175,0,0,0,459,372,123,424,378,430,264,154,263,287,171,636,0,,
1,1789506134576,1689,-7212,15649,5266880,2025629,-1037249,0,0,0,182,170,150,277,219,318,399,409,216,364,437,171,0,,
2,1789506134576,3436,-2550,16668,4493524,-141720,-656069,0,0,0,435,376,121,377,336,419,257,148,264,249,146,582,0,,
1,1789506134592,4541,-4345,20076,4781853,935845,-1302364,0,0,0,179,156,110,298,211,302,469,469,243,401,449,144,0,,
2,1789506134592,3632,-2742,18707,5279097,-174707,-951728,0,0,0,334,359,120,319,373,396,187,113,231,203,144,524,0,,
1,1789506134608,2775,272,19516,3878994,1031140,-266337,0,0,0,192,144,140,312,193,300,464,463,205,465,467,161,0,,
2,1789506134608,4292,-4106,21885,6207612,-164933,-1202182,0,0,0,278,277,110,265,276,326,167,101,190,192,118,426,0,,
1,1789506134624,-866,-344,14256,2366491,852767,266337,0,0,0,231,154,233,309,173,361,468,468,220,474,474,212,0,,
2,1789506134624,5317,-5690,24900,6860016,97738,-1428202,0,0,0,241,193,93,209,229,269,134,104,165,160,113,367,0,,
1,1789506134640,-1153,-1593,10973,1054353,322536,47647,0,0,0,257,194,216,350,217,366,475,452,210,501,500,214,0,,
2,1789506134640,5723,-4522,26345,7134905,373849,-1765400,0,0,0,180,171,94,166,183,228,127,119,138,126,114,240,0,,
1,1789506134656,-244,-1545,10265,288328,6108,-134390,0,0,0,251,225,269,342,246,399,483,455,262,491,490,250,0,,
2,1789506134656,6585,-1359,25063,7266852,151494,-2211332,0,0,0,106,89,63,132,98,158,90,93,84,85,85,107,0,,
1,1789506134672,-296,-555,10356,208915,34208,-25656,0,0,0,270,245,320,361,238,434,454,377,252,485,485,316,0,,
2,1789506134672,7958,2833,21861,7275404,-117286,-2669481,0,0,0,65,82,47,117,79,127,102,88,77,72,69,70,0,,
1,1789506134688,-598,-224,10318,305432,56199,48869,0,0,0,298,244,362,396,243,451,431,305,228,486,478,347,0,,
2,1789506134688,8748,8384,15965,6471506,-95294,-3104417,0,0,0,54,102,47,109,94,121,128,101,87,78,67,74,0,,
1,1789506134704,-626,-397,10246,320093,-8552,35430,0,0,0,328,253,379,420,281,462,447,306,282,479,436,360,0,,
2,1789506134704,7513,12940,10782,4162435,233350,-3117856,0,0,0,51,81,42,106,86,109,123,98,81,73,71,70,0,,
1,1789506134720,-545,-483,10256,284663,-101403,20769,0,0,0,363,286,375,429,322,471,448,290,309,459,370,413,0,,
2,1789506134720,4005,13783,9806,472809,496022,-2244318,0,0,0,59,89,48,116,87,109,136,102,84,79,79,64,0,,
1,1789506134736,-531,-469,10289,300545,-146607,36651,0,0,0,389,305,369,427,312,475,424,225,273,445,305,469,0,,
2,1789506134736,1273,9882,9676,-2426356,-164933,-915076,0,0,0,80,101,54,130,93,114,156,111,85,101,74,71,0,,
1,1789506134752,-559,-512,10294,360410,-169820,45204,0,0,0,400,297,340,428,264,476,437,189,285,435,238,466,0,x,
2,1789506134752,1407,6412,7398,-3087312,-1031140,-106290,0,0,0,100,81,54,138,78,113,161,106,86,106,66,85,0,x,
1,1789506134768,-588,-598,10289,405614,-195476,41538,0,0,0,409,321,271,443,287,479,491,212,333,377,190,464,0,,
2,1789506134768,2924,5656,4723,-2739119,-1361007,217468,0,0,0,163,83,50,161,78,113,166,113,92,110,67,77,0,,
1,1789506134784,-598,-684,10337,444709,-228463,37873,0,0,0,422,315,288,462,262,503,497,195,295,375,207,463,0,,
2,1789506134784,3622,6767,4297,-3189938,-808785,436157,0,0,0,182,113,62,144,86,112,143,126,93,93,77,77,0,,
1,1789506134800,-626,-746,10495,507018,-293215,35430,0,0,0,438,336,246,496,316,492,420,147,275,375,180,464,0,,
2,1789506134800,3455,6901,5307,-4170987,-96516,630412,0,0,0,171,100,63,143,85,108,141,130,89,88,89,71,0,,
1,1789506134816,-684,-794,10591,574213,-381179,32986,0,0,0,430,337,169,491,381,509,420,180,272,343,218,464,0,,
2,1789506134816,2861,5618,6566,-4951673,398284,723264,0,0,0,160,85,47,162,98,124,144,130,99,99,95,92,0,,
1,1789506134832,-827,-880,10480,624304,-445931,40317,0,0,0,437,378,196,485,377,449,408,153,253,382,216,477,0,,
2,1789506134832,2297,4312,7575,-5309640,615752,724486,0,0,0,146,90,47,154,99,122,145,130,100,94,85,77,0,,
1,1789506134848,-971,-990,10327,648738,-438601,63529,0,0,0,428,327,182,469,356,469,404,156,287,375,217,479,0,,
2,1789506134848,2301,3905,8427,-5426926,664621,670730,0,0,0,80,97,51,114,109,119,134,129,100,83,88,95,0,,
1,1789506134864,-938,-1100,10299,664621,-345749,89186,0,0,0,447,337,188,472,333,484,440,171,307,359,188,490,0,,
2,1789506134864,2852,3933,9925,-5767789,998153,597426,0,0,0,63,107,53,109,111,123,132,134,104,81,89,92,0,,
1,1789506134880,-861,-1210,10208,673173,-200363,87964,0,0,0,456,347,196,464,364,493,446,179,326,344,184,486,0,,
2,1789506134880,2943,3857,12021,-6223495,1525941,547335,0,0,0,62,109,58,108,105,134,127,129,116,75,79,96,0,,
1,1789506134896,-899,-1320,10054,662177,-120951,85521,0,0,0,468,373,202,449,391,504,431,177,320,347,200,489,0,,
2,1789506134896,2517,3335,14180,-6559470,1897347,571769,0,0,0,50,107,50,113,119,132,125,139,106,66,86,84,0,,
1,1789506134912,-899,-1411,9987,643851,-120951,95294,0,0,0,471,380,218,444,382,515,422,173,310,347,206,489,0,,
2,1789506134912,2321,1919,16582,-6630331,2102598,671951,0,0,0,45,108,53,106,115,125,132,139,105,68,88,89,0,,
1,1789506134928,-880,-1497,9987,638965,-133168,102625,0,0,0,470,365,221,451,378,515,419,179,312,338,201,489,0,,
2,1789506134928,2603,167,19186,-6434854,2329840,783129,0,0,0,50,136,56,96,136,124,130,146,109,84,106,104,0,,
1,1789506134944,-875,-1598,9992,649960,-142942,105068,0,0,0,478,361,214,463,381,515,422,183,324,365,202,488,0,,
2,1789506134944,2952,-1368,22359,-6145304,2603507,867428,0,0,0,53,128,55,102,131,130,132,137,105,94,104,110,0,,
1,1789506134960,-875,-1703,10002,669508,-161268,106290,0,0,0,475,358,215,477,364,531,434,180,334,397,201,483,0,,
2,1789506134960,2727,-3129,27130,-6010913,2763554,989601,0,0,0,55,99,57,112,99,137,139,119,102,88,81,103,0,,
1,1789506134976,-938,-1804,10098,704938,-194255,113620,0,0,0,475,349,189,473,366,535,442,181,308,341,192,515,0,,
2,1789506134976,1727,-5943,30619,-6311459,2730567,1166752,0,0,0,59,107,61,112,96,139,142,120,107,86,79,98,0,,
1,1789506134992,-952,-1890,10169,769690,-234572,128281,0,0,0,483,325,203,460,348,515,442,178,310,335,182,527,0,,
2,1789506134992,186,-11524,31509,-6648657,2530203,1353677,0,0,0,64,123,60,115,101,139,160,126,113,100,83,101,0,,
1,1789506135008,-832,-1995,10117,839328,-259006,131946,0,0,0,489,353,205,473,402,513,407,166,324,351,198,540,0,,
2,1789506135008,-411,-18061,30356,-6388428,2090380,1499063,0,0,0,74,137,58,125,110,144,182,129,114,102,77,92,0,,
1,1789506135024,-780,-2115,10131,890641,-235793,108734,0,0,0,502,361,207,486,450,530,376,163,330,363,210,551,0,,
2,1789506135024,1411,-25575,25168,-5480682,1678657,1516167,0,0,0,62,147,60,115,115,144,154,136,116,80,90,99,0,,
1,1789506135040,-827,-2220,10495,959058,-183259,75747,0,0,0,517,362,200,466,419,556,378,173,331,355,221,582,0,,
2,1789506135040,2459,-36171,17573,-4378682,1892460,1012814,0,0,0,61,167,56,129,147,146,170,169,113,98,137,105,0,,
1,1789506135056,-856,-2321,11107,1097113,-138055,42760,0,0,0,534,377,207,486,442,526,394,202,332,341,218,590,0,,
2,1789506135056,-3776,-46848,11978,-2968805,2623055,-135612,0,0,0,69,134,64,133,128,147,172,172,119,100,127,100,0,,
1,1789506135072,-899,-2412,11777,1319468,-147829,15882,0,0,0,559,385,239,493,425,532,405,178,352,354,198,582,0,,
2,1789506135072,-15884,-47748,11911,-932180,2053728,-780685,0,0,0,50,170,58,115,141,145,185,172,122,101,121,93,0,,
1,1789506135088,-1454,-2531,12883,1707979,-201585,20769,0,0,0,551,387,219,494,434,516,404,174,342,361,201,591,0,,
2,1789506135088,-18028,-35218,15281,1265712,-152716,-320093,0,0,0,82,128,65,116,113,152,228,253,130,137,225,108,0,,
1,1789506135104,-2278,-2613,13979,2208888,-260228,129503,0,0,0,539,360,205,482,431,531,397,171,384,360,200,606,0,,
2,1789506135104,-4938,-6159,19626,3048217,-2557081,625526,0,0,0,73,80,98,152,99,230,296,323,179,187,317,132,0,,
1,1789506135120,-2464,-2622,15046,2929709,-353080,351858,0,0,0,519,352,219,506,461,556,372,146,357,358,203,574,0,,
2,1789506135120,4441,12907,13553,4495968,-4366464,795346,0,0,0,85,100,84,155,112,196,333,502,176,207,383,115,0,,
1,1789506135136,-3067,-2593,17047,3832568,-592539,601091,0,0,0,491,373,226,525,487,548,334,118,309,353,201,520,0,,
2,1789506135136,2282,2876,10083,5235115,-4616919,780685,0,0,0,113,79,83,192,114,224,383,577,188,246,465,140,0,,
1,1789506135152,-2837,-2608,20095,4968777,-792903,879645,0,0,0,469,353,219,498,436,523,346,112,329,339,168,481,0,,
2,1789506135152,-3364,-7279,14352,5379279,-2983465,1144761,0,0,0,135,70,79,209,97,210,428,602,185,352,503,136,0,,
1,1789506135168,-1631,-3460,22239,6036570,-544891,937067,0,0,0,447,303,221,446,361,495,372,121,342,306,129,455,0,,
2,1789506135168,-5135,-3158,21722,5194797,-1909564,1025031,0,0,0,156,60,92,219,90,214,533,604,188,419,515,107,0,,
1,1789506135184,-1995,-5326,23268,6675535,-267558,714712,0,0,0,401,289,212,377,335,450,302,130,295,257,127,439,0,,
2,1789506135184,-2589,-325,22158,4073249,-1831373,342084,0,0,0,187,63,125,239,98,210,626,596,187,456,529,103,0,,
1,1789506135200,-3115,-5699,24230,6928433,-299323,624304,0,0,0,316,222,165,358,268,418,280,139,245,223,128,385,0,,
2,1789506135200,-28,-1196,13979,1731192,-1142317,128281,0,0,0,218,172,170,257,134,197,657,533,200,483,502,144,0,,
1,1789506135216,-5522,-4302,24201,7005402,-422718,819781,0,0,0,225,163,166,301,170,337,303,106,217,227,103,298,0,,
2,1789506135216,71,-1430,9361,282219,-316428,173485,0,0,0,266,297,232,257,175,209,643,429,226,502,429,208,0,,
1,1789506135232,-7236,-981,21100,6767165,-406836,1284038,0,0,0,164,128,146,279,150,275,351,103,187,245,131,170,0,,
2,1789506135232,-220,-670,9351,70860,-7330,123394,0,0,0,322,280,298,249,181,248,628,372,232,510,376,255,0,,
1,1789506135248,-7322,5087,14907,5843536,-46425,1811826,0,0,0,189,141,136,279,156,254,342,129,210,213,120,179,0,,
2,1789506135248,0,-253,10413,343306,-144164,8552,0,0,0,328,252,347,246,197,295,640,351,245,467,331,277,0,,
1,1789506135264,-6958,12299,10442,3417180,654847,1959655,0,0,0,176,162,123,254,179,238,56,14,27,226,149,168,0,,
2,1789506135264,124,-363,10399,388510,-197920,-23212,0,0,0,351,282,386,255,253,296,647,328,239,419,269,297,0,,
1,1789506135280,-6695,14931,9394,102625,938289,1821600,0,0,0,181,157,138,257,159,249,27,1,8,222,150,160,0,,
2,1789506135280,43,-473,10040,301767,-125838,0,0,0,0,404,328,375,284,229,316,614,264,225,382,236,316,0,,
1,1789506135296,-5340,11040,8250,-2169793,796568,1850921,0,0,0,183,165,121,277,167,240,277,104,127,231,143,152,0,,
2,1789506135296,14,-473,9964,250454,-75747,9773,0,0,0,363,343,371,269,297,306,583,246,245,326,209,301,0,,
1,1789506135312,-3254,7327,4986,-2541199,856433,2208888,0,0,0,169,141,119,267,155,235,339,140,161,226,142,158,0,,
2,1789506135312,81,-445,10083,243124,-57421,1221,0,0,0,392,300,342,312,239,311,562,200,239,269,166,315,0,,
1,1789506135328,-2163,6992,3441,-2790432,1087340,2234545,0,0,0,161,119,168,259,139,265,326,130,190,219,139,186,0,,
2,1789506135328,86,-483,10107,254119,-45204,-7330,0,0,0,395,301,311,302,231,303,557,179,246,243,133,315,0,,
1,1789506135344,-2081,7537,4173,-3733608,1304808,1704314,0,0,0,147,116,211,247,134,299,294,125,230,209,134,212,0,,
2,1789506135344,9,-550,10059,260228,-26878,-3665,0,0,0,400,302,357,305,264,339,520,158,274,242,121,370,0,,
1,1789506135360,-2900,6312,5269,-4736649,1364672,948062,0,0,0,137,123,211,234,146,304,280,130,238,202,138,218,0,,
2,1789506135360,4,-550,10222,293215,13439,4886,0,0,0,394,301,345,294,238,347,517,154,311,248,118,367,0,,
1,1789506135376,-4350,4871,5762,-5188689,1081231,349414,0,0,0,141,124,196,238,157,298,305,133,219,203,146,212,0,,
2,1789506135376,43,-545,10409,377514,84299,7330,0,0,0,399,290,317,321,243,356,449,135,274,213,106,376,0,,
1,1789506135392,-5379,3991,6484,-5329188,350636,-138055,0,0,0,146,120,193,250,151,303,312,130,210,208,141,204,0,,
2,1789506135392,52,-603,10370,504574,188146,7330,0,0,0,439,291,276,306,261,349,389,127,270,201,105,393,0,,
1,1789506135408,-5120,3656,7949,-5426926,-456927,-590095,0,0,0,161,130,177,260,157,289,328,133,191,218,142,187,0,,
2,1789506135408,157,-727,10150,548556,234572,10995,0,0,0,423,351,281,301,267,385,355,131,281,206,110,421,0,,
1,1789506135424,-4714,3110,9892,-5596747,-984714,-1081231,0,0,0,177,127,144,278,151,273,360,145,176,233,146,173,0,,
2,1789506135424,325,-851,9925,489913,178372,4886,0,0,0,438,351,252,306,269,378,359,141,271,215,115,429,0,,
1,1789506135440,-5096,1780,12084,-5755572,-1336573,-1494176,0,0,0,195,116,140,296,133,263,388,130,175,247,131,161,0,,
2,1789506135440,435,-961,9590,381179,68416,-15882,0,0,0,456,317,224,319,272,352,372,139,258,219,111,433,0,,
1,1789506135456,-5460,9,13969,-5777563,-1696983,-1672549,0,0,0,204,116,134,307,129,262,388,131,181,249,130,157,0,,
2,1789506135456,358,-1028,9169,219911,-17104,-39095,0,0,0,453,308,241,333,281,364,378,135,253,225,112,441,0,,
1,1789506135472,-5307,-1957,16032,-5623625,-2062281,-1639562,0,0,0,204,124,129,305,138,268,389,132,189,308,121,163,0,,
2,1789506135472,268,-1024,9284,52534,-72082,-45204,0,0,0,460,308,256,342,292,376,379,145,247,230,119,437,0,,
1,1789506135488,-4670,-3220,18415,-5475796,-2217440,-1615127,0,0,0,206,122,128,312,134,263,392,121,184,289,146,159,0,,
2,1789506135488,248,-947,9925,-1221,-97738,-37873,0,0,0,467,314,251,341,290,364,365,159,239,220,119,427,0,,
1,1789506135504,-3771,-4345,21387,-5564982,-2046398,-2028072,0,0,0,198,135,125,312,152,257,394,125,179,279,161,150,0,,
2,1789506135504,215,-904,10256,17104,-108734,-34208,0,0,0,477,336,248,328,297,367,356,167,237,212,127,430,0,,
1,1789506135520,-3584,-6953,23503,-5764124,-1780061,-2968805,0,0,0,204,152,128,306,170,250,395,133,175,278,166,143,0,,
2,1789506135520,134,-909,10203,72082,-95294,-26878,0,0,0,457,355,269,336,315,396,388,141,253,235,137,458,0,,
1,1789506135536,-5015,-11811,24125,-5727472,-1571145,-4409225,0,0,0,206,153,133,297,165,252,394,127,175,276,168,146,0,,
2,1789506135536,153,-909,10380,141720,-61086,-9773,0,0,0,472,364,243,326,339,373,365,139,244,211,130,474,0,,
1,1789506135552,-7465,-16606,23479,-5139820,-1699427,-5558873,0,0,0,205,142,133,295,150,255,382,109,167,278,170,152,0,,
2,1789506135552,301,-928,10715,276111,-24434,-9773,0,0,0,524,348,201,372,335,394,335,148,247,216,131,491,0,,
1,1789506135568,-8767,-20306,22665,-4497189,-1887573,-6013357,0,0,0,208,131,131,305,142,258,375,99,160,287,172,157,0,,
2,1789506135568,411,-990,10782,455705,-2443,-40317,0,0,0,472,369,189,361,334,389,349,150,267,222,114,488,0,,
1,1789506135584,-9337,-23972,20885,-3858224,-1758070,-5804441,0,0,0,201,122,130,313,137,268,390,101,171,297,173,162,0,,
2,1789506135584,488,-1091,10715,609643,15882,-80634,0,0,0,499,371,196,380,346,386,340,149,270,239,131,489,0,,
1,1789506135600,-11481,-27269,17324,-2862514,-1568701,-5335296,0,0,0,188,114,125,311,126,268,390,98,173,294,167,160,0,,
2,1789506135600,555,-1210,10634,744033,43982,-131946,0,0,0,497,389,164,409,371,395,363,146,271,250,139,556,0,,
1,1789506135616,-12299,-28284,14529,-1717753,-1992642,-5061629,0,0,0,197,116,130,308,127,271,384,97,174,285,159,163,0,,
2,1789506135616,502,-1306,10619,855211,92851,-180816,0,0,0,492,363,157,408,318,411,338,140,267,268,131,563,0,,
1,1789506135632,-9351,-27666,12634,-476474,-2626720,-4786740,0,0,0,191,131,165,312,158,292,338,100,144,262,164,160,0,,
2,1789506135632,425,-1397,10887,979827,153938,-211359,0,0,0,505,383,156,414,304,423,342,166,258,264,158,602,0,,
1,1789506135648,-5106,-29475,12543,790459,-2610838,-4243069,0,0,0,207,137,130,305,180,274,364,170,164,244,250,144,0,,
2,1789506135648,631,-1507,11395,1116661,166155,-237015,0,0,0,501,363,150,382,318,401,306,174,268,265,161,614,0,,
1,1789506135664,-2268,-28351,12481,2868623,-1918116,-3712838,0,0,0,184,209,110,282,251,251,392,274,174,260,320,140,0,,
2,1789506135664,832,-1631,11954,1328021,105068,-290771,0,0,0,498,313,145,329,310,386,273,181,262,239,163,589,0,,
1,1789506135680,-2660,-11284,11887,4450764,-1370781,-3744603,0,0,0,186,200,97,304,260,244,375,247,139,310,351,127,0,,
2,1789506135680,861,-1809,12242,1563815,41538,-340862,0,0,0,488,290,147,309,286,372,273,179,242,238,156,567,0,,
1,1789506135696,-1952,6834,10969,4849048,-1111774,-4024380,0,0,0,174,183,140,291,230,284,368,294,183,284,397,157,0,,
2,1789506135696,990,-1986,12849,1909564,47647,-392175,0,0,0,460,291,133,332,291,344,258,159,236,263,147,522,0,,
1,1789506135712,3354,3077,11940,4697553,-635299,-3393967,0,0,0,178,181,127,301,238,324,386,358,202,288,412,161,0,,
2,1789506135712,1813,-2196,13706,2323731,98960,-480140,0,0,0,406,271,99,336,297,328,223,141,236,252,144,458,0,,
1,1789506135728,7796,-1780,14615,4475198,172263,-1832595,0,0,0,182,174,107,310,223,329,417,384,175,376,434,148,0,,
2,1789506135728,3402,-2560,14309,2866179,190589,-704938,0,0,0,323,225,91,283,242,331,205,127,214,208,121,433,0,,
1,1789506135744,5345,-1411,18315,4097684,962723,138055,0,0,0,189,187,107,324,205,317,455,437,216,424,445,153,0,,
2,1789506135744,5632,-3397,13859,3425732,384845,-1127657,0,0,0,253,216,97,245,196,308,179,104,201,167,98,383,0,,
1,1789506135760,-2187,-1871,17855,2456899,874759,827111,0,0,0,204,171,127,339,195,336,457,412,250,421,443,186,0,,
2,1789506135760,8222,-4565,13505,3800803,796568,-1624901,0,0,0,215,175,90,228,176,281,194,117,199,148,93,303,0,,
1,1789506135776,-3565,-1789,12663,582765,144164,279776,0,0,0,225,150,139,359,179,380,446,352,274,398,423,251,0,,
2,1789506135776,9317,-4316,14477,3858224,1462411,-2348165,0,0,0,232,114,111,213,118,243,183,87,205,149,69,277,0,,
1,1789506135792,-1292,-641,9384,-10995,-294437,-85521,0,0,0,244,157,144,391,166,406,453,326,327,369,356,323,0,,
2,1789506135792,9581,-2890,14079,3607770,1995085,-3115412,0,0,0,214,72,89,222,84,211,205,97,189,164,69,193,0,,
1,1789506135808,-641,-95,9777,272445,-296880,62308,0,0,0,257,152,172,406,166,417,453,265,352,356,248,356,0,,
2,1789506135808,9179,-2239,12601,3187494,2421469,-3802025,0,0,0,137,168,94,228,116,195,222,111,145,157,82,137,0,,
1,1789506135824,-1273,-306,10725,496022,-284663,199142,0,0,0,267,168,163,383,162,452,470,252,397,344,198,400,0,,
2,1789506135824,6518,-2230,11107,2604729,2522873,-4456872,0,0,0,65,54,76,125,66,160,146,85,127,90,63,101,0,,
1,1789506135840,-1536,-588,10801,493579,-472809,168598,0,0,0,268,188,168,405,208,446,442,204,375,406,204,415,0,,
2,1789506135840,4273,-114,9490,2008524,2190562,-4849048,0,0,0,68,45,74,126,68,177,143,97,130,95,72,97,0,,
