sole_id,timestamp,accel_x,accel_y,accel_z,gyro_x,gyro_y,gyro_z,magn_x,magn_y,magn_z,pressure_01,pressure_02,pressure_03,pressure_04,pressure_05,pressure_06,pressure_07,pressure_08,pressure_09,pressure_10,pressure_11,pressure_12,corrupt,concrete,transition,asphalt
1,1791321052576,-5958,15941,9341,973719,-924849,1872912,0,0,0,208,187,169,245,180,261,5,0,0,203,128,238,0,,,
1,1791321052592,-1675,12079,10543,-2254092,136833,792903,0,0,0,214,188,166,254,181,254,9,0,0,211,136,238,0,,,
1,1791321052608,-4120,8509,8092,-3172834,1102000,-64751,0,0,0,211,189,166,250,182,254,272,112,158,212,139,239,0,,,
1,1791321052624,-5929,7480,5197,-3308446,724486,-343306,0,0,0,211,192,159,248,183,252,301,131,172,210,144,240,0,,,
1,1791321052640,-4221,7748,4766,-3986506,-153938,-414166,0,0,0,214,194,155,250,185,247,310,139,176,213,147,237,0,,,
1,1791321052656,-2110,7303,6082,-5108055,-458148,-561996,0,0,0,216,194,152,250,184,244,128,55,69,225,152,237,0,,,
2,1791321052656,0,0,0,0,0,0,0,0,0,249,146,222,251,173,300,419,148,239,201,106,311,0,,,
1,1791321052672,-2010,5910,7662,-5969375,-169820,-697608,0,0,0,219,196,153,248,185,242,4,0,0,230,154,237,0,,,
2,1791321052672,-502,-507,555,0,-8552,-9773,0,0,0,255,134,226,250,156,303,407,132,245,201,94,322,0,,,
1,1791321052688,-2837,4613,8528,-6256481,-109955,-658512,0,0,0,224,198,159,246,184,242,0,0,0,229,154,238,0,,,
2,1791321052688,-5685,-5762,8537,-59864,-712268,-825889,0,0,0,266,156,226,258,181,290,389,121,248,196,91,328,0,,,
1,1791321052704,-3417,3656,9710,-6439741,-327423,-527787,0,0,0,223,197,165,246,182,247,101,45,58,224,152,241,0,,,
2,1791321052704,-5273,-5608,13869,-18325,-2021963,-2057394,0,0,0,284,165,238,290,168,297,378,102,240,196,76,327,0,,,
1,1791321052720,-3498,2914,11438,-6642548,-750142,-346971,0,0,0,211,192,165,247,181,254,282,124,162,219,150,243,0,,,
2,1791321052720,-488,-808,11586,428827,-1309695,-1105666,0,0,0,293,166,256,313,189,306,415,139,268,213,73,334,0,,,
1,1791321052736,-3326,2048,13701,-6856351,-1263269,-108734,0,0,0,204,188,166,242,179,258,261,112,153,226,150,251,0,,,
2,1791321052736,1186,890,9504,704938,-35430,25656,0,0,0,288,173,224,288,189,301,382,130,257,198,70,358,0,,,
1,1791321052752,-3354,1239,15984,-6935763,-1734857,122173,0,0,0,210,194,174,248,183,267,234,96,139,206,140,246,0,,,
2,1791321052752,325,-177,9557,693942,348193,182037,0,0,0,304,161,234,294,188,310,369,118,280,202,85,363,0,,,
1,1791321052768,-3187,622,18324,-6928433,-2136806,284663,0,0,0,197,190,168,236,179,259,257,104,153,228,145,252,0,,,
2,1791321052768,-71,-827,10189,632856,65973,-151494,0,0,0,321,180,227,291,213,312,362,114,256,195,77,385,0,,,
1,1791321052784,-2828,325,21478,-6950424,-2508212,355523,0,0,0,205,191,173,252,182,266,260,105,155,210,132,246,0,,,
2,1791321052784,181,-717,10356,649960,-12217,-233350,0,0,0,342,174,196,308,208,295,355,116,253,200,89,384,0,,,
1,1791321052800,-2383,-368,25862,-7154453,-2891836,283441,0,0,0,191,189,168,236,178,261,281,109,166,211,130,244,0,,,
2,1791321052800,564,-593,10413,722042,70860,-180816,0,0,0,354,182,200,297,209,325,351,103,258,175,62,406,0,,,
1,1791321052816,-1387,-2761,30260,-7385360,-3348763,58643,0,0,0,185,189,169,235,178,265,271,102,161,210,131,245,0,x,,
2,1791321052816,617,-784,10490,830776,90408,-221133,0,0,0,353,259,168,294,244,336,361,127,275,158,69,431,0,x,,
1,1791321052832,1196,-8432,34242,-7467216,-3943745,-353080,0,0,0,179,189,173,231,178,275,275,109,170,218,132,248,0,,,
2,1791321052832,296,-1005,10303,921184,58643,-300545,0,0,0,374,230,148,302,243,334,358,126,265,176,88,453,0,,,
1,1791321052848,5585,-15577,35314,-7211875,-3903428,-667064,0,0,0,175,191,177,232,180,275,280,114,174,211,135,246,0,,,
2,1791321052848,4,-1091,10112,967610,64751,-304210,0,0,0,393,196,129,324,258,353,356,123,267,184,88,488,0,,,
1,1791321052864,7418,-22995,33127,-6679200,-2858849,-889419,0,0,0,174,191,180,236,181,279,304,123,193,208,133,250,0,,,
2,1791321052864,-14,-1153,10480,1015258,90408,-263893,0,0,0,397,195,115,347,268,365,349,123,298,195,84,520,0,,,
1,1791321052880,2330,-32902,25651,-5545434,-1485624,-810007,0,0,0,175,196,184,238,183,285,293,114,190,211,132,258,0,,,
2,1791321052880,234,-1225,11481,1142317,116064,-224798,0,0,0,399,197,109,340,259,359,342,126,293,197,87,535,0,,,
1,1791321052896,2263,-44656,16223,-3729943,-2404365,263893,0,0,0,177,201,187,238,183,290,278,106,184,214,133,264,0,,,
2,1791321052896,454,-1344,12548,1450194,140499,-229685,0,0,0,412,212,111,308,249,362,335,128,249,183,88,548,0,,,
1,1791321052912,18923,-50638,12088,-1694540,-3411071,1001818,0,0,0,169,189,172,242,182,287,279,127,188,231,171,253,0,,,
2,1791321052912,449,-1440,13180,1833817,167377,-244346,0,0,0,434,224,120,296,239,361,316,121,242,194,87,571,0,,,
1,1791321052928,28571,-44034,14256,687834,-565661,-365297,0,0,0,157,175,134,250,184,272,270,177,169,268,261,223,0,,,
2,1791321052928,650,-1450,13950,2310292,162490,-263893,0,0,0,455,198,129,294,229,339,296,122,241,197,85,581,0,,,
1,1791321052944,9691,-22072,18765,3235142,2787988,-1552819,0,0,0,169,185,106,257,183,262,304,251,155,290,330,216,0,,,
2,1791321052944,880,-1435,14625,2823419,114842,-311541,0,0,0,450,196,147,273,200,331,267,116,224,172,78,558,0,,,
1,1791321052960,-6025,4986,15419,5909510,4601036,-558330,0,0,0,180,188,105,271,186,278,341,319,178,319,379,230,0,,,
2,1791321052960,981,-1392,15037,3392745,57421,-371406,0,0,0,427,200,144,261,192,326,263,115,233,162,76,546,0,,,
1,1791321052976,-4642,4991,14955,6797708,4814839,335975,0,0,0,190,205,116,281,203,298,337,327,174,347,426,256,0,,,
2,1791321052976,1158,-1206,15620,4063475,-48869,-436157,0,0,0,419,188,145,238,172,320,220,121,233,159,84,530,0,,,
1,1791321052992,2440,-5776,20947,6026796,2841745,-249233,0,0,0,196,192,151,281,193,309,344,326,178,383,424,280,0,,,
2,1791321052992,1478,-1091,16544,4847826,-260228,-520457,0,0,0,372,180,144,234,172,310,177,97,198,144,70,475,0,,,
1,1791321053008,3484,-4642,24551,4853935,948062,-632856,0,0,0,208,186,174,280,182,307,329,291,197,401,415,285,0,,,
2,1791321053008,2632,-1560,18894,5798332,-535117,-659734,0,0,0,355,164,140,220,164,286,177,103,198,147,80,421,0,,,
1,1791321053024,296,-588,18564,3189938,428827,-180816,0,0,0,204,197,182,276,197,321,376,326,192,411,430,302,0,,,
2,1791321053024,5183,-4312,24077,6971194,-621860,-860098,0,0,0,326,152,136,198,149,254,178,112,177,148,81,384,0,,,
1,1791321053040,-1876,545,10629,1527163,588874,52534,0,0,0,230,209,214,289,206,332,398,356,197,411,435,318,0,,,
2,1791321053040,5929,-7686,31519,7870387,19547,-1154535,0,0,0,271,117,128,167,111,228,161,80,161,125,77,318,0,,,
1,1791321053056,-933,-722,9480,502131,487470,-96516,0,0,0,254,217,240,298,221,336,385,341,187,412,437,331,0,,,
2,1791321053056,3211,-4201,36008,8338310,-145385,-1506393,0,0,0,201,88,113,133,79,189,169,98,142,89,65,207,0,,,
1,1791321053072,-224,-923,10538,51312,199142,-117286,0,0,0,272,221,255,306,221,339,380,315,174,425,438,346,0,,,
2,1791321053072,6207,3517,32854,8773246,-1216843,-1743409,0,0,0,146,68,94,128,64,167,180,111,132,78,52,121,0,,,
1,1791321053088,-631,-186,10519,97738,53756,-25656,0,0,0,282,233,269,305,231,342,386,309,174,426,432,354,0,,,
2,1791321053088,12490,11485,21201,8597317,-1127657,-2103819,0,0,0,134,62,91,122,59,161,181,114,130,82,55,105,0,,,
1,1791321053104,-894,100,10054,136833,18325,7330,0,0,0,287,244,289,300,236,344,398,319,191,419,422,359,0,,,
2,1791321053104,14505,15290,8978,6792821,416610,-2669481,0,0,0,136,68,95,124,65,162,177,108,132,79,54,104,0,,,
1,1791321053120,-823,0,9930,131946,2443,-1221,0,0,0,292,245,296,297,225,348,418,340,214,421,407,366,0,,,
2,1791321053120,9447,15573,7250,2996904,1992642,-2825862,0,0,0,134,68,93,130,70,161,176,111,129,76,48,97,0,,,
1,1791321053136,-717,-67,10074,136833,-46425,-1221,0,0,0,296,247,279,295,228,354,431,339,230,422,388,373,0,,,
2,1791321053136,2100,13926,11864,-1560149,1502728,-1822821,0,0,0,132,63,91,133,68,161,176,114,120,72,39,91,0,,,
1,1791321053152,-713,-43,10117,161268,-96516,6108,0,0,0,292,263,278,298,237,357,416,279,222,417,366,383,0,,,
2,1791321053152,847,10308,12557,-3970624,-210137,-433714,0,0,0,130,65,93,134,68,162,176,112,118,74,41,89,0,,,
1,1791321053168,-770,-43,10083,189368,-136833,10995,0,0,0,283,264,304,295,229,362,411,276,220,403,340,392,0,,,
2,1791321053168,4790,6944,8073,-4061032,-1137431,488692,0,0,0,128,66,98,131,72,166,178,115,136,86,54,102,0,,,
1,1791321053184,-808,-86,10059,206472,-161268,12217,0,0,0,283,251,324,293,223,373,432,260,272,387,301,403,0,,,
2,1791321053184,5618,6436,5269,-3987728,-199142,728151,0,0,0,126,65,104,133,76,179,176,117,155,79,49,106,0,,,
1,1791321053200,-813,-114,10059,210137,-163711,21991,0,0,0,318,274,269,311,237,370,407,239,228,386,317,409,0,,,
2,1791321053200,3283,6810,6379,-4557054,647517,872315,0,0,0,128,55,91,136,79,161,182,121,124,67,42,91,0,,,
1,1791321053216,-804,-143,10040,217468,-163711,30543,0,0,0,326,274,283,321,238,379,351,141,194,382,258,425,0,,,
2,1791321053216,1603,6255,8336,-5240002,752585,1114218,0,0,0,129,64,97,129,67,157,176,114,117,82,46,87,0,,,
1,1791321053232,-832,-177,10002,224798,-156381,34208,0,0,0,326,286,287,326,248,379,333,133,198,365,238,431,0,,,
2,1791321053232,1359,5183,9700,-5736024,596204,1324355,0,0,0,129,63,93,130,65,156,177,107,126,94,59,103,0,,,
1,1791321053248,-880,-220,9983,228463,-131946,40317,0,0,0,345,306,288,338,258,388,380,143,223,366,217,436,0,,,
2,1791321053248,2182,4206,10562,-6026796,485026,1381777,0,0,0,129,67,93,133,68,156,180,118,120,84,61,91,0,,,
1,1791321053264,-885,-277,9949,228463,-89186,42760,0,0,0,354,331,314,344,271,402,376,134,227,349,209,441,0,,,
2,1791321053264,2660,3503,11897,-6228381,667064,1257160,0,0,0,131,66,97,129,69,156,173,120,122,79,59,104,0,,,
1,1791321053280,-875,-315,9935,217468,-54977,43982,0,0,0,374,348,290,363,277,399,393,136,246,346,200,444,0,,,
2,1791321053280,2589,2828,13601,-6374989,917519,1067792,0,0,0,123,55,93,130,67,158,172,111,123,82,55,100,0,,,
1,1791321053296,-875,-349,10026,207694,-35430,53756,0,0,0,401,351,266,381,283,395,377,116,225,350,188,442,0,,,
2,1791321053296,2354,2258,15324,-6471506,1127657,880867,0,0,0,128,61,93,133,69,162,175,115,124,75,39,94,0,,,
1,1791321053312,-904,-354,10136,227241,-31764,74525,0,0,0,423,345,259,397,293,404,375,107,227,354,173,441,0,,,
2,1791321053312,2148,1727,17544,-6604674,1358564,762359,0,0,0,127,65,95,131,69,161,178,114,125,80,47,103,0,,,
1,1791321053328,-985,-373,10232,278554,-21991,105068,0,0,0,434,340,249,413,299,418,363,128,253,355,159,447,0,,,
2,1791321053328,1761,1229,20358,-6747617,1556484,802676,0,0,0,106,55,91,125,62,159,150,83,112,70,42,104,0,,,
1,1791321053344,-1139,-416,10385,350636,-10995,155159,0,0,0,434,343,231,416,308,422,301,122,221,345,156,453,0,,,
2,1791321053344,1407,540,23393,-6819699,1621236,1022588,0,0,0,108,55,90,130,67,165,162,87,116,75,42,96,0,,,
1,1791321053360,-1191,-464,10777,450818,-24434,224798,0,0,0,433,350,203,415,319,420,355,93,224,341,154,457,0,,,
2,1791321053360,1411,-1627,26647,-6817256,1715309,1433089,0,0,0,117,60,94,132,69,168,179,102,121,82,43,99,0,,,
1,1791321053376,-933,-502,11423,684169,-63529,280998,0,0,0,433,346,198,419,309,429,407,116,272,336,151,468,0,,,
2,1791321053376,1167,-5307,29270,-6812369,1938886,1770287,0,0,0,115,60,93,131,64,167,175,102,121,79,35,103,0,,,
1,1791321053392,-756,-598,11619,974940,-98960,295658,0,0,0,441,343,164,424,315,409,378,99,240,337,151,477,0,,,
2,1791321053392,28,-11198,31524,-6857573,1839926,1880243,0,0,0,112,60,91,133,64,168,181,113,130,83,46,105,0,,,
1,1791321053408,-679,-775,11251,1202182,-123394,271224,0,0,0,454,359,156,414,318,419,350,104,237,322,152,485,0,,,
2,1791321053408,445,-18712,31710,-6747617,1093448,1767844,0,0,0,114,61,92,138,66,170,192,122,135,93,67,113,0,,,
1,1791321053424,-784,-952,11179,1356120,-146607,244346,0,0,0,460,365,167,422,322,419,338,102,239,321,153,487,0,,,
2,1791321053424,3570,-28614,26733,-5986479,643851,1480737,0,0,0,121,57,96,144,65,173,196,106,126,95,59,118,0,,,
1,1791321053440,-1057,-1062,11931,1530828,-141720,251676,0,0,0,463,359,181,431,319,420,312,98,228,322,153,489,0,,,
2,1791321053440,3512,-41033,19425,-4756196,1180191,835663,0,0,0,121,66,99,138,62,173,194,115,130,88,44,118,0,,,
1,1791321053456,-1048,-1158,12849,1799608,-113620,272445,0,0,0,470,335,180,423,322,426,291,86,218,324,145,497,0,,,
2,1791321053456,-6728,-53495,13606,-2978578,2158797,-349414,0,0,0,118,64,93,141,70,175,206,122,143,99,57,113,0,,,
1,1791321053472,-780,-1244,14060,2240653,-89186,267558,0,0,0,465,334,190,411,310,421,296,92,223,321,147,498,0,,,
2,1791321053472,-20129,-54692,13314,-846659,1115439,-867428,0,0,0,105,63,69,144,82,172,255,186,141,149,151,117,0,,,
1,1791321053488,-1206,-1201,15343,2797762,-84299,246789,0,0,0,458,337,199,401,300,413,262,85,205,321,156,489,0,,,
2,1791321053488,-17071,-42253,16463,1795943,-1227839,-592539,0,0,0,106,49,71,143,66,175,300,267,146,212,218,134,0,,,
1,1791321053504,-2062,-1076,16573,3507588,-32986,311541,0,0,0,452,338,194,384,303,400,247,86,208,316,159,482,0,,,
2,1791321053504,-435,-11447,14170,5163032,-3106860,-488692,0,0,0,137,58,77,172,77,187,327,307,156,245,282,170,0,,,
1,1791321053520,-2933,-894,17927,4366464,151494,491135,0,0,0,442,347,178,372,318,394,258,99,232,303,154,471,0,,,
2,1791321053520,7207,5187,13223,7095810,-3467271,-410501,0,0,0,144,69,89,160,73,201,339,355,172,254,336,203,0,,,
1,1791321053536,-4728,-794,19329,5404935,551000,839328,0,0,0,419,355,166,372,327,399,242,99,229,284,148,448,0,,,
2,1791321053536,2904,-186,19014,6805038,-2194227,497244,0,0,0,145,68,93,164,72,209,375,364,179,275,342,213,0,,,
1,1791321053552,-5513,-918,21942,6515488,1165530,1284038,0,0,0,378,339,175,358,313,385,233,102,211,260,146,431,0,,,
2,1791321053552,-3675,-4580,25039,5608964,-1127657,893084,0,0,0,158,70,102,166,67,202,395,350,200,299,335,216,0,,,
1,1791321053568,-5498,-2837,26915,7572285,1924225,1593136,0,0,0,328,308,183,318,301,356,230,103,193,229,144,415,0,,,
2,1791321053568,-3220,-2995,21100,3637091,-884532,302989,0,0,0,177,76,112,169,65,204,419,358,203,309,334,229,0,,,
1,1791321053584,-4704,-4666,32294,8422609,2227214,1772730,0,0,0,292,285,175,281,273,323,225,92,154,211,132,396,0,,,
2,1791321053584,832,-191,11835,1554041,-783129,-84299,0,0,0,195,83,131,188,70,216,436,355,191,312,324,247,0,,,
1,1791321053600,-5053,-2081,34103,8973610,2528982,1830152,0,0,0,235,244,169,248,221,287,285,117,182,207,125,334,0,,,
2,1791321053600,985,-397,9054,414166,-428827,63529,0,0,0,215,94,159,204,77,227,437,335,183,315,313,266,0,,,
1,1791321053616,-8930,3383,31586,9221621,3046995,1866804,0,0,0,212,205,173,260,200,274,301,122,186,219,138,260,0,,,
2,1791321053616,52,-780,9844,65973,-199142,108734,0,0,0,236,105,180,207,85,238,449,331,185,323,316,289,0,,,
1,1791321053632,-13591,11380,22718,8478809,2831971,1872912,0,0,0,212,215,165,261,205,266,309,133,184,216,141,250,0,,,
2,1791321053632,-19,-368,10452,134390,-155159,25656,0,0,0,250,109,190,215,94,245,472,327,199,338,322,308,0,,,
1,1791321053648,-10758,14936,13084,5561317,1321912,1230282,0,0,0,210,209,164,253,196,263,262,102,157,212,136,251,0,,,
2,1791321053648,315,-33,10122,146607,-131946,-8552,0,0,0,255,103,189,219,84,249,475,308,203,349,310,316,0,,,
1,1791321053664,-6250,14883,10289,1738522,390953,-53756,0,0,0,212,204,167,251,191,258,272,110,161,213,137,246,0,,,
2,1791321053664,402,-47,9877,116064,-89186,0,0,0,0,257,101,196,232,94,267,473,275,196,335,255,316,0,,,
1,1791321053680,-4379,11117,11179,-1887573,433714,-1765400,0,0,0,218,197,164,251,186,256,253,101,147,221,138,244,0,,,
2,1791321053680,287,-110,10007,123394,-36651,1221,0,0,0,264,109,200,231,101,249,464,262,226,328,244,326,0,,,
1,1791321053696,-6958,7738,8446,-2350609,414166,-2260201,0,0,0,226,194,164,256,184,258,192,72,110,230,140,247,0,,,
2,1791321053696,268,-114,10093,156381,0,-7330,0,0,0,276,117,206,223,109,249,472,258,205,311,270,334,0,,,
1,1791321053712,-6877,6939,4594,-2323731,-261450,-1893682,0,0,0,231,193,160,261,184,258,226,87,129,228,139,245,0,,,
2,1791321053712,315,-119,10040,188146,13439,-17104,0,0,0,278,109,199,238,112,261,450,224,206,293,196,347,0,,,
1,1791321053728,-3622,7537,4288,-3290120,-540004,-1290147,0,0,0,230,192,150,263,186,252,310,126,173,223,137,236,0,,,
2,1791321053728,339,-148,9983,208915,9773,-21991,0,0,0,295,112,206,244,119,262,445,192,202,261,151,355,0,,,
1,1791321053744,-2019,6934,5723,-4510628,-287106,-916297,0,0,0,223,192,144,262,187,248,305,126,166,223,139,233,0,,,
2,1791321053744,354,-167,9992,227241,0,-30543,0,0,0,299,125,214,245,125,275,426,166,216,240,121,384,0,,,
1,1791321053760,-2239,5494,7418,-5450139,36651,-649960,0,0,0,220,190,146,260,186,248,288,119,158,223,140,233,0,,,
2,1791321053760,373,-210,10031,246789,-6108,-45204,0,0,0,319,127,211,251,133,278,417,161,223,221,100,392,0,,,
1,1791321053776,-2488,4637,8298,-5856975,-45204,-381179,0,0,0,228,188,139,260,183,241,282,114,148,227,139,229,0,,,
2,1791321053776,373,-287,10035,268780,-2443,-54977,0,0,0,336,129,208,259,140,281,408,134,217,221,101,406,0,,,
1,1791321053792,-2455,4039,9418,-6211277,-235793,-150272,0,0,0,213,188,134,249,183,235,290,120,154,227,140,228,0,,,
2,1791321053792,378,-349,10035,294437,-1221,-57421,0,0,0,345,130,197,267,151,288,399,116,218,212,86,421,0,,,
1,1791321053808,-2660,3206,11294,-6605896,-485026,1221,0,0,0,218,188,135,252,183,240,288,120,155,229,141,230,0,,,
2,1791321053808,363,-373,10064,326202,3665,-53756,0,0,0,344,136,177,270,170,295,391,113,228,193,77,439,0,,,
1,1791321053824,-2967,2426,13218,-6924768,-801455,103847,0,0,0,222,188,140,264,186,246,265,105,142,227,143,234,0,,,
2,1791321053824,363,-416,10136,362853,43982,-50090,0,0,0,343,143,152,271,177,299,383,122,240,189,77,460,0,,,
1,1791321053840,-3488,1732,15319,-7159340,-1218065,218689,0,0,0,203,191,145,248,186,247,290,119,159,224,142,236,0,,,
2,1791321053840,392,-483,10227,414166,150272,-50090,0,0,0,355,145,131,287,173,304,376,125,249,191,73,474,0,,,
1,1791321053856,-3905,904,17602,-7276626,-1656666,344527,0,0,0,202,192,155,248,183,252,272,110,155,224,139,237,0,,,
2,1791321053856,488,-540,10313,476474,267558,-57421,0,0,0,371,155,125,305,184,313,366,115,246,180,75,484,0,,,
1,1791321053872,-3991,71,20296,-7264409,-2050063,456927,0,0,0,206,192,169,257,185,262,295,118,174,223,139,241,0,,,
2,1791321053872,622,-598,10404,541226,359188,-79412,0,0,0,377,173,126,286,191,318,352,119,240,175,70,503,0,,,
1,1791321053888,-3756,-741,24517,-7263187,-2354274,513126,0,0,0,206,193,175,260,185,267,108,40,60,231,140,247,0,,,
2,1791321053888,847,-689,10562,621860,428827,-119729,0,0,0,390,151,120,292,193,325,363,125,256,189,89,530,0,,,
1,1791321053904,-3345,-2402,29045,-7381695,-2579073,432492,0,0,0,204,194,179,261,184,271,152,60,102,224,134,247,0,,,
2,1791321053904,1115,-799,10811,723264,475253,-179594,0,0,0,392,154,121,306,218,329,337,121,239,195,64,541,0,,,
1,1791321053920,-2349,-6671,33069,-7571063,-2998126,91629,0,0,0,196,191,176,260,192,275,184,70,124,220,128,245,0,,,
2,1791321053920,1110,-856,11261,871093,469144,-254119,0,0,0,403,157,121,304,219,341,327,128,239,192,86,553,0,,,
1,1791321053936,674,-13984,35180,-7527081,-3674965,-463035,0,0,0,187,191,174,254,196,276,176,63,109,220,127,247,0,,,
2,1791321053936,904,-918,11548,1099557,364075,-284663,0,0,0,424,168,136,310,219,341,328,133,256,205,74,567,0,,,
1,1791321053952,4938,-22325,35060,-7093367,-3679852,-1076344,0,0,0,187,201,177,253,189,277,306,119,189,213,129,250,0,,,
2,1791321053952,851,-1043,11686,1339016,282219,-285884,0,0,0,425,165,134,313,220,362,306,120,245,197,73,567,0,,,
1,1791321053968,4268,-32653,28911,-5805663,-2492330,-1585806,0,0,0,192,212,177,272,199,288,299,116,184,218,132,255,0,,,
2,1791321053968,1081,-1153,12313,1604132,254119,-285884,0,0,0,452,180,134,287,202,343,292,112,239,234,80,575,0,,,
1,1791321053984,2407,-43761,20071,-4192978,-2199114,-1243721,0,0,0,194,216,181,270,198,287,299,121,188,224,136,258,0,,,
2,1791321053984,1249,-1239,12955,1915673,229685,-309097,0,0,0,449,203,132,277,198,335,299,127,246,208,98,607,0,,,
1,1791321054000,11600,-53634,13026,-2404365,-2807536,73303,0,0,0,185,213,173,256,198,279,270,146,207,224,137,258,0,,,
2,1791321054000,856,-1273,13405,2316400,199142,-311541,0,0,0,456,168,144,271,178,333,286,129,244,197,86,613,0,,,
1,1791321054016,25565,-54141,12222,-450818,-1271821,496022,0,0,0,173,189,180,259,194,289,269,146,179,282,197,249,0,,,
2,1791321054016,837,-1349,14166,2803871,169820,-266337,0,0,0,457,154,152,251,152,329,268,119,248,187,71,605,0,,,
1,1791321054032,21095,-40521,15817,1860695,1685988,-317649,0,0,0,164,162,107,256,150,256,359,251,175,315,278,206,0,,,
2,1791321054032,2053,-1536,15132,3363424,119729,-283441,0,0,0,440,187,146,243,144,324,250,116,252,176,74,578,0,,,
1,1791321054048,-923,3929,15979,4246735,3457497,-844215,0,0,0,177,165,102,267,146,269,396,302,191,334,338,216,0,,,
2,1791321054048,2914,-1603,15884,4101349,7330,-494800,0,0,0,422,182,148,242,143,324,247,118,250,166,67,542,0,,,
1,1791321054064,-9514,22756,11548,5825210,4436103,-755029,0,0,0,190,187,129,279,180,286,349,326,172,350,390,232,0,,,
2,1791321054064,3335,-1493,16980,4862487,-175929,-715934,0,0,0,388,158,145,240,146,321,187,88,221,146,60,488,0,,,
1,1791321054080,-1440,172,14639,6115982,3056769,-1461189,0,0,0,193,177,143,283,181,305,317,311,157,396,430,262,0,,,
2,1791321054080,5058,-1789,18396,5775119,-453262,-1007927,0,0,0,348,162,137,232,159,307,143,78,197,134,60,432,0,,,
1,1791321054096,6690,-9107,22172,6025574,1274264,-1827708,0,0,0,200,160,154,285,161,311,360,317,170,430,449,281,0,,,
2,1791321054096,5503,-3421,24063,6765943,-482583,-1362229,0,0,0,312,153,136,208,154,278,162,98,188,130,50,384,0,,,
1,1791321054112,6393,-3598,25216,5163032,638965,-671951,0,0,0,208,156,174,290,158,321,394,310,179,444,449,293,0,,,
2,1791321054112,4699,-5240,32471,7778757,-26878,-1547932,0,0,0,266,118,125,178,119,237,155,93,161,110,45,312,0,,,
1,1791321054128,-282,205,17846,3018896,860098,351858,0,0,0,226,177,202,301,189,339,402,301,189,450,440,312,0,,,
2,1791321054128,3914,-3278,37166,8648630,416610,-1663996,0,0,0,214,88,108,150,92,190,173,104,143,89,54,205,0,,,
1,1791321054144,-1684,-550,10303,792903,593761,24434,0,0,0,256,216,233,318,228,352,412,295,203,454,424,343,0,,,
2,1791321054144,6719,3484,35443,9447641,-215024,-1979203,0,0,0,132,67,85,128,63,145,187,104,112,80,58,87,0,,,
1,1791321054160,-315,-880,9040,40317,184481,-232128,0,0,0,283,248,273,333,245,372,400,247,204,458,395,381,0,,,
2,1791321054160,11849,12510,27379,9645562,-605978,-2456899,0,0,0,124,62,81,146,61,149,194,106,121,98,51,86,0,,,
1,1791321054176,-9,-315,10289,229685,48869,-95294,0,0,0,309,277,309,341,248,401,429,275,262,453,362,413,0,,,
2,1791321054176,13175,16496,12543,7701788,438601,-3087312,0,0,0,124,60,85,140,71,153,185,130,129,84,54,102,0,,,
1,1791321054192,-435,-52,10595,370184,69638,36651,0,0,0,326,297,311,342,259,402,444,277,281,429,337,432,0,,,
2,1791321054192,9308,16515,5738,3478266,1567480,-3235142,0,0,0,124,60,81,137,68,155,180,104,114,84,54,86,0,,,
1,1791321054208,-531,-186,10208,317649,6108,21991,0,0,0,358,298,301,358,259,405,447,249,277,412,285,440,0,,,
2,1791321054208,2555,14577,10404,-1325577,1037249,-2216219,0,0,0,131,60,99,131,63,166,175,94,139,91,51,108,0,,,
1,1791321054224,-416,-268,10131,301767,-109955,1221,0,0,0,371,309,282,369,265,412,451,229,293,388,246,460,0,,,
2,1791321054224,148,11208,12806,-4118453,-647517,-889419,0,0,0,127,60,91,132,61,153,178,102,117,88,50,96,0,,,
1,1791321054240,-397,-253,10227,337197,-210137,13439,0,0,0,390,306,273,374,271,410,431,179,265,371,214,461,0,,,
2,1791321054240,3216,7934,9380,-4453207,-1937664,-26878,0,0,0,130,63,92,130,65,150,177,105,115,86,59,96,0,,,
1,1791321054256,-478,-248,10279,368962,-283441,31764,0,0,0,405,306,268,384,278,419,405,149,253,359,192,455,0,,,
2,1791321054256,6101,6661,5441,-4355469,-1572367,246789,0,0,0,131,64,92,131,64,150,183,114,121,87,70,106,0,,,
1,1791321054272,-593,-315,10270,405614,-313984,47647,0,0,0,413,305,235,399,283,422,407,133,266,348,167,450,0,,,
2,1791321054272,5915,6637,5039,-4866152,-590095,379958,0,0,0,130,65,92,131,61,151,200,127,131,95,66,104,0,,,
1,1791321054288,-603,-416,10275,472809,-271224,57421,0,0,0,414,305,206,419,292,418,355,94,217,356,154,441,0,,,
2,1791321054288,4335,6312,6982,-5714033,57421,552222,0,0,0,133,65,93,131,63,153,195,121,128,94,56,99,0,,,
1,1791321054304,-612,-536,10452,548556,-204028,54977,0,0,0,416,307,185,425,295,411,368,89,219,338,145,443,0,,,
2,1791321054304,3828,4967,8681,-6287025,224798,729373,0,0,0,131,61,93,128,62,153,183,108,122,87,44,90,0,,,
1,1791321054320,-631,-603,10720,634078,-246789,42760,0,0,0,418,311,173,424,295,415,398,98,240,312,137,453,0,,,
2,1791321054320,4106,3771,9882,-6550918,383623,851546,0,0,0,127,60,95,129,63,153,184,109,125,86,44,88,0,,,
1,1791321054336,-693,-646,10614,692721,-372627,37873,0,0,0,419,314,172,418,297,421,376,96,234,303,135,456,0,,,
2,1791321054336,4642,3220,11433,-6724404,733038,940732,0,0,0,131,66,99,135,67,157,185,109,125,84,52,91,0,,,
1,1791321054352,-832,-727,10380,706160,-386066,50090,0,0,0,419,316,175,413,294,413,350,102,232,305,146,451,0,,,
2,1791321054352,5154,2636,13787,-6960198,1219287,1042136,0,0,0,130,63,98,132,62,157,181,102,116,82,50,90,0,,,
1,1791321054368,-909,-866,10193,696386,-260228,78190,0,0,0,422,318,174,412,294,405,352,115,244,311,157,451,0,,,
2,1791321054368,5369,1689,16252,-7081149,1649336,1115439,0,0,0,120,56,94,127,59,155,184,106,119,91,49,99,0,,,
1,1791321054384,-890,-1000,10102,689055,-160046,105068,0,0,0,426,321,180,398,308,414,346,108,251,311,155,453,0,,,
2,1791321054384,5139,665,18884,-7045719,1970651,1160643,0,0,0,120,67,98,127,65,157,182,109,122,85,52,97,0,,,
1,1791321054400,-961,-1110,10174,696386,-140499,133168,0,0,0,429,321,172,393,300,410,349,107,251,303,153,463,0,,,
2,1791321054400,4584,-4,22139,-7049384,2163684,1249830,0,0,0,123,61,98,131,63,159,176,111,122,73,37,99,0,,,
1,1791321054416,-1086,-1215,10313,731816,-142942,177150,0,0,0,429,321,187,408,296,425,327,107,235,304,143,464,0,,,
2,1791321054416,3771,-1416,26001,-7224092,2201558,1480737,0,0,0,114,65,99,129,60,164,191,115,138,97,64,104,0,,,
1,1791321054432,-1134,-1335,10390,807563,-151494,238237,0,0,0,430,337,183,421,309,420,354,110,259,314,148,472,0,,,
2,1791321054432,3043,-4599,29609,-7420790,2257757,1804495,0,0,0,120,68,106,129,60,162,188,105,131,84,29,93,0,,,
1,1791321054448,-938,-1459,10356,900415,-166155,288328,0,0,0,446,335,190,421,317,431,363,120,271,314,146,473,0,,,
2,1791321054448,2038,-9691,32361,-7474547,2470339,2031737,0,0,0,122,68,102,132,68,159,180,97,125,92,61,110,0,,,
1,1791321054464,-684,-1588,10260,989601,-193033,301767,0,0,0,452,330,196,428,314,446,358,116,279,322,146,485,0,,,
2,1791321054464,-866,-16539,34366,-7268074,2477669,1914451,0,0,0,121,62,98,133,66,164,183,102,121,94,62,114,0,,,
1,1791321054480,-741,-1708,10595,1081231,-210137,279776,0,0,0,459,332,200,427,313,453,347,109,274,324,143,499,0,,,
2,1791321054480,-3067,-23795,33859,-6785491,1739744,1705535,0,0,0,118,61,95,138,63,169,193,102,130,96,37,107,0,,,
1,1791321054496,-1201,-1775,11634,1230282,-183259,279776,0,0,0,470,331,198,421,320,457,302,92,239,324,145,503,0,,,
2,1791321054496,-985,-35247,27317,-5773898,582765,1470963,0,0,0,153,88,112,166,87,180,213,121,145,98,45,116,0,,,
1,1791321054512,-1474,-1837,12869,1528384,-102625,333532,0,0,0,474,332,205,421,317,457,284,87,228,324,149,503,0,,,
2,1791321054512,86,-51437,16774,-4105014,900415,312763,0,0,0,135,75,108,150,74,176,206,114,142,93,60,123,0,,,
1,1791321054528,-866,-1880,13496,1958433,-34208,356745,0,0,0,474,325,205,428,310,441,297,94,244,332,149,505,0,,,
2,1791321054528,-11964,-60262,11825,-1919338,1743409,-1273043,0,0,0,115,64,88,148,71,168,234,145,140,122,102,109,0,,,
1,1791321054544,-416,-1923,14161,2461786,-41538,307876,0,0,0,471,324,204,433,306,421,280,90,232,346,152,503,0,,,
2,1791321054544,-24709,-54371,14486,195476,737925,-1591914,0,0,0,108,58,74,148,73,168,299,207,154,182,163,123,0,,,
1,1791321054560,-1091,-1947,15295,3094643,-124616,256563,0,0,0,462,333,201,433,309,413,245,79,209,352,161,494,0,,,
2,1791321054560,-12505,-22981,18104,3319441,-2426356,-601091,0,0,0,118,63,78,145,75,178,330,274,162,219,223,153,0,,,
1,1791321054576,-2038,-1837,16645,3910759,-193033,376292,0,0,0,444,331,182,432,317,413,258,89,232,342,159,480,0,,,
2,1791321054576,6125,8604,13381,6250373,-4345695,-113620,0,0,0,133,77,88,151,84,194,341,347,172,220,290,171,0,,,
1,1791321054592,-3010,-1622,18396,4899139,-149051,591317,0,0,0,422,332,183,432,322,421,272,104,242,318,143,459,0,,,
2,1791321054592,5637,3115,15175,6908885,-3198490,541226,0,0,0,140,78,89,159,84,206,372,400,190,238,350,193,0,,,
1,1791321054608,-3938,-1876,21622,6090326,102625,912632,0,0,0,393,329,165,403,314,410,262,108,245,277,132,444,0,,,
2,1791321054608,-3287,-5742,24058,6414085,-1569923,1204626,0,0,0,151,69,92,166,74,205,401,394,185,292,371,220,0,,,
1,1791321054624,-3852,-3393,26881,7281513,511905,1126435,0,0,0,368,313,166,355,298,388,253,108,222,246,135,423,0,,,
2,1791321054624,-4982,-4532,24441,4649906,-1210734,621860,0,0,0,167,79,103,170,78,207,426,399,185,287,394,226,0,,,
1,1791321054640,-3670,-5537,32577,8269893,678060,1136209,0,0,0,312,283,170,297,267,338,79,39,120,219,131,406,0,,,
2,1791321054640,-808,-1206,15893,2235766,-1051909,15882,0,0,0,200,87,122,178,77,219,435,411,190,290,390,267,0,,,
1,1791321054656,-3694,-3823,34788,8945510,656069,1215621,0,0,0,259,234,173,268,218,300,238,96,166,209,123,341,0,,,
2,1791321054656,1593,-95,8537,362853,-582765,-10995,0,0,0,240,114,170,197,94,234,461,424,207,312,373,315,0,,,
1,1791321054672,-7207,1282,34055,9368229,1282817,1445307,0,0,0,216,204,181,245,194,280,308,141,195,215,145,274,0,,,
2,1791321054672,425,-416,9126,81855,-235793,81855,0,0,0,268,135,186,209,111,237,468,403,207,311,350,320,0,,,
1,1791321054688,-13151,9839,26585,8742703,1189965,1870469,0,0,0,208,194,182,248,187,273,297,126,184,215,138,252,0,,,
2,1791321054688,-181,-330,10500,204028,-120951,57421,0,0,0,282,122,199,230,113,256,473,382,205,330,297,349,0,,,
1,1791321054704,-13883,16448,15673,6615670,85521,2419026,0,0,0,212,193,175,252,184,264,302,122,180,210,131,245,0,,,
2,1791321054704,172,-86,10380,255341,-135612,6108,0,0,0,314,143,205,265,141,264,483,314,215,333,263,365,0,,,
1,1791321054720,-7949,17827,9442,2301740,-893084,2410474,0,0,0,214,194,166,248,181,255,283,118,165,210,134,240,0,,,
2,1791321054720,378,-19,9992,204028,-98960,-3665,0,0,0,304,143,202,246,138,265,461,291,213,302,241,368,0,,,
1,1791321054736,-3354,14022,10744,-1703092,-327423,1264491,0,0,0,214,193,156,244,179,249,273,114,155,213,137,236,0,,,
2,1791321054736,291,-81,9978,177150,-23212,0,0,0,0,306,135,204,239,132,265,449,268,208,284,208,376,0,,,
1,1791321054752,-3086,9949,9968,-3466049,431270,161268,0,0,0,213,191,151,241,178,245,307,129,172,214,136,234,0,,,
2,1791321054752,215,-119,10112,202807,32986,-4886,0,0,0,316,138,206,242,133,271,436,245,211,256,171,382,0,,,
1,1791321054768,-4312,7800,6513,-3571118,519235,-381179,0,0,0,214,191,151,241,178,247,310,132,176,214,135,235,0,,,
2,1791321054768,287,-129,10107,238237,54977,-21991,0,0,0,319,136,202,250,145,284,418,217,219,232,138,391,0,,,
1,1791321054784,-3737,7341,4685,-3858224,172263,-548556,0,0,0,221,189,156,255,179,252,293,119,165,217,138,236,0,,,
2,1791321054784,402,-167,10026,261450,39095,-39095,0,0,0,321,125,194,257,150,292,412,181,233,220,114,406,0,,,
1,1791321054800,-2230,6996,5853,-4743979,-26878,-623082,0,0,0,214,190,147,245,179,243,272,110,146,217,137,233,0,,,
2,1791321054800,406,-220,10031,268780,18325,-51312,0,0,0,325,125,183,268,153,300,402,148,238,209,99,423,0,,,
1,1791321054816,-1756,6049,7590,-5622403,-35430,-659734,0,0,0,222,195,147,258,183,250,292,124,164,217,140,234,0,,,
2,1791321054816,358,-272,10102,283441,17104,-62308,0,0,0,330,138,167,279,161,308,390,128,238,196,92,440,0,,,
1,1791321054832,-2455,4953,8667,-6096435,-136833,-568104,0,0,0,219,193,144,256,184,246,312,135,168,219,142,230,0,,,
2,1791321054832,287,-306,10189,317649,52534,-59864,0,0,0,335,142,145,281,163,308,386,118,241,190,82,450,0,,,
1,1791321054848,-2627,4044,9853,-6381098,-527787,-397062,0,0,0,205,192,161,237,176,253,306,128,176,214,139,238,0,,,
2,1791321054848,320,-358,10217,368962,166155,-42760,0,0,0,340,132,128,280,164,306,365,115,235,188,79,457,0,,,
1,1791321054864,-2115,3053,11653,-6666983,-899193,-243124,0,0,0,202,192,166,235,178,257,315,132,185,213,139,238,0,,,
2,1791321054864,483,-421,10165,412944,298102,-37873,0,0,0,349,124,124,273,159,311,358,111,243,180,84,470,0,,,
1,1791321054880,-2153,2215,13926,-6894225,-1150870,-96516,0,0,0,199,192,167,235,178,260,316,132,187,213,139,240,0,,,
2,1791321054880,674,-488,10098,420275,334754,-59864,0,0,0,358,124,119,286,168,323,340,107,230,175,68,476,0,,,
1,1791321054896,-2756,1679,16166,-7070154,-1450194,85521,0,0,0,199,191,168,237,179,262,305,127,182,214,138,242,0,,,
2,1791321054896,837,-564,10155,422718,315206,-101403,0,0,0,384,139,123,274,179,321,342,117,246,163,64,495,0,,,
1,1791321054912,-3058,1129,18693,-7217983,-1854586,311541,0,0,0,198,191,170,239,179,262,290,120,174,215,137,243,0,,,
2,1791321054912,966,-626,10346,445931,283441,-152716,0,0,0,401,140,129,288,187,325,339,105,241,175,64,509,0,,,
1,1791321054928,-2613,315,21933,-7296174,-2218662,463035,0,0,0,196,191,170,239,179,263,285,118,172,213,136,243,0,,,
2,1791321054928,871,-660,10600,530231,233350,-210137,0,0,0,418,146,123,291,193,324,346,121,239,191,86,543,0,,,
1,1791321054944,-1885,-808,25972,-7346265,-2510656,465479,0,0,0,191,189,170,239,179,266,291,119,177,212,134,243,0,,,
2,1791321054944,713,-713,10686,647517,140499,-227241,0,0,0,414,161,130,278,196,325,320,117,242,178,88,548,0,,,
1,1791321054960,-737,-3230,30447,-7458664,-2834414,197920,0,0,0,189,189,171,243,180,268,298,121,183,212,132,244,0,,,
2,1791321054960,856,-842,10725,769690,79412,-229685,0,0,0,419,171,133,275,211,332,313,120,248,190,92,569,0,,,
1,1791321054976,1574,-8657,34161,-7629706,-3365867,-274889,0,0,0,193,191,176,252,183,274,305,124,189,211,131,244,0,,,
2,1791321054976,942,-971,10868,904080,69638,-252898,0,0,0,422,171,130,283,217,337,317,119,243,190,84,572,0,,,
1,1791321054992,5250,-16286,36219,-7655363,-3512475,-740368,0,0,0,183,188,178,243,180,277,309,125,192,210,134,248,0,,,
2,1791321054992,751,-1067,10954,1059240,76969,-273667,0,0,0,433,179,134,286,220,345,316,124,242,192,87,582,0,,,
1,1791321055008,5111,-27025,33199,-6961420,-2188119,-1180191,0,0,0,191,197,187,259,182,290,280,113,181,209,137,253,0,,,
2,1791321055008,737,-1153,11395,1231504,65973,-255341,0,0,0,452,183,144,282,210,345,289,102,230,196,79,594,0,,,
1,1791321055024,-1536,-38305,25283,-5593082,-1264491,-1047023,0,0,0,177,198,180,246,183,289,302,125,196,214,141,261,0,,,
2,1791321055024,1052,-1244,12423,1473406,57421,-256563,0,0,0,463,181,147,281,196,338,278,102,226,197,69,600,0,,,
1,1791321055040,-1368,-48647,16601,-3772703,-2360383,130725,0,0,0,189,206,185,262,192,293,234,91,148,221,145,262,0,,,
2,1791321055040,856,-1229,13251,1827708,48869,-276111,0,0,0,466,184,145,270,185,331,280,143,233,200,89,611,0,,,
1,1791321055056,20129,-53361,13156,-1690874,-3086091,1138652,0,0,0,187,186,186,264,185,307,305,130,183,262,183,251,0,,,
2,1791321055056,430,-1244,13845,2293188,53756,-249233,0,0,0,467,176,151,252,166,325,265,155,233,199,97,613,0,,,
1,1791321055072,30988,-49671,15013,375071,-603534,282219,0,0,0,160,173,117,247,171,262,320,235,165,282,280,208,0,,,
2,1791321055072,698,-1316,14601,2791654,85521,-184481,0,0,0,471,162,156,250,147,325,259,124,247,190,72,596,0,,,
1,1791321055088,9576,-17075,18382,3616322,2816088,-748920,0,0,0,169,169,100,258,160,265,362,285,182,324,323,216,0,,,
2,1791321055088,1847,-1445,15654,3459940,57421,-233350,0,0,0,468,169,155,260,144,321,241,117,252,185,87,583,0,,,
1,1791321055104,-5719,10404,15783,6230825,4696331,-465479,0,0,0,181,182,105,266,164,279,382,324,194,340,373,236,0,,,
2,1791321055104,2828,-1531,16635,4202752,-96516,-393397,0,0,0,422,185,161,279,164,319,219,116,228,177,68,551,0,,,
1,1791321055120,-4704,4972,14582,6604674,4017049,-260228,0,0,0,190,187,130,272,172,296,363,319,188,364,407,259,0,,,
2,1791321055120,4245,-1703,17219,4968777,-387288,-658512,0,0,0,398,164,161,237,155,324,181,107,216,150,54,500,0,,,
1,1791321055136,2857,-5288,20119,5826432,1314581,-1004262,0,0,0,202,175,156,283,166,307,358,281,168,407,417,279,0,,,
2,1791321055136,5364,-2163,18970,5858197,-712268,-1075122,0,0,0,346,151,143,236,159,319,159,100,184,145,83,442,0,,,
1,1791321055152,4962,-4398,23905,5177693,36651,-704938,0,0,0,214,161,174,291,156,313,391,279,169,434,427,293,0,,,
2,1791321055152,5934,-3766,24905,6868568,-907745,-1499063,0,0,0,315,141,126,205,135,274,159,86,168,153,76,394,0,,,
1,1791321055168,-43,-1024,17922,3404962,430049,175929,0,0,0,226,165,198,293,160,328,417,304,199,440,429,313,0,,,
2,1791321055168,5451,-4824,32385,7704232,-643851,-1712866,0,0,0,269,153,123,163,120,227,161,100,151,130,79,312,0,,,
1,1791321055184,-2273,-579,10983,1264491,607200,163711,0,0,0,250,190,218,299,178,348,409,279,194,441,411,339,0,,,
2,1791321055184,5321,-2546,36247,8510574,-576656,-1921782,0,0,0,192,90,102,137,78,182,165,94,135,98,65,190,0,,,
1,1791321055200,-1005,-923,9112,175929,334754,-150272,0,0,0,283,209,241,319,205,363,419,294,212,441,403,365,0,,,
2,1791321055200,7987,4187,33783,9209404,-1171639,-2204001,0,0,0,137,66,93,132,66,166,174,111,128,84,53,114,0,,,
1,1791321055216,-244,-564,10083,94073,84299,-119729,0,0,0,292,228,260,319,213,371,419,287,216,459,396,383,0,,,
2,1791321055216,12888,13117,23483,8972388,-1249830,-2614503,0,0,0,73,30,79,122,57,159,178,120,131,82,45,104,0,,,
1,1791321055232,-603,-167,10519,232128,30543,14660,0,0,0,305,248,260,340,225,373,422,287,222,438,380,393,0,,,
2,1791321055232,14922,18004,9485,6916216,-90408,-3071430,0,0,0,104,48,84,139,67,154,173,115,121,91,59,109,0,,,
1,1791321055248,-861,-143,10193,222354,41538,37873,0,0,0,324,264,290,342,230,373,414,247,220,430,340,403,0,,,
2,1791321055248,10844,18233,5561,2707354,1503950,-2955366,0,0,0,138,71,91,139,75,153,170,117,117,90,64,107,0,,,
1,1791321055264,-775,-201,10054,184481,-2443,17104,0,0,0,321,267,307,337,235,393,420,244,254,425,312,426,0,,,
2,1791321055264,3196,15415,11227,-2217440,1392772,-1703092,0,0,0,132,66,90,129,73,156,180,124,126,81,53,101,0,,,
1,1791321055280,-703,-201,10169,221133,-87964,24434,0,0,0,326,276,297,338,238,389,426,233,255,414,301,439,0,,,
2,1791321055280,1263,10471,12787,-4528954,-430049,-199142,0,0,0,130,63,90,128,68,157,186,126,129,75,49,96,0,,,
1,1791321055296,-717,-205,10203,272445,-153938,41538,0,0,0,338,292,295,345,248,396,413,191,238,393,264,445,0,,,
2,1791321055296,5183,7638,7523,-4166100,-1314581,492357,0,0,0,127,63,90,125,66,157,179,122,125,74,51,97,0,,,
1,1791321055312,-760,-239,10155,306654,-199142,45204,0,0,0,357,304,291,354,261,401,392,148,227,373,234,445,0,,,
2,1791321055312,6934,7111,4513,-4201531,-729373,810007,0,0,0,128,65,93,130,75,160,179,120,125,86,55,100,0,,,
1,1791321055328,-823,-287,10136,321315,-227241,41538,0,0,0,372,308,283,366,265,404,395,138,237,352,210,448,0,,,
2,1791321055328,5369,7207,5943,-4977329,404392,1023810,0,0,0,126,67,94,129,73,159,182,118,132,100,64,107,0,,,
1,1791321055344,-918,-363,10117,337197,-212581,54977,0,0,0,390,306,267,384,260,412,403,134,250,347,188,446,0,,,
2,1791321055344,3479,6082,8542,-5723807,871093,1277930,0,0,0,127,64,93,134,72,161,180,118,126,92,54,104,0,,,
1,1791321055360,-942,-454,10050,360410,-162490,75747,0,0,0,409,308,251,394,264,420,397,113,247,345,167,442,0,,,
2,1791321055360,2857,4661,10064,-6087882,911410,1467298,0,0,0,125,67,90,131,72,161,169,114,114,80,55,97,0,,,
1,1791321055376,-890,-531,10026,344527,-87964,83077,0,0,0,416,314,243,393,273,424,363,86,213,332,150,445,0,,,
2,1791321055376,3129,3986,10945,-6208834,952949,1494176,0,0,0,126,73,91,131,72,159,181,126,130,86,66,99,0,,,
1,1791321055392,-875,-564,10112,320093,-40317,81855,0,0,0,416,309,226,401,273,425,310,68,172,330,144,451,0,,,
2,1791321055392,3436,3397,12581,-6425080,1147204,1447750,0,0,0,120,70,92,131,69,160,182,125,137,93,68,112,0,,,
1,1791321055408,-856,-603,10337,339641,-25656,84299,0,0,0,420,307,199,414,283,426,359,89,222,328,140,448,0,,,
2,1791321055408,3737,2742,14840,-6655987,1464854,1303586,0,0,0,132,75,94,135,73,159,177,118,123,86,61,105,0,,,
1,1791321055424,-804,-650,10552,414166,-30543,86742,0,0,0,421,316,194,415,285,427,368,95,230,321,143,451,0,,,
2,1791321055424,3752,1990,17377,-6828251,1826487,1111774,0,0,0,122,71,97,136,71,164,182,125,132,79,56,108,0,,,
1,1791321055440,-818,-722,10567,521678,-42760,91629,0,0,0,421,316,188,429,285,426,401,109,255,330,135,453,0,,,
2,1791321055440,3421,1354,20277,-7005402,2107485,1001818,0,0,0,119,60,92,145,70,166,199,128,137,85,50,106,0,,,
1,1791321055456,-871,-799,10500,605978,-57421,103847,0,0,0,426,314,204,401,291,441,383,99,260,318,149,462,0,,,
2,1791321055456,3000,636,23723,-7177666,2239431,1088561,0,0,0,119,63,93,146,74,169,218,132,141,95,59,112,0,,,
1,1791321055472,-928,-890,10490,685390,-89186,125838,0,0,0,429,318,189,393,285,429,317,82,227,307,138,466,0,,,
2,1791321055472,2297,-880,27307,-7347487,2344500,1329242,0,0,0,117,67,98,139,71,169,207,130,140,97,64,118,0,,,
1,1791321055488,-971,-985,10600,764803,-133168,153938,0,0,0,438,321,177,401,287,434,324,83,232,313,142,472,0,,,
2,1791321055488,1167,-4221,30916,-7474547,2414139,1716531,0,0,0,117,66,97,133,67,168,192,117,133,87,51,116,0,,,
1,1791321055504,-938,-1081,10672,868650,-178372,186924,0,0,0,442,324,191,412,284,442,329,82,239,325,145,478,0,,,
2,1791321055504,105,-9552,33629,-7441560,2299296,1923003,0,0,0,120,70,97,133,64,169,191,109,134,82,47,112,0,,,
1,1791321055520,-770,-1210,10576,976162,-215024,205250,0,0,0,446,332,192,421,292,446,321,82,235,331,146,479,0,,,
2,1791321055520,33,-16592,34721,-7213096,1762957,1844813,0,0,0,122,72,97,138,62,173,198,113,140,99,59,114,0,,,
1,1791321055536,-756,-1340,10715,1067792,-216246,188146,0,0,0,448,335,184,424,301,445,323,87,240,328,146,482,0,,,
2,1791321055536,2646,-25594,31433,-6602231,1006705,1546710,0,0,0,119,66,95,143,64,177,202,115,142,114,64,122,0,,,
1,1791321055552,-1052,-1430,11591,1219287,-179594,178372,0,0,0,453,333,180,422,303,451,326,93,247,322,145,494,0,,,
2,1791321055552,5479,-41225,21272,-5144707,1328021,641408,0,0,0,117,71,97,146,73,183,198,118,142,98,67,127,0,,,
1,1791321055568,-1239,-1512,12720,1513724,-124616,207694,0,0,0,466,335,179,422,302,456,316,94,242,323,144,507,0,,,
2,1791321055568,-3522,-54256,14625,-3304780,2689028,-761138,0,0,0,117,90,99,142,95,180,207,167,138,112,115,128,0,,,
1,1791321055584,-952,-1545,13811,1982868,-94073,232128,0,0,0,471,330,189,420,298,429,289,88,231,334,150,503,0,,,
2,1791321055584,-22225,-56233,16180,-1005484,2124589,-1222952,0,0,0,107,63,78,136,59,159,276,165,140,191,208,118,0,,,
1,1791321055600,-1072,-1550,14936,2590068,-105068,206472,0,0,0,462,326,193,406,294,422,237,71,200,330,170,491,0,,,
2,1791321055600,-22780,-45197,21014,2097711,-1156978,-565661,0,0,0,108,77,76,141,66,169,315,244,158,208,222,136,0,,,
1,1791321055616,-1847,-1488,16185,3263242,-97738,250454,0,0,0,452,344,201,396,296,420,223,77,206,333,164,489,0,,,
2,1791321055616,-2948,-12591,18588,6019466,-5330410,-119729,0,0,0,133,83,82,170,85,196,335,384,162,249,310,167,0,,,
1,1791321055632,-2756,-1301,17697,4113566,-3665,410501,0,0,0,453,352,175,394,304,400,239,83,216,324,153,478,0,,,
2,1791321055632,5293,2756,17243,7002959,-6008470,9773,0,0,0,130,77,82,166,91,212,347,407,174,236,342,181,0,,,
1,1791321055648,-4058,-1119,19344,5130046,254119,715934,0,0,0,421,349,167,386,320,409,261,106,250,293,150,462,0,,,
2,1791321055648,478,-143,21588,6181956,-3638313,933402,0,0,0,144,62,81,167,74,209,405,405,185,261,334,193,0,,,
1,1791321055664,-4929,-1162,22043,6189286,674395,1060462,0,0,0,393,339,174,376,309,391,254,107,230,276,147,440,0,,,
2,1791321055664,-7039,-4541,25412,4897917,-1121548,1308473,0,0,0,155,65,99,155,52,194,407,363,182,274,332,208,0,,,
1,1791321055680,-5403,-2627,27432,7481877,1479515,1413542,0,0,0,353,307,174,330,291,368,250,103,208,238,140,418,0,,,
2,1791321055680,-3450,-2167,18411,3059213,-637743,320093,0,0,0,172,63,108,169,55,206,432,328,194,296,334,227,0,,,
1,1791321055696,-5393,-4498,32557,8412836,1905899,1560149,0,0,0,311,278,175,292,261,329,263,106,188,216,131,403,0,,,
2,1791321055696,1387,162,10662,1301142,-663399,-122173,0,0,0,197,78,141,193,65,226,453,334,206,321,333,247,0,,,
1,1791321055712,-5015,-2584,34491,9098226,2155132,1701870,0,0,0,241,230,182,254,214,294,289,114,193,208,126,323,0,,,
2,1791321055712,1005,-67,9250,377514,-464257,76969,0,0,0,219,90,166,212,71,268,454,337,211,336,340,275,0,,,
1,1791321055728,-9710,2790,31260,9299812,2864957,1830152,0,0,0,218,204,195,235,183,273,292,113,187,210,129,263,0,,,
2,1791321055728,-306,-335,10217,119729,-211359,133168,0,0,0,241,108,181,221,86,265,442,319,199,329,321,285,0,,,
1,1791321055744,-15534,10145,23019,8665734,2383596,2025629,0,0,0,230,199,193,242,177,266,286,112,175,214,133,256,0,,,
2,1791321055744,-258,-33,10528,178372,-129503,35430,0,0,0,254,118,192,227,98,251,447,308,206,325,307,302,0,,,
1,1791321055760,-14218,15558,12366,6243042,399505,2175901,0,0,0,220,192,171,248,178,263,287,114,175,214,132,253,0,,,
2,1791321055760,296,201,10064,197920,-142942,-6108,0,0,0,259,120,197,236,105,259,463,290,226,331,301,328,0,,,
1,1791321055776,-6360,15611,9786,1396437,-734260,1550375,0,0,0,214,188,165,240,175,253,269,103,158,218,133,245,0,,,
2,1791321055776,339,196,9954,182037,-117286,3665,0,0,0,265,125,203,242,117,265,460,256,222,325,267,339,0,,,
1,1791321055792,-2852,11596,11423,-2217440,-219911,346971,0,0,0,222,189,170,248,178,257,258,99,153,218,134,245,0,,,
2,1791321055792,205,138,10107,194255,-43982,2443,0,0,0,272,123,216,236,123,268,449,242,222,310,236,352,0,,,
1,1791321055808,-5092,8006,9279,-2745228,140499,-515570,0,0,0,221,189,171,236,175,255,277,108,166,217,133,247,0,,,
2,1791321055808,196,100,10136,219911,3665,-10995,0,0,0,300,132,224,248,137,282,442,182,227,289,221,367,0,,,
1,1791321055824,-5522,7226,6140,-2686585,-361632,-819781,0,0,0,227,191,177,247,176,262,282,107,170,217,133,248,0,,,
2,1791321055824,277,76,10050,237015,12217,-25656,0,0,0,314,129,215,247,133,272,453,184,234,278,175,387,0,,,
1,1791321055840,-2794,7939,5111,-3254689,-972497,-864985,0,0,0,231,191,176,254,178,265,280,106,170,218,133,247,0,,,
2,1791321055840,330,38,10002,241902,0,-37873,0,0,0,320,134,219,255,143,282,428,155,223,226,108,401,0,,,
1,1791321055856,-516,7480,6987,-4513072,-634078,-1005484,0,0,0,232,191,168,253,177,258,284,109,169,218,130,240,0,,,
2,1791321055856,320,0,10040,243124,-7330,-54977,0,0,0,329,137,213,269,145,310,407,148,237,220,116,424,0,,,
1,1791321055872,-918,6255,8298,-5346292,-161268,-1086118,0,0,0,226,189,161,248,176,252,269,106,154,221,136,238,0,,,
2,1791321055872,291,-9,10112,254119,-3665,-68416,0,0,0,337,149,203,261,149,293,400,133,233,190,85,431,0,,,
1,1791321055888,-2124,4967,8973,-5783672,-278554,-957836,0,0,0,228,193,165,254,178,255,294,118,168,219,135,237,0,,,
2,1791321055888,253,-28,10189,304210,17104,-65973,0,0,0,341,132,186,275,160,309,379,118,235,191,94,452,0,,,
1,1791321055904,-2014,4053,10131,-6133086,-713490,-751364,0,0,0,221,190,164,244,177,256,310,124,180,218,133,238,0,,,
2,1791321055904,253,-81,10232,373849,70860,-51312,0,0,0,354,145,174,279,171,315,368,108,236,182,79,454,0,,,
1,1791321055920,-947,3393,11959,-6460510,-989601,-586430,0,0,0,220,188,167,248,178,261,300,118,177,219,133,240,0,,,
2,1791321055920,354,-157,10299,442266,155159,-45204,0,0,0,371,145,153,281,173,319,351,98,231,174,70,463,0,,,
1,1791321055936,-1067,2569,13988,-6762278,-988379,-486248,0,0,0,222,188,171,255,179,265,298,117,177,220,135,243,0,,,
2,1791321055936,512,-224,10423,500909,238237,-59864,0,0,0,383,146,138,283,176,320,340,108,235,176,86,478,0,,,
1,1791321055952,-2139,1914,15821,-6991963,-1172861,-350636,0,0,0,214,189,170,247,178,265,292,115,175,222,137,247,0,,,
2,1791321055952,650,-291,10547,542448,294437,-101403,0,0,0,376,139,131,286,188,326,329,109,232,187,72,502,0,,,
1,1791321055968,-2589,1201,18090,-7163005,-1562593,-157603,0,0,0,210,188,172,248,178,269,281,110,171,222,137,249,0,,,
2,1791321055968,717,-373,10748,619417,298102,-151494,0,0,0,382,150,126,288,200,329,319,116,227,195,77,521,0,,,
1,1791321055984,-2507,440,20937,-7279070,-1898569,12217,0,0,0,213,188,176,256,179,274,289,115,178,220,137,249,0,,,
2,1791321055984,756,-459,10863,731816,233350,-189368,0,0,0,393,159,124,284,202,328,317,119,227,196,86,537,0,,,
1,1791321056000,-2234,-454,24565,-7376808,-2136806,105068,0,0,0,208,191,177,255,179,272,293,116,181,219,137,248,0,,,
2,1791321056000,765,-588,10739,856433,140499,-217468,0,0,0,402,153,132,283,205,332,321,119,235,190,76,544,0,,,
1,1791321056016,-1641,-2804,28365,-7545407,-2420248,13439,0,0,0,200,191,178,255,180,276,272,103,168,218,133,249,0,,,
2,1791321056016,885,-737,10691,961501,79412,-246789,0,0,0,414,157,139,282,213,337,315,119,240,184,86,543,0,,,
1,1791321056032,-177,-7542,31696,-7683462,-2873510,-193033,0,0,0,194,191,178,254,180,276,201,70,119,215,132,247,0,,,
2,1791321056032,961,-861,10921,1077566,48869,-293215,0,0,0,425,169,133,278,215,334,300,111,231,191,101,559,0,,,
1,1791321056048,2818,-14410,33457,-7593054,-3181386,-439822,0,0,0,189,191,173,245,179,275,279,105,172,231,137,253,0,,,
2,1791321056048,823,-1005,10954,1233947,17104,-334754,0,0,0,445,181,128,287,219,335,293,118,223,205,91,579,0,,,
1,1791321056064,4943,-22909,32184,-6923546,-2528982,-869872,0,0,0,196,196,179,257,183,279,287,107,177,219,133,251,0,,,
2,1791321056064,564,-1119,11012,1387885,10995,-349414,0,0,0,465,183,138,311,212,329,291,124,224,199,84,590,0,,,
1,1791321056080,1799,-31519,27178,-5685933,-1560149,-1258382,0,0,0,197,198,184,261,187,287,316,123,204,218,135,258,0,,,
2,1791321056080,579,-1196,11787,1573588,8552,-327423,0,0,0,467,174,141,430,213,329,288,134,222,205,93,589,0,,,
1,1791321056096,-148,-41397,19066,-3914424,-1960877,-740368,0,0,0,195,203,179,261,190,285,160,55,99,217,135,260,0,,,
2,1791321056096,717,-1282,12816,1849699,-35430,-306654,0,0,0,468,184,145,280,199,339,273,122,237,199,89,594,0,,,
1,1791321056112,9284,-48255,13859,-2271196,-2717128,162490,0,0,0,195,189,181,259,180,284,212,79,133,252,159,262,0,,,
2,1791321056112,531,-1330,13682,2246762,-100181,-287106,0,0,0,477,187,161,249,183,335,265,113,245,171,79,595,0,,,
1,1791321056128,21210,-48231,12835,-497244,-1535715,140499,0,0,0,171,177,136,248,172,272,257,151,145,279,245,228,0,,,
2,1791321056128,531,-1354,14529,2756223,-118507,-237015,0,0,0,483,178,153,247,156,330,251,119,250,192,69,603,0,,,
1,1791321056144,17176,-36601,15568,2024407,1036027,-485026,0,0,0,165,168,101,250,162,267,303,226,152,310,326,215,0,,,
2,1791321056144,1196,-1454,15391,3365867,-158824,-234572,0,0,0,454,170,152,245,150,327,239,112,240,179,63,566,0,,,
1,1791321056160,449,-5403,14204,5637064,3634648,-485026,0,0,0,182,172,104,260,160,279,375,317,192,333,379,237,0,,,
2,1791321056160,1971,-1555,16276,4024380,-283441,-331088,0,0,0,436,171,158,246,157,337,205,106,221,179,74,532,0,,,
1,1791321056176,-4321,4484,14591,6891781,3705508,-246789,0,0,0,192,181,130,266,167,299,391,375,205,362,424,262,0,,,
2,1791321056176,3685,-1765,17276,4915021,-571769,-582765,0,0,0,396,168,151,239,160,339,166,92,193,160,80,491,0,,,
1,1791321056192,-631,-2220,19387,6329785,1844813,-822224,0,0,0,203,169,167,279,162,319,366,335,177,433,449,289,0,,,
2,1791321056192,5187,-2220,18578,5765346,-873537,-951728,0,0,0,359,161,145,231,160,325,153,87,188,149,75,452,0,,,
1,1791321056208,4441,-5766,26958,5112942,513126,-1025031,0,0,0,218,172,171,286,156,311,374,285,160,453,442,296,0,,,
2,1791321056208,5819,-3809,23627,6641326,-1021366,-1352455,0,0,0,333,159,143,214,152,286,158,86,173,138,71,397,0,,,
1,1791321056224,2029,-2479,21938,2924822,654847,-150272,0,0,0,222,158,195,276,142,310,412,304,191,455,423,304,0,,,
2,1791321056224,5120,-5489,31648,7524638,-878424,-1672549,0,0,0,290,137,134,179,129,241,163,94,154,121,74,319,0,,,
1,1791321056240,-1225,181,11931,1193630,689055,100181,0,0,0,234,178,213,276,161,327,425,338,220,456,414,312,0,,,
2,1791321056240,4130,-3967,37271,8344419,-862541,-1872912,0,0,0,211,89,107,146,93,193,169,105,141,94,58,206,0,,,
1,1791321056256,-1220,162,8499,470366,421497,-107512,0,0,0,259,192,232,291,191,337,443,375,247,458,412,327,0,,,
2,1791321056256,6613,1072,36199,8984605,-1373225,-2043955,0,0,0,140,67,85,135,71,161,154,86,110,65,31,107,0,,,
1,1791321056272,-402,-406,9940,235793,208915,-135612,0,0,0,270,198,278,298,197,343,445,360,256,459,397,343,0,,,
2,1791321056272,12624,11217,26106,9035918,-1668883,-2423913,0,0,0,119,68,87,134,70,166,143,77,105,60,34,89,0,,,
1,1791321056288,-416,-143,10725,212581,124616,-23212,0,0,0,279,215,288,305,205,359,440,331,263,461,381,360,0,,,
2,1791321056288,13687,15242,12404,7066489,-521678,-2800206,0,0,0,138,78,92,142,71,165,182,111,128,78,47,103,0,,,
1,1791321056304,-646,191,10323,233350,67195,28099,0,0,0,294,234,284,310,211,365,441,318,266,449,357,377,0,,,
2,1791321056304,8973,15620,6867,2741563,1073901,-2547308,0,0,0,169,90,106,167,90,167,193,123,131,94,59,117,0,,,
1,1791321056320,-665,220,9949,272445,7330,12217,0,0,0,304,251,282,313,217,375,444,298,272,424,327,393,0,,,
2,1791321056320,2100,13902,11237,-1830152,1081231,-1263269,0,0,0,133,55,90,134,69,160,188,118,129,87,46,103,0,,,
1,1791321056336,-588,110,10184,324980,-74525,9773,0,0,0,304,266,294,312,228,387,444,269,283,405,295,411,0,,,
2,1791321056336,1895,9992,11586,-3830125,-618195,251676,0,0,0,135,63,90,142,71,162,194,114,117,90,46,101,0,,,
1,1791321056352,-598,52,10294,409279,-169820,28099,0,0,0,305,282,306,315,239,397,439,259,287,394,280,427,0,,,
2,1791321056352,5436,6781,7264,-3965737,-1549154,1080009,0,0,0,132,62,91,135,65,159,193,116,127,97,66,106,0,,,
1,1791321056368,-626,23,10203,482583,-248011,47647,0,0,0,316,296,300,321,246,399,431,243,282,374,260,437,0,,,
2,1791321056368,6781,6207,4264,-3795916,-800233,1139874,0,0,0,132,63,92,138,66,164,193,115,134,90,60,109,0,,,
1,1791321056384,-641,-28,10131,499687,-295658,53756,0,0,0,337,302,282,337,253,401,426,193,277,354,219,443,0,,,
2,1791321056384,5508,6278,4532,-4151440,81855,1120326,0,0,0,126,64,98,132,66,171,178,108,126,68,45,97,0,,,
1,1791321056400,-708,-114,10145,510683,-312763,56199,0,0,0,362,306,264,368,259,413,412,167,258,356,210,449,0,,,
2,1791321056400,3216,6039,6843,-4906469,649960,1180191,0,0,0,130,66,99,131,64,162,175,113,121,71,44,96,0,,,
1,1791321056416,-794,-239,10088,522900,-274889,65973,0,0,0,377,312,268,373,264,411,338,137,228,337,207,445,0,,,
2,1791321056416,3206,5336,7954,-5395161,707381,1255938,0,0,0,126,64,97,133,66,162,180,110,122,86,52,97,0,,,
1,1791321056432,-804,-378,9940,502131,-193033,75747,0,0,0,383,319,285,361,269,430,398,110,242,341,169,442,0,,,
2,1791321056432,3608,4795,8949,-5815437,923628,1268156,0,0,0,124,63,94,136,69,163,177,105,116,88,54,105,0,,,
1,1791321056448,-756,-454,9940,433714,-112399,72082,0,0,0,401,361,239,403,349,388,417,141,279,328,182,446,0,,,
2,1791321056448,3441,4345,10681,-6269920,1292590,1238834,0,0,0,122,65,98,132,67,170,179,107,134,86,51,117,0,,,
1,1791321056464,-760,-502,10078,388510,-70860,64751,0,0,0,415,341,232,388,288,417,393,98,233,355,150,448,0,,,
2,1791321056464,2943,3637,12998,-6616892,1534493,1199739,0,0,0,119,68,109,129,65,178,182,110,147,89,59,124,0,,,
1,1791321056480,-799,-531,10160,384845,-72082,61086,0,0,0,414,346,215,403,300,419,388,106,233,349,158,449,0,,,
2,1791321056480,2742,2780,15309,-6827029,1707979,1148426,0,0,0,116,68,108,132,67,173,180,107,133,87,63,118,0,,,
1,1791321056496,-856,-583,10179,399505,-96516,72082,0,0,0,422,348,196,420,302,414,396,107,241,350,150,446,0,,,
2,1791321056496,2656,2110,17640,-6935763,1874134,1104444,0,0,0,113,67,98,130,69,166,179,106,128,83,57,111,0,,,
1,1791321056512,-928,-641,10375,433714,-138055,97738,0,0,0,428,359,188,431,310,419,382,96,224,359,147,452,0,,,
2,1791321056512,2455,1603,20770,-7086036,2050063,1115439,0,0,0,114,68,95,130,70,166,179,108,126,89,65,114,0,,,
1,1791321056528,-985,-684,10701,524122,-171042,138055,0,0,0,433,361,182,424,307,425,381,94,231,356,147,460,0,,,
2,1791321056528,1899,981,24742,-7334048,2155132,1271821,0,0,0,117,67,95,135,72,168,182,115,130,87,65,114,0,,,
1,1791321056544,-938,-722,10935,651182,-158824,171042,0,0,0,433,367,176,422,310,428,359,90,225,340,148,464,0,,,
2,1791321056544,894,-1076,28844,-7617489,2125811,1632231,0,0,0,116,69,97,132,65,166,182,115,126,90,67,108,0,,,
1,1791321056560,-1019,-804,11112,818559,-129503,196698,0,0,0,434,363,177,424,315,427,317,81,204,322,147,469,0,,,
2,1791321056560,0,-5044,32548,-7743327,2073276,1996307,0,0,0,111,67,96,137,72,172,189,116,131,90,63,109,0,,,
1,1791321056576,-1158,-928,11241,999375,-145385,246789,0,0,0,442,353,188,422,311,427,312,86,217,318,146,474,0,,,
2,1791321056576,-603,-11069,34802,-7583281,1788613,2067167,0,0,0,121,75,96,147,68,172,203,116,144,84,52,106,0,,,
1,1791321056592,-1067,-1081,11313,1185078,-175929,300545,0,0,0,452,354,200,425,310,435,326,94,238,325,145,479,0,,,
2,1791321056592,823,-18597,34572,-7222870,988379,1935221,0,0,0,114,61,96,137,60,174,195,116,136,81,62,116,0,,,
1,1791321056608,-823,-1206,11466,1367116,-195476,324980,0,0,0,461,339,201,422,315,444,302,85,226,321,142,489,0,,,
2,1791321056608,6293,-30523,28690,-6272364,63529,1543045,0,0,0,128,72,103,135,57,175,190,93,132,80,48,112,0,,,
1,1791321056624,-727,-1306,11998,1605353,-190589,301767,0,0,0,476,348,172,408,336,428,252,76,202,318,153,500,0,,,
2,1791321056624,6188,-44479,19042,-4557054,1181413,493579,0,0,0,121,64,100,145,61,181,193,100,135,87,55,123,0,,,
1,1791321056640,-684,-1450,12591,1902234,-178372,265115,0,0,0,468,339,194,411,324,435,271,82,207,322,152,495,0,,,
2,1791321056640,-9145,-54797,14477,-2524095,2783102,-698829,0,0,0,119,61,100,144,66,181,199,115,144,93,60,124,0,,,
1,1791321056656,-636,-1550,13347,2278527,-182037,204028,0,0,0,465,337,200,409,306,427,279,91,227,315,154,501,0,,,
2,1791321056656,-27063,-55003,15683,-471587,1776396,-678060,0,0,0,105,56,79,145,62,170,255,192,144,159,151,119,0,,,
1,1791321056672,-1253,-1593,14635,2792875,-184481,168598,0,0,0,465,347,204,409,302,421,282,103,236,325,156,494,0,,,
2,1791321056672,-20937,-43445,18004,1497841,-1253495,300545,0,0,0,111,60,74,153,72,182,304,243,146,206,231,141,0,,,
1,1791321056688,-2498,-1564,16061,3483153,-120951,299323,0,0,0,455,365,193,395,330,413,277,109,243,317,177,484,0,,,
2,1791321056688,4024,-7590,15271,4660901,-3051882,427605,0,0,0,125,68,75,165,77,197,330,297,160,224,305,160,0,,,
1,1791321056704,-3374,-1387,17875,4398229,13439,563217,0,0,0,435,360,185,391,327,415,261,103,240,305,165,469,0,,,
2,1791321056704,8360,4489,13194,6570466,-3186273,128281,0,0,0,138,79,80,170,89,209,342,378,174,235,372,180,0,,,
1,1791321056720,-4642,-1258,20162,5499008,344527,915076,0,0,0,402,340,177,372,320,407,255,101,251,280,149,455,0,,,
2,1791321056720,2220,-1177,18076,7068932,-2313957,800233,0,0,0,144,81,89,167,92,213,367,432,176,255,391,202,0,,,
1,1791321056736,-5101,-1694,23728,6684087,921184,1288925,0,0,0,373,320,173,339,308,386,255,108,235,248,141,438,0,,,
2,1791321056736,-6111,-6484,26254,6338337,-1298699,1500285,0,0,0,146,72,94,168,74,207,410,426,176,287,374,212,0,,,
1,1791321056752,-4536,-3665,28772,7692015,1551597,1484402,0,0,0,338,298,174,311,285,352,238,98,185,227,136,417,0,,,
2,1791321056752,-4225,-3287,23206,4708549,-1187522,719599,0,0,0,155,68,97,177,66,210,447,410,190,319,374,222,0,,,
1,1791321056768,-4020,-4388,32974,8480031,1692096,1529606,0,0,0,285,262,177,277,248,313,241,91,164,214,125,381,0,,,
2,1791321056768,349,-593,13998,2090380,-961501,4886,0,0,0,171,63,98,197,65,222,473,404,198,340,367,236,0,,,
1,1791321056784,-4771,-1703,34108,9018814,1959655,1577254,0,0,0,233,218,180,245,205,284,266,99,172,210,123,316,0,,,
2,1791321056784,1340,-502,8772,364075,-499687,29321,0,0,0,201,80,117,219,72,234,482,390,186,349,356,292,0,,,
1,1791321056800,-9710,4953,30600,9178861,2499660,1672549,0,0,0,207,189,181,243,182,275,267,101,171,218,135,259,0,,,
2,1791321056800,119,-516,9499,86742,-196698,123394,0,0,0,218,81,144,231,89,251,466,339,201,356,346,316,0,,,
1,1791321056816,-13615,12969,19932,8040208,1684766,1850921,0,0,0,214,192,174,257,189,272,265,101,168,217,134,257,0,,,
2,1791321056816,-124,-177,10509,239459,-157603,58643,0,0,0,244,97,165,232,101,260,485,336,211,360,306,336,0,,,
1,1791321056832,-11677,16898,11107,5266880,201585,1766622,0,0,0,216,187,169,255,187,259,290,107,168,218,131,247,0,,,
2,1791321056832,229,-33,10270,249233,-171042,0,0,0,0,252,113,179,238,109,264,485,285,206,345,274,346,0,,,
1,1791321056848,-5498,15295,10107,740368,-379958,816115,0,0,0,217,186,173,255,179,267,292,109,178,215,129,245,0,,,
2,1791321056848,339,-57,9978,189368,-124616,-9773,0,0,0,276,112,181,241,117,260,481,233,210,339,238,359,0,,,
1,1791321056864,-3086,11342,10461,-2202780,149051,-323758,0,0,0,210,186,165,239,176,259,296,113,179,215,128,245,0,,,
2,1791321056864,253,-81,10045,185703,-48869,-6108,0,0,0,281,117,198,246,126,272,463,215,218,302,215,378,0,,,
1,1791321056880,-5226,7815,7681,-2894279,643851,-1105666,0,0,0,210,184,157,239,176,255,298,116,177,220,135,246,0,,,
2,1791321056880,224,-90,10107,217468,-6108,-14660,0,0,0,296,122,197,256,136,278,439,188,209,274,182,390,0,,,
1,1791321056896,-5537,7863,4819,-2962696,-63529,-1095892,0,0,0,224,185,158,264,179,258,292,112,170,224,134,243,0,,,
2,1791321056896,268,-124,10064,246789,1221,-25656,0,0,0,304,120,190,260,142,284,430,170,213,248,142,398,0,,,
1,1791321056912,-3206,8241,4876,-3878994,-673173,-992045,0,0,0,220,188,156,262,180,259,309,123,181,219,133,241,0,,,
2,1791321056912,325,-167,10026,256563,-10995,-32986,0,0,0,315,125,190,262,145,290,420,148,217,228,111,408,0,,,
1,1791321056928,-1426,7193,7126,-5161811,-524122,-924849,0,0,0,222,191,159,257,181,259,306,121,178,218,134,241,0,,,
2,1791321056928,339,-210,10050,267558,-14660,-42760,0,0,0,326,132,191,264,152,296,407,137,224,212,91,430,0,,,
1,1791321056944,-1301,5642,8911,-5982814,-234572,-784350,0,0,0,224,192,158,257,181,259,308,121,179,219,134,242,0,,,
2,1791321056944,320,-263,10102,290771,-12217,-47647,0,0,0,341,129,175,271,161,302,396,140,237,195,79,450,0,,,
1,1791321056960,-1804,4379,9897,-6257703,-229685,-526565,0,0,0,223,192,154,258,181,257,254,111,172,219,136,242,0,,,
2,1791321056960,296,-320,10122,322536,-1221,-43982,0,0,0,360,134,148,281,177,304,388,130,237,186,70,453,0,,,
1,1791321056976,-1445,3646,11232,-6422637,-491135,-272445,0,0,0,222,192,160,257,182,260,208,98,164,219,137,245,0,,,
2,1791321056976,306,-368,10165,359188,41538,-39095,0,0,0,347,151,132,281,198,307,386,124,242,187,67,469,0,,,
1,1791321056992,-1095,2948,12969,-6636439,-680503,-48869,0,0,0,220,190,176,254,181,270,304,121,190,218,134,250,0,,,
2,1791321056992,349,-402,10246,401949,166155,-40317,0,0,0,353,139,124,285,176,312,365,116,236,192,69,488,0,,,
1,1791321057008,-1488,2148,14730,-6783047,-927293,175929,0,0,0,220,191,180,254,179,274,312,130,201,218,134,251,0,,,
2,1791321057008,402,-459,10256,436157,299323,-48869,0,0,0,384,129,118,294,181,321,351,109,232,185,56,483,0,,,
1,1791321057024,-1885,1469,16721,-6833138,-1378111,422718,0,0,0,215,190,178,258,181,280,315,127,199,220,134,253,0,,,
2,1791321057024,550,-540,10212,453262,367740,-64751,0,0,0,389,138,115,281,181,319,344,121,242,184,65,499,0,,,
1,1791321057040,-1622,1076,18932,-6824586,-1792278,579100,0,0,0,208,192,178,256,181,279,292,111,184,218,132,253,0,,,
2,1791321057040,756,-617,10342,482583,376292,-100181,0,0,0,410,127,123,288,179,327,347,132,244,191,68,522,0,,,
1,1791321057056,-1229,770,22153,-6889338,-2039068,609643,0,0,0,195,192,175,240,175,274,284,110,180,222,136,259,0,,,
2,1791321057056,847,-679,10600,549778,362853,-144164,0,0,0,404,143,133,289,187,327,339,124,238,200,88,538,0,,,
1,1791321057072,-938,43,26240,-7054271,-2252871,547335,0,0,0,201,193,180,255,181,280,297,117,188,214,132,256,0,,,
2,1791321057072,732,-737,10839,664621,300545,-174707,0,0,0,403,160,134,293,195,335,328,134,252,194,88,548,0,,,
1,1791321057088,-507,-2507,30241,-7281513,-2519208,361632,0,0,0,192,192,179,243,179,278,278,104,179,213,129,256,0,,,
2,1791321057088,832,-837,10906,810007,193033,-179594,0,0,0,429,151,131,290,200,333,313,128,238,193,81,541,0,,,
1,1791321057104,904,-9719,33256,-7459886,-2981022,53756,0,0,0,186,193,175,239,178,277,294,113,191,213,128,252,0,,,
2,1791321057104,1076,-952,11021,968832,127059,-213802,0,0,0,432,159,134,288,206,336,307,128,236,195,76,555,0,,,
1,1791321057120,3125,-17851,33586,-7379252,-3068986,-169820,0,0,0,183,192,177,238,179,280,304,116,197,215,131,254,0,,,
2,1791321057120,1024,-1072,11107,1147204,124616,-263893,0,0,0,428,182,137,298,210,341,303,133,239,213,92,573,0,,,
1,1791321057136,2895,-26575,30332,-6629109,-2326174,-482583,0,0,0,186,191,181,242,181,283,315,117,204,216,129,257,0,,,
2,1791321057136,909,-1201,11423,1354899,145385,-299323,0,0,0,434,188,142,294,202,343,312,145,247,221,112,584,0,,,
1,1791321057152,-110,-35539,23345,-5038416,-1940107,-713490,0,0,0,188,195,181,248,183,286,276,99,179,218,130,263,0,,,
2,1791321057152,971,-1282,12103,1580919,157603,-313984,0,0,0,445,179,149,278,193,344,306,145,249,203,103,594,0,,,
1,1791321057168,5987,-42962,16578,-3220481,-2968805,-324980,0,0,0,186,198,181,251,184,292,259,92,172,221,132,269,0,,,
2,1791321057168,727,-1306,12739,1896125,118507,-312763,0,0,0,450,164,153,267,178,344,281,128,238,190,85,600,0,,,
1,1791321057184,19234,-48193,12739,-1712866,-2945592,-122173,0,0,0,180,188,159,253,182,279,287,138,180,241,186,248,0,,,
2,1791321057184,497,-1397,13304,2273640,80634,-266337,0,0,0,450,155,154,260,157,336,261,116,229,189,75,601,0,,,
1,1791321057200,25048,-48422,13194,32986,-608421,-695164,0,0,0,169,176,104,258,175,252,291,221,147,290,306,209,0,,,
2,1791321057200,1014,-1536,14242,2775771,84299,-226020,0,0,0,458,156,155,260,145,329,257,119,238,185,76,599,0,,,
1,1791321057216,10576,-26987,14032,3556457,2608394,-1018923,0,0,0,167,172,104,251,161,272,376,307,195,316,345,231,0,,,
2,1791321057216,1665,-1608,15247,3342654,46425,-266337,0,0,0,454,151,152,267,138,323,253,128,243,202,96,583,0,,,
1,1791321057232,-1115,-162,13515,6609561,4689001,-551000,0,0,0,187,184,113,265,176,293,374,357,207,346,405,258,0,,,
2,1791321057232,2507,-1684,16266,4009719,-83077,-387288,0,0,0,414,162,158,236,138,321,224,131,238,178,76,545,0,,,
1,1791321057248,-1162,2397,18042,6802595,3608991,-557109,0,0,0,204,189,137,282,187,309,358,352,182,380,443,283,0,,,
2,1791321057248,3838,-1775,17013,4830722,-312763,-647517,0,0,0,389,169,160,239,153,329,202,131,229,143,57,483,0,,,
1,1791321057264,3823,-4163,25350,5845980,1237612,-875980,0,0,0,208,177,159,288,181,313,342,310,160,423,447,294,0,,,
2,1791321057264,4699,-2129,18846,5747020,-549778,-995710,0,0,0,359,166,149,220,148,306,187,120,208,152,89,443,0,,,
1,1791321057280,4005,-4804,24886,4505742,425162,-316428,0,0,0,207,162,182,274,155,314,411,352,208,409,447,302,0,,,
2,1791321057280,4613,-3632,25278,6746395,-631634,-1299921,0,0,0,332,148,127,204,148,258,173,117,172,148,83,382,0,,,
1,1791321057296,-555,-1000,14501,2290744,632856,160046,0,0,0,218,172,196,276,154,326,413,317,193,442,438,308,0,,,
2,1791321057296,4374,-4809,33443,7750658,-252898,-1403768,0,0,0,271,111,122,167,109,226,171,113,158,120,81,313,0,,,
1,1791321057312,-1612,478,8887,851546,618195,7330,0,0,0,238,184,227,294,178,345,386,270,178,449,429,318,0,,,
2,1791321057312,4173,-2756,36405,8668177,30543,-1558928,0,0,0,201,79,103,142,91,178,168,116,135,99,60,205,0,,,
1,1791321057328,-421,-492,9719,307876,379958,-112399,0,0,0,257,192,257,296,192,348,415,299,217,455,420,328,0,,,
2,1791321057328,6039,3354,33438,9315694,-454483,-1821600,0,0,0,133,63,86,129,71,157,183,117,130,105,69,124,0,,,
1,1791321057344,28,-784,10830,134390,149051,-59864,0,0,0,271,202,277,300,201,349,437,334,246,459,404,339,0,,,
2,1791321057344,10605,12203,26087,9453750,-890641,-2269975,0,0,0,120,61,89,134,72,160,180,118,126,109,78,108,0,,,
1,1791321057360,-392,-186,10490,146607,36651,14660,0,0,0,280,221,285,302,211,352,437,327,246,455,399,350,0,,,
2,1791321057360,13175,16444,14831,8586321,-478918,-3010343,0,0,0,120,60,87,131,69,159,170,113,111,99,64,106,0,,,
1,1791321057376,-555,47,10016,172263,10995,7330,0,0,0,286,242,309,302,223,364,434,312,249,440,386,365,0,,,
2,1791321057376,10457,17004,6958,4984660,684169,-3327993,0,0,0,124,64,87,126,69,154,171,112,106,88,60,99,0,,,
1,1791321057392,-469,0,10064,205250,-26878,0,0,0,0,286,269,334,309,236,378,435,304,262,426,353,382,0,,,
2,1791321057392,4513,17138,6312,-653625,1624901,-2664594,0,0,0,128,67,88,126,68,152,179,119,113,87,70,104,0,,,
1,1791321057408,-416,-76,10203,248011,-89186,8552,0,0,0,288,304,328,319,253,383,432,272,262,419,324,398,0,,,
2,1791321057408,665,12840,11160,-4416555,818559,-1106887,0,0,0,128,66,90,125,65,151,186,129,122,86,67,107,0,,,
1,1791321057424,-421,-129,10169,279776,-144164,21991,0,0,0,296,314,347,323,271,392,426,255,271,401,301,417,0,,,
2,1791321057424,1206,7958,11471,-5611408,-453262,207694,0,0,0,129,66,94,124,67,151,191,132,127,88,58,97,0,,,
1,1791321057440,-435,-177,10050,290771,-184481,24434,0,0,0,315,306,348,328,261,392,429,263,263,377,314,425,0,,,
2,1791321057440,4106,5632,7609,-5364618,-871093,889419,0,0,0,127,67,92,123,67,153,190,127,127,109,62,101,0,,,
1,1791321057456,-483,-215,10054,290771,-206472,23212,0,0,0,331,339,320,334,269,406,424,205,278,354,250,438,0,,,
2,1791321057456,4637,5403,6958,-5643173,-111177,1115439,0,0,0,126,67,97,124,68,153,185,118,132,87,49,101,0,,,
1,1791321057472,-583,-248,10107,294437,-211359,32986,0,0,0,367,341,322,357,272,406,395,137,232,359,215,442,0,,,
2,1791321057472,3699,5001,8399,-6085439,599869,1290147,0,0,0,123,62,95,130,72,158,172,112,114,80,57,104,0,,,
1,1791321057488,-646,-306,10117,315206,-188146,62308,0,0,0,384,326,302,366,274,406,353,119,206,355,215,442,0,,,
2,1791321057488,2273,4316,10385,-6381098,853989,1431868,0,0,0,125,61,94,129,64,153,183,118,127,69,35,96,0,,,
1,1791321057504,-579,-387,10098,351858,-152716,87964,0,0,0,389,326,294,373,276,414,396,140,247,342,199,446,0,,,
2,1791321057504,2297,3776,11366,-6467841,703716,1481959,0,0,0,124,63,94,129,64,156,184,118,117,88,54,109,0,,,
1,1791321057520,-473,-473,10078,384845,-116064,85521,0,0,0,399,333,274,379,279,415,392,106,246,338,171,446,0,,,
2,1791321057520,3302,3311,12443,-6631553,778242,1398881,0,0,0,119,62,94,127,59,151,182,107,112,89,55,93,0,,,
1,1791321057536,-497,-502,10122,388510,-89186,65973,0,0,0,407,346,257,398,294,420,391,100,234,374,151,436,0,,,
2,1791321057536,3665,2565,14252,-6790377,1208291,1175304,0,0,0,120,67,94,129,64,160,188,116,128,91,52,112,0,,,
1,1791321057552,-536,-526,10313,400727,-100181,56199,0,0,0,409,352,229,406,304,423,398,111,244,349,146,445,0,,,
2,1791321057552,3216,1770,16525,-6863681,1634675,935845,0,0,0,119,56,93,129,64,159,188,119,128,89,52,107,0,,,
1,1791321057568,-588,-574,10686,486248,-184481,65973,0,0,0,411,355,198,410,310,422,401,115,248,323,149,451,0,,,
2,1791321057568,2316,1296,19138,-6899112,1881464,810007,0,0,0,113,61,93,128,60,160,187,116,130,49,11,97,0,,,
1,1791321057584,-684,-646,10926,638965,-280998,87964,0,0,0,418,358,175,415,319,417,378,104,227,326,156,452,0,,,
2,1791321057584,1718,1110,22464,-7055493,1921782,928515,0,0,0,111,61,94,129,63,163,192,118,134,75,39,104,0,,,
1,1791321057600,-746,-732,11002,792903,-300545,109955,0,0,0,426,358,167,413,322,413,346,91,213,319,159,463,0,,,
2,1791321057600,1263,110,26513,-7304726,1898569,1248608,0,0,0,107,56,90,132,69,163,201,126,137,95,60,118,0,,,
1,1791321057616,-856,-813,11122,944397,-284663,134390,0,0,0,431,357,170,412,313,417,349,92,232,317,150,471,0,,,
2,1791321057616,1119,-3134,29370,-7467216,1933999,1637118,0,0,0,108,60,96,130,67,159,197,123,131,92,49,116,0,,,
1,1791321057632,-1014,-942,11194,1108109,-271224,180816,0,0,0,438,350,174,420,308,420,355,103,248,322,145,472,0,,,
2,1791321057632,1167,-8040,31720,-7541742,1988977,1909564,0,0,0,108,61,96,130,67,163,199,118,134,86,44,111,0,,,
1,1791321057648,-1009,-1129,11069,1255938,-298102,240680,0,0,0,449,329,172,417,305,429,325,89,230,312,142,479,0,,,
2,1791321057648,1818,-15635,33002,-7457442,1667662,1860695,0,0,0,108,58,91,136,68,170,203,115,136,80,51,112,0,,,
1,1791321057664,-746,-1325,10811,1382998,-315206,270002,0,0,0,464,321,169,417,329,429,316,92,230,309,136,493,0,,,
2,1791321057664,4589,-23541,30428,-6910107,956614,1458746,0,0,0,112,59,93,141,63,172,214,120,142,79,61,114,0,,,
1,1791321057680,-708,-1474,11031,1496619,-283441,261450,0,0,0,467,331,174,419,310,439,337,102,252,310,149,505,0,,,
2,1791321057680,7518,-35726,23034,-5608964,987158,656069,0,0,0,111,60,94,141,63,177,241,141,166,91,71,120,0,,,
1,1791321057696,-837,-1574,11988,1692096,-212581,245567,0,0,0,467,327,187,415,319,430,278,78,210,322,149,506,0,,,
2,1791321057696,-985,-48312,16372,-3849672,2601064,-626747,0,0,0,114,65,97,141,65,181,202,118,144,87,57,123,0,,,
1,1791321057712,-842,-1660,13156,2009746,-146607,230907,0,0,0,467,328,194,410,315,429,243,70,195,324,152,503,0,,,
2,1791321057712,-18344,-55539,14524,-1897347,3032335,-1389107,0,0,0,109,61,94,144,72,180,220,120,151,108,71,126,0,,,
1,1791321057728,-1062,-1684,14496,2500882,-106290,222354,0,0,0,462,328,201,398,301,423,264,87,219,316,156,498,0,,,
2,1791321057728,-25594,-51198,15405,150272,566882,-867428,0,0,0,100,61,73,152,72,166,293,171,128,187,162,118,0,,,
1,1791321057744,-1928,-1612,15955,3153286,-68416,276111,0,0,0,460,326,204,396,296,423,244,83,211,316,162,494,0,,,
2,1791321057744,-9404,-28456,16171,2425134,-2123367,-29321,0,0,0,105,61,67,154,75,184,298,228,144,259,265,140,0,,,
1,1791321057760,-3072,-1459,17233,3998723,7330,481361,0,0,0,448,330,203,396,310,421,230,83,207,307,160,482,0,,,
2,1791321057760,7781,6408,11270,5384166,-3484375,124616,0,0,0,145,75,83,191,84,210,367,334,170,264,330,178,0,,,
1,1791321057776,-3618,-1201,19186,5042081,156381,800233,0,0,0,427,336,191,383,317,428,241,95,231,291,152,461,0,,,
2,1791321057776,8040,10528,10916,7385360,-3701843,101403,0,0,0,135,73,109,174,73,225,396,386,204,262,386,205,0,,,
1,1791321057792,-4718,-1105,22478,6288246,533896,1145983,0,0,0,400,329,173,361,306,418,238,99,237,272,146,441,0,,,
2,1791321057792,-1617,-4603,23244,7550294,-2662150,886976,0,0,0,140,69,97,161,63,206,428,416,190,290,393,218,0,,,
1,1791321057808,-4948,-2613,27197,7580837,1277930,1428202,0,0,0,359,309,168,335,297,367,237,101,206,243,140,423,0,,,
2,1791321057808,-5982,-7690,29844,6404311,-1721418,966388,0,0,0,149,67,102,167,60,205,431,368,194,316,377,225,0,,,
1,1791321057824,-4192,-4560,31892,8513017,1578475,1527163,0,0,0,305,286,184,296,273,336,267,112,194,215,134,396,0,,,
2,1791321057824,-2053,-2522,21148,3516140,-1166752,290771,0,0,0,176,71,111,178,59,216,452,344,195,337,366,243,0,,,
1,1791321057840,-3019,-3857,35558,9132435,1628566,1541823,0,0,0,253,242,192,264,220,300,276,109,179,209,126,341,0,,,
2,1791321057840,1134,-220,10591,1026253,-718377,76969,0,0,0,207,75,137,210,64,232,467,328,198,366,347,286,0,,,
1,1791321057856,-7260,2057,33802,9243612,2430021,1567480,0,0,0,208,190,183,245,183,273,304,120,186,221,135,257,0,,,
2,1791321057856,976,-320,8054,78190,-340862,109955,0,0,0,236,88,163,228,77,252,447,299,237,369,315,329,0,,,
1,1791321057872,-13730,11088,24694,8495913,2414139,1672549,0,0,0,223,197,175,261,196,278,296,120,183,218,134,259,0,,,
2,1791321057872,220,-536,10031,246789,-227241,87964,0,0,0,260,104,184,230,99,262,445,273,238,364,291,362,0,,,
1,1791321057888,-12687,16568,12452,5469687,574213,1601688,0,0,0,214,197,177,259,191,274,274,106,167,210,121,254,0,,,
2,1791321057888,258,-296,10667,345749,-212581,14660,0,0,0,286,119,204,237,123,267,462,253,213,359,273,393,0,,,
1,1791321057904,-6259,15912,9365,1152091,-515570,841772,0,0,0,215,189,170,244,177,264,277,104,165,218,126,249,0,,,
2,1791321057904,521,-134,10083,259006,-178372,-14660,0,0,0,312,126,214,253,133,281,467,226,222,343,242,415,0,,,
1,1791321057920,-2904,11299,10662,-1858252,80634,-366519,0,0,0,227,187,169,255,177,263,290,109,173,219,128,247,0,,,
2,1791321057920,492,-181,9964,223576,-74525,-14660,0,0,0,324,123,214,266,137,295,461,194,234,322,196,426,0,,,
1,1791321057936,-5422,8116,7494,-2403143,618195,-1138652,0,0,0,228,188,169,259,179,266,292,111,174,219,129,248,0,,,
2,1791321057936,421,-253,10078,252898,12217,-26878,0,0,0,337,132,211,274,155,298,436,182,234,288,159,446,0,,,
1,1791321057952,-6403,7920,4187,-2530203,185703,-1214400,0,0,0,227,192,164,261,182,263,305,119,177,221,129,244,0,,,
2,1791321057952,464,-282,10083,278554,31764,-41538,0,0,0,349,139,206,277,162,302,430,167,242,243,125,441,0,,,
1,1791321057968,-4187,8212,4168,-3506366,-311541,-972497,0,0,0,227,194,159,262,184,260,311,123,177,221,130,241,0,,,
2,1791321057968,550,-311,10045,298102,20769,-53756,0,0,0,357,139,210,288,170,312,405,143,240,223,85,459,0,,,
1,1791321057984,-2857,7336,5704,-4637688,-277332,-726929,0,0,0,224,193,159,261,184,260,298,118,169,220,133,241,0,,,
2,1791321057984,564,-349,10093,331088,8552,-64751,0,0,0,355,144,197,273,170,310,406,141,249,206,82,467,0,,,
1,1791321058000,-2991,5924,7231,-5409822,-260228,-406836,0,0,0,222,193,158,257,186,257,284,113,161,221,136,241,0,,,
2,1791321058000,521,-402,10184,360410,8552,-65973,0,0,0,369,139,173,274,162,314,385,122,260,184,93,479,0,,,
1,1791321058016,-2345,5125,8518,-5764124,-725707,-8552,0,0,0,221,193,157,249,186,254,286,114,162,221,135,242,0,,,
2,1791321058016,478,-459,10299,410501,61086,-62308,0,0,0,379,133,154,273,176,319,364,120,254,179,81,495,0,,,
1,1791321058032,-847,4694,10141,-6041457,-1114218,246789,0,0,0,212,192,159,242,180,257,295,117,170,219,133,244,0,,,
2,1791321058032,526,-507,10356,480140,195476,-59864,0,0,0,390,135,139,273,181,317,358,120,253,183,80,505,0,,,
1,1791321058048,-76,4245,12333,-6387206,-1191187,321315,0,0,0,205,190,161,241,180,261,294,118,175,218,136,247,0,,,
2,1791321058048,674,-579,10308,526565,293215,-65973,0,0,0,397,140,135,279,186,321,330,109,235,181,67,507,0,,,
1,1791321058064,-167,3661,14491,-6708522,-1345125,390953,0,0,0,205,190,173,240,180,267,284,112,175,217,131,249,0,,,
2,1791321058064,837,-670,10275,542448,305432,-90408,0,0,0,389,142,135,271,185,323,310,107,224,183,74,522,0,,,
1,1791321058080,-335,3000,16726,-6990741,-1726305,538783,0,0,0,209,192,176,256,183,273,46,48,123,217,135,253,0,,,
2,1791321058080,842,-751,10418,560774,221133,-116064,0,0,0,402,144,134,271,189,322,305,117,223,187,82,528,0,,,
1,1791321058096,-105,2282,18918,-7164227,-2067167,717155,0,0,0,210,193,178,257,183,276,280,111,177,218,136,255,0,,,
2,1791321058096,780,-827,10495,605978,106290,-127059,0,0,0,415,168,133,284,208,323,314,127,226,198,93,532,0,,,
1,1791321058112,-67,1574,21540,-7249748,-2280970,850324,0,0,0,209,195,179,257,184,277,294,120,186,217,137,256,0,,,
2,1791321058112,823,-909,10466,670730,30543,-130725,0,0,0,419,174,133,285,212,327,306,130,228,201,89,540,0,,,
1,1791321058128,-114,1057,25058,-7279070,-2437352,894306,0,0,0,198,194,177,244,181,275,309,121,194,217,133,256,0,,,
2,1791321058128,1000,-1024,10552,752585,30543,-156381,0,0,0,423,161,136,277,202,331,290,126,226,198,92,550,0,,,
1,1791321058144,770,-430,29992,-7424456,-2729345,734260,0,0,0,196,195,177,247,183,276,262,98,164,214,130,256,0,,,
2,1791321058144,1028,-1129,10782,874759,53756,-204028,0,0,0,433,166,134,275,209,333,288,128,225,200,109,562,0,,,
1,1791321058160,2914,-4589,34256,-7655363,-3141069,340862,0,0,0,198,193,175,253,183,278,277,112,172,224,141,255,0,,,
2,1791321058160,1019,-1229,10911,1026253,56199,-238237,0,0,0,442,186,131,277,221,333,289,137,231,202,105,578,0,,,
1,1791321058176,6585,-13902,36491,-7696902,-3133738,-185703,0,0,0,197,196,183,256,187,291,302,126,193,223,147,258,0,,,
2,1791321058176,976,-1359,10859,1189965,43982,-270002,0,0,0,440,198,134,276,210,331,295,137,233,197,102,590,0,,,
1,1791321058192,8915,-27432,33156,-7024950,-1800830,-744033,0,0,0,194,207,191,259,192,305,299,118,198,216,140,265,0,,,
2,1791321058192,875,-1497,11012,1351233,25656,-285884,0,0,0,452,216,139,274,204,334,285,121,215,196,96,591,0,,,
1,1791321058208,14,-36132,24752,-5665164,-1109331,-796568,0,0,0,198,216,188,263,194,305,302,114,199,220,135,269,0,,,
2,1791321058208,1014,-1617,11753,1536936,3665,-291993,0,0,0,461,215,143,263,193,344,275,128,226,201,99,602,0,,,
1,1791321058224,-598,-43115,18736,-4250400,-2554638,-232128,0,0,0,203,216,185,265,198,302,302,117,194,232,145,273,0,,,
2,1791321058224,1100,-1718,12782,1848478,-32986,-313984,0,0,0,478,183,156,260,177,339,271,124,244,200,103,613,0,,,
1,1791321058240,18119,-49289,14735,-2415361,-3557679,309097,0,0,0,182,211,169,263,200,285,299,139,173,267,193,262,0,,,
2,1791321058240,756,-1718,13390,2224771,-70860,-304210,0,0,0,467,189,162,254,165,321,215,82,220,155,66,618,0,,,
1,1791321058256,27915,-50002,13596,-206472,-763581,-609643,0,0,0,155,183,101,247,192,254,329,254,164,302,311,209,0,,,
2,1791321058256,842,-1804,14027,2678033,-118507,-273667,0,0,0,473,177,151,245,141,317,242,113,243,184,71,599,0,,,
1,1791321058272,14505,-33232,13883,3246137,2503325,-1386664,0,0,0,167,199,86,250,194,265,390,343,202,316,359,222,0,,,
2,1791321058272,1569,-1957,14831,3229033,-200363,-291993,0,0,0,437,154,148,235,135,315,258,137,246,183,80,576,0,,,
1,1791321058288,-1316,-3058,13615,6597344,4451985,-834441,0,0,0,183,211,106,261,205,289,390,418,213,335,429,251,0,,,
2,1791321058288,2579,-2086,16132,3896098,-389732,-415388,0,0,0,427,164,164,232,145,337,211,125,240,165,62,532,0,,,
1,1791321058304,-2699,3235,17784,7083593,3594331,-537561,0,0,0,190,180,145,269,173,313,407,380,209,384,445,274,0,,,
2,1791321058304,4216,-2282,17171,4635245,-673173,-649960,0,0,0,393,179,157,237,153,321,188,118,223,159,67,470,0,,,
1,1791321058320,3311,-3919,25632,6128200,1358564,-974940,0,0,0,207,176,157,284,176,313,398,349,184,425,450,282,0,,,
2,1791321058320,5632,-2847,19238,5521000,-990823,-1071457,0,0,0,353,189,145,250,167,292,178,118,200,143,86,432,0,,,
1,1791321058336,3804,-4565,24804,4420220,934623,-519235,0,0,0,219,170,182,289,173,317,354,289,155,435,449,295,0,,,
2,1791321058336,6508,-4536,25226,6544810,-1148426,-1525941,0,0,0,310,161,136,207,151,257,213,138,199,136,87,377,0,,,
1,1791321058352,253,-1363,15577,2233323,933402,-87964,0,0,0,230,180,199,296,176,330,388,295,181,437,435,313,0,,,
2,1791321058352,6355,-6020,32902,7467216,-916297,-1853365,0,0,0,259,110,120,162,111,220,205,124,171,120,65,289,0,,,
1,1791321058368,-1392,449,8691,612086,614530,-105068,0,0,0,248,194,218,309,191,350,420,305,211,452,429,340,0,,,
2,1791321058368,6556,-2708,35261,8265006,-894306,-2167349,0,0,0,185,73,98,144,76,178,176,102,129,93,41,179,0,,,
1,1791321058384,-253,-311,9346,107512,200363,-151494,0,0,0,271,211,234,309,202,361,432,314,237,458,421,367,0,,,
2,1791321058384,8853,3962,32835,8859989,-1317025,-2516764,0,0,0,123,59,81,132,64,152,178,112,115,77,38,98,0,,,
1,1791321058400,-33,-378,10571,141720,80634,-53756,0,0,0,292,229,243,308,208,364,438,320,251,445,398,389,0,,,
2,1791321058400,12615,12275,20545,8382292,-1265712,-2929709,0,0,0,117,61,81,133,74,161,177,123,117,74,53,88,0,,,
1,1791321058416,-315,-67,10524,189368,45204,7330,0,0,0,309,245,258,321,218,371,433,304,250,437,365,408,0,,,
2,1791321058416,12902,15525,8777,6072000,-166155,-3189938,0,0,0,106,52,81,135,69,163,179,116,116,70,55,96,0,,,
1,1791321058432,-521,134,9987,197920,3665,10995,0,0,0,323,260,270,324,227,376,438,294,264,430,326,424,0,,,
2,1791321058432,7006,14505,7657,1291369,1402546,-2719572,0,0,0,51,21,70,119,57,149,183,118,121,89,55,107,0,,,
1,1791321058448,-411,33,10102,233350,-58643,6108,0,0,0,336,272,273,331,237,381,427,259,262,421,297,440,0,,,
2,1791321058448,1502,11921,11911,-2224771,788016,-1314581,0,0,0,129,106,89,132,82,158,188,125,119,94,55,109,0,,,
1,1791321058464,-358,-52,10256,301767,-118507,14660,0,0,0,355,280,280,341,248,386,435,246,270,395,275,456,0,,,
2,1791321058464,1105,8580,11284,-3720169,-646295,76969,0,0,0,130,56,92,136,61,164,191,132,132,89,49,100,0,,,
1,1791321058480,-406,-95,10227,354301,-162490,28099,0,0,0,364,297,265,349,269,387,424,254,264,375,275,455,0,,,
2,1791321058480,4575,6331,6427,-3407406,-1361007,883311,0,0,0,128,62,95,136,67,170,196,127,141,101,66,112,0,,,
1,1791321058496,-445,-114,10141,359188,-190589,36651,0,0,0,375,297,271,350,255,404,420,182,280,379,219,454,0,,,
2,1791321058496,5230,6302,4670,-3400075,-640186,1104444,0,0,0,121,57,87,132,70,167,178,111,128,87,42,117,0,,,
1,1791321058512,-492,-167,10112,377514,-204028,51312,0,0,0,404,293,248,377,263,410,382,150,260,370,195,449,0,,,
2,1791321058512,4053,6412,5479,-3948632,100181,1287703,0,0,0,122,58,93,135,71,170,173,111,124,80,38,104,0,,,
1,1791321058528,-507,-229,10088,411723,-185703,68416,0,0,0,405,294,232,378,263,419,376,112,223,341,179,452,0,,,
2,1791321058528,2933,6015,7303,-4704884,393397,1458746,0,0,0,120,57,90,137,66,167,180,108,130,74,34,103,0,,,
1,1791321058544,-464,-315,10045,438601,-156381,78190,0,0,0,400,304,214,376,266,417,398,107,256,334,163,452,0,,,
2,1791321058544,3412,5297,8121,-5180137,503352,1521054,0,0,0,122,54,95,133,64,170,189,116,139,84,44,112,0,,,
1,1791321058560,-430,-406,10050,427605,-129503,72082,0,0,0,399,309,201,390,270,419,391,100,244,333,152,448,0,,,
2,1791321058560,3804,4690,9112,-5618738,792903,1499063,0,0,0,123,54,94,133,63,166,186,110,129,79,50,101,0,,,
1,1791321058576,-435,-459,10174,410501,-127059,58643,0,0,0,404,302,193,407,275,417,385,94,236,327,143,447,0,,,
2,1791321058576,3685,4125,10882,-6107430,1109331,1426981,0,0,0,125,58,93,136,66,163,223,134,151,98,65,103,0,,,
1,1791321058592,-464,-512,10227,421497,-158824,47647,0,0,0,412,297,189,411,282,416,387,91,244,330,138,447,0,,,
2,1791321058592,3804,3383,12998,-6596122,1382998,1330464,0,0,0,123,63,96,137,71,165,220,133,153,100,68,114,0,,,
1,1791321058608,-545,-583,10236,437379,-196698,45204,0,0,0,417,303,187,419,286,420,375,88,234,339,136,445,0,,,
2,1791321058608,4082,2469,14859,-6878342,1661553,1208291,0,0,0,120,65,95,136,69,167,181,114,126,75,50,109,0,,,
1,1791321058624,-689,-622,10428,466701,-219911,64751,0,0,0,419,308,187,433,286,426,353,86,218,331,133,448,0,,,
2,1791321058624,3828,1459,16927,-6938207,1941329,1083674,0,0,0,119,63,92,135,66,167,178,120,122,78,48,108,0,,,
1,1791321058640,-861,-650,10729,538783,-252898,111177,0,0,0,421,308,194,424,289,433,342,85,224,307,134,458,0,,,
2,1791321058640,3464,933,19530,-6949202,2106263,1032362,0,0,0,115,62,93,134,73,170,178,122,129,95,61,114,0,,,
1,1791321058656,-894,-717,10863,663399,-259006,177150,0,0,0,421,312,194,420,283,439,356,91,250,316,135,462,0,,,
2,1791321058656,3488,804,23278,-7116580,2171015,1121548,0,0,0,112,65,91,136,77,173,178,133,128,89,47,102,0,,,
1,1791321058672,-837,-832,10835,802676,-212581,229685,0,0,0,426,320,200,430,294,442,363,102,252,329,142,463,0,,,
2,1791321058672,3388,-354,27159,-7360926,2244318,1292590,0,0,0,112,64,93,132,72,170,187,132,125,90,40,96,0,,,
1,1791321058688,-947,-985,10835,932180,-171042,273667,0,0,0,436,322,181,417,298,468,317,92,245,326,146,474,0,,,
2,1791321058688,2522,-4656,31476,-7550294,2350609,1582140,0,0,0,117,67,92,132,64,167,186,124,127,84,50,114,0,,,
1,1791321058704,-832,-1119,10902,1056796,-169820,317649,0,0,0,452,318,176,415,300,463,344,93,270,321,139,479,0,,,
2,1791321058704,775,-11361,34012,-7367034,2326174,1568701,0,0,0,110,56,92,139,60,173,193,105,124,49,0,102,0,,,
1,1791321058720,-502,-1253,10873,1177748,-174707,320093,0,0,0,454,322,185,413,301,461,342,96,274,315,141,495,0,,,
2,1791321058720,-1421,-18798,34869,-7005402,1919338,1255938,0,0,0,106,59,96,147,68,183,215,121,154,82,12,111,0,,,
1,1791321058736,-406,-1368,11222,1302364,-160046,285884,0,0,0,460,327,187,418,300,454,309,90,240,325,144,503,0,,,
2,1791321058736,-1215,-29542,30313,-6173404,1094670,878424,0,0,0,123,59,100,140,65,180,152,54,119,115,57,122,0,,,
1,1791321058752,-780,-1474,12256,1513724,-124616,252898,0,0,0,464,327,181,425,306,440,301,89,236,335,150,506,0,,,
2,1791321058752,-679,-45316,21339,-4756196,824668,58643,0,0,0,112,56,94,142,73,180,188,107,132,104,67,133,0,,,
1,1791321058768,-832,-1541,13299,1887573,-90408,265115,0,0,0,469,325,190,430,303,441,286,90,229,339,155,505,0,,,
2,1791321058768,-10203,-58889,13802,-2642603,1492954,-1447750,0,0,0,116,64,90,146,70,180,208,129,136,114,71,131,0,,,
1,1791321058784,-545,-1603,14051,2365270,-81855,256563,0,0,0,472,327,204,413,305,442,253,84,211,334,160,505,0,,,
2,1791321058784,-24082,-55462,14716,-370184,698829,-1696983,0,0,0,98,57,71,149,83,179,272,197,146,161,157,120,0,,,
1,1791321058800,-832,-1636,15094,2955366,-108734,227241,0,0,0,469,334,204,400,314,427,241,94,205,328,170,503,0,,,
2,1791321058800,-20392,-35922,17018,2254092,-1530828,-855211,0,0,0,109,59,70,155,85,184,305,267,152,204,238,141,0,,,
1,1791321058816,-1842,-1545,16472,3690847,-81855,318871,0,0,0,459,336,186,397,320,423,250,105,223,313,167,492,0,,,
2,1791321058816,995,1263,12802,5743354,-4232074,17104,0,0,0,128,73,80,160,83,196,318,329,159,238,295,163,0,,,
1,1791321058832,-2928,-1373,18123,4580267,42760,518013,0,0,0,437,336,167,390,326,435,237,94,224,288,156,473,0,,,
2,1791321058832,6666,4493,13955,7136127,-4081801,414166,0,0,0,137,73,88,165,77,208,366,383,177,268,331,188,0,,,
1,1791321058848,-4536,-1277,20378,5627290,284663,850324,0,0,0,400,344,163,383,342,421,207,93,188,273,163,451,0,,,
2,1791321058848,-837,-4340,22737,6778160,-2317622,1095892,0,0,0,148,67,96,164,66,208,409,410,187,285,344,213,0,,,
1,1791321058864,-4450,-2081,25120,6924768,890641,1230282,0,0,0,367,323,181,349,323,394,246,104,221,259,147,429,0,,,
2,1791321058864,-5250,-5029,25857,5255884,-1351233,806342,0,0,0,164,70,104,165,60,201,408,392,178,291,340,218,0,,,
1,1791321058880,-3900,-4230,30404,8014551,1423316,1351233,0,0,0,324,295,181,311,275,353,264,110,194,227,135,409,0,,,
2,1791321058880,-1899,-1622,18396,3018896,-1065348,168598,0,0,0,179,70,107,187,65,210,420,365,180,308,335,229,0,,,
1,1791321058896,-3594,-4489,33706,8714603,1640784,1396437,0,0,0,266,260,181,269,234,305,265,109,177,203,124,385,0,,,
2,1791321058896,1832,272,9418,1001818,-769690,26878,0,0,0,211,87,134,211,78,230,430,384,187,321,336,274,0,,,
1,1791321058912,-5824,-827,33591,9055466,2182010,1490511,0,0,0,211,196,183,247,186,268,253,93,156,210,126,255,0,,,
2,1791321058912,808,-521,9016,304210,-368962,119729,0,0,0,243,109,169,220,101,248,438,327,195,326,316,323,0,,,
1,1791321058928,-12318,7427,27561,8742703,2459343,1717753,0,0,0,211,188,180,250,178,272,283,108,177,215,130,253,0,,,
2,1791321058928,-148,-622,10447,193033,-168598,72082,0,0,0,272,123,181,234,125,257,457,289,208,329,284,352,0,,,
1,1791321058944,-15089,14639,17190,7415904,1347568,2100154,0,0,0,214,189,171,251,180,262,284,111,169,214,131,247,0,,,
2,1791321058944,205,-157,10418,260228,-183259,2443,0,0,0,333,158,225,252,169,272,473,272,211,350,278,383,0,,,
1,1791321058960,-10792,16745,9629,4271169,-294437,2283414,0,0,0,213,189,169,249,179,256,291,113,169,214,131,242,0,,,
2,1791321058960,483,-28,10031,244346,-175929,-4886,0,0,0,321,142,211,253,148,274,465,240,208,334,264,391,0,,,
1,1791321058976,-4302,14060,10054,-178372,-411723,1547932,0,0,0,206,186,167,238,174,251,278,108,162,214,131,240,0,,,
2,1791321058976,454,-105,9949,206472,-106290,4886,0,0,0,333,154,212,257,153,280,471,238,224,322,222,406,0,,,
1,1791321058992,-2847,10169,10217,-2651155,346971,518013,0,0,0,204,186,164,232,172,249,285,111,166,214,131,238,0,,,
2,1791321058992,363,-167,10078,208915,-21991,-2443,0,0,0,337,145,213,272,158,286,448,200,211,295,193,408,0,,,
1,1791321059008,-5025,7657,7102,-3000570,497244,-232128,0,0,0,212,188,163,243,174,249,309,121,176,215,132,238,0,,,
2,1791321059008,358,-201,10102,218689,23212,-14660,0,0,0,338,133,205,269,155,292,432,179,223,269,159,417,0,,,
1,1791321059024,-5479,7193,4752,-3180164,-123394,-601091,0,0,0,219,190,160,254,176,249,201,77,109,225,135,240,0,,,
2,1791321059024,425,-215,10040,226020,30543,-20769,0,0,0,345,138,210,268,157,295,429,169,231,250,137,430,0,,,
1,1791321059040,-3584,7288,5532,-4070805,-629191,-840550,0,0,0,219,191,155,254,179,247,10,0,0,236,141,242,0,,,
2,1791321059040,478,-229,10040,237015,10995,-26878,0,0,0,354,151,213,267,167,299,431,161,242,230,120,443,0,,,
1,1791321059056,-2316,6685,7346,-5103168,-631634,-1084896,0,0,0,221,194,145,258,184,244,67,28,36,233,138,238,0,,,
2,1791321059056,483,-248,10098,257785,0,-40317,0,0,0,359,154,202,270,172,307,420,148,245,210,105,453,0,,,
1,1791321059072,-2756,5460,8786,-5793445,-387288,-1210734,0,0,0,220,194,145,258,185,244,297,127,162,219,134,237,0,,,
2,1791321059072,425,-296,10169,300545,19547,-45204,0,0,0,359,149,183,273,172,312,401,141,243,203,102,466,0,,,
1,1791321059088,-3546,4273,9743,-6100100,-498466,-1081231,0,0,0,219,193,148,261,186,246,272,115,156,219,137,237,0,,,
2,1791321059088,416,-363,10212,367740,68416,-40317,0,0,0,362,146,161,278,174,312,388,143,243,206,104,483,0,,,
1,1791321059104,-3637,3402,11088,-6352998,-808785,-830776,0,0,0,216,191,158,257,181,255,299,121,171,219,136,245,0,,,
2,1791321059104,469,-435,10227,442266,161268,-29321,0,0,0,373,144,142,284,179,312,380,137,239,200,87,489,0,,,
1,1791321059120,-3149,2613,12916,-6621779,-1121548,-499687,0,0,0,202,188,165,239,178,255,296,119,172,217,134,246,0,,,
2,1791321059120,574,-483,10260,481361,270002,-29321,0,0,0,383,145,132,283,185,313,371,128,237,184,69,482,0,,,
1,1791321059136,-2991,1852,15113,-6851464,-1423316,-102625,0,0,0,207,190,175,250,179,265,291,114,172,217,133,250,0,,,
2,1791321059136,703,-550,10270,499687,339641,-43982,0,0,0,381,141,129,275,191,320,352,132,236,176,63,498,0,,,
1,1791321059152,-3120,1268,17157,-6962641,-1762957,224798,0,0,0,209,191,177,255,181,269,290,112,174,218,135,251,0,,,
2,1791321059152,856,-646,10299,519235,350636,-76969,0,0,0,392,147,141,282,189,327,322,114,228,188,78,516,0,,,
1,1791321059168,-2909,708,19363,-6973637,-2112371,422718,0,0,0,210,191,179,255,180,268,269,108,167,216,133,251,0,,,
2,1791321059168,985,-737,10452,558330,354301,-119729,0,0,0,394,142,140,274,194,333,306,127,226,201,89,532,0,,,
1,1791321059184,-2397,210,22967,-6966307,-2404365,427605,0,0,0,207,192,178,255,180,268,288,118,179,213,133,249,0,,,
2,1791321059184,995,-794,10739,641408,331088,-162490,0,0,0,410,161,140,282,197,336,306,113,218,182,83,521,0,,,
1,1791321059200,-2120,-579,26853,-7026171,-2594955,299323,0,0,0,203,192,177,255,181,270,315,128,191,213,134,250,0,,,
2,1791321059200,1019,-875,10686,753807,223576,-183259,0,0,0,424,158,130,283,204,340,292,127,220,181,61,530,0,,,
1,1791321059216,-1464,-4058,31179,-7192327,-2933374,-43982,0,0,0,198,191,177,254,182,271,252,98,152,215,132,252,0,,,
2,1791321059216,1210,-1019,10629,873537,111177,-217468,0,0,0,428,223,133,293,225,349,286,130,211,184,91,543,0,,,
1,1791321059232,90,-10256,33888,-7297396,-3381749,-487470,0,0,0,191,192,175,245,179,269,196,72,118,214,129,250,0,,,
2,1791321059232,1411,-1162,10902,998153,57421,-274889,0,0,0,441,246,137,293,230,345,293,140,228,209,108,564,0,,,
1,1791321059248,3139,-19018,34122,-7126353,-3402519,-912632,0,0,0,186,195,174,236,175,268,308,118,186,212,129,248,0,,,
2,1791321059248,1186,-1239,11117,1174082,24434,-339641,0,0,0,451,250,140,288,229,341,296,141,227,212,113,588,0,,,
1,1791321059264,4154,-28073,31308,-6502049,-2680476,-1259604,0,0,0,187,200,178,245,181,276,293,115,186,213,131,251,0,,,
2,1791321059264,703,-1249,11485,1365894,7330,-349414,0,0,0,454,238,135,287,224,345,267,107,213,210,82,563,0,,,
1,1791321059280,1856,-38358,23685,-5059185,-2008524,-1373225,0,0,0,197,214,183,260,197,282,269,129,194,218,137,257,0,,,
2,1791321059280,674,-1306,12400,1629788,0,-295658,0,0,0,460,200,137,275,203,340,255,102,211,198,79,575,0,,,
1,1791321059296,7475,-47547,15879,-3172834,-2741563,-714712,0,0,0,195,215,184,266,194,290,296,117,190,214,139,260,0,,,
2,1791321059296,780,-1426,13256,1990198,-3665,-250454,0,0,0,466,171,149,259,170,338,262,115,224,185,85,608,0,,,
1,1791321059312,21119,-53400,12017,-1407433,-2554638,-189368,0,0,0,180,183,167,263,181,276,354,164,202,281,203,238,0,,,
2,1791321059312,746,-1502,13974,2454456,8552,-212581,0,0,0,462,163,154,247,146,340,259,124,240,181,77,615,0,,,
1,1791321059328,25666,-50059,13457,444709,-315206,-582765,0,0,0,167,166,112,261,164,260,308,204,153,301,283,210,0,,,
2,1791321059328,1325,-1579,14922,3021339,2443,-196698,0,0,0,453,160,150,237,137,329,250,132,246,177,82,603,0,,,
1,1791321059344,8265,-15266,13050,4075692,2863736,-1065348,0,0,0,187,179,101,274,173,272,300,252,143,329,368,218,0,,,
2,1791321059344,2297,-1684,15884,3677408,-79412,-277332,0,0,0,438,161,152,227,135,314,224,121,238,170,82,562,0,,,
1,1791321059360,-3943,10212,11677,6643770,4613254,-884532,0,0,0,197,197,108,278,186,288,308,333,156,352,415,244,0,,,
2,1791321059360,3374,-1770,16927,4386012,-287106,-464257,0,0,0,402,157,153,223,139,312,177,111,228,159,70,515,0,,,
1,1791321059376,-2890,3517,15778,6849021,3593109,-1115439,0,0,0,198,189,131,277,181,304,350,384,178,379,439,270,0,,,
2,1791321059376,5293,-1986,18009,5305975,-625526,-852767,0,0,0,370,174,151,232,155,331,174,125,216,144,71,458,0,,,
1,1791321059392,5599,-6068,24273,6030461,972497,-1448972,0,0,0,203,174,154,277,162,311,401,389,193,401,447,283,0,,,
2,1791321059392,6231,-2703,21105,6245486,-919963,-1297477,0,0,0,341,187,138,218,155,295,180,118,201,158,100,427,0,,,
1,1791321059408,5561,-3866,25005,5155702,342084,-447153,0,0,0,210,161,172,284,155,317,420,358,198,422,442,298,0,,,
2,1791321059408,6594,-4924,28657,7244861,-866206,-1646892,0,0,0,288,154,128,186,139,241,187,119,190,146,77,356,0,,,
1,1791321059424,-1062,-555,15285,2833192,675616,313984,0,0,0,221,161,191,299,166,333,417,328,204,445,433,320,0,,,
2,1791321059424,6164,-4857,35558,8189259,-511905,-1965764,0,0,0,241,88,106,154,104,208,108,52,123,87,61,255,0,,,
1,1791321059440,-2062,-416,9471,990823,657290,-25656,0,0,0,251,184,211,309,179,353,419,315,205,456,422,335,0,,,
2,1791321059440,7590,938,35544,8902749,-796568,-2296853,0,0,0,141,66,84,130,69,152,188,116,122,104,63,127,0,,,
1,1791321059456,-157,-990,9739,215024,309097,-221133,0,0,0,281,205,244,321,208,375,397,258,177,457,410,361,0,,,
2,1791321059456,11442,8848,29064,9285151,-1121548,-2685363,0,0,0,126,68,86,136,72,160,184,111,129,87,55,111,0,,,
1,1791321059472,157,-631,10681,125838,79412,-67195,0,0,0,288,236,263,311,223,387,429,320,245,453,397,388,0,,,
2,1791321059472,14276,15462,14859,8321206,-483805,-3156951,0,0,0,129,65,90,133,68,163,165,95,108,80,56,109,0,,,
1,1791321059488,-478,-196,10399,210137,52534,41538,0,0,0,327,265,274,335,238,383,427,293,244,456,374,400,0,,,
2,1791321059488,10725,15869,7566,4373795,988379,-3193603,0,0,0,131,60,93,129,69,160,167,104,113,84,42,97,0,,,
1,1791321059504,-626,-148,10074,221133,31764,32986,0,0,0,332,258,278,334,233,378,441,290,260,423,322,414,0,,,
2,1791321059504,3871,14256,10069,-196698,1270599,-2310292,0,0,0,132,57,94,130,67,158,182,120,126,91,49,105,0,,,
1,1791321059520,-454,-239,10145,226020,-42760,6108,0,0,0,333,270,291,343,237,382,430,257,255,417,299,429,0,,,
2,1791321059520,-258,10916,13151,-3604104,-537561,-623082,0,0,0,133,57,99,132,64,153,193,120,128,91,54,107,0,,,
1,1791321059536,-430,-263,10222,273667,-128281,18325,0,0,0,332,277,278,342,240,390,438,240,267,401,282,436,0,,,
2,1791321059536,3799,7705,8537,-3905872,-2013411,375071,0,0,0,136,56,97,135,64,153,193,113,131,91,58,105,0,,,
1,1791321059552,-483,-287,10174,315206,-194255,34208,0,0,0,337,280,263,348,245,396,423,200,259,389,249,445,0,,,
2,1791321059552,7489,6235,4211,-3780034,-1781283,763581,0,0,0,143,56,92,139,64,157,188,113,135,93,65,106,0,,,
1,1791321059568,-536,-325,10102,320093,-218689,35430,0,0,0,345,287,264,358,251,401,400,159,234,377,227,450,0,,,
2,1791321059568,6752,6360,4178,-4141666,-386066,851546,0,0,0,151,59,92,140,61,156,184,114,124,97,61,103,0,,,
1,1791321059584,-598,-363,10102,329867,-223576,37873,0,0,0,354,306,247,365,263,404,398,155,234,358,225,448,0,,,
2,1791321059584,4546,6384,5886,-4764748,590095,1028697,0,0,0,152,60,93,141,61,153,182,111,111,98,50,98,0,,,
1,1791321059600,-660,-435,10102,355523,-199142,54977,0,0,0,362,326,223,366,272,403,408,164,255,342,212,447,0,,,
2,1791321059600,3206,5786,7528,-5313305,836885,1275486,0,0,0,154,60,99,140,59,153,193,115,114,85,47,98,0,,,
1,1791321059616,-636,-536,9983,366519,-135612,64751,0,0,0,370,329,214,373,269,409,406,142,253,336,186,448,0,,,
2,1791321059616,3182,4824,8796,-5701816,939510,1474628,0,0,0,164,66,101,147,62,161,204,121,133,98,71,110,0,,,
1,1791321059632,-555,-617,9925,334754,-75747,59864,0,0,0,381,319,206,386,271,421,382,99,221,337,170,446,0,,,
2,1791321059632,3144,4077,10418,-6029239,1198517,1565036,0,0,0,203,95,115,176,83,172,202,126,125,109,63,118,0,,,
1,1791321059648,-545,-646,9983,299323,-51312,42760,0,0,0,392,327,203,395,283,427,355,98,213,334,166,447,0,,,
2,1791321059648,2775,3618,12376,-6302907,1430646,1525941,0,0,0,162,57,92,152,58,159,204,122,122,117,61,109,0,,,
1,1791321059664,-607,-674,10016,274889,-37873,31764,0,0,0,406,331,198,398,289,428,372,142,263,323,160,452,0,,,
2,1791321059664,2684,3125,14367,-6558249,1629788,1419650,0,0,0,161,53,90,154,66,164,205,118,131,103,57,114,0,,,
1,1791321059680,-703,-717,10011,259006,-37873,43982,0,0,0,406,328,189,403,287,433,397,106,243,323,154,453,0,,,
2,1791321059680,2689,2646,16434,-6801373,1899790,1248608,0,0,0,161,51,87,151,54,160,200,127,134,96,71,117,0,,,
1,1791321059696,-756,-741,10117,260228,-50090,80634,0,0,0,420,324,184,407,291,435,355,90,211,319,149,455,0,,,
2,1791321059696,2115,2144,19191,-7049384,2184454,1081231,0,0,0,159,55,91,151,58,160,191,102,120,112,59,119,0,,,
1,1791321059712,-746,-765,10294,293215,-78190,122173,0,0,0,420,332,175,408,303,437,379,97,228,312,144,454,0,,,
2,1791321059712,1172,1340,22933,-7231422,2227214,1067792,0,0,0,168,60,97,155,59,162,196,112,126,106,60,116,0,,,
1,1791321059728,-693,-808,10495,375071,-138055,160046,0,0,0,424,335,177,414,305,438,383,102,245,316,146,463,0,,,
2,1791321059728,325,-598,26829,-7376808,2218662,1284038,0,0,0,163,57,93,159,66,167,201,123,133,107,66,117,0,,,
1,1791321059744,-732,-856,10648,498466,-191811,193033,0,0,0,423,338,161,409,303,439,361,89,232,317,148,474,0,,,
2,1791321059744,-583,-4106,30337,-7445225,2201558,1584584,0,0,0,159,65,91,161,79,167,201,139,130,100,65,112,0,,,
1,1791321059760,-646,-923,10705,647517,-211359,223576,0,0,0,429,346,164,425,308,449,341,84,220,320,150,476,0,,,
2,1791321059760,-1421,-9739,33285,-7331604,1986533,1782504,0,0,0,161,62,92,160,70,167,207,130,128,103,59,104,0,,,
1,1791321059776,-497,-1038,10514,755029,-206472,218689,0,0,0,440,353,173,428,309,455,328,84,225,319,148,480,0,,,
2,1791321059776,-153,-17094,33768,-7029837,1203404,1668883,0,0,0,165,55,96,158,60,167,206,98,124,107,53,107,0,,,
1,1791321059792,-497,-1134,10648,840550,-204028,193033,0,0,0,451,346,177,419,309,451,330,88,239,320,146,489,0,,,
2,1791321059792,3369,-26350,30849,-6508158,438601,1434311,0,0,0,168,57,101,158,57,169,203,89,128,101,61,112,0,,,
1,1791321059808,-808,-1196,11667,1014036,-188146,179594,0,0,0,460,335,177,424,309,445,338,92,250,345,149,486,0,,,
2,1791321059808,6082,-38698,22770,-5275432,643851,1029918,0,0,0,168,61,103,158,59,171,207,106,136,100,70,110,0,,,
1,1791321059824,-885,-1253,12725,1298699,-171042,195476,0,0,0,464,335,179,430,307,446,327,91,250,361,152,483,0,,,
2,1791321059824,-2546,-50203,15764,-3225368,2091602,343306,0,0,0,162,61,93,162,70,174,209,121,133,110,63,110,0,,,
1,1791321059840,-607,-1349,13610,1734857,-178372,197920,0,0,0,466,332,184,414,305,448,298,88,235,321,148,509,0,,,
2,1791321059840,-17707,-55745,14113,-1045801,2282192,-21991,0,0,0,137,56,76,165,70,176,239,156,144,140,107,114,0,,,
1,1791321059856,-655,-1354,14596,2243097,-240680,158824,0,0,0,471,324,194,409,301,434,298,96,240,318,147,513,0,,,
2,1791321059856,-20445,-48398,17817,1237612,-271224,302989,0,0,0,106,59,63,152,75,176,298,236,150,207,214,150,0,,,
1,1791321059872,-1383,-1277,15898,2888170,-284663,168598,0,0,0,463,325,196,401,297,431,299,106,248,322,154,508,0,,,
2,1791321059872,-2220,-16266,16496,4465424,-3000570,89186,0,0,0,125,71,76,160,89,191,313,318,164,233,293,168,0,,,
1,1791321059888,-2536,-1110,17444,3733608,-240680,334754,0,0,0,448,321,197,400,297,423,237,84,217,318,159,486,0,,,
2,1791321059888,7843,6575,13567,6918659,-4321260,-436157,0,0,0,139,81,83,166,91,204,340,383,170,242,358,177,0,,,
1,1791321059904,-4067,-904,19387,4758640,-100181,636521,0,0,0,426,325,180,384,306,420,271,100,243,296,148,464,0,,,
2,1791321059904,2986,670,18774,6884451,-3086091,272445,0,0,0,144,71,87,166,77,208,392,387,187,271,391,203,0,,,
1,1791321059920,-5058,-626,22464,5979148,291993,1072679,0,0,0,386,321,172,372,308,405,229,91,205,270,142,441,0,,,
2,1791321059920,-3986,-5230,25647,5913175,-1492954,1028697,0,0,0,152,69,100,158,63,199,392,377,184,286,356,219,0,,,
1,1791321059936,-4647,-1225,26848,7258300,1086118,1367116,0,0,0,357,304,183,334,290,376,236,94,193,239,140,423,0,,,
2,1791321059936,-4302,-3675,22770,3944967,-814894,586430,0,0,0,175,63,101,172,55,206,435,357,193,294,341,226,0,,,
1,1791321059952,-3565,-2651,31653,8385957,1650557,1469741,0,0,0,310,277,180,286,257,332,249,98,183,218,130,407,0,,,
2,1791321059952,263,-512,12892,1704314,-722042,39095,0,0,0,200,70,113,187,66,218,419,345,226,314,368,248,0,,,
1,1791321059968,-4048,-2163,34520,9018814,2025629,1447750,0,0,0,247,234,182,254,218,296,263,100,175,208,121,342,0,,,
2,1791321059968,1426,14,8691,455705,-508239,18325,0,0,0,221,77,144,205,70,228,446,351,204,332,352,264,0,,,
1,1791321059984,-8049,1775,32873,9309586,2696359,1500285,0,0,0,208,200,185,243,190,277,270,102,171,214,127,278,0,,,
2,1791321059984,296,-502,9763,191811,-251676,103847,0,0,0,233,86,163,229,77,244,463,325,197,335,326,291,0,,,
1,1791321060000,-13864,10323,25963,9038362,2921157,1715309,0,0,0,206,193,178,247,181,269,276,106,169,221,136,258,0,,,
2,1791321060000,-19,-335,10543,218689,-160046,56199,0,0,0,247,104,178,229,94,250,470,297,210,331,303,316,0,,,
1,1791321060016,-13299,16616,14687,7104362,1674992,1825265,0,0,0,216,192,172,259,182,268,301,116,178,217,133,250,0,,,
2,1791321060016,339,9,10208,227241,-161268,-9773,0,0,0,263,115,188,235,113,258,484,270,211,336,275,335,0,,,
1,1791321060032,-8963,17846,8241,3343876,331088,1364672,0,0,0,220,192,166,259,182,261,250,101,162,215,132,241,0,,,
2,1791321060032,430,0,9959,195476,-135612,-9773,0,0,0,295,124,203,276,130,267,492,248,210,336,234,352,0,,,
1,1791321060048,-4929,13807,9011,-918741,-98960,205250,0,0,0,222,192,158,256,182,255,67,34,102,218,138,233,0,,,
2,1791321060048,368,-47,10040,193033,-75747,-8552,0,0,0,306,129,212,284,133,267,478,233,222,312,195,365,0,,,
1,1791321060064,-4369,9313,8820,-2776993,79412,-656069,0,0,0,222,192,157,256,183,255,320,132,178,217,138,235,0,,,
2,1791321060064,320,-86,10145,217468,-3665,-20769,0,0,0,289,118,203,252,131,273,463,209,230,286,177,377,0,,,
1,1791321060080,-5302,6838,5762,-2750115,102625,-888198,0,0,0,222,193,157,257,181,255,291,112,162,221,138,239,0,,,
2,1791321060080,363,-110,10064,232128,8552,-28099,0,0,0,305,118,206,261,144,283,457,194,234,264,162,395,0,,,
1,1791321060096,-3799,7059,4158,-3109304,-299323,-707381,0,0,0,215,192,156,247,178,256,270,102,149,222,135,240,0,,,
2,1791321060096,435,-167,9997,241902,-4886,-35430,0,0,0,320,125,208,257,144,294,440,177,236,229,135,401,0,,,
1,1791321060112,-1866,7178,5431,-4150218,-381179,-631634,0,0,0,223,192,152,257,181,252,257,99,137,222,138,234,0,,,
2,1791321060112,430,-205,10031,256563,-17104,-45204,0,0,0,330,136,210,257,149,294,424,153,244,205,100,411,0,,,
1,1791321060128,-1622,6192,7389,-5141041,-169820,-599869,0,0,0,225,191,145,264,185,251,55,19,27,237,145,236,0,,,
2,1791321060128,397,-234,10074,277332,-14660,-51312,0,0,0,339,137,208,263,151,296,408,151,234,205,100,431,0,,,
1,1791321060144,-2373,5001,8571,-5690820,-172263,-470366,0,0,0,227,192,147,262,184,254,88,34,34,227,140,233,0,,,
2,1791321060144,368,-268,10098,302989,-1221,-51312,0,0,0,343,136,190,263,161,300,393,135,248,187,63,439,0,,,
1,1791321060160,-2828,4130,9480,-5921727,-596204,-254119,0,0,0,223,191,152,262,184,258,170,77,116,219,137,236,0,,,
2,1791321060160,392,-320,10083,329867,13439,-43982,0,0,0,341,132,182,268,170,308,393,131,248,193,79,460,0,,,
1,1791321060176,-2163,3709,11136,-6211277,-1054353,-112399,0,0,0,222,191,160,263,184,263,106,45,89,218,137,240,0,,,
2,1791321060176,430,-373,10107,364075,48869,-41538,0,0,0,373,132,165,276,171,317,384,129,258,185,75,460,0,,,
1,1791321060192,-1488,3034,13395,-6597344,-1345125,-29321,0,0,0,218,192,166,261,184,266,141,51,89,217,136,240,0,,,
2,1791321060192,478,-411,10212,404392,122173,-47647,0,0,0,366,140,152,283,170,321,363,121,236,173,75,466,0,,,
1,1791321060208,-2048,2215,15553,-6860016,-1551597,69638,0,0,0,212,193,168,259,183,269,299,119,173,217,137,243,0,,,
2,1791321060208,540,-469,10318,450818,207694,-61086,0,0,0,369,142,134,285,177,318,357,113,241,178,73,479,0,,,
1,1791321060224,-2565,1397,17769,-6984633,-1890017,261450,0,0,0,211,195,171,259,184,273,290,115,172,218,140,246,0,,,
2,1791321060224,646,-550,10342,496022,260228,-84299,0,0,0,373,140,130,278,183,323,351,117,247,181,83,500,0,,,
1,1791321060240,-2220,636,20468,-7009067,-2251649,492357,0,0,0,211,195,175,257,183,280,259,103,160,215,136,250,0,,,
2,1791321060240,765,-636,10418,551000,276111,-113620,0,0,0,378,166,130,284,206,328,348,124,245,188,90,519,0,,,
1,1791321060256,-1541,-9,24259,-7043276,-2439795,585208,0,0,0,208,195,177,252,181,283,298,120,186,217,137,254,0,,,
2,1791321060256,890,-708,10586,627969,284663,-151494,0,0,0,392,169,130,292,212,335,349,130,249,195,93,532,0,,,
1,1791321060272,-856,-1330,28403,-7138571,-2618168,482583,0,0,0,208,197,176,259,184,275,195,71,119,220,136,249,0,,,
2,1791321060272,818,-756,10854,746477,273667,-194255,0,0,0,409,154,134,293,204,341,336,130,238,195,88,542,0,,,
1,1791321060288,344,-5082,32438,-7293730,-2987131,92851,0,0,0,200,197,174,259,188,274,227,95,156,215,134,247,0,,,
2,1791321060288,847,-866,10959,894306,213802,-212581,0,0,0,418,166,131,297,214,345,323,128,228,203,84,552,0,,,
1,1791321060304,3326,-12294,34960,-7380473,-3457497,-474031,0,0,0,187,198,176,241,184,272,307,126,193,212,133,247,0,,,
2,1791321060304,938,-1052,10926,1065348,175929,-239459,0,0,0,417,196,128,297,223,348,315,131,236,207,88,568,0,,,
1,1791321060320,5747,-19506,34902,-7219205,-3169168,-977384,0,0,0,184,198,175,239,182,273,324,131,200,212,132,246,0,,,
2,1791321060320,875,-1172,11016,1211956,190589,-257785,0,0,0,423,229,139,282,217,348,294,132,235,198,89,591,0,,,
1,1791321060336,1708,-30385,29150,-6199060,-2031737,-1351233,0,0,0,189,207,183,256,191,290,304,118,191,213,136,258,0,,,
2,1791321060336,976,-1263,11548,1384220,197920,-266337,0,0,0,435,239,142,280,220,349,290,135,242,206,101,604,0,,,
1,1791321060352,-2048,-42847,19918,-4572937,-2252871,-744033,0,0,0,192,212,187,264,195,296,292,115,188,217,141,264,0,,,
2,1791321060352,1124,-1325,12419,1639562,177150,-284663,0,0,0,450,222,154,274,202,348,286,138,238,208,105,606,0,,,
1,1791321060368,10323,-51887,13213,-2820975,-3558900,561996,0,0,0,187,210,184,252,192,290,289,114,185,219,142,261,0,,,
2,1791321060368,698,-1320,13108,2002416,134390,-277332,0,0,0,470,173,162,266,178,343,272,123,234,199,103,624,0,,,
1,1791321060384,29313,-52055,11409,-709825,-1916895,382401,0,0,0,173,198,162,245,190,273,294,152,176,245,200,233,0,,,
2,1791321060384,540,-1359,13869,2412917,114842,-223576,0,0,0,458,176,150,247,155,327,264,123,234,188,86,593,0,,,
1,1791321060400,23436,-42148,14395,1440420,1494176,-1142317,0,0,0,159,179,127,250,183,262,297,217,165,288,290,209,0,,,
2,1791321060400,1435,-1536,14888,2962696,98960,-195476,0,0,0,458,181,156,243,147,335,263,136,250,178,85,593,0,,,
1,1791321060416,-1837,-5829,18478,3922976,3064100,-1580919,0,0,0,164,171,105,259,171,274,306,262,166,316,344,223,0,,,
2,1791321060416,2230,-1622,15635,3633426,21991,-324980,0,0,0,429,177,146,238,144,324,232,124,245,169,72,555,0,,,
1,1791321060432,-11433,19416,14390,5864306,3688404,-904080,0,0,0,184,186,103,277,181,282,357,323,174,346,413,229,0,,,
2,1791321060432,2904,-1631,16764,4431216,-147829,-511905,0,0,0,390,180,142,230,150,328,185,109,214,160,70,530,0,,,
1,1791321060448,-4446,4982,12945,6223495,3037221,-1001818,0,0,0,198,191,122,290,194,300,361,337,167,390,437,260,0,,,
2,1791321060448,5049,-1847,17764,5313305,-427605,-831998,0,0,0,357,195,139,232,162,320,170,103,200,160,92,472,0,,,
1,1791321060464,5331,-7690,21555,6010913,1419650,-1742187,0,0,0,203,176,161,288,180,304,385,321,174,415,443,272,0,,,
2,1791321060464,6202,-2723,20861,6296798,-648738,-1284038,0,0,0,330,193,135,221,170,293,170,113,188,148,91,418,0,,,
1,1791321060480,6637,-4388,25651,5191132,836885,-873537,0,0,0,220,176,184,308,165,308,403,305,173,449,444,286,0,,,
2,1791321060480,5307,-4733,28623,7269296,-477696,-1576032,0,0,0,289,175,125,191,157,256,191,131,175,129,78,348,0,,,
1,1791321060496,153,-167,16707,3045774,862541,70860,0,0,0,231,176,197,317,183,339,418,317,192,449,444,295,0,,,
2,1791321060496,4000,-4192,34749,8085412,-237015,-1734857,0,0,0,239,120,116,160,118,218,185,122,155,125,74,286,0,,,
1,1791321060512,-1928,-196,9786,1050688,596204,-3665,0,0,0,262,195,220,326,206,347,415,297,190,442,411,314,0,,,
2,1791321060512,4843,952,35415,8877093,-464257,-1880243,0,0,0,174,69,97,138,82,173,179,116,135,105,65,174,0,,,
1,1791321060528,-473,-1033,9542,272445,249233,-206472,0,0,0,283,213,245,345,229,361,411,274,194,445,391,347,0,,,
2,1791321060528,8743,8054,29236,9589362,-676838,-2172236,0,0,0,129,60,82,131,69,151,186,119,125,80,49,84,0,,,
1,1791321060544,23,-655,10413,153938,89186,-113620,0,0,0,290,263,275,341,245,377,416,260,217,444,365,378,0,,,
2,1791321060544,11677,14950,16664,9138543,-166155,-2687807,0,0,0,130,65,86,135,70,160,176,111,118,87,49,101,0,,,
1,1791321060560,-454,-157,10390,252898,95294,21991,0,0,0,314,287,286,343,249,380,433,275,246,437,338,405,0,,,
2,1791321060560,10222,17635,5364,5685933,829554,-3222925,0,0,0,137,56,89,134,66,155,167,108,113,100,67,104,0,,,
1,1791321060576,-612,-167,10117,262672,70860,42760,0,0,0,343,296,281,362,257,389,420,227,226,437,316,425,0,,,
2,1791321060576,5254,16530,8092,9773,1084896,-2868623,0,0,0,138,51,88,134,66,154,181,105,113,84,69,98,0,,,
1,1791321060592,-464,-311,10122,248011,-10995,20769,0,0,0,363,310,282,367,265,396,423,214,230,429,295,438,0,,,
2,1791321060592,1990,12792,12620,-4109901,433714,-1912008,0,0,0,138,53,87,129,63,149,185,121,120,70,58,85,0,,,
1,1791321060608,-406,-306,10246,298102,-103847,32986,0,0,0,373,320,287,361,266,399,446,239,271,408,260,450,0,,,
2,1791321060608,2948,8131,10567,-4734205,-521678,-974940,0,0,0,138,55,95,134,66,158,191,117,129,93,51,112,0,,,
1,1791321060624,-411,-315,10251,348193,-180816,42760,0,0,0,380,314,269,374,269,413,429,179,263,393,216,460,0,,,
2,1791321060624,4326,6154,6905,-4432438,-845437,-419053,0,0,0,141,55,96,140,67,162,188,109,113,92,57,96,0,,,
1,1791321060640,-488,-373,10184,378736,-241902,35430,0,0,0,384,310,242,383,274,425,403,144,247,373,208,450,0,,,
2,1791321060640,4489,6173,5848,-4572937,-643851,30543,0,0,0,141,49,92,140,65,158,193,109,123,84,29,86,0,,,
1,1791321060656,-593,-445,10150,398284,-262672,35430,0,0,0,388,308,225,394,276,426,396,117,241,350,178,447,0,,,
2,1791321060656,4245,6082,7336,-5302310,-306654,631634,0,0,0,149,62,101,136,58,155,201,118,128,106,75,118,0,,,
1,1791321060672,-612,-531,10117,436157,-229685,53756,0,0,0,394,307,206,402,282,443,405,126,270,347,158,446,0,,,
2,1791321060672,4508,5321,8509,-5811771,2443,1158200,0,0,0,138,57,99,136,61,158,201,117,135,107,56,116,0,,,
1,1791321060688,-603,-598,10160,464257,-189368,59864,0,0,0,391,310,181,402,284,434,370,94,233,323,145,453,0,,,
2,1791321060688,4747,4398,9351,-5987701,423940,1534493,0,0,0,135,58,96,139,64,161,203,120,129,102,56,108,0,,,
1,1791321060704,-607,-665,10251,487470,-200363,56199,0,0,0,398,307,182,410,288,445,395,106,256,323,145,450,0,,,
2,1791321060704,4527,3742,10782,-6125756,890641,1813048,0,0,0,135,58,97,140,63,163,202,120,130,94,56,107,0,,,
1,1791321060720,-660,-741,10284,497244,-285884,50090,0,0,0,404,314,177,412,293,439,345,88,221,311,141,453,0,,,
2,1791321060720,4240,3306,12979,-6378654,1182635,1957212,0,0,0,131,55,97,136,62,163,198,120,130,69,34,98,0,,,
1,1791321060736,-760,-789,10313,498466,-340862,56199,0,0,0,411,318,171,423,296,440,378,98,241,300,135,454,0,,,
2,1791321060736,4680,2522,15343,-6663318,1341460,1927890,0,0,0,128,53,98,136,63,164,196,119,128,74,34,98,0,,,
1,1791321060752,-842,-847,10361,515570,-343306,74525,0,0,0,415,327,165,424,299,434,403,111,260,301,139,458,0,,,
2,1791321060752,5058,1569,17573,-6869790,1584584,1771509,0,0,0,126,51,96,138,63,164,199,119,132,96,54,112,0,,,
1,1791321060768,-894,-938,10366,554665,-299323,101403,0,0,0,414,316,165,414,296,433,373,99,249,302,140,462,0,,,
2,1791321060768,4833,722,20296,-7023728,1907121,1549154,0,0,0,124,52,93,139,63,164,204,122,136,87,52,110,0,,,
1,1791321060784,-837,-1019,10471,602313,-266337,127059,0,0,0,411,305,165,405,291,432,359,91,244,299,140,466,0,,,
2,1791321060784,4283,234,24005,-7192327,2108706,1448972,0,0,0,125,57,101,138,65,164,201,119,129,86,47,104,0,,,
1,1791321060800,-804,-1105,10605,692721,-257785,139277,0,0,0,419,312,168,401,291,434,361,93,249,299,141,471,0,,,
2,1791321060800,3756,-1201,28030,-7442782,2204001,1507615,0,0,0,128,60,105,137,62,166,198,117,127,87,48,107,0,,,
1,1791321060816,-981,-1201,10653,799011,-272445,157603,0,0,0,431,317,171,405,294,442,344,88,245,307,142,475,0,,,
2,1791321060816,3115,-5637,30988,-7573507,2221106,1698205,0,0,0,122,58,98,145,68,172,200,117,134,85,60,108,0,,,
1,1791321060832,-1162,-1311,10710,929736,-307876,204028,0,0,0,437,311,169,417,299,448,324,79,237,319,147,482,0,,,
2,1791321060832,2474,-11864,32586,-7384139,2175901,1733635,0,0,0,122,59,100,139,65,174,211,117,138,92,63,111,0,,,
1,1791321060848,-1038,-1459,10701,1077566,-348193,251676,0,0,0,443,309,177,423,297,448,316,82,241,319,143,488,0,,,
2,1791321060848,2153,-18664,32127,-6828251,1877799,1429424,0,0,0,123,59,92,144,59,175,201,105,132,92,49,120,0,,,
1,1791321060864,-885,-1603,10763,1211956,-383623,271224,0,0,0,449,326,181,429,307,452,367,108,281,309,143,498,0,,,
2,1791321060864,2756,-26298,27968,-5863084,1563815,1003040,0,0,0,131,70,99,148,61,175,214,110,143,95,37,100,0,,,
1,1791321060880,-918,-1727,11198,1359786,-392175,260228,0,0,0,462,314,189,432,299,466,332,92,271,320,143,507,0,,,
2,1791321060880,2608,-37252,21368,-4610810,1925447,381179,0,0,0,121,68,100,141,60,179,215,126,150,109,56,120,0,,,
1,1791321060896,-1048,-1818,12127,1587027,-350636,244346,0,0,0,469,321,192,422,315,464,282,77,240,313,154,513,0,,,
2,1791321060896,-4694,-50471,15376,-3059213,2891836,-788016,0,0,0,120,62,98,142,58,174,211,115,136,91,52,122,0,,,
1,1791321060912,-1028,-1895,13333,1954768,-304210,227241,0,0,0,479,319,188,422,320,454,289,86,250,317,154,519,0,,,
2,1791321060912,-17980,-54170,14448,-1207069,2228436,-1418429,0,0,0,114,55,92,144,61,172,230,132,144,131,92,115,0,,,
1,1791321060928,-1182,-1895,14754,2524095,-296880,210137,0,0,0,474,316,180,426,347,447,281,89,253,325,157,524,0,,,
2,1791321060928,-19502,-45446,15764,1020144,-313984,-995710,0,0,0,100,51,73,145,69,172,290,202,148,181,161,122,0,,,
1,1791321060944,-1837,-1828,15979,3207042,-302989,248011,0,0,0,468,327,166,414,343,428,268,90,254,314,159,520,0,,,
2,1791321060944,-4508,-16003,17755,3406184,-2637716,-135612,0,0,0,113,65,76,154,80,186,313,253,157,204,228,138,0,,,
1,1791321060960,-2440,-1670,16937,4041484,-326202,389732,0,0,0,449,328,167,417,329,428,259,87,247,313,161,496,0,,,
2,1791321060960,6135,9447,13079,5723807,-4146553,443488,0,0,0,131,74,84,173,83,203,334,315,165,228,287,165,0,,,
1,1791321060976,-2952,-1378,19195,5169141,-316428,619417,0,0,0,418,328,164,409,317,439,261,96,265,292,152,463,0,,,
2,1791321060976,5173,5642,11524,7000515,-3905872,1122770,0,0,0,139,73,90,176,78,212,377,388,178,256,329,194,0,,,
1,1791321060992,-3819,-1588,22947,6428745,-46425,864985,0,0,0,388,324,165,386,302,426,236,94,246,277,145,434,0,,,
2,1791321060992,-4187,-5900,22713,6882007,-2410474,1714087,0,0,0,146,76,98,166,71,208,414,416,188,273,354,205,0,,,
1,1791321061008,-4532,-3780,28537,7659028,465479,1000597,0,0,0,353,307,173,350,287,393,129,50,155,257,139,414,0,,,
2,1791321061008,-7461,-5733,28475,5497787,-1715309,1023810,0,0,0,158,76,104,167,66,200,432,395,181,293,371,202,0,,,
1,1791321061024,-5273,-5312,32916,8546004,529009,1076344,0,0,0,306,277,182,305,264,357,80,26,99,214,124,398,0,,,
2,1791321061024,-1244,-1253,17535,2579073,-1258382,83077,0,0,0,172,65,110,185,66,202,444,373,179,326,359,216,0,,,
1,1791321061040,-5374,-2785,34668,9156869,579100,1290147,0,0,0,252,237,192,267,219,316,220,80,154,200,118,347,0,,,
2,1791321061040,1742,-52,9112,647517,-693942,6108,0,0,0,202,65,131,217,75,216,461,349,187,357,327,260,0,,,
1,1791321061056,-8705,3455,33438,9505063,1036027,1610240,0,0,0,203,194,185,242,179,276,257,100,163,213,130,249,0,,,
2,1791321061056,741,-655,8293,113620,-287106,191811,0,0,0,240,90,167,218,87,236,453,318,188,387,321,301,0,,,
1,1791321061072,-13754,12792,26647,8996823,883311,2106263,0,0,0,213,191,184,262,184,281,265,106,178,214,128,248,0,,,
2,1791321061072,-14,-598,10189,249233,-239459,106290,0,0,0,282,112,191,230,108,251,451,299,193,385,294,335,0,,,
1,1791321061088,-13706,20612,14151,6497162,-384845,2911383,0,0,0,212,181,183,254,171,278,283,106,182,212,122,255,0,,,
