sole_id,timestamp,accel_x,accel_y,accel_z,gyro_x,gyro_y,gyro_z,magn_x,magn_y,magn_z,pressure_01,pressure_02,pressure_03,pressure_04,pressure_05,pressure_06,pressure_07,pressure_08,pressure_09,pressure_10,pressure_11,pressure_12,corrupt,asphalt
1,1779205293072,-1574,134,9882,17104,-64751,1221,0,0,0,332,312,311,371,256,422,672,592,341,544,538,297,0,
1,1779205293088,-1579,134,9887,17104,-63529,1221,0,0,0,329,304,308,373,256,423,672,590,342,543,539,297,0,
2,1779205293088,-105,464,10011,29321,-35430,10995,0,0,0,338,251,231,363,232,349,458,371,281,394,350,184,0,
1,1779205293104,-1574,124,9897,18325,-64751,0,0,0,0,332,308,310,377,259,426,669,588,337,546,540,297,0,
2,1779205293104,-110,454,10016,28099,-36651,10995,0,0,0,338,252,232,361,235,347,462,368,280,392,352,184,0,
1,1779205293120,-1574,124,9897,19547,-65973,0,0,0,0,332,308,309,373,258,422,673,587,343,545,540,300,0,
2,1779205293120,-110,454,10016,28099,-36651,10995,0,0,0,338,251,234,363,249,339,463,366,281,393,353,185,0,
1,1779205293136,-1579,129,9897,20769,-65973,0,0,0,0,333,308,312,375,259,428,673,586,344,545,540,300,0,
2,1779205293136,-110,459,10021,26878,-37873,10995,0,0,0,342,255,237,362,241,341,464,362,277,393,351,187,0,
1,1779205293152,-1574,129,9897,20769,-65973,0,0,0,0,332,308,311,380,262,428,668,587,351,568,539,303,0,
2,1779205293152,-114,464,10011,26878,-39095,10995,0,0,0,342,256,239,362,229,346,467,359,274,392,350,188,0,
1,1779205293168,-1569,129,9897,21991,-67195,0,0,0,0,335,310,312,383,263,433,672,583,347,545,537,303,0,
2,1779205293168,-110,464,10011,26878,-39095,10995,0,0,0,340,253,237,364,229,348,469,360,278,394,351,186,0,
1,1779205293184,-1569,124,9897,21991,-67195,2443,0,0,0,334,309,310,378,258,429,670,585,347,544,541,306,0,
2,1779205293184,-110,459,10016,28099,-37873,10995,0,0,0,342,253,236,364,230,349,468,361,280,395,349,184,0,
1,1779205293200,-1569,119,9901,21991,-67195,3665,0,0,0,345,311,311,379,260,431,672,588,348,544,541,307,0,
2,1779205293200,-114,459,10026,30543,-36651,10995,0,0,0,342,251,237,366,230,351,465,360,280,397,349,185,0,
1,1779205293216,-1569,119,9906,21991,-65973,3665,0,0,0,345,311,312,379,259,432,670,579,348,542,535,307,0,
2,1779205293216,-110,459,10026,31764,-36651,10995,0,0,0,343,248,238,363,227,349,466,363,282,400,351,190,0,
1,1779205293232,-1579,119,9906,21991,-65973,2443,0,0,0,344,308,311,381,256,430,671,575,347,543,534,309,0,
2,1779205293232,-110,464,10016,31764,-36651,10995,0,0,0,348,241,233,368,229,349,466,364,280,401,350,185,0,
1,1779205293248,-1584,124,9906,21991,-67195,2443,0,0,0,345,308,309,382,256,429,676,575,349,545,536,315,0,
2,1779205293248,-110,464,10011,31764,-37873,10995,0,0,0,338,247,233,366,236,352,466,365,279,404,351,189,0,
1,1779205293264,-1579,119,9901,21991,-67195,2443,0,0,0,347,307,309,383,258,431,674,567,348,548,536,319,0,
2,1779205293264,-110,459,10011,32986,-37873,10995,0,0,0,336,247,240,366,237,357,466,366,283,408,353,193,0,
1,1779205293280,-1579,110,9901,23212,-67195,3665,0,0,0,350,308,310,386,260,431,670,558,347,550,533,320,0,
2,1779205293280,-110,449,10016,35430,-37873,10995,0,0,0,337,251,242,368,240,364,466,366,284,403,350,197,0,
1,1779205293296,-1579,110,9901,24434,-68416,3665,0,0,0,349,311,313,390,259,434,677,560,359,549,526,320,0,
2,1779205293296,-105,449,10011,36651,-37873,10995,0,0,0,336,250,240,361,237,364,463,359,284,403,339,198,0,
1,1779205293312,-1579,105,9906,26878,-68416,3665,0,0,0,345,308,310,393,260,435,678,558,363,549,521,327,0,
2,1779205293312,-105,449,10011,36651,-36651,9773,0,0,0,339,251,237,362,237,366,460,363,291,415,330,206,0,
1,1779205293328,-1579,105,9901,28099,-67195,3665,0,0,0,335,318,310,390,261,435,671,547,359,545,516,331,0,
2,1779205293328,-114,454,10016,36651,-36651,9773,0,0,0,338,249,234,371,251,371,466,355,289,407,329,204,0,
1,1779205293344,-1574,100,9901,29321,-65973,4886,0,0,0,346,313,317,392,254,438,665,537,355,546,525,325,0,
2,1779205293344,-119,454,10026,37873,-36651,9773,0,0,0,339,251,231,366,247,364,472,348,276,407,330,210,0,
1,1779205293360,-1574,100,9901,30543,-65973,6108,0,0,0,346,312,315,397,256,436,665,530,372,549,520,325,0,
2,1779205293360,-114,454,10031,37873,-35430,9773,0,0,0,341,258,232,362,246,358,476,343,271,406,332,215,0,
1,1779205293376,-1574,100,9901,30543,-65973,6108,0,0,0,342,310,314,404,256,441,665,524,382,549,512,328,0,
2,1779205293376,-105,449,10031,37873,-34208,9773,0,0,0,341,263,236,361,249,360,479,341,271,403,335,213,0,
1,1779205293392,-1574,86,9897,28099,-67195,4886,0,0,0,341,310,314,405,258,439,616,494,409,550,508,345,0,
2,1779205293392,-105,449,10026,35430,-34208,9773,0,0,0,343,264,242,363,246,366,477,344,272,404,338,207,0,
1,1779205293408,-1574,86,9897,24434,-68416,3665,0,0,0,341,311,313,409,263,440,655,517,386,548,511,350,0,
2,1779205293408,-105,459,10021,32986,-35430,9773,0,0,0,345,264,247,367,244,371,473,350,279,405,341,198,0,
1,1779205293424,-1574,86,9901,20769,-68416,2443,0,0,0,344,315,315,405,262,437,671,529,385,546,514,344,0,
2,1779205293424,-95,454,10021,29321,-35430,9773,0,0,0,339,261,248,362,245,373,475,352,283,402,341,195,0,
1,1779205293440,-1574,90,9906,17104,-68416,0,0,0,0,341,314,314,404,261,436,669,527,380,547,519,348,0,
2,1779205293440,-95,449,10021,25656,-36651,9773,0,0,0,342,260,247,362,243,372,475,350,280,401,340,192,0,
1,1779205293456,-1579,95,9911,15882,-67195,0,0,0,0,342,313,313,403,261,434,667,528,379,545,520,349,0,
2,1779205293456,-105,445,10026,23212,-37873,9773,0,0,0,342,259,246,364,245,372,475,350,277,399,336,188,0,
1,1779205293472,-1579,100,9911,12217,-67195,0,0,0,0,344,314,315,402,260,433,668,531,382,546,522,351,0,
2,1779205293472,-110,445,10026,21991,-39095,9773,0,0,0,341,255,250,363,242,372,475,351,279,403,340,192,0,
1,1779205293488,-1579,90,9911,9773,-67195,0,0,0,0,344,315,317,402,260,433,668,532,381,546,524,351,0,
2,1779205293488,-114,445,10026,20769,-39095,10995,0,0,0,340,254,245,364,242,371,477,350,276,403,340,187,0,
1,1779205293504,-1569,90,9911,7330,-65973,0,0,0,0,343,316,316,403,261,435,668,534,378,546,528,351,0,
2,1779205293504,-105,449,10026,19547,-40317,10995,0,0,0,340,258,246,363,242,367,479,350,271,398,340,185,0,
1,1779205293520,-1569,90,9901,6108,-65973,0,0,0,0,340,315,315,404,264,436,669,534,377,549,532,353,0,
2,1779205293520,-105,449,10016,17104,-40317,9773,0,0,0,341,255,247,361,240,367,478,353,280,397,346,187,0,
1,1779205293536,-1569,95,9901,4886,-65973,0,0,0,0,343,317,321,402,263,436,666,533,377,547,527,349,0,
2,1779205293536,-114,449,10016,14660,-42760,10995,0,0,0,345,257,247,361,236,363,476,356,278,400,350,187,0,
1,1779205293552,-1574,100,9906,4886,-64751,0,0,0,0,343,315,325,401,265,437,664,531,373,547,527,352,0,
2,1779205293552,-119,454,10026,10995,-42760,10995,0,0,0,342,252,244,367,233,364,479,354,277,400,347,187,0,
1,1779205293568,-1579,100,9911,4886,-64751,0,0,0,0,347,317,333,398,262,437,663,528,371,545,526,350,0,
2,1779205293568,-119,464,10031,9773,-41538,12217,0,0,0,344,246,245,371,222,363,484,354,275,400,348,184,0,
1,1779205293584,-1574,100,9911,3665,-64751,0,0,0,0,342,315,331,396,259,439,666,532,374,546,527,346,0,
2,1779205293584,-110,483,10031,12217,-39095,10995,0,0,0,345,245,246,371,217,361,480,352,273,400,348,185,0,
1,1779205293600,-1574,100,9911,3665,-64751,0,0,0,0,342,315,330,399,260,440,667,535,370,550,529,349,0,
2,1779205293600,-110,473,10026,18325,-39095,9773,0,0,0,350,250,246,369,228,361,478,355,274,403,348,181,0,
1,1779205293616,-1574,100,9911,3665,-63529,0,0,0,0,342,314,330,397,259,439,667,538,369,549,527,344,0,
2,1779205293616,-110,469,10021,20769,-39095,9773,0,0,0,354,254,244,370,232,358,477,358,275,412,354,177,0,
1,1779205293632,-1579,105,9911,6108,-63529,0,0,0,0,343,314,334,397,260,441,661,534,358,548,527,346,0,
2,1779205293632,-110,459,10021,21991,-41538,9773,0,0,0,352,256,242,368,232,355,477,358,273,411,364,178,0,
1,1779205293648,-1574,105,9911,6108,-63529,0,0,0,0,343,313,334,395,261,438,660,534,355,548,529,340,0,
2,1779205293648,-110,459,10021,21991,-42760,9773,0,0,0,347,260,241,363,237,354,481,358,272,401,368,186,0,
1,1779205293664,-1569,105,9916,6108,-62308,0,0,0,0,344,313,337,395,259,438,664,539,358,549,529,331,0,
2,1779205293664,-110,464,10026,19547,-42760,9773,0,0,0,346,256,238,365,235,355,484,352,271,408,359,196,0,
1,1779205293680,-1574,110,9916,10995,-62308,0,0,0,0,346,313,338,396,258,439,660,537,353,548,529,322,0,
2,1779205293680,-119,464,10031,20769,-41538,9773,0,0,0,348,253,237,362,228,352,487,363,270,409,355,203,0,
1,1779205293696,-1579,110,9916,14660,-62308,0,0,0,0,346,314,338,396,257,439,658,538,352,548,529,320,0,
2,1779205293696,-124,469,10035,23212,-39095,8552,0,0,0,347,256,240,362,234,356,484,362,269,396,364,208,0,
1,1779205293712,-1574,110,9911,18325,-62308,0,0,0,0,347,314,338,396,257,439,654,541,362,553,531,322,0,
2,1779205293712,-119,473,10026,26878,-39095,8552,0,0,0,349,256,240,364,234,358,484,361,273,389,362,211,0,
1,1779205293728,-1569,105,9906,17104,-62308,0,0,0,0,350,312,339,399,258,439,647,536,364,560,531,321,0,
2,1779205293728,-114,473,10021,29321,-39095,8552,0,0,0,346,256,237,360,235,358,482,348,277,380,355,209,0,
1,1779205293744,-1569,105,9911,15882,-61086,0,0,0,0,350,310,338,401,256,439,657,541,354,565,531,319,0,
2,1779205293744,-114,473,10021,30543,-39095,9773,0,0,0,350,256,238,367,239,360,481,354,285,383,351,207,0,
1,1779205293760,-1564,105,9911,15882,-61086,0,0,0,0,353,311,340,401,256,440,654,540,350,568,531,318,0,
2,1779205293760,-119,473,10035,30543,-40317,8552,0,0,0,350,258,237,364,240,362,481,352,286,384,354,207,0,
1,1779205293776,-1560,110,9911,17104,-61086,1221,0,0,0,355,309,342,401,256,441,641,536,348,568,531,316,0,
2,1779205293776,-119,473,10035,29321,-40317,8552,0,0,0,350,258,232,364,237,361,481,360,287,386,354,206,0,
1,1779205293792,-1555,110,9916,18325,-61086,2443,0,0,0,358,309,342,402,256,442,642,537,348,572,531,312,0,
2,1779205293792,-119,478,10040,25656,-41538,8552,0,0,0,352,255,232,367,236,363,477,361,285,395,349,203,0,
1,1779205293808,-1555,105,9906,18325,-59864,2443,0,0,0,358,311,341,400,252,437,640,537,341,581,528,314,0,
2,1779205293808,-119,478,10035,21991,-42760,8552,0,0,0,350,254,229,365,236,364,484,372,290,396,348,198,0,
1,1779205293824,-1555,105,9901,19547,-57421,1221,0,0,0,357,305,336,398,247,438,647,531,336,576,525,314,0,
2,1779205293824,-119,478,10035,19547,-43982,8552,0,0,0,346,254,229,361,237,364,491,389,292,386,352,194,0,
1,1779205293840,-1545,100,9906,17104,-54977,0,0,0,0,352,302,331,394,279,429,635,524,330,578,527,316,0,
2,1779205293840,-134,483,10035,17104,-46425,10995,0,0,0,347,255,231,364,238,366,490,389,291,379,367,183,0,
1,1779205293856,-1545,95,9906,15882,-52534,0,0,0,0,350,310,333,396,250,435,629,524,330,570,530,317,0,
2,1779205293856,-134,478,10035,15882,-46425,10995,0,0,0,350,255,231,368,238,364,490,386,289,380,378,173,0,
1,1779205293872,-1545,90,9906,13439,-50090,0,0,0,0,348,304,333,396,242,436,629,527,338,563,533,314,0,
2,1779205293872,-138,478,10031,14660,-46425,12217,0,0,0,348,253,227,364,236,357,492,390,288,380,379,172,0,
1,1779205293888,-1550,90,9906,10995,-47647,0,0,0,0,353,309,332,396,246,431,627,526,335,574,533,312,0,
2,1779205293888,-134,478,10026,13439,-46425,13439,0,0,0,344,251,225,355,229,351,487,389,288,376,391,170,0,
1,1779205293904,-1541,95,9906,9773,-47647,0,0,0,0,353,314,332,397,249,430,623,526,330,573,536,313,0,
2,1779205293904,-134,473,10031,9773,-45204,15882,0,0,0,344,244,230,350,219,350,484,383,289,377,399,163,0,
1,1779205293920,-1531,100,9911,9773,-46425,0,0,0,0,350,315,332,397,251,435,619,527,331,566,536,318,0,
2,1779205293920,-134,478,10035,7330,-43982,17104,0,0,0,344,234,229,351,201,347,484,374,286,383,394,167,0,
1,1779205293936,-1531,100,9916,9773,-46425,0,0,0,0,353,317,333,397,254,433,614,528,331,567,536,319,0,
2,1779205293936,-134,492,10035,6108,-43982,17104,0,0,0,342,230,227,353,210,343,484,391,280,400,398,161,0,
1,1779205293952,-1531,100,9920,9773,-48869,-1221,0,0,0,357,322,337,397,258,429,611,527,330,572,537,316,0,
2,1779205293952,-134,497,10031,8552,-43982,17104,0,0,0,344,233,227,346,204,334,484,395,281,391,384,162,0,
1,1779205293968,-1531,105,9916,9773,-52534,-1221,0,0,0,357,322,339,397,263,432,611,527,329,574,537,315,0,
2,1779205293968,-129,502,10031,13439,-42760,17104,0,0,0,344,230,233,343,200,332,487,382,286,383,391,158,0,
1,1779205293984,-1526,100,9911,8552,-56199,-1221,0,0,0,355,317,338,399,258,434,611,529,324,573,539,312,0,
2,1779205293984,-134,502,10040,19547,-40317,15882,0,0,0,349,230,231,346,193,328,485,383,278,393,386,154,0,
1,1779205294000,-1512,100,9916,7330,-61086,-2443,0,0,0,352,314,337,396,254,431,611,529,328,573,539,312,0,
2,1779205294000,-134,502,10040,23212,-37873,15882,0,0,0,346,231,230,344,196,329,486,387,275,392,386,153,0,
1,1779205294016,-1507,105,9920,2443,-65973,-2443,0,0,0,352,315,341,397,254,434,611,528,326,569,539,313,0,
2,1779205294016,-129,516,10040,28099,-36651,14660,0,0,0,340,236,230,342,201,330,485,389,273,384,391,154,0,
1,1779205294032,-1521,114,9925,0,-69638,-3665,0,0,0,352,315,341,394,255,427,611,529,325,573,546,321,0,
2,1779205294032,-129,516,10040,30543,-32986,12217,0,0,0,332,247,226,340,222,332,482,395,276,378,392,156,0,
1,1779205294048,-1526,114,9916,0,-69638,-3665,0,0,0,352,314,342,396,256,433,614,535,325,574,550,319,0,
2,1779205294048,-129,502,10035,35430,-29321,8552,0,0,0,329,242,220,345,218,336,487,390,283,378,379,160,0,
1,1779205294064,-1526,119,9911,0,-65973,-2443,0,0,0,352,314,342,397,261,434,618,536,329,582,545,324,0,
2,1779205294064,-134,507,10031,47647,-25656,4886,0,0,0,332,235,220,356,209,352,490,371,289,373,362,170,0,
1,1779205294080,-1526,124,9901,1221,-62308,-1221,0,0,0,355,318,340,402,266,442,623,535,332,584,545,325,0,
2,1779205294080,-114,531,10031,81855,-15882,0,0,0,0,329,242,225,361,225,369,482,351,295,361,331,186,0,
1,1779205294096,-1541,134,9892,10995,-57421,0,0,0,0,359,327,343,406,262,438,630,532,332,585,541,321,0,
2,1779205294096,-100,526,10064,134390,0,-3665,0,0,0,316,252,236,356,242,377,472,322,297,340,280,204,0,
1,1779205294112,-1545,134,9887,30543,-51312,0,0,0,0,367,331,342,414,267,444,631,531,338,595,552,331,0,
2,1779205294112,-76,488,10126,183259,24434,-8552,0,0,0,315,255,249,362,241,399,470,256,299,313,224,231,0,
1,1779205294128,-1521,110,9887,39095,-43982,0,0,0,0,372,336,344,424,270,444,631,537,351,602,552,328,0,
2,1779205294128,-9,454,10203,239459,53756,-21991,0,0,0,322,255,239,375,250,430,451,187,316,308,171,267,0,
1,1779205294144,-1502,95,9887,31764,-36651,0,0,0,0,371,337,350,429,278,447,634,545,364,600,547,332,0,
2,1779205294144,62,440,10327,313984,90408,-51312,0,0,0,327,267,222,389,266,413,439,170,309,281,145,287,0,
1,1779205294160,-1507,100,9897,24434,-30543,-2443,0,0,0,373,345,351,437,288,449,643,549,373,600,547,343,0,
2,1779205294160,177,421,10849,516791,219911,-100181,0,0,0,344,281,205,393,265,418,430,124,297,273,122,312,0,
1,1779205294176,-1526,100,9897,25656,-20769,-1221,0,0,0,378,361,356,452,296,451,650,550,380,607,550,354,0,
2,1779205294176,382,492,12026,889419,340862,-160046,0,0,0,350,274,177,403,277,418,407,122,298,259,112,312,0,
1,1779205294192,-1526,105,9911,39095,-12217,-1221,0,0,0,381,372,368,469,305,463,656,553,388,616,553,366,0,
2,1779205294192,459,636,13515,1477072,296880,-224798,0,0,0,356,258,190,394,267,430,378,122,308,228,96,349,0,
1,1779205294208,-1502,100,9916,51312,-3665,-1221,0,0,0,389,376,372,484,312,470,669,558,391,621,551,368,0,
2,1779205294208,373,607,13835,2047620,201585,-274889,0,0,0,357,244,180,400,248,426,364,105,293,235,94,329,0,
1,1779205294224,-1497,90,9920,53756,-2443,-1221,0,0,0,390,384,379,494,330,478,674,564,398,631,554,392,0,
2,1779205294224,325,397,13539,2530203,180816,-304210,0,0,0,336,235,181,388,222,401,357,98,293,240,87,305,0,
1,1779205294240,-1497,86,9920,51312,-8552,-2443,0,0,0,395,404,381,488,355,475,682,570,409,639,558,411,0,
2,1779205294240,488,-9,13294,2904053,208915,-322536,0,0,0,325,214,173,381,200,374,360,90,285,227,74,268,0,
1,1779205294256,-1488,76,9920,50090,-17104,-1221,0,0,0,395,404,391,496,355,480,689,570,410,643,561,418,0,
2,1779205294256,512,-449,13352,3188716,313984,-346971,0,0,0,308,196,165,379,187,348,358,88,269,209,65,233,0,
1,1779205294272,-1469,71,9920,45204,-24434,0,0,0,0,408,413,380,497,365,475,684,561,407,644,559,424,0,
2,1779205294272,526,-947,13007,3314554,559552,-367740,0,0,0,285,188,160,370,187,339,353,88,256,198,61,203,0,
1,1779205294288,-1469,67,9920,40317,-29321,0,0,0,0,410,425,387,500,369,484,683,558,409,651,559,434,0,
2,1779205294288,1076,-1536,11883,3230255,902858,-414166,0,0,0,251,177,157,353,176,330,354,91,253,190,62,177,0,
1,1779205294304,-1474,62,9920,32986,-31764,0,0,0,0,409,424,388,503,369,489,686,557,412,662,563,442,0,
2,1779205294304,1478,-1909,10792,2968805,1099557,-508239,0,0,0,213,155,150,326,167,312,365,98,250,176,64,153,0,
1,1779205294320,-1459,52,9920,28099,-37873,0,0,0,0,410,424,388,505,367,490,691,555,407,654,559,436,0,
2,1779205294320,794,-938,9719,2474004,938289,-621860,0,0,0,193,125,145,305,159,288,370,100,236,167,64,136,0,
1,1779205294336,-1450,52,9920,23212,-46425,0,0,0,0,411,425,384,507,367,490,687,555,408,659,561,442,0,
2,1779205294336,33,2900,8159,1704314,339641,-780685,0,0,0,194,108,142,304,143,266,362,97,221,172,64,128,0,
1,1779205294352,-1450,57,9925,19547,-52534,0,0,0,0,415,427,385,509,369,490,686,549,396,670,561,444,0,
2,1779205294352,-162,6815,6470,840550,-184481,-1235169,0,0,0,192,106,134,301,138,258,367,104,218,173,68,125,0,
1,1779205294368,-1454,47,9911,14660,-54977,0,0,0,0,416,427,385,513,372,491,686,547,388,676,562,446,0,
2,1779205294368,-545,8753,5934,-146607,-433714,-1855808,0,0,0,200,110,154,297,130,261,357,98,215,173,65,129,0,
1,1779205294384,-1459,43,9897,9773,-54977,0,0,0,0,419,427,388,520,374,493,684,549,388,671,563,442,0,
2,1779205294384,-804,8925,6049,-1114218,-603534,-2076941,0,0,0,203,110,155,295,128,258,357,100,211,174,64,135,0,
1,1779205294400,-1454,43,9897,3665,-50090,0,0,0,0,421,427,393,523,373,493,682,551,386,666,559,431,0,
2,1779205294400,-512,7820,6130,-1898569,-696386,-1692096,0,0,0,195,109,150,296,130,262,358,105,209,178,71,136,0,
1,1779205294416,-1454,52,9906,0,-45204,0,0,0,0,420,425,394,523,371,491,682,552,386,671,561,429,0,
2,1779205294416,4,7083,6159,-2225992,-574213,-998153,0,0,0,195,107,144,303,147,262,358,99,205,178,71,128,0,
1,1779205294432,-1454,57,9911,-1221,-43982,-1221,0,0,0,422,426,398,525,375,493,683,555,391,676,567,424,0,
2,1779205294432,512,6494,6566,-2520429,-355523,-259006,0,0,0,191,107,173,295,131,276,350,100,227,166,63,139,0,
1,1779205294448,-1440,62,9911,-3665,-43982,-2443,0,0,0,423,426,398,523,373,490,682,557,399,675,568,415,0,
2,1779205294448,1076,5790,7413,-2794097,-96516,354301,0,0,0,184,99,163,299,139,280,347,100,226,166,59,142,0,
1,1779205294464,-1435,71,9906,-4886,-45204,-1221,0,0,0,422,425,398,521,373,489,681,555,401,674,583,421,0,
2,1779205294464,1588,4618,8844,-3054326,179594,818559,0,0,0,179,99,179,290,132,293,347,93,235,167,62,164,0,
1,1779205294480,-1440,86,9906,0,-43982,0,0,0,0,421,425,392,517,373,482,677,562,386,675,586,419,0,x
2,1779205294480,1876,3311,10351,-3229033,332310,1116661,0,0,0,180,102,163,287,131,272,354,100,218,165,66,143,0,x
1,1779205294496,-1435,86,9911,9773,-39095,0,0,0,0,424,430,395,522,375,487,683,570,393,672,579,404,0,
2,1779205294496,2182,1430,12222,-3329215,353080,1404990,0,0,0,190,111,157,285,128,258,348,100,204,164,65,128,0,
1,1779205294512,-1416,71,9911,20769,-35430,0,0,0,0,425,431,395,524,375,487,692,576,408,679,584,422,0,
2,1779205294512,2431,-866,13850,-3226590,265115,1728748,0,0,0,191,111,160,281,126,262,343,97,207,163,65,131,0,
1,1779205294528,-1407,71,9906,28099,-34208,0,0,0,0,424,441,392,525,371,486,688,574,404,676,592,426,0,
2,1779205294528,3072,-4029,15233,-2939483,261450,2140471,0,0,0,189,101,151,284,126,258,346,99,199,169,66,126,0,
1,1779205294544,-1407,76,9911,40317,-34208,1221,0,0,0,438,447,391,527,370,482,683,560,382,679,585,433,0,
2,1779205294544,3613,-8413,16118,-2588846,751364,2426356,0,0,0,186,89,142,286,126,259,348,110,197,177,78,125,0,
1,1779205294560,-1416,81,9930,59864,-40317,6108,0,0,0,440,456,385,529,373,487,688,543,387,678,573,455,0,
2,1779205294560,1876,-15017,17879,-2061059,852767,2538755,0,0,0,183,81,147,280,122,272,355,145,213,198,110,137,0,
1,1779205294576,-1416,67,9944,75747,-51312,10995,0,0,0,447,468,387,537,384,503,689,523,405,674,555,472,0,
2,1779205294576,-756,-23077,15247,-831998,-244346,2474004,0,0,0,198,91,157,275,118,259,375,210,193,237,178,126,0,
1,1779205294592,-1416,52,9959,90408,-70860,17104,0,0,0,469,476,398,551,395,503,683,498,414,663,532,495,0,
2,1779205294592,478,-27054,9906,715934,-940732,2056172,0,0,0,223,125,180,265,123,236,392,259,154,258,275,101,0,
1,1779205294608,-1450,38,9983,101403,-95294,24434,0,0,0,494,494,401,568,411,509,669,457,414,644,500,521,0,
2,1779205294608,196,-15362,11117,2017077,-398284,1123992,0,0,0,257,144,192,277,121,218,415,294,175,294,296,111,0,
1,1779205294624,-1474,33,10021,118507,-125838,34208,0,0,0,515,515,396,582,420,520,658,407,414,615,445,540,0,
2,1779205294624,-1100,617,14156,1563815,114842,146607,0,0,0,266,147,188,279,121,215,430,316,180,314,305,108,0,
1,1779205294640,-1512,33,10126,171042,-184481,58643,0,0,0,529,535,402,589,424,528,632,339,416,566,374,557,0,
2,1779205294640,-277,2598,12151,229685,13439,-146607,0,0,0,267,153,193,276,121,238,434,333,202,318,317,121,0,
1,1779205294656,-1569,23,10299,268780,-251676,89186,0,0,0,541,554,390,590,443,536,583,264,417,516,318,583,0,
2,1779205294656,488,564,9992,-277332,-114842,-85521,0,0,0,255,145,177,281,126,226,434,336,194,325,324,119,0,
1,1779205294672,-1665,-4,10567,428827,-295658,127059,0,0,0,563,557,319,593,467,536,538,222,418,483,281,606,0,
2,1779205294672,344,-617,9638,-20769,-103847,53756,0,0,0,247,144,175,277,128,241,433,344,201,320,325,123,0,
1,1779205294688,-1804,-57,10983,668286,-241902,172263,0,0,0,574,558,249,603,478,540,488,205,413,439,237,617,0,
2,1779205294688,9,363,10155,113620,-31764,28099,0,0,0,256,152,180,280,129,228,441,339,188,324,331,117,0,
1,1779205294704,-1823,-105,11734,1051909,-153938,239459,0,0,0,591,566,215,609,498,547,440,186,422,417,222,632,0,
2,1779205294704,33,732,10203,62308,-15882,-4886,0,0,0,260,156,186,282,128,227,440,338,190,320,335,110,0,
1,1779205294720,-1560,-201,11993,1444085,-131946,287106,0,0,0,604,577,183,606,508,531,396,182,420,382,214,636,0,
2,1779205294720,124,483,10059,26878,-26878,2443,0,0,0,256,150,185,281,128,231,437,341,198,320,338,113,0,
1,1779205294736,-1359,-416,11351,1690874,-164933,267558,0,0,0,604,568,157,617,512,533,371,167,420,364,188,636,0,
2,1779205294736,148,339,10007,25656,-29321,15882,0,0,0,252,139,176,284,123,230,427,327,202,323,330,117,0,
1,1779205294752,-1445,-693,10710,1842369,-147829,227241,0,0,0,612,580,146,612,520,531,338,160,409,348,175,639,0,
2,1779205294752,119,382,10050,28099,-24434,18325,0,0,0,244,126,166,287,121,231,427,334,202,322,326,119,0,
1,1779205294768,-1603,-1000,10385,1908343,-47647,210137,0,0,0,618,597,152,606,536,517,329,164,412,341,174,628,0,
2,1779205294768,119,430,10069,3665,-23212,12217,0,0,0,232,117,161,285,123,235,434,356,203,319,329,117,0,
1,1779205294784,-1751,-1320,10117,1925447,57421,218689,0,0,0,607,601,157,609,528,510,321,163,412,333,171,618,0,
2,1779205294784,119,459,10011,-13439,-25656,8552,0,0,0,227,113,154,287,125,236,433,360,198,320,331,111,0,
1,1779205294800,-1809,-1617,9992,1905899,147829,254119,0,0,0,615,608,145,613,526,513,314,168,408,317,159,609,0,
2,1779205294800,110,445,9987,-19547,-32986,4886,0,0,0,224,111,142,289,131,231,431,367,189,320,336,106,0,
1,1779205294816,-1737,-1923,10069,1891238,250454,299323,0,0,0,621,616,137,612,523,515,308,169,406,311,147,602,0,
2,1779205294816,114,430,10011,-41538,-42760,2443,0,0,0,219,115,144,284,134,228,435,381,195,320,358,107,0,
1,1779205294832,-1718,-2220,10131,1904677,356745,332310,0,0,0,621,620,137,609,525,513,302,171,408,306,140,596,0,
2,1779205294832,124,459,10026,-74525,-51312,3665,0,0,0,206,104,138,289,135,248,440,393,210,320,384,109,0,
1,1779205294848,-1794,-2531,10189,1951103,450818,377514,0,0,0,621,621,145,603,528,518,291,173,413,294,133,584,0,
2,1779205294848,95,488,10002,-68416,-45204,3665,0,0,0,197,96,126,287,128,240,441,402,202,324,383,108,0,
1,1779205294864,-1794,-2799,10461,2041511,524122,442266,0,0,0,624,623,155,595,525,519,280,178,421,278,129,569,0,
2,1779205294864,86,497,10011,-47647,-31764,4886,0,0,0,191,95,121,290,129,239,446,424,193,331,391,101,0,
1,1779205294880,-1856,-3048,10988,2194227,608421,518013,0,0,0,623,623,158,587,523,510,281,189,429,265,127,560,0,
2,1779205294880,95,502,10059,-39095,-15882,3665,0,0,0,194,93,120,295,126,236,452,440,197,337,392,101,0,
1,1779205294896,-2005,-3306,11706,2456899,722042,623082,0,0,0,615,615,163,576,531,514,285,195,432,251,126,547,0,
2,1779205294896,114,521,10064,-40317,-6108,0,0,0,0,199,88,122,299,126,246,448,425,205,348,403,102,0,
1,1779205294912,-2258,-3632,12376,2789210,853989,748920,0,0,0,597,601,158,583,549,512,285,199,429,241,135,520,0,
2,1779205294912,143,536,10035,-35430,-3665,0,0,0,0,200,87,123,301,122,248,452,428,207,362,416,107,0,
1,1779205294928,-2617,-4139,13342,3240029,990823,927293,0,0,0,554,583,149,570,535,500,295,203,427,237,129,482,0,
2,1779205294928,172,545,9959,-17104,-6108,2443,0,0,0,199,87,125,302,120,249,456,440,211,372,425,106,0,
1,1779205294944,-3378,-4862,14467,3765373,1054353,1147204,0,0,0,504,562,157,559,517,483,299,206,402,234,128,451,0,
2,1779205294944,157,545,9940,17104,-8552,8552,0,0,0,198,83,151,304,113,267,464,460,236,369,426,116,0,
1,1779205294960,-4895,-5996,15506,4265061,802676,1425759,0,0,0,444,535,160,553,467,467,312,189,392,246,123,428,0,
2,1779205294960,138,555,9978,46425,-17104,8552,0,0,0,204,87,141,316,117,260,468,469,226,377,427,105,0,
1,1779205294976,-5240,-6436,15970,4596150,239459,1826487,0,0,0,394,515,167,511,418,446,312,192,369,244,130,419,0,
2,1779205294976,134,569,10021,58643,-35430,4886,0,0,0,214,84,131,325,114,257,473,473,220,406,436,97,0,
1,1779205294992,-5025,-5795,15419,4802622,-144164,2247984,0,0,0,373,470,150,469,387,402,310,201,330,239,137,374,0,
2,1779205294992,143,526,10059,48869,-56199,7330,0,0,0,215,84,142,318,110,272,481,480,238,420,444,105,0,
1,1779205295008,-5068,-5001,13749,4861265,-417831,2674368,0,0,0,340,417,158,421,358,348,330,187,291,253,139,320,0,
2,1779205295008,148,507,10064,34208,-72082,14660,0,0,0,215,89,154,310,110,282,489,488,248,421,454,116,0,
1,1779205295024,-3957,-3804,11131,4636467,-612086,3188716,0,0,0,309,373,172,383,326,326,339,198,266,249,164,284,0,
2,1779205295024,124,507,10069,30543,-76969,19547,0,0,0,219,89,164,311,109,285,498,497,250,431,467,120,0,
1,1779205295040,-2258,-2359,8341,4223522,-403171,3536909,0,0,0,282,349,202,346,296,303,364,206,261,250,183,246,0,
2,1779205295040,95,516,10083,30543,-70860,15882,0,0,0,227,87,172,315,109,291,509,508,256,445,477,120,0,
1,1779205295056,-1072,-1608,5307,3555235,107512,3718947,0,0,0,268,342,221,312,280,293,382,202,271,241,178,230,0,
2,1779205295056,86,521,10078,31764,-61086,9773,0,0,0,238,86,182,320,107,299,515,515,264,452,487,126,0,
1,1779205295072,-2852,1981,3464,2310292,111177,3861890,0,0,0,273,345,226,307,279,292,385,199,281,244,175,236,0,
2,1779205295072,90,521,10054,35430,-53756,3665,0,0,0,212,88,189,306,109,305,521,521,269,445,489,122,0,
1,1779205295088,-4881,8662,5407,81855,-1116661,4028045,0,0,0,280,347,229,308,295,286,381,199,278,255,180,238,0,
2,1779205295088,100,526,10035,43982,-47647,3665,0,0,0,215,91,194,312,112,311,520,521,274,443,490,127,0,
1,1779205295104,-1086,10112,8298,-2423913,-2222327,3395188,0,0,0,277,345,229,307,292,282,377,197,271,255,181,234,0,
2,1779205295104,105,531,10031,57421,-41538,3665,0,0,0,217,91,194,312,112,319,520,521,273,443,487,121,0,
1,1779205295120,2522,7063,8451,-3700621,-1805717,1732413,0,0,0,274,342,228,315,274,285,377,195,270,255,181,233,0,
2,1779205295120,105,540,10021,76969,-35430,3665,0,0,0,219,103,218,315,123,341,513,512,291,441,481,138,0,
1,1779205295136,727,4690,7173,-3634648,-932180,-373849,0,0,0,271,340,227,317,275,287,380,195,272,254,181,234,0,
2,1779205295136,110,545,10002,103847,-35430,3665,0,0,0,247,138,202,340,147,351,511,511,281,431,466,130,0,
1,1779205295152,-2024,4469,7212,-3610213,-1112996,-1960877,0,0,0,271,337,225,317,275,288,380,197,274,254,181,236,0,
2,1779205295152,114,512,10002,141720,-42760,3665,0,0,0,266,168,202,346,164,378,500,498,297,432,452,148,0,
1,1779205295168,-2134,4819,8892,-3999945,-2067167,-2728124,0,0,0,272,341,231,316,277,293,378,195,274,253,182,235,0,
2,1779205295168,105,464,10031,171042,-50090,1221,0,0,0,282,217,220,353,209,390,498,483,300,414,434,163,0,
1,1779205295184,-186,3900,10547,-4547280,-2322509,-2955366,0,0,0,272,343,234,316,286,299,382,198,279,250,182,232,0,
2,1779205295184,86,435,10054,178372,-48869,0,0,0,0,297,229,218,378,215,410,503,455,315,405,397,183,0,
1,1779205295200,660,2555,11466,-4891808,-2119702,-2989574,0,0,0,270,340,230,317,286,296,378,198,271,248,182,232,0,
2,1779205295200,86,416,10059,179594,-41538,0,0,0,0,313,248,222,392,227,427,499,401,342,406,358,216,0,
1,1779205295216,617,1148,12055,-4955338,-1984090,-2796541,0,0,0,267,341,230,312,285,302,378,199,278,245,182,236,0,
2,1779205295216,95,397,10059,190589,-36651,0,0,0,0,324,274,252,397,258,441,499,363,358,398,338,252,0,
1,1779205295232,1430,354,12969,-4787961,-2125811,-2438574,0,0,0,267,339,232,314,280,304,378,195,279,246,178,240,0,
2,1779205295232,114,373,10078,210137,-35430,-2443,0,0,0,338,282,263,409,282,448,513,349,354,388,324,281,0,
1,1779205295248,2593,-9,14122,-4612032,-2034181,-2134363,0,0,0,268,337,232,317,279,306,374,194,277,245,176,235,0,
2,1779205295248,114,344,10093,211359,-28099,-6108,0,0,0,359,298,235,417,302,441,525,325,349,377,298,305,0,
1,1779205295264,2364,-373,15228,-4502076,-1556484,-1975538,0,0,0,268,338,231,317,277,305,377,196,277,246,174,232,0,
2,1779205295264,119,315,10098,204028,-12217,-9773,0,0,0,365,318,234,426,317,450,527,300,374,352,263,328,0,
1,1779205295280,1000,-981,16118,-4410447,-1149648,-1876578,0,0,0,270,336,233,311,274,294,377,195,272,246,173,227,0,
2,1779205295280,119,291,10102,193033,9773,-12217,0,0,0,387,332,236,453,328,471,520,255,391,347,200,365,0,
1,1779205295296,-866,-1938,17042,-4246735,-934623,-1766622,0,0,0,270,326,233,307,268,286,376,191,271,249,168,224,0,
2,1779205295296,129,268,10122,191811,32986,-13439,0,0,0,394,345,236,461,326,478,520,214,400,326,133,386,0,
1,1779205295312,-2780,-3196,17932,-3941302,-963945,-1580919,0,0,0,270,326,232,306,265,285,375,191,272,250,165,224,0,
2,1779205295312,138,239,10160,211359,50090,-13439,0,0,0,400,339,222,457,344,503,522,190,399,299,120,400,0,
1,1779205295328,-4364,-4450,18535,-3611435,-1130100,-1332907,0,0,0,273,329,239,303,258,282,369,187,268,245,162,222,0,
2,1779205295328,162,205,10193,255341,67195,-14660,0,0,0,402,360,214,463,362,488,509,204,404,280,112,420,0,
1,1779205295344,-5455,-5795,18760,-3423288,-1369559,-985936,0,0,0,276,318,246,301,250,279,365,183,264,242,157,221,0,
2,1779205295344,224,177,10265,317649,107512,-19547,0,0,0,400,356,220,458,371,505,518,156,396,263,106,438,0,
1,1779205295360,-6010,-7255,18138,-3608991,-1605353,-616973,0,0,0,277,317,242,309,256,287,373,186,267,242,157,220,0,
2,1779205295360,291,172,10447,421497,205250,-37873,0,0,0,417,359,196,477,359,508,499,134,388,270,97,454,0,
1,1779205295376,-5340,-9413,16271,-4080579,-1957212,-279776,0,0,0,275,322,240,309,259,290,376,186,270,241,157,220,0,
2,1779205295376,296,134,10748,597426,318871,-58643,0,0,0,420,366,189,473,368,508,500,123,388,248,97,456,0,
1,1779205295392,-1694,-14003,13218,-4026823,-2571742,25656,0,0,0,270,331,235,307,263,290,379,193,271,241,166,218,0,
2,1779205295392,330,67,11112,822224,351858,-63529,0,0,0,444,360,183,467,375,511,449,111,388,241,98,455,0,
1,1779205295408,3412,-19305,10327,-3248581,-2735454,83077,0,0,0,268,330,225,306,267,290,376,216,273,257,198,212,0,
2,1779205295408,449,0,11409,1053131,296880,-62308,0,0,0,454,356,185,474,400,524,405,110,408,241,104,467,0,
1,1779205295424,8710,-25584,9298,-1902234,-1935221,-268780,0,0,0,262,290,224,290,246,282,398,248,284,311,288,204,0,
2,1779205295424,550,-105,11485,1293812,257785,-81855,0,0,0,467,359,198,484,403,529,390,109,421,251,103,480,0,
1,1779205295440,10662,-29762,9648,250454,-30543,-510683,0,0,0,262,246,222,268,191,269,394,352,277,319,399,207,0,
2,1779205295440,617,-224,11543,1527163,249233,-108734,0,0,0,483,360,211,506,417,532,364,101,424,263,102,480,0,
1,1779205295456,5719,-20559,8978,2737898,2439795,76969,0,0,0,252,229,190,276,162,274,431,464,286,359,475,192,0,
2,1779205295456,732,-392,11701,1795943,241902,-142942,0,0,0,490,356,215,511,424,537,313,95,420,260,102,477,0,
1,1779205295472,-1579,-2565,11433,4021936,3569896,863763,0,0,0,256,195,186,296,143,277,487,527,277,466,531,174,0,
2,1779205295472,880,-564,12117,2134363,218689,-191811,0,0,0,491,361,210,483,401,540,258,95,418,244,98,480,0,
1,1779205295488,-4034,3761,14749,4064697,2768441,706160,0,0,0,294,155,220,306,119,280,531,567,265,553,571,173,0,
2,1779205295488,952,-703,12725,2537534,180816,-249233,0,0,0,490,366,200,473,408,541,224,100,423,242,103,479,0,
1,1779205295504,-1115,-938,18076,3411071,1507615,100181,0,0,0,324,174,261,314,117,295,559,563,264,586,586,182,0,
2,1779205295504,952,-818,13601,3034778,122173,-294437,0,0,0,485,349,201,464,404,529,235,112,403,248,107,472,0,
1,1779205295520,-28,-2780,16487,1925447,748920,-25656,0,0,0,335,208,293,324,144,322,565,539,271,600,585,206,0,
2,1779205295520,1110,-966,14931,3725056,43982,-344527,0,0,0,465,351,207,443,402,498,264,122,387,236,102,434,0,
1,1779205295536,-981,-1072,11505,465479,393397,24434,0,0,0,342,260,314,339,192,347,568,525,288,618,584,241,0,
2,1779205295536,1454,-1268,16712,4524067,-67195,-400727,0,0,0,458,344,173,455,381,457,308,110,343,226,88,351,0,
1,1779205295552,-1234,177,9514,95294,197920,-37873,0,0,0,356,317,324,359,234,369,580,532,308,623,584,268,0,
2,1779205295552,2043,-2187,19028,5419596,-127059,-458148,0,0,0,435,303,201,442,368,435,244,100,333,210,89,341,0,
1,1779205295568,-1005,129,9825,149051,73303,-78190,0,0,0,370,352,326,379,261,385,588,541,316,626,589,281,0,
2,1779205295568,2847,-3436,21373,6278472,57421,-525344,0,0,0,414,284,170,432,340,396,242,103,298,198,83,297,0,
1,1779205295584,-1005,-177,10150,124616,53756,-53756,0,0,0,385,378,331,390,283,391,589,548,316,640,600,293,0,
2,1779205295584,3302,-3804,23685,7072597,557109,-690277,0,0,0,406,256,165,418,312,375,258,99,271,196,82,268,0,
1,1779205295600,-1095,-153,10035,37873,59864,-29321,0,0,0,401,397,350,401,299,400,598,565,321,646,608,310,0,
2,1779205295600,2579,-2067,23976,7553959,554665,-957836,0,0,0,351,195,159,393,235,355,270,93,269,187,67,245,0,
1,1779205295616,-1115,19,9868,-6108,67195,-17104,0,0,0,403,404,371,414,314,416,615,564,326,653,620,325,0,
2,1779205295616,3484,-684,22531,7915591,210137,-1227839,0,0,0,226,137,139,298,178,289,296,103,238,166,68,176,0,
1,1779205295632,-1052,23,9920,19547,58643,-7330,0,0,0,414,414,363,425,328,435,622,568,336,653,621,340,0,
2,1779205295632,5857,1478,19104,7908261,535117,-1512502,0,0,0,190,100,129,282,136,259,329,105,200,174,70,149,0,
1,1779205295648,-990,-4,9992,37873,50090,0,0,0,0,422,436,376,431,340,440,617,563,345,654,623,354,0,
2,1779205295648,7193,6302,10318,7039611,1521054,-2043955,0,0,0,189,91,129,284,130,251,327,106,191,173,72,149,0,
1,1779205295664,-966,-14,10021,34208,31764,1221,0,0,0,428,448,376,446,341,440,617,563,354,662,623,373,0,
2,1779205295664,5546,11998,2866,4208861,2466673,-2967583,0,0,0,192,96,140,282,129,252,318,101,198,164,65,156,0,
1,1779205295680,-976,0,10002,40317,-8552,0,0,0,0,429,481,384,454,357,458,607,543,352,669,626,380,0,
2,1779205295680,1038,13653,7351,56199,2193006,-3242472,0,0,0,192,95,136,283,124,247,325,99,198,164,62,152,0,
1,1779205295696,-985,-4,9968,57421,-37873,0,0,0,0,430,495,387,465,373,469,608,525,360,664,607,374,0,
2,1779205295696,-2024,11749,10557,-3347541,915076,-2476447,0,0,0,186,93,129,283,127,242,331,100,195,169,67,146,0,
1,1779205295712,-995,-19,9949,75747,-47647,1221,0,0,0,434,502,406,471,381,474,605,505,361,664,597,390,0,
2,1779205295712,-1086,7729,8279,-4572937,-572991,-1065348,0,0,0,180,94,132,281,131,247,329,99,194,172,71,149,0,
1,1779205295728,-995,-19,9944,89186,-41538,6108,0,0,0,454,511,400,484,387,471,607,483,373,661,584,413,0,
2,1779205295728,756,6092,4910,-4440990,-693942,-237015,0,0,0,177,95,126,282,134,249,329,102,195,174,74,150,0,
1,1779205295744,-990,-23,9959,103847,-39095,12217,0,0,0,475,525,401,509,409,478,607,464,380,659,562,441,0,
2,1779205295744,880,5608,4283,-4448320,-240680,147829,0,0,0,178,102,130,282,136,254,330,105,198,175,72,149,0,
1,1779205295760,-976,-23,9997,124616,-46425,15882,0,0,0,496,542,414,531,421,484,599,426,382,647,531,478,0,
2,1779205295760,-157,5384,5575,-4673119,270002,375071,0,0,0,179,99,137,286,134,259,333,100,204,172,68,148,0,
1,1779205295776,-971,-38,10021,163711,-72082,23212,0,0,0,517,556,417,548,439,493,591,384,388,631,505,505,0,
2,1779205295776,-1134,5130,7073,-5028642,619417,681725,0,0,0,178,93,137,286,128,264,332,95,204,174,66,150,0,
1,1779205295792,-976,-76,10040,206472,-105068,32986,0,0,0,537,566,416,566,469,502,579,350,394,620,474,525,0,
2,1779205295792,-1981,4560,8523,-5364618,902858,1003040,0,0,0,174,93,136,286,133,266,326,95,204,176,64,145,0,
1,1779205295808,-995,-114,10059,246789,-139277,45204,0,0,0,557,577,414,576,491,513,560,309,406,612,430,546,0,
2,1779205295808,-2828,3531,10102,-5588195,1029918,1320690,0,0,0,177,97,136,289,131,265,334,99,208,174,70,149,0,
1,1779205295824,-1024,-148,10093,277332,-168598,56199,0,0,0,580,587,409,580,498,523,535,289,418,603,386,567,0,
2,1779205295824,-3153,2373,11816,-5624847,852767,1545489,0,0,0,178,94,140,285,131,269,335,97,212,170,67,149,0,
1,1779205295840,-1057,-186,10165,320093,-186924,67195,0,0,0,609,590,397,594,506,530,500,301,417,586,346,588,0,
2,1779205295840,-2861,1761,13304,-5624847,610865,1579697,0,0,0,176,93,144,283,126,275,334,92,216,167,63,154,0,
1,1779205295856,-1062,-229,10256,375071,-162490,78190,0,0,0,622,597,388,600,517,559,479,195,434,549,306,611,0,
2,1779205295856,-1876,1564,15328,-5714033,443488,1461189,0,0,0,172,89,139,287,128,278,333,91,215,167,63,150,0,
1,1779205295872,-1038,-282,10370,431270,-84299,85521,0,0,0,630,602,368,600,514,545,447,171,429,512,272,626,0,
2,1779205295872,-894,971,17583,-5838649,420275,1373225,0,0,0,175,88,135,283,123,265,338,94,210,164,61,141,0,
1,1779205295888,-1052,-349,10504,519235,42760,90408,0,0,0,647,609,365,601,525,550,428,165,422,490,256,639,0,
2,1779205295888,38,-488,20181,-5914397,390953,1374446,0,0,0,176,87,135,279,122,258,345,94,209,156,55,137,0,
1,1779205295904,-1062,-425,10591,642630,162490,100181,0,0,0,643,613,333,601,541,563,416,163,429,468,227,638,0,
2,1779205295904,1756,-2392,23230,-5881410,204028,1492954,0,0,0,176,91,135,284,130,262,347,94,209,152,53,136,0,
1,1779205295920,-981,-512,10648,774577,174707,113620,0,0,0,652,618,296,607,542,566,401,171,424,449,226,642,0,
2,1779205295920,4005,-4690,26135,-5888740,-92851,1676214,0,0,0,182,97,137,290,133,260,347,96,206,157,57,138,0,
1,1779205295936,-894,-612,10629,873537,86742,129503,0,0,0,653,623,266,609,538,555,381,162,424,424,223,648,0,
2,1779205295936,7303,-9384,27370,-6052452,-510683,1756848,0,0,0,182,94,138,289,129,259,352,96,206,162,59,141,0,
1,1779205295952,-823,-741,10442,923628,-28099,139277,0,0,0,657,624,242,617,541,558,376,157,422,435,212,659,0,
2,1779205295952,9763,-16357,25297,-6222273,-417831,1457524,0,0,0,180,97,133,292,129,261,356,98,209,166,62,140,0,
1,1779205295968,-746,-885,10299,962723,-81855,130725,0,0,0,653,623,216,624,557,564,376,163,430,412,206,657,0,
2,1779205295968,7781,-25187,20679,-5865528,425162,860098,0,0,0,186,97,138,299,131,268,351,96,209,169,64,142,0,
1,1779205295984,-780,-1038,10485,1037249,-95294,108734,0,0,0,653,627,197,626,561,565,366,166,431,383,199,650,0,
2,1779205295984,1588,-33759,15491,-4397007,1045801,629191,0,0,0,185,98,134,297,131,266,353,105,208,172,74,138,0,
1,1779205296000,-976,-1153,10969,1185078,-74525,107512,0,0,0,655,635,179,626,551,553,349,164,420,363,187,651,0,
2,1779205296000,-1450,-38004,9973,-1815491,467922,1293812,0,0,0,170,93,120,283,131,250,355,150,199,223,165,141,0,
1,1779205296016,-1239,-1277,11462,1404990,-24434,139277,0,0,0,657,639,170,620,541,547,336,163,413,350,174,646,0,
2,1779205296016,-33,-36372,10361,613308,67195,1839926,0,0,0,148,93,114,270,144,233,372,272,182,248,282,129,0,
1,1779205296032,-1584,-1426,12041,1700648,54977,218689,0,0,0,661,644,174,612,539,546,331,162,412,343,164,633,0,
2,1779205296032,402,-15864,13850,3447723,-596204,1682322,0,0,0,153,99,117,274,155,242,366,341,191,258,370,124,0,
1,1779205296048,-1947,-1588,12950,2172236,173485,372627,0,0,0,663,654,173,611,538,529,322,160,413,335,154,625,0,
2,1779205296048,-287,4905,11127,5232671,-951728,1543045,0,0,0,154,94,119,294,153,267,384,381,206,298,406,124,0,
1,1779205296064,-2211,-1675,13706,2720793,266337,548556,0,0,0,653,651,161,605,527,518,299,161,435,307,133,612,0,
2,1779205296064,-2641,5226,11634,5854532,779464,1392772,0,0,0,179,85,126,309,131,286,436,424,211,377,429,117,0,
1,1779205296080,-2517,-1899,14357,3415958,382401,775798,0,0,0,627,631,183,591,519,500,284,161,426,285,120,600,0,
2,1779205296080,-2924,-1598,19186,5663942,1734857,751364,0,0,0,207,86,159,289,112,306,465,425,255,420,442,127,0,
1,1779205296096,-2933,-2249,15089,4185648,599869,1054353,0,0,0,518,551,386,583,529,508,267,166,415,252,121,559,0,
2,1779205296096,-81,-4474,23670,3800803,532674,-188146,0,0,0,241,90,186,298,101,332,472,410,271,430,448,143,0,
1,1779205296112,-2909,-2421,16726,4990769,957836,1295034,0,0,0,564,593,140,577,529,492,266,177,414,248,143,496,0,
2,1779205296112,1378,-1560,15314,1017701,-538783,-252898,0,0,0,264,104,198,326,117,364,475,419,286,424,450,161,0,
1,1779205296128,-3536,-3230,19736,5921727,1415985,1491732,0,0,0,451,547,125,566,500,476,270,173,398,248,133,445,0,
2,1779205296128,674,516,9102,-241902,-432492,12217,0,0,0,277,138,203,343,141,373,486,438,295,422,456,166,0,
1,1779205296144,-5742,-5551,23144,6715852,1595580,1676214,0,0,0,376,511,151,518,420,449,287,175,360,242,133,389,0,
2,1779205296144,-143,679,8552,-106290,30543,142942,0,0,0,288,174,213,359,159,380,491,443,291,427,460,168,0,
1,1779205296160,-6853,-6427,23579,6967528,974940,2111150,0,0,0,309,451,145,440,374,377,308,169,308,237,132,317,0,
2,1779205296160,76,172,10198,153938,61086,52534,0,0,0,296,187,230,373,168,397,490,439,300,434,460,176,0,
1,1779205296176,-6216,-3622,20253,6630331,681725,2632829,0,0,0,271,365,173,362,311,323,340,187,288,238,156,264,0,
2,1779205296176,320,143,10509,129503,-40317,-6108,0,0,0,303,183,233,377,173,402,497,433,322,434,464,180,0,
1,1779205296192,-6877,1000,12691,5855754,902858,3165503,0,0,0,260,335,212,309,287,302,358,196,285,238,170,242,0,
2,1779205296192,291,349,10040,48869,-67195,-4886,0,0,0,303,188,214,381,184,397,505,421,335,424,465,179,0,
1,1779205296208,-8418,6058,6144,4656014,785572,3738495,0,0,0,261,333,223,299,277,295,367,200,281,237,170,232,0,
2,1779205296208,205,349,9987,79412,-18325,0,0,0,0,298,200,215,388,197,411,500,412,339,433,462,188,0,
1,1779205296224,-9332,10729,4833,2245540,-241902,4564385,0,0,0,263,334,222,304,274,290,371,206,281,243,175,232,0,
2,1779205296224,196,287,10102,114842,0,-3665,0,0,0,298,205,220,395,201,422,496,401,353,434,461,199,0,
1,1779205296240,-5723,10117,6824,-536339,-1458746,5023755,0,0,0,263,334,224,304,272,287,371,200,280,248,177,233,0,
2,1779205296240,205,268,10126,117286,-6108,-3665,0,0,0,308,201,224,406,201,429,496,399,357,433,448,205,0,
1,1779205296256,-655,6345,6336,-2183232,-1594358,4467868,0,0,0,261,334,224,304,268,287,370,186,277,247,172,231,0,
2,1779205296256,210,272,10074,112399,-9773,0,0,0,0,313,201,232,406,201,427,503,375,341,452,434,213,0,
1,1779205296272,110,3900,4245,-2211332,-780685,2707354,0,0,0,256,335,226,305,269,288,372,188,277,247,172,229,0,
2,1779205296272,239,263,10031,111177,-17104,2443,0,0,0,316,213,230,406,217,444,507,391,351,435,435,217,0,
1,1779205296288,-1320,3517,3699,-2197893,-558330,924849,0,0,0,255,338,231,309,272,290,371,189,277,248,174,228,0,
2,1779205296288,244,239,10026,103847,-37873,2443,0,0,0,328,226,218,407,228,433,499,378,345,432,417,224,0,
1,1779205296304,-2995,4245,4790,-2480112,-1207069,-866206,0,0,0,256,339,230,310,269,291,369,187,276,246,173,227,0,
2,1779205296304,234,229,10035,97738,-57421,2443,0,0,0,327,233,197,431,250,430,493,378,346,436,410,229,0,
1,1779205296320,-3005,4642,6403,-3076317,-2017077,-1951103,0,0,0,264,340,230,313,267,289,369,183,274,245,171,227,0,
2,1779205296320,215,234,10054,101403,-64751,0,0,0,0,337,247,199,446,268,432,498,359,346,450,368,239,0,
1,1779205296336,-2751,4541,8073,-3803246,-2532647,-2474004,0,0,0,267,340,229,326,275,300,375,189,280,249,174,230,0,
2,1779205296336,201,229,10074,125838,-54977,-1221,0,0,0,343,262,203,451,278,444,497,330,343,443,336,264,0,
1,1779205296352,-2368,3799,9710,-4484972,-2884505,-2357939,0,0,0,268,340,229,328,281,303,375,189,279,249,171,222,0,
2,1779205296352,191,205,10083,146607,-41538,-3665,0,0,0,341,270,196,460,290,451,500,314,348,411,305,276,0,
1,1779205296368,-928,2747,11256,-4834387,-3340211,-1879021,0,0,0,268,339,227,327,281,304,378,189,286,249,173,229,0,
2,1779205296368,201,177,10093,153938,-29321,-6108,0,0,0,348,284,193,473,300,458,500,299,357,393,269,288,0,
1,1779205296384,1478,1813,12845,-4963890,-3673743,-1420872,0,0,0,269,340,227,327,281,309,379,193,290,249,176,230,0,
2,1779205296384,224,148,10093,153938,-21991,-7330,0,0,0,354,292,187,484,310,453,512,271,363,390,230,302,0,
1,1779205296400,3685,1100,14381,-4945564,-3477044,-1210734,0,0,0,271,341,227,328,282,307,377,190,285,248,172,226,0,
2,1779205296400,244,134,10083,155159,-19547,-13439,0,0,0,361,299,186,489,317,450,516,249,369,383,192,308,0,
1,1779205296416,4383,526,15759,-4908913,-2989574,-1215621,0,0,0,271,342,228,328,282,307,379,188,284,248,171,223,0,
2,1779205296416,244,134,10083,160046,-8552,-15882,0,0,0,371,312,195,489,316,470,499,235,373,370,166,325,0,
1,1779205296432,3283,0,17195,-4852713,-2469117,-1406211,0,0,0,272,342,228,329,281,305,381,189,284,247,170,222,0,
2,1779205296432,229,119,10117,174707,4886,-17104,0,0,0,366,316,192,490,318,486,500,208,378,349,149,353,0,
1,1779205296448,2110,-698,18525,-4769635,-2410474,-1589471,0,0,0,273,343,228,329,279,303,381,192,285,247,166,222,0,
2,1779205296448,224,90,10150,194255,26878,-18325,0,0,0,379,346,182,502,333,501,501,183,398,330,136,365,0,
1,1779205296464,1454,-1694,20014,-4637688,-2398256,-1723861,0,0,0,270,342,226,330,279,302,381,190,283,247,163,220,0,
2,1779205296464,224,62,10189,224798,48869,-15882,0,0,0,403,325,187,503,336,497,513,158,411,304,114,376,0,
1,1779205296480,588,-3316,21636,-4423886,-2232101,-1788613,0,0,0,268,340,227,331,278,301,382,187,280,247,161,219,0,
2,1779205296480,229,28,10212,262672,63529,-9773,0,0,0,404,343,181,511,348,520,502,143,439,298,111,373,0,
1,1779205296496,-612,-5575,22440,-4168544,-2048842,-1773952,0,0,0,267,341,229,330,275,302,382,186,280,247,161,220,0,
2,1779205296496,258,-4,10246,313984,79412,-3665,0,0,0,428,336,171,509,340,523,512,130,421,277,100,376,0,
1,1779205296512,-1359,-8609,22100,-3926641,-2018298,-1733635,0,0,0,263,342,228,330,275,306,380,184,281,245,160,221,0,
2,1779205296512,291,-38,10323,384845,102625,2443,0,0,0,410,327,166,500,368,527,509,130,429,278,100,396,0,
1,1779205296528,19,-12285,20339,-3979176,-2152689,-1905899,0,0,0,258,342,228,334,275,309,377,183,282,240,159,218,0,
2,1779205296528,349,-67,10500,480140,138055,3665,0,0,0,418,356,173,503,374,536,490,115,437,261,101,417,0,
1,1779205296544,2804,-17487,16980,-4009719,-2087937,-2354274,0,0,0,263,342,228,341,272,311,378,184,284,241,161,218,0,
2,1779205296544,440,-124,10600,621860,207694,-7330,0,0,0,438,342,162,500,371,539,482,102,425,260,96,417,0,
1,1779205296560,4919,-24996,11667,-3170390,-1552819,-2884505,0,0,0,262,341,222,340,272,310,376,182,283,242,163,221,0,
2,1779205296560,464,-229,10538,733038,267558,-24434,0,0,0,439,341,157,502,373,547,448,104,421,254,99,428,0,
1,1779205296576,6207,-31682,7212,-1678657,-1306029,-3123964,0,0,0,262,335,210,337,276,302,374,188,282,268,191,221,0,
2,1779205296576,507,-349,10504,802676,283441,-35430,0,0,0,438,342,156,524,371,555,401,98,446,257,103,446,0,
1,1779205296592,6527,-32687,6896,434936,-1462411,-2845410,0,0,0,251,296,207,307,253,288,405,272,292,324,329,210,0,
2,1779205296592,670,-440,10715,874759,248011,-51312,0,0,0,442,329,157,532,365,561,368,92,460,250,99,450,0,
1,1779205296608,928,-18865,11150,3039665,-676838,-1442863,0,0,0,227,245,178,281,204,277,408,391,293,316,421,193,0,
2,1779205296608,842,-536,11007,998153,212581,-86742,0,0,0,447,318,164,517,366,559,364,96,455,237,97,447,0,
1,1779205296624,-2512,-737,11241,4608367,1148426,406836,0,0,0,228,217,165,288,171,274,434,492,281,363,479,177,0,
2,1779205296624,1043,-612,11610,1226617,185703,-152716,0,0,0,453,326,171,505,375,547,361,100,457,233,99,456,0,
1,1779205296640,-2191,5403,10189,4654793,2957809,1683544,0,0,0,248,172,195,303,133,285,505,544,283,469,533,173,0,
2,1779205296640,1095,-617,12572,1620014,138055,-243124,0,0,0,456,332,166,504,379,534,327,96,440,244,109,475,0,
1,1779205296656,-2991,-378,14252,4597371,2918714,1260825,0,0,0,293,167,255,326,124,310,559,572,291,562,577,191,0,
2,1779205296656,1057,-679,13204,2111150,57421,-316428,0,0,0,449,323,160,496,385,527,292,92,396,264,116,489,0,
1,1779205296672,-2828,-3283,20019,4388455,2240653,420275,0,0,0,330,242,298,366,189,356,589,578,300,615,588,241,0,
2,1779205296672,1119,-799,13697,2656042,-12217,-377514,0,0,0,443,320,174,467,396,529,267,96,370,235,94,468,0,
1,1779205296688,-1316,-2967,17855,2356718,1097113,-61086,0,0,0,347,327,322,404,267,399,604,571,311,632,587,295,0,
2,1779205296688,1282,-765,15094,3418401,-61086,-459370,0,0,0,427,317,181,453,361,522,247,92,355,217,87,423,0,
1,1779205296704,-650,-1507,11907,403171,318871,-92851,0,0,0,363,365,341,428,304,420,593,549,340,636,591,325,0,
2,1779205296704,1497,-732,16932,4328591,-122173,-547335,0,0,0,405,313,168,466,359,479,268,106,347,204,86,312,0,
1,1779205296720,-866,-464,9270,-74525,102625,1221,0,0,0,382,384,351,446,324,432,584,528,370,641,592,342,0,
2,1779205296720,1579,-1301,18951,5435478,-127059,-598647,0,0,0,372,314,172,446,335,446,264,104,369,182,76,301,0,
1,1779205296736,-1086,-306,9710,117286,63529,6108,0,0,0,398,397,352,463,335,441,631,564,352,648,591,354,0,
2,1779205296736,2598,-2871,20559,6477614,228463,-604756,0,0,0,358,280,148,430,334,399,316,171,296,195,92,291,0,
1,1779205296752,-1110,-469,10399,194255,19547,-35430,0,0,0,403,391,362,461,336,446,626,561,358,650,593,357,0,
2,1779205296752,3584,-4369,20942,6929655,987158,-696386,0,0,0,328,247,171,406,287,388,283,114,273,180,76,238,0,
1,1779205296768,-1091,-411,10069,42760,-29321,-39095,0,0,0,404,401,369,465,333,453,636,580,351,650,600,356,0,
2,1779205296768,3330,-4345,19779,6778160,1242499,-996932,0,0,0,275,189,149,384,234,345,298,91,248,177,59,199,0,
1,1779205296784,-1100,-349,9863,-26878,-54977,-31764,0,0,0,395,392,369,467,335,459,645,572,359,653,606,349,0,
2,1779205296784,4192,-2627,17597,6505714,934623,-1364672,0,0,0,202,133,131,321,183,298,299,96,232,152,58,163,0,
1,1779205296800,-1110,-344,9911,-26878,-64751,-31764,0,0,0,386,385,365,463,325,441,639,590,343,649,609,322,0,
2,1779205296800,6369,469,14501,6295577,707381,-1847256,0,0,0,172,91,123,289,138,262,314,100,204,156,62,145,0,
1,1779205296816,-1115,-358,9954,-39095,-64751,-41538,0,0,0,372,383,394,456,329,438,648,613,333,651,634,303,0,
2,1779205296816,6905,3661,8571,5830097,1116661,-2474004,0,0,0,162,83,131,276,123,261,326,100,204,156,62,146,0,
1,1779205296832,-1124,-354,9954,-65973,-58643,-48869,0,0,0,347,360,402,435,304,427,647,630,317,646,640,274,0,
2,1779205296832,6154,8068,2412,4254065,1423316,-3150842,0,0,0,161,90,137,266,121,261,320,96,213,147,58,145,0,
1,1779205296848,-1124,-349,9959,-87964,-58643,-54977,0,0,0,330,326,358,419,270,398,647,647,293,656,655,250,0,
2,1779205296848,4800,12347,3565,1006705,1562593,-3546683,0,0,0,172,91,133,267,117,250,321,90,204,193,57,143,0,
1,1779205296864,-1134,-354,9987,-102625,-79412,-74525,0,0,0,324,294,351,397,252,378,655,656,292,664,664,220,0,
2,1779205296864,1588,11897,7748,-2783102,1017701,-3139847,0,0,0,177,89,129,273,116,246,331,89,192,219,60,142,0,
1,1779205296880,-1167,-296,10016,-117286,-119729,-108734,0,0,0,322,302,333,369,277,354,663,666,295,674,675,203,0,
2,1779205296880,47,7824,7839,-4415333,-180816,-2334726,0,0,0,178,95,130,273,118,249,332,92,193,165,60,139,0,
1,1779205296896,-1186,-220,10011,-117286,-157603,-134390,0,0,0,318,302,311,357,278,340,666,674,288,684,685,200,0,
2,1779205296896,1277,4699,5561,-4258952,-1048244,-1555262,0,0,0,184,100,135,277,119,250,338,95,196,170,61,141,0,
1,1779205296912,-1162,-181,9987,-118507,-185703,-147829,0,0,0,312,285,309,356,251,339,662,680,285,690,690,201,0,
2,1779205296912,2943,3981,4536,-3955963,-927293,-894306,0,0,0,187,102,132,283,121,250,344,99,194,179,63,138,0,
1,1779205296928,-1119,-134,9940,-118507,-191811,-129503,0,0,0,305,281,303,356,246,337,654,687,285,699,699,201,0,
2,1779205296928,3129,4637,5484,-4095240,8552,-342084,0,0,0,187,107,132,286,129,257,336,103,188,178,73,134,0,
1,1779205296944,-1105,-76,9892,-101403,-166155,-83077,0,0,0,302,283,288,357,257,334,648,691,279,710,711,195,0,
2,1779205296944,1474,4527,7054,-4405560,996932,376292,0,0,0,196,117,135,289,121,256,339,90,183,178,59,130,0,
1,1779205296960,-1139,-62,9887,-63529,-118507,-32986,0,0,0,304,287,296,357,265,333,650,694,286,710,711,188,0,
2,1779205296960,-344,3838,8351,-4480085,1540602,1053131,0,0,0,198,114,134,295,123,255,347,93,186,179,57,128,0,
1,1779205296976,-1201,-76,9901,-17104,-69638,-2443,0,0,0,301,281,290,356,260,338,627,679,293,710,710,188,0,
2,1779205296976,-1756,3192,9892,-4436103,1755626,1609019,0,0,0,189,98,134,299,126,270,347,85,203,187,58,142,0,
1,1779205296992,-1206,-86,9920,6108,-42760,0,0,0,0,303,283,297,355,255,338,584,655,343,715,717,196,0,
2,1779205296992,-2742,2919,12227,-4572937,1764178,1919338,0,0,0,185,96,137,299,127,279,345,84,209,184,59,149,0,
1,1779205297008,-1148,-81,9935,26878,-30543,3665,0,0,0,303,283,292,355,251,333,641,689,276,710,712,197,0,
2,1779205297008,-3378,2488,14161,-4838052,1676214,1948660,0,0,0,186,98,139,299,126,281,347,84,214,178,55,147,0,
1,1779205297024,-1119,-76,9930,54977,-26878,15882,0,0,0,311,292,303,346,248,347,656,695,288,693,714,222,0,
2,1779205297024,-4044,1493,15831,-5097059,1524719,1743409,0,0,0,188,99,138,297,123,279,345,83,210,188,63,146,0,
1,1779205297040,-1134,-95,9925,86742,-19547,31764,0,0,0,316,296,305,354,253,331,648,687,267,717,720,209,0,
2,1779205297040,-4737,454,17353,-5114163,1299921,1381777,0,0,0,189,101,137,297,125,274,347,85,210,185,61,145,0,
1,1779205297056,-1162,-143,9930,106290,-6108,36651,0,0,0,330,327,314,362,258,335,638,677,274,708,708,190,0,
2,1779205297056,-5149,62,18698,-5026199,943175,1128878,0,0,0,190,101,137,299,128,272,350,86,212,178,57,145,0,
1,1779205297072,-1172,-181,9944,112399,0,34208,0,0,0,329,340,340,376,275,353,621,670,285,699,699,202,0,
2,1779205297072,-4225,-105,19554,-4922352,354301,1012814,0,0,0,186,96,133,303,134,273,350,84,207,176,53,142,0,
1,1779205297088,-1167,-181,9930,118507,4886,32986,0,0,0,329,363,349,398,292,372,612,662,284,697,697,214,0,
2,1779205297088,-1966,-425,19861,-4791626,-73303,907745,0,0,0,184,92,130,308,140,271,351,82,200,174,49,139,0,
1,1779205297104,-1167,-167,9906,156381,25656,35430,0,0,0,337,395,368,428,316,409,612,639,292,684,684,247,0,
2,1779205297104,914,-894,19999,-4632801,-13439,791681,0,0,0,188,94,133,305,136,267,351,82,200,176,53,141,0,
1,1779205297120,-1148,-205,9925,195476,51312,37873,0,0,0,367,429,386,467,344,436,624,594,328,677,677,298,0,
2,1779205297120,2651,-1832,20823,-4517959,296880,850324,0,0,0,191,96,136,301,129,266,352,87,203,177,52,141,0,
1,1779205297136,-1095,-277,9964,222354,67195,39095,0,0,0,408,462,409,495,380,456,634,548,359,674,653,349,0,
2,1779205297136,3589,-3560,21459,-4519181,212581,1165530,0,0,0,191,100,139,302,126,268,356,88,207,178,51,142,0,
1,1779205297152,-1062,-325,10011,238237,65973,39095,0,0,0,461,495,451,524,420,475,630,501,370,666,596,406,0,
2,1779205297152,4871,-7159,19621,-4626693,-291993,1624901,0,0,0,189,93,135,303,128,273,356,84,213,182,52,145,0,
1,1779205297168,-1057,-349,10078,252898,30543,43982,0,0,0,524,524,481,562,457,491,612,429,388,644,521,478,0,
2,1779205297168,5551,-12313,16290,-4393342,-243124,1850921,0,0,0,191,94,133,310,129,271,356,84,207,188,57,146,0,
1,1779205297184,-1043,-358,10189,298102,-53756,52534,0,0,0,571,560,476,574,485,517,578,329,411,594,423,544,0,
2,1779205297184,3694,-18219,12883,-3413514,403171,1830152,0,0,0,191,94,132,311,126,276,356,86,207,186,57,142,0,
1,1779205297200,-1057,-382,10346,373849,-173485,65973,0,0,0,617,594,492,596,506,542,538,240,417,540,302,587,0,
2,1779205297200,1698,-21670,10107,-1997529,379958,1933999,0,0,0,187,98,132,312,135,279,354,102,208,187,72,145,0,
1,1779205297216,-1148,-445,10849,519235,-322536,84299,0,0,0,626,621,417,608,537,556,464,179,424,480,265,622,0,
2,1779205297216,2201,-22828,7748,-695164,52534,2031737,0,0,0,181,96,132,296,126,279,342,102,210,177,70,146,0,
1,1779205297232,-1426,-488,12031,839328,-271224,107512,0,0,0,660,642,308,620,565,548,409,175,424,416,228,635,0,
2,1779205297232,3469,-21296,7542,321315,74525,1805717,0,0,0,170,92,122,282,124,257,362,188,207,209,161,146,0,
1,1779205297248,-1866,-378,14228,1572367,90408,185703,0,0,0,663,644,219,616,564,544,369,176,407,389,196,648,0,
2,1779205297248,1603,-19416,13347,1783726,-40317,1408655,0,0,0,158,87,116,275,130,243,371,288,207,254,290,136,0,
1,1779205297264,-1890,-272,15223,2553416,265115,331088,0,0,0,662,648,176,620,568,543,329,175,403,358,189,641,0,
2,1779205297264,-875,-13424,14362,3802025,-906524,1288925,0,0,0,158,86,115,285,134,259,392,354,211,288,378,127,0,
1,1779205297280,-1785,-335,15209,3419623,255341,448375,0,0,0,660,657,173,613,565,526,313,173,395,325,171,619,0,
2,1779205297280,-2311,-770,11830,5644394,-1031140,1386664,0,0,0,164,83,120,299,132,277,424,385,214,330,417,122,0,
1,1779205297296,-2191,-516,15305,4128227,293215,542448,0,0,0,654,651,170,605,547,508,281,173,404,296,146,595,0,
2,1779205297296,-3172,1914,16913,5864306,39095,994488,0,0,0,174,79,135,305,122,293,444,397,229,377,429,127,0,
1,1779205297312,-3680,-871,15979,5018868,486248,816115,0,0,0,636,635,163,588,538,496,275,179,406,265,127,570,0,
2,1779205297312,-2129,-1134,21957,4484972,256563,133168,0,0,0,194,80,158,309,110,306,452,402,250,411,436,136,0,
1,1779205297328,-5025,-1306,16812,5874080,773355,1243721,0,0,0,581,601,156,578,521,492,277,180,398,250,127,511,0,
2,1779205297328,105,-1703,16750,1949881,-218689,-273667,0,0,0,222,94,181,315,115,312,459,401,261,419,438,137,0,
1,1779205297344,-6345,-2278,19559,6824586,1293812,1781283,0,0,0,482,558,142,556,479,468,281,174,378,244,124,442,0,
2,1779205297344,397,-23,10576,453262,-306654,-80634,0,0,0,246,124,199,321,138,331,462,409,279,416,438,139,0,
1,1779205297360,-8494,-4589,25068,7690793,1605353,2291966,0,0,0,381,505,131,498,420,411,299,176,335,240,125,370,0,
2,1779205297360,-239,665,9198,151494,-136833,117286,0,0,0,273,163,211,338,161,352,475,426,286,444,444,144,0,
1,1779205297376,-8073,-5254,28949,8060977,1095892,2792875,0,0,0,314,435,150,426,362,354,323,193,291,239,148,289,0,
2,1779205297376,-387,392,10035,139277,-72082,97738,0,0,0,293,178,210,357,174,353,482,439,280,442,448,153,0,
1,1779205297392,-6417,-1311,26216,7844731,996932,3258355,0,0,0,270,370,191,354,323,316,343,208,273,235,174,243,0,
2,1779205297392,-224,210,10509,80634,-106290,19547,0,0,0,298,191,237,361,193,365,487,449,282,434,451,166,0,
1,1779205297408,-7279,5254,16673,7040832,1959655,3628539,0,0,0,251,349,221,300,310,292,368,217,271,240,193,235,0,
2,1779205297408,-196,440,10165,-3665,-122173,7330,0,0,0,310,195,221,375,193,360,489,445,280,449,451,171,0,
1,1779205297424,-10825,12088,8102,5397605,2436130,4072027,0,0,0,246,351,226,315,288,300,355,215,266,236,190,230,0,
2,1779205297424,-277,583,9992,8552,-89186,19547,0,0,0,310,197,239,369,195,376,489,444,289,449,451,183,0,
1,1779205297440,-12936,16621,7729,2212553,602313,4643797,0,0,0,246,345,236,306,283,288,361,210,269,237,185,225,0,
2,1779205297440,-320,579,10054,50090,-56199,13439,0,0,0,314,227,252,362,205,379,493,436,304,435,452,187,0,
1,1779205297456,-8088,16286,10437,-1623679,-1942551,4808731,0,0,0,252,339,242,305,280,283,367,206,268,245,189,224,0,
2,1779205297456,-306,540,10107,84299,-25656,3665,0,0,0,308,224,260,371,204,378,487,426,295,433,449,191,0,
1,1779205297472,-976,11127,8825,-3522248,-2048842,3480710,0,0,0,255,338,236,305,280,283,368,211,271,245,190,224,0,
2,1779205297472,-277,531,10069,100181,-8552,1221,0,0,0,300,218,269,372,211,388,479,418,301,426,447,200,0,
1,1779205297488,378,7322,5575,-3734830,-1040914,1211956,0,0,0,259,339,233,303,280,281,365,209,269,246,192,225,0,
2,1779205297488,-253,516,10021,102625,-13439,3665,0,0,0,307,260,255,374,234,388,477,407,302,424,432,208,0,
1,1779205297504,-3273,6819,4986,-3533244,-1170417,-1131322,0,0,0,261,339,234,307,278,283,366,206,269,245,187,222,0,
2,1779205297504,-248,502,10026,100181,-37873,4886,0,0,0,329,264,238,377,247,382,477,396,299,421,416,216,0,
1,1779205297520,-4781,6977,6613,-3803246,-2296853,-2519208,0,0,0,265,340,236,309,278,286,365,207,270,244,186,218,0,
2,1779205297520,-248,492,10040,98960,-62308,4886,0,0,0,354,259,240,379,259,384,481,384,300,412,401,219,0,
1,1779205297536,-3010,6479,8734,-4329812,-3158173,-2890614,0,0,0,264,340,232,312,279,290,363,208,268,244,187,218,0,
2,1779205297536,-258,478,10035,97738,-90408,4886,0,0,0,374,276,237,390,276,394,479,378,303,404,386,232,0,
1,1779205297552,-526,5431,10433,-4834387,-3282789,-2691472,0,0,0,265,341,232,314,280,293,363,209,268,243,189,218,0,
2,1779205297552,-277,454,10007,101403,-106290,1221,0,0,0,389,299,231,405,294,403,477,361,307,407,367,241,0,
1,1779205297568,957,4350,11811,-5207015,-3023782,-2098932,0,0,0,268,342,233,315,281,293,365,211,268,243,189,217,0,
2,1779205297568,-330,454,10021,107512,-103847,0,0,0,0,408,328,238,415,309,402,480,330,303,414,348,240,0,
1,1779205297584,2359,3680,13720,-5513669,-3039665,-1390329,0,0,0,270,342,233,317,283,293,366,209,269,243,188,214,0,
2,1779205297584,-363,464,10064,119729,-84299,0,0,0,0,433,351,247,424,324,403,475,315,296,411,339,265,0,
1,1779205297600,4091,3378,15807,-5765346,-3099530,-860098,0,0,0,270,343,233,318,283,293,368,209,271,244,187,214,0,
2,1779205297600,-344,459,10098,141720,-58643,2443,0,0,0,440,347,244,436,337,413,474,284,301,418,324,307,0,
1,1779205297616,5101,2986,17788,-5932723,-2932153,-811229,0,0,0,270,344,233,316,280,292,370,211,273,245,187,217,0,
2,1779205297616,-325,435,10126,167377,-32986,3665,0,0,0,454,353,263,429,353,426,474,245,302,396,289,346,0,
1,1779205297632,4852,2163,19502,-5957157,-2686585,-1073901,0,0,0,270,344,232,316,279,289,367,211,269,244,185,215,0,
2,1779205297632,-287,406,10150,193033,-7330,0,0,0,0,482,364,290,440,360,447,470,192,305,363,229,396,0,
1,1779205297648,3436,559,21785,-5794667,-2411695,-1590693,0,0,0,270,345,236,315,277,289,367,214,269,242,185,216,0,
2,1779205297648,-248,373,10189,224798,10995,-7330,0,0,0,479,397,290,457,378,452,467,163,325,338,156,417,0,
1,1779205297664,1349,-2077,24579,-5618738,-2167349,-2139250,0,0,0,269,340,237,314,274,291,367,209,270,238,173,215,0,
2,1779205297664,-224,349,10251,272445,43982,-23212,0,0,0,495,421,276,443,392,461,465,130,324,312,124,445,0,
1,1779205297680,-1215,-6556,27355,-5593082,-1935221,-2664594,0,0,0,267,340,234,307,263,281,324,223,265,236,173,213,0,
2,1779205297680,-167,311,10528,370184,81855,-46425,0,0,0,505,436,309,447,402,471,448,112,330,299,117,454,0,
1,1779205297696,-3067,-12768,28279,-5744576,-1859473,-2934596,0,0,0,270,341,232,339,277,299,371,211,274,238,179,214,0,
2,1779205297696,-114,291,11170,599869,51312,-67195,0,0,0,491,443,277,455,412,492,408,120,343,286,131,458,0,
1,1779205297712,-2641,-21995,24642,-5838649,-1800830,-2735454,0,0,0,274,343,229,351,277,298,372,209,272,243,178,212,0,
2,1779205297712,-248,330,11940,979827,-51312,-65973,0,0,0,491,469,252,461,442,495,394,122,345,275,129,461,0,
1,1779205297728,851,-33309,17554,-5230228,-1600466,-2122145,0,0,0,275,345,226,351,277,300,373,211,274,243,180,211,0,
2,1779205297728,-368,330,12395,1429424,-53756,-36651,0,0,0,501,476,243,467,439,505,361,118,327,261,119,469,0,
1,1779205297744,8365,-43364,10332,-3274237,-1127657,-1448972,0,0,0,273,336,220,344,273,294,367,189,263,272,211,210,0,
2,1779205297744,-196,201,12562,1805717,31764,-31764,0,0,0,509,488,240,467,455,507,329,123,318,253,120,471,0,
1,1779205297760,13625,-46743,8064,-840550,-340862,-1131322,0,0,0,264,275,200,290,226,258,381,393,259,369,410,189,0,
2,1779205297760,201,33,12988,2191784,84299,-75747,0,0,0,506,500,242,475,470,493,295,117,322,263,122,472,0,
1,1779205297776,7633,-34046,15295,2113593,453262,-582765,0,0,0,246,196,129,260,148,250,432,528,270,459,534,164,0,
2,1779205297776,942,-110,14142,2751337,0,-218689,0,0,0,503,498,231,475,458,473,252,106,316,265,118,458,0,
1,1779205297792,-2033,-4288,15931,4472755,557109,1395216,0,0,0,249,149,92,298,109,265,493,596,274,540,607,144,0,
2,1779205297792,1823,-268,15687,3552792,-199142,-471587,0,0,0,497,476,222,456,440,460,228,113,308,245,114,439,0,
1,1779205297808,-7183,7977,13204,5991366,1501506,2894279,0,0,0,283,129,154,334,96,281,577,648,267,608,642,146,0,
2,1779205297808,2876,-478,17449,4476420,-565661,-797790,0,0,0,474,434,221,445,418,451,228,118,304,226,108,409,0,
1,1779205297824,-6623,-1287,20330,6078109,1699427,1637118,0,0,0,315,140,247,337,100,308,634,665,269,650,652,175,0,
2,1779205297824,3977,-559,20186,5610186,-1164309,-1196074,0,0,0,449,397,205,445,396,432,238,113,289,220,98,344,0,
1,1779205297840,-3067,-5427,23551,4425107,1043357,196698,0,0,0,336,193,315,356,150,352,637,656,284,666,668,220,0,
2,1779205297840,5278,-746,24713,7006624,-1982868,-1626123,0,0,0,419,344,200,444,363,411,262,106,285,223,92,303,0,
1,1779205297856,-588,-2459,16113,1413542,290771,-271224,0,0,0,354,253,347,407,226,388,647,653,304,667,667,261,0,
2,1779205297856,7202,-2531,29643,8381071,-2037846,-2079385,0,0,0,356,293,152,413,316,357,266,98,293,207,86,262,0,
1,1779205297872,-1072,282,9451,96516,108734,-7330,0,0,0,368,318,359,436,274,406,654,646,321,671,671,291,0,
2,1779205297872,6594,-3029,33500,9189856,-1317025,-2599842,0,0,0,282,203,148,376,241,305,312,100,245,178,69,195,0,
1,1779205297888,-1627,363,8691,37873,96516,79412,0,0,0,381,352,391,458,295,432,660,624,322,675,675,313,0,
2,1779205297888,8164,272,31184,8991936,-1295034,-3059213,0,0,0,167,108,125,267,138,261,294,107,200,149,71,158,0,
1,1779205297904,-1521,-167,10136,244346,86742,0,0,0,0,389,374,393,475,323,447,664,612,333,679,678,334,0,
2,1779205297904,12835,9164,19530,8035321,-1409876,-3707952,0,0,0,168,118,128,266,133,227,300,113,172,148,72,137,0,
1,1779205297920,-1316,-95,10346,222354,64751,-29321,0,0,0,402,406,407,497,349,462,639,591,361,683,669,373,0,
2,1779205297920,10868,15797,8289,6130643,-875980,-3861890,0,0,0,178,119,130,266,135,225,309,110,175,157,72,140,0,
1,1779205297936,-1292,172,9925,152716,40317,0,0,0,0,430,451,424,528,365,478,660,559,367,677,628,421,0,
2,1779205297936,5144,16702,5546,2570520,-299323,-2550973,0,0,0,176,120,131,267,135,232,307,111,176,158,76,140,0,
1,1779205297952,-1292,134,9987,199142,-30543,19547,0,0,0,431,449,425,532,378,497,637,524,391,662,596,454,0,
2,1779205297952,2517,12830,7815,-1039692,-370184,-41538,0,0,0,176,122,128,270,138,231,307,123,171,160,83,136,0,
1,1779205297968,-1277,9,10093,233350,-127059,20769,0,0,0,449,450,416,550,394,501,632,481,398,643,524,488,0,
2,1779205297968,3809,8222,5752,-2667037,-634078,1942551,0,0,0,177,121,132,270,142,237,308,125,179,160,86,138,0,
1,1779205297984,-1330,-43,10107,232128,-208915,17104,0,0,0,452,461,422,559,403,519,612,450,409,614,506,508,0,
2,1779205297984,5379,6456,2215,-2537534,211359,2301740,0,0,0,180,127,139,272,140,240,307,120,185,158,82,142,0,
1,1779205298000,-1407,-14,10064,238237,-241902,23212,0,0,0,471,475,422,568,426,537,597,423,415,595,469,541,0,
2,1779205298000,3905,5886,2330,-2752558,1434311,2225992,0,0,0,183,134,143,272,138,240,307,118,186,156,80,141,0,
1,1779205298016,-1459,-38,10035,257785,-250454,35430,0,0,0,494,492,421,574,445,540,588,392,420,579,428,558,0,
2,1779205298016,330,5752,5178,-3401297,2194227,2158797,0,0,0,183,132,141,273,141,243,309,121,187,154,79,136,0,
1,1779205298032,-1464,-114,10035,279776,-241902,48869,0,0,0,510,504,409,577,458,540,582,352,420,551,384,571,0,
2,1779205298032,-1698,5522,7207,-4069584,2023185,2304183,0,0,0,179,127,140,277,147,250,308,122,190,154,79,135,0,
1,1779205298048,-1459,-181,10031,290771,-223576,58643,0,0,0,521,513,396,588,471,552,559,298,420,534,331,580,0,
2,1779205298048,-2388,4986,8336,-4623028,1800830,2403143,0,0,0,179,128,141,277,149,253,311,121,195,156,80,135,0,
1,1779205298064,-1445,-215,10035,298102,-208915,58643,0,0,0,530,518,390,599,479,565,531,254,426,536,293,582,0,
2,1779205298064,-3015,4264,9332,-4991990,1743409,2351831,0,0,0,184,130,139,277,142,247,321,119,190,161,77,134,0,
1,1779205298080,-1488,-248,10064,322536,-200363,58643,0,0,0,540,521,380,599,480,569,510,233,434,519,284,596,0,
2,1779205298080,-4158,3675,10835,-5244888,1591914,2142915,0,0,0,186,134,139,277,140,240,325,121,187,161,77,130,0,
1,1779205298096,-1593,-287,10083,362853,-175929,72082,0,0,0,554,529,367,603,489,573,487,206,437,463,278,623,0,
2,1779205298096,-4661,3350,12270,-5461135,1409876,1842369,0,0,0,187,138,139,280,138,242,326,112,187,171,75,129,0,
1,1779205298112,-1675,-349,10093,412944,-97738,103847,0,0,0,570,536,361,608,499,583,483,200,442,439,262,630,0,
2,1779205298112,-4637,3034,14103,-5769011,1280373,1389107,0,0,0,191,137,146,280,133,245,330,113,192,170,67,130,0,
1,1779205298128,-1660,-430,10054,450818,-7330,138055,0,0,0,584,553,359,614,501,577,473,209,432,434,261,631,0,
2,1779205298128,-4149,2608,16195,-6104987,1083674,1022588,0,0,0,187,134,146,277,132,246,327,106,194,155,67,133,0,
1,1779205298144,-1569,-516,9997,458148,48869,160046,0,0,0,600,570,362,615,503,570,460,195,434,438,245,638,0,
2,1779205298144,-3024,2081,18420,-6370102,777020,875980,0,0,0,188,133,147,277,133,247,329,108,195,156,68,134,0,
1,1779205298160,-1564,-559,10107,458148,43982,175929,0,0,0,608,564,285,632,517,579,438,187,427,431,232,654,0,
2,1779205298160,-1153,1325,21148,-6464175,518013,992045,0,0,0,203,137,159,275,124,243,330,99,195,149,54,129,0,
1,1779205298176,-1584,-612,10370,507018,24434,201585,0,0,0,619,568,238,634,521,568,418,165,422,443,223,661,0,
2,1779205298176,1033,167,24110,-6437297,343306,1203404,0,0,0,204,134,157,276,126,242,324,93,190,147,53,127,0,
1,1779205298192,-1550,-684,10629,624304,0,226020,0,0,0,631,567,212,640,523,573,428,168,425,441,222,669,0,
2,1779205298192,4230,-2483,27111,-6342002,207694,1489289,0,0,0,201,138,154,278,131,242,325,95,190,148,55,130,0,
1,1779205298208,-1507,-760,10882,791681,-24434,248011,0,0,0,636,579,193,644,540,577,417,174,433,430,219,670,0,
2,1779205298208,7355,-8073,28667,-6125756,280998,1598023,0,0,0,198,148,150,284,151,244,332,106,192,165,61,131,0,
1,1779205298224,-1335,-856,11103,1010371,-46425,257785,0,0,0,642,585,175,648,549,579,399,172,432,405,199,670,0,
2,1779205298224,7623,-15281,28025,-5833763,863763,1387885,0,0,0,193,151,144,289,162,246,335,111,191,164,63,130,0,
1,1779205298240,-1072,-966,11275,1264491,-79412,219911,0,0,0,644,587,160,647,548,582,384,167,433,372,181,666,0,
2,1779205298240,1866,-24512,24967,-5444031,1902234,1015258,0,0,0,191,147,143,294,160,249,335,111,192,155,63,132,0,
1,1779205298256,-1119,-1052,11710,1582140,-139277,156381,0,0,0,646,595,162,639,548,581,357,166,433,354,173,664,0,
2,1779205298256,-6872,-34280,19899,-4296826,1484402,1308473,0,0,0,193,143,147,296,155,253,337,109,195,157,66,135,0,
1,1779205298272,-1718,-1148,12423,1999972,-178372,153938,0,0,0,654,605,166,633,555,583,325,174,439,345,172,668,0,
2,1779205298272,-6695,-40090,13543,-2408030,-194255,1864360,0,0,0,188,127,141,289,147,249,341,131,193,173,97,135,0,
1,1779205298288,-2201,-1296,12950,2461786,-167377,230907,0,0,0,662,615,156,632,569,586,315,180,451,332,168,663,0,
2,1779205298288,311,-39717,9552,-74525,-863763,1444085,0,0,0,168,90,119,276,137,234,357,224,182,225,199,129,0,
1,1779205298304,-2383,-1488,13290,3055547,-119729,392175,0,0,0,665,628,156,633,581,572,308,177,457,323,156,649,0,
2,1779205298304,330,-30997,14922,2194227,-857654,431270,0,0,0,149,85,103,261,130,217,382,343,172,278,319,119,0,
1,1779205298320,-2349,-1694,13644,3742160,-80634,579100,0,0,0,657,633,157,630,583,566,287,175,466,321,149,640,0,
2,1779205298320,-1512,-6819,16707,4646241,-2146580,-43982,0,0,0,151,88,105,270,145,232,400,436,188,280,399,119,0,
1,1779205298336,-2479,-1866,14400,4465424,-13439,744033,0,0,0,646,636,146,627,576,582,278,168,472,310,140,632,0,
2,1779205298336,-411,5805,12897,5937610,-1677435,587652,0,0,0,157,75,113,286,129,262,434,448,217,324,418,125,0,
1,1779205298352,-3268,-2249,15544,5357288,273667,935845,0,0,0,622,627,155,617,560,580,289,171,487,283,122,583,0,
2,1779205298352,-1067,2814,16204,6322455,58643,857654,0,0,0,205,87,149,309,121,277,456,458,213,384,434,123,0,
1,1779205298368,-5049,-3555,17578,6298020,649960,1192408,0,0,0,523,583,161,598,526,559,299,172,462,258,115,481,0,
2,1779205298368,-1761,-3431,22043,5137376,781907,274889,0,0,0,251,113,176,326,132,287,465,465,227,416,436,119,0,
1,1779205298384,-6527,-6250,22857,7121466,643851,1500285,0,0,0,413,546,143,551,465,458,283,184,391,249,113,412,0,
2,1779205298384,-311,-2392,17913,2531425,246789,-229685,0,0,0,292,164,197,338,162,313,473,458,250,428,440,145,0,
1,1779205298400,-7485,-7532,28346,7778757,188146,1828930,0,0,0,371,498,121,505,417,429,294,206,351,233,131,376,0,
2,1779205298400,425,-57,11471,537561,-204028,-118507,0,0,0,340,191,204,364,195,322,486,461,256,436,446,157,0,
1,1779205298416,-9609,-4589,28083,8224689,-224798,2403143,0,0,0,290,423,131,447,370,363,319,210,308,231,137,286,0,
2,1779205298416,71,416,9413,51312,-184481,113620,0,0,0,376,207,241,369,193,333,494,467,260,430,446,167,0,
1,1779205298432,-11318,-76,23948,8199033,-25656,3357315,0,0,0,249,359,174,358,307,306,342,216,279,228,156,238,0,
2,1779205298432,-90,157,9897,105068,-87964,112399,0,0,0,405,227,240,370,207,338,497,462,266,430,438,180,0,
1,1779205298448,-13046,5436,17798,7417125,329867,4356690,0,0,0,234,354,194,342,292,306,352,206,270,228,154,230,0,
2,1779205298448,28,134,10409,173485,-78190,25656,0,0,0,426,254,242,375,230,342,498,451,266,436,433,194,0,
1,1779205298464,-13189,11792,10653,5024977,-265115,5459913,0,0,0,230,346,203,320,282,290,353,191,270,228,146,230,0,
2,1779205298464,76,339,10150,128281,-117286,13439,0,0,0,437,294,267,377,249,351,496,439,270,443,440,202,0,
1,1779205298480,-8643,14362,9466,350636,-1462411,6228381,0,0,0,228,339,207,307,279,281,364,188,270,229,145,227,0,
2,1779205298480,23,387,10007,112399,-119729,21991,0,0,0,443,319,283,376,262,356,493,411,273,449,424,203,0,
1,1779205298496,-1301,11198,10945,-4075692,-1563815,5794667,0,0,0,228,336,210,302,280,281,365,191,270,232,151,228,0,
2,1779205298496,-19,330,10083,127059,-89186,15882,0,0,0,448,306,292,378,267,354,490,374,272,439,373,213,0,
1,1779205298512,1249,6235,8987,-5145928,67195,3848451,0,0,0,224,331,215,297,278,283,363,193,276,231,154,231,0,
2,1779205298512,-43,315,10141,135612,-62308,9773,0,0,0,448,309,296,380,280,357,483,361,281,420,353,231,0,
1,1779205298528,-1354,4168,5867,-4906469,1354899,1690874,0,0,0,218,324,216,293,274,282,371,194,280,224,150,232,0,
2,1779205298528,-14,325,10117,138055,-41538,9773,0,0,0,446,316,298,376,286,357,475,341,280,411,350,239,0,
1,1779205298544,-5431,4575,4599,-4605923,1043357,13439,0,0,0,220,326,212,292,274,276,372,193,277,225,151,230,0,
2,1779205298544,28,291,10040,133168,-39095,10995,0,0,0,453,324,320,377,292,365,477,316,285,420,338,235,0,
1,1779205298560,-6221,4723,5513,-4791626,-464257,-1192408,0,0,0,218,327,207,290,276,274,373,192,275,222,149,227,0,
2,1779205298560,43,248,9992,124616,-41538,4886,0,0,0,444,332,268,382,319,355,463,300,276,417,320,225,0,
1,1779205298576,-5034,4254,6939,-5044525,-1797165,-2163684,0,0,0,218,326,208,286,272,273,365,187,273,222,149,229,0,
2,1779205298576,9,234,10002,111177,-42760,-1221,0,0,0,449,340,288,382,318,364,463,296,284,399,314,236,0,
1,1779205298592,-3967,3709,8260,-5226562,-2219884,-2621833,0,0,0,219,326,209,297,280,285,376,195,283,223,152,231,0,
2,1779205298592,-4,244,10031,100181,-39095,-1221,0,0,0,454,372,297,378,321,370,461,284,287,406,306,236,0,
1,1779205298608,-3589,3359,9691,-5451361,-2392148,-2690250,0,0,0,219,326,209,297,275,282,377,195,283,223,151,226,0,
2,1779205298608,4,244,10045,92851,-36651,0,0,0,0,455,365,316,396,327,382,458,281,288,399,294,248,0,
1,1779205298624,-2900,2876,11696,-5777563,-2620611,-2511877,0,0,0,220,327,209,303,283,288,379,192,283,223,154,226,0,
2,1779205298624,9,244,10050,102625,-36651,0,0,0,0,463,371,321,403,331,388,466,263,284,413,266,248,0,
1,1779205298640,-1617,1957,14046,-6064670,-2802649,-2354274,0,0,0,220,323,225,301,275,296,381,192,290,223,154,229,0,
2,1779205298640,0,239,10059,128281,-30543,-2443,0,0,0,472,380,322,415,350,389,468,234,284,392,248,270,0,
1,1779205298656,-861,1005,16372,-6235712,-2836858,-2339613,0,0,0,225,318,214,301,270,291,385,195,290,225,154,230,0,
2,1779205298656,-4,220,10088,155159,-17104,-3665,0,0,0,490,380,316,418,354,394,473,197,281,372,206,312,0,
1,1779205298672,-1148,38,19076,-6307794,-2833192,-2538755,0,0,0,226,313,212,301,267,287,386,196,288,224,156,229,0,
2,1779205298672,-4,201,10141,179594,4886,-3665,0,0,0,492,383,317,418,366,406,466,184,293,348,182,341,0,
1,1779205298688,-1847,-1005,21746,-6312681,-2891836,-2877175,0,0,0,225,311,212,298,260,284,385,196,287,223,153,228,0,
2,1779205298688,14,172,10189,222354,40317,-4886,0,0,0,492,394,321,425,380,428,463,177,312,324,168,372,0,
1,1779205298704,-2756,-2641,24632,-6238155,-2910161,-3379306,0,0,0,226,312,212,298,263,286,387,196,287,224,153,229,0,
2,1779205298704,47,134,10256,291993,95294,-13439,0,0,0,506,397,313,442,395,444,470,151,320,310,141,401,0,
1,1779205298720,-4469,-5599,27494,-6152634,-2649933,-3913202,0,0,0,225,312,212,297,265,289,386,194,286,222,149,227,0,
2,1779205298720,105,90,10390,387288,171042,-24434,0,0,0,509,403,292,460,414,454,464,128,321,293,121,413,0,
1,1779205298736,-7126,-9380,28848,-6183177,-2232101,-4196644,0,0,0,223,313,208,306,266,294,384,193,289,219,146,224,0,
2,1779205298736,143,57,10619,525344,278554,-39095,0,0,0,494,420,272,469,423,473,451,126,327,302,120,429,0,
1,1779205298752,-10538,-15142,27293,-6174625,-1953547,-3971845,0,0,0,224,321,203,318,267,302,387,192,296,220,147,224,0,
2,1779205298752,224,4,10835,697608,379958,-53756,0,0,0,488,422,263,479,439,490,438,128,337,336,123,438,0,
1,1779205298768,-10045,-23311,22517,-5496565,-2687807,-2984687,0,0,0,225,330,198,326,268,304,392,190,302,220,148,222,0,
2,1779205298768,239,-43,11045,910189,405614,-67195,0,0,0,497,430,259,478,458,497,404,138,338,258,132,453,0,
1,1779205298784,-3809,-32165,16530,-4153883,-3659082,-1879021,0,0,0,227,333,196,327,269,305,394,190,305,218,148,220,0,
2,1779205298784,253,-100,11304,1159422,351858,-58643,0,0,0,506,425,232,479,471,486,381,138,342,251,129,468,0,
1,1779205298800,7059,-39124,11280,-2196671,-3485597,-1406211,0,0,0,225,318,195,310,260,303,387,201,306,239,183,216,0,
2,1779205298800,449,-215,11600,1447750,268780,-48869,0,0,0,514,422,216,495,468,510,349,127,352,260,131,484,0,
1,1779205298816,12811,-40468,9906,-249233,-1924225,-1420872,0,0,0,204,258,177,272,213,282,393,288,304,315,336,198,0,
2,1779205298816,674,-349,12184,1781283,274889,-84299,0,0,0,513,429,230,500,474,517,333,108,363,258,118,481,0,
1,1779205298832,10351,-35654,14721,2251649,882089,-1153313,0,0,0,182,197,140,257,147,260,441,495,294,372,498,166,0,
2,1779205298832,923,-440,13122,2208888,375071,-167377,0,0,0,522,433,227,493,454,527,261,103,348,242,114,486,0,
1,1779205298848,3933,-16779,15252,5313305,3732386,-191811,0,0,0,191,163,75,299,149,257,475,580,277,521,575,136,0,
2,1779205298848,1091,-469,14065,2795319,466701,-287106,0,0,0,510,454,222,479,456,522,265,120,356,241,116,473,0,
1,1779205298864,-1091,1512,16137,7104362,4217413,221133,0,0,0,209,140,193,328,121,292,553,623,271,611,623,146,0,
2,1779205298864,1258,-469,15060,3599217,371406,-410501,0,0,0,504,422,209,480,450,502,269,121,385,224,109,462,0,
1,1779205298880,-526,2904,23196,6994406,2378709,-136833,0,0,0,276,184,290,329,157,313,561,619,279,631,634,193,0,
2,1779205298880,1464,-469,16692,4591263,134390,-526565,0,0,0,484,398,196,478,420,509,244,110,381,206,99,411,0,
1,1779205298896,1258,-3287,24867,4268726,951728,-68416,0,0,0,313,264,323,336,225,357,569,583,295,638,638,247,0,
2,1779205298896,1804,-899,20531,5834984,-95294,-593761,0,0,0,446,369,203,455,396,491,221,100,340,199,91,352,0,
1,1779205298912,-124,-3364,16142,1276708,543670,164933,0,0,0,332,328,378,363,274,389,592,568,316,643,642,286,0,
2,1779205298912,3101,-2560,26455,7208209,-131946,-625526,0,0,0,400,336,188,435,374,430,223,104,305,184,86,294,0,
1,1779205298928,-1072,172,9116,108734,337197,23212,0,0,0,357,365,410,387,288,403,600,573,334,649,645,308,0,
2,1779205298928,4355,-4335,32131,8554556,312763,-736703,0,0,0,359,288,162,420,322,371,252,106,283,177,80,245,0,
1,1779205298944,-914,1014,8753,175929,177150,-140499,0,0,0,375,391,421,402,296,410,602,574,327,654,646,313,0,
2,1779205298944,3077,-1651,32208,9271712,631634,-1042136,0,0,0,290,212,154,374,235,328,295,99,256,176,70,203,0,
1,1779205298960,-603,-23,10457,274889,131946,-129503,0,0,0,385,403,415,416,303,410,599,579,318,661,655,310,0,
2,1779205298960,3024,2177,30126,9590584,477696,-1320690,0,0,0,187,131,141,300,159,273,322,99,219,161,63,159,0,
1,1779205298976,-612,-157,10452,75747,98960,-45204,0,0,0,384,404,418,422,312,410,600,584,317,664,660,315,0,
2,1779205298976,6695,7140,24938,9414655,714712,-1620014,0,0,0,174,87,122,284,128,236,324,96,194,175,64,154,0,
1,1779205298992,-636,291,9940,-42760,56199,-10995,0,0,0,386,413,423,423,324,411,603,586,318,667,665,322,0,
2,1779205298992,8624,15774,12031,6857573,1837482,-2805093,0,0,0,178,91,120,293,129,233,336,94,186,173,63,144,0,
1,1779205299008,-569,459,9935,-15882,-6108,-12217,0,0,0,389,426,418,420,332,409,606,585,318,667,667,321,0,
2,1779205299008,4570,19971,7949,1831373,2517986,-4324925,0,0,0,191,92,121,289,122,227,352,93,183,184,63,138,0,
1,1779205299024,-536,411,10074,18325,-91629,-3665,0,0,0,387,431,411,415,335,406,612,585,312,664,663,326,0,
2,1779205299024,-2316,16688,11596,-2965139,1707979,-4449542,0,0,0,174,95,130,264,124,243,320,97,190,169,67,148,0,
1,1779205299040,-574,349,10064,23212,-150272,6108,0,0,0,383,437,416,413,339,405,608,583,303,665,664,335,0,
2,1779205299040,-3388,10452,9849,-4462981,-162490,-2623055,0,0,0,171,96,126,268,130,243,324,102,189,168,68,141,0,
1,1779205299056,-612,358,9949,28099,-164933,6108,0,0,0,378,439,441,413,338,409,598,577,304,658,656,310,0,
2,1779205299056,-612,7164,4852,-4200309,-1012814,-497244,0,0,0,164,94,126,265,125,245,320,96,189,172,76,143,0,
1,1779205299072,-626,397,9901,42760,-147829,3665,0,0,0,378,446,461,424,343,415,607,568,308,661,648,311,0,
2,1779205299072,918,7260,3570,-3968180,-101403,741590,0,0,0,167,90,122,274,128,244,332,97,194,174,77,142,0,
1,1779205299088,-631,435,9911,65973,-109955,2443,0,0,0,381,444,461,435,358,423,607,556,311,661,645,322,0,
2,1779205299088,483,7341,4781,-4246735,885754,1467298,0,0,0,167,90,124,279,127,249,336,98,200,174,72,142,0,
1,1779205299104,-631,430,9925,86742,-73303,7330,0,0,0,387,452,462,456,369,429,607,531,320,656,624,312,0,
2,1779205299104,-1340,7116,6771,-4787961,1523497,1843591,0,0,0,169,93,128,280,124,253,338,101,204,172,71,147,0,
1,1779205299120,-650,387,9940,103847,-46425,18325,0,0,0,389,455,470,465,377,439,602,486,338,649,593,319,0,
2,1779205299120,-3886,6097,8657,-5389053,1580919,2028072,0,0,0,171,96,133,281,127,259,337,99,209,172,70,147,0,
1,1779205299136,-636,363,9954,127059,-26878,34208,0,0,0,402,471,445,492,383,452,597,460,345,649,578,340,0,
2,1779205299136,-5709,4465,10198,-5856975,1224173,2001194,0,0,0,172,95,135,281,128,265,333,97,213,173,72,149,0,
1,1779205299152,-617,368,9983,162490,-14660,46425,0,0,0,419,490,451,494,411,468,585,433,360,644,543,354,0,
2,1779205299152,-6369,2957,11701,-6134308,675616,1588249,0,0,0,173,96,133,270,128,262,333,98,212,174,73,150,0,
1,1779205299168,-617,339,10016,206472,-18325,50090,0,0,0,441,521,463,516,435,483,578,397,377,629,505,392,0,
2,1779205299168,-6561,2278,13448,-6351776,250454,984714,0,0,0,175,98,132,272,129,260,333,98,210,171,68,148,0,
1,1779205299184,-622,282,10050,252898,-37873,56199,0,0,0,467,536,474,537,450,497,572,357,389,616,466,439,0,
2,1779205299184,-6398,2024,15477,-6616892,-114842,357967,0,0,0,177,98,132,287,130,265,332,99,209,168,64,147,0,
1,1779205299200,-646,253,10098,305432,-73303,72082,0,0,0,498,547,470,555,456,503,559,322,400,597,423,476,0,
2,1779205299200,-5484,1641,17420,-6883229,-426383,-48869,0,0,0,176,96,130,287,130,264,332,100,208,169,66,147,0,
1,1779205299216,-679,201,10184,383623,-124616,98960,0,0,0,539,559,465,578,461,505,536,280,408,571,378,523,0,
2,1779205299216,-4359,1057,19430,-7007846,-602313,-174707,0,0,0,173,95,129,286,133,263,334,102,209,165,65,147,0,
1,1779205299232,-717,138,10313,493579,-194255,127059,0,0,0,576,572,460,599,480,517,512,233,410,548,331,568,0,
2,1779205299232,-2967,-277,21823,-6896668,-652404,65973,0,0,0,173,95,126,285,130,259,333,98,202,160,60,142,0,
1,1779205299248,-804,67,10547,663399,-254119,158824,0,0,0,598,596,446,611,500,534,486,209,415,525,289,590,0,
2,1779205299248,-746,-3374,24589,-6594901,-535117,500909,0,0,0,186,100,124,297,136,244,341,102,186,180,68,136,0,
1,1779205299264,-918,-38,10902,883311,-245567,204028,0,0,0,624,617,426,619,509,538,448,198,428,494,269,621,0,
2,1779205299264,2297,-9073,28011,-6140417,-189368,779464,0,0,0,186,100,128,295,137,257,336,110,191,199,97,147,0,
1,1779205299280,-1033,-177,11232,1075122,-151494,257785,0,0,0,642,632,370,626,524,549,416,180,441,462,251,646,0,
2,1779205299280,5302,-18836,27872,-4999321,952949,557109,0,0,0,174,100,129,288,135,267,341,136,202,194,110,147,0,
1,1779205299296,-938,-253,11773,1325577,-54977,310319,0,0,0,649,644,298,636,540,552,391,160,426,429,213,658,0,
2,1779205299296,3761,-26384,24010,-3825238,1567480,184481,0,0,0,168,101,121,283,135,251,345,184,195,210,147,146,0,
1,1779205299312,-713,-287,12438,1682322,-12217,321315,0,0,0,661,651,240,652,574,552,364,172,428,394,193,648,0,
2,1779205299312,-2641,-32481,19870,-3037221,75747,85521,0,0,0,164,99,116,272,141,241,352,226,179,264,229,135,0,
1,1779205299328,-650,-392,12940,2136806,6108,294437,0,0,0,666,654,190,644,573,537,342,178,398,371,195,650,0,
2,1779205299328,-583,-41387,12605,-1517389,-1566258,246789,0,0,0,158,103,106,279,159,241,363,321,191,276,358,121,0,
1,1779205299344,-827,-564,13328,2626720,68416,274889,0,0,0,659,657,197,637,574,545,322,178,398,357,191,634,0,
2,1779205299344,5738,-47982,7518,1516167,-146607,152716,0,0,0,177,101,109,307,155,260,403,374,219,323,411,120,0,
1,1779205299360,-1162,-722,13821,3117856,221133,298102,0,0,0,661,661,180,624,570,532,296,182,399,324,166,612,0,
2,1779205299360,7121,-33974,11892,5872858,2120924,-208915,0,0,0,202,100,143,327,133,303,444,413,251,364,422,131,0,
1,1779205299376,-1608,-871,14587,3723834,403171,394618,0,0,0,652,652,183,602,570,509,284,179,395,298,145,592,0,
2,1779205299376,3589,-5934,23699,7654141,1696983,-370184,0,0,0,238,112,200,327,122,337,458,431,269,381,429,148,0,
1,1779205299392,-2536,-1086,15477,4462981,554665,593761,0,0,0,574,592,325,585,563,496,283,178,406,273,138,564,0,
2,1779205299392,928,3642,26211,5108055,155159,-304210,0,0,0,270,131,231,326,133,346,457,419,273,389,419,162,0,
1,1779205299408,-3977,-1593,16807,5376835,830776,970053,0,0,0,570,584,238,577,537,494,277,187,402,255,145,515,0,
2,1779205299408,914,-1545,15620,493579,-674395,-130725,0,0,0,283,159,224,335,153,347,456,405,274,393,402,175,0,
1,1779205299424,-6293,-2814,18875,6338337,1412320,1472185,0,0,0,500,559,166,560,497,482,280,182,378,248,132,476,0,
2,1779205299424,670,-1258,8738,-496022,-228463,28099,0,0,0,296,189,223,348,169,355,457,404,282,402,406,188,0,
1,1779205299440,-8145,-4867,21923,7038389,1990198,2151467,0,0,0,421,516,145,516,452,439,288,190,348,241,140,423,0,
2,1779205299440,339,789,8437,-3665,70860,68416,0,0,0,303,186,237,361,170,371,458,404,288,410,410,198,0,
1,1779205299456,-8600,-6604,24230,7369478,1849699,2722015,0,0,0,359,455,140,455,392,380,306,195,307,237,150,352,0,
2,1779205299456,382,1344,10452,350636,18325,34208,0,0,0,306,189,230,375,183,371,462,411,284,422,423,198,0,
1,1779205299472,-10772,-6465,24675,7371921,944397,3268129,0,0,0,295,386,171,383,332,328,338,200,273,239,172,272,0,
2,1779205299472,521,612,10375,52534,-94073,20769,0,0,0,319,199,224,373,190,365,462,423,284,422,436,201,0,
1,1779205299488,-11797,402,20746,6690196,525344,4222300,0,0,0,253,345,216,324,298,301,362,208,266,242,199,223,0,
2,1779205299488,550,435,9877,-119729,-109955,28099,0,0,0,322,202,217,383,193,365,466,420,274,427,444,208,0,
1,1779205299504,-8944,7135,14606,5643173,1445307,5097059,0,0,0,244,340,233,313,290,299,364,198,273,242,186,232,0,
2,1779205299504,507,722,9897,-58643,-85521,29321,0,0,0,328,217,228,393,195,368,473,423,274,436,447,192,0,
1,1779205299520,-7523,9064,11237,4032932,2671924,5259549,0,0,0,249,339,223,320,290,297,368,199,272,237,183,223,0,
2,1779205299520,488,861,10069,10995,-72082,18325,0,0,0,332,218,227,392,196,371,472,423,272,440,451,204,0,
1,1779205299536,-8542,10236,11710,967610,996932,4372573,0,0,0,245,337,223,311,283,291,372,203,273,234,180,220,0,
2,1779205299536,473,832,10102,57421,-56199,6108,0,0,0,326,253,236,396,226,384,471,423,283,443,449,220,0,
1,1779205299552,-5790,9906,11380,-1830152,-1108109,2763554,0,0,0,244,337,224,315,286,292,370,195,280,238,179,221,0,
2,1779205299552,454,770,10026,95294,-34208,1221,0,0,0,332,245,241,396,227,394,472,422,304,431,444,246,0,
1,1779205299568,-3067,7839,8963,-2690250,-1205847,638965,0,0,0,232,337,224,310,283,289,371,193,279,236,175,221,0,
2,1779205299568,449,737,9983,136833,-15882,0,0,0,0,339,259,239,399,248,408,473,414,318,416,435,264,0,
1,1779205299584,-3670,6834,6925,-2919935,-873537,-1273043,0,0,0,236,340,225,310,294,289,371,195,279,239,178,223,0,
2,1779205299584,459,732,10007,167377,-10995,0,0,0,0,343,264,232,417,268,415,478,392,319,413,407,269,0,
1,1779205299600,-5068,7169,6848,-3351206,-1387885,-2430021,0,0,0,252,342,224,318,294,291,366,199,275,243,183,225,0,
2,1779205299600,473,708,10031,193033,-2443,0,0,0,0,351,265,247,420,272,432,495,347,327,417,341,294,0,
1,1779205299616,-4077,7044,8135,-4181983,-2304183,-2874731,0,0,0,254,338,225,315,287,289,368,200,275,247,181,225,0,
2,1779205299616,492,674,10040,211359,3665,0,0,0,0,366,297,255,422,297,443,497,325,337,410,299,323,0,
1,1779205299632,-2699,6010,9150,-4890587,-2712241,-2924822,0,0,0,253,331,223,312,279,290,377,198,279,242,180,222,0,
2,1779205299632,521,641,10045,223576,4886,-3665,0,0,0,384,321,249,432,319,450,485,313,344,398,281,344,0,
1,1779205299648,-1976,4350,9815,-5266880,-2713463,-2609616,0,0,0,255,337,222,316,282,293,378,198,279,243,183,224,0,
2,1779205299648,550,622,10064,241902,2443,-7330,0,0,0,393,319,240,433,324,461,482,277,351,387,250,372,0,
1,1779205299664,-1201,3101,10849,-5456248,-2764776,-2223549,0,0,0,257,335,225,318,282,295,373,196,276,245,186,224,0,
2,1779205299664,559,593,10102,270002,10995,-12217,0,0,0,398,336,224,437,349,467,483,248,355,371,220,401,0,
1,1779205299680,-153,2364,12486,-5564982,-2828306,-1876578,0,0,0,258,332,227,319,280,296,371,195,277,244,185,222,0,
2,1779205299680,564,545,10136,309097,40317,-19547,0,0,0,422,360,232,450,366,471,471,222,363,355,191,430,0,
1,1779205299696,555,1957,14491,-5662720,-2809980,-1744631,0,0,0,259,333,230,320,279,297,371,197,279,245,186,222,0,
2,1779205299696,550,502,10145,349414,83077,-25656,0,0,0,433,382,236,451,386,465,483,188,357,346,173,442,0,
1,1779205299712,660,1555,16429,-5749463,-2797762,-1853365,0,0,0,261,334,231,320,279,298,371,200,277,246,185,225,0,
2,1779205299712,550,464,10165,379958,134390,-28099,0,0,0,450,367,235,460,389,477,468,157,360,338,144,461,0,
1,1779205299728,-47,847,18592,-5760459,-2871066,-2182010,0,0,0,257,331,229,320,278,297,373,199,277,245,177,223,0,
2,1779205299728,607,411,10313,419053,172263,-28099,0,0,0,448,375,230,482,403,477,471,142,368,318,134,462,0,
1,1779205299744,-1115,-248,21445,-5662720,-2987131,-2542421,0,0,0,253,329,228,319,273,293,375,197,277,245,172,222,0,
2,1779205299744,708,354,10619,519235,178372,-34208,0,0,0,463,388,199,483,439,490,457,133,350,308,145,471,0,
1,1779205299760,-2790,-2306,24847,-5550321,-3112969,-2734232,0,0,0,252,331,227,319,277,292,373,195,275,245,168,223,0,
2,1779205299760,847,272,10777,690277,199142,-56199,0,0,0,462,401,174,483,444,489,448,128,337,306,147,477,0,
1,1779205299776,-4398,-5628,27867,-5633399,-3258355,-2685363,0,0,0,251,340,224,324,292,293,370,197,275,241,169,220,0,
2,1779205299776,995,177,10993,882089,259006,-102625,0,0,0,467,405,173,478,443,507,441,129,365,287,145,486,0,
1,1779205299792,-4857,-9997,29509,-5927836,-3199712,-2599842,0,0,0,251,342,223,333,298,304,374,196,286,240,165,225,0,
2,1779205299792,918,134,11361,1108109,302989,-161268,0,0,0,471,421,184,484,451,510,414,129,385,278,150,481,0,
1,1779205299808,-3340,-17281,27255,-6101322,-2896722,-2480112,0,0,0,252,341,222,330,277,308,377,189,284,237,168,217,0,
2,1779205299808,693,52,11332,1334129,266337,-168598,0,0,0,479,424,197,481,453,521,369,125,411,267,143,481,0,
1,1779205299824,-368,-26604,22033,-5568647,-2610838,-2291966,0,0,0,255,343,224,332,280,314,379,186,292,236,166,220,0,
2,1779205299824,674,-138,11064,1545489,215024,-130725,0,0,0,491,423,210,498,458,522,337,120,413,278,134,494,0,
1,1779205299840,4680,-38923,13342,-3949854,-2136806,-2047620,0,0,0,256,346,220,336,298,314,377,190,297,239,166,222,0,
2,1779205299840,760,-339,11016,1703092,201585,-96516,0,0,0,502,430,215,514,453,526,322,127,398,273,132,503,0,
1,1779205299856,10500,-46341,8446,-1674992,-1626123,-1916895,0,0,0,231,323,206,322,282,301,367,186,284,278,232,217,0,
2,1779205299856,856,-497,11447,1894903,213802,-80634,0,0,0,510,437,210,512,459,539,276,124,391,259,133,508,0,
1,1779205299872,12821,-43689,9964,802676,-592539,-1643227,0,0,0,210,233,188,276,195,268,390,395,276,355,434,190,0,
2,1779205299872,1115,-650,12347,2214997,223576,-87964,0,0,0,513,435,210,501,472,544,212,107,394,269,133,514,0,
1,1779205299888,7437,-26690,17147,3639535,1660331,-758694,0,0,0,210,183,113,272,137,251,432,512,270,463,536,141,0,
2,1779205299888,1631,-765,13448,2697580,194255,-155159,0,0,0,516,428,226,496,453,539,202,110,387,277,127,510,0,
1,1779205299904,354,-1206,17520,5657833,3346319,301767,0,0,0,243,153,140,287,101,267,494,585,274,551,598,155,0,
2,1779205299904,2115,-861,14625,3420845,68416,-306654,0,0,0,510,413,222,492,453,526,219,125,363,252,119,485,0,
1,1779205299920,-1847,6872,18080,6425080,3147177,652404,0,0,0,289,135,211,321,104,294,538,626,287,606,633,169,0,
2,1779205299920,2526,-971,16056,4249178,-112399,-486248,0,0,0,493,391,197,466,457,508,250,159,368,206,109,442,0,
1,1779205299936,-1028,-923,22139,5144707,1832595,547335,0,0,0,315,188,256,368,179,324,563,636,283,633,645,185,0,
2,1779205299936,3115,-1373,18698,5240002,-353080,-685390,0,0,0,449,386,171,454,413,483,225,121,338,204,101,349,0,
1,1779205299952,-1330,-4297,19305,2419026,1083674,342084,0,0,0,324,272,277,409,253,354,584,635,285,647,652,228,0,
2,1779205299952,4867,-3053,24445,6575353,-518013,-927293,0,0,0,394,343,182,429,369,435,240,108,294,201,98,316,0,
1,1779205299968,-1545,-1052,11701,127059,613308,-4886,0,0,0,329,319,300,433,278,377,598,636,301,657,659,273,0,
2,1779205299968,7336,-5307,29806,8016995,-129503,-1268156,0,0,0,378,282,174,403,318,387,242,109,276,193,89,285,0,
1,1779205299984,-1129,1153,9126,-40317,186924,-129503,0,0,0,330,332,320,437,293,387,601,637,303,661,663,291,0,
2,1779205299984,5991,-4527,31591,8896641,799011,-1734857,0,0,0,299,206,155,367,236,330,262,96,246,174,67,218,0,
1,1779205300000,-1072,890,9696,180816,-26878,-97738,0,0,0,333,337,323,439,301,388,604,635,306,663,669,296,0,
2,1779205300000,4422,416,32131,9120218,913854,-2163684,0,0,0,202,116,125,300,168,251,305,101,202,172,70,160,0,
1,1779205300016,-1201,373,10265,140499,-36651,-51312,0,0,0,334,341,329,439,306,392,608,635,305,665,673,298,0,
2,1779205300016,6408,8308,28150,8735372,34208,-2560747,0,0,0,179,92,118,285,143,233,324,102,189,175,72,147,0,
1,1779205300032,-1244,512,10083,20769,-36651,-43982,0,0,0,334,346,329,442,305,391,607,637,301,664,673,302,0,
2,1779205300032,9691,14060,14749,7264409,113620,-3114190,0,0,0,183,97,123,290,141,245,328,98,188,171,64,142,0,
1,1779205300048,-1182,818,9834,-2443,-70860,-43982,0,0,0,339,349,332,447,306,386,612,638,307,665,674,306,0,
2,1779205300048,8442,16726,7025,4024380,1429424,-3670078,0,0,0,187,103,128,286,136,245,322,98,189,164,61,141,0,
1,1779205300064,-1153,799,9911,46425,-109955,-19547,0,0,0,338,343,353,449,306,395,600,627,302,661,666,308,0,
2,1779205300064,1675,16568,9786,-821002,2553416,-3354871,0,0,0,186,104,127,285,136,241,317,102,190,160,64,138,0,
1,1779205300080,-1167,713,9959,72082,-129503,-2443,0,0,0,340,345,387,458,306,402,600,627,307,659,660,313,0,
2,1779205300080,-2220,12553,11643,-3571118,1095892,-1705535,0,0,0,183,102,123,287,140,239,319,105,191,160,67,135,0,
1,1779205300096,-1206,708,9925,89186,-130725,-3665,0,0,0,341,357,386,472,319,419,607,613,328,651,645,319,0,
2,1779205300096,-909,8509,8614,-4219857,-702495,-140499,0,0,0,183,104,122,287,145,240,320,107,194,159,65,136,0,
1,1779205300112,-1249,756,9863,123394,-107512,-8552,0,0,0,355,370,390,489,326,445,611,592,340,648,624,341,0,
2,1779205300112,1804,6972,5532,-4161214,-978606,616973,0,0,0,180,104,127,287,148,247,319,107,200,157,62,138,0,
1,1779205300128,-1263,756,9844,162490,-58643,-3665,0,0,0,367,393,396,509,349,447,610,553,348,643,600,361,0,
2,1779205300128,2297,6604,5666,-4657236,-482583,899193,0,0,0,180,104,130,286,146,249,323,104,203,161,65,140,0,
1,1779205300144,-1258,684,9877,197920,-7330,9773,0,0,0,384,409,405,516,368,448,607,513,352,653,579,382,0,
2,1779205300144,1631,5867,7513,-5458691,-26878,1005484,0,0,0,179,103,131,286,146,252,322,106,209,160,66,145,0,
1,1779205300160,-1225,622,9925,221133,15882,24434,0,0,0,398,424,399,523,391,468,609,477,356,657,549,415,0,
2,1779205300160,1320,4331,8628,-5853310,130725,1022588,0,0,0,176,106,126,290,151,252,321,106,204,158,66,141,0,
1,1779205300176,-1186,579,10007,232128,6108,34208,0,0,0,421,453,408,538,411,500,605,436,375,638,509,463,0,
2,1779205300176,1062,3072,9394,-5955936,337197,1018923,0,0,0,178,106,131,287,147,252,323,108,204,161,67,141,0,
1,1779205300192,-1182,564,10064,250454,-37873,43982,0,0,0,451,481,399,559,436,511,598,393,406,614,458,507,0,
2,1779205300192,607,2325,10734,-5981592,593761,1102000,0,0,0,176,107,121,285,147,245,324,109,198,159,67,134,0,
1,1779205300208,-1220,540,10102,298102,-94073,59864,0,0,0,487,504,381,580,458,508,588,346,417,588,409,535,0,
2,1779205300208,272,1842,12500,-6079330,752585,1279151,0,0,0,179,110,123,288,148,246,327,113,196,162,70,136,0,
1,1779205300224,-1253,478,10117,359188,-141720,79412,0,0,0,529,528,384,599,473,517,572,297,412,554,371,549,0,
2,1779205300224,220,1416,14534,-6222273,814894,1535715,0,0,0,177,108,122,290,150,247,328,111,195,163,71,135,0,
1,1779205300240,-1287,411,10179,408057,-185703,96516,0,0,0,563,548,377,616,497,533,554,258,421,527,336,565,0,
2,1779205300240,454,1005,16458,-6300464,835663,1803274,0,0,0,177,106,124,289,151,250,325,107,195,161,70,135,0,
1,1779205300256,-1383,363,10390,482583,-216246,116064,0,0,0,583,558,361,625,513,552,528,230,436,500,298,598,0,
2,1779205300256,713,373,18382,-6290690,831998,2061059,0,0,0,177,104,126,288,147,248,328,107,199,159,67,145,0,
1,1779205300272,-1488,282,10681,632856,-153938,152716,0,0,0,600,553,319,633,520,567,497,188,436,461,259,616,0,
2,1779205300272,1268,-904,20765,-6202725,711047,2348165,0,0,0,175,103,125,288,148,251,328,107,197,158,66,143,0,
1,1779205300288,-1502,157,10854,790459,-50090,199142,0,0,0,615,565,291,643,517,578,460,164,453,434,236,642,0,
2,1779205300288,3082,-3737,23522,-6123313,482583,2535090,0,0,0,175,103,125,288,146,250,327,104,193,157,63,134,0,
1,1779205300304,-1502,67,11203,967610,-56199,249233,0,0,0,626,581,272,649,535,579,443,170,453,409,204,650,0,
2,1779205300304,5187,-7872,25522,-6119647,409279,2414139,0,0,0,177,105,124,287,142,244,330,99,192,158,60,130,0,
1,1779205300320,-1416,47,11663,1238834,-140499,301767,0,0,0,645,590,205,660,546,573,401,167,445,379,193,653,0,
2,1779205300320,6590,-14252,26427,-6073222,558330,1902234,0,0,0,180,108,123,287,139,241,335,98,191,159,61,131,0,
1,1779205300336,-1244,-52,11701,1593136,-189368,329867,0,0,0,643,591,162,661,566,566,376,167,446,364,183,659,0,
2,1779205300336,5522,-21986,25058,-5755572,849102,1121548,0,0,0,181,108,125,286,134,242,337,105,192,162,68,131,0,
1,1779205300352,-1124,-277,11624,1910786,-155159,309097,0,0,0,640,597,146,650,565,582,361,174,458,349,176,658,0,
2,1779205300352,2292,-29370,22325,-5181358,992045,483805,0,0,0,165,91,115,285,133,240,343,134,193,179,99,135,0,
1,1779205300368,-1153,-488,11830,2211332,-142942,276111,0,0,0,647,612,141,658,576,575,348,185,450,341,164,651,0,
2,1779205300368,-3287,-38626,20593,-3402519,18325,322536,0,0,0,142,89,108,258,137,231,376,224,204,194,187,133,0,
1,1779205300384,-1354,-684,12251,2543642,-164933,268780,0,0,0,654,623,143,659,584,567,323,182,448,323,149,641,0,
2,1779205300384,-6513,-43105,14189,-493579,-2273640,583987,0,0,0,142,85,101,247,138,221,370,283,193,244,278,138,0,
1,1779205300400,-1593,-928,12543,2938261,-156381,298102,0,0,0,661,631,147,647,580,565,295,173,447,312,138,645,0,
2,1779205300400,-2124,-39272,7379,2258979,-3541796,1148426,0,0,0,157,92,107,270,152,237,379,354,191,279,392,127,0,
1,1779205300416,-1804,-1225,12644,3368310,-92851,371406,0,0,0,664,639,153,643,587,561,283,167,457,307,132,638,0,
2,1779205300416,325,-20684,10418,4403116,-682947,1497841,0,0,0,166,86,141,273,134,295,414,420,244,320,417,154,0,
1,1779205300432,-2029,-1617,13026,3867998,13439,475253,0,0,0,661,638,156,640,599,551,279,163,467,300,127,627,0,
2,1779205300432,-2464,-95,19387,5822767,1527163,1161865,0,0,0,201,87,128,297,125,260,443,437,200,371,426,120,0,
1,1779205300448,-2646,-2062,13802,4421442,175929,618195,0,0,0,650,632,154,639,584,543,278,159,467,289,120,611,0,
2,1779205300448,-3311,4331,24914,4687779,906524,113620,0,0,0,224,101,155,301,127,249,445,429,196,382,426,119,0,
1,1779205300464,-3560,-2632,15180,5029864,483805,845437,0,0,0,618,621,147,633,557,530,279,161,459,277,117,562,0,
2,1779205300464,220,445,17674,1836260,-445931,-309097,0,0,0,251,114,164,303,122,247,447,416,212,390,428,111,0,
1,1779205300480,-4843,-3881,17477,5716476,929736,1178969,0,0,0,538,588,131,603,534,500,272,159,425,265,117,485,0,
2,1779205300480,976,-90,9260,151494,-693942,57421,0,0,0,277,141,177,311,139,265,451,414,221,413,433,114,0,
1,1779205300496,-6283,-6135,20770,6310237,1098335,1514945,0,0,0,434,548,122,567,496,462,269,154,378,248,108,432,0,
2,1779205300496,-588,1579,7906,273667,-245567,291993,0,0,0,309,164,194,331,156,292,458,427,241,423,437,148,0,
1,1779205300512,-7901,-6709,22718,6864903,348193,1886351,0,0,0,386,504,124,514,441,419,290,157,341,241,108,392,0,
2,1779205300512,-540,1320,9983,346971,-169820,131946,0,0,0,327,186,200,340,180,299,460,434,246,433,441,155,0,
1,1779205300528,-8360,-4895,22560,7312056,-875980,2322509,0,0,0,339,419,125,445,376,366,314,159,314,236,115,296,0,
2,1779205300528,-224,861,10624,86742,-241902,37873,0,0,0,341,202,203,346,192,292,460,431,240,446,447,146,0,
1,1779205300544,-7126,-1292,22431,7411017,-1866804,2979800,0,0,0,282,357,162,387,324,318,333,176,288,228,132,262,0,
2,1779205300544,-248,990,10078,-118507,-249233,48869,0,0,0,358,208,213,358,178,292,466,428,246,450,450,150,0,
1,1779205300560,-6393,2354,20440,6951646,-1100779,3864333,0,0,0,242,314,214,316,277,303,359,179,289,230,159,238,0,
2,1779205300560,-406,1335,9868,-85521,-180816,54977,0,0,0,358,213,223,359,175,300,465,412,264,448,448,149,0,
1,1779205300576,-8485,5771,15175,6228381,-257785,4671897,0,0,0,238,313,212,301,273,288,369,195,283,223,154,220,0,
2,1779205300576,-488,1459,9959,-14660,-124616,32986,0,0,0,346,212,237,357,182,314,457,396,283,450,450,163,0,
1,1779205300592,-11103,10796,10701,3954741,-1000597,5604077,0,0,0,255,317,221,301,273,281,373,192,273,228,166,206,0,
2,1779205300592,-502,1402,9997,14660,-75747,9773,0,0,0,345,214,241,361,185,320,470,443,267,455,455,174,0,
1,1779205300608,-7001,14261,12921,-1045801,-2990796,5946162,0,0,0,259,315,220,301,267,276,372,191,272,227,171,203,0,
2,1779205300608,-473,1368,9978,42760,-13439,0,0,0,0,354,221,231,370,187,307,476,449,253,452,452,153,0,
1,1779205300624,-469,11954,14620,-4559498,-3086091,4820948,0,0,0,260,314,220,297,261,272,373,192,273,230,174,202,0,
2,1779205300624,-411,1378,9954,73303,17104,1221,0,0,0,361,227,223,373,187,313,474,449,256,451,452,151,0,
1,1779205300640,512,7705,11739,-5143485,-1110553,2290744,0,0,0,261,313,223,295,259,271,371,191,280,234,177,204,0,
2,1779205300640,-358,1368,9944,92851,6108,7330,0,0,0,354,227,214,370,196,320,472,442,272,452,452,167,0,
1,1779205300656,-3163,6389,8887,-4790405,-61086,152716,0,0,0,263,314,221,299,261,272,371,191,283,236,180,204,0,
2,1779205300656,-339,1344,9935,101403,-12217,13439,0,0,0,362,240,223,380,203,335,472,434,269,445,447,161,0,
1,1779205300672,-6006,6781,8892,-4944343,-1016479,-1248608,0,0,0,263,317,218,301,262,273,360,196,281,233,179,202,0,
2,1779205300672,-344,1335,9930,113620,-32986,14660,0,0,0,384,259,242,389,217,347,476,422,270,449,443,178,0,
1,1779205300688,-5250,6231,10471,-5490456,-2463008,-2098932,0,0,0,259,317,219,299,262,274,357,198,284,231,178,201,0,
2,1779205300688,-378,1330,9935,144164,-51312,8552,0,0,0,401,284,243,387,240,362,473,402,280,444,431,188,0,
1,1779205300704,-2933,4647,11495,-5747020,-3005456,-2433687,0,0,0,256,315,218,300,263,274,374,193,294,233,180,201,0,
2,1779205300704,-416,1325,9968,188146,-57421,6108,0,0,0,402,291,251,390,280,391,471,398,296,418,408,200,0,
1,1779205300720,-1598,3239,11945,-5689598,-2895501,-2461786,0,0,0,256,317,218,303,268,278,378,189,295,233,180,200,0,
2,1779205300720,-425,1316,10007,233350,-46425,7330,0,0,0,406,301,255,397,298,408,480,377,309,404,371,239,0,
1,1779205300736,-612,2359,12993,-5731137,-2830749,-2340835,0,0,0,251,317,215,303,269,278,377,188,295,232,179,203,0,
2,1779205300736,-406,1287,10040,283441,-28099,7330,0,0,0,426,319,278,413,307,414,485,331,312,403,323,251,0,
1,1779205300752,497,1785,14745,-5898514,-2776993,-2218662,0,0,0,251,319,221,304,267,281,380,190,299,233,178,204,0,
2,1779205300752,-363,1244,10059,332310,-6108,3665,0,0,0,449,337,307,429,322,417,480,300,308,393,295,241,0,
1,1779205300768,1249,1306,16702,-5991366,-2580294,-2228436,0,0,0,253,319,221,303,267,281,381,191,303,233,176,204,0,
2,1779205300768,-320,1182,10059,372627,6108,-2443,0,0,0,453,349,311,433,330,419,483,267,314,376,268,270,0,
1,1779205300784,1067,1086,18525,-6002361,-2328618,-2387261,0,0,0,252,319,219,304,268,281,378,192,296,231,175,204,0,
2,1779205300784,-320,1110,10078,415388,14660,-8552,0,0,0,455,355,307,441,335,435,491,194,327,363,192,329,0,
1,1779205300800,196,287,20497,-5982814,-2081828,-2610838,0,0,0,252,320,219,303,266,277,382,192,298,228,169,201,0,
2,1779205300800,-335,1038,10131,466701,24434,-15882,0,0,0,473,364,315,454,354,458,483,180,334,337,157,382,0,
1,1779205300816,-1167,-1229,22574,-5847202,-1814269,-2817310,0,0,0,253,320,220,300,263,274,384,194,299,228,171,204,0,
2,1779205300816,-335,981,10236,524122,50090,-23212,0,0,0,482,384,326,441,391,478,485,143,358,300,139,402,0,
1,1779205300832,-3273,-3546,24814,-5626068,-1577254,-2967583,0,0,0,254,320,219,302,267,276,385,194,301,226,168,200,0,
2,1779205300832,-301,952,10538,605978,101403,-36651,0,0,0,491,395,282,479,411,512,470,127,353,273,119,449,0,
1,1779205300848,-5920,-8116,26733,-5508782,-1567480,-3020117,0,0,0,250,318,211,313,268,278,385,188,303,226,160,204,0,
2,1779205300848,-220,890,10949,768468,144164,-62308,0,0,0,494,403,287,493,427,516,469,113,354,254,109,451,0,
1,1779205300864,-6523,-14055,26503,-5602855,-1847256,-2899166,0,0,0,254,321,213,320,271,285,383,181,304,223,154,200,0,
2,1779205300864,-248,756,11237,1061683,58643,-74525,0,0,0,498,427,225,536,436,504,457,115,364,275,134,478,0,
1,1779205300880,-3005,-22455,22268,-5318192,-2202780,-2510656,0,0,0,255,328,214,323,277,292,382,180,305,222,153,195,0,
2,1779205300880,-268,665,11548,1408655,-155159,-43982,0,0,0,500,469,215,510,460,510,413,111,395,270,139,471,0,
1,1779205300896,2971,-30385,15659,-4244291,-2131919,-2140471,0,0,0,251,326,206,319,279,291,376,183,299,237,176,194,0,
2,1779205300896,-100,593,11902,1694540,-102625,-63529,0,0,0,503,457,219,519,454,543,372,120,394,263,126,476,0,
1,1779205300912,8164,-36324,11452,-2660928,-1446528,-2067167,0,0,0,237,318,198,304,279,286,369,225,288,278,284,188,0,
2,1779205300912,-215,402,11725,1954768,76969,-120951,0,0,0,485,475,237,539,469,533,335,121,387,280,144,493,0,
1,1779205300928,8083,-42756,12691,-306654,-307876,-2097711,0,0,0,204,305,185,284,273,282,374,344,284,332,456,174,0,
2,1779205300928,-536,157,11624,2195449,205250,-133168,0,0,0,514,482,232,540,457,547,272,101,395,285,143,505,0,
1,1779205300944,4197,-45929,12792,2994461,-709825,-1568701,0,0,0,192,264,169,295,238,276,409,474,275,395,532,155,0,
2,1779205300944,-378,-14,12490,2492330,215024,-90408,0,0,0,532,476,229,538,462,565,211,97,405,256,126,511,0,
1,1779205300960,890,-19047,11797,6348111,-735481,-92851,0,0,0,222,232,184,341,203,306,494,534,274,511,577,144,0,
2,1779205300960,81,-129,13783,2982244,196698,-101403,0,0,0,524,462,227,510,467,545,200,108,385,242,124,504,0,
1,1779205300976,-2100,5384,18468,6765943,1214400,1183856,0,0,0,278,202,228,383,188,350,571,570,289,599,616,173,0,
2,1779205300976,488,-220,14955,3716504,100181,-196698,0,0,0,510,452,223,480,457,526,202,108,365,231,121,480,0,
1,1779205300992,-3747,4661,25537,3850894,2850297,1067792,0,0,0,301,234,255,383,243,385,565,532,298,613,625,215,0,
2,1779205300992,129,-449,16716,4603480,-145385,-287106,0,0,0,493,451,219,475,447,507,216,105,348,212,105,411,0,
1,1779205301008,-2493,-1976,19487,579100,1880243,108734,0,0,0,315,287,293,401,245,385,563,519,288,623,627,246,0,
2,1779205301008,1311,-1048,19865,5612629,-522900,-317649,0,0,0,469,429,207,468,431,471,229,111,326,194,89,327,0,
1,1779205301024,-732,-416,9356,-260228,282219,-307876,0,0,0,318,297,305,401,253,395,590,525,314,628,635,277,0,
2,1779205301024,5403,-3091,22885,6677978,-718377,-586430,0,0,0,439,368,184,436,385,432,217,108,301,187,88,288,0,
1,1779205301040,-808,2330,7781,277332,204028,-112399,0,0,0,328,316,317,409,259,404,614,519,324,638,640,265,0,
2,1779205301040,7982,-5407,24862,7550294,-95294,-1174082,0,0,0,406,308,169,413,326,395,227,94,265,191,83,261,0,
1,1779205301056,-1182,2120,9490,379958,510683,-4886,0,0,0,334,333,320,423,270,408,635,544,311,644,645,257,0,
2,1779205301056,3886,-3704,26585,7963239,943175,-1874134,0,0,0,341,233,154,380,263,336,267,100,238,180,69,229,0,
1,1779205301072,-1110,827,10906,92851,503352,-29321,0,0,0,341,336,328,426,276,406,645,565,302,659,659,260,0,
2,1779205301072,1263,1474,27374,8023104,302989,-2151467,0,0,0,247,172,142,333,182,283,283,94,222,173,55,172,0,
1,1779205301088,-933,1028,10265,-63529,157603,-52534,0,0,0,347,335,326,425,278,408,655,589,307,666,666,261,0,
2,1779205301088,6030,4891,24536,8086634,-618195,-2246762,0,0,0,183,109,116,295,149,226,327,105,177,176,71,140,0,
1,1779205301104,-961,1579,9868,-76969,-50090,-47647,0,0,0,347,335,331,425,276,412,656,582,310,669,669,262,0,
2,1779205301104,8686,8226,16233,7506312,-19547,-2722015,0,0,0,191,114,119,290,150,225,325,102,177,175,68,135,0,
1,1779205301120,-1005,1703,10021,-34208,-89186,-30543,0,0,0,346,333,333,429,279,416,652,578,307,670,670,266,0,
2,1779205301120,6121,11529,9509,5167919,656069,-3067765,0,0,0,192,115,120,289,148,225,315,102,180,165,65,136,0,
1,1779205301136,-1014,1646,10069,-15882,-140499,-13439,0,0,0,343,328,330,432,284,418,652,587,306,671,671,271,0,
2,1779205301136,2096,12778,10361,708603,767246,-2471560,0,0,0,198,115,125,302,144,226,326,101,181,176,66,132,0,
1,1779205301152,-1048,1579,9959,-8552,-197920,-1221,0,0,0,337,321,350,433,283,423,651,589,307,669,669,275,0,
2,1779205301152,1732,9442,12864,-2636494,191811,-962723,0,0,0,198,115,122,303,144,227,328,103,181,172,64,130,0,
1,1779205301168,-1115,1584,9844,4886,-201585,-1221,0,0,0,335,320,388,438,282,433,643,586,307,666,666,279,0,
2,1779205301168,3010,6245,10796,-3439171,32986,97738,0,0,0,194,116,123,304,145,229,326,103,182,170,64,126,0,
1,1779205301184,-1153,1612,9786,24434,-166155,-3665,0,0,0,338,328,382,440,286,433,641,582,309,665,665,280,0,
2,1779205301184,3158,5336,7805,-3243694,624304,590095,0,0,0,193,120,129,297,146,233,325,103,183,168,66,127,0,
1,1779205301200,-1148,1636,9758,48869,-106290,-4886,0,0,0,343,342,340,443,291,417,648,569,311,664,663,265,0,
2,1779205301200,1258,5876,8145,-3769038,1307251,950506,0,0,0,194,128,130,294,149,236,324,104,183,167,64,127,0,
1,1779205301216,-1115,1660,9710,98960,-24434,-2443,0,0,0,354,363,357,450,299,411,653,547,323,664,661,264,0,
2,1779205301216,-210,5862,9538,-4734205,1595580,1398881,0,0,0,195,129,128,295,149,233,325,104,182,167,62,124,0,
1,1779205301232,-1057,1651,9734,168598,48869,0,0,0,0,357,377,374,468,307,426,650,528,350,662,657,290,0,
2,1779205301232,-507,4556,10461,-5605299,1651779,1772730,0,0,0,196,127,126,295,145,229,330,103,181,169,64,125,0,
1,1779205301248,-995,1584,9830,226020,81855,14660,0,0,0,374,402,388,502,327,457,664,516,380,643,628,303,0,
2,1779205301248,-1220,2680,10777,-5844758,1742187,1815491,0,0,0,200,132,127,294,146,229,335,104,180,173,65,128,0,
1,1779205301264,-1019,1521,9911,261450,78190,28099,0,0,0,392,436,411,518,342,446,659,499,383,653,606,307,0,
2,1779205301264,-2517,1210,11337,-5848423,1711644,1715309,0,0,0,199,135,126,296,152,233,337,104,179,173,67,125,0,
1,1779205301280,-1100,1464,9949,289550,73303,39095,0,0,0,392,446,432,533,386,495,672,454,417,647,575,337,0,
2,1779205301280,-3598,483,12242,-5777563,1539380,1518610,0,0,0,199,125,125,307,148,240,339,96,182,175,66,125,0,
1,1779205301296,-1105,1411,9983,316428,92851,50090,0,0,0,416,470,491,562,420,514,679,425,449,647,539,364,0,
2,1779205301296,-4082,76,13376,-5816658,1381777,1296256,0,0,0,199,124,128,304,140,239,343,101,185,175,63,125,0,
1,1779205301312,-1028,1349,10064,346971,119729,62308,0,0,0,445,496,506,582,442,543,683,388,444,633,504,396,0,
2,1779205301312,-4489,-411,14414,-5839871,1131322,1098335,0,0,0,197,120,121,306,143,235,343,99,181,179,60,126,0,
1,1779205301328,-933,1287,10145,370184,118507,70860,0,0,0,465,510,513,583,451,549,682,350,458,607,475,434,0,
2,1779205301328,-4182,-751,15204,-5767789,678060,983493,0,0,0,198,124,122,311,151,242,346,103,185,180,64,124,0,
1,1779205301344,-894,1258,10208,382401,73303,75747,0,0,0,487,539,500,582,462,551,681,310,472,576,430,462,0,
2,1779205301344,-3292,-899,15793,-5668829,351858,944397,0,0,0,195,127,121,306,163,236,346,111,183,178,72,124,0,
1,1779205301360,-957,1249,10256,405614,56199,81855,0,0,0,515,558,488,594,479,562,678,277,476,539,376,483,0,
2,1779205301360,-2182,-1258,16568,-5511226,169820,1022588,0,0,0,197,117,125,310,149,240,346,103,184,178,60,125,0,
1,1779205301376,-1062,1220,10327,454483,89186,100181,0,0,0,541,571,468,621,499,581,655,301,489,499,327,510,0,
2,1779205301376,-1234,-2258,17420,-5230228,20769,1302364,0,0,0,195,111,123,307,142,238,345,97,185,178,61,126,0,
1,1779205301392,-1100,1153,10476,530231,196698,139277,0,0,0,566,593,433,639,506,599,635,265,499,470,284,539,0,
2,1779205301392,277,-3843,18253,-4894252,-131946,1643227,0,0,0,193,117,129,298,146,240,337,100,187,173,65,130,0,
1,1779205301408,-1081,1057,10792,659734,277332,185703,0,0,0,588,607,403,645,532,607,612,161,495,453,241,563,0,
2,1779205301408,2153,-6843,18947,-4597371,-128281,1899790,0,0,0,188,112,129,297,147,242,332,102,189,169,64,131,0,
1,1779205301424,-971,971,11428,945619,248011,255341,0,0,0,605,624,354,658,581,611,552,154,495,441,208,579,0,
2,1779205301424,3637,-11155,19210,-4312708,-23212,2020742,0,0,0,189,108,128,297,144,240,330,101,187,166,62,130,0,
1,1779205301440,-756,880,11931,1340238,87964,305432,0,0,0,632,634,305,665,550,630,508,149,487,416,200,597,0,
2,1779205301440,4460,-16515,18793,-3964515,177150,1910786,0,0,0,192,111,130,298,144,240,326,101,187,165,59,130,0,
1,1779205301456,-540,732,11873,1744631,-50090,305432,0,0,0,661,661,262,677,580,644,462,155,501,376,191,630,0,
2,1779205301456,3584,-21627,17554,-3525914,447153,1494176,0,0,0,193,112,130,303,145,241,332,101,188,167,58,129,0,
1,1779205301472,-502,545,11835,2102598,-119729,271224,0,0,0,675,669,213,677,581,642,399,161,491,339,180,624,0,
2,1779205301472,1407,-25455,15668,-3054326,478918,1092227,0,0,0,197,109,128,307,144,241,343,100,187,173,59,128,0,
1,1779205301488,-698,263,12175,2478891,-122173,239459,0,0,0,682,680,182,680,601,637,341,175,478,317,169,637,0,
2,1779205301488,-516,-28638,12811,-2224771,127059,847880,0,0,0,189,104,123,300,138,239,345,120,188,180,75,131,0,
1,1779205301504,-981,143,12601,2911383,-75747,249233,0,0,0,674,681,171,664,615,629,312,169,494,288,157,625,0,
2,1779205301504,282,-30155,10495,-967610,-272445,668286,0,0,0,165,99,114,272,128,227,345,193,187,197,143,137,0,
1,1779205301520,-1301,143,12854,3362202,32986,298102,0,0,0,685,686,166,645,617,613,286,164,482,306,157,607,0,
2,1779205301520,1698,-29518,14084,946841,-533896,183259,0,0,0,148,95,102,248,134,212,356,300,177,231,287,129,0,
1,1779205301536,-1354,-196,13012,3843564,158824,383623,0,0,0,689,690,183,640,617,593,306,160,478,284,140,602,0,
2,1779205301536,1880,-15443,14481,3659082,-1613905,-266337,0,0,0,152,94,96,266,148,224,389,376,189,271,369,117,0,
1,1779205301552,-1363,-693,13251,4326147,216246,480140,0,0,0,682,683,186,628,626,580,292,161,489,273,136,597,0,
2,1779205301552,2134,2536,12213,4819726,-2070833,163711,0,0,0,158,92,98,283,152,240,399,435,196,290,408,117,0,
1,1779205301568,-1746,-1320,13577,4874704,251676,615752,0,0,0,674,674,187,613,626,568,291,156,504,270,133,580,0,
2,1779205301568,-837,7106,14740,4959004,-433714,895528,0,0,0,175,76,109,295,117,249,436,433,193,364,427,118,0,
1,1779205301584,-2096,-2096,14271,5395161,399505,792903,0,0,0,647,657,190,612,612,561,308,153,508,261,120,544,0,
2,1779205301584,-3910,-162,20531,3720169,1274264,652404,0,0,0,221,91,152,309,111,252,449,422,203,380,427,114,0,
1,1779205301600,-2120,-3819,16817,5875301,833220,979827,0,0,0,583,612,181,606,581,543,296,153,476,256,117,500,0,
2,1779205301600,-804,-1320,17592,1560149,475253,-167377,0,0,0,251,107,176,297,106,237,457,422,189,382,428,102,0,
1,1779205301616,-3948,-5393,20401,6206390,1211956,1089783,0,0,0,501,558,163,576,537,513,279,155,424,248,118,471,0,
2,1779205301616,1392,1517,10638,169820,-642630,-212581,0,0,0,280,124,198,304,111,241,454,417,200,410,434,104,0,
1,1779205301632,-6762,-5795,22062,6692639,978606,1328021,0,0,0,424,513,146,522,481,474,289,160,374,233,109,437,0,
2,1779205301632,33,2368,8877,280998,-604756,45204,0,0,0,297,125,211,304,106,240,459,426,213,432,438,99,0,
1,1779205301648,-8456,-6111,21923,7209431,78190,1866804,0,0,0,357,458,131,453,412,405,305,175,323,230,117,358,0,
2,1779205301648,-579,1555,9853,422718,-277332,72082,0,0,0,306,135,224,301,109,253,461,434,232,441,442,109,0,
1,1779205301664,-9112,-5833,21919,7400021,-868650,2602285,0,0,0,291,390,162,383,342,334,335,205,280,224,143,280,0,
2,1779205301664,-248,947,10696,280998,-166155,14660,0,0,0,304,164,232,293,146,257,461,438,237,446,446,117,0,
1,1779205301680,-9183,-1196,20526,7332826,-1376890,3977954,0,0,0,232,333,221,302,276,303,370,198,266,224,149,238,0,
2,1779205301680,-186,1268,10256,119729,-213802,34208,0,0,0,309,177,236,294,161,250,464,440,231,448,448,116,0,
1,1779205301696,-8710,5139,15936,6779382,-1207069,5744576,0,0,0,232,333,235,302,281,307,362,205,269,226,165,234,0,
2,1779205301696,-296,1545,9930,62308,-210137,59864,0,0,0,321,175,248,297,146,247,469,440,230,448,448,113,0,
1,1779205301712,-7623,8652,11356,4684114,-979827,7048163,0,0,0,247,339,229,301,281,300,367,212,271,220,162,230,0,
2,1779205301712,-421,1564,9973,73303,-152716,51312,0,0,0,322,194,265,292,150,251,471,438,238,448,448,115,0,
1,1779205301728,-4216,9882,10638,665843,-1324355,6395759,0,0,0,252,328,234,305,282,304,368,211,272,222,164,228,0,
2,1779205301728,-430,1507,10040,72082,-95294,24434,0,0,0,327,204,269,295,152,253,475,437,245,451,450,130,0,
1,1779205301744,-335,7173,11816,-3079982,-1156978,3401297,0,0,0,256,328,256,309,276,310,375,211,278,223,161,231,0,
2,1779205301744,-430,1497,10002,64751,-46425,9773,0,0,0,334,192,281,297,145,256,478,437,253,451,451,141,0,
1,1779205301760,-512,3886,10423,-4306599,-445931,597426,0,0,0,259,333,256,314,279,309,377,211,277,227,165,230,0,
2,1779205301760,-411,1512,9944,62308,-13439,8552,0,0,0,324,189,279,291,158,258,474,443,261,451,450,132,0,
1,1779205301776,-3608,2957,7499,-3723834,-335975,-1038470,0,0,0,255,336,248,312,284,309,376,212,280,229,169,231,0,
