sole_id,timestamp,accel_x,accel_y,accel_z,gyro_x,gyro_y,gyro_z,magn_x,magn_y,magn_z,pressure_01,pressure_02,pressure_03,pressure_04,pressure_05,pressure_06,pressure_07,pressure_08,pressure_09,pressure_10,pressure_11,pressure_12,corrupt,transition,brick,asphalt,grass
1,1779303660496,-1081,0,10002,164933,-64751,30543,0,0,0,361,209,252,417,225,384,618,387,365,483,407,292,0,,,,
2,1779303660496,205,301,10016,1221,-46425,21991,0,0,0,370,318,257,367,321,380,476,432,311,401,364,237,0,,,,
1,1779303660512,-1105,-23,10064,230907,-53756,40317,0,0,0,366,218,250,428,234,390,604,360,369,476,364,306,0,,,,
2,1779303660512,210,296,10016,-1221,-40317,21991,0,0,0,369,314,261,368,318,381,479,434,307,402,380,232,0,,,,
1,1779303660528,-1124,-47,10150,318871,-41538,51312,0,0,0,356,240,239,433,245,395,564,305,382,432,313,327,0,,,,
2,1779303660528,210,291,10016,-2443,-41538,21991,0,0,0,366,312,259,368,315,380,479,431,304,406,384,227,0,,,,
1,1779303660544,-1172,-71,10323,432492,-24434,69638,0,0,0,353,282,226,444,265,395,574,251,362,396,259,325,0,,,,
2,1779303660544,215,296,10002,-8552,-47647,23212,0,0,0,362,308,256,365,312,380,485,439,308,403,373,219,0,,,,
1,1779303660560,-1330,-62,10892,632856,-56199,112399,0,0,0,343,293,191,459,289,405,533,241,366,334,225,321,0,,,,
2,1779303660560,210,301,9992,-18325,-57421,24434,0,0,0,362,307,258,365,312,379,486,449,305,414,369,213,0,,,,
1,1779303660576,-1794,19,12093,962723,-245567,216246,0,0,0,350,306,169,449,301,379,467,241,346,305,204,311,0,,,,
2,1779303660576,205,311,10002,-28099,-68416,24434,0,0,0,367,307,257,369,311,377,491,463,303,430,382,206,0,,,,
1,1779303660592,-2469,181,13586,1452637,-510683,425162,0,0,0,351,326,149,454,315,388,414,235,352,280,194,291,0,,,,
2,1779303660592,201,320,10021,-31764,-79412,25656,0,0,0,367,308,255,368,311,375,496,477,301,435,402,201,0,,,,
1,1779303660608,-2818,119,14323,2129476,-447153,647517,0,0,0,342,339,154,448,320,377,401,230,349,265,196,245,0,,,,
2,1779303660608,191,339,10040,-32986,-85521,25656,0,0,0,364,310,254,364,313,373,485,463,309,431,412,201,0,,,,
1,1779303660624,-3799,52,14122,2726902,-302989,853989,0,0,0,324,321,158,434,301,366,397,237,342,257,209,201,0,,,,
2,1779303660624,172,358,10064,-25656,-83077,25656,0,0,0,362,306,252,365,317,372,482,460,313,430,414,200,0,,,,
1,1779303660640,-4637,425,13749,2915048,-448375,1172861,0,0,0,286,310,163,417,294,353,397,244,321,257,224,180,0,,,,
2,1779303660640,162,363,10078,-13439,-70860,23212,0,0,0,361,301,250,369,321,374,498,497,297,432,417,200,0,,,,
1,1779303660656,-4690,177,12471,2680476,-449596,1549154,0,0,0,262,290,178,385,283,328,398,242,296,266,231,170,0,x,,,
2,1779303660656,162,373,10074,0,-52534,19547,0,0,0,363,306,248,370,319,375,496,496,299,435,425,202,0,x,,,
1,1779303660672,-4469,622,10638,2356718,-161268,1952325,0,0,0,257,271,190,362,270,307,410,245,282,277,238,168,0,,,,
2,1779303660672,167,382,10045,8552,-39095,14660,0,0,0,362,309,250,369,319,375,494,493,299,442,423,199,0,,,,
1,1779303660688,-3283,5876,8844,1674992,399505,2084272,0,0,0,259,268,193,359,267,300,417,249,279,280,243,170,0,,,,
2,1779303660688,172,387,10040,18325,-32986,13439,0,0,0,361,313,253,367,320,372,494,493,300,444,418,197,0,,,,
1,1779303660704,-3335,11170,7374,772133,1021366,1803274,0,0,0,257,268,192,356,267,296,412,246,277,276,243,169,0,,,,
2,1779303660704,172,382,10035,26878,-28099,9773,0,0,0,360,315,251,365,321,371,496,496,300,443,417,201,0,,,,
1,1779303660720,-4733,13577,6484,-200363,1123992,1092227,0,0,0,253,269,189,352,266,295,417,246,275,272,245,170,0,,,,
2,1779303660720,181,378,10031,37873,-24434,7330,0,0,0,360,316,248,366,326,375,495,495,300,443,417,203,0,,,,
1,1779303660736,-5020,12529,6164,-838107,431270,333532,0,0,0,252,267,190,350,265,296,411,242,273,270,244,170,0,,,,
2,1779303660736,186,378,10031,50090,-25656,4886,0,0,0,362,320,251,367,331,378,499,494,306,443,410,204,0,,,,
1,1779303660752,-4211,11160,6379,-1301142,-355523,-329867,0,0,0,249,262,185,346,262,292,412,244,275,269,243,169,0,,,,
2,1779303660752,196,382,10026,65973,-35430,2443,0,0,0,371,320,259,371,337,383,495,490,307,441,408,204,0,,,,
1,1779303660768,-2952,10088,7432,-1610240,-814894,-742812,0,0,0,250,256,183,335,258,292,404,236,271,263,238,168,0,,,,
2,1779303660768,196,363,10026,78190,-47647,1221,0,0,0,377,338,263,376,356,384,499,490,309,442,404,216,0,,,,
1,1779303660784,-1832,8614,8872,-1919338,-1092227,-1099557,0,0,0,261,234,193,335,252,292,394,231,267,263,238,174,0,,,,
2,1779303660784,196,358,10026,89186,-63529,1221,0,0,0,387,348,260,374,364,387,497,477,305,439,400,260,0,,,,
1,1779303660800,-1378,6872,10150,-2122145,-1141096,-1285260,0,0,0,267,236,194,324,243,287,389,229,268,253,229,176,0,,,,
2,1779303660800,186,344,10026,98960,-79412,2443,0,0,0,400,349,261,379,367,395,497,464,305,439,391,276,0,,,,
1,1779303660816,-1019,4670,11366,-2222327,-1091005,-1320690,0,0,0,265,236,198,324,250,292,391,230,267,252,223,179,0,,,,
2,1779303660816,172,320,10035,108734,-91629,2443,0,0,0,416,359,260,383,383,393,497,455,302,443,378,290,0,,,,
1,1779303660832,-378,2646,12428,-2205223,-972497,-1253495,0,0,0,264,230,206,315,249,293,388,230,264,244,219,184,0,,,,
2,1779303660832,148,301,10054,113620,-90408,1221,0,0,0,434,366,260,391,387,391,497,435,301,439,358,310,0,,,,
1,1779303660848,282,799,13309,-2054950,-797790,-1121548,0,0,0,264,229,204,309,243,282,383,224,257,236,214,179,0,,,,
2,1779303660848,138,296,10059,119729,-83077,0,0,0,0,448,371,276,404,380,401,485,398,314,433,335,330,0,,,,
1,1779303660864,335,-665,13840,-1745852,-700051,-977384,0,0,0,268,225,207,302,235,278,378,223,255,235,210,179,0,,,,
2,1779303660864,148,291,10069,131946,-76969,0,0,0,0,457,381,292,413,389,416,483,372,324,429,314,346,0,,,,
1,1779303660880,19,-1751,14118,-1380555,-756251,-889419,0,0,0,271,222,209,294,229,274,380,227,257,236,206,181,0,,,,
2,1779303660880,153,268,10088,146607,-70860,0,0,0,0,468,391,288,415,404,436,507,357,322,414,291,360,0,,,,
1,1779303660896,14,-2493,14199,-1082453,-796568,-939510,0,0,0,271,221,211,293,229,272,381,225,255,236,203,183,0,,,,
2,1779303660896,138,244,10122,168598,-67195,0,0,0,0,474,405,291,420,414,451,501,331,332,390,262,379,0,,,,
1,1779303660912,296,-3086,14118,-1049466,-508239,-1119105,0,0,0,271,221,212,293,229,273,380,222,253,236,202,185,0,,,,
2,1779303660912,129,220,10150,215024,-76969,-2443,0,0,0,477,411,287,433,430,448,492,314,330,376,243,387,0,,,,
1,1779303660928,-268,-3977,13740,-1463633,9773,-1361007,0,0,0,270,220,212,294,228,274,383,223,254,238,203,188,0,,,,
2,1779303660928,143,177,10117,234572,-67195,-7330,0,0,0,503,418,283,437,435,450,504,279,327,357,210,401,0,,,,
1,1779303660944,-1483,-5489,12864,-2085493,277332,-1494176,0,0,0,270,219,210,296,229,277,385,225,254,240,203,188,0,,,,
2,1779303660944,172,143,10117,221133,-17104,-15882,0,0,0,498,436,282,447,456,466,493,253,336,342,206,422,0,,,,
1,1779303660960,-2455,-8001,11428,-2624277,147829,-1382998,0,0,0,271,219,208,296,227,277,387,226,254,239,203,185,0,,,,
2,1779303660960,205,114,10155,212581,43982,-29321,0,0,0,512,443,282,454,464,466,487,198,337,310,152,450,0,,,,
1,1779303660976,-1828,-11265,9887,-2601064,-76969,-1033583,0,0,0,272,221,210,296,228,276,385,221,251,242,211,184,0,,,,
2,1779303660976,177,90,10313,273667,86742,-43982,0,0,0,509,464,280,455,479,477,471,199,339,284,146,445,0,,,,
1,1779303660992,-172,-14209,8542,-2133141,-87964,-660956,0,0,0,271,227,212,296,238,279,385,222,253,243,215,184,0,,,,
2,1779303660992,119,81,10796,443488,116064,-43982,0,0,0,506,458,258,468,481,485,456,179,344,277,147,454,0,,,,
1,1779303661008,1158,-15740,7791,-1286482,208915,-387288,0,0,0,271,227,212,296,238,285,388,222,259,246,218,190,0,,,,
2,1779303661008,224,114,11715,846659,265115,-50090,0,0,0,509,462,242,479,489,493,429,173,333,264,142,460,0,,,,
1,1779303661024,1239,-15927,7686,-560774,485026,-186924,0,0,0,269,225,211,299,238,286,390,224,258,250,224,190,0,,,,
2,1779303661024,373,86,12371,1332907,386066,-81855,0,0,0,507,471,222,478,490,486,387,178,333,263,147,461,0,,,,
1,1779303661040,110,-15099,8054,105068,725707,101403,0,0,0,252,207,207,285,220,276,394,240,258,297,308,178,0,,,,
2,1779303661040,497,4,12610,1809382,364075,-120951,0,0,0,512,475,210,480,491,481,339,177,331,254,141,466,0,,,,
1,1779303661056,-2732,-11103,11213,856433,779464,674395,0,0,0,242,193,199,264,206,272,414,325,248,360,408,171,0,,,,
2,1779303661056,488,-110,12629,2182010,339641,-158824,0,0,0,513,482,214,473,497,486,296,174,333,236,130,458,0,,,,
1,1779303661072,-4484,-631,14008,1901012,599869,1326799,0,0,0,240,189,212,274,204,273,428,407,247,395,463,167,0,,,,
2,1779303661072,536,-258,12840,2560747,359188,-186924,0,0,0,507,495,218,454,491,492,250,177,338,226,132,448,0,,,,
1,1779303661088,-4417,5742,11567,2675589,458148,1407433,0,0,0,242,177,240,287,187,285,480,465,259,460,497,162,0,,,,
2,1779303661088,837,-483,13290,3039665,334754,-226020,0,0,0,494,490,217,439,480,490,213,179,346,223,135,441,0,,,,
1,1779303661104,-3694,2335,10878,3240029,26878,561996,0,0,0,280,162,258,316,167,308,549,485,273,518,539,176,0,,,,
2,1779303661104,1206,-746,13864,3577226,155159,-295658,0,0,0,485,463,216,427,469,474,197,164,343,215,126,423,0,,,,
1,1779303661120,-1938,-1727,14390,2970026,-85521,-191811,0,0,0,323,169,274,341,172,334,579,501,289,554,558,200,0,,,,
2,1779303661120,1598,-1033,14874,4273613,-175929,-399505,0,0,0,478,435,210,418,458,459,195,153,327,202,117,392,0,,,,
1,1779303661136,-784,-1842,14481,1260825,393397,-117286,0,0,0,348,187,282,361,182,355,585,507,298,567,562,222,0,,,,
2,1779303661136,2292,-1411,16362,4982216,-610865,-518013,0,0,0,454,424,190,409,449,456,193,181,323,190,123,358,0,,,,
1,1779303661152,-918,-430,11481,86742,419053,36651,0,0,0,356,208,286,385,187,370,593,505,301,574,570,240,0,,,,
2,1779303661152,3311,-2306,18674,5783672,-1138652,-722042,0,0,0,435,397,178,391,427,438,193,182,312,178,120,332,0,,,,
1,1779303661168,-1215,459,9274,-94073,98960,12217,0,0,0,365,248,293,407,211,381,600,514,309,583,579,253,0,,,,
2,1779303661168,3670,-3661,21986,6553362,-1420872,-960280,0,0,0,405,354,176,369,397,420,199,178,296,163,117,296,0,,,,
1,1779303661184,-1143,191,9624,111177,-10995,-63529,0,0,0,380,301,297,423,249,388,606,525,316,589,590,259,0,,,,
2,1779303661184,3043,-4575,25340,7167892,-1043357,-1139874,0,0,0,381,314,175,339,359,388,215,181,283,143,109,266,0,,,,
1,1779303661200,-1129,14,10002,116064,73303,-62308,0,0,0,402,340,304,434,279,386,609,529,313,610,608,256,0,,,,
2,1779303661200,1660,-2421,25450,7588167,-393397,-1230282,0,0,0,320,243,158,316,306,343,258,170,254,131,95,205,0,,,,
1,1779303661216,-1139,76,9944,36651,189368,-34208,0,0,0,415,365,313,442,302,387,608,518,309,623,622,265,0,,,,
2,1779303661216,1363,780,22459,7841066,-284663,-1266934,0,0,0,218,168,155,274,234,275,307,161,234,123,81,145,0,,,,
1,1779303661232,-1062,114,9916,12217,222354,-18325,0,0,0,430,393,320,451,320,391,612,532,311,637,637,278,0,,,,
2,1779303661232,4211,4015,17099,7725001,-200363,-1378111,0,0,0,194,143,168,244,202,244,323,144,212,131,83,152,0,,,,
1,1779303661248,-942,81,10026,14660,171042,-7330,0,0,0,442,423,317,459,333,390,619,548,310,639,639,278,0,,,,
2,1779303661248,6269,8423,10705,6849021,557109,-1843591,0,0,0,197,142,166,240,196,237,324,131,198,137,85,157,0,,,,
1,1779303661264,-909,81,10074,13439,64751,1221,0,0,0,445,425,312,459,347,394,621,552,316,649,649,289,0,,,,
2,1779303661264,4589,13151,5661,4106236,1502728,-2794097,0,0,0,199,141,163,245,190,234,330,134,198,137,79,154,0,,,,
1,1779303661280,-923,110,10031,18325,-25656,3665,0,0,0,440,428,315,463,351,397,624,553,317,646,646,286,0,,,,
2,1779303661280,-191,14146,8083,-392175,1128878,-2956587,0,0,0,199,141,161,249,186,238,331,134,198,138,78,153,0,,,,
1,1779303661296,-952,119,9964,34208,-75747,0,0,0,0,447,434,333,464,349,391,623,541,314,646,646,282,0,,,,
2,1779303661296,-1608,11529,9667,-3820351,-278554,-2035402,0,0,0,193,141,172,249,185,251,329,131,206,136,76,155,0,,,,
1,1779303661312,-990,124,9906,59864,-95294,0,0,0,0,451,440,333,471,358,393,620,515,317,647,635,296,0,,,,
2,1779303661312,1282,8078,7207,-4796513,-1197295,-824668,0,0,0,186,142,172,247,184,255,332,134,211,133,73,154,0,,,,
1,1779303661328,-1014,143,9882,98960,-74525,1221,0,0,0,451,453,327,486,371,395,618,485,323,646,617,321,0,,,,
2,1779303661328,3134,6700,4398,-4623028,-430049,-100181,0,0,0,187,144,165,252,184,250,336,137,208,136,76,149,0,,,,
1,1779303661344,-1019,138,9897,150272,-35430,7330,0,0,0,462,465,330,504,377,411,617,459,327,642,586,342,0,,,,
2,1779303661344,1976,6365,4848,-4703662,662177,328645,0,0,0,187,143,164,259,184,250,336,134,207,140,79,148,0,,,,
1,1779303661360,-1000,100,9944,197920,-8552,17104,0,0,0,477,471,332,522,393,423,619,435,333,637,554,362,0,,,,
2,1779303661360,-162,6054,7217,-5103168,1370781,806342,0,0,0,182,141,165,259,185,255,336,134,209,139,81,150,0,,,,
1,1779303661376,-938,43,9978,233350,-10995,21991,0,0,0,491,480,331,542,410,435,624,415,343,632,529,387,0,,,,
2,1779303661376,-1229,5254,9408,-5635842,1587027,1281595,0,0,0,186,149,171,257,188,258,339,142,212,139,88,149,0,,,,
1,1779303661392,-885,4,10002,255341,-34208,24434,0,0,0,509,493,331,557,421,444,623,389,347,617,506,418,0,,,,
2,1779303661392,-1780,3809,11098,-6109874,1690874,1500285,0,0,0,188,149,171,260,187,258,340,138,214,138,84,148,0,,,,
1,1779303661408,-899,-4,10021,259006,-70860,24434,0,0,0,527,505,328,566,439,442,612,358,345,595,475,450,0,,,,
2,1779303661408,-2794,2244,12462,-6263812,1624901,1353677,0,0,0,192,148,172,262,186,260,343,131,222,138,77,152,0,,,,
1,1779303661424,-966,-38,10045,265115,-108734,31764,0,0,0,537,521,322,574,455,446,601,335,350,578,430,474,0,,,,
2,1779303661424,-3910,1009,14012,-6251594,1315803,1172861,0,0,0,183,139,171,261,178,260,342,130,223,138,76,152,0,,,,
1,1779303661440,-995,-76,10069,283441,-130725,45204,0,0,0,548,535,319,588,441,461,594,287,355,547,385,504,0,,,,
2,1779303661440,-3981,483,15520,-6164851,778242,1058018,0,0,0,178,137,173,261,176,264,343,130,225,133,70,152,0,,,,
1,1779303661456,-1000,-114,10098,309097,-134390,54977,0,0,0,558,553,318,595,474,467,577,262,363,523,337,523,0,,,,
2,1779303661456,-2416,617,16879,-6181956,353080,1080009,0,0,0,186,136,169,261,172,262,346,129,217,139,70,148,0,,,,
1,1779303661472,-1024,-143,10145,345749,-117286,65973,0,0,0,571,570,291,603,490,476,557,239,381,498,315,533,0,,,,
2,1779303661472,-478,708,18449,-6246707,169820,1220508,0,0,0,185,136,170,261,172,260,347,129,216,137,70,149,0,,,,
1,1779303661488,-1038,-196,10179,383623,-56199,79412,0,0,0,572,575,261,608,490,480,541,219,381,482,290,542,0,,,,
2,1779303661488,1402,205,20756,-6247929,180816,1501506,0,0,0,183,132,176,259,166,263,347,122,216,137,70,149,0,,,,
1,1779303661504,-1024,-263,10251,414166,54977,89186,0,0,0,587,570,256,624,514,487,536,212,385,480,267,546,0,,,,
2,1779303661504,3594,-1100,23522,-6117204,240680,1852143,0,0,0,184,130,172,256,164,260,349,120,214,153,69,147,0,,,,
1,1779303661520,-966,-311,10480,494800,193033,95294,0,0,0,595,575,206,623,512,491,509,198,378,467,240,554,0,,,,
2,1779303661520,6192,-3685,25738,-5877745,397062,2123367,0,0,0,183,130,170,255,163,259,350,119,214,145,66,150,0,,,,
1,1779303661536,-976,-339,10887,673173,304210,103847,0,0,0,604,576,170,630,529,496,478,194,367,452,248,561,0,,,,
2,1779303661536,8260,-8844,26556,-5600412,728151,2171015,0,0,0,186,128,168,261,163,259,353,121,216,138,66,150,0,,,,
1,1779303661552,-1038,-411,11256,946841,289550,145385,0,0,0,613,575,139,629,526,492,458,197,365,428,240,555,0,,,,
2,1779303661552,7824,-15716,25436,-5428148,1136209,1980425,0,0,0,189,128,171,269,165,262,356,122,218,141,67,150,0,,,,
1,1779303661568,-971,-497,11361,1167974,133168,205250,0,0,0,623,577,116,630,540,490,432,201,365,409,236,564,0,,,,
2,1779303661568,3455,-23527,22354,-5216789,1280373,1656666,0,0,0,191,128,173,273,166,266,355,121,223,144,68,151,0,,,,
1,1779303661584,-765,-660,11323,1379333,-51312,246789,0,0,0,623,584,101,630,548,490,411,198,362,387,222,583,0,,,,
2,1779303661584,-1167,-32079,17310,-4054923,447153,1545489,0,0,0,196,127,172,277,167,268,359,123,227,147,70,151,0,,,,
1,1779303661600,-655,-827,11476,1624901,-128281,245567,0,0,0,622,599,102,628,554,488,396,199,365,370,208,599,0,,,,
2,1779303661600,0,-37602,11619,-2284635,-569326,1473406,0,0,0,200,127,172,277,163,264,365,128,223,153,77,150,0,,,,
1,1779303661616,-746,-981,11806,1910786,-123394,230907,0,0,0,625,606,98,625,560,481,376,206,367,353,202,599,0,,,,
2,1779303661616,3129,-38487,7738,-284663,-497244,982271,0,0,0,196,127,170,268,161,251,370,177,206,188,132,149,0,,,,
1,1779303661632,-1115,-1182,12275,2289522,-95294,251676,0,0,0,625,609,91,620,555,467,357,212,364,328,190,591,0,,,,
2,1779303661632,-674,-28734,13084,1523497,365297,410501,0,0,0,181,120,155,253,162,237,388,320,189,271,263,147,0,,,,
1,1779303661648,-1718,-1421,12711,2718350,-59864,345749,0,0,0,628,621,100,615,549,451,349,213,366,311,167,592,0,,,,
2,1779303661648,-4575,-1019,18980,3637091,368962,458148,0,0,0,167,100,120,258,153,246,390,354,198,313,306,141,0,,,,
1,1779303661664,-2206,-1708,13055,3186273,-37873,538783,0,0,0,627,618,107,610,546,450,333,207,368,299,151,581,0,,,,
2,1779303661664,-2636,13543,10983,5110498,160046,976162,0,0,0,168,107,127,279,162,270,410,393,218,335,358,134,0,,,,
1,1779303661680,-2493,-2029,13586,3848451,-37873,823446,0,0,0,619,612,131,595,541,462,306,210,385,281,148,571,0,,,,
2,1779303661680,-832,5388,9236,6021909,789237,1039692,0,0,0,185,115,145,281,152,284,449,441,227,369,374,128,0,,,,
1,1779303661696,-3048,-2292,14166,4566828,-25656,1115439,0,0,0,595,593,127,597,529,474,300,228,395,261,142,541,0,,,,
2,1779303661696,-1000,-4029,17339,6053674,1576032,587652,0,0,0,229,111,190,308,137,336,468,467,271,399,387,143,0,,,,
1,1779303661712,-4254,-2656,15190,5511226,94073,1545489,0,0,0,591,575,107,588,496,440,405,280,364,260,141,451,0,,,,
2,1779303661712,-339,-3192,21177,4506963,1404990,-87964,0,0,0,278,161,209,336,194,386,466,455,286,418,372,158,0,,,,
1,1779303661728,-5575,-3737,17721,6395759,329867,1963320,0,0,0,484,536,97,563,461,429,290,210,356,246,151,355,0,,,,
2,1779303661728,985,-871,16678,1959655,515570,-301767,0,0,0,307,200,211,364,237,402,477,473,301,427,368,172,0,,,,
1,1779303661744,-8925,-7092,23311,7078706,129503,2368935,0,0,0,415,500,103,517,435,354,275,206,294,231,159,274,0,,,,
2,1779303661744,1153,52,10208,48869,-188146,-35430,0,0,0,319,221,215,381,264,410,479,470,304,430,370,181,0,,,,
1,1779303661760,-10117,-8418,27934,7453777,-577878,2998126,0,0,0,333,449,74,448,400,316,302,212,264,230,171,227,0,,,,
2,1779303661760,435,76,9102,-139277,-150272,113620,0,0,0,323,239,229,388,276,419,479,459,307,434,369,215,0,,,,
1,1779303661776,-8671,-3790,26561,7413460,-855211,3869220,0,0,0,287,380,105,397,345,299,347,214,251,244,177,198,0,,,,
2,1779303661776,263,110,10064,114842,4886,73303,0,0,0,325,257,236,395,293,430,482,458,322,432,365,249,0,,,,
1,1779303661792,-9131,1641,21024,7175223,-455705,4576602,0,0,0,244,294,153,326,280,273,366,215,237,239,182,192,0,,,,
2,1779303661792,469,268,10495,202807,18325,0,0,0,0,329,268,242,401,310,439,487,457,332,431,364,275,0,,,,
1,1779303661808,-11342,6920,14285,6669426,-302989,5473352,0,0,0,226,262,174,293,255,262,362,214,235,223,182,194,0,,,,
2,1779303661808,497,306,10064,120951,-53756,0,0,0,0,335,275,247,408,319,449,492,448,335,435,350,294,0,,,,
1,1779303661824,-11155,10088,10131,5160589,-889419,6339559,0,0,0,229,263,178,290,258,261,358,213,236,216,180,195,0,,,,
2,1779303661824,421,263,9920,106290,-68416,2443,0,0,0,341,282,251,413,322,456,498,437,346,432,313,301,0,,,,
1,1779303661840,-7580,12361,7748,1966986,-1979203,6471506,0,0,0,240,253,177,293,254,259,358,211,233,219,180,197,0,,,,
2,1779303661840,363,229,10064,142942,-26878,-1221,0,0,0,345,287,261,417,324,457,499,421,351,424,288,306,0,,,,
1,1779303661856,-1086,11926,7370,-1960877,-2482556,4806287,0,0,0,250,237,172,298,244,261,358,206,232,220,180,199,0,,,,
2,1779303661856,354,224,10122,161268,6108,-2443,0,0,0,341,291,263,426,328,463,492,396,348,411,279,317,0,,,,
1,1779303661872,1780,7595,7403,-4315152,-1345125,1728748,0,0,0,252,235,173,299,246,265,358,205,234,217,178,200,0,,,,
2,1779303661872,382,234,10069,167377,31764,0,0,0,0,342,292,265,429,327,467,487,375,355,390,260,328,0,,,,
1,1779303661888,-497,4221,6427,-4748866,-276111,-759916,0,0,0,253,240,176,301,251,276,359,211,242,213,178,200,0,,,,
2,1779303661888,435,205,10016,171042,37873,0,0,0,0,336,290,261,431,328,470,486,347,365,382,249,334,0,,,,
1,1779303661904,-4556,3259,5293,-4229630,-455705,-2239431,0,0,0,257,240,176,305,253,280,363,215,245,214,180,201,0,,,,
2,1779303661904,473,162,9992,162490,30543,-1221,0,0,0,330,286,257,433,328,475,487,334,365,376,239,340,0,,,,
1,1779303661920,-4833,4072,6508,-4377460,-1853365,-2717128,0,0,0,258,242,175,307,258,285,367,218,252,214,179,203,0,,,,
2,1779303661920,483,124,9973,135612,7330,-4886,0,0,0,334,297,258,430,329,478,486,334,362,375,238,354,0,,,,
1,1779303661936,-3163,4312,8911,-5020090,-2798984,-2816088,0,0,0,263,250,176,313,256,284,368,214,252,221,177,206,0,,,,
2,1779303661936,478,114,9968,101403,-13439,-8552,0,0,0,334,291,259,412,343,459,483,329,368,376,234,353,0,,,,
1,1779303661952,-1354,3474,10935,-5595525,-3165503,-2658485,0,0,0,254,263,174,308,262,286,367,210,253,218,179,203,0,,,,
2,1779303661952,464,114,9987,72082,-35430,-9773,0,0,0,335,299,257,428,345,484,487,327,373,372,236,357,0,,,,
1,1779303661968,282,2115,12017,-5742133,-3343876,-2249205,0,0,0,255,272,174,308,269,287,366,212,255,219,180,201,0,,,,
2,1779303661968,464,119,10011,47647,-61086,-3665,0,0,0,344,297,257,438,341,490,485,322,371,376,234,360,0,,,,
1,1779303661984,2397,1277,13093,-5657833,-3508809,-1749518,0,0,0,256,271,175,311,268,290,366,212,257,220,181,199,0,,,,
2,1779303661984,469,124,10026,29321,-87964,0,0,0,0,358,302,264,443,345,490,482,317,376,380,234,371,0,,,,
1,1779303662000,4465,885,14371,-5530773,-3481931,-1329242,0,0,0,255,268,172,313,264,293,364,209,256,217,178,195,0,,x,,
2,1779303662000,473,129,10026,20769,-111177,0,0,0,0,378,319,269,442,360,490,484,309,372,380,232,369,0,,x,,
1,1779303662016,5862,985,15984,-5403713,-3181386,-1089783,0,0,0,256,269,174,315,264,293,366,209,257,217,177,195,0,,,,
2,1779303662016,445,134,10026,26878,-118507,0,0,0,0,391,327,265,447,365,491,492,293,356,380,226,362,0,,,,
1,1779303662032,5656,1488,17779,-5409822,-2844188,-1182635,0,0,0,258,271,177,315,267,292,368,210,259,217,176,197,0,,,,
2,1779303662032,406,138,10035,45204,-111177,0,0,0,0,406,336,250,454,372,491,496,282,357,379,221,369,0,,,,
1,1779303662048,4541,1450,19784,-5546656,-2616946,-1437976,0,0,0,258,271,177,316,268,293,368,211,259,215,173,199,0,,,,
2,1779303662048,387,153,10074,75747,-87964,0,0,0,0,426,349,243,458,381,488,500,274,373,373,211,377,0,,,,
1,1779303662064,3082,263,21660,-5659055,-2497217,-1613905,0,0,0,257,270,175,317,268,295,369,209,261,213,169,200,0,,,,
2,1779303662064,406,148,10098,109955,-58643,-1221,0,0,0,444,365,252,458,387,484,506,255,382,354,194,389,0,,,,
1,1779303662080,1603,-1622,23814,-5628512,-2365270,-1510058,0,0,0,257,270,175,317,269,295,368,208,259,211,167,199,0,,,,
2,1779303662080,421,124,10107,150272,-28099,-6108,0,0,0,458,385,265,451,399,488,501,230,387,322,174,417,0,,,,
1,1779303662096,550,-3670,25824,-5607742,-2224771,-1230282,0,0,0,256,271,174,315,268,293,368,207,259,211,167,198,0,,,,
2,1779303662096,421,105,10131,191811,2443,-12217,0,0,0,467,385,277,456,411,503,490,205,399,292,149,437,0,,,,
1,1779303662112,483,-6987,26379,-5644394,-2018298,-951728,0,0,0,253,269,171,319,271,296,370,206,263,213,168,197,0,,,,
2,1779303662112,445,90,10279,244346,61086,-19547,0,0,0,478,398,265,475,424,511,489,165,387,278,130,449,0,,,,
1,1779303662128,1201,-12543,24862,-5573534,-1759291,-873537,0,0,0,257,274,171,325,271,290,378,208,266,218,168,195,0,,,,
2,1779303662128,521,71,10624,346971,106290,-35430,0,0,0,485,407,228,499,439,535,468,129,380,255,118,458,0,,,,
1,1779303662144,2895,-21564,20177,-5103168,-1485624,-1141096,0,0,0,257,279,165,331,271,294,376,206,268,221,170,197,0,,,,
2,1779303662144,579,90,11404,582765,105068,-53756,0,0,0,486,424,212,505,449,531,452,129,382,240,117,466,0,,,,
1,1779303662160,6125,-33414,13165,-3892433,-1285260,-1701870,0,0,0,260,282,167,331,274,293,368,210,267,218,169,196,0,,,,
2,1779303662160,483,129,12471,1056796,152716,-64751,0,0,0,488,437,194,501,454,526,418,130,386,228,116,468,0,,,,
1,1779303662176,11969,-43163,8068,-1723861,-1125213,-2367713,0,0,0,261,277,173,328,276,295,372,214,266,218,170,199,0,,,,
2,1779303662176,531,110,13141,1623679,229685,-69638,0,0,0,483,432,184,515,455,511,378,131,383,224,109,469,0,,,,
1,1779303662192,12835,-36769,9466,1144761,118507,-2448347,0,0,0,237,223,147,286,251,248,373,276,233,289,333,164,0,,,,
2,1779303662192,914,14,13467,2223549,285884,-122173,0,0,0,488,428,182,506,465,513,307,134,373,213,108,471,0,,,,
1,1779303662208,3579,-18272,15223,3497814,1808161,-1502728,0,0,0,222,182,105,262,195,223,404,397,227,381,449,136,0,,,,
2,1779303662208,1162,-28,13965,2817310,307876,-218689,0,0,0,488,435,189,500,475,509,257,130,371,220,114,466,0,,,,
1,1779303662224,-6015,5470,17898,4775744,2561968,417831,0,0,0,206,160,82,266,160,230,452,491,234,455,499,123,0,,,,
2,1779303662224,1373,-43,14663,3552792,262672,-340862,0,0,0,470,450,200,498,474,508,214,126,386,220,115,459,0,,,,
1,1779303662240,-4560,6733,12438,5072624,2377487,1235169,0,0,0,212,143,86,283,139,259,507,537,250,515,531,127,0,,,,
2,1779303662240,1890,-86,15300,4409225,73303,-485026,0,0,0,475,435,194,469,462,514,194,127,381,208,107,451,0,,,,
1,1779303662256,-1727,-368,13639,5386609,2216219,816115,0,0,0,251,133,165,308,121,297,556,548,266,560,563,151,0,,,,
2,1779303662256,2560,-162,16262,5348736,-245567,-680503,0,0,0,472,411,180,439,443,500,192,126,367,192,98,399,0,,,,
1,1779303662272,-81,-3091,20224,4746422,2039068,259006,0,0,0,300,150,267,344,146,328,588,544,276,588,588,181,0,,,,
2,1779303662272,3225,-469,18367,6345668,-664621,-895528,0,0,0,439,387,168,428,424,470,198,128,348,175,93,335,0,,,,
1,1779303662288,-114,-1976,19334,2845410,1407433,95294,0,0,0,335,214,320,384,221,357,597,540,285,603,603,210,0,,,,
2,1779303662288,4685,-2569,23857,7459886,-1023810,-1093448,0,0,0,404,353,158,405,393,438,205,129,316,156,87,292,0,,,,
1,1779303662304,-440,-521,12342,794124,558330,6108,0,0,0,362,289,350,417,266,377,597,528,295,613,613,242,0,,,,
2,1779303662304,6824,-5570,30452,8459261,-786794,-1348790,0,0,0,373,304,152,365,345,400,220,125,281,142,80,251,0,,,,
1,1779303662320,-449,-196,9174,-8552,113620,-47647,0,0,0,383,322,349,437,278,379,608,525,306,622,622,263,0,,,,
2,1779303662320,5891,-4632,32806,9028588,-116064,-1787391,0,0,0,310,232,148,331,286,343,263,122,255,132,72,192,0,,,,
1,1779303662336,-502,-263,9782,64751,21991,-39095,0,0,0,397,334,349,444,287,380,612,525,310,627,627,294,0,,,,
2,1779303662336,6695,794,29016,9087231,-480140,-2228436,0,0,0,209,158,152,286,208,269,315,122,230,127,65,130,0,,,,
1,1779303662352,-598,-71,10299,119729,13439,-20769,0,0,0,400,343,353,453,296,383,614,529,306,636,637,312,0,,,,
2,1779303662352,11232,6599,22210,8779355,-554665,-2712241,0,0,0,198,126,161,269,170,247,332,124,212,141,74,140,0,,,,
1,1779303662368,-603,90,10136,59864,-13439,-14660,0,0,0,407,350,357,453,296,385,616,531,310,636,637,315,0,,,,
2,1779303662368,12691,13548,12419,7540520,674395,-3521027,0,0,0,207,129,153,275,174,241,334,124,202,141,70,134,0,,,,
1,1779303662384,-569,119,9882,10995,-45204,-9773,0,0,0,406,350,357,455,310,381,621,531,307,646,637,340,0,,,,
2,1779303662384,5585,17492,6178,3560122,2069611,-3980397,0,0,0,210,127,154,272,172,243,332,125,201,139,66,134,0,,,,
1,1779303662400,-569,76,9940,40317,-57421,-1221,0,0,0,407,353,357,455,310,386,621,530,313,641,629,340,0,,,,
2,1779303662400,-1909,16329,8365,-1369559,1640784,-2834414,0,0,0,210,127,154,273,167,245,339,125,201,140,69,136,0,,,,
1,1779303662416,-559,71,10016,63529,-62308,1221,0,0,0,403,358,353,461,326,387,618,522,312,638,611,347,0,,,,
2,1779303662416,-1971,11026,9609,-4102570,-690277,-505796,0,0,0,202,132,159,270,171,251,336,124,205,140,69,136,0,,,,
1,1779303662432,-555,100,10031,65973,-79412,1221,0,0,0,401,357,356,465,325,390,624,519,318,641,594,358,0,,,,
2,1779303662432,2124,7556,6475,-4603480,-1975538,877202,0,0,0,199,133,156,270,172,252,336,124,206,140,69,137,0,,,,
1,1779303662448,-564,90,9983,65973,-98960,1221,0,0,0,402,361,358,470,330,392,624,510,318,634,582,360,0,,,,
2,1779303662448,5010,6231,3776,-4642575,-1299921,1080009,0,0,0,194,133,151,268,171,249,343,129,207,136,69,136,0,,,,
1,1779303662464,-569,67,9944,72082,-107512,3665,0,0,0,408,364,359,477,335,396,628,501,321,635,570,368,0,,,,
2,1779303662464,4737,5240,4005,-4993212,-51312,901637,0,0,0,192,135,155,266,171,250,343,130,208,137,70,137,0,,,,
1,1779303662480,-564,62,9940,79412,-102625,7330,0,0,0,410,367,360,484,336,401,629,491,323,638,564,376,0,,,,
2,1779303662480,2526,4388,6111,-5402492,757472,786794,0,0,0,191,135,159,266,169,252,339,131,210,136,71,136,0,,,,
1,1779303662496,-564,62,9949,86742,-97738,10995,0,0,0,414,371,364,493,342,407,629,478,328,630,559,387,0,,,,
2,1779303662496,985,3919,7915,-5646838,949284,939510,0,0,0,187,132,158,266,169,253,342,130,212,137,72,137,0,,,,
1,1779303662512,-588,52,9954,96516,-92851,18325,0,0,0,425,376,370,504,352,414,628,467,337,619,546,404,0,,,,
2,1779303662512,430,3637,9667,-5931501,981049,1369559,0,0,0,185,130,157,267,170,254,345,130,213,137,71,138,0,,,,
1,1779303662528,-607,33,9949,111177,-83077,30543,0,0,0,433,390,362,519,356,419,622,457,340,611,533,421,0,,,,
2,1779303662528,536,3225,11241,-6205169,1119105,1839926,0,0,0,185,131,158,268,171,255,347,131,216,134,69,138,0,,,,
1,1779303662544,-612,19,9954,129503,-69638,42760,0,0,0,436,409,352,535,370,419,619,447,340,601,533,445,0,,,,
2,1779303662544,574,2593,12782,-6321233,1354899,2238210,0,0,0,185,133,160,270,170,256,348,128,218,133,67,138,0,,,,
1,1779303662560,-617,9,9973,145385,-57421,52534,0,0,0,446,428,359,539,386,424,622,433,350,591,515,458,0,,,,
2,1779303662560,445,1856,14692,-6359107,1519832,2588846,0,0,0,183,133,160,268,168,256,349,126,220,135,67,139,0,,,,
1,1779303662576,-636,4,10002,172263,-48869,65973,0,0,0,473,454,349,553,405,442,614,399,348,585,478,479,0,,,,
2,1779303662576,488,1263,17094,-6320011,1510058,2852740,0,0,0,183,133,161,268,169,257,348,127,220,132,67,139,0,,,,
1,1779303662592,-646,0,10045,216246,-48869,85521,0,0,0,500,465,353,568,410,468,616,349,353,576,452,509,0,,,,
2,1779303662592,832,1148,20492,-6261368,1392772,3057991,0,0,0,183,131,168,267,167,263,348,122,222,131,66,144,0,,,,
1,1779303662608,-636,-14,10117,267558,-68416,105068,0,0,0,524,482,365,582,411,473,623,301,364,544,407,530,0,,,,
2,1779303662608,1076,569,24345,-6280916,1136209,3285233,0,0,0,183,132,170,262,165,262,346,124,221,127,65,141,0,,,,
1,1779303662624,-646,-38,10208,334754,-119729,123394,0,0,0,562,496,368,596,425,481,607,267,369,523,342,540,0,,,,
2,1779303662624,2383,-1962,28001,-6372546,570548,3544240,0,0,0,185,131,165,264,165,259,344,123,216,127,64,134,0,,,,
1,1779303662640,-775,-95,10346,426383,-206472,155159,0,0,0,590,512,347,612,444,492,577,244,369,496,302,556,0,,,,
2,1779303662640,5053,-6551,30356,-6454402,18325,3617543,0,0,0,186,131,167,266,165,262,331,125,220,129,66,136,0,,,,
1,1779303662656,-933,-177,10739,574213,-307876,221133,0,0,0,615,539,297,625,469,495,542,213,364,474,274,582,0,,,,
2,1779303662656,7815,-13361,30447,-6488610,-265115,3220481,0,0,0,186,126,166,267,159,262,344,124,222,132,68,137,0,,,,
1,1779303662672,-1110,-272,11361,841772,-388510,296880,0,0,0,629,550,221,642,515,472,507,207,359,462,268,598,0,,,,
2,1779303662672,8848,-23000,27044,-6310237,-441044,2157576,0,0,0,193,128,165,270,159,261,352,121,222,135,66,135,0,,,,
1,1779303662688,-837,-320,12146,1218065,-554665,381179,0,0,0,634,554,157,646,524,468,471,204,342,448,257,590,0,,,,
2,1779303662688,7360,-33538,20894,-5556430,-421497,895528,0,0,0,203,127,164,277,160,264,355,122,223,138,66,134,0,,,,
1,1779303662704,-143,-311,13041,1687209,-569326,331088,0,0,0,637,563,118,639,516,477,424,197,339,424,237,590,0,,,,
2,1779303662704,2278,-41770,13630,-3729943,-98960,164933,0,0,0,205,121,159,272,151,254,359,128,217,158,81,139,0,,,,
1,1779303662720,-564,-459,13093,2201558,-287106,182037,0,0,0,636,571,101,637,523,474,378,198,353,391,220,607,0,,,,
2,1779303662720,-1608,-42431,10394,-1155757,29321,829554,0,0,0,192,121,155,255,156,240,370,230,199,214,188,137,0,,,,
1,1779303662736,-1124,-650,13074,2695137,-127059,141720,0,0,0,632,579,105,632,521,478,354,195,348,361,204,607,0,,,,
2,1779303662736,-311,-37243,13730,1451415,160046,1690874,0,0,0,172,115,131,248,160,232,381,342,190,278,300,133,0,,,,
1,1779303662752,-1646,-827,13500,3244916,-118507,238237,0,0,0,631,588,115,619,534,467,328,201,352,333,194,611,0,,,,
2,1779303662752,1258,-15175,13649,4480085,817337,1588249,0,0,0,164,106,113,263,154,249,401,382,205,324,350,131,0,,,,
1,1779303662768,-2292,-952,14213,3833790,-114842,416610,0,0,0,630,598,115,603,522,454,304,208,369,299,155,603,0,,,,
2,1779303662768,81,4192,11907,6643770,1499063,912632,0,0,0,179,106,131,287,148,287,435,412,234,354,394,128,0,,,,
1,1779303662784,-3235,-1076,15065,4591263,-72082,726929,0,0,0,628,593,116,604,526,453,284,206,383,292,146,573,0,,,,
2,1779303662784,-942,3795,17750,6891781,1639562,323758,0,0,0,202,95,158,306,127,309,460,436,258,386,421,130,0,,,,
1,1779303662800,-4465,-1373,15587,5506339,31764,1172861,0,0,0,619,570,76,595,529,394,272,203,326,286,156,461,0,,,,
2,1779303662800,464,-1584,23010,5450139,280998,67195,0,0,0,223,93,195,310,112,335,467,438,276,427,414,141,0,,,,
1,1779303662816,-5340,-2306,17319,6658431,215024,1729970,0,0,0,515,541,85,571,483,414,281,200,342,254,152,363,0,,,,
2,1779303662816,1263,-2713,19439,3120299,-998153,7330,0,0,0,262,116,224,319,131,373,468,437,297,426,405,162,0,,,,
1,1779303662832,-6379,-5269,22742,7728667,353080,2113593,0,0,0,434,498,96,521,446,390,269,204,330,232,155,341,0,,,,
2,1779303662832,909,-1062,11873,762359,-941954,105068,0,0,0,284,155,215,348,187,395,475,445,300,435,400,165,0,,,,
1,1779303662848,-8791,-8025,29346,8173376,-291993,2370157,0,0,0,372,462,78,464,413,335,291,209,295,230,162,272,0,,,,
2,1779303662848,416,177,9188,-74525,-177150,112399,0,0,0,304,180,229,358,210,411,477,453,308,436,409,166,0,,,,
1,1779303662864,-8695,-5063,30294,8224689,-767246,2988352,0,0,0,305,401,95,409,364,328,320,219,281,218,171,223,0,,,,
2,1779303662864,354,373,9825,4886,65973,58643,0,0,0,313,196,228,361,229,413,483,456,307,440,417,162,0,,,,
1,1779303662880,-9040,1143,25283,8129394,-260228,3850894,0,0,0,236,295,155,325,288,288,339,212,271,221,197,201,0,,,,
2,1779303662880,440,253,10399,112399,-92851,29321,0,0,0,318,210,232,362,243,414,486,459,311,444,424,167,0,,,,
1,1779303662896,-11021,7867,18846,7768984,212581,4695110,0,0,0,225,275,179,303,273,284,342,211,276,222,197,205,0,,,,
2,1779303662896,430,315,10208,46425,-145385,24434,0,0,0,315,247,230,366,259,416,486,463,318,443,423,173,0,,,,
1,1779303662912,-12218,14606,12041,5993809,-173485,5579643,0,0,0,227,269,204,295,266,287,346,212,263,221,188,211,0,,,,
2,1779303662912,363,421,9973,-4886,-94073,18325,0,0,0,315,241,236,367,261,419,484,459,313,443,423,175,0,,,,
1,1779303662928,-9030,17846,9916,1174082,-1446528,6219829,0,0,0,231,262,195,292,260,278,352,215,245,222,186,207,0,,,,
2,1779303662928,325,435,10069,37873,-59864,7330,0,0,0,310,238,244,363,262,418,486,451,314,440,419,178,0,,,,
1,1779303662944,-3062,15405,10753,-3402519,-1948660,5667607,0,0,0,236,251,191,291,257,273,354,215,239,224,190,203,0,,,,
2,1779303662944,325,435,10145,86742,-39095,-1221,0,0,0,303,239,249,363,264,420,485,433,318,437,412,180,0,,,,
1,1779303662960,162,9241,9375,-5277875,-825889,3582113,0,0,0,243,242,196,291,255,273,358,214,240,225,192,204,0,,,,
2,1779303662960,358,421,10102,118507,-20769,-6108,0,0,0,301,243,245,368,268,424,480,416,319,438,407,185,0,,,,
1,1779303662976,-1780,5479,6149,-5053077,161268,1308473,0,0,0,251,240,183,294,256,270,361,213,242,225,192,205,0,,,,
2,1779303662976,378,402,10045,139277,-18325,-8552,0,0,0,300,265,244,372,276,425,478,412,320,433,403,191,0,,,,
1,1779303662992,-5293,4838,4493,-4423886,-353080,-378736,0,0,0,250,238,182,297,257,276,363,209,245,223,188,205,0,,,,
2,1779303662992,387,382,10021,153938,-39095,-10995,0,0,0,303,277,246,379,288,428,477,408,322,428,390,198,0,,,,
1,1779303663008,-5585,4714,6044,-4470311,-1932777,-1499063,0,0,0,248,239,183,295,253,281,366,210,248,221,186,206,0,,,,
2,1779303663008,387,358,10026,169820,-70860,-17104,0,0,0,310,266,246,391,299,434,474,396,327,429,364,206,0,,,,
1,1779303663024,-4182,4264,8423,-4743979,-3100751,-2262644,0,0,0,251,245,186,298,255,284,364,212,251,222,189,206,0,,,,
2,1779303663024,344,330,10035,180816,-83077,-24434,0,0,0,311,284,251,396,313,441,474,392,332,422,349,225,0,,,,
1,1779303663040,-2703,3531,10452,-5066516,-3428175,-2592512,0,0,0,250,247,185,300,257,287,359,210,252,221,188,206,0,,,,
2,1779303663040,315,296,10054,189368,-80634,-30543,0,0,0,308,320,252,394,331,450,472,383,332,424,333,279,0,,,,
1,1779303663056,-2005,2694,11983,-5343849,-3429397,-2503325,0,0,0,249,248,185,300,260,286,361,212,253,220,186,203,0,,,,
2,1779303663056,311,268,10064,199142,-72082,-35430,0,0,0,317,332,255,395,344,454,481,380,334,425,317,290,0,,,,
1,1779303663072,-1182,1856,13764,-5575977,-3605326,-2266310,0,0,0,248,250,185,301,260,287,364,213,255,218,186,207,0,,,,
2,1779303663072,311,239,10050,201585,-65973,-36651,0,0,0,333,320,259,404,366,457,483,365,335,404,292,300,0,,,,
1,1779303663088,138,966,15908,-5737246,-3835011,-2046398,0,0,0,246,248,185,302,260,288,365,213,256,216,184,207,0,,,,
2,1779303663088,301,210,10045,189368,-56199,-32986,0,0,0,339,328,266,422,355,471,475,341,343,391,267,324,0,,,,
1,1779303663104,1325,-43,18291,-5844758,-3849672,-1964542,0,0,0,248,252,186,303,262,290,363,217,254,211,184,207,0,,,,
2,1779303663104,296,186,10074,188146,-56199,-25656,0,0,0,357,333,258,425,364,470,477,320,349,380,244,338,0,,,,
1,1779303663120,1665,-1177,20693,-5907066,-3639535,-2081828,0,0,0,246,253,187,302,261,291,363,217,254,209,180,206,0,,,,
2,1779303663120,296,157,10093,206472,-61086,-20769,0,0,0,387,351,263,434,381,477,471,303,356,350,226,372,0,,,,
1,1779303663136,1081,-2617,22780,-5991366,-3345098,-2289522,0,0,0,247,254,189,301,261,289,361,215,253,209,178,206,0,,,,
2,1779303663136,301,129,10107,228463,-58643,-21991,0,0,0,401,368,275,453,391,495,477,271,363,331,186,394,0,,,,
1,1779303663152,-167,-4704,24680,-6076887,-2984687,-2419026,0,0,0,247,256,190,302,261,290,362,214,253,210,179,207,0,,,,
2,1779303663152,320,110,10141,254119,-41538,-32986,0,0,0,420,384,264,454,406,498,481,241,364,306,165,412,0,,,,
1,1779303663168,-2191,-8183,26087,-6111095,-2715906,-2320066,0,0,0,246,255,187,303,260,292,362,214,253,211,181,208,0,,,,
2,1779303663168,282,47,10208,283441,-2443,-45204,0,0,0,438,390,247,472,414,513,484,198,362,283,144,427,0,,,,
1,1779303663184,-4101,-12950,26494,-6133086,-2454456,-2019520,0,0,0,246,262,184,313,261,293,365,212,256,214,179,208,0,,,,
2,1779303663184,244,28,10404,328645,65973,-50090,0,0,0,446,401,218,478,421,520,480,162,361,264,131,450,0,,,,
1,1779303663200,-5455,-18980,24221,-5975483,-2169793,-1481959,0,0,0,248,273,179,329,266,297,369,211,261,218,177,205,0,,,,
2,1779303663200,258,33,10897,496022,263893,-54977,0,0,0,456,405,191,482,429,524,469,143,364,251,131,473,0,,,,
1,1779303663216,-1856,-25321,19334,-5029864,-2924822,-967610,0,0,0,248,275,172,340,272,302,370,213,265,217,179,202,0,,,,
2,1779303663216,526,14,11897,885754,577878,-75747,0,0,0,465,408,168,497,446,530,438,138,370,245,132,478,0,,,,
1,1779303663232,8121,-33060,14812,-3404962,-4035375,-1072679,0,0,0,243,272,166,345,276,306,371,212,266,217,181,200,0,,,,
2,1779303663232,842,23,13261,1478293,757472,-133168,0,0,0,467,418,154,504,463,538,380,136,372,236,126,479,0,,,,
1,1779303663248,17415,-40861,11433,-1578475,-3159395,-2023185,0,0,0,235,259,159,341,274,302,371,218,265,237,217,193,0,,,,
2,1779303663248,957,47,13988,2169793,713490,-224798,0,0,0,469,430,157,502,469,547,316,131,372,222,118,484,0,,,,
1,1779303663264,15156,-40588,10591,658512,-240680,-2824640,0,0,0,209,214,126,314,249,277,392,280,257,305,346,152,0,,,,
2,1779303663264,1005,52,14228,2857627,605978,-306654,0,0,0,475,442,160,498,472,547,258,132,377,218,118,477,0,,,,
1,1779303663280,5364,-25068,16051,2966361,2155132,-2354274,0,0,0,169,155,59,272,192,237,463,498,242,395,477,121,0,,,,
2,1779303663280,1507,9,14821,3597996,447153,-386066,0,0,0,483,434,170,484,470,537,203,124,378,222,120,477,0,,,,
1,1779303663296,-1550,2029,17214,5034751,4348138,-1050688,0,0,0,170,130,57,295,162,249,526,537,250,482,525,106,0,,,,
2,1779303663296,2378,0,16118,4532620,197920,-547335,0,0,0,467,426,181,474,475,517,190,132,377,205,113,463,0,,,,
1,1779303663312,-373,9897,13706,6227160,4829500,-287106,0,0,0,185,118,86,307,135,306,574,592,300,549,579,124,0,,,,
2,1779303663312,3268,105,17913,5585751,-237015,-792903,0,0,0,460,407,177,444,449,500,190,128,370,192,102,430,0,,,,
1,1779303663328,3407,832,17898,6838025,3222925,-10995,0,0,0,235,107,187,314,98,333,596,600,295,604,609,171,0,,,,
2,1779303663328,4355,-454,20837,6923546,-745255,-1105666,0,0,0,430,388,168,420,413,461,202,131,347,167,93,312,0,,,,
1,1779303663344,1612,-4910,24871,5639507,1712866,575435,0,0,0,282,130,259,364,127,369,618,594,312,624,623,200,0,,,,
2,1779303663344,6211,-2804,27346,8356636,-712268,-1339016,0,0,0,389,340,155,399,375,426,200,122,307,154,91,282,0,,,,
1,1779303663360,-1718,-3613,19808,2427578,945619,645073,0,0,0,316,167,312,402,170,387,621,587,322,632,632,229,0,,,,
2,1779303663360,9198,-5082,35127,9604023,586430,-1617571,0,0,0,339,275,150,361,324,397,230,122,279,134,74,217,0,,,,
1,1779303663376,-1488,-631,11347,307876,549778,107512,0,0,0,333,241,341,429,217,398,623,573,328,642,642,275,0,,,,
2,1779303663376,4977,-909,37425,10051176,1276708,-2351831,0,0,0,234,172,140,319,234,317,291,117,249,124,62,142,0,,,,
1,1779303663392,-430,373,8403,-186924,212581,-185703,0,0,0,342,285,353,445,257,406,628,560,334,645,642,296,0,,,,
2,1779303663392,5010,5125,32232,9896016,2443,-2830749,0,0,0,197,128,156,284,180,283,326,116,240,130,65,137,0,,,,
1,1779303663408,-277,-162,10078,228463,47647,-87964,0,0,0,347,304,357,453,283,414,630,551,338,645,635,308,0,,,,
2,1779303663408,12620,13098,19061,8868541,663399,-3316998,0,0,0,200,122,163,275,166,272,330,115,233,132,64,140,0,,,,
1,1779303663424,-693,-181,10543,238237,-10995,13439,0,0,0,351,327,362,463,302,422,632,541,342,645,620,327,0,,,,
2,1779303663424,12084,21129,7188,5599190,2816088,-4299269,0,0,0,209,124,156,279,162,264,336,114,221,138,63,136,0,,,,
1,1779303663440,-760,38,10088,120951,-40317,9773,0,0,0,359,343,367,474,314,429,637,532,349,645,600,349,0,,,,
2,1779303663440,1378,22282,7432,-142942,3777590,-4445877,0,0,0,210,124,155,277,159,260,341,118,218,140,65,136,0,,,,
1,1779303663456,-641,124,9853,91629,-81855,-13439,0,0,0,370,347,371,487,320,435,640,522,351,643,575,374,0,,,,
2,1779303663456,-4532,14773,10260,-3805690,1359786,-2399478,0,0,0,204,123,158,273,160,261,343,122,220,138,67,137,0,,,,
1,1779303663472,-612,28,10031,131946,-144164,-10995,0,0,0,379,357,372,503,328,435,639,497,357,630,541,390,0,,,,
2,1779303663472,-2440,8049,8040,-4698775,-1296256,-216246,0,0,0,199,123,158,273,163,264,342,122,219,138,69,138,0,,,,
1,1779303663488,-693,-4,10141,164933,-204028,-10995,0,0,0,389,375,369,514,334,438,632,464,359,615,516,407,0,,,,
2,1779303663488,2464,5862,4077,-4301713,-2117258,888198,0,0,0,199,125,159,272,163,264,342,124,219,138,70,140,0,,,,
1,1779303663504,-799,0,10045,177150,-235793,-8552,0,0,0,402,390,379,532,353,449,624,439,358,596,508,417,0,,,,
2,1779303663504,4091,5441,3541,-4511850,-1159422,1059240,0,0,0,199,127,161,272,163,263,344,126,220,139,69,139,0,,,,
1,1779303663520,-856,0,9944,180816,-228463,2443,0,0,0,409,408,373,536,371,454,617,403,358,583,485,448,0,,,,
2,1779303663520,3201,4680,5063,-4905247,-79412,1067792,0,0,0,195,130,162,272,165,267,341,126,221,136,70,137,0,,,,
1,1779303663536,-837,-38,9935,182037,-193033,18325,0,0,0,416,414,367,551,385,468,624,394,367,560,470,467,0,,,,
2,1779303663536,1344,4264,6896,-5161811,452040,1167974,0,0,0,187,129,161,274,171,271,340,125,221,136,70,139,0,,,,
1,1779303663552,-804,-76,9968,182037,-171042,26878,0,0,0,434,427,363,556,388,478,611,352,371,562,434,484,0,,,,
2,1779303663552,397,4235,8236,-5431813,489913,1456302,0,0,0,187,129,161,273,169,271,344,125,226,137,70,140,0,,,,
1,1779303663568,-823,-105,9997,183259,-167377,32986,0,0,0,447,444,341,574,393,475,610,323,367,542,403,500,0,,,,
2,1779303663568,244,3866,9461,-5725029,514348,1781283,0,0,0,188,129,166,274,169,275,344,125,226,137,69,140,0,,,,
1,1779303663584,-847,-114,10035,191811,-178372,41538,0,0,0,471,468,337,584,403,476,605,284,370,527,359,518,0,,,,
2,1779303663584,507,3340,11313,-5985257,761138,2149023,0,0,0,189,128,166,274,169,276,344,125,228,137,68,143,0,,,,
1,1779303663600,-899,-138,10059,218689,-196698,53756,0,0,0,498,479,337,592,418,485,601,254,379,513,327,532,0,,,,
2,1779303663600,512,2751,13366,-6177069,951728,2454456,0,0,0,191,130,167,274,168,275,341,121,226,137,68,141,0,,,,
1,1779303663616,-985,-177,10098,266337,-206472,73303,0,0,0,523,491,319,600,437,486,593,222,376,507,299,543,0,,,,
2,1779303663616,722,2024,15563,-6355441,861319,2684141,0,0,0,189,131,168,273,167,277,347,121,229,138,71,141,0,,,,
1,1779303663632,-1067,-201,10241,338419,-193033,100181,0,0,0,547,502,280,611,448,482,572,202,364,499,269,535,0,,,,
2,1779303663632,1612,1536,17889,-6488610,646295,2723237,0,0,0,187,128,165,271,163,275,351,122,233,135,66,141,0,,,,
1,1779303663648,-1253,-215,10538,465479,-129503,151494,0,0,0,568,514,250,617,467,491,547,195,373,486,249,548,0,,,,
2,1779303663648,2349,1043,20894,-6559470,532674,2686585,0,0,0,188,128,166,271,162,274,348,120,230,134,65,141,0,,,,
1,1779303663664,-1287,-287,11045,674395,-28099,244346,0,0,0,591,529,210,622,481,503,522,191,386,472,237,574,0,,,,
2,1779303663664,2991,-248,24690,-6593679,421497,2679254,0,0,0,190,128,167,272,164,275,347,116,226,133,64,139,0,,,,
1,1779303663680,-985,-378,11610,955393,28099,311541,0,0,0,608,538,152,628,482,499,494,194,382,451,231,580,0,,,,
2,1779303663680,4852,-4096,28609,-6692639,200363,2719572,0,0,0,191,126,167,274,163,275,346,114,223,133,62,136,0,,,,
1,1779303663696,-689,-516,11706,1302364,56199,299323,0,0,0,612,539,109,632,498,495,458,205,381,423,235,580,0,,,,
2,1779303663696,7126,-10098,30906,-6731734,96516,2576629,0,0,0,193,124,166,276,161,274,352,114,224,134,58,135,0,,,,
1,1779303663712,-550,-698,11667,1646892,56199,244346,0,0,0,617,546,72,636,514,493,421,206,365,409,230,569,0,,,,
2,1779303663712,8609,-20272,30500,-6525262,179594,1898569,0,0,0,194,124,166,278,162,273,340,123,231,136,57,137,0,,,,
1,1779303663728,-540,-827,11926,1949881,-32986,179594,0,0,0,629,541,34,641,503,424,387,199,313,382,212,530,0,,,,
2,1779303663728,7346,-32500,26116,-5965709,367740,841772,0,0,0,194,125,164,281,163,275,333,129,234,144,64,142,0,,,,
1,1779303663744,-760,-933,12629,2315179,-230907,145385,0,0,0,635,554,63,641,515,406,373,210,321,361,189,541,0,,,,
2,1779303663744,2234,-43479,18549,-4654793,536339,46425,0,0,0,185,117,154,275,155,271,369,154,226,185,111,147,0,,,,
1,1779303663760,-1124,-1048,13232,2763554,-365297,171042,0,0,0,620,571,88,617,509,485,336,203,374,322,159,605,0,,,,
2,1779303663760,-3024,-49758,15525,-1802052,59864,296880,0,0,0,164,105,132,253,142,255,391,285,214,270,240,140,0,,,,
1,1779303663776,-1426,-1162,13625,3393967,-397062,268780,0,0,0,617,577,108,625,514,501,306,207,387,302,144,611,0,,,,
2,1779303663776,-4800,-47958,14725,2135584,-700051,1117883,0,0,0,167,102,117,267,150,258,409,385,211,293,330,128,0,,,,
1,1779303663792,-1665,-1316,13993,4131892,-411723,416610,0,0,0,614,575,125,616,510,510,281,203,408,294,139,607,0,,,,
2,1779303663792,-3091,-23383,11988,6262590,-415388,1863138,0,0,0,168,101,111,290,159,281,426,409,225,332,377,124,0,,,,
1,1779303663808,-2057,-1435,14668,4916243,-423940,599869,0,0,0,615,580,91,612,510,483,270,200,407,288,145,575,0,,,,
2,1779303663808,-2938,-641,15740,7479433,869872,1393994,0,0,0,187,92,143,306,137,316,454,434,260,352,390,132,0,,,,
1,1779303663824,-2881,-1603,16018,5932723,-296880,857654,0,0,0,590,570,97,613,506,491,273,206,417,264,144,490,0,,,,
2,1779303663824,-2144,3972,22009,6991963,1181413,387288,0,0,0,237,110,189,314,130,348,462,447,284,382,390,152,0,,,,
1,1779303663840,-3766,-2799,18564,7037167,4886,1132544,0,0,0,501,536,121,576,470,467,273,207,399,239,141,413,0,,,,
2,1779303663840,425,-2029,21981,4141666,177150,-268780,0,0,0,309,190,216,342,201,390,464,436,299,405,359,179,0,,,,
1,1779303663856,-5235,-6752,24886,8007221,228463,1284038,0,0,0,429,492,106,517,429,407,284,200,365,241,144,353,0,,,,
2,1779303663856,1493,-3283,14376,805120,-496022,-133168,0,0,0,347,233,228,368,255,410,468,436,315,409,359,248,0,,,,
1,1779303663872,-8609,-8399,30882,8491026,-445931,1452637,0,0,0,360,444,78,460,391,332,301,200,306,236,155,269,0,,,,
2,1779303663872,454,-67,8710,-346971,-321315,161268,0,0,0,381,275,252,374,288,421,475,445,323,410,357,288,0,,,,
1,1779303663888,-11931,-4292,30806,8844106,-1199739,2219884,0,0,0,270,375,100,394,341,301,325,209,276,221,170,193,0,,,,
2,1779303663888,81,703,9246,21991,-135612,114842,0,0,0,419,296,275,375,302,427,481,443,327,411,354,306,0,,,,
1,1779303663904,-13476,2196,26599,9026144,-1119105,3502701,0,0,0,215,303,168,339,294,315,344,212,285,215,182,181,0,,,,
2,1779303663904,301,181,10476,263893,-133168,18325,0,0,0,434,312,280,379,319,432,482,432,327,412,353,322,0,,,,
1,1779303663920,-14879,11213,20210,8420166,-1081231,5028642,0,0,0,223,268,202,316,275,304,346,209,268,217,187,196,0,,,,
2,1779303663920,421,-86,10504,161268,-178372,-1221,0,0,0,438,326,280,386,328,436,484,415,331,407,339,329,0,,,,
1,1779303663936,-13735,19406,12213,5519778,-2079385,6310237,0,0,0,233,267,168,298,268,272,345,211,241,220,187,194,0,,,,
2,1779303663936,263,186,10088,80634,-130725,12217,0,0,0,442,341,284,395,336,437,480,397,331,402,309,335,0,,,,
1,1779303663952,-6671,21043,10686,-548556,-3196046,6598566,0,0,0,237,261,174,293,260,270,349,211,241,220,189,200,0,,,,
2,1779303663952,172,311,10059,122173,-61086,10995,0,0,0,447,364,286,405,346,441,471,365,327,402,283,350,0,,,,
1,1779303663968,1627,15372,12433,-5705481,-2522873,5326744,0,0,0,246,233,175,295,251,274,354,224,244,220,191,201,0,,,,
2,1779303663968,186,258,10212,179594,-20769,3665,0,0,0,453,384,285,411,357,449,465,321,329,392,260,372,0,,,,
1,1779303663984,3637,7815,11730,-7237531,-140499,3079982,0,0,0,246,224,187,295,247,282,362,250,250,216,196,200,0,,,,
2,1779303663984,287,196,10208,194255,-3665,3665,0,0,0,455,392,289,413,374,456,458,285,335,360,224,396,0,,,,
1,1779303664000,-1627,5135,8250,-6487388,1229060,1149648,0,0,0,247,225,179,295,248,280,362,263,247,216,203,199,0,,,,
2,1779303664000,363,153,10122,190589,-2443,0,0,0,0,458,396,289,423,377,464,454,249,335,340,192,409,0,,,,
1,1779303664016,-5862,4929,6853,-6156299,364075,-65973,0,0,0,246,225,176,294,249,284,359,263,247,217,206,206,0,,,,
2,1779303664016,354,134,10054,177150,-19547,-8552,0,0,0,465,406,269,430,402,468,446,225,331,324,175,414,0,,,,
1,1779303664032,-6537,4637,7944,-6365215,-1486845,-866206,0,0,0,250,227,178,296,249,287,359,243,249,221,203,206,0,,,,
2,1779303664032,320,105,10078,163711,-34208,-17104,0,0,0,464,425,283,430,403,474,442,193,336,324,157,418,0,,,,
1,1779303664048,-4675,3493,9940,-6535036,-2588846,-1423316,0,0,0,253,225,181,300,246,289,362,218,252,226,193,206,0,,,,
2,1779303664048,282,86,10112,163711,-47647,-28099,0,0,0,470,422,285,432,394,480,439,172,336,295,144,422,0,,,,
1,1779303664064,-3723,2435,11371,-6309016,-2757445,-1912008,0,0,0,254,224,184,303,246,292,366,210,256,229,190,208,0,,,,
2,1779303664064,248,67,10145,168598,-54977,-30543,0,0,0,473,427,279,437,414,478,440,156,331,290,135,428,0,,,,
1,1779303664080,-3799,2000,12706,-6128200,-2836858,-2229658,0,0,0,253,225,183,306,247,295,367,208,258,229,191,209,0,,,,
2,1779303664080,258,43,10337,217468,-72082,-29321,0,0,0,474,435,271,441,429,480,434,140,331,282,132,430,0,,,,
1,1779303664096,-3809,1742,14725,-6175847,-3189938,-2445904,0,0,0,253,225,181,308,247,295,367,208,258,229,191,210,0,,,,
2,1779303664096,311,19,10495,359188,-114842,-32986,0,0,0,480,431,270,444,422,487,434,134,332,276,130,435,0,,,,
1,1779303664112,-3101,1028,17453,-6349333,-3616322,-2631607,0,0,0,253,226,181,309,248,295,367,209,259,225,188,209,0,,,,
2,1779303664112,363,-33,10452,499687,-151494,-43982,0,0,0,488,428,260,447,422,482,429,128,335,267,127,438,0,,,,
1,1779303664128,-2636,-110,20416,-6414085,-3922976,-2779436,0,0,0,253,229,185,310,249,297,368,210,263,221,184,207,0,,,,
2,1779303664128,397,-124,10442,605978,-150272,-74525,0,0,0,491,438,253,454,434,490,420,125,336,254,120,440,0,,,,
1,1779303664144,-2144,-1856,23766,-6324898,-4089131,-2802649,0,0,0,253,232,189,310,248,299,368,209,263,218,181,208,0,,,,
2,1779303664144,430,-210,10629,707381,-127059,-117286,0,0,0,494,449,246,463,445,499,410,122,334,254,124,450,0,,,,
1,1779303664160,-1430,-4082,27360,-6266255,-3940080,-2805093,0,0,0,255,234,190,311,247,299,370,209,264,215,177,208,0,,,,
2,1779303664160,507,-272,10930,851546,-118507,-166155,0,0,0,497,457,231,471,458,501,402,141,333,251,133,453,0,,,,
1,1779303664176,-1737,-7374,30500,-6395759,-3370754,-2853962,0,0,0,254,234,185,314,246,302,374,211,271,215,174,211,0,,,,
2,1779303664176,435,-349,11141,1054353,-114842,-221133,0,0,0,499,468,214,483,472,503,386,157,334,240,134,455,0,,,,
1,1779303664192,-3804,-13266,31418,-6671870,-2718350,-2834414,0,0,0,253,236,177,331,254,305,375,211,281,218,174,208,0,,,,
2,1779303664192,153,-416,11351,1268156,-83077,-241902,0,0,0,504,480,203,490,482,504,360,151,334,236,131,465,0,,,,
1,1779303664208,-4752,-21368,29504,-6557027,-2505769,-2623055,0,0,0,250,260,168,339,262,308,375,211,282,220,178,204,0,,,,
2,1779303664208,-248,-464,11725,1549154,20769,-191811,0,0,0,507,491,198,490,486,506,333,148,336,240,131,469,0,,,,
1,1779303664224,756,-33864,23110,-5293758,-3153286,-2329840,0,0,0,249,261,161,352,271,317,378,213,286,221,179,200,0,,,,
2,1779303664224,-181,-593,12184,1890017,152716,-108734,0,0,0,512,504,205,503,487,519,302,148,339,235,126,473,0,,,,
1,1779303664240,10710,-48413,15113,-3274237,-3198490,-2395813,0,0,0,254,269,169,344,271,312,376,209,284,224,179,200,0,,,,
2,1779303664240,224,-765,12691,2328618,237015,-92851,0,0,0,518,498,208,504,480,525,272,144,334,230,117,476,0,,,,
1,1779303664256,18143,-56582,10370,-542448,-1666440,-2897944,0,0,0,233,257,157,334,262,295,378,233,275,299,303,165,0,,,,
2,1779303664256,684,-861,13630,2858849,295658,-131946,0,0,0,514,491,222,482,477,515,285,209,341,222,114,474,0,,,,
1,1779303664272,11619,-41445,15104,2484999,500909,-2919935,0,0,0,177,171,76,295,226,251,439,444,252,413,450,125,0,,,,
2,1779303664272,1794,-976,15257,3646865,318871,-287106,0,0,0,507,471,214,478,488,499,205,137,353,219,116,465,0,,,,
1,1779303664288,95,-9748,20837,5172806,1907121,-1868025,0,0,0,164,144,58,295,180,254,495,525,255,475,512,110,0,,,,
2,1779303664288,2967,-981,17252,4795292,182037,-642630,0,0,0,484,451,209,449,472,505,191,135,357,204,113,457,0,,,,
1,1779303664304,-1947,9739,15864,6612005,2493551,-213802,0,0,0,197,116,81,305,119,294,549,568,278,554,566,118,0,,,,
2,1779303664304,3876,-1057,18899,6189286,-177150,-1061683,0,0,0,458,415,183,443,446,500,198,130,356,187,98,383,0,,,,
1,1779303664320,756,2866,17894,7237531,2069611,777020,0,0,0,255,108,140,314,80,318,586,591,290,594,594,151,0,,,,
2,1779303664320,5680,-2823,21904,7535633,-398284,-1382998,0,0,0,420,385,170,429,410,473,195,127,343,171,93,345,0,,,,
1,1779303664336,-421,-5317,25072,6514266,1211956,982271,0,0,0,310,117,216,356,91,345,613,577,324,612,612,207,0,,,,
2,1779303664336,7705,-6025,31021,8676729,563217,-1718974,0,0,0,375,329,160,383,361,426,209,123,305,149,86,282,0,,,,
1,1779303664352,-2507,-3886,19559,3306002,1236391,496022,0,0,0,350,174,293,409,162,383,624,550,346,634,634,267,0,,,,
2,1779303664352,4785,-5211,39439,9531941,1831373,-2188119,0,0,0,294,249,146,350,293,378,258,121,272,126,66,198,0,,,,
1,1779303664368,-1933,-1172,11763,663399,1121548,18325,0,0,0,376,276,338,437,246,405,624,535,340,647,643,311,0,,,,
2,1779303664368,3306,928,38004,10173349,1999972,-2652376,0,0,0,208,159,152,295,207,308,309,125,252,131,71,154,0,,,,
1,1779303664384,-593,-105,8657,-171042,643851,-124616,0,0,0,394,351,337,449,288,408,630,520,345,656,640,346,0,,,,
2,1779303664384,9830,8944,29523,9921673,2145358,-3353650,0,0,0,185,132,159,276,178,279,328,120,244,134,69,145,0,,,,
1,1779303664400,-512,-344,9992,116064,230907,-20769,0,0,0,407,377,344,463,316,420,633,506,350,668,638,389,0,,,,
2,1779303664400,12036,19736,16511,7874052,3066543,-4604702,0,0,0,195,135,160,275,178,273,329,115,236,133,64,144,0,,,,
1,1779303664416,-842,-301,10653,233350,65973,21991,0,0,0,413,400,349,479,348,432,633,501,355,662,630,402,0,,,,
2,1779303664416,4522,25039,8547,2174680,3259576,-5000542,0,0,0,197,133,159,272,171,265,329,114,227,134,63,142,0,,,,
1,1779303664432,-871,-71,10189,127059,15882,0,0,0,0,422,412,344,482,365,430,632,484,360,661,619,409,0,,,,
2,1779303664432,-2306,20684,10428,-3036000,2184454,-3629761,0,0,0,195,134,161,275,167,266,333,115,227,135,62,142,0,,,,
1,1779303664448,-760,0,9944,87964,-75747,-8552,0,0,0,427,429,336,489,375,427,627,455,356,653,578,411,0,,,,
2,1779303664448,-3919,11701,11959,-5243667,43982,-1015258,0,0,0,195,135,165,274,168,268,337,118,230,135,62,143,0,,,,
1,1779303664464,-770,-47,10083,163711,-188146,2443,0,0,0,435,441,339,500,385,430,616,430,359,623,544,427,0,,,,
2,1779303664464,-469,8073,7422,-4816061,-1102000,905302,0,0,0,193,139,160,274,173,266,337,121,228,141,65,142,0,,,,
1,1779303664480,-861,-76,10141,245567,-262672,6108,0,0,0,443,454,343,511,395,433,606,406,363,593,510,443,0,,,,
2,1779303664480,2148,6771,4718,-4763527,-781907,2035402,0,0,0,187,139,159,274,176,267,337,121,228,162,66,143,0,,,,
1,1779303664496,-1005,-105,10026,291993,-274889,14660,0,0,0,463,485,339,527,417,441,601,363,370,580,475,457,0,,,,
2,1779303664496,1373,5719,6374,-5282762,312763,2277305,0,0,0,189,139,158,274,176,268,337,121,229,137,69,144,0,,,,
1,1779303664512,-1033,-162,9916,282219,-210137,46425,0,0,0,488,499,335,542,416,437,591,323,371,560,447,487,0,,,,
2,1779303664512,-95,4895,8245,-5696929,911410,2261423,0,0,0,188,142,158,274,178,270,339,124,229,138,70,145,0,,,,
1,1779303664528,-942,-215,9925,259006,-155159,68416,0,0,0,503,505,336,551,428,449,578,292,367,546,417,506,0,,,,
2,1779303664528,-1397,4422,9853,-6074443,1049466,2070833,0,0,0,188,141,158,273,178,270,339,122,229,138,71,145,0,,,,
1,1779303664544,-871,-258,9997,228463,-129503,69638,0,0,0,528,516,342,559,439,456,560,269,370,536,384,524,0,,,,
2,1779303664544,-2278,4063,11332,-6411641,1034805,1883908,0,0,0,188,142,162,271,178,273,340,121,231,139,70,145,0,,,,
1,1779303664560,-947,-272,10107,234572,-124616,69638,0,0,0,545,528,336,569,454,463,552,246,372,517,357,536,0,,,,
2,1779303664560,-3115,3670,13041,-6614448,1009149,1866804,0,0,0,189,141,163,276,178,274,342,123,233,140,67,145,0,,,,
1,1779303664576,-1009,-296,10179,282219,-95294,84299,0,0,0,565,534,322,576,463,468,546,222,366,507,332,551,0,,,,
2,1779303664576,-3359,3192,15037,-6737843,824668,1996307,0,0,0,189,135,162,275,173,274,343,120,234,142,69,147,0,,,,
1,1779303664592,-995,-354,10112,331088,-37873,98960,0,0,0,587,538,320,581,469,478,530,203,367,495,305,567,0,,,,
2,1779303664592,-2144,2718,17008,-6869790,542448,2059837,0,0,0,189,134,162,278,173,276,345,119,234,139,64,146,0,,,,
1,1779303664608,-1000,-411,10098,361632,24434,111177,0,0,0,600,549,319,586,476,489,508,194,374,468,277,574,0,,,,
2,1779303664608,-550,2325,19564,-7010289,409279,2026850,0,0,0,186,133,164,277,167,276,347,121,234,136,62,144,0,,,,
1,1779303664624,-1067,-464,10189,395840,91629,133168,0,0,0,613,564,296,594,491,489,493,200,367,453,260,581,0,,,,
2,1779303664624,660,1631,23125,-7099475,360410,2046398,0,0,0,187,130,167,275,160,275,348,120,233,134,59,143,0,,,,
1,1779303664640,-1067,-512,10514,472809,151494,177150,0,0,0,623,572,267,600,506,490,477,210,364,449,256,598,0,,,,
2,1779303664640,2703,-1019,27714,-7136127,161268,2277305,0,0,0,186,127,167,273,157,273,348,117,232,134,58,143,0,,,,
1,1779303664656,-995,-555,11117,659734,155159,219911,0,0,0,630,584,218,605,517,490,461,188,369,441,245,608,0,,,,
2,1779303664656,5766,-5508,31375,-7195992,34208,2481334,0,0,0,186,127,167,272,159,272,349,116,231,135,59,142,0,,,,
1,1779303664672,-775,-631,11524,976162,70860,241902,0,0,0,629,596,172,613,522,493,432,185,367,432,229,619,0,,,,
2,1779303664672,8408,-13802,33337,-7214318,139277,2367713,0,0,0,187,130,165,274,165,274,350,119,230,134,56,141,0,,,,
1,1779303664688,-473,-713,11682,1297477,-46425,219911,0,0,0,635,599,157,615,532,502,401,189,355,405,223,627,0,,,,
2,1779303664688,8724,-25436,32318,-6979746,279776,1868025,0,0,0,186,129,164,280,165,278,357,122,233,135,58,141,0,,,,
1,1779303664704,-330,-760,12021,1593136,-130725,147829,0,0,0,627,608,155,637,576,458,383,197,366,389,219,635,0,,,,
2,1779303664704,5403,-39506,26116,-6101322,285884,1145983,0,0,0,187,127,166,278,160,278,365,119,235,137,64,143,0,,,,
1,1779303664720,-665,-871,12907,2015855,-149051,75747,0,0,0,632,620,137,615,535,486,349,195,347,367,215,641,0,,,,
2,1779303664720,1363,-49877,16898,-3915646,-95294,877202,0,0,0,188,128,165,279,157,277,364,122,234,140,68,142,0,,,,
1,1779303664736,-1239,-1019,13610,2558303,-123394,74525,0,0,0,639,625,140,615,532,487,327,194,347,343,185,634,0,,,,
2,1779303664736,918,-52184,10815,-1165530,-453262,1001818,0,0,0,198,126,160,281,157,271,363,136,222,172,94,141,0,,,,
1,1779303664752,-1732,-1110,13936,3149621,-59864,167377,0,0,0,639,622,159,601,522,485,295,191,366,312,168,613,0,,,,
2,1779303664752,2426,-43914,11667,1569923,-120951,1232726,0,0,0,177,116,141,244,157,241,376,330,196,249,269,140,0,,,,
1,1779303664768,-2167,-1225,14213,3819129,21991,356745,0,0,0,634,623,149,586,531,473,277,191,379,295,155,594,0,,,,
2,1779303664768,1426,-12347,17406,3959628,596204,1226617,0,0,0,158,100,95,252,157,232,392,380,196,273,330,124,0,,,,
1,1779303664784,-3053,-1411,14673,4527733,83077,632856,0,0,0,624,621,149,592,535,476,274,193,386,285,145,573,0,,,,
2,1779303664784,-622,12744,13347,5694485,525344,1138652,0,0,0,152,93,83,271,152,251,417,426,207,309,382,123,0,,,,
1,1779303664800,-4503,-1593,15649,5517334,254119,1133765,0,0,0,612,599,129,592,523,449,273,193,370,277,144,496,0,,,,
2,1779303664800,-2124,6968,12639,6615670,-206472,651182,0,0,0,171,87,115,293,125,282,452,454,236,363,406,133,0,,,,
1,1779303664816,-5537,-1986,16836,6692639,671951,1743409,0,0,0,549,561,119,576,499,420,273,196,349,268,148,411,0,,,,
2,1779303664816,-1306,-3187,20100,6365215,-39095,113620,0,0,0,220,99,171,313,125,334,468,467,268,389,389,143,0,,,,
1,1779303664832,-5479,-4374,19908,7799527,1109331,2232101,0,0,0,464,515,113,535,460,390,273,200,327,250,150,359,0,,,,
2,1779303664832,67,-4254,23259,4772079,345749,-335975,0,0,0,283,149,203,351,199,391,474,473,288,415,387,159,0,,,,
1,1779303664848,-6958,-8652,26551,8261341,450818,2354274,0,0,0,402,466,91,475,416,352,285,204,298,232,153,321,0,,,,
2,1779303664848,545,-985,15482,1949881,-32986,-359188,0,0,0,324,217,210,373,256,414,478,479,299,424,383,191,0,,,,
1,1779303664864,-8805,-6953,29887,8348084,-645073,2704911,0,0,0,324,416,99,419,379,337,317,211,281,227,166,265,0,,,,
2,1779303664864,291,172,9638,141720,-279776,-90408,0,0,0,346,261,212,384,290,422,484,482,301,431,380,249,0,,,,
1,1779303664880,-10624,191,26341,8409170,-878424,3681073,0,0,0,235,364,142,366,332,321,339,217,272,220,178,202,0,,,,
2,1779303664880,-43,71,8930,-157603,-158824,108734,0,0,0,362,283,208,395,315,427,488,469,307,436,369,297,0,,,,
1,1779303664896,-12610,5905,21292,8382292,-657290,4818505,0,0,0,221,328,163,326,304,293,346,215,245,215,177,195,0,,,,
2,1779303664896,19,143,10155,174707,-28099,62308,0,0,0,377,298,209,413,332,437,490,451,318,434,350,322,0,,,,
1,1779303664912,-13874,11098,14611,7097032,-744033,6263812,0,0,0,221,324,168,317,304,281,346,215,235,215,178,194,0,,,,
2,1779303664912,95,291,10442,289550,-6108,2443,0,0,0,391,310,217,429,344,452,490,439,326,429,336,341,0,,,,
1,1779303664928,-10533,14256,11543,3050661,-1644449,7465994,0,0,0,224,283,167,305,290,271,353,216,227,229,177,185,0,,,,
2,1779303664928,57,277,10083,211359,-7330,-1221,0,0,0,407,317,218,437,354,461,490,423,331,431,321,360,0,,,,
1,1779303664944,-3091,14630,11165,-1886351,-2190562,7011511,0,0,0,224,279,169,301,276,273,354,213,229,221,178,192,0,,,,
2,1779303664944,23,210,9992,180816,23212,7330,0,0,0,416,321,220,446,360,465,492,401,336,438,280,372,0,,,,
1,1779303664960,2134,10500,10973,-5182580,-1253495,4379903,0,0,0,224,271,170,299,275,278,359,215,233,223,183,196,0,,,,
2,1779303664960,28,196,10141,202807,63529,19547,0,0,0,419,324,216,446,363,472,489,378,336,384,258,377,0,,,,
1,1779303664976,-1325,5460,8537,-5797111,249233,845437,0,0,0,231,270,174,296,275,278,360,214,234,224,184,199,0,,,,
2,1779303664976,81,215,10174,221133,86742,26878,0,0,0,430,338,217,451,380,479,482,363,339,361,241,388,0,,,,
1,1779303664992,-7025,3393,6092,-5375614,18325,-1458746,0,0,0,235,270,176,294,273,278,359,212,235,223,184,197,0,,,,
2,1779303664992,186,177,10083,224798,95294,30543,0,0,0,433,348,220,457,388,479,477,332,346,351,212,390,0,,,,
1,1779303665008,-7619,3340,6824,-5329188,-1864360,-2296853,0,0,0,242,268,177,295,273,280,360,212,236,224,184,198,0,,,,
2,1779303665008,268,114,9987,202807,72082,24434,0,0,0,439,345,219,460,389,482,485,284,341,342,186,390,0,,,,
1,1779303665024,-4594,3129,9672,-5791002,-3236364,-2765997,0,0,0,245,265,175,297,274,283,363,213,238,228,186,202,0,,,,
2,1779303665024,253,81,9997,166155,32986,9773,0,0,0,445,353,228,454,394,482,468,263,345,326,185,402,0,,,,
1,1779303665040,-2636,2244,11820,-6200282,-3167947,-2937040,0,0,0,244,265,173,300,275,288,364,213,241,229,187,205,0,,,,
2,1779303665040,234,76,10035,141720,8552,0,0,0,0,446,359,228,462,400,499,464,254,351,319,173,420,0,,,,
1,1779303665056,-3115,847,12825,-6304129,-2838079,-2812423,0,0,0,244,268,176,304,278,293,364,213,243,227,186,206,0,,,,
2,1779303665056,220,81,10064,135612,0,-4886,0,0,0,453,373,218,467,408,496,466,230,340,306,161,417,0,,,,
1,1779303665072,-3330,0,13500,-6223495,-3105638,-2464230,0,0,0,244,271,177,310,281,297,367,215,249,227,186,205,0,,,,
2,1779303665072,201,67,10078,146607,4886,-7330,0,0,0,464,384,216,474,412,497,468,210,336,293,149,422,0,,,,
1,1779303665088,-1617,-258,14998,-6117204,-3605326,-2145358,0,0,0,244,271,175,311,281,297,367,213,249,234,187,205,0,,,,
2,1779303665088,224,47,10112,163711,12217,-10995,0,0,0,471,391,221,497,425,482,467,190,338,282,138,438,0,,,,
1,1779303665104,354,-19,17032,-6046344,-3750712,-2123367,0,0,0,246,271,178,312,278,297,367,213,250,251,183,202,0,,,,
2,1779303665104,277,23,10208,190589,17104,-20769,0,0,0,476,395,219,499,433,489,464,161,340,275,127,453,0,,,,
1,1779303665120,1005,550,19325,-6091548,-3552792,-2458121,0,0,0,251,273,180,320,281,299,368,213,254,229,185,202,0,,,,
2,1779303665120,411,0,10370,243124,46425,-43982,0,0,0,479,404,218,484,435,507,457,140,344,268,119,459,0,,,,
1,1779303665136,-33,555,22201,-6294355,-3480710,-2951700,0,0,0,255,275,182,327,281,299,371,215,262,231,184,204,0,,,,
2,1779303665136,531,-9,10681,359188,131946,-101403,0,0,0,479,417,219,483,444,513,445,137,351,252,116,460,0,,,,
1,1779303665152,-1038,-957,25226,-6469062,-3716504,-3191160,0,0,0,248,270,176,329,284,301,371,212,262,283,181,205,0,,,,
2,1779303665152,425,0,11083,609643,153938,-142942,0,0,0,483,424,214,493,455,521,427,139,355,236,113,464,0,,,,
1,1779303665168,-239,-4201,28274,-6563136,-3745825,-3043330,0,0,0,251,271,175,330,280,301,372,212,263,293,178,205,0,,,,
2,1779303665168,473,-76,11284,927293,111177,-162490,0,0,0,490,428,216,501,461,526,398,135,353,241,115,464,0,,,,
1,1779303665184,942,-8772,30485,-6687752,-3180164,-2778215,0,0,0,250,272,170,334,280,305,372,211,265,239,178,201,0,,,,
2,1779303665184,540,-153,11749,1232726,111177,-189368,0,0,0,491,431,218,498,469,526,369,134,354,247,121,472,0,,,,
1,1779303665200,1785,-16018,30203,-6697526,-2503325,-2458121,0,0,0,248,270,168,337,281,310,376,214,270,227,183,201,0,,,,
2,1779303665200,363,-167,12423,1601688,189368,-215024,0,0,0,495,432,214,505,468,530,336,131,373,239,114,472,0,,,,
1,1779303665216,4661,-29126,25340,-5977927,-2046398,-2096489,0,0,0,250,272,165,336,287,312,376,214,270,229,187,203,0,,,,
2,1779303665216,157,-196,12869,2018298,248011,-204028,0,0,0,502,438,209,505,462,527,295,127,345,231,110,479,0,,,,
1,1779303665232,8284,-43244,17501,-4427551,-1302364,-1932777,0,0,0,252,272,166,339,286,312,377,212,271,228,185,202,0,,,,
2,1779303665232,201,-335,13055,2508212,255341,-157603,0,0,0,507,441,217,489,462,525,252,124,347,231,115,484,0,,,,
1,1779303665248,12261,-53127,10576,-1667662,-709825,-1986533,0,0,0,235,242,155,304,265,285,379,270,260,281,306,168,0,,,,
2,1779303665248,622,-531,13385,3062878,287106,-156381,0,0,0,511,441,214,479,469,517,213,114,384,238,114,484,0,,,,
1,1779303665264,13208,-47724,11629,1285260,-251676,-1987755,0,0,0,193,188,104,277,227,251,410,408,243,378,445,126,0,,,,
2,1779303665264,1593,-689,14678,3831346,339641,-266337,0,0,0,502,450,213,467,458,513,196,124,366,225,115,471,0,,,,
1,1779303665280,5647,-19736,17697,4417777,916297,-1254717,0,0,0,171,153,63,285,199,241,457,515,239,458,507,108,0,,,,
2,1779303665280,2694,-732,16295,4764748,202807,-529009,0,0,0,483,438,209,459,464,513,190,128,378,210,116,451,0,,,,
1,1779303665296,-473,5187,13831,6379876,2670702,382401,0,0,0,189,140,72,287,168,261,508,546,252,522,549,113,0,,,,
2,1779303665296,3340,-799,17520,5982814,-168598,-880867,0,0,0,465,418,182,452,446,500,197,130,372,188,98,388,0,,,,
1,1779303665312,-1167,4651,15927,7126353,2707354,1178969,0,0,0,238,118,108,275,100,298,570,569,275,584,584,136,0,,,,
2,1779303665312,3211,-1746,18698,7093367,-530231,-1111774,0,0,0,421,387,168,423,412,471,215,140,350,164,87,329,0,,,,
1,1779303665328,-737,-2392,22723,6396980,1037249,1023810,0,0,0,319,128,193,320,96,331,591,567,292,602,602,173,0,,,,
2,1779303665328,4704,-4986,27374,8107403,251676,-1127657,0,0,0,373,333,167,388,370,437,218,131,318,146,82,278,0,,,,
1,1779303665344,-2187,-4020,21296,4327369,453262,767246,0,0,0,376,191,310,413,181,376,603,549,304,626,626,235,0,,,,
2,1779303665344,6068,-6479,35745,9112887,1886351,-1324355,0,0,0,303,254,154,355,306,393,246,119,283,128,68,209,0,,,,
1,1779303665360,-2608,-1469,14041,1809382,1197295,316428,0,0,0,409,274,366,446,259,407,607,545,335,643,643,313,0,,,,
2,1779303665360,6460,-2881,37166,9727418,2946813,-1996307,0,0,0,223,164,147,305,215,320,302,126,249,126,66,155,0,,,,
1,1779303665376,-904,-497,10212,216246,915076,-31764,0,0,0,451,319,364,457,293,413,608,549,335,654,651,362,0,,,,
2,1779303665376,11217,4651,30389,9326690,2470339,-3161838,0,0,0,188,113,157,264,157,261,332,144,228,140,78,146,0,,,,
1,1779303665392,-291,-521,9987,-62308,232128,-72082,0,0,0,465,327,368,473,305,415,613,536,340,654,639,380,0,,,,
2,1779303665392,13701,15453,17798,7742106,2384817,-4444655,0,0,0,194,125,158,270,172,269,326,154,223,132,78,147,0,,,,
1,1779303665408,-703,-315,10327,112399,-80634,-12217,0,0,0,473,341,366,475,305,413,610,515,341,657,607,392,0,,,,
2,1779303665408,7939,23359,6456,3695734,2403143,-5044525,0,0,0,195,130,157,267,171,265,324,161,213,130,82,145,0,,,,
1,1779303665424,-990,-23,10169,156381,-105068,3665,0,0,0,472,355,373,483,312,420,614,491,348,652,615,415,0,,,,
2,1779303665424,-713,18315,9361,-1835039,978606,-3357315,0,0,0,193,132,161,261,170,266,325,163,212,133,85,146,0,,,,
1,1779303665440,-909,67,9949,113620,-73303,-3665,0,0,0,475,384,378,490,326,424,610,470,347,645,591,432,0,,,,
2,1779303665440,-2522,9978,11380,-4404338,-1262047,-1238834,0,0,0,192,127,159,263,165,265,329,147,211,143,76,146,0,,,,
1,1779303665456,-813,-9,10026,141720,-151494,2443,0,0,0,472,397,373,500,339,432,613,455,353,640,562,443,0,,,,
2,1779303665456,1746,6077,7298,-4443433,-2520429,-98960,0,0,0,191,123,159,263,158,265,333,130,214,137,71,149,0,,,,
1,1779303665472,-847,-71,10098,196698,-237015,10995,0,0,0,467,396,396,509,352,442,605,436,358,636,547,456,0,,,,
2,1779303665472,4642,5417,3598,-4349360,-2014633,240680,0,0,0,195,124,164,263,158,265,333,129,214,138,71,149,0,,,,
1,1779303665488,-942,-105,10021,211359,-254119,6108,0,0,0,471,405,388,514,361,440,597,417,356,625,528,463,0,,,,
2,1779303665488,3508,5326,3570,-4527733,-530231,305432,0,0,0,195,124,164,266,157,265,335,125,222,138,67,148,0,,,,
1,1779303665504,-1024,-143,9930,201585,-230907,4886,0,0,0,479,422,369,523,372,438,593,397,355,612,511,466,0,,,,
2,1779303665504,722,4919,5451,-4637688,409279,722042,0,0,0,195,125,166,267,157,269,338,125,224,139,70,149,0,,,,
1,1779303665520,-1005,-167,9920,183259,-186924,14660,0,0,0,484,436,369,538,386,445,591,377,356,604,502,472,0,,,,
2,1779303665520,-579,5116,6815,-4773300,674395,1287703,0,0,0,196,128,166,271,158,271,341,131,227,140,71,150,0,,,,
1,1779303665536,-966,-186,9944,180816,-166155,19547,0,0,0,491,445,369,547,395,451,590,361,357,602,488,485,0,,,,
2,1779303665536,-689,5498,8140,-5187467,722042,1976759,0,0,0,189,126,161,270,161,272,341,133,228,140,74,150,0,,,,
1,1779303665552,-981,-210,9964,182037,-152716,18325,0,0,0,502,453,365,552,402,453,590,343,359,597,469,503,0,,,,
2,1779303665552,-497,4848,9643,-5699372,864985,2376265,0,0,0,188,129,163,270,162,273,339,131,228,148,72,148,0,,,,
1,1779303665568,-1019,-234,10021,190589,-147829,18325,0,0,0,521,459,364,562,415,457,585,318,359,579,459,517,0,,,,
2,1779303665568,-488,3914,11256,-6007248,1048244,2438574,0,0,0,189,131,165,246,157,263,342,131,230,143,72,149,0,,,,
1,1779303665584,-1028,-263,10083,222354,-164933,28099,0,0,0,537,467,363,565,417,461,561,296,362,560,438,523,0,,,,
2,1779303665584,-789,3158,13529,-6246707,1134987,2208888,0,0,0,189,130,165,250,158,264,344,129,231,140,74,151,0,,,,
1,1779303665600,-1052,-291,10083,262672,-189368,37873,0,0,0,542,488,359,572,418,466,560,282,368,558,420,543,0,,,,
2,1779303665600,-914,2804,15922,-6514266,999375,1941329,0,0,0,189,127,165,268,161,272,344,126,230,142,74,153,0,,,,
1,1779303665616,-1148,-325,10098,301767,-195476,53756,0,0,0,566,492,367,586,440,478,548,252,371,544,395,549,0,,,,
2,1779303665616,-459,2727,18473,-6835582,703716,1734857,0,0,0,188,124,163,272,163,274,345,127,229,139,71,153,0,,,,
1,1779303665632,-1296,-358,10265,361632,-149051,85521,0,0,0,587,506,314,601,465,476,532,227,364,529,361,561,0,,,,
2,1779303665632,502,2124,21818,-7112914,460592,1689653,0,0,0,187,125,163,273,164,276,346,133,228,136,68,150,0,,,,
1,1779303665648,-1459,-392,10605,476474,0,140499,0,0,0,614,525,298,603,463,469,515,215,373,506,328,577,0,,,,
2,1779303665648,1445,153,25905,-7253413,333532,1835039,0,0,0,187,126,167,271,162,276,346,128,230,136,65,151,0,,,,
1,1779303665664,-1435,-464,10887,635299,272445,211359,0,0,0,618,540,251,613,481,476,493,189,366,485,285,586,0,,,,
2,1779303665664,2555,-3776,29849,-7271739,311541,2134363,0,0,0,190,119,168,274,155,276,346,113,229,136,56,150,0,,,,
1,1779303665680,-1464,-555,10988,790459,483805,282219,0,0,0,623,554,194,620,500,503,465,182,382,460,263,595,0,,,,
2,1779303665680,3484,-11524,32423,-7144679,439822,2329840,0,0,0,191,116,168,271,149,272,348,113,229,137,59,148,0,,,,
1,1779303665696,-1196,-650,11485,970053,458148,373849,0,0,0,631,572,167,629,517,485,466,243,365,444,259,604,0,,,,
2,1779303665696,3029,-21426,32806,-6707300,444709,2178345,0,0,0,190,116,167,277,155,279,354,114,233,137,57,147,0,,,,
1,1779303665712,-363,-703,12366,1323134,276111,382401,0,0,0,638,580,144,634,522,475,422,221,350,426,244,605,0,,,,
2,1779303665712,1813,-33572,29423,-5823989,-185703,1651779,0,0,0,191,116,168,271,149,279,356,118,233,141,65,151,0,,,,
1,1779303665728,134,-741,12835,1877799,42760,252898,0,0,0,639,587,118,630,527,460,379,193,342,404,229,604,0,,,,
2,1779303665728,2727,-44780,20186,-4332256,-1120326,889419,0,0,0,198,114,168,273,143,273,357,119,231,142,60,147,0,,,,
1,1779303665744,-555,-871,13046,2472782,-101403,116064,0,0,0,636,601,122,624,532,464,352,197,350,378,215,609,0,,,,
2,1779303665744,3153,-50681,11036,-2037846,-1114218,290771,0,0,0,204,120,166,279,158,264,375,170,215,185,137,144,0,,,,
1,1779303665760,-1325,-1024,13414,3014009,-153938,124616,0,0,0,632,612,143,616,536,485,322,196,370,348,193,609,0,,,,
2,1779303665760,1229,-46049,9935,697608,-73303,483805,0,0,0,168,100,130,238,143,234,381,336,195,253,275,140,0,,,,
1,1779303665776,-1904,-1153,13988,3600439,-112399,261450,0,0,0,631,609,144,599,535,479,300,194,383,316,165,593,0,,,,
2,1779303665776,1043,-20823,16109,3739716,1119105,1160643,0,0,0,153,93,96,247,142,233,400,417,192,295,348,130,0,,,,
1,1779303665792,-3048,-1373,14888,4321260,-21991,518013,0,0,0,630,603,147,586,525,468,281,196,398,291,147,579,0,,,,
2,1779303665792,38,5900,14151,6202725,1348790,1226617,0,0,0,151,87,96,273,136,272,437,446,221,316,385,129,0,,,,
1,1779303665808,-4910,-1737,16209,5204571,118507,981049,0,0,0,611,596,141,592,530,463,265,202,400,273,158,547,0,,,,
2,1779303665808,-981,6015,14922,7149566,767246,481361,0,0,0,167,85,128,294,124,306,464,464,263,358,387,130,0,,,,
1,1779303665824,-7140,-2167,17473,6350555,329867,1679879,0,0,0,578,575,115,585,516,457,271,188,383,263,148,457,0,,,,
2,1779303665824,-162,-1708,20789,6627887,360410,-54977,0,0,0,198,101,161,320,138,356,477,477,295,400,373,145,0,,,,
1,1779303665840,-9423,-4134,20349,7788531,379958,2576629,0,0,0,459,517,119,536,461,418,274,191,357,246,150,394,0,,,,
2,1779303665840,741,-4556,22847,4266282,288328,-224798,0,0,0,223,122,180,342,168,408,484,484,314,415,362,177,0,,,,
1,1779303665856,-10361,-7465,27882,8611978,-520457,3226590,0,0,0,400,469,99,479,424,370,290,204,315,231,151,335,0,,,,
2,1779303665856,832,-1832,15070,1209513,53756,-112399,0,0,0,240,141,190,357,191,424,486,485,321,421,358,200,0,,,,
1,1779303665872,-8432,-6039,32658,8708494,-1291369,3765373,0,0,0,324,421,95,390,416,309,318,212,274,223,161,264,0,,,,
2,1779303665872,626,47,9432,-240680,-122173,20769,0,0,0,270,175,200,375,212,432,487,487,324,432,364,212,0,,,,
1,1779303665888,-6164,684,29624,8464148,-762359,4444655,0,0,0,236,313,157,337,313,298,345,212,261,223,185,197,0,,,,
2,1779303665888,435,344,8820,-140499,-125838,68416,0,0,0,289,195,207,383,222,431,490,491,324,437,366,248,0,,,,
1,1779303665904,-10806,7743,21430,8271115,416610,5143485,0,0,0,226,282,179,315,286,298,354,209,250,229,191,194,0,,,,
2,1779303665904,459,90,10270,168598,-73303,24434,0,0,0,305,218,206,394,248,446,490,489,327,443,359,280,0,,,,
1,1779303665920,-14903,15247,13658,6630331,414166,6084217,0,0,0,234,272,183,300,275,284,359,210,240,233,187,194,0,,,,
2,1779303665920,497,177,10418,153938,-83077,2443,0,0,0,316,236,218,389,264,454,493,479,332,452,358,317,0,,,,
1,1779303665936,-11926,18559,10691,2006081,-1014036,6581462,0,0,0,237,266,183,292,264,276,363,211,238,232,184,194,0,,,,
2,1779303665936,449,272,10035,107512,-114842,2443,0,0,0,331,264,218,393,289,444,485,457,321,445,332,326,0,,,,
1,1779303665952,-5302,16597,10720,-2833192,-1888795,5814215,0,0,0,242,255,184,289,257,276,365,211,240,236,186,198,0,,,,
2,1779303665952,382,268,9959,140499,-116064,1221,0,0,0,348,264,221,404,298,450,485,407,325,433,321,334,0,,,,
1,1779303665968,0,10145,10275,-5671272,-1183856,3529579,0,0,0,257,244,185,292,253,279,368,211,242,243,188,202,0,,,,
2,1779303665968,363,210,10093,195476,-85521,0,0,0,0,358,285,222,419,323,449,482,386,331,428,303,346,0,,,,
1,1779303665984,-2081,5699,7183,-5506339,-101403,785572,0,0,0,271,238,183,298,252,281,369,208,241,251,185,205,0,,,,
2,1779303665984,344,177,10088,206472,-63529,3665,0,0,0,373,300,235,424,326,463,476,370,332,405,276,356,0,,,,
1,1779303666000,-5297,4618,5824,-5126381,-516791,-1180191,0,0,0,274,237,182,300,253,284,368,208,244,250,185,205,0,,,,
2,1779303666000,344,162,10031,205250,-53756,10995,0,0,0,384,328,238,429,345,465,471,347,335,386,254,369,0,,,,
1,1779303666016,-5719,4781,7508,-5376835,-2043955,-2516764,0,0,0,276,239,183,300,254,288,370,210,249,244,188,206,0,,,,
2,1779303666016,382,143,10007,205250,-48869,9773,0,0,0,405,337,247,437,345,468,468,324,336,376,244,378,0,,,,
1,1779303666032,-4034,4082,10198,-5885075,-2871066,-3178942,0,0,0,270,243,184,301,257,291,370,212,251,242,191,205,0,,,,
2,1779303666032,416,110,10016,204028,-51312,1221,0,0,0,424,337,250,446,350,474,465,305,338,372,229,386,0,,,,
1,1779303666048,-3469,2962,11969,-6153856,-3109304,-3310889,0,0,0,255,259,182,300,262,294,369,213,256,238,193,204,0,,,,
2,1779303666048,397,71,10021,194255,-59864,-6108,0,0,0,432,344,246,448,365,481,466,295,343,357,212,403,0,,,,
1,1779303666064,-3168,2182,13007,-6188064,-3375641,-2802649,0,0,0,252,263,181,304,265,296,367,213,259,237,192,204,0,,,,
2,1779303666064,349,52,10026,186924,-54977,-7330,0,0,0,438,355,244,447,380,484,467,286,344,342,201,414,0,,,,
1,1779303666080,-1622,1665,14524,-6219829,-3737273,-2228436,0,0,0,252,267,181,308,264,296,371,216,266,236,192,205,0,,,,
2,1779303666080,335,38,10035,193033,-42760,-7330,0,0,0,447,364,241,454,394,481,465,268,340,337,190,414,0,,,,
1,1779303666096,732,1435,16759,-6250373,-3769038,-1832595,0,0,0,251,265,181,308,264,296,372,218,266,238,190,203,0,,,,
2,1779303666096,363,33,10059,212581,-28099,-6108,0,0,0,457,378,239,460,404,488,463,245,343,320,177,426,0,,,,
1,1779303666112,1895,1445,19143,-6310237,-3495370,-1756848,0,0,0,249,264,181,309,264,298,373,215,267,235,186,200,0,,,,
2,1779303666112,402,14,10083,246789,-8552,-9773,0,0,0,464,403,248,465,411,488,461,223,344,310,170,429,0,,,,
1,1779303666128,1340,1407,21866,-6433632,-3287676,-1979203,0,0,0,249,265,181,314,266,303,370,214,265,232,182,201,0,,,,
2,1779303666128,445,-14,10136,294437,25656,-18325,0,0,0,479,397,253,467,412,493,466,180,343,295,143,437,0,,,,
1,1779303666144,425,129,24972,-6532592,-3450166,-2249205,0,0,0,250,268,182,315,269,303,374,217,267,229,182,202,0,,,,
2,1779303666144,536,-76,10289,362853,74525,-42760,0,0,0,484,419,259,472,423,498,456,156,346,294,134,443,0,,,,
1,1779303666160,124,-2316,28231,-6588792,-3545461,-2398256,0,0,0,255,270,180,323,267,302,380,217,270,231,179,200,0,,,,
2,1779303666160,631,-129,10667,505796,54977,-75747,0,0,0,487,436,239,471,429,505,406,238,361,275,125,462,0,,,,
1,1779303666176,-550,-6590,31294,-6719517,-3191160,-2423913,0,0,0,255,269,176,330,267,305,380,214,271,233,180,202,0,,,,
2,1779303666176,732,-191,11112,735481,-24434,-113620,0,0,0,489,439,234,478,456,505,409,133,355,268,120,467,0,,,,
1,1779303666192,-1689,-14003,31375,-6811147,-2649933,-2360383,0,0,0,253,269,172,334,270,307,379,214,273,234,184,202,0,,,,
2,1779303666192,717,-210,11773,1028697,-160046,-139277,0,0,0,497,456,232,476,449,505,387,129,347,257,119,464,0,,,,
1,1779303666208,181,-24096,27140,-6335894,-2599842,-2263866,0,0,0,252,272,168,339,276,310,380,216,276,237,189,202,0,,,,
2,1779303666208,291,-81,12739,1406211,-224798,-133168,0,0,0,498,478,223,477,455,514,368,130,342,249,121,466,0,,,,
1,1779303666224,9528,-37721,19880,-4715879,-2607172,-2601064,0,0,0,252,272,167,342,280,312,378,216,274,237,191,201,0,,,,
2,1779303666224,143,-76,13271,1836260,-175929,-103847,0,0,0,501,480,216,475,461,522,325,136,343,237,119,473,0,,,,
1,1779303666240,18568,-51763,12682,-2447126,-1524719,-3378084,0,0,0,243,256,158,325,272,300,377,241,266,274,265,185,0,,,,
2,1779303666240,569,-320,13381,2355496,-98960,-100181,0,0,0,502,483,220,472,472,516,276,134,344,230,120,467,0,,,,
1,1779303666256,17903,-53883,10581,525344,351858,-3900985,0,0,0,210,207,118,293,237,272,399,344,253,364,416,148,0,,,,
2,1779303666256,1282,-512,14127,3020117,-59864,-211359,0,0,0,504,481,227,463,466,505,232,130,339,221,116,462,0,,,,
1,1779303666272,2177,-27853,16549,4092797,1398881,-2191784,0,0,0,171,149,64,276,186,255,455,516,253,458,512,113,0,,,,
2,1779303666272,2144,-569,15640,3858224,-52534,-433714,0,0,0,499,475,223,452,457,499,202,126,340,215,113,453,0,,,,
1,1779303666288,-4350,186,15573,6568023,2458121,729373,0,0,0,191,129,78,286,148,283,507,568,277,536,572,121,0,,,,
2,1779303666288,3163,-617,17501,4978551,-155159,-779464,0,0,0,482,461,202,448,459,492,191,124,344,206,112,423,0,,,,
1,1779303666304,-2948,3661,16994,7437895,3170390,2131919,0,0,0,221,98,111,298,84,307,563,588,285,595,609,134,0,,,,
2,1779303666304,4594,-794,19066,6235712,-469144,-1185078,0,0,0,449,424,177,440,446,479,194,123,341,190,103,368,0,,,,
1,1779303666320,-1952,-2919,24283,7143458,2416582,1568701,0,0,0,293,124,215,373,100,350,607,603,295,629,629,173,0,,,,
2,1779303666320,6077,-1512,21957,7585724,-891863,-1628566,0,0,0,400,374,161,409,403,455,197,119,324,174,90,314,0,,,,
1,1779303666336,-1397,-4967,23335,4133114,1125213,357967,0,0,0,325,160,331,413,170,378,602,577,302,636,636,227,0,,,,
2,1779303666336,7824,-4096,31811,8934514,-328645,-2036624,0,0,0,342,311,151,363,353,405,222,122,287,152,82,258,0,,,,
1,1779303666352,-670,-2005,14922,1186300,485026,-76969,0,0,0,350,186,349,421,183,386,646,574,356,651,651,254,0,,,,
2,1779303666352,5939,-3584,39482,9812939,783129,-2520429,0,0,0,269,224,151,321,282,354,278,133,262,126,74,183,0,,,,
1,1779303666368,-191,392,8858,-118507,157603,-50090,0,0,0,366,196,348,426,209,386,672,571,376,663,663,277,0,,,,
2,1779303666368,6159,2919,36003,9821491,438601,-3066543,0,0,0,180,133,156,261,177,269,329,158,237,135,108,139,0,,,,
1,1779303666384,-387,162,9059,89186,-25656,42760,0,0,0,357,221,355,427,246,391,674,566,374,662,662,297,0,,,,
2,1779303666384,13036,11926,23345,9077457,-174707,-3747047,0,0,0,195,129,163,270,170,270,335,138,228,140,89,158,0,,,,
1,1779303666400,-622,-339,10591,294437,-103847,15882,0,0,0,350,278,370,446,247,393,675,562,387,661,655,311,0,,,,
2,1779303666400,15855,20325,8236,6728069,1233947,-4560719,0,0,0,192,137,156,264,178,265,328,138,224,151,105,164,0,,,,
1,1779303666416,-679,-90,10423,182037,-122173,-14660,0,0,0,351,312,369,465,255,393,678,549,394,656,643,318,0,,,,
2,1779303666416,5867,22263,6188,1255938,3038443,-4107457,0,0,0,192,140,157,269,181,269,332,143,225,144,92,160,0,,,,
1,1779303666432,-612,162,9935,101403,-103847,-12217,0,0,0,356,323,365,473,272,396,677,527,389,645,616,328,0,,,,
2,1779303666432,-2689,16855,10232,-3208264,2102598,-2152689,0,0,0,194,143,161,266,179,268,331,143,223,144,95,162,0,,,,
1,1779303666448,-569,162,9959,131946,-107512,-2443,0,0,0,352,335,384,482,293,410,667,499,383,632,579,348,0,,,,
2,1779303666448,-2660,9313,10208,-4756196,-673173,98960,0,0,0,193,142,159,268,181,267,335,143,223,148,99,164,0,,,,
1,1779303666464,-583,81,10155,189368,-142942,-2443,0,0,0,357,357,379,492,309,418,667,474,384,621,541,363,0,,,,
2,1779303666464,3493,5991,5340,-4420220,-1855808,1243721,0,0,0,194,144,159,271,184,267,336,145,226,146,99,162,0,,,,
1,1779303666480,-650,47,10131,179594,-172263,-2443,0,0,0,372,374,367,501,315,417,671,445,390,607,515,374,0,,,,
2,1779303666480,6350,5455,3402,-4411668,-828333,1491732,0,0,0,192,150,158,270,186,266,336,146,227,145,100,159,0,,,,
1,1779303666496,-717,14,10011,150272,-174707,4886,0,0,0,386,383,390,514,324,427,666,418,405,593,503,393,0,,,,
2,1779303666496,4178,5384,5307,-4831944,1060462,1490511,0,0,0,191,151,157,270,186,266,337,147,227,147,101,156,0,,,,
1,1779303666512,-722,-9,9944,144164,-142942,26878,0,0,0,404,406,410,532,342,443,661,397,408,589,486,411,0,,,,
2,1779303666512,253,4962,8121,-5141041,1781283,1770287,0,0,0,189,149,156,270,184,265,338,148,227,148,102,155,0,,,,
1,1779303666528,-679,-28,9968,161268,-108734,45204,0,0,0,421,435,399,552,361,447,659,371,388,579,463,426,0,,,,
2,1779303666528,-1148,4647,9523,-5351179,1660331,2101376,0,0,0,188,148,157,270,186,266,338,147,226,148,103,155,0,,,,
1,1779303666544,-641,-47,10002,175929,-92851,48869,0,0,0,424,441,372,572,383,466,665,358,414,561,449,453,0,,,,
2,1779303666544,-856,4422,10533,-5650503,1578475,2263866,0,0,0,187,150,159,272,189,270,338,145,226,149,103,156,0,,,,
1,1779303666560,-641,-67,10011,164933,-81855,46425,0,0,0,443,442,400,564,378,481,655,319,418,584,414,479,0,,,,
2,1779303666560,-1244,4206,12175,-5941275,1765400,2262644,0,0,0,186,150,159,274,190,273,341,148,229,145,100,156,0,,,,
1,1779303666576,-641,-71,10045,156381,-81855,45204,0,0,0,470,468,395,580,384,476,655,308,412,556,391,498,0,,,,
2,1779303666576,-2364,3776,14405,-6194173,1872912,2224771,0,0,0,188,149,162,275,191,274,342,149,231,141,94,154,0,,,,
1,1779303666592,-665,-95,10050,157603,-94073,48869,0,0,0,488,482,426,578,417,481,648,260,432,536,343,516,0,,,,
2,1779303666592,-2699,3029,16668,-6429967,1591914,2197893,0,0,0,184,149,162,278,193,276,338,147,230,141,94,154,0,,,,
1,1779303666608,-717,-138,10059,162490,-102625,58643,0,0,0,509,487,428,598,429,483,640,240,429,525,320,525,0,,,,
2,1779303666608,-2010,2507,18789,-6609561,1232726,2152689,0,0,0,181,149,161,273,190,275,344,150,233,136,89,154,0,,,,
1,1779303666624,-760,-167,10107,179594,-97738,70860,0,0,0,540,505,431,603,430,483,644,222,431,505,298,534,0,,,,
2,1779303666624,-871,2225,21737,-6750060,861319,2151467,0,0,0,180,149,164,270,186,276,342,149,232,133,88,154,0,,,,
1,1779303666640,-837,-181,10270,227241,-67195,95294,0,0,0,558,518,404,608,433,498,634,199,422,493,274,546,0,,,,
2,1779303666640,703,1421,25805,-6840468,420275,2366491,0,0,0,181,148,167,271,187,277,342,142,231,133,84,154,0,,,,
1,1779303666656,-938,-196,10600,316428,-3665,140499,0,0,0,578,529,374,624,447,493,627,178,409,489,258,550,0,,,,
2,1779303666656,3268,-693,29681,-6968750,75747,2711019,0,0,0,185,141,167,274,179,278,346,128,232,136,70,154,0,,,,
1,1779303666672,-832,-224,11213,546113,107512,193033,0,0,0,604,547,296,634,501,478,573,177,382,480,251,550,0,,,,
2,1779303666672,6925,-7284,32538,-7122688,20769,2938261,0,0,0,186,142,166,278,177,282,350,126,233,139,72,155,0,,,,
1,1779303666688,-612,-272,11677,905302,180816,213802,0,0,0,622,559,206,639,543,471,505,184,361,464,246,560,0,,,,
2,1779303666688,8714,-17463,32170,-6993185,200363,2651155,0,0,0,185,142,165,282,177,283,355,128,237,144,73,158,0,,,,
1,1779303666704,-416,-382,11931,1318247,142942,197920,0,0,0,632,562,150,641,540,466,464,186,360,458,240,573,0,,,,
2,1779303666704,7150,-31337,27427,-6238155,420275,1795943,0,0,0,189,144,165,285,177,283,359,128,237,148,75,159,0,,,,
1,1779303666720,-335,-502,12261,1689653,-42760,163711,0,0,0,632,565,115,649,533,479,433,188,368,444,230,594,0,,,,
2,1779303666720,2522,-43570,18884,-4433659,401949,1000597,0,0,0,189,145,167,282,176,283,361,129,239,147,76,158,0,,,,
1,1779303666736,-550,-626,12792,2107485,-228463,136833,0,0,0,623,564,100,658,539,497,406,192,372,403,213,624,0,,,,
2,1779303666736,-1033,-49930,12275,-2229658,293215,740368,0,0,0,188,134,164,278,164,278,365,130,233,166,88,159,0,,,,
1,1779303666752,-1052,-708,13539,2654820,-233350,164933,0,0,0,624,574,103,642,536,474,367,198,355,373,194,621,0,,,,
2,1779303666752,-2665,-48020,10169,581543,211359,1023810,0,0,0,172,116,145,262,156,266,370,241,218,217,186,156,0,,,,
1,1779303666768,-1646,-784,14300,3316998,-124616,261450,0,0,0,631,591,126,624,528,464,334,199,359,340,166,617,0,,,,
2,1779303666768,14,-27370,17473,3128851,349414,1398881,0,0,0,158,103,108,268,156,260,397,379,205,278,314,141,0,,,,
1,1779303666784,-2555,-827,15190,4064697,-14660,470366,0,0,0,633,593,117,601,534,471,300,193,367,306,152,600,0,,,,
2,1779303666784,2297,3484,17243,5630955,693942,1369559,0,0,0,157,90,88,299,153,280,441,432,221,326,385,129,0,,,,
1,1779303666800,-4259,-966,16625,5142263,18325,961501,0,0,0,616,585,121,594,531,458,281,195,374,277,130,561,0,,,,
2,1779303666800,320,11289,13438,7335269,796568,933402,0,0,0,167,78,114,311,136,314,462,461,264,374,416,133,0,,,,
1,1779303666816,-5829,-1115,17889,6327342,42760,1587027,0,0,0,608,559,80,587,524,402,284,196,343,282,147,455,0,,,,
2,1779303666816,-603,205,22120,7706675,405614,249233,0,0,0,212,89,160,321,118,339,469,463,288,424,405,140,0,,,,
1,1779303666832,-7183,-1651,19650,7715227,157603,2293188,0,0,0,488,530,99,557,479,414,283,200,350,256,163,398,0,,,,
2,1779303666832,320,-5470,26499,5649281,-458148,-316428,0,0,0,254,121,198,320,132,378,480,479,297,426,392,161,0,,,,
1,1779303666848,-8724,-5116,27628,8976053,43982,2857627,0,0,0,411,475,90,488,427,360,302,203,309,239,154,325,0,,,,
2,1779303666848,928,-2402,16750,2031737,-609643,-218689,0,0,0,299,151,216,331,178,406,484,473,316,438,389,205,0,,,,
1,1779303666864,-8159,-7269,36070,9429315,-289550,3255911,0,0,0,328,415,82,433,372,335,337,204,279,224,160,259,0,,,,
2,1779303666864,813,86,9389,-101403,-290771,3665,0,0,0,326,165,230,342,183,420,494,468,323,451,394,255,0,,,,
1,1779303666880,-7781,-3000,35156,9325468,-1221,3720169,0,0,0,240,305,133,341,301,295,353,210,251,222,179,200,0,,,,
2,1779303666880,497,612,8442,-249233,37873,98960,0,0,0,336,180,224,363,198,422,494,471,323,449,388,273,0,,,,
1,1779303666896,-11701,6264,24445,8925962,724486,4482529,0,0,0,228,274,163,315,278,284,361,208,243,222,186,193,0,,,,
2,1779303666896,536,263,10179,138055,9773,29321,0,0,0,339,212,230,357,213,428,498,466,324,454,377,282,0,,,,
1,1779303666912,-14137,14189,15065,7481877,830776,5479461,0,0,0,231,270,168,303,270,276,363,206,237,226,186,202,0,,,,
2,1779303666912,612,268,10538,188146,-53756,-8552,0,0,0,345,219,232,371,229,429,499,450,320,456,363,283,0,,,,
1,1779303666928,-12366,17013,10418,3247359,-270002,6445850,0,0,0,232,271,169,291,264,267,362,206,233,227,183,206,0,,,,
2,1779303666928,588,473,9964,81855,-50090,-4886,0,0,0,339,233,232,373,242,428,501,441,322,441,348,294,0,,,,
1,1779303666944,-6666,15199,9791,-1864360,-1688431,6213721,0,0,0,236,274,172,288,262,265,362,206,235,228,184,209,0,,,,
2,1779303666944,531,473,9920,123394,-10995,-2443,0,0,0,337,239,227,385,250,433,492,419,328,421,324,303,0,,,,
1,1779303666960,-1062,9681,8710,-4399451,-1470963,4184426,0,0,0,239,272,176,290,260,268,367,207,237,232,187,213,0,,,,
2,1779303666960,536,411,10069,197920,8552,-3665,0,0,0,337,247,229,388,258,435,489,401,332,405,293,311,0,,,,
1,1779303666976,-33,4728,5824,-4860043,-284663,1362229,0,0,0,243,269,177,291,260,273,372,206,236,230,187,214,0,,,,
2,1779303666976,574,363,10098,237015,4886,-4886,0,0,0,336,260,233,394,272,436,485,389,334,403,277,320,0,,,,
1,1779303666992,-4221,2933,3713,-4139222,158824,-1082453,0,0,0,248,270,178,294,260,276,371,206,238,229,188,213,0,,,,
2,1779303666992,617,335,10007,221133,-6108,-3665,0,0,0,338,273,233,398,290,442,478,373,337,398,273,332,0,,,,
1,1779303667008,-6097,3096,4958,-4096462,-1252273,-2552194,0,0,0,251,271,180,297,262,281,372,209,240,227,188,213,0,,,,
2,1779303667008,655,301,9959,190589,-24434,-12217,0,0,0,349,288,232,399,305,449,474,353,343,387,263,346,0,,,,
1,1779303667024,-4675,3484,7341,-4447098,-2430021,-3428175,0,0,0,254,275,182,300,262,284,371,213,240,228,190,214,0,,,,
2,1779303667024,612,263,9978,166155,-45204,-25656,0,0,0,368,301,234,405,316,452,472,337,345,380,251,354,0,,,,
1,1779303667040,-3259,3632,9700,-4993212,-2630385,-3936415,0,0,0,255,276,182,298,259,284,371,206,238,228,185,213,0,,,,
2,1779303667040,521,234,10002,147829,-57421,-31764,0,0,0,385,315,237,405,332,454,469,325,344,370,243,359,0,,,,
1,1779303667056,-3311,3316,11347,-5571090,-2533869,-4007275,0,0,0,254,276,179,300,260,286,371,206,239,229,188,217,0,,,,
2,1779303667056,483,234,10016,135612,-54977,-25656,0,0,0,393,341,237,410,348,455,469,310,343,363,236,370,0,,,,
1,1779303667072,-3441,2407,12605,-6131865,-2678033,-3649308,0,0,0,250,272,178,301,261,287,372,206,242,228,184,217,0,,,,
2,1779303667072,502,234,10031,134390,-43982,-15882,0,0,0,411,341,232,421,359,459,470,297,344,358,226,387,0,,,,
1,1779303667088,-2593,928,14137,-6608340,-2967583,-3062878,0,0,0,252,272,180,301,262,287,373,208,247,225,181,217,0,,,,
2,1779303667088,540,220,10035,145385,-34208,-12217,0,0,0,434,347,229,433,378,460,476,288,347,350,207,395,0,,,,
1,1779303667104,-1493,-536,15888,-6852686,-3108082,-2488664,0,0,0,252,273,181,303,263,290,374,208,249,225,180,215,0,,,,
2,1779303667104,598,196,10045,166155,-30543,-15882,0,0,0,444,349,240,440,368,472,478,266,350,334,183,415,0,,,,
1,1779303667120,-775,-1517,18128,-6763499,-3087312,-2078163,0,0,0,253,273,182,305,263,292,375,208,251,222,179,213,0,,,,
2,1779303667120,612,162,10050,184481,-21991,-28099,0,0,0,465,364,240,448,377,481,488,237,346,326,170,430,0,,,,
1,1779303667136,-646,-2273,20990,-6632774,-3161838,-1826487,0,0,0,253,276,181,308,265,294,376,209,254,219,177,213,0,,,,
2,1779303667136,612,134,10088,204028,-8552,-45204,0,0,0,472,384,234,448,392,498,485,214,357,308,155,442,0,,,,
1,1779303667152,-545,-3287,24623,-6674313,-3389080,-1786169,0,0,0,254,281,181,315,266,293,379,210,256,219,174,212,0,,,,
2,1779303667152,650,114,10160,230907,6108,-59864,0,0,0,482,399,236,455,398,501,485,182,357,295,135,467,0,,,,
1,1779303667168,-95,-5757,28566,-7068932,-3266907,-2028072,0,0,0,256,284,178,321,265,290,380,209,256,221,172,210,0,,,,
2,1779303667168,794,86,10366,300545,52534,-96516,0,0,0,487,419,237,468,433,516,478,153,355,280,122,477,0,,,,
1,1779303667184,-952,-10691,30911,-7440338,-2690250,-2345722,0,0,0,254,286,173,322,266,293,383,206,258,221,174,209,0,,,,
2,1779303667184,899,47,10863,511905,169820,-157603,0,0,0,492,425,232,467,441,511,462,134,350,271,128,487,0,,,,
1,1779303667200,-2182,-18367,29691,-7226535,-2206445,-2360383,0,0,0,251,287,170,328,271,300,388,207,265,221,174,209,0,,,,
2,1779303667200,885,4,11524,948062,285884,-207694,0,0,0,497,430,211,471,465,511,433,132,348,262,130,489,0,,,,
1,1779303667216,1234,-28528,25197,-6290690,-2342057,-2157576,0,0,0,250,290,165,343,283,303,380,208,266,224,177,208,0,,,,
2,1779303667216,756,0,12280,1417207,295658,-222354,0,0,0,506,437,200,489,484,507,394,134,350,263,132,497,0,,,,
1,1779303667232,10480,-41985,17645,-4680449,-2371378,-2089159,0,0,0,243,279,147,341,293,294,387,227,260,248,225,195,0,,,,
2,1779303667232,531,19,12959,1865582,265115,-199142,0,0,0,512,444,200,490,487,510,341,134,355,260,135,501,0,,,,
1,1779303667248,16999,-55051,11931,-2094046,-982271,-2375044,0,0,0,215,210,106,313,249,265,410,302,242,339,388,151,0,,,,
2,1779303667248,622,-19,13510,2378709,317649,-164933,0,0,0,518,448,203,478,489,516,280,130,359,250,132,502,0,,,,
1,1779303667264,12175,-49097,14481,2041511,1015258,-2108706,0,0,0,163,162,57,275,218,243,444,504,241,424,490,120,0,,,,
2,1779303667264,1162,-57,14611,2992017,390953,-175929,0,0,0,520,446,207,468,485,510,227,122,364,243,129,502,0,,,,
1,1779303667280,3024,-14850,14601,6349333,3378084,-379958,0,0,0,167,130,61,298,181,279,482,535,270,494,533,114,0,,,,
2,1779303667280,2498,-86,16511,3909537,375071,-327423,0,0,0,505,439,208,453,480,510,225,156,369,222,124,478,0,,,,
1,1779303667296,-387,4393,16085,8069529,4039040,880867,0,0,0,207,110,87,309,114,306,552,560,285,568,570,132,0,,,,
2,1779303667296,4067,-172,18186,5186245,138055,-723264,0,0,0,485,419,210,450,469,508,267,214,369,197,103,441,0,,,,
1,1779303667312,-311,2124,22780,7596720,2151467,1136209,0,0,0,270,124,175,334,99,328,596,579,286,602,602,155,0,,,,
2,1779303667312,4881,-205,19554,6643770,-265115,-1199739,0,0,0,452,406,182,431,443,493,195,129,374,185,96,376,0,,,,
1,1779303667328,-1392,-4379,25470,5439144,684169,741590,0,0,0,313,140,236,381,132,355,610,552,303,609,609,198,0,,,,
2,1779303667328,4804,-1464,24642,7997447,-737925,-1475850,0,0,0,402,365,165,413,409,460,201,124,329,167,90,312,0,,,,
1,1779303667344,-2077,-4139,17607,1903456,420275,130725,0,0,0,344,169,291,413,183,385,616,528,331,624,624,282,0,,,,
2,1779303667344,6503,-3843,33840,9188634,-409279,-1555262,0,0,0,361,301,149,378,355,413,217,121,296,146,79,261,0,,,,
1,1779303667360,-961,-57,9011,-32986,518013,-207694,0,0,0,359,241,307,433,231,399,616,524,348,634,634,347,0,,,,
2,1779303667360,6680,-3589,39750,10333396,1038470,-1848478,0,0,0,270,231,142,341,293,373,268,126,269,116,63,176,0,,,,
1,1779303667376,-469,287,8777,-6108,218689,-101403,0,0,0,370,291,318,441,256,402,623,529,361,643,643,380,0,,,,
2,1779303667376,6752,2914,34079,10659598,1657888,-2552194,0,0,0,192,146,150,286,202,284,333,126,241,141,74,139,0,,,,
1,1779303667392,-732,-464,10533,213802,7330,21991,0,0,0,379,303,316,442,262,399,631,532,367,650,649,390,0,,,,
2,1779303667392,11500,11160,24977,9943664,2083050,-3411071,0,0,0,193,142,155,282,199,280,336,121,239,139,72,142,0,,,,
1,1779303667408,-933,-311,10466,108734,-18325,7330,0,0,0,385,311,303,445,269,395,633,529,363,653,650,392,0,,,,
2,1779303667408,10993,21167,11596,6924768,3495370,-4667010,0,0,0,206,142,154,295,196,278,345,116,232,137,65,144,0,,,,
1,1779303667424,-899,28,9940,9773,-18325,-21991,0,0,0,386,316,303,450,279,396,632,524,361,652,646,392,0,,,,
2,1779303667424,3426,25264,5384,1523497,4053701,-5000542,0,0,0,201,134,157,281,182,272,337,117,227,136,65,141,0,,,,
1,1779303667440,-780,95,9863,26878,-52534,-20769,0,0,0,385,319,299,454,286,397,633,520,364,650,638,394,0,,,,
2,1779303667440,-3321,19502,8561,-3376863,2588846,-3540574,0,0,0,194,132,158,272,177,269,331,114,222,136,64,142,0,,,,
1,1779303667456,-780,-4,10054,65973,-122173,-6108,0,0,0,383,323,288,454,285,397,630,513,357,645,628,392,0,,,,
2,1779303667456,-2646,10504,9404,-5303532,-15882,-1367116,0,0,0,196,134,159,272,176,266,334,116,222,137,64,141,0,,,,
1,1779303667472,-842,-28,10098,85521,-180816,-3665,0,0,0,382,328,287,455,287,399,624,500,349,636,612,387,0,,,,
2,1779303667472,1402,4852,6508,-5329188,-1755626,144164,0,0,0,198,137,160,271,176,266,338,121,224,136,67,141,0,,,,
1,1779303667488,-899,-9,9997,102625,-201585,-3665,0,0,0,379,332,285,455,296,404,619,490,350,627,593,385,0,,,,
2,1779303667488,3981,4072,3991,-4889365,-1481959,597426,0,0,0,195,137,158,271,179,268,337,123,226,136,68,142,0,,,,
1,1779303667504,-933,-28,9906,102625,-186924,0,0,0,0,383,332,292,457,294,405,612,484,345,619,581,388,0,,,,
2,1779303667504,3105,4240,4881,-4976108,-224798,913854,0,0,0,194,136,156,272,181,269,339,123,226,137,67,142,0,,,,
1,1779303667520,-947,-47,9887,81855,-142942,3665,0,0,0,383,337,293,457,302,405,616,479,349,617,575,390,0,,,,
2,1779303667520,1526,4158,6384,-5089729,753807,1372003,0,0,0,194,137,157,274,182,269,339,121,226,140,68,145,0,,,,
1,1779303667536,-938,-23,9906,70860,-97738,8552,0,0,0,390,368,303,462,329,407,615,466,353,621,560,404,0,,,,
2,1779303667536,129,3972,7815,-5231449,1205847,1899790,0,0,0,195,139,160,278,187,273,340,121,227,140,68,147,0,,,,
1,1779303667552,-933,-19,9920,79412,-58643,13439,0,0,0,403,397,303,468,351,405,610,446,352,616,534,416,0,,,,
2,1779303667552,-421,3665,9097,-5503895,1219287,2261423,0,0,0,193,142,164,276,183,274,339,121,228,138,69,149,0,,,,
1,1779303667568,-914,-33,9959,103847,-34208,18325,0,0,0,411,407,299,484,364,414,616,432,362,609,520,440,0,,,,
2,1779303667568,-827,3383,10653,-5767789,1282817,2417804,0,0,0,188,141,165,272,183,281,338,121,234,135,68,158,0,,,,
1,1779303667584,-899,-62,9973,131946,-25656,24434,0,0,0,432,427,299,495,377,423,615,401,371,597,501,471,0,,,,
2,1779303667584,-1311,3053,12849,-6040235,1328021,2438574,0,0,0,189,141,163,276,185,278,343,123,235,137,68,147,0,,,,
1,1779303667600,-933,-90,9978,152716,-21991,32986,0,0,0,466,446,311,520,388,431,616,367,375,589,474,496,0,,,,
2,1779303667600,-1344,2546,15185,-6316346,1160643,2388483,0,0,0,191,141,163,274,183,276,345,123,232,137,68,144,0,,,,
1,1779303667616,-961,-119,9997,172263,-14660,45204,0,0,0,502,464,329,546,407,440,616,334,379,578,442,535,0,,,,
2,1779303667616,-531,2024,17281,-6533814,822224,2285857,0,0,0,190,140,164,274,181,273,346,124,232,137,70,145,0,,,,
1,1779303667632,-966,-138,10064,195476,-13439,62308,0,0,0,538,486,349,560,423,451,610,286,381,561,395,562,0,,,,
2,1779303667632,1024,1560,20229,-6698748,497244,2180788,0,0,0,188,141,164,274,178,274,346,123,232,138,68,146,0,,,,
1,1779303667648,-1000,-138,10227,245567,-48869,84299,0,0,0,578,507,358,578,446,468,597,241,380,535,337,573,0,,,,
2,1779303667648,2660,847,24541,-6813590,248011,2188119,0,0,0,188,139,166,272,172,273,346,122,233,204,74,150,0,,,,
1,1779303667664,-1076,-153,10504,346971,-73303,117286,0,0,0,609,526,343,598,474,486,571,209,383,501,288,588,0,,,,
2,1779303667664,4737,-1067,29533,-6908885,-7330,2492330,0,0,0,189,139,166,271,171,271,349,126,234,167,71,146,0,,,,
1,1779303667680,-1119,-215,10902,571769,34208,177150,0,0,0,624,541,290,609,494,492,533,189,384,468,256,605,0,,,,
2,1779303667680,8882,-6714,32443,-7060380,-250454,2891836,0,0,0,190,138,165,274,169,274,352,125,234,134,67,142,0,,,,
1,1779303667696,-1009,-315,11409,861319,249233,228463,0,0,0,634,555,212,621,519,491,490,196,379,442,230,617,0,,,,
2,1779303667696,12395,-15989,31706,-7086036,-67195,2798984,0,0,0,191,137,164,280,172,281,353,121,237,136,66,144,0,,,,
1,1779303667712,-804,-430,12318,1301142,333532,256563,0,0,0,625,566,160,624,530,493,444,217,374,422,221,628,0,,,,
2,1779303667712,11055,-29169,27001,-6598566,764803,1872912,0,0,0,193,139,165,285,177,283,356,121,239,139,66,145,0,,,,
1,1779303667728,-559,-492,12854,1879021,158824,234572,0,0,0,616,581,135,632,543,486,400,194,388,390,208,634,0,,,,
2,1779303667728,2646,-39789,21177,-5115385,1144761,1009149,0,0,0,193,140,167,285,177,282,359,125,241,140,67,146,0,,,,
1,1779303667744,-593,-550,13141,2377487,-96516,199142,0,0,0,623,583,131,627,539,489,365,199,382,368,192,636,0,,,,
2,1779303667744,-4953,-47982,14414,-2574186,355523,788016,0,0,0,189,138,178,279,173,284,362,164,242,162,106,150,0,,,,
1,1779303667760,-990,-631,13414,2842966,-299323,200363,0,0,0,623,586,131,623,539,478,335,200,369,341,168,629,0,,,,
2,1779303667760,-3139,-47685,11098,-72082,-689055,1149648,0,0,0,178,131,176,268,173,280,356,254,234,220,210,147,0,,,,
1,1779303667776,-1502,-784,13926,3393967,-267558,296880,0,0,0,629,590,137,614,527,476,307,196,370,320,155,614,0,,,,
2,1779303667776,-1622,-30576,16946,2745228,-412944,1299921,0,0,0,161,118,117,270,180,262,346,338,215,276,308,131,0,,,,
1,1779303667792,-2292,-1057,14524,4021936,-109955,472809,0,0,0,627,613,139,606,541,469,291,190,380,312,155,600,0,,,,
2,1779303667792,-1440,-1148,15199,5577199,310319,1590693,0,0,0,173,119,114,297,175,276,391,399,216,308,357,123,0,,,,
1,1779303667808,-3479,-1340,15482,4831944,51312,823446,0,0,0,612,604,144,602,533,479,278,192,399,294,143,575,0,,,,
2,1779303667808,-1809,6594,12720,7057936,1415985,1656666,0,0,0,164,96,129,295,142,307,448,438,239,341,383,131,0,,,,
1,1779303667824,-4709,-1560,16530,5781228,240680,1274264,0,0,0,589,585,128,596,522,476,276,195,402,278,136,528,0,,,,
2,1779303667824,-1856,938,19167,7279070,1485624,1081231,0,0,0,212,93,169,312,110,331,450,417,287,395,360,135,0,,,,
1,1779303667840,-5833,-2359,18592,7159340,583987,1927890,0,0,0,519,541,117,571,495,450,275,192,389,263,141,450,0,,,,
2,1779303667840,-406,-4828,24981,5518556,-146607,-18325,0,0,0,253,127,193,321,162,376,468,458,297,390,367,156,0,,,,
1,1779303667856,-6537,-6049,24369,8085412,598647,2222327,0,0,0,436,487,102,520,447,388,280,195,344,246,149,369,0,,,,
2,1779303667856,1105,-2555,17401,2301740,-908967,-280998,0,0,0,306,187,206,343,212,389,469,450,304,403,368,184,0,,,,
1,1779303667872,-9499,-9562,32088,8816007,-387288,2489886,0,0,0,367,436,85,456,397,332,301,205,291,232,157,302,0,,,,
2,1779303667872,1105,-105,9973,37873,-478918,-45204,0,0,0,330,231,212,349,244,404,473,450,318,407,363,235,0,,,,
1,1779303667888,-10954,-4235,32888,9038362,-1582140,3249803,0,0,0,286,357,108,379,340,311,331,211,265,225,173,235,0,,,,
2,1779303667888,469,354,9078,-118507,-40317,98960,0,0,0,358,258,220,372,277,403,477,440,321,421,350,267,0,,,,
1,1779303667904,-10366,5053,27269,8877093,-907745,4498411,0,0,0,225,268,162,296,272,278,350,216,242,220,191,183,0,,,,
2,1779303667904,339,210,10059,155159,-26878,63529,0,0,0,382,294,231,373,304,415,479,429,318,422,343,287,0,,,,
1,1779303667920,-12577,12524,19238,8108625,139277,5674938,0,0,0,232,272,174,298,276,285,352,214,242,222,192,197,0,,,,
2,1779303667920,512,148,10547,282219,-175929,-10995,0,0,0,407,322,249,376,325,432,480,419,316,413,329,309,0,,,,
1,1779303667936,-13711,16501,11945,5068959,-651182,6772052,0,0,0,237,267,173,294,268,276,359,213,240,223,185,197,0,,,,
2,1779303667936,478,263,10126,197920,-151494,-9773,0,0,0,427,334,260,389,338,444,484,399,320,407,327,327,0,,,,
1,1779303667952,-8815,17803,10122,73303,-2313957,6906442,0,0,0,241,263,176,294,265,278,360,213,240,223,186,199,0,,,,
2,1779303667952,378,277,9964,182037,-87964,-4886,0,0,0,438,344,265,402,346,452,489,370,325,406,319,337,0,,,,
1,1779303667968,-555,14290,11753,-4450764,-2499660,5155702,0,0,0,243,240,179,292,259,278,362,211,240,225,187,204,0,,,,
2,1779303667968,306,220,10098,232128,-37873,-3665,0,0,0,444,358,272,412,357,458,487,343,328,397,294,350,0,,,,
1,1779303667984,741,8140,9935,-5784893,-478918,2062281,0,0,0,253,235,179,297,256,279,364,210,239,228,190,209,0,,,,
2,1779303667984,368,201,10155,263893,-8552,0,0,0,0,447,375,275,420,372,463,479,319,334,372,267,365,0,,,,
1,1779303668000,-3575,5125,6508,-5369505,514348,-260228,0,0,0,258,237,179,299,255,282,370,210,241,226,188,209,0,,,,
2,1779303668000,464,167,10117,276111,12217,0,0,0,0,450,390,270,425,384,464,472,295,336,352,234,375,0,,,,
1,1779303668016,-7461,4943,5221,-5029864,-536339,-1661553,0,0,0,257,237,179,298,252,286,372,210,242,227,188,210,0,,,,
2,1779303668016,492,100,10031,257785,19547,-9773,0,0,0,454,395,271,429,389,468,467,282,334,348,214,388,0,,,,
1,1779303668032,-5896,5082,7920,-5660277,-2249205,-2434908,0,0,0,256,237,180,300,253,290,371,212,247,227,189,205,0,,,,
2,1779303668032,445,52,10021,216246,3665,-17104,0,0,0,461,404,262,439,412,469,465,250,332,335,194,386,0,,,,
1,1779303668048,-4111,4163,10404,-6207612,-2715906,-2949257,0,0,0,256,238,179,304,257,293,368,211,249,227,190,200,0,,,,
2,1779303668048,421,38,10040,183259,-8552,-21991,0,0,0,463,413,250,439,414,468,464,242,336,319,181,392,0,,,,
1,1779303668064,-3929,3034,11696,-6415306,-2662150,-3125186,0,0,0,257,238,178,307,258,294,367,209,249,229,190,200,0,,,,
2,1779303668064,411,28,10064,167377,-13439,-23212,0,0,0,471,420,256,446,414,469,461,224,335,320,170,399,0,,,,
1,1779303668080,-4345,2187,12739,-6450736,-2791654,-2983465,0,0,0,259,238,179,309,260,296,368,207,251,230,188,200,0,,,,
2,1779303668080,411,14,10088,162490,-17104,-21991,0,0,0,467,426,257,450,421,477,458,207,349,304,159,413,0,,,,
1,1779303668096,-3484,1722,14749,-6561914,-3204599,-2783102,0,0,0,261,240,181,309,260,297,369,207,253,231,186,199,0,,,,
2,1779303668096,435,4,10102,169820,-15882,-23212,0,0,0,474,428,260,453,423,488,454,179,340,288,149,433,0,,,,
1,1779303668112,-2297,1186,17401,-6666983,-3445279,-2729345,0,0,0,261,243,183,313,262,297,369,209,255,230,186,199,0,,,,
2,1779303668112,473,0,10112,186924,1221,-30543,0,0,0,471,438,253,457,433,508,446,148,343,275,134,442,0,,,,
1,1779303668128,-2062,512,20349,-6680422,-3517362,-2814867,0,0,0,265,249,183,320,262,294,372,211,258,231,182,200,0,,,,
2,1779303668128,526,-23,10189,210137,35430,-45204,0,0,0,482,448,250,482,447,489,440,134,337,270,129,456,0,,,,
1,1779303668144,-2244,-784,23924,-6662096,-3825238,-2849075,0,0,0,262,263,184,324,269,300,374,214,262,227,175,202,0,,,,
2,1779303668144,756,-52,10586,276111,116064,-87964,0,0,0,493,447,234,480,461,497,434,134,339,261,126,466,0,,,,
1,1779303668160,-1344,-3134,28193,-6686530,-4030488,-2841745,0,0,0,262,250,185,322,259,296,374,214,262,225,173,205,0,,,,
2,1779303668160,737,-23,11270,520457,130725,-147829,0,0,0,494,447,229,477,467,511,426,136,343,257,123,465,0,,,,
1,1779303668176,-1411,-7303,31524,-6763499,-3462384,-2860071,0,0,0,262,250,182,326,264,296,379,212,262,225,176,203,0,,,,
2,1779303668176,674,-67,11462,855211,47647,-184481,0,0,0,499,456,217,483,471,515,407,140,343,251,121,465,0,,,,
1,1779303668192,-3531,-13390,32715,-6818477,-2687807,-2767219,0,0,0,258,265,173,329,264,298,378,208,263,225,172,197,0,,,,
2,1779303668192,579,-177,11457,1178969,-10995,-199142,0,0,0,507,466,209,492,475,519,383,143,344,242,120,472,0,,,,
1,1779303668208,-5503,-23426,30035,-6596122,-2323731,-2387261,0,0,0,253,266,161,341,269,306,385,212,270,226,173,195,0,,,,
2,1779303668208,358,-205,12041,1510058,68416,-186924,0,0,0,513,475,210,488,481,519,355,139,350,245,122,481,0,,,,
1,1779303668224,784,-36568,22660,-5393940,-3109304,-2015855,0,0,0,248,272,156,348,276,311,380,212,272,227,176,194,0,,,,
2,1779303668224,258,-244,12711,1929112,177150,-145385,0,0,0,515,484,214,473,485,516,316,133,352,256,126,481,0,,,,
1,1779303668240,12117,-50576,14874,-3407406,-3269350,-2150245,0,0,0,246,266,142,336,274,299,378,208,265,254,216,188,0,,,,
2,1779303668240,430,-378,13060,2436130,248011,-106290,0,0,0,521,483,223,470,485,517,270,129,355,247,125,475,0,,,,
1,1779303668256,20760,-57396,11150,-575435,-1743409,-2905275,0,0,0,202,201,95,295,246,263,409,338,251,318,374,150,0,,,,
2,1779303668256,880,-512,13716,3029891,348193,-120951,0,0,0,526,470,215,480,474,521,222,122,375,218,115,482,0,,,,
1,1779303668272,11935,-39693,16630,3199712,1016479,-3084869,0,0,0,168,153,63,289,211,254,448,470,250,395,481,124,0,,,,
2,1779303668272,1923,-617,15137,3771481,437379,-256563,0,0,0,511,449,212,482,483,512,197,128,369,210,110,473,0,,,,
1,1779303668288,1368,-8724,16826,6086661,3071430,-1692096,0,0,0,163,132,57,302,171,270,502,536,262,472,525,120,0,,,,
2,1779303668288,3579,-727,17286,4934569,300545,-621860,0,0,0,493,431,194,463,477,496,198,132,373,205,113,445,0,,,,
1,1779303668304,650,5010,13711,6971194,3882659,145385,0,0,0,199,112,86,310,116,292,567,578,270,548,571,125,0,,,,
2,1779303668304,5001,-1009,18856,6249151,-98960,-1078788,0,0,0,460,408,175,451,439,489,199,126,372,177,94,350,0,,,,
1,1779303668320,2005,397,21612,6790377,3141069,861319,0,0,0,260,117,167,331,94,320,605,597,270,602,602,146,0,,,,
2,1779303668320,5963,-2598,21320,7553959,-460592,-1512502,0,0,0,417,362,188,419,394,459,207,123,345,170,90,318,0,,,,
1,1779303668336,311,-5618,29006,5060407,1566258,640186,0,0,0,302,156,262,371,155,347,621,584,285,625,625,197,0,,,,
2,1779303668336,6489,-5728,32634,8758585,406836,-1783726,0,0,0,371,313,169,385,352,418,213,120,297,145,83,265,0,,,,
1,1779303668352,-1387,-2593,17358,1753183,697608,95294,0,0,0,332,220,326,408,238,366,632,562,305,650,650,269,0,,,,
2,1779303668352,4871,-4522,41201,9787282,1573588,-2047620,0,0,0,269,224,141,339,275,369,267,117,264,123,63,176,0,,,,
1,1779303668368,-684,291,8729,-21991,387288,-136833,0,0,0,334,318,351,423,289,376,628,558,322,656,654,307,0,,,,
2,1779303668368,5350,1550,38353,10053620,1668883,-2458121,0,0,0,203,138,153,283,180,292,317,123,246,134,67,148,0,,,,
1,1779303668384,-33,497,8284,-124616,193033,-63529,0,0,0,341,314,345,439,284,380,632,547,318,657,648,338,0,,,,
2,1779303668384,11433,11179,27604,9402437,1604132,-3386636,0,0,0,197,123,158,273,163,277,332,119,245,136,67,145,0,,,,
1,1779303668400,-277,-76,10519,180816,4886,14660,0,0,0,351,329,353,449,297,385,638,538,315,667,642,369,0,,,,
2,1779303668400,13170,20574,14386,7467216,2563190,-4593706,0,0,0,208,126,158,279,164,276,333,115,237,136,62,142,0,,,,
1,1779303668416,-559,105,10610,185703,-86742,3665,0,0,0,369,340,347,460,315,386,637,526,312,666,626,378,0,,,,
2,1779303668416,4982,24082,7705,2366491,3352428,-4840496,0,0,0,208,126,159,277,161,270,335,115,229,138,63,141,0,,,,
1,1779303668432,-540,354,9887,117286,-68416,-7330,0,0,0,372,362,357,471,336,392,636,514,318,653,602,385,0,,,,
2,1779303668432,-2507,19908,9193,-2580294,2387261,-3341432,0,0,0,204,126,159,273,163,267,335,116,226,137,62,141,0,,,,
1,1779303668448,-435,306,9853,127059,-64751,2443,0,0,0,379,380,356,470,362,389,634,496,323,645,578,393,0,,,,
2,1779303668448,-3187,11744,10457,-5139820,-155159,-866206,0,0,0,201,129,160,272,164,268,336,118,226,136,62,141,0,,,,
1,1779303668464,-416,220,10083,158824,-112399,12217,0,0,0,398,384,356,477,358,393,637,496,334,631,548,404,0,,,,
2,1779303668464,2014,7317,6575,-5199684,-1699427,551000,0,0,0,197,130,161,269,162,267,340,122,229,136,67,142,0,,,,
1,1779303668480,-469,205,10131,174707,-161268,13439,0,0,0,410,396,353,485,367,398,634,481,338,621,534,412,0,,,,
2,1779303668480,5101,5814,4178,-5240002,-1376890,919963,0,0,0,194,129,159,272,166,267,341,123,229,136,67,140,0,,,,
1,1779303668496,-531,186,10021,183259,-182037,15882,0,0,0,415,409,357,500,387,409,622,451,336,610,520,420,0,,,,
2,1779303668496,4268,4962,4962,-5597969,36651,888198,0,0,0,191,134,160,273,173,270,338,120,229,135,64,141,0,,,,
1,1779303668512,-531,153,9944,175929,-152716,24434,0,0,0,420,423,372,518,395,417,609,424,337,601,505,431,0,,,,
2,1779303668512,890,4130,7461,-5789780,1003040,1103222,0,0,0,190,136,164,272,174,274,339,121,236,133,66,147,0,,,,
1,1779303668528,-512,148,9959,168598,-123394,37873,0,0,0,433,443,376,523,396,417,608,403,342,594,493,445,0,,,,
2,1779303668528,-1172,3862,9188,-5804441,1203404,1530828,0,0,0,189,136,168,269,168,275,342,123,237,133,67,147,0,,,,
1,1779303668544,-497,129,9992,177150,-113620,45204,0,0,0,447,458,362,522,400,417,610,383,348,581,482,460,0,,,,
2,1779303668544,-1713,3991,10457,-5882632,1104444,2024407,0,0,0,183,138,167,271,173,280,342,126,241,132,70,147,0,,,,
1,1779303668560,-516,95,9992,183259,-102625,47647,0,0,0,462,474,357,532,412,423,604,367,355,566,463,476,0,,,,
2,1779303668560,-1938,4106,12222,-6156299,1154535,2394591,0,0,0,183,140,167,270,175,283,343,125,242,132,69,146,0,,,,
1,1779303668576,-526,76,10016,185703,-91629,53756,0,0,0,480,496,361,546,429,430,600,351,358,556,441,490,0,,,,
2,1779303668576,-2546,3718,14304,-6455623,1231504,2511877,0,0,0,183,140,167,270,172,281,345,129,243,130,69,144,0,,,,
1,1779303668592,-492,57,10031,201585,-97738,58643,0,0,0,494,501,356,560,429,437,599,325,356,549,435,509,0,,,,
2,1779303668592,-2895,2852,16774,-6723182,1071457,2368935,0,0,0,183,138,167,269,170,281,346,126,243,130,67,146,0,,,,
1,1779303668608,-512,14,10035,219911,-107512,63529,0,0,0,516,510,365,581,446,453,595,280,363,551,386,525,0,,,,
2,1779303668608,-2488,2297,19310,-6879564,824668,2134363,0,0,0,183,136,168,268,169,281,347,127,244,131,67,149,0,,,,
1,1779303668624,-612,-4,10078,240680,-103847,76969,0,0,0,532,526,409,578,462,476,595,252,387,526,349,534,0,,,,
2,1779303668624,-1895,1909,22991,-6976081,585208,1979203,0,0,0,181,134,168,268,169,282,348,127,245,130,64,148,0,,,,
1,1779303668640,-765,-4,10236,302989,-76969,111177,0,0,0,575,544,361,599,480,473,573,223,382,510,322,560,0,,,,
2,1779303668640,-626,-14,27470,-7104362,204028,2211332,0,0,0,180,133,167,269,168,281,349,127,243,128,63,145,0,,,,
1,1779303668656,-856,-23,10538,431270,-15882,167377,0,0,0,600,558,345,609,500,465,552,194,377,484,274,567,0,,,,
2,1779303668656,2172,-4297,31088,-7271739,-139277,2570520,0,0,0,181,134,168,265,165,278,352,126,241,129,64,143,0,,,,
1,1779303668672,-823,-86,10993,674395,118507,239459,0,0,0,615,561,312,627,504,478,524,184,380,469,252,603,0,,,,
2,1779303668672,5240,-12581,33151,-7332826,-207694,2748893,0,0,0,183,135,170,265,164,279,353,123,241,130,63,142,0,,,,
1,1779303668688,-751,-186,11509,950506,140499,300545,0,0,0,636,577,247,639,531,487,490,181,374,445,233,618,0,,,,
2,1779303668688,5824,-24958,31347,-6835582,-260228,2354274,0,0,0,186,135,168,272,164,281,356,121,241,131,63,142,0,,,,
1,1779303668704,-315,-287,12366,1352455,-50090,313984,0,0,0,641,584,181,639,537,483,453,173,361,430,223,629,0,,,,
2,1779303668704,4728,-38243,25436,-5700594,-469144,1706757,0,0,0,185,134,164,272,165,280,359,124,243,134,63,141,0,,,,
1,1779303668720,-172,-330,13046,1846034,-241902,266337,0,0,0,645,585,136,641,536,467,416,170,351,417,221,639,0,,,,
2,1779303668720,1813,-48083,16453,-3470936,-511905,1352455,0,0,0,184,133,166,273,165,279,359,125,242,136,66,144,0,,,,
1,1779303668736,-540,-397,13433,2360383,-276111,212581,0,0,0,641,598,136,634,535,468,365,176,354,407,222,631,0,,,,
2,1779303668736,-23,-50222,10916,-829554,-302989,1600466,0,0,0,188,136,164,275,167,272,365,155,233,155,104,140,0,,,,
1,1779303668752,-1072,-545,13845,2922379,-177150,238237,0,0,0,638,613,151,621,532,482,334,184,365,376,206,619,0,,,,
2,1779303668752,780,-43689,11576,1709200,183259,2052507,0,0,0,185,135,148,262,173,244,379,283,197,254,272,127,0,,,,
1,1779303668768,-1727,-746,14381,3535688,-45204,340862,0,0,0,640,614,155,596,523,479,311,188,379,329,174,605,0,,,,
2,1779303668768,3278,-15912,18348,3969402,1389107,1562593,0,0,0,165,107,97,264,159,236,387,374,189,299,325,128,0,,,,
1,1779303668784,-3302,-1105,15142,4224743,120951,598647,0,0,0,633,609,149,576,514,463,284,183,386,297,150,580,0,,,,
2,1779303668784,2555,14142,16152,5718920,2393370,403171,0,0,0,160,112,98,277,161,265,410,401,215,314,371,124,0,,,,
1,1779303668800,-5431,-1598,16702,5084842,337197,1205847,0,0,0,615,602,143,579,514,458,274,179,385,280,145,550,0,,,,
2,1779303668800,1062,13606,11284,6844134,1843591,-563217,0,0,0,189,98,162,302,117,312,455,428,257,376,419,128,0,,,,
1,1779303668816,-6810,-1574,17961,6070778,642630,1941329,0,0,0,578,581,134,573,509,452,307,201,376,265,144,496,0,,,,
2,1779303668816,2569,-1995,19956,6772052,681725,-335975,0,0,0,227,124,201,311,147,355,467,450,290,386,416,153,0,,,,
1,1779303668832,-8992,-1943,18688,7352374,933402,2780658,0,0,0,509,528,110,556,474,428,390,262,337,260,148,397,0,,,,
2,1779303668832,1861,-6824,25211,3865555,-250454,43982,0,0,0,266,158,228,329,187,393,473,458,303,408,416,180,0,,,,
1,1779303668848,-12596,-4895,22976,8582656,417831,3641978,0,0,0,426,474,103,484,424,383,286,202,321,237,151,368,0,,,,
2,1779303668848,631,-1742,15673,654847,-367740,29321,0,0,0,302,198,234,341,221,413,480,443,316,433,416,200,0,,,,
