sole_id,timestamp,accel_x,accel_y,accel_z,gyro_x,gyro_y,gyro_z,magn_x,magn_y,magn_z,pressure_01,pressure_02,pressure_03,pressure_04,pressure_05,pressure_06,pressure_07,pressure_08,pressure_09,pressure_10,pressure_11,pressure_12,corrupt
2,1769098504112,1062,181,10016,41538,-58643,-20769,0,0,0,453,536,288,450,413,458,557,411,371,288,231,471,0
2,1769098504128,1072,181,10021,45204,-61086,-21991,0,0,0,451,535,287,453,416,460,557,411,377,289,234,472,0
2,1769098504144,1067,181,10021,47647,-62308,-23212,0,0,0,449,534,282,455,417,461,556,413,381,292,238,475,0
2,1769098504160,1052,172,10007,48869,-62308,-24434,0,0,0,446,532,280,451,413,458,558,416,383,288,234,471,0
2,1769098504176,1043,157,10002,48869,-62308,-24434,0,0,0,444,530,280,448,413,457,560,415,383,283,230,468,0
2,1769098504192,1048,148,10002,46425,-62308,-23212,0,0,0,444,531,279,452,418,461,558,408,384,287,234,472,0
2,1769098504208,1052,153,10002,45204,-62308,-23212,0,0,0,444,534,278,452,415,458,559,409,386,284,229,472,0
2,1769098504224,1052,162,10002,41538,-62308,-23212,0,0,0,446,534,280,453,416,460,558,405,385,290,231,473,0
2,1769098504240,1052,153,10002,37873,-62308,-21991,0,0,0,445,535,278,453,416,460,555,398,378,291,231,473,0
2,1769098504256,1048,153,10002,37873,-62308,-19547,0,0,0,442,533,275,453,417,464,560,405,386,287,229,470,0
2,1769098504272,1048,153,10016,37873,-63529,-19547,0,0,0,443,533,274,452,418,464,559,401,380,287,229,470,0
2,1769098504288,1048,143,10016,37873,-63529,-19547,0,0,0,448,537,283,458,420,471,553,399,377,288,230,469,0
2,1769098504304,1043,134,10021,37873,-64751,-19547,0,0,0,444,534,278,456,417,470,561,404,383,290,234,471,0
2,1769098504320,1038,134,10021,35430,-65973,-19547,0,0,0,446,536,280,458,423,471,507,398,392,286,229,470,0
2,1769098504336,1038,129,10026,35430,-65973,-18325,0,0,0,443,535,277,455,421,469,527,403,390,284,228,468,0
2,1769098504352,1033,124,10021,34208,-65973,-17104,0,0,0,442,534,276,449,413,462,561,406,385,285,227,469,0
2,1769098504368,1038,124,10016,32986,-63529,-17104,0,0,0,443,535,280,447,412,463,559,403,384,287,227,470,0
2,1769098504384,1043,124,10011,32986,-62308,-17104,0,0,0,444,535,281,452,418,468,556,400,384,290,229,471,0
2,1769098504400,1043,119,10007,32986,-62308,-18325,0,0,0,445,534,279,454,419,468,553,397,380,290,228,473,0
2,1769098504416,1038,119,10007,30543,-62308,-18325,0,0,0,444,533,277,451,419,462,550,398,379,292,230,476,0
2,1769098504432,1038,119,10011,26878,-61086,-18325,0,0,0,448,536,279,454,431,459,552,403,383,292,229,476,0
2,1769098504448,1028,119,10016,24434,-61086,-18325,0,0,0,447,535,277,452,414,465,545,398,376,293,231,475,0
2,1769098504464,1019,119,10021,23212,-59864,-18325,0,0,0,446,535,275,457,420,470,552,404,385,289,228,473,0
2,1769098504480,1014,119,10016,21991,-58643,-18325,0,0,0,446,536,274,451,415,463,552,405,383,293,232,477,0
2,1769098504496,1014,119,10007,15882,-56199,-15882,0,0,0,446,535,276,453,417,467,552,404,383,291,231,473,0
2,1769098504512,1024,119,10011,10995,-53756,-15882,0,0,0,446,536,278,455,419,468,552,404,382,292,232,475,0
2,1769098504528,1028,124,10031,10995,-53756,-15882,0,0,0,446,535,276,459,423,472,552,404,384,290,228,476,0
2,1769098504544,1033,129,10035,13439,-54977,-17104,0,0,0,446,536,278,454,419,470,552,406,384,292,231,477,0
2,1769098504560,1043,134,10026,19547,-57421,-17104,0,0,0,448,538,281,456,419,473,548,401,383,291,229,478,0
2,1769098504576,1043,129,10026,23212,-57421,-17104,0,0,0,448,538,279,459,421,476,549,402,384,291,230,479,0
2,1769098504592,1038,124,10026,25656,-56199,-17104,0,0,0,449,539,281,458,420,474,553,406,386,290,230,480,0
2,1769098504608,1033,124,10031,26878,-54977,-18325,0,0,0,447,538,282,453,416,470,550,404,386,289,228,481,0
2,1769098504624,1033,124,10035,26878,-54977,-18325,0,0,0,443,534,278,452,415,468,547,403,385,288,228,482,0
2,1769098504640,1033,129,10040,26878,-56199,-18325,0,0,0,444,534,276,456,417,471,552,407,388,286,227,480,0
2,1769098504656,1038,114,10026,28099,-58643,-17104,0,0,0,447,536,277,458,418,474,547,403,383,288,228,484,0
2,1769098504672,1043,110,10026,29321,-59864,-17104,0,0,0,446,535,277,454,415,470,549,408,389,289,228,484,0
2,1769098504688,1038,114,10035,31764,-59864,-17104,0,0,0,445,533,276,457,419,474,549,407,389,288,227,484,0
2,1769098504704,1038,114,10035,31764,-59864,-17104,0,0,0,448,536,276,452,412,468,542,402,384,288,226,482,0
2,1769098504720,1033,114,10035,29321,-59864,-17104,0,0,0,448,536,279,460,420,474,549,405,385,288,226,484,0
2,1769098504736,1028,110,10026,28099,-59864,-15882,0,0,0,448,535,279,459,419,475,476,388,389,284,221,481,0
2,1769098504752,1028,105,10026,25656,-58643,-14660,0,0,0,445,532,276,457,421,474,533,401,387,288,227,486,0
2,1769098504768,1038,110,10040,23212,-58643,-14660,0,0,0,450,536,282,456,423,470,547,402,385,289,224,486,0
2,1769098504784,1038,110,10054,24434,-58643,-14660,0,0,0,448,535,280,456,425,471,547,401,386,290,226,487,0
2,1769098504800,1043,114,10059,30543,-59864,-14660,0,0,0,447,535,280,456,427,472,548,399,387,292,228,488,0
2,1769098504816,1028,100,10050,34208,-61086,-15882,0,0,0,447,535,279,455,426,471,551,397,386,290,229,486,0
2,1769098504832,1014,95,10031,34208,-61086,-17104,0,0,0,443,532,276,455,425,469,551,395,386,290,226,486,0
2,1769098504848,1019,95,10031,30543,-59864,-15882,0,0,0,440,531,273,455,425,469,549,394,387,290,225,488,0
2,1769098504864,1033,95,10031,26878,-58643,-15882,0,0,0,443,533,273,455,426,470,550,398,389,291,228,489,0
2,1769098504880,1038,95,10035,26878,-57421,-15882,0,0,0,443,532,274,454,422,469,552,401,392,288,226,488,0
2,1769098504896,1033,95,10035,26878,-57421,-15882,0,0,0,449,540,281,453,414,468,540,401,393,288,228,486,0
2,1769098504912,1033,100,10035,25656,-57421,-15882,0,0,0,449,540,282,441,403,458,472,382,392,290,230,489,0
2,1769098504928,1028,100,10040,24434,-58643,-14660,0,0,0,445,536,277,452,415,469,548,400,391,290,230,489,0
2,1769098504944,1019,95,10040,21991,-58643,-14660,0,0,0,445,534,275,456,417,470,559,399,391,291,230,489,0
2,1769098504960,1019,95,10031,21991,-57421,-14660,0,0,0,447,537,279,452,414,468,552,398,387,290,228,490,0
2,1769098504976,1024,90,10026,19547,-57421,-14660,0,0,0,449,539,283,451,417,470,551,396,386,288,228,489,0
2,1769098504992,1028,90,10026,18325,-56199,-14660,0,0,0,447,539,279,448,415,468,555,399,389,289,229,490,0
2,1769098505008,1033,95,10035,17104,-56199,-14660,0,0,0,446,538,278,450,415,469,554,398,389,288,227,487,0
2,1769098505024,1038,100,10050,17104,-54977,-13439,0,0,0,446,538,279,452,416,469,559,403,392,380,257,473,0
2,1769098505040,1038,100,10050,15882,-54977,-13439,0,0,0,447,538,282,453,417,470,559,404,391,356,252,481,0
2,1769098505056,1043,100,10050,15882,-54977,-13439,0,0,0,448,539,283,453,417,472,557,401,390,290,229,490,0
2,1769098505072,1033,100,10054,15882,-53756,-13439,0,0,0,448,538,281,450,415,469,558,400,390,289,228,488,0
2,1769098505088,1028,105,10059,17104,-53756,-14660,0,0,0,447,538,280,450,415,468,557,400,388,290,230,489,0
2,1769098505104,1028,100,10050,18325,-54977,-14660,0,0,0,448,539,279,455,419,473,559,402,391,287,227,487,0
2,1769098505120,1028,95,10040,19547,-54977,-14660,0,0,0,446,537,277,452,417,468,556,400,390,290,229,490,0
2,1769098505136,1033,95,10035,19547,-53756,-14660,0,0,0,448,538,280,453,418,470,554,399,389,289,229,491,0
2,1769098505152,1028,95,10031,18325,-52534,-14660,0,0,0,447,537,280,460,423,477,560,403,393,292,231,491,0
2,1769098505168,1028,90,10035,17104,-52534,-13439,0,0,0,447,538,280,449,415,467,560,403,392,288,227,489,0
2,1769098505184,1033,95,10050,14660,-52534,-13439,0,0,0,448,539,281,451,416,468,561,405,392,295,234,494,0
2,1769098505200,1033,105,10045,13439,-52534,-13439,0,0,0,444,536,281,456,421,476,562,405,393,289,229,490,0
2,1769098505216,1028,110,10045,14660,-53756,-14660,0,0,0,447,539,279,452,415,470,561,405,390,289,232,490,0
2,1769098505232,1028,105,10045,15882,-53756,-14660,0,0,0,449,541,280,453,415,470,560,403,389,289,230,491,0
2,1769098505248,1024,100,10050,17104,-54977,-14660,0,0,0,447,538,279,453,416,469,548,397,385,289,228,490,0
2,1769098505264,1028,100,10050,19547,-54977,-14660,0,0,0,446,537,277,453,415,468,549,397,385,291,229,490,0
2,1769098505280,1033,105,10054,20769,-54977,-14660,0,0,0,448,538,279,453,415,468,559,402,388,292,230,490,0
2,1769098505296,1033,110,10059,21991,-56199,-15882,0,0,0,449,539,280,452,414,467,560,403,389,292,229,490,0
2,1769098505312,1033,114,10050,24434,-57421,-17104,0,0,0,448,538,279,457,440,460,561,404,389,293,230,493,0
2,1769098505328,1033,110,10050,25656,-57421,-17104,0,0,0,448,539,280,463,468,454,563,406,391,293,232,492,0
2,1769098505344,1038,105,10050,26878,-57421,-17104,0,0,0,449,538,280,453,417,468,560,403,388,292,232,492,0
2,1769098505360,1028,105,10045,28099,-57421,-18325,0,0,0,456,539,281,456,418,468,561,404,388,307,236,491,0
2,1769098505376,1019,105,10045,30543,-57421,-17104,0,0,0,450,538,282,452,416,467,561,404,388,416,269,472,0
2,1769098505392,1028,114,10050,32986,-58643,-17104,0,0,0,454,538,284,458,419,471,556,401,386,297,230,494,0
2,1769098505408,1028,100,10050,32986,-58643,-17104,0,0,0,450,538,282,458,421,471,554,394,383,289,225,493,0
2,1769098505424,1033,90,10050,31764,-59864,-17104,0,0,0,454,541,287,455,420,468,557,401,388,293,228,496,0
2,1769098505440,1019,86,10040,28099,-59864,-17104,0,0,0,465,539,285,458,419,467,558,403,389,298,229,500,0
2,1769098505456,1019,81,10040,24434,-58643,-15882,0,0,0,463,538,284,456,418,465,554,399,383,296,225,500,0
2,1769098505472,1028,81,10045,23212,-57421,-15882,0,0,0,456,539,285,455,418,465,554,400,382,291,223,500,0
2,1769098505488,1033,90,10050,23212,-56199,-17104,0,0,0,451,539,283,458,420,467,556,403,383,293,227,503,0
2,1769098505504,1033,95,10050,24434,-57421,-17104,0,0,0,450,537,283,457,419,468,556,403,383,297,230,504,0
2,1769098505520,1028,95,10045,23212,-57421,-17104,0,0,0,452,538,285,454,417,467,555,400,383,296,229,500,0
2,1769098505536,1033,95,10045,23212,-57421,-15882,0,0,0,455,540,289,454,417,468,530,395,385,292,226,495,0
2,1769098505552,1043,95,10045,24434,-58643,-15882,0,0,0,457,542,293,452,416,467,491,392,391,289,220,492,0
2,1769098505568,1028,90,10045,24434,-58643,-15882,0,0,0,455,539,286,454,418,467,557,412,386,292,224,495,0
2,1769098505584,1019,86,10040,24434,-57421,-15882,0,0,0,447,533,281,455,419,467,557,415,386,289,224,493,0
2,1769098505600,1019,81,10040,21991,-56199,-15882,0,0,0,456,542,291,458,421,469,561,417,390,292,226,497,0
2,1769098505616,1024,81,10045,18325,-56199,-14660,0,0,0,455,538,286,460,423,473,554,406,380,299,230,498,0
2,1769098505632,1019,86,10050,17104,-57421,-13439,0,0,0,454,536,284,457,420,470,555,407,382,297,229,498,0
2,1769098505648,1024,81,10045,14660,-57421,-13439,0,0,0,454,536,287,458,420,471,557,410,385,293,230,497,0
2,1769098505664,1033,81,10045,13439,-56199,-14660,0,0,0,457,539,288,457,421,470,561,415,389,315,237,496,0
2,1769098505680,1038,90,10054,13439,-56199,-14660,0,0,0,452,535,283,457,420,470,560,413,387,305,232,497,0
2,1769098505696,1038,95,10059,14660,-56199,-14660,0,0,0,451,534,282,456,416,467,561,414,388,300,231,499,0
2,1769098505712,1028,90,10054,17104,-56199,-14660,0,0,0,453,535,283,452,415,464,560,413,387,298,228,497,0
2,1769098505728,1024,90,10054,19547,-56199,-14660,0,0,0,452,536,283,452,416,464,559,412,385,297,228,497,0
2,1769098505744,1019,90,10050,19547,-56199,-14660,0,0,0,453,537,283,454,418,466,560,414,387,299,230,499,0
2,1769098505760,1019,100,10054,20769,-56199,-14660,0,0,0,455,539,284,453,418,465,559,412,387,298,229,497,0
2,1769098505776,1019,95,10054,20769,-56199,-14660,0,0,0,453,538,283,453,418,465,556,409,383,298,230,497,0
2,1769098505792,1028,90,10050,20769,-56199,-14660,0,0,0,456,540,287,459,424,471,556,410,382,298,230,497,0
2,1769098505808,1033,86,10045,20769,-57421,-14660,0,0,0,454,539,283,455,421,467,563,415,387,300,234,498,0
2,1769098505824,1028,90,10050,20769,-57421,-14660,0,0,0,454,538,283,460,423,471,563,415,387,304,231,496,0
2,1769098505840,1028,95,10050,20769,-57421,-14660,0,0,0,455,539,283,463,473,444,561,415,386,297,230,496,0
2,1769098505856,1028,95,10035,18325,-56199,-14660,0,0,0,452,537,281,459,426,467,561,414,386,297,231,497,0
2,1769098505872,1033,86,10035,15882,-56199,-15882,0,0,0,452,537,278,456,419,471,558,411,384,296,227,495,0
2,1769098505888,1028,81,10050,14660,-56199,-15882,0,0,0,453,539,283,453,417,465,559,411,385,297,231,495,0
2,1769098505904,1028,81,10050,14660,-54977,-15882,0,0,0,452,537,283,452,416,465,559,411,385,295,230,493,0
2,1769098505920,1028,86,10050,15882,-54977,-15882,0,0,0,455,539,285,456,419,469,559,410,385,293,226,493,0
2,1769098505936,1024,90,10054,17104,-54977,-14660,0,0,0,457,542,287,459,422,472,559,409,383,293,228,494,0
2,1769098505952,1024,95,10059,18325,-56199,-14660,0,0,0,456,541,285,461,452,457,560,409,384,297,231,496,0
2,1769098505968,1024,95,10054,17104,-57421,-14660,0,0,0,455,539,285,460,454,453,562,411,386,297,229,493,0
2,1769098505984,1019,95,10050,15882,-56199,-13439,0,0,0,455,540,286,458,422,471,563,411,387,293,224,489,0
2,1769098506000,1014,100,10050,14660,-54977,-13439,0,0,0,457,542,288,460,425,473,564,412,388,292,222,488,0
2,1769098506016,1014,95,10045,14660,-54977,-13439,0,0,0,462,545,292,458,421,470,563,411,388,294,226,490,0
2,1769098506032,1019,90,10045,12217,-54977,-13439,0,0,0,458,542,288,459,422,470,560,409,384,298,231,493,0
2,1769098506048,1024,100,10054,9773,-54977,-13439,0,0,0,457,541,287,459,422,473,562,409,386,297,232,493,0
2,1769098506064,1019,100,10050,6108,-53756,-13439,0,0,0,452,535,279,452,415,466,559,406,383,301,233,496,0
2,1769098506080,1014,100,10050,1221,-52534,-10995,0,0,0,450,535,280,455,414,466,560,407,384,292,226,488,0
2,1769098506096,1019,100,10040,0,-51312,-9773,0,0,0,455,540,289,458,418,471,561,410,383,293,226,489,0
2,1769098506112,1019,105,10035,0,-48869,-9773,0,0,0,454,539,291,454,417,468,558,409,380,292,228,487,0
2,1769098506128,1024,110,10035,0,-48869,-9773,0,0,0,452,539,288,459,421,472,558,412,381,291,228,485,0
2,1769098506144,1028,119,10050,-1221,-48869,-10995,0,0,0,452,539,287,458,420,471,560,415,383,291,231,485,0
2,1769098506160,1033,119,10059,0,-48869,-10995,0,0,0,453,540,287,456,417,468,561,415,385,294,235,487,0
2,1769098506176,1038,124,10064,0,-50090,-10995,0,0,0,454,541,289,457,419,471,562,417,386,294,236,487,0
2,1769098506192,1043,129,10064,3665,-51312,-13439,0,0,0,453,541,289,458,421,472,559,415,382,293,235,485,0
2,1769098506208,1038,129,10064,8552,-52534,-14660,0,0,0,452,540,287,457,420,471,557,411,379,295,235,485,0
2,1769098506224,1033,138,10069,14660,-53756,-15882,0,0,0,452,540,286,453,415,467,556,411,381,294,234,484,0
2,1769098506240,1024,138,10059,19547,-54977,-15882,0,0,0,454,541,289,446,409,460,557,413,384,294,236,484,0
2,1769098506256,1024,134,10050,20769,-56199,-15882,0,0,0,453,541,288,457,418,471,562,417,386,293,233,482,0
2,1769098506272,1028,129,10040,18325,-56199,-15882,0,0,0,451,538,285,458,418,471,562,418,388,291,232,479,0
2,1769098506288,1033,129,10035,15882,-56199,-14660,0,0,0,453,539,289,466,426,479,562,418,388,291,232,477,0
2,1769098506304,1028,138,10040,13439,-54977,-14660,0,0,0,454,540,291,467,465,461,563,418,387,290,233,477,0
2,1769098506320,1028,138,10045,13439,-54977,-13439,0,0,0,449,540,305,459,429,473,563,419,390,292,234,478,0
2,1769098506336,1033,134,10050,12217,-53756,-13439,0,0,0,447,539,292,456,416,470,562,418,388,296,239,483,0
2,1769098506352,1028,134,10045,10995,-53756,-13439,0,0,0,449,540,288,455,414,467,560,418,383,299,237,481,0
2,1769098506368,1033,138,10045,10995,-53756,-14660,0,0,0,448,540,287,453,414,467,560,418,383,294,235,478,0
2,1769098506384,1038,148,10050,13439,-53756,-14660,0,0,0,447,540,292,455,416,470,561,422,384,290,233,476,0
2,1769098506400,1028,138,10050,14660,-53756,-14660,0,0,0,446,540,298,456,417,473,562,423,387,291,233,477,0
2,1769098506416,1028,138,10050,15882,-54977,-14660,0,0,0,443,536,298,457,419,474,563,422,390,291,235,477,0
2,1769098506432,1033,143,10045,13439,-53756,-14660,0,0,0,441,534,293,457,419,473,564,423,389,290,235,475,0
2,1769098506448,1033,148,10045,13439,-53756,-14660,0,0,0,443,538,284,453,416,468,561,422,384,289,233,474,0
2,1769098506464,1033,148,10050,13439,-53756,-14660,0,0,0,447,543,288,455,419,469,561,422,384,289,234,475,0
2,1769098506480,1033,148,10050,13439,-53756,-14660,0,0,0,444,540,285,457,419,468,559,420,381,290,238,478,0
2,1769098506496,1033,153,10054,14660,-54977,-14660,0,0,0,442,536,281,458,419,472,560,421,383,295,239,479,0
2,1769098506512,1038,148,10050,18325,-54977,-14660,0,0,0,442,536,282,458,419,471,565,427,390,294,239,478,0
2,1769098506528,1038,148,10040,18325,-54977,-14660,0,0,0,443,537,283,455,417,470,560,423,385,293,237,478,0
2,1769098506544,1043,153,10040,19547,-54977,-14660,0,0,0,447,541,287,460,421,472,564,426,386,291,237,477,0
2,1769098506560,1033,157,10050,20769,-56199,-14660,0,0,0,444,538,284,457,419,469,568,432,391,293,237,477,0
2,1769098506576,1028,153,10045,20769,-56199,-14660,0,0,0,439,534,278,453,415,467,561,425,383,289,234,475,0
2,1769098506592,1028,157,10045,19547,-54977,-14660,0,0,0,437,534,278,456,417,470,561,424,384,288,235,476,0
2,1769098506608,1028,153,10045,19547,-54977,-14660,0,0,0,439,536,282,457,419,470,563,424,386,290,238,477,0
2,1769098506624,1033,148,10050,19547,-54977,-14660,0,0,0,444,542,288,455,416,468,562,424,385,289,237,477,0
2,1769098506640,1038,153,10050,21991,-54977,-14660,0,0,0,448,545,290,453,413,467,559,425,386,285,233,475,0
2,1769098506656,1028,157,10050,23212,-54977,-14660,0,0,0,445,541,285,455,417,468,556,423,386,285,232,473,0
2,1769098506672,1028,153,10054,24434,-56199,-15882,0,0,0,443,540,284,462,423,474,561,423,384,293,238,478,0
2,1769098506688,1038,148,10054,25656,-56199,-15882,0,0,0,445,542,287,462,424,476,561,425,385,293,240,478,0
2,1769098506704,1043,143,10054,25656,-56199,-15882,0,0,0,443,540,284,461,421,474,557,423,386,293,237,479,0
2,1769098506720,1038,143,10054,25656,-56199,-15882,0,0,0,442,540,284,458,418,471,560,423,382,295,239,481,0
2,1769098506736,1038,148,10059,28099,-57421,-15882,0,0,0,445,543,287,458,419,472,567,429,390,291,236,478,0
2,1769098506752,1043,148,10064,31764,-57421,-15882,0,0,0,443,540,283,458,418,468,567,428,388,293,239,480,0
2,1769098506768,1052,138,10069,36651,-57421,-18325,0,0,0,440,535,283,456,417,468,569,428,388,437,293,457,0
2,1769098506784,1048,138,10050,37873,-57421,-17104,0,0,0,445,538,288,456,417,469,565,424,384,329,251,476,0
2,1769098506800,1038,148,10045,39095,-58643,-17104,0,0,0,444,536,285,460,420,472,564,424,384,295,237,484,0
2,1769098506816,1028,153,10045,37873,-59864,-17104,0,0,0,449,539,286,458,417,471,567,424,386,293,234,483,0
2,1769098506832,1028,134,10045,35430,-59864,-17104,0,0,0,452,541,290,461,419,473,569,425,389,293,235,482,0
2,1769098506848,1038,129,10035,31764,-57421,-17104,0,0,0,452,541,289,463,421,474,569,424,390,294,237,481,0
2,1769098506864,1043,129,10035,28099,-57421,-15882,0,0,0,452,540,288,461,418,473,569,423,389,293,236,481,0
2,1769098506880,1038,134,10054,26878,-57421,-15882,0,0,0,452,540,288,462,420,476,569,424,388,292,234,481,0
2,1769098506896,1033,124,10050,25656,-57421,-15882,0,0,0,453,540,290,465,423,479,565,421,383,293,234,482,0
2,1769098506912,1028,124,10045,24434,-56199,-15882,0,0,0,455,541,289,464,421,477,564,419,381,295,236,483,0
2,1769098506928,1028,124,10050,23212,-56199,-15882,0,0,0,450,537,284,460,420,472,573,428,392,293,234,482,0
2,1769098506944,1028,124,10054,21991,-56199,-14660,0,0,0,452,539,289,470,468,461,570,427,391,295,237,483,0
2,1769098506960,1038,129,10054,20769,-56199,-14660,0,0,0,452,539,289,465,427,476,572,427,391,290,232,479,0
2,1769098506976,1038,138,10045,20769,-56199,-14660,0,0,0,453,538,289,460,420,473,569,423,387,295,237,484,0
2,1769098506992,1033,129,10045,19547,-56199,-14660,0,0,0,457,542,290,460,420,471,569,424,387,294,238,485,0
2,1769098507008,1033,124,10054,18325,-54977,-14660,0,0,0,458,544,293,461,420,475,569,425,387,294,238,483,0
2,1769098507024,1038,119,10059,18325,-54977,-14660,0,0,0,458,543,292,460,420,474,570,425,388,294,236,484,0
2,1769098507040,1038,119,10050,18325,-54977,-14660,0,0,0,456,542,292,457,418,471,568,425,388,295,237,485,0
2,1769098507056,1038,124,10050,18325,-54977,-14660,0,0,0,457,543,292,458,417,472,570,427,390,294,237,483,0
2,1769098507072,1033,129,10054,19547,-56199,-14660,0,0,0,454,540,288,460,418,474,570,425,390,293,236,482,0
2,1769098507088,1033,129,10059,18325,-56199,-14660,0,0,0,449,535,285,461,420,474,569,423,388,294,234,481,0
2,1769098507104,1033,129,10050,15882,-53756,-14660,0,0,0,451,538,289,461,420,474,571,426,390,293,234,481,0
2,1769098507120,1038,129,10050,15882,-53756,-14660,0,0,0,455,540,290,463,422,476,568,424,387,293,236,483,0
2,1769098507136,1028,129,10050,17104,-53756,-14660,0,0,0,455,539,289,464,423,478,568,424,386,292,236,483,0
2,1769098507152,1028,129,10050,18325,-54977,-14660,0,0,0,455,540,288,458,416,471,570,427,389,295,236,483,0
2,1769098507168,1028,134,10045,19547,-54977,-14660,0,0,0,456,542,292,463,422,476,570,427,389,290,232,477,0
2,1769098507184,1038,134,10050,19547,-56199,-15882,0,0,0,461,546,295,462,420,475,571,428,389,293,236,482,0
2,1769098507200,1038,124,10054,19547,-56199,-15882,0,0,0,457,542,291,463,422,478,570,425,388,293,234,482,0
2,1769098507216,1038,124,10059,19547,-56199,-15882,0,0,0,456,541,292,460,419,473,572,427,388,300,236,482,0
2,1769098507232,1038,129,10059,19547,-54977,-15882,0,0,0,457,541,291,456,414,471,571,427,389,297,236,482,0
2,1769098507248,1038,134,10054,20769,-54977,-15882,0,0,0,455,540,291,459,418,474,572,427,387,295,236,483,0
2,1769098507264,1043,129,10054,21991,-54977,-15882,0,0,0,453,537,288,461,419,475,574,429,388,295,235,484,0
2,1769098507280,1038,129,10050,23212,-56199,-15882,0,0,0,455,539,289,461,418,475,574,429,390,294,235,483,0
2,1769098507296,1033,134,10054,24434,-57421,-15882,0,0,0,456,540,289,460,419,474,573,427,388,293,235,482,0
2,1769098507312,1033,134,10050,23212,-56199,-15882,0,0,0,453,538,286,461,427,471,574,428,388,293,237,483,0
2,1769098507328,1038,129,10040,20769,-54977,-15882,0,0,0,455,539,289,463,434,468,578,432,392,297,239,485,0
2,1769098507344,1038,129,10040,19547,-54977,-14660,0,0,0,453,536,290,461,417,473,575,430,391,296,237,484,0
2,1769098507360,1038,129,10040,19547,-54977,-14660,0,0,0,457,541,293,464,422,477,575,430,391,293,235,482,0
2,1769098507376,1048,129,10045,19547,-56199,-14660,0,0,0,458,543,293,460,419,474,575,432,393,298,236,485,0
2,1769098507392,1048,134,10045,18325,-56199,-14660,0,0,0,454,538,289,457,415,473,573,431,393,291,232,480,0
2,1769098507408,1043,138,10050,18325,-56199,-14660,0,0,0,457,540,293,462,419,476,573,429,391,296,236,484,0
2,1769098507424,1028,138,10050,18325,-56199,-14660,0,0,0,455,538,292,464,422,480,570,428,388,296,237,485,0
2,1769098507440,1028,138,10050,18325,-54977,-14660,0,0,0,459,542,296,460,419,475,568,425,386,305,239,482,0
2,1769098507456,1043,138,10059,19547,-54977,-14660,0,0,0,459,542,296,456,416,470,568,426,388,296,234,481,0
2,1769098507472,1043,134,10064,19547,-56199,-14660,0,0,0,458,541,295,455,415,470,569,427,389,290,233,482,0
2,1769098507488,1038,134,10050,17104,-54977,-14660,0,0,0,457,542,296,457,416,472,570,428,389,292,235,483,0
2,1769098507504,1038,138,10040,14660,-54977,-14660,0,0,0,456,541,295,460,418,474,572,432,391,293,236,483,0
2,1769098507520,1038,138,10045,13439,-54977,-14660,0,0,0,456,540,292,462,419,477,572,433,391,293,236,482,0
2,1769098507536,1038,138,10050,13439,-56199,-13439,0,0,0,456,541,291,462,420,477,569,429,389,291,234,480,0
2,1769098507552,1038,138,10050,13439,-54977,-13439,0,0,0,457,544,293,464,425,476,572,433,392,296,238,484,0
2,1769098507568,1033,134,10050,12217,-54977,-13439,0,0,0,455,542,292,460,420,475,570,434,392,295,237,486,0
2,1769098507584,1033,134,10050,10995,-53756,-13439,0,0,0,450,538,286,458,417,471,568,432,392,294,237,484,0
2,1769098507600,1033,138,10050,10995,-53756,-13439,0,0,0,457,542,291,459,419,473,563,428,387,293,233,482,0
2,1769098507616,1038,143,10054,10995,-53756,-13439,0,0,0,454,543,290,466,430,477,572,435,393,293,237,482,0
2,1769098507632,1038,153,10054,13439,-54977,-13439,0,0,0,456,545,294,460,422,474,567,430,389,294,239,484,0
2,1769098507648,1038,153,10054,13439,-54977,-13439,0,0,0,454,542,290,460,421,474,567,432,390,295,240,485,0
2,1769098507664,1043,148,10050,14660,-56199,-13439,0,0,0,451,540,289,463,423,478,569,435,392,293,238,483,0
2,1769098507680,1038,148,10045,15882,-56199,-13439,0,0,0,451,541,290,463,422,478,569,434,391,293,237,483,0
2,1769098507696,1033,153,10045,15882,-54977,-13439,0,0,0,452,542,290,460,421,475,569,433,391,294,237,483,0
2,1769098507712,1033,148,10050,14660,-54977,-13439,0,0,0,451,542,289,458,420,472,569,432,392,294,238,482,0
2,1769098507728,1033,143,10054,12217,-53756,-13439,0,0,0,450,541,287,459,419,472,566,430,389,295,237,482,0
2,1769098507744,1033,143,10054,10995,-53756,-12217,0,0,0,449,540,288,461,421,475,566,428,388,294,236,481,0
2,1769098507760,1043,148,10059,9773,-53756,-12217,0,0,0,452,543,290,461,422,475,562,424,383,292,237,480,0
2,1769098507776,1043,148,10050,9773,-53756,-12217,0,0,0,449,540,289,462,422,475,563,423,383,293,233,478,0
2,1769098507792,1038,153,10045,10995,-54977,-12217,0,0,0,445,539,287,458,419,471,566,426,387,293,235,480,0
2,1769098507808,1038,153,10045,9773,-54977,-12217,0,0,0,446,541,291,458,419,471,567,428,390,293,235,478,0
2,1769098507824,1038,153,10050,7330,-54977,-12217,0,0,0,446,542,291,459,420,471,566,422,384,293,235,478,0
2,1769098507840,1038,162,10050,4886,-53756,-10995,0,0,0,440,539,283,455,418,469,566,427,389,293,234,477,0
2,1769098507856,1038,172,10045,2443,-53756,-9773,0,0,0,443,539,281,455,414,466,563,423,383,293,231,477,0
2,1769098507872,1038,177,10040,2443,-53756,-9773,0,0,0,447,541,283,455,415,468,563,425,384,289,233,475,0
2,1769098507888,1048,172,10040,3665,-52534,-10995,0,0,0,443,539,282,455,417,467,563,431,386,286,235,473,0
2,1769098507904,1043,177,10045,2443,-52534,-10995,0,0,0,442,538,280,452,415,465,563,432,385,285,234,472,0
2,1769098507920,1038,186,10054,1221,-52534,-10995,0,0,0,443,540,281,449,413,464,561,428,384,285,233,472,0
2,1769098507936,1038,186,10054,1221,-52534,-10995,0,0,0,438,539,282,451,415,466,559,426,382,287,233,471,0
2,1769098507952,1038,186,10054,2443,-52534,-10995,0,0,0,433,538,281,455,416,468,557,425,380,288,235,468,0
2,1769098507968,1043,186,10050,3665,-53756,-10995,0,0,0,432,536,279,453,414,466,558,426,380,287,235,466,0
2,1769098507984,1043,191,10050,4886,-53756,-12217,0,0,0,429,532,277,452,412,465,561,429,382,289,236,465,0
2,1769098508000,1043,201,10045,7330,-53756,-13439,0,0,0,427,530,274,453,413,465,561,428,380,290,236,466,0
2,1769098508016,1038,196,10045,7330,-53756,-12217,0,0,0,432,534,279,459,419,470,565,432,385,289,235,464,0
2,1769098508032,1038,196,10050,9773,-54977,-12217,0,0,0,431,534,278,459,421,469,561,430,380,288,233,464,0
2,1769098508048,1038,196,10059,13439,-53756,-14660,0,0,0,430,534,279,452,413,466,562,430,382,290,237,467,0
2,1769098508064,1033,196,10050,13439,-50090,-14660,0,0,0,430,533,277,449,409,464,565,433,386,291,238,467,0
2,1769098508080,1038,196,10050,15882,-45204,-14660,0,0,0,434,534,285,452,410,465,562,433,382,384,270,453,0
2,1769098508096,1057,196,10054,20769,-45204,-14660,0,0,0,434,534,283,452,410,462,563,432,384,316,244,463,0
2,1769098508112,1057,205,10050,21991,-47647,-15882,0,0,0,433,531,283,448,407,461,562,432,382,285,231,463,0
2,1769098508128,1048,210,10045,23212,-50090,-15882,0,0,0,434,531,284,450,408,463,560,431,380,284,231,462,0
2,1769098508144,1048,205,10054,21991,-50090,-14660,0,0,0,435,533,286,450,409,462,559,430,379,285,232,463,0
2,1769098508160,1052,205,10059,21991,-50090,-14660,0,0,0,433,532,283,450,410,462,560,431,380,287,235,462,0
2,1769098508176,1052,196,10054,25656,-51312,-15882,0,0,0,428,530,278,454,414,465,562,435,381,288,236,461,0
2,1769098508192,1043,196,10050,25656,-48869,-15882,0,0,0,427,533,276,458,418,467,562,436,381,287,237,461,0
2,1769098508208,1043,196,10050,26878,-43982,-14660,0,0,0,428,537,276,460,420,470,562,437,381,288,238,461,0
2,1769098508224,1057,196,10050,30543,-41538,-14660,0,0,0,422,539,272,460,422,471,565,440,384,287,237,461,0
2,1769098508240,1072,196,10050,32986,-42760,-14660,0,0,0,419,540,272,453,416,462,562,437,384,291,241,464,0
2,1769098508256,1072,191,10045,34208,-47647,-17104,0,0,0,420,541,273,457,420,466,565,440,385,291,240,462,0
2,1769098508272,1057,191,10040,34208,-48869,-17104,0,0,0,420,539,271,454,416,459,559,434,378,296,244,469,0
2,1769098508288,1057,191,10045,32986,-48869,-15882,0,0,0,414,533,270,453,412,459,563,435,386,292,240,466,0
2,1769098508304,1062,186,10045,30543,-47647,-15882,0,0,0,408,538,275,457,421,465,558,428,379,285,238,456,0
2,1769098508320,1067,167,10026,23212,-47647,-14660,0,0,0,397,535,271,456,420,464,561,429,380,286,241,444,0
2,1769098508336,1072,167,10021,15882,-48869,-14660,0,0,0,381,532,262,457,421,463,565,435,379,284,243,437,0
2,1769098508352,1072,196,10035,8552,-51312,-14660,0,0,0,370,531,253,461,424,463,565,437,378,289,245,432,0
2,1769098508368,1072,205,10054,7330,-50090,-13439,0,0,0,353,531,251,460,425,463,545,432,383,286,247,420,0
2,1769098508384,1076,201,10054,7330,-50090,-13439,0,0,0,345,531,258,460,428,465,547,431,384,282,249,410,0
2,1769098508400,1081,201,10035,6108,-56199,-13439,0,0,0,343,532,255,463,433,468,569,438,382,280,250,407,0
2,1769098508416,1081,215,10050,9773,-61086,-14660,0,0,0,334,532,247,465,436,470,571,441,383,279,250,403,0
2,1769098508432,1067,215,10074,20769,-57421,-14660,0,0,0,335,538,253,466,440,470,569,441,381,278,252,396,0
2,1769098508448,1067,205,10069,28099,-53756,-15882,0,0,0,330,541,244,465,438,468,566,434,381,277,252,395,0
2,1769098508464,1067,201,10050,30543,-53756,-14660,0,0,0,330,541,244,461,434,463,572,442,381,279,253,394,0
2,1769098508480,1067,205,10045,34208,-53756,-14660,0,0,0,343,544,248,465,438,471,572,443,385,283,255,400,0
2,1769098508496,1072,220,10059,41538,-54977,-14660,0,0,0,334,545,247,465,438,472,572,443,386,282,255,402,0
2,1769098508512,1081,205,10059,46425,-54977,-14660,0,0,0,339,544,249,465,437,473,567,438,379,287,257,408,0
2,1769098508528,1086,186,10045,50090,-54977,-15882,0,0,0,348,544,246,465,436,473,566,436,379,284,253,410,0
2,1769098508544,1086,181,10040,50090,-58643,-19547,0,0,0,359,542,247,465,435,475,566,438,382,286,249,424,0
2,1769098508560,1072,181,10040,50090,-58643,-19547,0,0,0,368,536,237,464,430,474,568,440,383,287,246,430,0
2,1769098508576,1062,181,10050,53756,-56199,-20769,0,0,0,382,531,233,465,429,472,570,442,380,286,244,432,0
2,1769098508592,1062,167,10050,58643,-51312,-20769,0,0,0,394,528,235,468,427,472,568,438,377,316,250,432,0
2,1769098508608,1072,153,10040,59864,-51312,-21991,0,0,0,399,523,232,468,423,473,567,435,376,320,250,436,0
2,1769098508624,1076,143,10035,56199,-53756,-21991,0,0,0,405,519,236,465,419,472,570,436,378,289,240,443,0
2,1769098508640,1081,134,10031,47647,-58643,-20769,0,0,0,409,523,247,463,417,472,571,435,381,287,237,447,0
2,1769098508656,1086,129,10026,39095,-64751,-19547,0,0,0,409,522,246,462,416,469,564,429,381,288,236,450,0
2,1769098508672,1086,138,10045,30543,-72082,-18325,0,0,0,412,522,249,462,416,468,554,428,381,285,233,448,0
2,1769098508688,1076,138,10054,21991,-78190,-18325,0,0,0,414,526,251,465,419,471,568,434,383,291,236,454,0
2,1769098508704,1062,138,10050,17104,-83077,-17104,0,0,0,419,529,259,461,415,466,569,436,385,292,240,454,0
2,1769098508720,1052,138,10050,17104,-81855,-17104,0,0,0,411,524,247,468,422,473,568,432,383,298,243,460,0
2,1769098508736,1048,148,10059,18325,-75747,-15882,0,0,0,417,525,256,461,414,466,571,435,383,290,235,455,0
2,1769098508752,1048,148,10059,20769,-68416,-15882,0,0,0,418,526,261,465,418,473,565,434,384,291,237,464,0
2,1769098508768,1048,134,10050,20769,-63529,-14660,0,0,0,418,527,264,463,415,471,561,430,381,292,241,464,0
2,1769098508784,1052,134,10045,20769,-62308,-14660,0,0,0,415,525,257,469,421,476,564,434,383,289,238,464,0
2,1769098508800,1052,134,10045,19547,-61086,-14660,0,0,0,415,526,258,468,420,475,564,435,383,291,236,469,0
2,1769098508816,1052,138,10045,18325,-61086,-14660,0,0,0,414,526,260,463,417,471,562,433,380,293,237,472,0
2,1769098508832,1057,138,10040,17104,-61086,-14660,0,0,0,414,526,257,464,417,470,562,432,380,293,240,470,0
2,1769098508848,1048,138,10031,12217,-59864,-13439,0,0,0,416,528,254,464,416,466,563,434,380,294,240,467,0
2,1769098508864,1038,143,10031,9773,-58643,-13439,0,0,0,417,529,256,462,414,465,562,435,380,293,239,466,0
2,1769098508880,1038,148,10045,9773,-57421,-13439,0,0,0,415,527,254,464,416,468,559,433,380,294,241,465,0
2,1769098508896,1052,153,10054,12217,-57421,-13439,0,0,0,412,525,251,468,418,471,561,434,382,296,241,464,0
2,1769098508912,1057,148,10059,15882,-57421,-13439,0,0,0,416,527,257,469,419,475,562,436,382,295,240,462,0
2,1769098508928,1043,148,10050,17104,-57421,-14660,0,0,0,416,527,254,472,423,477,561,437,385,292,239,459,0
2,1769098508944,1043,148,10050,17104,-57421,-14660,0,0,0,417,529,261,468,420,477,538,428,387,290,239,459,0
2,1769098508960,1052,153,10059,17104,-58643,-14660,0,0,0,415,528,258,470,423,480,562,438,390,291,241,459,0
2,1769098508976,1048,153,10059,19547,-58643,-14660,0,0,0,416,528,258,469,421,475,565,439,388,292,242,460,0
2,1769098508992,1043,153,10054,24434,-59864,-14660,0,0,0,419,531,259,470,422,475,559,435,384,293,241,462,0
2,1769098509008,1043,148,10050,29321,-59864,-15882,0,0,0,420,531,259,462,465,458,561,437,386,296,244,463,0
2,1769098509024,1043,143,10040,29321,-59864,-15882,0,0,0,424,532,258,463,448,463,563,437,386,295,241,462,0
2,1769098509040,1043,143,10040,30543,-61086,-15882,0,0,0,425,531,254,468,422,474,560,434,383,293,237,461,0
2,1769098509056,1048,153,10054,32986,-62308,-17104,0,0,0,422,530,252,466,421,473,558,430,381,290,237,461,0
2,1769098509072,1048,153,10054,34208,-62308,-17104,0,0,0,421,532,252,463,419,470,557,427,380,290,239,463,0
2,1769098509088,1043,143,10050,36651,-63529,-18325,0,0,0,425,534,252,464,420,469,557,427,380,294,240,464,0
2,1769098509104,1043,134,10050,34208,-61086,-17104,0,0,0,428,535,253,467,423,471,555,427,380,294,238,464,0
2,1769098509120,1043,129,10050,31764,-59864,-17104,0,0,0,429,534,255,464,422,469,556,428,381,293,238,465,0
2,1769098509136,1043,124,10050,29321,-59864,-17104,0,0,0,427,532,255,466,423,473,562,431,385,292,236,465,0
2,1769098509152,1043,129,10050,28099,-61086,-15882,0,0,0,432,533,256,466,421,472,563,431,388,290,235,461,0
2,1769098509168,1048,134,10050,26878,-61086,-17104,0,0,0,424,531,254,467,424,477,561,426,383,286,232,460,0
2,1769098509184,1048,129,10050,25656,-59864,-17104,0,0,0,423,531,253,469,427,478,562,427,386,292,238,463,0
2,1769098509200,1043,129,10050,25656,-59864,-17104,0,0,0,426,534,260,466,423,476,557,423,383,289,237,464,0
2,1769098509216,1043,129,10054,30543,-59864,-17104,0,0,0,426,533,257,466,422,476,548,421,384,289,236,465,0
2,1769098509232,1048,129,10059,31764,-61086,-17104,0,0,0,429,534,258,466,422,475,552,422,383,293,238,468,0
2,1769098509248,1043,129,10050,32986,-61086,-18325,0,0,0,427,532,256,466,423,475,557,424,382,294,237,469,0
2,1769098509264,1038,129,10040,31764,-59864,-18325,0,0,0,427,532,255,466,423,475,558,423,383,292,235,467,0
2,1769098509280,1038,124,10040,29321,-58643,-18325,0,0,0,431,533,257,465,421,475,560,423,383,300,236,464,0
2,1769098509296,1038,119,10054,29321,-58643,-17104,0,0,0,430,532,256,465,418,475,563,423,384,305,238,464,0
2,1769098509312,1033,119,10059,31764,-58643,-17104,0,0,0,429,534,257,464,419,474,563,423,387,291,235,468,0
2,1769098509328,1033,124,10059,34208,-58643,-17104,0,0,0,426,532,251,468,423,476,560,423,389,291,234,468,0
2,1769098509344,1038,119,10059,35430,-59864,-18325,0,0,0,421,528,239,464,419,471,555,419,385,290,233,472,0
2,1769098509360,1038,114,10059,35430,-59864,-18325,0,0,0,426,532,248,464,418,472,543,412,381,290,229,472,0
2,1769098509376,1024,110,10054,36651,-61086,-18325,0,0,0,420,528,243,465,424,475,561,420,386,297,236,476,0
2,1769098509392,1019,110,10040,32986,-59864,-18325,0,0,0,422,533,247,469,427,478,565,422,391,296,237,477,0
2,1769098509408,1024,110,10045,30543,-59864,-17104,0,0,0,420,529,243,467,427,477,565,421,391,293,235,475,0
2,1769098509424,1038,110,10054,30543,-59864,-17104,0,0,0,423,531,247,465,424,474,561,418,387,292,233,475,0
2,1769098509440,1033,110,10054,30543,-59864,-15882,0,0,0,422,529,246,461,421,472,561,417,386,298,236,479,0
2,1769098509456,1019,110,10059,30543,-58643,-15882,0,0,0,421,530,247,466,426,477,563,418,387,292,233,476,0
2,1769098509472,1024,110,10054,29321,-58643,-17104,0,0,0,423,533,250,464,424,477,565,416,387,293,233,476,0
2,1769098509488,1033,105,10054,29321,-58643,-17104,0,0,0,427,535,253,459,423,476,563,413,387,293,233,476,0
2,1769098509504,1038,105,10064,31764,-59864,-18325,0,0,0,430,537,257,458,424,476,562,413,388,295,232,474,0
2,1769098509520,1033,100,10064,32986,-61086,-19547,0,0,0,433,540,260,461,423,476,562,411,389,296,232,474,0
2,1769098509536,1033,100,10050,34208,-61086,-18325,0,0,0,434,540,261,463,424,478,560,410,390,291,230,473,0
2,1769098509552,1033,100,10045,31764,-59864,-18325,0,0,0,432,539,261,463,426,477,561,413,391,292,233,472,0
2,1769098509568,1028,95,10045,30543,-59864,-18325,0,0,0,433,539,261,460,425,475,557,407,388,311,250,471,0
2,1769098509584,1024,86,10050,30543,-59864,-17104,0,0,0,424,534,253,463,427,477,555,406,386,366,254,469,0
2,1769098509600,1024,86,10054,29321,-59864,-17104,0,0,0,434,542,264,464,428,480,554,406,386,292,234,476,0
2,1769098509616,1024,95,10050,28099,-59864,-17104,0,0,0,429,539,259,458,421,475,556,408,391,288,228,474,0
2,1769098509632,1024,90,10045,25656,-58643,-17104,0,0,0,426,538,257,458,422,475,557,410,390,288,230,474,0
2,1769098509648,1019,90,10045,24434,-58643,-15882,0,0,0,426,539,257,459,423,477,559,414,393,289,231,474,0
2,1769098509664,1024,90,10054,23212,-57421,-15882,0,0,0,429,539,257,463,427,480,557,413,393,291,232,477,0
2,1769098509680,1024,90,10054,23212,-57421,-15882,0,0,0,437,539,259,464,428,481,554,411,390,289,228,477,0
2,1769098509696,1019,95,10059,24434,-58643,-15882,0,0,0,441,539,258,463,427,479,551,409,390,286,226,474,0
2,1769098509712,1019,90,10059,25656,-58643,-15882,0,0,0,439,537,258,464,428,479,549,409,387,289,229,475,0
2,1769098509728,1009,81,10054,24434,-58643,-17104,0,0,0,433,535,257,465,429,481,548,409,387,294,232,477,0
2,1769098509744,1014,81,10054,23212,-58643,-17104,0,0,0,429,534,254,463,426,478,550,408,388,294,232,477,0
2,1769098509760,1024,81,10050,21991,-58643,-15882,0,0,0,430,536,254,461,424,474,549,408,387,293,231,476,0
2,1769098509776,1019,86,10045,20769,-57421,-14660,0,0,0,433,538,259,464,424,477,548,409,389,293,232,476,0
2,1769098509792,1014,81,10050,20769,-57421,-14660,0,0,0,434,540,262,465,426,479,546,413,391,292,234,476,0
2,1769098509808,1014,76,10054,20769,-57421,-14660,0,0,0,431,538,257,466,426,478,524,403,385,288,230,472,0
2,1769098509824,1014,81,10064,20769,-57421,-15882,0,0,0,432,539,258,466,427,478,551,417,392,294,233,476,0
2,1769098509840,1009,86,10064,20769,-57421,-14660,0,0,0,431,537,256,461,425,476,550,414,390,294,233,476,0
2,1769098509856,1009,90,10059,18325,-57421,-14660,0,0,0,430,536,256,464,425,478,550,414,389,293,233,475,0
2,1769098509872,1014,81,10054,17104,-56199,-14660,0,0,0,431,536,256,462,424,476,550,412,389,300,233,476,0
2,1769098509888,1019,76,10054,17104,-56199,-14660,0,0,0,429,534,257,466,429,481,549,411,389,295,231,476,0
2,1769098509904,1024,81,10054,17104,-56199,-15882,0,0,0,430,536,257,466,429,481,549,411,387,292,230,474,0
2,1769098509920,1028,90,10050,18325,-56199,-15882,0,0,0,429,535,256,462,425,478,550,413,388,293,233,475,0
2,1769098509936,1019,90,10050,17104,-56199,-15882,0,0,0,430,536,257,461,424,477,551,414,391,295,236,477,0
2,1769098509952,1014,90,10054,14660,-54977,-14660,0,0,0,433,538,259,464,427,479,551,413,390,295,233,478,0
2,1769098509968,1019,90,10059,14660,-54977,-14660,0,0,0,434,539,259,464,427,479,552,416,390,293,231,477,0
2,1769098509984,1024,90,10059,14660,-54977,-14660,0,0,0,435,540,259,462,426,477,553,417,391,293,233,477,0
2,1769098510000,1014,100,10054,14660,-54977,-14660,0,0,0,433,539,258,465,427,480,552,415,390,293,233,477,0
2,1769098510016,1009,100,10054,14660,-54977,-14660,0,0,0,433,539,261,468,430,482,550,413,389,297,236,479,0
2,1769098510032,1014,95,10064,14660,-54977,-14660,0,0,0,437,542,265,467,427,481,551,415,390,296,236,478,0
2,1769098510048,1014,86,10059,14660,-54977,-14660,0,0,0,431,536,258,465,426,482,554,418,394,295,236,476,0
2,1769098510064,1014,86,10054,14660,-53756,-14660,0,0,0,434,540,261,461,424,479,549,416,390,298,237,480,0
2,1769098510080,1014,90,10050,13439,-53756,-15882,0,0,0,436,542,261,462,424,480,552,417,392,292,232,474,0
2,1769098510096,1033,100,10059,13439,-53756,-13439,0,0,0,433,539,260,466,443,478,555,421,395,298,238,482,0
2,1769098510112,1038,105,10074,17104,-56199,-13439,0,0,0,432,537,260,464,432,481,553,419,393,296,236,479,0
2,1769098510128,1033,95,10074,20769,-57421,-13439,0,0,0,431,537,260,461,426,479,553,419,393,294,237,478,0
2,1769098510144,1019,81,10054,21991,-57421,-13439,0,0,0,431,537,260,463,426,479,554,422,394,294,237,479,0
2,1769098510160,1019,81,10040,19547,-57421,-14660,0,0,0,433,538,262,461,460,463,553,420,392,295,237,478,0
2,1769098510176,1019,90,10040,15882,-56199,-13439,0,0,0,432,538,262,459,459,461,550,417,388,294,235,477,0
2,1769098510192,1019,100,10050,14660,-57421,-13439,0,0,0,431,538,262,460,425,475,551,419,388,294,233,475,0
2,1769098510208,1014,100,10059,15882,-57421,-13439,0,0,0,433,540,264,459,424,473,554,423,392,294,234,473,0
2,1769098510224,1009,100,10045,12217,-57421,-13439,0,0,0,431,537,260,461,427,476,552,422,391,291,237,470,0
2,1769098510240,1009,100,10035,7330,-56199,-12217,0,0,0,434,542,265,461,427,476,549,421,388,292,238,469,0
2,1769098510256,1005,100,10040,1221,-54977,-8552,0,0,0,435,543,267,466,431,481,549,421,384,298,241,472,0
2,1769098510272,1005,100,10045,0,-54977,-7330,0,0,0,432,540,267,463,424,476,556,430,390,297,244,470,0
2,1769098510288,1005,100,10040,-7330,-54977,-7330,0,0,0,432,536,267,458,422,474,550,427,382,292,239,463,0
2,1769098510304,1005,100,10016,-20769,-51312,-4886,0,0,0,425,532,262,459,424,474,550,428,375,292,237,455,0
2,1769098510320,1005,110,10016,-40317,-48869,-1221,0,0,0,425,533,261,457,420,465,544,429,369,289,233,450,0
2,1769098510336,1028,138,10040,-53756,-47647,0,0,0,0,425,534,264,452,415,457,543,434,368,290,238,447,0
2,1769098510352,1024,153,10064,-53756,-47647,0,0,0,0,424,532,264,452,415,456,546,437,366,287,238,439,0
2,1769098510368,1024,167,10083,-48869,-47647,0,0,0,0,420,530,263,450,415,456,535,436,366,283,237,432,0
2,1769098510384,1043,177,10098,-39095,-47647,0,0,0,0,414,526,259,445,413,455,530,438,362,283,239,426,0
2,1769098510400,1057,196,10112,-25656,-50090,0,0,0,0,416,525,255,444,413,452,537,442,350,287,245,419,0
2,1769098510416,1067,210,10131,-6108,-54977,-4886,0,0,0,419,524,254,444,412,446,531,444,342,287,250,411,0
2,1769098510432,1072,220,10141,20769,-64751,-13439,0,0,0,401,518,255,435,409,437,524,444,339,308,261,402,0
2,1769098510448,1057,234,10136,58643,-76969,-21991,0,0,0,392,514,249,431,406,430,519,448,339,385,301,384,0
2,1769098510464,1009,210,10074,89186,-89186,-26878,0,0,0,390,511,250,435,409,438,520,452,342,283,255,404,0
2,1769098510480,981,148,9992,94073,-90408,-25656,0,0,0,377,505,240,425,404,428,517,452,339,278,256,391,0
2,1769098510496,981,95,9959,68416,-79412,-23212,0,0,0,373,500,232,427,405,428,520,457,340,279,258,383,0
2,1769098510512,1005,114,10035,48869,-65973,-23212,0,0,0,363,499,230,433,406,429,521,454,335,284,262,377,0
2,1769098510528,1009,172,10107,58643,-65973,-24434,0,0,0,365,501,230,432,404,426,528,461,336,287,259,377,0
2,1769098510544,985,191,10026,76969,-81855,-25656,0,0,0,370,505,233,432,403,425,531,458,340,288,258,379,0
2,1769098510560,957,114,9853,37873,-92851,-17104,0,0,0,373,506,236,432,404,428,532,454,341,290,261,382,0
2,1769098510576,961,52,9897,-20769,-87964,-13439,0,0,0,376,508,240,432,408,432,532,457,342,287,261,385,0
2,1769098510592,1019,162,10193,-2443,-85521,-19547,0,0,0,389,516,249,437,414,439,537,459,346,284,257,394,0
2,1769098510608,1048,301,10332,119729,-122173,-36651,0,0,0,406,524,255,444,420,446,541,457,350,289,256,411,0
2,1769098510624,981,153,9997,194255,-185703,-51312,0,0,0,418,528,256,450,425,449,542,455,353,298,259,429,0
2,1769098510640,894,-28,9810,150272,-217468,-53756,0,0,0,434,540,259,457,438,456,552,455,364,297,259,449,0
2,1769098510656,918,67,10160,103847,-212581,-51312,0,0,0,456,557,268,466,463,463,556,456,366,302,263,480,0
2,1769098510672,1057,229,10504,228463,-287106,-70860,0,0,0,487,562,297,476,466,473,559,456,371,303,249,499,0
2,1769098510688,942,110,10279,370184,-419053,-101403,0,0,0,490,568,281,470,460,468,552,462,387,308,254,513,0
2,1769098510704,435,-229,9322,324980,-444709,-95294,0,0,0,509,576,332,491,472,493,561,460,400,310,259,520,0
2,1769098510720,306,-311,9131,63529,-270002,-34208,0,0,0,517,584,370,491,493,501,585,462,382,320,268,549,0
2,1769098510736,626,-95,10078,-94073,-135612,2443,0,0,0,530,601,374,490,482,512,592,462,390,317,257,565,0
2,1769098510752,947,167,11184,17104,-125838,-19547,0,0,0,535,602,352,498,484,511,578,463,390,317,250,572,0
2,1769098510768,961,153,11347,287106,-162490,-75747,0,0,0,538,603,311,503,498,504,558,445,387,362,262,573,0
2,1769098510784,823,-28,11222,513126,-196698,-114842,0,0,0,533,600,270,512,524,487,537,432,388,345,247,584,0
2,1769098510800,655,-14,12189,761138,-206472,-105068,0,0,0,534,600,250,507,525,491,487,389,388,318,230,590,0
2,1769098510816,339,253,14457,1248608,-106290,-68416,0,0,0,540,596,242,484,504,491,411,327,379,319,231,587,0
2,1769098510832,445,713,17870,2208888,197920,0,0,0,0,535,576,232,462,486,472,339,262,366,306,221,575,0
2,1769098510848,1349,1143,20732,3481931,415388,-2443,0,0,0,501,549,223,452,469,461,301,193,366,270,186,527,0
2,1769098510864,2493,1445,22316,4885700,361632,-191811,0,0,0,428,527,209,434,440,446,311,168,363,249,166,439,0
2,1769098510880,2943,579,23594,5671272,174707,-448375,0,0,0,331,470,190,395,387,407,330,176,330,216,149,358,0
2,1769098510896,5154,-2981,21603,5181358,430049,-643851,0,0,0,253,466,190,372,382,402,343,195,332,188,147,296,0
2,1769098510912,6934,-9868,11715,3182607,1069014,-1158200,0,0,0,268,467,194,381,381,405,347,203,333,192,147,290,0
2,1769098510928,3632,-13409,1584,543670,974940,-1881464,0,0,0,252,458,198,369,373,400,347,210,333,176,141,272,0
2,1769098510944,110,-12998,-287,-775798,458148,-1461189,0,0,0,249,454,192,370,375,397,347,225,326,176,145,263,0
2,1769098510960,-617,-6709,1474,45204,171042,266337,0,0,0,242,452,188,367,369,390,345,225,322,174,146,252,0
2,1769098510976,-1000,890,1167,480140,96516,1488067,0,0,0,243,448,186,364,360,381,346,229,321,171,141,236,0
2,1769098510992,-1387,6977,-564,-96516,101403,1645670,0,0,0,241,448,182,361,361,377,343,245,310,164,140,225,0
2,1769098511008,-1943,9107,-923,-1213178,163711,1001818,0,0,0,241,445,183,356,364,375,335,266,294,159,143,217,0
2,1769098511024,-2579,8078,258,-2597398,56199,184481,0,0,0,241,440,182,348,363,367,327,281,281,153,145,209,0
2,1769098511040,-2340,5096,871,-3577226,-226020,-335975,0,0,0,240,441,182,342,363,360,320,293,270,152,151,202,0
2,1769098511056,-1646,1296,622,-3792251,-414166,-634078,0,0,0,239,446,182,341,363,360,317,297,264,160,162,202,0
2,1769098511072,-2139,-2641,469,-3354871,-375071,-883311,0,0,0,236,448,180,344,369,363,315,295,265,172,177,208,0
2,1769098511088,-3369,-7365,789,-2310292,-357967,-1061683,0,0,0,230,449,181,347,381,368,307,294,267,185,199,212,0
2,1769098511104,-3689,-11409,1426,-515570,-576656,-1273043,0,0,0,230,455,181,344,371,365,302,287,270,198,215,212,0
2,1769098511120,-3034,-8949,2325,1031140,-812450,-1271821,0,0,0,232,457,181,351,378,371,305,288,270,209,228,217,0
2,1769098511136,-2546,-4407,2943,1463633,-869872,-608421,0,0,0,238,457,185,354,382,375,316,296,277,192,204,219,0
2,1769098511152,-1325,-4082,2187,973719,-725707,750142,0,0,0,240,456,186,355,382,378,322,298,284,197,202,226,0
2,1769098511168,1000,-6992,440,1347568,-537561,1966986,0,0,0,402,520,199,426,441,439,321,265,319,251,187,457,0
2,1769098511184,3531,-2909,1545,1904677,-202807,2357939,0,0,0,468,549,201,459,465,456,394,309,337,274,194,515,0
2,1769098511200,4158,3082,17798,-1210734,559552,1584584,0,0,0,464,572,315,458,461,455,540,409,363,335,294,458,0
2,1769098511216,5144,5269,35180,-7590611,586430,831998,0,0,0,462,587,410,464,458,459,614,471,369,502,480,413,0
2,1769098511232,5029,6704,43144,-8630304,-140499,480140,0,0,0,477,600,409,462,457,468,585,469,372,563,553,437,0
2,1769098511248,3723,6944,32600,-3850894,-601091,197920,0,0,0,492,609,376,468,467,484,566,453,378,539,519,484,0
2,1769098511264,1689,2392,13405,1187522,-299323,-215024,0,0,0,496,610,367,475,476,496,571,461,388,511,486,510,0
2,1769098511280,57,-1368,5881,1521054,-194255,-301767,0,0,0,501,613,376,474,480,499,567,467,395,504,487,515,0
2,1769098511296,-215,-1454,7279,197920,-204028,-152716,0,0,0,512,621,398,474,482,501,568,465,397,533,515,511,0
2,1769098511312,617,603,11442,-525344,-155159,21991,0,0,0,515,623,415,472,479,501,568,468,397,541,525,510,0
2,1769098511328,1081,732,11323,-64751,-91629,6108,0,0,0,509,618,409,469,479,500,569,473,398,530,513,505,0
2,1769098511344,732,110,10069,139277,-81855,-46425,0,0,0,503,617,397,474,480,502,567,480,400,479,469,485,0
2,1769098511360,607,95,10088,75747,-46425,-46425,0,0,0,500,624,361,470,479,493,557,477,389,470,468,481,0
2,1769098511376,626,114,10031,45204,-20769,-35430,0,0,0,499,613,353,460,469,475,550,461,385,463,454,477,0
2,1769098511392,545,47,9767,-4886,17104,-17104,0,0,0,482,598,309,464,473,472,557,473,387,318,312,481,0
2,1769098511408,583,71,9839,-76969,80634,4886,0,0,0,470,583,296,463,469,468,550,471,375,308,306,474,0
2,1769098511424,732,153,10088,-92851,123394,13439,0,0,0,448,566,273,465,459,465,543,468,360,295,286,459,0
2,1769098511440,794,172,10126,-74525,138055,13439,0,0,0,427,550,252,456,445,455,537,463,349,294,272,448,0
2,1769098511456,832,181,10083,-62308,139277,12217,0,0,0,417,541,256,441,425,439,517,448,353,386,375,425,0
2,1769098511472,899,229,10102,-43982,131946,9773,0,0,0,402,535,265,437,419,443,513,447,354,360,348,415,0
2,1769098511488,976,272,10160,-4886,103847,4886,0,0,0,388,533,252,437,420,441,517,453,341,280,262,412,0
2,1769098511504,981,272,10131,40317,63529,0,0,0,0,381,529,246,432,414,434,508,449,332,273,256,399,0
2,1769098511520,961,248,10035,67195,26878,0,0,0,0,379,525,249,429,411,437,507,449,333,273,255,393,0
2,1769098511536,938,196,9911,50090,4886,1221,0,0,0,383,525,233,431,411,428,503,450,332,272,257,393,0
2,1769098511552,918,191,9810,-9773,-1221,4886,0,0,0,387,523,225,433,414,420,482,442,330,269,257,386,0
2,1769098511568,971,234,9892,-56199,-10995,8552,0,0,0,390,529,230,431,416,422,517,465,332,272,264,396,0
2,1769098511584,1009,287,10040,-50090,-34208,3665,0,0,0,388,527,230,442,421,437,520,465,332,271,262,399,0
2,1769098511600,1000,287,10083,-26878,-56199,0,0,0,0,397,533,242,445,424,445,530,475,344,270,262,400,0
2,1769098511616,990,291,10059,-7330,-69638,-1221,0,0,0,410,539,246,444,423,439,551,472,352,279,264,414,0
2,1769098511632,990,335,10002,8552,-85521,-1221,0,0,0,426,545,268,448,429,444,541,468,348,281,262,420,0
2,1769098511648,957,296,9944,12217,-109955,-1221,0,0,0,444,553,286,449,432,450,542,469,353,287,270,432,0
2,1769098511664,894,220,9978,-8552,-122173,0,0,0,0,450,557,286,451,433,456,545,468,352,290,270,438,0
2,1769098511680,918,248,10122,-29321,-103847,2443,0,0,0,462,562,293,454,435,458,551,469,352,296,271,450,0
2,1769098511696,1000,325,10256,0,-84299,-4886,0,0,0,467,566,298,457,438,460,551,467,355,296,271,452,0
2,1769098511712,1024,358,10289,58643,-69638,-20769,0,0,0,466,568,295,461,441,465,552,466,363,298,273,454,0
2,1769098511728,981,325,10227,119729,-58643,-36651,0,0,0,468,568,294,461,443,468,552,468,368,299,271,460,0
2,1769098511744,961,282,10203,155159,-52534,-42760,0,0,0,472,571,293,459,445,470,543,457,369,294,257,462,0
2,1769098511760,995,253,10279,194255,-56199,-51312,0,0,0,469,572,279,466,454,474,523,423,377,295,239,471,0
2,1769098511776,1110,268,10509,284663,-90408,-68416,0,0,0,459,569,262,472,459,472,473,391,373,295,231,478,0
2,1769098511792,1292,263,10892,474031,-172263,-106290,0,0,0,457,570,236,471,465,463,476,366,368,355,296,482,0
2,1769098511808,1612,229,11753,792903,-335975,-167377,0,0,0,469,561,228,464,472,462,449,358,371,286,218,490,0
2,1769098511824,1818,287,13529,1295034,-560774,-255341,0,0,0,474,544,215,464,491,454,410,328,347,284,208,497,0
2,1769098511840,1579,464,15300,1892460,-594982,-326202,0,0,0,470,529,212,443,465,450,367,320,336,270,205,485,0
2,1769098511856,1670,430,16161,2511877,-537561,-375071,0,0,0,453,524,212,444,454,437,358,303,324,267,195,459,0
2,1769098511872,2206,157,16329,3060434,-507018,-437379,0,0,0,396,511,195,434,441,418,348,307,309,259,192,421,0
2,1769098511888,3149,-119,16247,3457497,-575435,-561996,0,0,0,342,495,186,409,417,393,334,312,282,248,191,385,0
2,1769098511904,4312,-425,15429,3582113,-624304,-775798,0,0,0,291,473,176,383,401,375,340,334,275,225,193,316,0
2,1769098511920,5250,-497,13452,3378084,-621860,-1071457,0,0,0,250,449,172,361,382,361,341,357,268,196,198,249,0
2,1769098511936,5503,3254,10782,2733011,-558330,-1459967,0,0,0,236,440,175,348,372,351,337,369,261,180,200,217,0
2,1769098511952,6245,10887,8518,1644449,-433714,-1800830,0,0,0,241,441,177,346,373,348,335,368,257,177,199,210,0
2,1769098511968,6264,16549,6939,251676,-219911,-1996307,0,0,0,244,438,178,343,371,348,332,365,251,174,198,204,0
2,1769098511984,5403,16630,5886,-939510,-51312,-1756848,0,0,0,244,439,180,339,369,348,330,365,245,172,197,201,0
2,1769098512000,5790,14649,4862,-1378111,207694,-1169196,0,0,0,248,446,186,341,370,342,333,364,242,173,198,196,0
2,1769098512016,5934,13893,4900,-1645670,678060,-607200,0,0,0,257,456,195,337,365,338,329,360,238,169,191,191,0
2,1769098512032,4895,13620,6231,-2020742,1133765,-157603,0,0,0,259,451,194,339,367,336,336,360,239,173,195,191,0
2,1769098512048,3594,12299,7762,-2474004,1326799,188146,0,0,0,260,451,192,341,367,337,337,359,239,175,190,192,0
2,1769098512064,2450,10610,9265,-2869844,1412320,482583,0,0,0,250,451,187,339,367,339,335,363,240,175,196,194,0
2,1769098512080,1545,9026,10710,-3158173,1417207,701273,0,0,0,242,447,183,337,370,340,329,368,243,169,198,192,0
2,1769098512096,703,7327,12376,-3386636,1376890,890641,0,0,0,241,445,182,343,377,344,332,367,246,171,196,192,0
2,1769098512112,-57,5728,13993,-3554013,1308473,1056796,0,0,0,240,444,179,343,372,343,334,364,247,185,226,195,0
2,1769098512128,-464,3938,15472,-3699399,1171639,1246165,0,0,0,241,445,181,340,373,342,330,367,246,177,215,195,0
2,1769098512144,33,1091,16266,-3813020,963945,1486845,0,0,0,242,444,181,341,375,343,332,371,248,171,201,196,0
2,1769098512160,818,-1914,16099,-3748269,828333,1633453,0,0,0,242,444,179,344,378,344,333,370,249,174,202,197,0
2,1769098512176,1564,-4819,15501,-3461162,734260,1615127,0,0,0,242,448,179,346,383,347,333,368,249,173,202,196,0
2,1769098512192,2335,-8054,14706,-3039665,632856,1453859,0,0,0,243,450,183,344,383,346,335,369,250,172,200,196,0
2,1769098512208,2689,-11237,13754,-2563190,593761,1221730,0,0,0,243,450,183,343,378,344,335,368,250,171,195,196,0
2,1769098512224,2517,-14697,12711,-1905899,598647,999375,0,0,0,241,451,183,343,377,344,334,364,253,170,194,195,0
2,1769098512240,1837,-16932,11921,-1045801,585208,779464,0,0,0,241,450,182,343,376,345,313,351,257,167,197,193,0
2,1769098512256,1287,-17630,11438,-224798,520457,524122,0,0,0,241,454,185,343,376,345,336,367,250,170,200,197,0
2,1769098512272,397,-17525,11663,412944,386066,244346,0,0,0,238,426,179,339,351,335,354,421,239,186,230,194,0
2,1769098512288,-5312,-21435,15300,1458746,-401949,373849,0,0,0,236,410,165,339,348,327,375,461,231,236,305,175,0
2,1769098512304,-7250,-16228,16649,3343876,-1696983,1042136,0,0,0,239,412,159,347,355,334,408,464,238,219,308,176,0
2,1769098512320,-3417,-301,15386,4238183,-1589471,1508837,0,0,0,237,410,165,344,344,341,402,497,237,318,431,171,0
2,1769098512336,-2881,3780,15309,3650530,-533896,839328,0,0,0,241,421,175,354,353,355,449,501,251,278,408,188,0
2,1769098512352,-1287,1340,15424,2897944,-175929,-193033,0,0,0,246,436,186,361,369,367,501,510,270,260,397,207,0
2,1769098512368,2167,-1095,14300,2178345,-469144,-540004,0,0,0,252,442,199,367,365,369,527,546,277,375,486,230,0
2,1769098512384,2167,-291,12596,1469741,-511905,-57421,0,0,0,268,458,215,376,366,374,542,563,278,473,560,252,0
2,1769098512400,713,148,11337,616973,-388510,222354,0,0,0,295,479,231,393,378,388,554,557,282,495,580,277,0
2,1769098512416,526,119,10815,158824,-305432,90408,0,0,0,321,488,252,409,382,401,562,559,288,511,589,311,0
2,1769098512432,789,459,10299,-54977,-243124,-20769,0,0,0,342,496,276,408,380,406,570,564,295,528,590,333,0
2,1769098512448,947,780,10150,23212,-183259,-14660,0,0,0,363,508,268,413,389,405,577,572,299,532,593,327,0
2,1769098512464,894,760,10145,103847,-133168,3665,0,0,0,390,519,283,415,392,414,582,573,300,534,590,346,0
2,1769098512480,856,674,10136,130725,-116064,0,0,0,0,400,523,305,423,393,418,585,569,300,517,563,351,0
2,1769098512496,832,650,10136,131946,-101403,-6108,0,0,0,405,530,296,440,409,433,600,580,305,370,427,367,0
2,1769098512512,818,665,10131,142942,-65973,-8552,0,0,0,411,528,302,440,411,438,597,571,319,336,394,381,0
2,1769098512528,823,670,10131,167377,-25656,-9773,0,0,0,421,533,315,437,407,434,593,556,339,341,385,389,0
2,1769098512544,856,660,10136,202807,1221,-19547,0,0,0,425,535,323,436,409,433,591,540,336,326,352,398,0
2,1769098512560,885,622,10141,252898,19547,-31764,0,0,0,426,536,314,440,416,436,580,530,342,419,422,395,0
2,1769098512576,914,583,10136,295658,30543,-43982,0,0,0,428,542,301,445,431,439,580,520,350,386,379,409,0
2,1769098512592,952,526,10131,313984,28099,-52534,0,0,0,430,553,298,447,437,445,586,498,349,309,285,434,0
2,1769098512608,957,459,10126,328645,20769,-64751,0,0,0,431,559,294,446,435,450,586,471,353,296,254,451,0
2,1769098512624,938,411,10117,337197,7330,-74525,0,0,0,433,563,288,446,438,453,579,448,360,295,245,460,0
2,1769098512640,933,358,10102,340862,-17104,-78190,0,0,0,442,574,294,451,445,458,566,424,359,301,240,467,0
2,1769098512656,938,311,10102,348193,-48869,-79412,0,0,0,453,572,295,459,456,462,554,412,360,290,225,478,0
2,1769098512672,942,263,10131,366519,-70860,-80634,0,0,0,458,565,286,468,468,468,542,401,357,295,221,486,0
2,1769098512688,938,205,10169,398284,-97738,-80634,0,0,0,468,577,294,470,477,474,551,385,367,296,221,502,0
2,1769098512704,914,114,10126,422718,-114842,-75747,0,0,0,473,582,295,463,466,469,530,374,361,296,218,519,0
2,1769098512720,938,28,10098,443488,-116064,-75747,0,0,0,481,591,291,482,478,493,522,372,372,294,217,531,0
2,1769098512736,985,-9,10198,472809,-118507,-89186,0,0,0,490,593,280,483,484,491,519,376,376,300,218,538,0
2,1769098512752,1100,-47,10399,544891,-138055,-113620,0,0,0,497,601,273,486,495,495,524,379,385,296,214,545,0
2,1769098512768,1215,-114,10605,646295,-136833,-160046,0,0,0,497,603,257,492,500,492,523,375,404,297,214,555,0
2,1769098512784,1148,-143,10859,768468,-111177,-222354,0,0,0,494,607,241,508,518,510,518,375,407,300,223,567,0
2,1769098512800,918,-181,11323,956614,-78190,-255341,0,0,0,503,605,231,520,524,520,483,378,412,302,222,589,0
2,1769098512816,751,-253,11988,1230282,-39095,-250454,0,0,0,511,598,223,530,527,535,461,372,425,307,220,610,0
2,1769098512832,464,-263,12677,1604132,8552,-199142,0,0,0,515,598,220,537,541,554,459,364,433,309,221,618,0
2,1769098512848,205,-306,13299,2096489,69638,-87964,0,0,0,529,604,220,535,549,546,434,361,438,305,219,624,0
2,1769098512864,574,-454,13864,2572964,123394,6108,0,0,0,542,604,219,530,542,530,405,354,438,321,240,636,0
2,1769098512880,1617,-650,14649,3160616,96516,-17104,0,0,0,539,591,220,520,544,529,369,341,414,346,272,640,0
2,1769098512896,2584,-784,15577,3777590,-14660,-171042,0,0,0,540,588,228,522,549,554,340,323,420,297,217,623,0
2,1769098512912,3000,-899,17439,4462981,-151494,-390953,0,0,0,534,584,226,509,541,535,307,299,424,284,212,600,0
2,1769098512928,3814,-1215,20148,5324301,-317649,-630412,0,0,0,522,576,218,504,533,523,285,245,412,275,202,542,0
2,1769098512944,4580,-1966,24139,6301685,-474031,-880867,0,0,0,484,559,205,487,522,511,275,202,386,266,187,479,0
2,1769098512960,5010,-2440,27829,7184996,-469144,-1070235,0,0,0,448,532,192,467,493,488,272,179,368,257,180,451,0
2,1769098512976,5163,-1943,29810,7909483,-326202,-1264491,0,0,0,392,499,178,430,461,434,277,194,324,245,178,424,0
2,1769098512992,4929,378,31734,8437270,-141720,-1496619,0,0,0,313,460,185,387,418,393,298,228,295,212,168,340,0
2,1769098513008,7441,5451,31193,8483696,-223576,-1784948,0,0,0,252,436,172,359,390,363,317,264,294,175,156,248,0
2,1769098513024,10275,14505,23469,7876496,-328645,-2247984,0,0,0,238,435,161,348,384,349,312,282,283,156,151,209,0
2,1769098513040,9686,23436,13338,5845980,-326202,-2305405,0,0,0,242,436,164,343,376,345,306,282,264,152,149,203,0
2,1769098513056,7016,29605,9236,1142317,-271224,-1403768,0,0,0,240,430,159,339,362,338,311,280,255,152,147,195,0
2,1769098513072,4627,23340,12218,-3506366,-485026,37873,0,0,0,236,427,159,335,360,329,307,286,249,148,145,183,0
2,1769098513088,6044,12859,10222,-4951673,-808785,608421,0,0,0,231,426,162,332,359,329,303,294,246,147,150,183,0
2,1769098513104,7891,7887,6642,-5042081,-460592,285884,0,0,0,227,424,161,332,358,329,298,299,241,155,165,187,0
2,1769098513120,6350,8121,7336,-5545434,511905,-348193,0,0,0,233,431,163,325,352,317,295,307,238,158,175,180,0
2,1769098513136,3254,7843,10289,-6429967,1175304,-663399,0,0,0,223,425,153,329,361,321,293,314,235,172,223,179,0
2,1769098513152,1158,5876,12596,-6998072,1275486,-576656,0,0,0,218,423,153,329,362,322,288,315,229,169,234,175,0
2,1769098513168,1143,3685,13031,-6856351,1326799,-331088,0,0,0,224,421,159,330,366,327,295,338,239,158,194,182,0
2,1769098513184,971,2383,14051,-6561914,1576032,-91629,0,0,0,221,419,156,327,365,323,298,343,238,153,181,180,0
2,1769098513200,378,2459,16386,-6426302,1803274,163711,0,0,0,221,422,157,328,367,325,300,348,238,151,181,178,0
2,1769098513216,105,2914,18612,-6537479,1894903,425162,0,0,0,222,424,159,330,366,326,303,352,240,153,183,180,0
2,1769098513232,105,3010,20689,-6783047,1942551,737925,0,0,0,224,423,159,329,363,325,302,352,239,152,183,180,0
2,1769098513248,516,2469,22928,-6886894,1986533,1122770,0,0,0,224,422,160,329,362,327,302,349,240,152,182,179,0
2,1769098513264,1119,1684,25934,-6891781,2024407,1578475,0,0,0,226,423,163,331,361,329,303,345,242,156,181,181,0
2,1769098513280,1789,-741,29193,-6913772,1963320,2145358,0,0,0,231,424,166,331,360,327,306,343,241,153,175,178,0
2,1769098513296,2866,-5900,31662,-6903998,1861917,2581516,0,0,0,229,422,164,335,360,328,317,344,247,156,175,179,0
2,1769098513312,3163,-15175,32773,-6615670,1738522,2613281,0,0,0,231,424,162,341,366,330,322,343,252,162,176,178,0
2,1769098513328,3192,-26154,29327,-5747020,1275486,2052507,0,0,0,228,423,159,329,376,326,328,348,256,168,180,184,0
2,1769098513344,3402,-36142,21593,-4329812,884532,1071457,0,0,0,231,424,162,347,359,338,328,349,260,168,180,187,0
2,1769098513360,-1349,-40617,14993,-2613281,962723,-201585,0,0,0,232,428,166,346,361,337,329,351,264,168,182,189,0
2,1769098513376,-7255,-42009,13060,-1170417,730594,-1119105,0,0,0,231,423,163,349,361,338,324,348,260,166,173,185,0
2,1769098513392,-9126,-41138,14505,145385,-32986,-1459967,0,0,0,229,379,153,332,323,329,391,438,246,198,268,180,0
2,1769098513408,-8633,-31409,21421,2288301,-1751961,-1071457,0,0,0,231,346,157,318,297,328,428,463,251,222,354,182,0
2,1769098513424,-4115,-9873,22187,4856378,-3864333,-164933,0,0,0,232,346,157,323,298,338,446,487,250,276,424,176,0
2,1769098513440,1186,6781,19138,6753726,-3655417,963945,0,0,0,237,357,161,335,302,352,475,500,260,293,438,191,0
2,1769098513456,-2368,1536,22861,5834984,-1143539,978606,0,0,0,246,371,163,348,307,356,492,524,261,346,472,194,0
2,1769098513472,-3201,-2230,22679,4080579,23212,202807,0,0,0,255,395,176,362,322,369,519,552,265,377,496,201,0
2,1769098513488,957,-531,15601,2547308,-282219,-317649,0,0,0,269,426,217,378,344,398,568,569,299,345,477,240,0
2,1769098513504,2129,890,11055,1705535,-536339,18325,0,0,0,287,457,250,396,365,412,589,593,324,368,490,282,0
2,1769098513520,957,23,10892,769690,-507018,229685,0,0,0,306,474,254,404,379,412,595,613,307,388,497,321,0
2,1769098513536,330,-71,11165,201585,-340862,100181,0,0,0,323,495,297,411,388,429,594,619,314,449,533,328,0
2,1769098513552,536,670,10433,-7330,-191811,-15882,0,0,0,335,498,269,417,397,427,593,625,306,457,552,329,0
2,1769098513568,890,1124,9944,48869,-124616,-17104,0,0,0,350,501,268,424,398,424,598,636,318,461,556,346,0
2,1769098513584,837,995,10117,72082,-87964,2443,0,0,0,360,503,280,419,394,425,592,634,316,485,572,338,0
2,1769098513600,732,909,10232,81855,-53756,-3665,0,0,0,366,506,291,402,441,416,592,620,311,450,521,345,0
2,1769098513616,713,961,10165,125838,-23212,-19547,0,0,0,376,514,301,410,410,424,596,619,319,374,441,363,0
2,1769098513632,737,990,10098,186924,-6108,-24434,0,0,0,380,517,298,416,396,420,589,603,320,363,421,381,0
2,1769098513648,760,933,10093,248011,0,-24434,0,0,0,388,522,291,417,399,417,576,584,316,352,407,381,0
2,1769098513664,760,851,10093,265115,3665,-29321,0,0,0,389,525,282,421,402,424,571,561,315,330,382,380,0
2,1769098513680,765,799,10074,262672,13439,-37873,0,0,0,385,523,273,430,404,434,566,533,315,379,397,381,0
2,1769098513696,799,770,10040,248011,23212,-45204,0,0,0,390,522,271,435,405,437,556,516,320,415,401,387,0
2,1769098513712,837,741,10007,243124,8552,-52534,0,0,0,397,526,270,432,408,431,554,510,329,324,321,405,0
2,1769098513728,871,722,10002,251676,-20769,-59864,0,0,0,400,533,270,431,412,435,553,495,331,295,282,415,0
2,1769098513744,875,684,10021,271224,-63529,-67195,0,0,0,419,541,274,435,420,437,552,476,349,297,276,428,0
2,1769098513760,847,641,10050,295658,-103847,-76969,0,0,0,431,549,283,443,433,440,541,459,348,296,268,437,0
2,1769098513776,799,603,10088,327423,-131946,-85521,0,0,0,436,564,305,447,438,457,539,439,347,294,255,459,0
2,1769098513792,804,531,10150,355523,-147829,-87964,0,0,0,450,577,296,455,451,465,537,429,366,294,247,483,0
2,1769098513808,871,464,10256,397062,-173485,-102625,0,0,0,461,587,293,473,467,477,526,408,362,295,239,499,0
2,1769098513824,947,406,10390,486248,-211359,-135612,0,0,0,485,595,302,485,484,490,515,391,366,290,233,522,0
2,1769098513840,1038,315,10605,619417,-260228,-182037,0,0,0,497,602,298,488,487,503,522,384,381,295,226,540,0
2,1769098513856,1119,205,11002,839328,-338419,-248011,0,0,0,505,610,268,501,510,502,517,378,386,305,220,571,0
2,1769098513872,875,191,11634,1116661,-382401,-296880,0,0,0,518,623,248,512,525,507,498,380,392,313,227,595,0
2,1769098513888,306,282,12505,1441641,-326202,-280998,0,0,0,529,632,236,517,533,513,476,378,393,314,231,606,0
2,1769098513904,-95,330,13486,1897347,-160046,-167377,0,0,0,533,635,225,522,537,519,448,372,396,311,227,614,0
2,1769098513920,215,234,14386,2425134,-62308,-37873,0,0,0,541,637,222,529,538,524,416,370,386,313,225,621,0
2,1769098513936,1153,100,15520,3064100,-105068,3665,0,0,0,556,637,228,523,536,517,385,364,364,319,230,625,0
2,1769098513952,2072,81,16999,3813020,-222354,-119729,0,0,0,560,622,231,490,526,505,339,348,384,314,235,619,0
2,1769098513968,3043,90,18741,4659680,-375071,-353080,0,0,0,551,620,225,483,536,508,299,319,387,283,213,595,0
2,1769098513984,3795,81,21320,5584530,-598647,-653625,0,0,0,536,612,231,486,554,503,267,264,383,265,199,542,0
2,1769098514000,4804,-861,26173,6710965,-878424,-943175,0,0,0,497,580,202,473,531,491,255,221,362,257,187,490,0
2,1769098514016,7389,-1957,30203,7745771,-1075122,-1266934,0,0,0,443,543,193,457,502,462,253,194,336,259,184,470,0
2,1769098514032,7767,-851,31557,8404283,-1004262,-1749518,0,0,0,372,504,181,421,456,419,268,217,298,239,177,426,0
2,1769098514048,7159,1311,33232,8679173,-973719,-2118480,0,0,0,254,455,166,367,396,371,296,262,265,187,164,288,0
2,1769098514064,9451,6929,31840,8337088,-1033583,-2432465,0,0,0,226,443,167,349,373,361,307,288,263,168,163,240,0
2,1769098514080,10007,18774,20454,6873455,-1072679,-2574186,0,0,0,230,439,166,344,372,353,304,294,260,163,162,224,0
2,1769098514096,7796,27863,11184,3984063,-1428202,-1778839,0,0,0,230,432,163,342,374,345,299,297,249,159,163,212,0
2,1769098514112,6819,25307,9901,-144164,-1710422,97738,0,0,0,223,429,160,313,393,328,293,298,242,167,185,202,0
2,1769098514128,8021,17793,8705,-2989574,-1552819,1398881,0,0,0,217,432,157,305,394,321,287,296,237,180,216,193,0
2,1769098514144,9447,10782,5723,-3962071,-773355,1494176,0,0,0,216,433,156,334,372,330,281,299,231,185,228,189,0
2,1769098514160,7164,8801,4891,-4116009,240680,777020,0,0,0,216,432,155,332,373,326,279,305,228,185,229,186,0
2,1769098514176,3991,8298,6618,-4544837,724486,320093,0,0,0,217,432,152,331,373,320,279,313,225,186,235,181,0
2,1769098514192,2479,7250,8959,-5172806,758694,191811,0,0,0,217,431,149,330,372,319,278,317,224,183,240,176,0
2,1769098514208,2904,5719,10217,-5551543,916297,166155,0,0,0,217,429,152,329,370,317,277,320,224,186,243,176,0
2,1769098514224,2680,4704,11572,-5783672,1271821,147829,0,0,0,217,431,152,330,370,316,279,320,230,190,244,178,0
2,1769098514240,1785,4316,13424,-6030461,1561371,245567,0,0,0,217,430,152,331,373,319,280,328,231,190,246,176,0
2,1769098514256,1172,3895,15472,-6338337,1715309,437379,0,0,0,211,431,150,333,369,320,275,328,229,184,245,173,0
2,1769098514272,1052,3287,17535,-6605896,1777617,681725,0,0,0,210,432,149,329,383,316,275,332,225,188,246,176,0
2,1769098514288,1378,2785,19679,-6743952,1819156,926071,0,0,0,212,428,149,331,378,317,280,334,231,186,246,169,0
2,1769098514304,2096,2412,22072,-6878342,1861917,1186300,0,0,0,213,426,148,331,372,318,285,337,236,188,249,169,0
2,1769098514320,3441,1856,25345,-7067710,1931555,1499063,0,0,0,213,425,149,332,370,319,289,343,232,189,249,171,0
2,1769098514336,5135,105,29442,-7261965,2039068,1877799,0,0,0,215,425,151,333,370,324,293,342,231,189,247,172,0
2,1769098514352,6575,-5010,32462,-7337713,2227214,2320066,0,0,0,218,423,153,336,369,329,300,339,235,191,248,175,0
2,1769098514368,4809,-15606,33232,-6945537,2459343,2442239,0,0,0,218,422,152,341,369,334,308,338,239,197,247,177,0
2,1769098514384,2412,-26317,31428,-6219829,2163684,2112371,0,0,0,218,423,149,345,371,335,316,336,241,201,247,177,0
2,1769098514400,1445,-36927,24579,-4878369,1463633,1122770,0,0,0,223,425,153,341,364,330,320,335,237,206,247,177,0
2,1769098514416,-1387,-42029,17185,-2988352,1246165,-492357,0,0,0,228,427,160,341,364,332,314,336,240,199,245,175,0
2,1769098514432,-6767,-44067,14189,-1306029,1017701,-1927890,0,0,0,224,422,156,345,368,335,320,344,240,200,249,174,0
2,1769098514448,-9882,-43364,14711,34208,271224,-2410474,0,0,0,212,390,152,339,349,334,359,448,232,226,311,169,0
2,1769098514464,-11284,-33835,19822,1736079,-1050688,-2089159,0,0,0,218,329,148,323,300,330,420,476,247,258,392,177,0
2,1769098514480,-7992,-7255,23909,3733608,-3811799,-703716,0,0,0,224,332,151,325,302,336,464,480,258,244,410,178,0
2,1769098514496,-574,8499,17946,5508782,-4769635,973719,0,0,0,230,335,153,335,291,347,488,510,261,299,447,177,0
2,1769098514512,-2306,3149,19325,6112317,-2301740,1552819,0,0,0,239,350,163,343,296,353,512,548,259,375,494,178,0
2,1769098514528,-4331,-2459,22866,4763527,-430049,447153,0,0,0,253,378,173,359,315,372,546,563,276,360,489,202,0
2,1769098514544,-229,-1177,18635,3037221,-194255,-339641,0,0,0,264,404,185,380,332,388,575,577,284,349,478,229,0
2,1769098514560,3005,1478,11414,1727526,-538783,-98960,0,0,0,273,434,208,388,351,394,594,597,303,370,482,253,0
2,1769098514576,1536,564,10490,897971,-472809,195476,0,0,0,287,457,233,390,375,400,603,618,328,408,505,280,0
2,1769098514592,402,-23,10993,333532,-321315,172263,0,0,0,298,461,246,384,402,400,599,632,321,500,573,306,0
2,1769098514608,488,540,10667,129503,-207694,34208,0,0,0,302,462,258,371,409,400,591,623,305,596,646,320,0
2,1769098514624,885,1124,10083,86742,-128281,-20769,0,0,0,315,471,275,410,377,422,592,620,302,597,644,323,0
2,1769098514640,971,1148,9978,98960,-89186,-2443,0,0,0,327,480,297,409,377,426,598,616,298,602,640,331,0
2,1769098514656,842,1048,10136,112399,-59864,-4886,0,0,0,338,488,273,412,383,416,600,608,298,608,638,329,0
2,1769098514672,775,1043,10174,152716,-18325,-20769,0,0,0,331,496,269,406,386,412,592,592,298,581,626,340,0
2,1769098514688,813,1072,10098,212581,25656,-28099,0,0,0,337,499,270,417,401,423,594,582,302,511,560,340,0
2,1769098514704,861,1019,10045,255341,45204,-25656,0,0,0,347,500,277,421,398,421,597,575,303,347,406,362,0
2,1769098514720,904,952,10021,285884,42760,-29321,0,0,0,350,502,269,427,401,429,591,564,307,313,363,373,0
2,1769098514736,942,890,10026,307876,23212,-41538,0,0,0,353,506,268,425,403,429,592,556,320,309,344,383,0
2,1769098514752,957,842,10021,307876,3665,-53756,0,0,0,362,509,271,425,405,430,585,536,326,307,331,397,0
2,1769098514768,961,813,10021,299323,-10995,-64751,0,0,0,369,507,269,433,408,442,578,521,333,307,314,408,0
2,1769098514784,976,789,10035,304210,-36651,-70860,0,0,0,379,512,292,440,411,459,571,498,343,303,296,417,0
2,1769098514800,985,741,10050,318871,-64751,-76969,0,0,0,395,526,297,448,424,464,565,469,347,300,281,432,0
2,1769098514816,957,684,10069,342084,-90408,-84299,0,0,0,413,539,287,454,439,466,565,455,350,297,264,447,0
2,1769098514832,894,646,10117,371406,-101403,-90408,0,0,0,427,545,295,458,453,479,567,444,357,286,245,461,0
2,1769098514848,904,598,10227,425162,-103847,-95294,0,0,0,435,554,292,470,475,486,561,419,364,282,232,480,0
2,1769098514864,1019,502,10394,531452,-123394,-111177,0,0,0,450,557,286,474,485,490,548,397,377,290,224,511,0
2,1769098514880,1105,402,10547,665843,-149051,-136833,0,0,0,477,567,283,489,490,496,543,386,394,295,224,540,0
2,1769098514896,1143,272,10815,873537,-172263,-178372,0,0,0,492,575,275,496,497,505,543,380,385,299,224,568,0
2,1769098514912,1191,177,11246,1114218,-149051,-223576,0,0,0,503,580,244,513,513,521,543,384,399,305,224,578,0
2,1769098514928,1028,191,11988,1369559,-74525,-273667,0,0,0,500,583,222,522,515,528,527,383,393,305,219,599,0
2,1769098514944,789,172,12778,1659109,-7330,-282219,0,0,0,504,584,214,528,529,530,497,376,412,330,268,611,0
2,1769098514960,459,143,13491,2086715,34208,-217468,0,0,0,518,594,220,532,534,540,475,378,410,324,245,623,0
2,1769098514976,588,105,14390,2616946,63529,-116064,0,0,0,531,598,218,529,532,526,435,369,407,328,232,629,0
2,1769098514992,1684,33,15721,3316998,50090,-120951,0,0,0,544,598,221,522,528,533,399,358,425,328,233,630,0
2,1769098515008,2660,9,16793,4058588,-8552,-276111,0,0,0,543,597,224,521,544,544,361,331,435,308,222,618,0
2,1769098515024,2713,19,18243,4921130,-56199,-540004,0,0,0,529,587,217,517,553,544,324,294,432,289,209,586,0
2,1769098515040,2402,-47,21119,5985257,-61086,-744033,0,0,0,508,568,213,508,540,540,294,246,434,277,197,536,0
2,1769098515056,3436,-856,25474,7100697,-67195,-811229,0,0,0,481,545,207,498,525,524,276,194,423,264,181,485,0
2,1769098515072,5604,-1981,29839,8007221,-40317,-948062,0,0,0,441,516,188,474,503,483,272,175,377,253,172,447,0
2,1769098515088,6441,-1880,32883,8654738,12217,-1215621,0,0,0,376,485,179,432,450,430,280,200,325,234,171,412,0
2,1769098515104,6307,995,34706,8950397,81855,-1583362,0,0,0,280,442,166,376,396,377,306,236,281,195,160,323,0
2,1769098515120,8245,8609,31758,8613199,46425,-1976759,0,0,0,242,425,167,355,369,357,331,265,277,172,156,238,0
2,1769098515136,10715,17884,21493,7546629,-9773,-2526538,0,0,0,240,428,169,352,369,361,326,271,279,165,153,226,0
2,1769098515152,9428,23464,12318,4729318,14660,-2878397,0,0,0,246,428,167,345,365,342,316,282,263,161,150,217,0
2,1769098515168,3881,24517,10619,232128,-284663,-2364048,0,0,0,246,426,160,345,363,336,315,286,249,159,151,204,0
2,1769098515184,81,17898,11974,-3914424,-1390329,-956614,0,0,0,241,425,159,344,367,334,306,291,243,154,150,196,0
2,1769098515200,4647,9853,7963,-4883256,-2194227,-68416,0,0,0,231,425,158,337,365,328,304,299,236,154,156,193,0
2,1769098515216,9341,6231,3967,-4800179,-1711644,-10995,0,0,0,228,423,158,337,368,328,302,306,233,152,159,187,0
2,1769098515232,8600,6379,4331,-4869817,-229685,-384845,0,0,0,225,422,157,334,365,324,299,314,235,153,166,186,0
2,1769098515248,5369,6633,6972,-5242445,632856,-443488,0,0,0,224,421,157,333,365,322,297,318,239,156,172,185,0
2,1769098515264,3675,5924,9231,-5657833,753807,-96516,0,0,0,224,422,157,334,368,321,296,322,240,155,174,181,0
2,1769098515280,4465,4819,10337,-5959601,933402,313984,0,0,0,226,424,157,332,367,317,291,326,238,153,176,178,0
2,1769098515296,4551,4034,11964,-6243042,1329242,581543,0,0,0,229,424,159,332,366,317,292,328,238,153,178,177,0
2,1769098515312,3900,3541,14108,-6511823,1629788,752585,0,0,0,230,424,158,335,368,322,296,334,237,156,178,178,0
2,1769098515328,3680,3005,16386,-6797708,1751961,895528,0,0,0,228,423,157,335,367,322,295,339,238,153,177,176,0
2,1769098515344,3828,2316,18793,-7059158,1853365,996932,0,0,0,224,419,155,335,363,322,297,344,237,152,175,176,0
2,1769098515360,4206,1646,21593,-7247305,1986533,1102000,0,0,0,222,417,156,333,360,321,299,345,240,152,178,177,0
2,1769098515376,4718,1062,25436,-7401243,2156354,1312138,0,0,0,223,420,157,336,365,328,302,346,245,155,177,179,0
2,1769098515392,5589,-186,30040,-7524638,2323731,1747074,0,0,0,226,414,160,333,361,326,302,339,247,155,173,179,0
2,1769098515408,6015,-5259,33515,-7549072,2629163,2491108,0,0,0,223,416,156,296,401,309,314,346,246,161,180,182,0
2,1769098515424,3742,-13730,35639,-7266852,2932153,3046995,0,0,0,223,419,154,325,385,324,319,346,246,161,180,182,0
2,1769098515440,28,-25723,35214,-6503271,2515543,3109304,0,0,0,224,418,154,342,379,337,330,345,255,161,182,185,0
2,1769098515456,1435,-37592,27126,-5198463,1420872,2161241,0,0,0,225,419,156,346,382,341,338,345,259,163,184,187,0
2,1769098515472,2010,-46656,16984,-3385415,994488,349414,0,0,0,227,422,158,346,382,339,339,347,257,163,184,184,0
2,1769098515488,-4331,-48523,12864,-1342681,1067792,-1674992,0,0,0,222,409,156,342,370,340,347,388,252,168,201,186,0
2,1769098515504,-10093,-45345,14194,345749,535117,-2619390,0,0,0,217,368,151,332,331,335,387,444,249,188,258,189,0
2,1769098515520,-12720,-26982,21923,2367713,-1709200,-1931555,0,0,0,226,334,150,325,294,329,439,469,254,220,341,186,0
2,1769098515536,-7097,-1139,22282,4547280,-4541172,-328645,0,0,0,238,339,156,334,297,343,463,489,264,271,418,180,0
2,1769098515552,296,9255,16946,6317568,-4521624,1310916,0,0,0,247,347,162,346,299,354,498,510,269,351,459,185,0
2,1769098515568,-3531,641,21445,6001140,-1523497,1292590,0,0,0,248,353,168,349,296,365,529,553,280,366,485,194,0
2,1769098515584,-4666,-3728,24010,4315152,17104,168598,0,0,0,264,391,183,354,302,376,553,569,298,381,493,220,0
2,1769098515600,851,-454,17315,2382374,-280998,-497244,0,0,0,271,408,197,380,323,392,574,594,294,461,542,251,0
2,1769098515616,2584,1239,10672,1307251,-486248,0,0,0,0,278,441,209,388,359,401,593,611,310,457,540,276,0
2,1769098515632,1244,311,9916,597426,-409279,257785,0,0,0,292,459,224,399,368,406,593,622,322,468,548,294,0
2,1769098515648,320,129,10859,153938,-298102,112399,0,0,0,312,473,241,409,375,411,605,633,314,476,553,311,0
2,1769098515664,516,856,10595,6108,-223576,-23212,0,0,0,326,478,249,411,379,415,616,637,309,477,553,318,0
2,1769098515680,880,1273,10016,31764,-151494,-25656,0,0,0,329,480,253,412,382,419,614,633,308,477,553,318,0
2,1769098515696,837,1153,10035,46425,-89186,-2443,0,0,0,324,482,256,412,383,421,608,630,308,474,552,319,0
2,1769098515712,713,1062,10179,57421,-36651,-9773,0,0,0,322,484,253,409,382,416,603,630,306,475,553,320,0
2,1769098515728,679,1095,10174,85521,12217,-31764,0,0,0,326,485,249,408,381,408,599,626,304,473,550,317,0
2,1769098515744,741,1115,10059,120951,42760,-31764,0,0,0,326,486,246,407,378,407,591,611,307,454,526,317,0
2,1769098515760,799,1100,9997,151494,50090,-28099,0,0,0,325,494,245,412,384,407,579,588,315,433,490,326,0
2,1769098515776,818,1072,9997,178372,36651,-28099,0,0,0,324,499,242,415,386,410,580,588,304,343,408,341,0
2,1769098515792,842,1038,10002,207694,17104,-28099,0,0,0,324,497,244,422,394,419,572,573,302,328,391,349,0
2,1769098515808,871,981,9978,217468,-3665,-34208,0,0,0,326,501,244,422,393,415,582,570,313,296,357,358,0
2,1769098515824,875,938,9954,199142,-26878,-45204,0,0,0,339,505,252,426,396,422,581,561,319,301,362,362,0
2,1769098515840,875,933,9954,184481,-47647,-53756,0,0,0,347,510,254,428,401,423,575,552,321,300,349,375,0
2,1769098515856,871,933,9959,195476,-70860,-59864,0,0,0,362,515,260,431,410,431,575,541,337,286,318,379,0
2,1769098515872,842,904,9973,224798,-94073,-62308,0,0,0,379,522,266,437,411,441,576,521,348,285,293,400,0
2,1769098515888,823,871,10040,268780,-107512,-63529,0,0,0,402,530,274,444,421,448,574,506,352,298,292,431,0
2,1769098515904,880,842,10136,327423,-109955,-68416,0,0,0,423,550,285,453,434,461,571,488,356,292,265,457,0
2,1769098515920,952,799,10217,399505,-119729,-87964,0,0,0,441,567,316,463,451,482,566,464,364,286,239,491,0
2,1769098515936,990,708,10337,488692,-139277,-128281,0,0,0,459,575,331,470,466,496,560,440,383,293,233,525,0
2,1769098515952,985,617,10557,596204,-164933,-168598,0,0,0,478,581,311,476,474,499,553,413,410,299,229,547,0
2,1769098515968,1014,512,10849,768468,-196698,-210137,0,0,0,490,591,291,493,487,504,547,389,429,321,230,563,0
2,1769098515984,1076,397,11495,1086118,-207694,-254119,0,0,0,494,604,250,510,509,510,537,387,426,362,243,577,0
2,1769098516000,827,440,12601,1497841,-144164,-280998,0,0,0,515,606,232,521,524,523,513,381,426,311,223,604,0
2,1769098516016,320,521,13797,1998751,12217,-245567,0,0,0,522,604,220,527,527,542,494,380,432,313,231,621,0
2,1769098516032,277,464,14367,2515543,111177,-133168,0,0,0,533,608,212,527,534,526,456,373,425,319,232,627,0
2,1769098516048,885,330,14903,3068986,94073,-43982,0,0,0,543,608,215,529,539,526,428,373,416,321,228,627,0
2,1769098516064,1962,186,15774,3643200,0,-95294,0,0,0,546,597,216,513,536,527,390,360,411,326,232,624,0
2,1769098516080,2574,239,17420,4395786,-136833,-320093,0,0,0,540,591,212,522,552,521,363,335,414,309,221,611,0
2,1769098516096,3326,119,19372,5215567,-270002,-554665,0,0,0,529,590,212,511,554,520,310,290,416,284,205,563,0
2,1769098516112,3967,-224,22909,6238155,-441044,-824668,0,0,0,506,580,205,495,556,512,278,244,409,262,193,503,0
2,1769098516128,4809,-1110,27317,7264409,-618195,-1027475,0,0,0,468,561,198,479,531,493,264,208,380,256,187,468,0
2,1769098516144,6063,-1670,30385,8113512,-635299,-1222952,0,0,0,405,525,185,445,494,446,264,201,335,252,185,445,0
2,1769098516160,5484,-67,31935,8594873,-530231,-1508837,0,0,0,321,477,171,396,448,390,280,230,294,222,174,378,0
2,1769098516176,5709,3316,32615,8713381,-592539,-1744631,0,0,0,259,442,165,362,389,366,298,258,274,186,160,282,0
2,1769098516192,8265,10859,27073,8189259,-768468,-2014633,0,0,0,252,434,162,357,380,358,310,277,277,174,162,238,0
2,1769098516208,9873,18870,16525,6889338,-836885,-2328618,0,0,0,253,434,160,348,387,352,310,288,268,167,159,220,0
2,1769098516224,7791,24010,9308,3738495,-736703,-2174680,0,0,0,248,429,155,349,372,339,313,296,253,164,158,208,0
2,1769098516240,3732,21885,9892,-1039692,-811229,-1069014,0,0,0,237,428,148,342,368,329,308,304,243,158,158,195,0
2,1769098516256,2991,14467,9279,-4174653,-1209513,105068,0,0,0,228,425,150,340,369,329,302,306,239,173,171,190,0
2,1769098516272,6135,7729,5518,-4576602,-1318247,547335,0,0,0,227,423,152,334,377,325,296,326,236,157,173,191,0
2,1769098516288,8049,5891,3139,-4169766,-469144,196698,0,0,0,228,423,157,334,375,324,294,327,236,157,174,192,0
2,1769098516304,6594,6298,4178,-4300491,533896,-200363,0,0,0,229,419,153,339,375,324,295,328,237,157,175,186,0
2,1769098516320,4015,6518,6910,-4877148,919963,-251676,0,0,0,227,422,154,336,373,324,292,329,237,157,178,186,0
2,1769098516336,3196,5613,8695,-5349957,1037249,-105068,0,0,0,226,422,154,338,373,325,292,331,238,156,179,190,0
2,1769098516352,3421,4522,9619,-5527108,1299921,39095,0,0,0,227,420,159,336,375,328,291,339,245,152,182,188,0
2,1769098516368,2498,4240,11529,-5718920,1683544,156381,0,0,0,227,420,160,334,375,327,290,343,244,152,184,182,0
2,1769098516384,1588,4278,13893,-6087882,1882686,333532,0,0,0,225,420,152,337,374,321,295,342,235,155,184,178,0
2,1769098516400,1560,3900,16070,-6542366,1943773,546113,0,0,0,225,418,152,338,373,321,302,346,238,157,184,178,0
2,1769098516416,1785,3125,18152,-6840468,2023185,733038,0,0,0,227,419,154,338,371,321,304,348,241,158,186,179,0
2,1769098516432,2077,2287,20890,-6956533,2133141,939510,0,0,0,223,416,150,340,370,322,305,347,240,161,187,179,0
2,1769098516448,2459,2000,24924,-7024950,2207666,1258382,0,0,0,224,418,151,340,373,324,305,344,239,168,190,177,0
2,1769098516464,3005,1517,29619,-7141014,2228436,1726305,0,0,0,224,417,154,342,369,327,305,339,245,160,180,183,0
2,1769098516480,3991,-2560,33414,-7260744,2246762,2459343,0,0,0,225,418,160,343,370,330,314,339,250,164,179,187,0
2,1769098516496,3838,-10978,35448,-7144679,2357939,2921157,0,0,0,221,417,156,341,366,333,316,338,250,161,178,183,0
2,1769098516512,2239,-22756,34850,-6608340,2102598,2797762,0,0,0,223,417,154,345,368,338,326,338,253,162,176,184,0
2,1769098516528,3823,-36668,26412,-5368283,1208291,1612684,0,0,0,223,417,152,345,369,339,332,338,258,163,176,185,0
2,1769098516544,3618,-46111,16348,-3674965,1050688,-338419,0,0,0,225,418,154,347,370,339,334,341,260,162,179,182,0
2,1769098516560,-5135,-48949,11710,-1611462,1401324,-2474004,0,0,0,223,414,156,344,367,341,330,344,255,160,180,182,0
2,1769098516576,-12543,-45024,13974,116064,581543,-2989574,0,0,0,217,397,151,340,356,338,364,403,252,173,227,178,0
2,1769098516592,-11653,-33773,18659,1912008,-981049,-2482556,0,0,0,220,356,148,332,323,335,419,455,253,201,301,178,0
2,1769098516608,-4240,-2708,23440,3467271,-3720169,-704938,0,0,0,232,329,153,325,296,339,460,468,264,227,368,183,0
2,1769098516624,1880,14046,17583,4752531,-5249775,1132544,0,0,0,240,337,160,329,294,349,489,489,276,258,418,184,0
2,1769098516640,-1229,5455,14228,5938831,-3163060,2206445,0,0,0,245,343,164,342,290,356,515,520,274,317,453,191,0
2,1769098516656,-7465,-3565,21497,5457470,-656069,1150870,0,0,0,246,363,169,355,304,364,539,560,273,384,489,205,0
2,1769098516672,-3244,-2689,21976,3986506,-266337,-277332,0,0,0,262,399,182,369,328,376,572,585,284,455,494,232,0
2,1769098516688,3302,708,15539,2416582,-714712,-372627,0,0,0,268,433,196,393,353,398,585,613,298,465,546,258,0
2,1769098516704,2182,134,11083,1075122,-602313,235793,0,0,0,292,456,214,411,381,409,596,619,298,440,514,314,0
2,1769098516720,-90,-574,10366,284663,-331088,301767,0,0,0,311,472,241,415,381,422,604,622,298,442,500,345,0
2,1769098516736,90,100,10485,123394,-245567,61086,0,0,0,325,482,254,416,385,421,613,630,310,478,520,355,0
2,1769098516752,703,703,10303,89186,-216246,-43982,0,0,0,335,491,265,420,390,431,612,625,302,478,521,361,0
2,1769098516768,890,756,10112,81855,-163711,-9773,0,0,0,344,500,273,421,391,435,618,622,310,487,520,359,0
2,1769098516784,679,650,10160,74525,-101403,2443,0,0,0,357,508,281,419,392,435,615,612,312,485,509,365,0
2,1769098516800,574,679,10212,106290,-51312,-13439,0,0,0,363,512,282,418,395,436,614,608,319,444,472,376,0
2,1769098516816,622,727,10184,173485,-7330,-28099,0,0,0,365,513,280,421,398,440,611,596,324,384,417,390,0
2,1769098516832,670,693,10145,245567,29321,-29321,0,0,0,369,514,275,426,401,446,601,574,325,346,380,399,0
2,1769098516848,693,612,10112,287106,45204,-29321,0,0,0,371,515,271,430,403,451,589,560,329,330,358,405,0
2,1769098516864,717,559,10078,293215,42760,-30543,0,0,0,375,518,271,437,407,450,586,551,328,305,326,417,0
2,1769098516880,756,536,10074,294437,30543,-36651,0,0,0,376,521,267,437,411,446,579,530,326,298,311,424,0
2,1769098516896,804,507,10074,299323,8552,-46425,0,0,0,382,522,260,439,430,446,574,516,331,299,299,431,0
2,1769098516912,837,454,10064,304210,-24434,-58643,0,0,0,385,521,255,453,419,462,576,494,335,288,264,446,0
2,1769098516928,861,406,10088,317649,-70860,-78190,0,0,0,400,526,257,453,428,463,566,478,344,290,249,457,0
2,1769098516944,813,373,10126,349414,-114842,-96516,0,0,0,423,542,272,459,435,456,567,459,348,290,241,468,0
2,1769098516960,751,335,10184,393397,-141720,-107512,0,0,0,426,547,270,465,448,469,544,442,356,282,231,481,0
2,1769098516976,727,277,10284,455705,-152716,-111177,0,0,0,441,560,266,478,461,488,554,425,364,285,223,503,0
2,1769098516992,741,148,10361,536339,-152716,-117286,0,0,0,458,565,262,492,478,505,551,404,366,287,222,523,0
2,1769098517008,775,33,10514,637743,-166155,-127059,0,0,0,471,575,259,504,500,504,546,391,370,293,221,547,0
2,1769098517024,871,-33,10839,811229,-185703,-141720,0,0,0,487,580,249,508,504,503,534,392,379,297,221,573,0
2,1769098517040,885,-28,11462,1073901,-111177,-186924,0,0,0,495,580,233,519,511,514,527,391,388,299,220,591,0
2,1769098517056,693,-28,12060,1324355,-13439,-219911,0,0,0,498,583,223,531,528,523,519,393,395,305,225,600,0
2,1769098517072,483,-148,12811,1703092,72082,-206472,0,0,0,508,589,222,538,554,513,498,396,403,315,236,608,0
2,1769098517088,325,-191,13610,2171015,120951,-144164,0,0,0,521,594,223,545,570,507,465,383,408,321,239,616,0
2,1769098517104,823,-268,14496,2752558,119729,-80634,0,0,0,538,594,231,526,534,530,425,373,404,326,238,622,0
2,1769098517120,1742,-287,15850,3378084,69638,-123394,0,0,0,551,587,237,523,532,538,395,347,405,321,231,627,0
2,1769098517136,2660,-162,17951,4195422,-42760,-315206,0,0,0,549,582,229,519,541,538,353,323,408,291,211,620,0
2,1769098517152,3134,-9,20842,5272988,-135612,-586430,0,0,0,531,584,217,525,553,543,316,288,440,285,211,573,0
2,1769098517168,3675,-67,24713,6488610,-222354,-828333,0,0,0,502,569,215,501,541,524,278,228,413,261,188,502,0
2,1769098517184,4785,-885,29916,7776314,-263893,-993266,0,0,0,472,535,200,481,512,494,261,185,385,254,181,470,0
2,1769098517200,5991,-1330,34424,8940623,-130725,-1182635,0,0,0,410,506,184,452,479,452,268,191,336,246,176,438,0
2,1769098517216,5714,990,37080,9562484,30543,-1481959,0,0,0,315,466,172,399,428,399,292,228,292,214,167,362,0
2,1769098517232,7322,7465,35587,9429315,-216246,-1817934,0,0,0,260,436,168,366,383,370,319,265,282,182,158,273,0
2,1769098517248,10538,16788,27456,8699942,-472809,-2238210,0,0,0,252,431,167,358,371,362,322,279,281,169,157,235,0
2,1769098517264,11935,25905,14132,6668204,-423940,-2659707,0,0,0,250,432,158,357,373,353,318,285,269,163,156,217,0
2,1769098517280,6633,29298,9715,1718974,-266337,-2045176,0,0,0,242,432,153,353,372,344,317,293,257,156,151,203,0
2,1769098517296,1832,23469,11366,-3273015,-757472,-467922,0,0,0,236,430,154,347,370,338,312,298,252,150,147,193,0
2,1769098517312,4498,13271,9088,-4988325,-1458746,757472,0,0,0,233,428,155,343,371,336,305,299,251,149,150,189,0
2,1769098517328,8461,7508,5044,-5106833,-1192408,966388,0,0,0,226,425,160,340,373,337,304,306,249,151,160,191,0
2,1769098517344,7997,7102,4498,-5123937,-29321,442266,0,0,0,227,422,160,337,371,334,298,316,243,153,167,188,0
2,1769098517360,3728,7418,7982,-5756794,780685,64751,0,0,0,228,419,162,335,373,336,296,322,248,156,181,189,0
2,1769098517376,1454,6628,10667,-6282138,934623,0,0,0,0,223,421,154,335,373,329,288,319,249,155,187,181,0
2,1769098517392,1397,5254,12117,-6576575,957836,41538,0,0,0,227,423,157,336,372,328,293,330,243,160,196,181,0
2,1769098517408,1679,4307,13716,-6762278,1244943,-13439,0,0,0,228,423,159,335,370,325,293,334,243,160,195,181,0
2,1769098517424,1545,3814,15841,-7010289,1539380,-114842,0,0,0,229,423,159,335,369,325,293,336,240,157,196,178,0
2,1769098517440,1210,3345,18348,-7309613,1773952,-205250,0,0,0,234,426,162,335,368,325,293,339,241,159,199,180,0
2,1769098517456,631,2713,21363,-7500203,1973094,-158824,0,0,0,231,422,160,338,371,330,296,342,245,158,198,178,0
2,1769098517472,110,2416,24737,-7551516,2098932,141720,0,0,0,230,421,160,339,372,334,299,343,249,158,198,178,0
2,1769098517488,646,2325,29753,-7573507,2118480,873537,0,0,0,229,420,161,339,371,337,300,342,253,159,197,183,0
2,1769098517504,1464,890,34276,-7655363,2171015,1786169,0,0,0,225,418,160,341,371,340,304,339,254,161,194,186,0
2,1769098517520,2048,-6968,37018,-7703010,2217440,2761110,0,0,0,224,419,156,344,371,338,312,337,254,164,194,183,0
2,1769098517536,2962,-19100,37372,-7343821,1982868,3100751,0,0,0,222,419,150,346,373,337,321,339,257,167,196,180,0
2,1769098517552,5575,-33845,32131,-6269920,1361007,2502104,0,0,0,220,422,149,349,374,340,324,337,256,167,196,179,0
2,1769098517568,4699,-44996,20770,-4461759,1321912,963945,0,0,0,219,422,148,349,373,344,332,344,260,168,199,180,0
2,1769098517584,-4316,-50490,13204,-2345722,1546710,-475253,0,0,0,222,421,148,350,372,341,334,343,259,167,198,178,0
2,1769098517600,-11246,-48815,12959,-344527,669508,-857654,0,0,0,225,413,153,346,366,338,320,340,255,166,195,178,0
2,1769098517616,-9045,-42584,14745,1425759,-471587,-730594,0,0,0,211,379,145,334,344,335,390,440,255,195,277,178,0
2,1769098517632,-2593,-24173,21239,3147177,-1555262,-337197,0,0,0,227,329,152,326,302,338,439,461,257,219,358,188,0
2,1769098517648,1148,5833,21153,4809952,-3315776,529009,0,0,0,239,337,159,325,292,347,446,507,260,267,435,176,0
2,1769098517664,-392,11170,17362,6190508,-3221703,1244943,0,0,0,242,337,162,339,294,359,487,519,264,320,462,186,0
2,1769098517680,-5738,-1383,21914,6331007,-877202,1148426,0,0,0,251,353,168,351,297,366,523,550,267,413,507,197,0
2,1769098517696,-2962,-4082,23675,4366464,75747,-30543,0,0,0,263,381,186,363,306,384,552,578,282,465,537,225,0
2,1769098517712,2115,-110,16616,2610838,-252898,-359188,0,0,0,275,413,201,381,330,394,567,595,316,486,555,251,0
2,1769098517728,2120,1124,10887,1473406,-557109,57421,0,0,0,292,446,213,403,357,401,585,613,327,515,575,282,0
2,1769098517744,579,-76,10452,671951,-489913,223576,0,0,0,312,468,232,421,376,417,610,625,310,543,586,318,0
2,1769098517760,-28,-253,11136,157603,-262672,90408,0,0,0,327,477,248,425,388,425,616,629,312,557,594,331,0
2,1769098517776,521,746,10466,75747,-129503,-8552,0,0,0,337,487,253,419,389,422,616,626,310,551,597,341,0
2,1769098517792,813,1124,9968,89186,-83077,-10995,0,0,0,347,493,263,424,396,428,616,624,312,551,600,350,0
2,1769098517808,703,976,10083,98960,-78190,2443,0,0,0,362,495,268,434,399,445,615,616,313,549,595,354,0
2,1769098517824,603,933,10232,133168,-53756,-8552,0,0,0,374,512,277,431,404,438,611,609,320,527,568,379,0
2,1769098517840,603,976,10212,206472,-14660,-25656,0,0,0,371,511,267,431,403,431,607,586,315,535,545,362,0
2,1769098517856,636,938,10136,277332,19547,-29321,0,0,0,371,515,267,431,403,435,603,565,317,478,516,381,0
2,1769098517872,665,856,10112,316428,50090,-31764,0,0,0,379,516,271,435,407,439,593,563,324,352,380,407,0
2,1769098517888,693,780,10098,326202,67195,-39095,0,0,0,384,519,285,435,408,446,596,543,333,310,333,415,0
2,1769098517904,722,737,10074,316428,67195,-50090,0,0,0,385,521,284,435,410,449,590,525,337,302,313,418,0
2,1769098517920,751,703,10040,304210,56199,-59864,0,0,0,385,521,272,437,413,447,577,511,336,304,301,424,0
2,1769098517936,765,660,10011,287106,29321,-64751,0,0,0,388,522,262,441,417,447,572,499,342,307,292,434,0
2,1769098517952,794,617,10007,274889,-4886,-69638,0,0,0,398,524,261,446,422,449,570,485,345,303,281,441,0
2,1769098517968,832,583,10021,277332,-51312,-76969,0,0,0,411,529,263,451,429,455,566,470,347,298,269,449,0
2,1769098517984,818,555,10045,296880,-98960,-85521,0,0,0,421,537,260,453,440,466,568,458,359,322,267,464,0
2,1769098518000,775,512,10102,326202,-130725,-94073,0,0,0,430,544,255,460,448,474,573,450,362,354,270,480,0
2,1769098518016,775,454,10212,376292,-141720,-103847,0,0,0,440,553,259,475,463,481,559,439,372,307,253,507,0
2,1769098518032,808,402,10318,455705,-158824,-120951,0,0,0,463,561,260,488,477,491,558,416,375,307,241,530,0
2,1769098518048,885,320,10380,553443,-182037,-145385,0,0,0,495,569,262,489,482,493,549,397,376,307,227,561,0
2,1769098518064,990,215,10643,691499,-211359,-184481,0,0,0,496,575,259,502,495,505,543,392,395,298,218,564,0
2,1769098518080,1162,100,11208,918741,-248011,-243124,0,0,0,502,588,244,514,519,521,531,392,406,307,229,580,0
2,1769098518096,760,181,12222,1242499,-194255,-300545,0,0,0,507,594,236,526,528,532,523,384,399,322,237,603,0
2,1769098518112,119,253,13122,1617571,-58643,-284663,0,0,0,520,600,234,533,534,537,503,381,399,327,242,625,0
2,1769098518128,-138,205,13663,2046398,80634,-177150,0,0,0,528,602,228,538,550,529,476,379,417,334,245,621,0
2,1769098518144,402,114,14529,2602285,134390,-54977,0,0,0,541,596,223,533,550,526,430,372,420,332,238,624,0
2,1769098518160,1440,52,15735,3253468,98960,-39095,0,0,0,550,594,223,525,544,532,384,351,427,322,230,630,0
2,1769098518176,2373,38,17027,4020715,-17104,-204028,0,0,0,545,598,226,521,550,536,343,329,437,307,228,620,0
2,1769098518192,2373,153,18731,4922352,-101403,-441044,0,0,0,533,593,224,524,564,538,300,295,433,290,221,587,0
2,1769098518208,3077,57,21603,5995031,-164933,-660956,0,0,0,517,572,218,522,559,537,269,243,421,278,206,536,0
2,1769098518224,4120,-670,26790,7170336,-233350,-868650,0,0,0,485,550,213,490,525,520,266,201,401,272,190,489,0
2,1769098518240,5125,-1541,31658,8252789,-200363,-1047023,0,0,0,435,526,191,464,497,485,266,180,367,264,184,454,0
2,1769098518256,5001,-1119,34271,8983384,-30543,-1238834,0,0,0,353,487,162,425,452,417,274,196,310,245,182,418,0
2,1769098518272,4426,2703,35309,9181304,8552,-1452637,0,0,0,251,443,163,362,381,365,306,239,287,186,162,282,0
2,1769098518288,6231,10351,32198,8797681,-151494,-1695761,0,0,0,254,439,171,364,373,374,317,255,290,176,156,250,0
2,1769098518304,8954,18755,20933,7500203,-276111,-2114815,0,0,0,248,440,170,354,375,364,311,275,281,167,161,226,0
2,1769098518320,7097,22813,11710,4234517,-268780,-2280970,0,0,0,270,434,164,348,371,353,307,281,266,166,156,213,0
2,1769098518336,2589,22364,10571,-285884,-591317,-1668883,0,0,0,253,430,161,345,372,344,304,287,258,164,161,202,0
2,1769098518352,1785,14735,10878,-3756821,-1502728,-514348,0,0,0,238,427,162,347,375,342,300,291,252,160,164,198,0
2,1769098518368,5479,7604,7264,-4728096,-1930334,50090,0,0,0,231,426,161,344,376,341,294,295,244,156,167,194,0
2,1769098518384,8681,5235,3354,-4398229,-1192408,-219911,0,0,0,225,425,171,339,375,346,289,303,244,155,171,193,0
2,1769098518400,6791,6092,4201,-4654793,-106290,-631634,0,0,0,224,423,172,338,375,343,289,313,248,160,177,194,0
2,1769098518416,4412,6250,6355,-5164254,422718,-724486,0,0,0,227,423,157,338,375,328,291,321,246,162,183,190,0
2,1769098518432,4316,5288,7676,-5522221,566882,-456927,0,0,0,228,422,159,334,373,327,288,324,243,157,184,183,0
2,1769098518448,4781,4570,8676,-5728694,879645,-168598,0,0,0,222,421,156,334,373,327,285,330,241,159,192,183,0
2,1769098518464,4532,4130,10447,-5971818,1335351,147829,0,0,0,227,419,158,335,379,330,287,345,246,158,208,182,0
2,1769098518480,4039,3675,12778,-6301685,1601688,485026,0,0,0,226,421,156,342,380,332,287,336,240,156,192,177,0
2,1769098518496,4245,3086,14926,-6629109,1759291,752585,0,0,0,227,425,156,344,380,331,289,340,243,156,193,177,0
2,1769098518512,4603,2512,17195,-6895446,1943773,900415,0,0,0,227,419,155,337,373,326,292,341,244,161,196,179,0
2,1769098518528,4580,2005,20320,-7111693,2158797,1042136,0,0,0,229,419,157,335,371,325,294,349,243,158,198,175,0
2,1769098518544,4613,1464,24072,-7312056,2328618,1264491,0,0,0,230,421,159,337,370,326,297,345,245,156,191,174,0
2,1769098518560,5139,143,28968,-7542963,2467895,1736079,0,0,0,227,423,161,338,364,333,295,335,247,154,182,176,0
2,1769098518576,5451,-3455,32854,-7677354,2686585,2393370,0,0,0,225,419,159,341,363,335,302,332,245,159,180,177,0
2,1769098518592,3163,-11447,35606,-7450112,3050661,2994461,0,0,0,225,415,155,344,367,335,316,334,245,164,182,177,0
2,1769098518608,-1378,-23268,35807,-6648657,2614503,3054326,0,0,0,225,415,154,349,370,339,326,335,250,167,183,178,0
2,1769098518624,-842,-36343,29375,-5380501,1352455,2398256,0,0,0,229,417,156,350,369,341,329,336,252,193,198,179,0
2,1769098518640,2010,-46101,17272,-3444058,792903,285884,0,0,0,234,419,158,347,366,336,330,337,252,225,217,180,0
2,1769098518656,-3354,-49126,11892,-1611462,1004262,-1870469,0,0,0,230,414,156,345,363,335,330,342,249,168,188,175,0
2,1769098518672,-12749,-46140,13620,158824,660956,-2928487,0,0,0,217,398,146,348,358,336,354,369,241,185,216,179,0
2,1769098518688,-11524,-33577,19133,1951103,-823446,-2261423,0,0,0,217,345,146,328,317,332,430,459,250,212,324,179,0
2,1769098518704,-3752,-2603,24958,3683517,-3148399,-941954,0,0,0,240,330,153,345,296,348,457,466,253,230,382,181,0
2,1769098518720,3445,18521,18712,5098281,-4762305,445931,0,0,0,243,338,163,338,290,362,481,494,271,276,426,180,0
2,1769098518736,-804,4800,16951,6203947,-2701246,1132544,0,0,0,244,353,167,348,299,368,507,508,290,286,433,195,0
2,1769098518752,-5479,-5312,22928,5542991,-605978,623082,0,0,0,255,368,173,360,309,371,527,526,289,294,439,205,0
2,1769098518768,-1402,-2383,20952,3641978,-318871,-196698,0,0,0,264,395,184,371,322,378,554,554,293,311,447,230,0
2,1769098518784,2517,1378,14032,2074498,-508239,-219911,0,0,0,272,426,197,386,340,394,570,584,301,345,459,262,0
2,1769098518800,2005,1210,9686,1131322,-535117,169820,0,0,0,290,454,214,406,366,411,588,599,308,383,474,302,0
2,1769098518816,488,-162,10533,492357,-390953,177150,0,0,0,313,473,237,417,384,418,605,610,310,403,483,333,0
2,1769098518832,234,95,10926,102625,-285884,48869,0,0,0,328,480,257,421,388,423,614,623,309,410,487,344,0
2,1769098518848,670,890,10332,40317,-211359,-8552,0,0,0,337,488,264,424,391,428,618,626,308,424,501,349,0
2,1769098518864,837,1100,9997,46425,-145385,-4886,0,0,0,351,495,264,424,394,422,617,624,299,443,517,349,0
2,1769098518880,741,952,10083,51312,-101403,2443,0,0,0,352,496,269,426,395,427,615,621,305,449,518,356,0
2,1769098518896,674,957,10179,64751,-62308,-10995,0,0,0,356,496,283,429,399,436,615,615,313,438,501,361,0
2,1769098518912,684,1028,10141,111177,-25656,-24434,0,0,0,366,512,270,419,390,422,614,609,311,367,426,375,0
2,1769098518928,698,1048,10083,178372,-1221,-24434,0,0,0,375,517,276,426,398,431,610,585,314,423,470,369,0
2,1769098518944,703,961,10074,232128,10995,-20769,0,0,0,376,514,269,427,398,430,605,569,316,422,453,373,0
2,1769098518960,751,885,10069,254119,15882,-23212,0,0,0,380,518,271,432,409,435,599,566,320,343,380,396,0
2,1769098518976,799,847,10050,257785,15882,-31764,0,0,0,386,520,272,431,410,437,591,555,325,335,361,403,0
2,1769098518992,823,823,10031,260228,6108,-41538,0,0,0,389,522,273,432,412,438,582,541,331,320,338,411,0
2,1769098519008,827,799,10026,265115,-9773,-51312,0,0,0,404,531,278,436,414,441,576,525,336,306,315,419,0
2,1769098519024,847,760,10031,277332,-39095,-62308,0,0,0,415,540,288,434,449,435,579,516,344,306,309,431,0
2,1769098519040,851,703,10059,295658,-68416,-73303,0,0,0,416,543,297,438,470,440,576,501,355,307,301,447,0
2,1769098519056,804,674,10112,326202,-89186,-85521,0,0,0,423,549,304,454,446,465,561,475,362,304,284,459,0
2,1769098519072,775,650,10174,365297,-102625,-91629,0,0,0,431,559,309,462,457,471,550,455,370,299,270,479,0
2,1769098519088,837,574,10289,428827,-123394,-96516,0,0,0,445,565,303,467,464,480,546,428,396,302,262,502,0
2,1769098519104,894,488,10428,518013,-157603,-109955,0,0,0,465,588,295,481,483,497,536,407,380,298,242,523,0
2,1769098519120,923,411,10624,654847,-200363,-136833,0,0,0,477,593,296,482,504,501,539,409,387,300,240,555,0
2,1769098519136,894,282,10921,891863,-248011,-164933,0,0,0,486,594,257,493,505,500,532,395,387,308,234,579,0
2,1769098519152,789,196,11371,1143539,-239459,-183259,0,0,0,500,604,249,511,521,518,519,388,394,307,228,588,0
2,1769098519168,665,224,12084,1392772,-149051,-190589,0,0,0,521,604,237,507,524,511,508,397,390,319,238,604,0
2,1769098519184,579,224,12940,1693318,-43982,-186924,0,0,0,532,610,224,518,535,518,484,385,397,321,235,615,0
2,1769098519200,320,181,13677,2178345,1221,-129503,0,0,0,546,612,224,523,542,525,442,382,413,332,241,615,0
2,1769098519216,378,81,14357,2720793,17104,-39095,0,0,0,554,617,232,524,551,527,405,375,408,331,238,616,0
2,1769098519232,1411,19,15711,3330437,-8552,-41538,0,0,0,556,616,233,520,548,525,380,364,408,318,227,617,0
2,1769098519248,2383,67,17587,4123340,-111177,-197920,0,0,0,552,607,231,509,549,522,339,338,423,300,218,611,0
2,1769098519264,3311,-4,19674,5064072,-280998,-458148,0,0,0,541,596,226,502,558,525,292,295,424,281,206,579,0
2,1769098519280,4034,-181,22837,6098878,-474031,-753807,0,0,0,518,585,213,495,549,521,269,242,407,266,190,525,0
2,1769098519296,4766,-1153,27800,7244861,-700051,-1014036,0,0,0,480,565,200,473,521,493,250,194,382,259,183,485,0
2,1769098519312,6307,-1713,31050,8169711,-724486,-1258382,0,0,0,422,530,192,454,482,457,252,189,340,253,178,461,0
2,1769098519328,6054,-344,32658,8812341,-591317,-1577254,0,0,0,342,490,171,411,439,411,276,229,296,233,173,416,0
2,1769098519344,5192,3263,33515,8976053,-547335,-1814269,0,0,0,245,447,169,362,384,373,293,241,274,187,162,290,0
2,1769098519360,7824,10892,28868,8533787,-739146,-2029294,0,0,0,258,439,169,361,377,365,300,261,275,173,152,241,0
2,1769098519376,10284,18865,19104,7575950,-746477,-2398256,0,0,0,250,437,161,359,377,364,301,274,274,165,158,224,0
2,1769098519392,7925,24843,11284,4503298,-571769,-2304183,0,0,0,243,430,160,347,377,347,296,278,259,164,160,218,0
2,1769098519408,3455,25613,9667,-558330,-663399,-1275486,0,0,0,241,431,161,345,376,340,296,284,250,158,160,208,0
2,1769098519424,2081,17678,11079,-4576602,-1211956,191811,0,0,0,236,431,159,346,378,338,291,289,242,154,156,199,0
2,1769098519440,5972,8413,7968,-5175250,-1447750,888198,0,0,0,230,426,160,340,376,337,290,300,241,201,192,196,0
2,1769098519456,8810,4948,4647,-4602258,-759916,718377,0,0,0,229,425,159,339,378,334,289,310,242,178,182,191,0
2,1769098519472,7427,5910,5226,-4605923,213802,333532,0,0,0,228,423,158,336,377,330,287,320,241,149,168,187,0
2,1769098519488,4503,6479,8513,-5446474,656069,305432,0,0,0,224,421,156,333,375,326,285,328,239,149,171,184,0
2,1769098519504,4254,5092,10346,-6091548,671951,538783,0,0,0,224,423,157,332,376,323,283,332,235,149,175,181,0
2,1769098519520,4982,3182,11141,-6233268,963945,734260,0,0,0,226,427,161,333,377,324,283,335,233,149,176,179,0
2,1769098519536,4417,2263,12605,-6283359,1324355,851546,0,0,0,225,424,159,336,380,330,286,338,237,147,175,178,0
2,1769098519552,3651,1904,14859,-6491054,1499063,998153,0,0,0,227,426,162,339,382,333,290,344,242,148,175,179,0
2,1769098519568,3551,1426,16841,-6742730,1591914,1111774,0,0,0,225,424,159,335,380,327,290,343,243,150,180,179,0
2,1769098519584,3445,765,18875,-6896668,1727526,1159422,0,0,0,229,428,160,333,377,323,286,340,239,150,181,174,0
2,1769098519600,3086,406,21478,-6857573,1848478,1186300,0,0,0,229,428,164,333,377,325,291,344,244,164,187,174,0
2,1769098519616,3077,349,24766,-6830695,1938886,1258382,0,0,0,226,427,157,338,379,328,291,343,243,151,175,175,0
2,1769098519632,3196,-86,29313,-6962641,2018298,1426981,0,0,0,228,425,160,339,380,329,293,343,242,149,174,177,0
2,1769098519648,2790,-3680,33400,-7265631,2020742,1704314,0,0,0,226,427,160,342,383,334,299,343,245,150,171,180,0
2,1769098519664,1971,-11227,35400,-7375586,1924225,1846034,0,0,0,226,429,159,344,381,337,307,341,249,154,171,182,0
2,1769098519680,2627,-23278,32050,-6758613,1508837,1462411,0,0,0,224,435,156,345,378,344,312,337,251,153,171,181,0
2,1769098519696,3723,-35788,23924,-5406157,1229060,498466,0,0,0,225,439,154,346,377,350,317,334,251,153,171,179,0
2,1769098519712,-1076,-43890,14989,-3369532,1512502,-897971,0,0,0,227,438,155,350,377,352,323,333,250,156,171,179,0
2,1769098519728,-10997,-45393,13050,-1452637,1270599,-1639562,0,0,0,224,422,155,351,370,347,335,350,248,196,204,179,0
2,1769098519744,-13563,-43646,13764,235793,160046,-1632231,0,0,0,219,388,149,342,349,332,375,400,246,246,275,178,0
2,1769098519760,-9265,-33964,18750,1920560,-1181413,-1208291,0,0,0,223,361,144,338,328,329,429,457,245,235,333,176,0
2,1769098519776,-3967,-4240,22311,4289495,-3760486,-230907,0,0,0,237,351,150,348,304,343,464,473,256,287,422,179,0
2,1769098519792,291,9911,17185,6203947,-4598593,722042,0,0,0,237,358,160,344,307,361,476,493,270,261,428,190,0
2,1769098519808,-2469,1464,19339,6398202,-1974316,1067792,0,0,0,240,364,166,349,314,366,497,522,278,300,445,191,0
2,1769098519824,-4379,-3957,23704,5048190,-118507,386066,0,0,0,255,390,176,359,311,374,534,533,279,316,453,211,0
2,1769098519840,-196,-1478,20617,3375641,-239459,-337197,0,0,0,269,416,190,382,332,391,565,565,300,348,461,243,0
2,1769098519856,2354,760,13558,2131919,-634078,-69638,0,0,0,280,452,204,401,371,408,588,589,310,357,443,289,0
2,1769098519872,1545,234,10567,1121548,-593761,224798,0,0,0,295,470,220,418,390,424,602,605,318,359,437,342,0
2,1769098519888,143,-617,10744,289550,-355523,196698,0,0,0,318,488,244,419,394,430,605,611,312,363,436,368,0
2,1769098519904,373,220,10667,21991,-250454,10995,0,0,0,332,496,255,420,395,430,598,621,316,367,432,373,0
2,1769098519920,722,760,10246,25656,-197920,-20769,0,0,0,339,497,254,428,398,431,605,624,320,371,433,375,0
2,1769098519936,813,837,10074,42760,-130725,0,0,0,0,343,499,251,433,404,434,615,621,317,384,443,377,0
2,1769098519952,717,751,10160,29321,-74525,1221,0,0,0,342,499,253,431,405,434,612,620,314,389,445,375,0
2,1769098519968,684,780,10174,42760,-39095,-17104,0,0,0,340,498,258,429,403,433,607,616,313,374,431,374,0
2,1769098519984,708,799,10122,69638,-7330,-28099,0,0,0,340,497,266,427,401,432,603,606,312,365,423,369,0
2,1769098520000,732,789,10078,92851,17104,-28099,0,0,0,348,501,246,427,404,419,600,606,308,359,425,357,0
2,1769098520016,741,780,10069,97738,26878,-24434,0,0,0,340,501,247,426,404,420,592,610,302,368,466,356,0
2,1769098520032,760,775,10059,103847,28099,-24434,0,0,0,333,496,242,426,402,418,583,606,296,344,394,357,0
2,1769098520048,789,780,10035,118507,21991,-26878,0,0,0,341,503,254,427,404,418,589,599,307,345,392,358,0
2,1769098520064,827,780,10002,140499,6108,-29321,0,0,0,339,502,259,426,404,423,582,592,316,340,383,362,0
2,1769098520080,861,765,10002,162490,-13439,-34208,0,0,0,346,504,250,425,402,423,583,590,314,331,373,370,0
2,1769098520096,861,732,10021,183259,-39095,-41538,0,0,0,356,512,248,425,406,421,577,567,314,309,342,386,0
2,1769098520112,842,660,10031,197920,-61086,-47647,0,0,0,368,527,252,427,412,427,580,564,323,302,325,394,0
2,1769098520128,823,607,10026,197920,-79412,-48869,0,0,0,383,527,261,432,413,433,574,556,332,302,313,403,0
2,1769098520144,804,607,10021,194255,-91629,-50090,0,0,0,399,529,266,440,422,443,572,537,342,304,301,428,0
2,1769098520160,813,646,10083,233350,-100181,-51312,0,0,0,414,538,267,453,438,454,572,516,349,302,281,455,0
2,1769098520176,847,622,10174,310319,-107512,-61086,0,0,0,427,549,274,459,448,462,570,495,356,302,262,476,0
2,1769098520192,856,540,10246,392175,-116064,-78190,0,0,0,445,561,282,465,456,477,568,471,365,304,250,497,0
2,1769098520208,885,459,10332,471587,-130725,-102625,0,0,0,470,571,289,477,469,497,558,446,373,296,236,522,0
2,1769098520224,985,402,10595,585208,-163711,-139277,0,0,0,486,585,291,484,483,493,549,419,390,306,233,552,0
2,1769098520240,1024,320,11074,781907,-207694,-185703,0,0,0,500,592,274,501,501,507,543,405,394,330,238,578,0
2,1769098520256,875,229,11959,1137431,-216246,-223576,0,0,0,507,605,251,521,516,517,544,406,407,441,286,567,0
2,1769098520272,593,291,13022,1622458,-91629,-215024,0,0,0,510,605,222,532,528,529,507,394,394,317,235,615,0
2,1769098520288,636,291,13941,2122145,24434,-177150,0,0,0,531,613,224,530,536,523,491,402,406,317,237,620,0
2,1769098520304,1158,287,15051,2649933,7330,-160046,0,0,0,540,609,219,527,543,522,444,388,402,327,239,621,0
2,1769098520320,1770,301,16467,3386636,-136833,-234572,0,0,0,549,602,224,522,538,528,402,374,399,327,231,620,0
2,1769098520336,1732,430,17750,4162435,-218689,-346971,0,0,0,548,599,234,518,536,539,362,354,398,315,221,619,0
2,1769098520352,2062,583,19291,5044525,-221133,-466701,0,0,0,538,591,223,514,548,539,320,319,409,299,210,593,0
2,1769098520368,3555,588,22675,6306572,-271224,-719599,0,0,0,513,570,209,503,545,532,285,262,406,276,196,536,0
2,1769098520384,4484,-157,27226,7487986,-401949,-954171,0,0,0,473,550,201,485,521,515,264,209,381,264,190,492,0
2,1769098520400,5340,-909,30815,8425053,-340862,-1142317,0,0,0,421,528,187,464,489,471,262,194,346,258,187,462,0
2,1769098520416,5049,-105,33203,9129991,-180816,-1407433,0,0,0,349,487,172,425,449,414,276,223,305,232,175,401,0
2,1769098520432,5384,3795,32974,9129991,-169820,-1660331,0,0,0,267,447,166,367,404,375,297,275,278,195,164,307,0
2,1769098520448,7743,10792,28245,8603426,-272445,-1942551,0,0,0,251,433,162,365,380,366,314,267,277,175,158,240,0
2,1769098520464,9380,17736,17339,7159340,-335975,-2361605,0,0,0,246,429,156,359,375,360,312,282,275,162,151,217,0
2,1769098520480,7508,22880,9399,4109901,-304210,-2373822,0,0,0,247,434,162,356,380,355,307,290,267,162,156,218,0
2,1769098520496,2345,23077,9246,-921184,-508239,-1352455,0,0,0,243,430,163,347,374,349,304,292,255,160,156,208,0
2,1769098520512,2019,15419,9700,-3881437,-1254717,-92851,0,0,0,235,426,160,345,374,344,295,296,247,153,156,201,0
2,1769098520528,5704,7240,6613,-4910134,-1699427,591317,0,0,0,226,429,157,341,374,340,290,301,241,170,192,196,0
2,1769098520544,9289,4273,2924,-4390899,-970053,222354,0,0,0,224,425,156,341,378,338,290,315,240,158,178,192,0
2,1769098520560,7030,5599,4101,-4514294,228463,-342084,0,0,0,225,423,156,338,378,332,288,325,242,150,169,186,0
2,1769098520576,3737,6326,6771,-5026199,796568,-526565,0,0,0,228,423,158,339,377,330,284,328,237,152,173,183,0
2,1769098520592,3129,5451,8217,-5435478,819781,-320093,0,0,0,230,423,159,340,379,331,283,337,235,152,178,181,0
2,1769098520608,3565,4407,9107,-5639507,1047023,-78190,0,0,0,228,422,159,338,382,330,284,351,238,149,182,179,0
2,1769098520624,3287,3962,10552,-5765346,1461189,134390,0,0,0,229,422,159,337,383,328,283,356,236,150,185,177,0
2,1769098520640,2321,3953,13117,-6081774,1727526,434936,0,0,0,230,422,158,337,384,327,285,358,236,150,185,175,0
2,1769098520656,2230,3689,15271,-6444628,1781283,713490,0,0,0,228,421,155,336,384,327,290,360,237,151,187,176,0
2,1769098520672,2842,2995,17458,-6758613,1860695,906524,0,0,0,227,423,154,338,381,332,289,360,233,147,187,173,0
2,1769098520688,3316,2249,20052,-6994406,2004859,1029918,0,0,0,232,423,161,336,380,327,292,370,238,147,188,170,0
2,1769098520704,3618,1541,23455,-7152010,2155132,1152091,0,0,0,232,423,160,339,383,328,291,368,238,147,190,169,0
2,1769098520720,4178,488,27896,-7231422,2269975,1414763,0,0,0,224,418,154,339,381,328,295,352,247,147,186,172,0
2,1769098520736,4321,-2392,31974,-7255857,2452013,1880243,0,0,0,229,425,161,338,376,328,299,362,245,150,181,177,0
2,1769098520752,2225,-8858,35142,-7144679,2730567,2414139,0,0,0,230,429,161,342,373,333,306,356,247,155,178,178,0
2,1769098520768,-1593,-21019,35912,-6677978,2342057,2696359,0,0,0,224,427,154,347,377,344,312,353,248,154,175,176,0
2,1769098520784,650,-35840,29317,-5660277,1161865,2262644,0,0,0,222,428,151,350,379,353,320,355,253,155,176,177,0
2,1769098520800,3469,-46101,17717,-3784921,944397,502131,0,0,0,222,429,150,350,379,355,320,357,254,155,178,177,0
2,1769098520816,-2928,-49791,11954,-1762957,1299921,-1413542,0,0,0,213,408,150,344,366,350,353,411,255,169,221,180,0
2,1769098520832,-15419,-46762,15501,277332,768468,-2399478,0,0,0,215,364,152,331,329,341,375,448,267,195,287,186,0
2,1769098520848,-15017,-29475,23929,2701246,-2383596,-1343903,0,0,0,231,342,156,332,303,343,412,461,276,232,362,185,0
2,1769098520864,-3335,-569,21622,5726250,-5393940,127059,0,0,0,243,356,160,350,310,356,478,485,275,269,418,183,0
2,1769098520880,2517,7729,18042,7112914,-3844785,1051909,0,0,0,249,365,162,354,316,363,503,504,277,287,430,191,0
2,1769098520896,-3421,-952,24139,5764124,-627969,698829,0,0,0,257,383,172,362,318,368,529,534,279,312,449,206,0
2,1769098520912,-2895,-3316,22947,3535688,20769,-240680,0,0,0,260,411,185,374,336,374,548,560,293,326,455,235,0
2,1769098520928,1574,114,13993,1962099,-475253,-235793,0,0,0,264,435,209,389,352,401,573,574,320,328,444,272,0
2,1769098520944,2239,1076,9432,1003040,-542448,89186,0,0,0,296,457,230,392,365,400,596,608,329,442,526,283,0
2,1769098520960,765,14,10016,321315,-377514,218689,0,0,0,309,473,243,412,382,416,601,610,321,440,520,316,0
2,1769098520976,330,172,10820,37873,-317649,68416,0,0,0,330,485,266,424,385,415,617,623,314,420,492,336,0
2,1769098520992,536,794,10490,-15882,-279776,-12217,0,0,0,348,493,289,417,385,417,615,621,302,479,545,340,0
2,1769098521008,770,1143,10021,14660,-195476,-3665,0,0,0,360,496,288,415,383,417,617,624,307,499,561,341,0
2,1769098521024,722,1048,10117,32986,-98960,9773,0,0,0,364,496,292,415,382,418,623,631,312,431,495,353,0
2,1769098521040,650,995,10203,59864,-40317,-2443,0,0,0,364,496,295,417,385,421,621,626,309,386,450,361,0
2,1769098521056,650,1028,10165,107512,0,-18325,0,0,0,367,500,293,422,391,424,613,612,307,400,453,360,0
2,1769098521072,684,1052,10093,166155,31764,-18325,0,0,0,371,505,294,422,393,424,608,596,312,403,443,361,0
2,1769098521088,722,1033,10088,217468,48869,-14660,0,0,0,369,505,290,426,393,426,604,584,318,361,398,374,0
2,1769098521104,775,961,10078,255341,40317,-18325,0,0,0,372,505,287,442,398,430,600,574,323,305,337,392,0
2,1769098521120,813,899,10035,265115,21991,-26878,0,0,0,375,509,280,445,403,436,592,564,325,300,322,393,0
2,1769098521136,823,851,10011,256563,0,-36651,0,0,0,374,511,274,434,409,438,583,544,329,285,313,401,0
2,1769098521152,813,818,10016,254119,-17104,-46425,0,0,0,379,513,274,434,409,438,576,526,333,283,283,410,0
2,1769098521168,818,804,10059,266337,-29321,-58643,0,0,0,390,521,275,438,413,443,566,497,337,380,377,402,0
2,1769098521184,832,789,10078,290771,-42760,-68416,0,0,0,406,536,289,441,418,440,572,480,348,299,271,427,0
2,1769098521200,827,751,10078,328645,-65973,-76969,0,0,0,414,543,289,449,436,450,572,464,360,280,244,445,0
2,1769098521216,823,689,10107,368962,-95294,-83077,0,0,0,428,551,287,457,448,459,560,447,361,284,233,467,0
2,1769098521232,837,593,10179,419053,-117286,-95294,0,0,0,446,561,299,466,457,467,555,425,362,287,227,490,0
2,1769098521248,866,531,10313,487470,-134390,-113620,0,0,0,463,568,300,478,463,483,554,408,364,288,219,512,0
2,1769098521264,871,473,10500,609643,-160046,-136833,0,0,0,477,571,291,489,473,504,548,396,372,288,214,537,0
2,1769098521280,827,368,10753,775798,-177150,-157603,0,0,0,489,578,290,501,507,506,546,388,398,294,217,557,0
2,1769098521296,856,239,11155,1003040,-134390,-175929,0,0,0,501,588,279,513,533,500,541,384,415,300,220,573,0
2,1769098521312,866,177,11643,1248608,-52534,-204028,0,0,0,512,597,247,518,516,527,522,378,403,304,222,594,0
2,1769098521328,689,177,12294,1550375,9773,-213802,0,0,0,518,608,233,531,528,533,513,376,422,314,227,608,0
2,1769098521344,502,119,13194,2004859,40317,-162490,0,0,0,528,607,230,537,535,534,478,368,416,315,229,612,0
2,1769098521360,368,95,13974,2497217,75747,-87964,0,0,0,545,602,234,538,535,531,436,365,427,316,225,624,0
2,1769098521376,794,33,14855,3034778,83077,-17104,0,0,0,549,599,213,524,542,539,404,364,420,321,233,638,0
2,1769098521392,2067,-81,16156,3698178,2443,-101403,0,0,0,565,603,233,525,551,536,357,346,422,313,222,637,0
2,1769098521408,2756,-52,17764,4478863,-119729,-331088,0,0,0,553,602,222,526,557,547,327,311,430,305,219,624,0
2,1769098521424,3220,-90,19669,5358509,-233350,-580321,0,0,0,545,602,222,522,564,555,283,273,428,288,204,581,0
2,1769098521440,3981,-789,23349,6519153,-371406,-873537,0,0,0,510,586,215,520,558,543,262,218,409,270,189,531,0
2,1769098521456,4977,-3421,27944,7657806,-444709,-1082453,0,0,0,468,556,202,491,525,510,256,186,380,264,182,500,0
2,1769098521472,5867,-5072,32667,8338310,-34208,-1247386,0,0,0,403,519,183,450,481,458,263,187,337,252,179,463,0
2,1769098521488,3709,-478,36075,8560665,41538,-1512502,0,0,0,310,475,172,397,426,403,285,213,297,216,168,375,0
2,1769098521504,5417,7461,33941,8585100,-395840,-1729970,0,0,0,250,445,166,359,385,370,306,243,279,186,167,281,0
2,1769098521520,9160,14989,26676,8188037,-421497,-2091602,0,0,0,242,439,159,355,376,363,309,261,276,180,180,237,0
2,1769098521536,9361,20401,15764,6685309,-361632,-2537534,0,0,0,234,433,157,350,375,362,299,272,267,172,181,224,0
2,1769098521552,5403,24000,10069,2495995,-532674,-2276083,0,0,0,230,431,158,342,375,351,293,280,258,167,177,218,0
2,1769098521568,1909,21708,10227,-2146580,-995710,-1266934,0,0,0,231,425,156,342,380,343,297,291,248,157,162,206,0
2,1769098521584,3531,13275,8959,-4690223,-1560149,-128281,0,0,0,229,427,160,343,380,342,289,299,240,156,164,201,0
2,1769098521600,7686,6666,4766,-5028642,-1292590,234572,0,0,0,227,427,158,340,385,336,291,310,240,159,172,200,0
2,1769098521616,8260,5498,3134,-4692666,-207694,-80634,0,0,0,217,425,177,339,382,351,285,314,245,160,180,202,0
2,1769098521632,4891,6073,5331,-4868595,616973,-263893,0,0,0,220,427,159,337,380,333,289,324,239,158,179,193,0
2,1769098521648,2574,6039,7724,-5248554,805120,-145385,0,0,0,220,428,156,333,376,325,285,331,237,159,186,193,0
2,1769098521664,3043,5092,8844,-5579643,801455,97738,0,0,0,220,427,156,335,382,328,284,338,236,159,190,192,0
2,1769098521680,3589,4335,9710,-5748241,1128878,191811,0,0,0,220,427,155,337,382,329,286,340,236,156,185,186,0
