sole_id,timestamp,accel_x,accel_y,accel_z,gyro_x,gyro_y,gyro_z,magn_x,magn_y,magn_z,pressure_01,pressure_02,pressure_03,pressure_04,pressure_05,pressure_06,pressure_07,pressure_08,pressure_09,pressure_10,pressure_11,pressure_12,corrupt
1,1768494463136,-928,598,9868,17104,-32986,8552,0,0,0,294,390,223,409,292,406,603,430,371,499,508,363,0
1,1768494463152,-928,603,9877,18325,-32986,8552,0,0,0,294,390,225,409,292,408,603,434,372,499,509,362,0
1,1768494463168,-928,603,9882,17104,-32986,8552,0,0,0,296,391,226,410,293,408,603,439,372,502,512,363,0
1,1768494463184,-923,603,9877,15882,-34208,8552,0,0,0,295,392,226,414,297,411,604,441,372,502,513,362,0
1,1768494463200,-923,607,9877,15882,-32986,8552,0,0,0,295,392,227,412,297,411,601,438,368,514,505,362,0
1,1768494463216,-928,598,9877,14660,-32986,7330,0,0,0,295,390,223,410,298,408,600,442,370,510,511,363,0
1,1768494463232,-938,598,9868,14660,-34208,7330,0,0,0,295,390,222,411,297,408,602,444,371,505,518,364,0
1,1768494463248,-933,598,9873,14660,-32986,7330,0,0,0,296,392,224,412,294,410,602,443,370,504,518,364,0
1,1768494463264,-933,603,9882,14660,-32986,7330,0,0,0,297,394,226,410,293,409,601,441,369,502,516,362,0
1,1768494463280,-928,607,9887,14660,-34208,7330,0,0,0,297,393,227,409,293,408,600,440,368,502,516,363,0
1,1768494463296,-928,607,9887,14660,-35430,8552,0,0,0,296,392,226,409,292,408,601,442,370,505,520,366,0
1,1768494463312,-923,607,9887,15882,-35430,8552,0,0,0,294,391,224,407,291,408,606,447,376,505,519,368,0
1,1768494463328,-923,612,9892,17104,-34208,7330,0,0,0,295,391,226,407,292,408,605,445,375,503,517,364,0
1,1768494463344,-928,612,9887,15882,-34208,8552,0,0,0,296,392,226,412,297,414,601,441,370,504,514,363,0
1,1768494463360,-928,603,9887,14660,-34208,8552,0,0,0,295,390,227,410,294,412,601,440,371,502,513,363,0
1,1768494463376,-928,603,9887,13439,-34208,8552,0,0,0,295,391,228,409,292,409,601,439,369,504,514,364,0
1,1768494463392,-928,607,9892,14660,-34208,7330,0,0,0,297,390,225,409,292,409,603,439,366,502,513,363,0
1,1768494463408,-923,598,9887,14660,-34208,7330,0,0,0,299,390,226,408,291,406,605,440,368,504,515,365,0
1,1768494463424,-923,598,9887,15882,-34208,7330,0,0,0,300,390,227,409,292,408,606,441,368,503,513,364,0
1,1768494463440,-928,598,9887,14660,-32986,7330,0,0,0,298,387,225,385,326,397,604,443,369,503,514,364,0
1,1768494463456,-933,603,9887,13439,-32986,7330,0,0,0,298,389,227,386,322,396,603,440,367,504,516,365,0
1,1768494463472,-933,598,9892,13439,-34208,8552,0,0,0,299,391,226,407,291,405,605,439,368,502,514,363,0
1,1768494463488,-928,598,9892,14660,-34208,8552,0,0,0,298,390,224,409,292,407,607,441,372,501,512,361,0
1,1768494463504,-928,603,9892,18325,-34208,8552,0,0,0,300,392,228,409,292,407,606,439,370,502,514,361,0
1,1768494463520,-928,603,9877,18325,-34208,8552,0,0,0,299,391,225,406,289,403,611,442,373,504,514,361,0
1,1768494463536,-933,603,9877,17104,-34208,8552,0,0,0,298,391,225,412,295,408,607,443,370,504,515,362,0
1,1768494463552,-933,598,9887,15882,-34208,8552,0,0,0,301,393,226,413,296,410,605,437,365,507,515,363,0
1,1768494463568,-928,593,9887,14660,-34208,7330,0,0,0,298,390,223,407,293,404,605,439,367,504,514,362,0
1,1768494463584,-928,593,9892,14660,-34208,7330,0,0,0,298,391,225,408,292,405,606,443,369,505,515,363,0
1,1768494463600,-933,603,9897,14660,-34208,8552,0,0,0,295,391,223,411,295,406,606,444,370,504,515,364,0
1,1768494463616,-933,603,9897,15882,-34208,8552,0,0,0,296,389,223,412,294,407,604,442,367,505,515,363,0
1,1768494463632,-923,603,9892,14660,-35430,8552,0,0,0,297,389,224,411,294,406,605,443,368,505,516,361,0
1,1768494463648,-923,607,9892,14660,-35430,7330,0,0,0,298,389,225,409,293,405,606,443,366,505,516,361,0
1,1768494463664,-928,612,9892,13439,-34208,6108,0,0,0,300,389,226,409,294,406,606,441,365,503,514,361,0
1,1768494463680,-933,612,9897,12217,-34208,6108,0,0,0,300,388,227,412,294,408,608,442,368,502,513,361,0
1,1768494463696,-933,603,9897,10995,-35430,6108,0,0,0,296,387,225,411,291,406,608,443,367,506,516,362,0
1,1768494463712,-933,603,9897,9773,-35430,7330,0,0,0,295,388,219,409,289,404,604,441,364,505,516,359,0
1,1768494463728,-928,603,9897,9773,-34208,7330,0,0,0,295,387,218,408,291,401,603,437,361,502,515,357,0
1,1768494463744,-928,603,9897,9773,-34208,7330,0,0,0,296,387,235,408,288,409,607,435,368,500,511,357,0
1,1768494463760,-928,598,9901,9773,-34208,7330,0,0,0,296,388,250,406,288,413,603,434,367,504,513,360,0
1,1768494463776,-923,598,9892,10995,-35430,8552,0,0,0,299,389,252,403,286,409,607,434,369,502,511,360,0
1,1768494463792,-923,617,9897,12217,-35430,7330,0,0,0,296,388,248,404,285,408,609,437,369,501,511,358,0
1,1768494463808,-928,617,9897,12217,-35430,7330,0,0,0,296,389,249,403,285,406,612,439,372,503,514,360,0
1,1768494463824,-933,607,9897,12217,-34208,7330,0,0,0,295,389,244,404,286,406,612,438,370,504,517,361,0
1,1768494463840,-933,603,9892,13439,-34208,7330,0,0,0,295,388,242,406,291,408,612,437,368,501,516,358,0
1,1768494463856,-933,603,9897,15882,-34208,7330,0,0,0,296,388,242,405,291,408,611,439,369,498,513,358,0
1,1768494463872,-933,607,9906,19547,-35430,8552,0,0,0,296,388,241,404,290,409,610,440,370,498,512,359,0
1,1768494463888,-938,612,9901,21991,-34208,8552,0,0,0,295,387,240,405,291,412,610,441,371,501,513,362,0
1,1768494463904,-938,607,9892,23212,-34208,9773,0,0,0,295,387,242,406,289,412,611,442,372,503,512,363,0
1,1768494463920,-938,603,9892,19547,-34208,8552,0,0,0,297,388,241,402,287,408,610,442,371,503,512,362,0
1,1768494463936,-933,603,9892,17104,-34208,8552,0,0,0,295,386,241,404,287,410,610,439,370,503,512,364,0
1,1768494463952,-928,607,9901,17104,-34208,8552,0,0,0,296,386,242,401,283,408,610,434,367,503,510,364,0
1,1768494463968,-923,617,9906,19547,-34208,8552,0,0,0,297,388,245,406,291,416,612,442,376,503,511,365,0
1,1768494463984,-923,617,9911,21991,-32986,8552,0,0,0,296,388,245,402,286,414,610,442,374,501,511,365,0
1,1768494464000,-923,598,9901,23212,-32986,8552,0,0,0,298,389,249,409,293,419,610,444,374,505,515,368,0
1,1768494464016,-918,588,9901,21991,-32986,9773,0,0,0,295,386,245,406,290,416,611,442,375,501,509,364,0
1,1768494464032,-923,588,9906,18325,-34208,8552,0,0,0,295,386,244,407,291,418,611,442,375,503,511,367,0
1,1768494464048,-918,598,9906,15882,-34208,7330,0,0,0,295,388,245,404,289,416,610,441,373,508,515,372,0
1,1768494464064,-923,603,9906,15882,-35430,7330,0,0,0,295,389,245,405,287,416,610,442,373,508,514,372,0
1,1768494464080,-938,603,9906,17104,-35430,7330,0,0,0,296,389,246,405,287,416,610,443,374,505,510,367,0
1,1768494464096,-942,598,9906,18325,-35430,8552,0,0,0,297,390,248,404,287,415,610,441,374,503,508,365,0
1,1768494464112,-928,598,9911,19547,-34208,8552,0,0,0,297,390,248,406,289,416,609,441,375,506,511,368,0
1,1768494464128,-928,603,9906,19547,-32986,8552,0,0,0,300,395,251,406,289,416,607,440,373,504,513,366,0
1,1768494464144,-928,603,9901,20769,-34208,9773,0,0,0,299,394,249,406,290,415,608,440,374,500,508,362,0
1,1768494464160,-923,598,9897,20769,-34208,9773,0,0,0,298,393,245,406,290,414,608,443,376,506,512,367,0
1,1768494464176,-923,588,9897,21991,-34208,8552,0,0,0,295,390,245,403,287,414,612,442,374,508,512,369,0
1,1768494464192,-923,583,9901,20769,-32986,8552,0,0,0,298,392,247,405,291,416,610,442,375,506,512,369,0
1,1768494464208,-923,588,9901,19547,-32986,8552,0,0,0,296,390,247,406,293,417,611,445,376,503,508,365,0
1,1768494464224,-923,598,9901,19547,-32986,8552,0,0,0,296,391,245,409,294,418,611,445,377,503,508,364,0
1,1768494464240,-928,603,9906,19547,-34208,8552,0,0,0,297,392,247,407,292,418,608,442,374,505,510,367,0
1,1768494464256,-923,593,9901,18325,-34208,8552,0,0,0,296,391,247,406,289,417,609,443,376,507,511,370,0
1,1768494464272,-923,593,9901,17104,-34208,8552,0,0,0,298,393,247,409,293,419,612,444,378,504,510,367,0
1,1768494464288,-923,593,9906,15882,-34208,8552,0,0,0,300,395,249,410,294,420,611,443,377,504,513,367,0
1,1768494464304,-923,598,9920,15882,-35430,8552,0,0,0,301,394,249,407,292,417,612,445,379,504,513,366,0
1,1768494464320,-928,598,9906,15882,-34208,8552,0,0,0,301,393,249,406,291,415,613,446,379,505,513,366,0
1,1768494464336,-933,598,9901,18325,-34208,8552,0,0,0,297,391,247,403,288,415,608,442,375,509,517,371,0
1,1768494464352,-928,583,9901,19547,-34208,8552,0,0,0,296,390,250,405,291,418,611,446,378,504,512,366,0
1,1768494464368,-928,583,9911,18325,-34208,8552,0,0,0,295,390,251,405,292,419,612,448,382,505,514,369,0
1,1768494464384,-938,593,9916,17104,-34208,8552,0,0,0,297,393,255,408,294,423,607,442,374,506,515,368,0
1,1768494464400,-928,593,9911,17104,-34208,8552,0,0,0,298,393,256,406,292,420,609,444,378,507,515,369,0
1,1768494464416,-928,598,9911,17104,-34208,8552,0,0,0,299,394,257,407,292,422,606,444,379,504,513,368,0
1,1768494464432,-923,598,9916,17104,-36651,8552,0,0,0,299,392,257,409,291,423,609,444,382,501,510,364,0
1,1768494464448,-923,593,9906,17104,-35430,8552,0,0,0,297,392,261,407,289,424,610,446,385,504,513,368,0
1,1768494464464,-938,588,9906,17104,-34208,8552,0,0,0,298,392,262,405,290,423,609,446,383,503,513,368,0
1,1768494464480,-938,588,9906,17104,-34208,8552,0,0,0,300,392,262,405,289,423,609,448,383,502,511,366,0
1,1768494464496,-933,593,9906,17104,-34208,8552,0,0,0,301,392,263,406,287,424,610,449,384,504,512,368,0
1,1768494464512,-918,588,9906,19547,-32986,8552,0,0,0,299,391,263,408,288,426,611,448,385,505,513,370,0
1,1768494464528,-918,583,9906,20769,-32986,8552,0,0,0,298,391,262,407,290,426,610,446,384,505,512,369,0
1,1768494464544,-923,588,9906,19547,-32986,8552,0,0,0,299,391,262,406,288,427,608,443,381,512,512,372,0
1,1768494464560,-923,588,9906,17104,-32986,8552,0,0,0,298,388,262,404,282,424,617,444,384,520,513,371,0
1,1768494464576,-928,579,9911,15882,-34208,8552,0,0,0,292,385,258,406,283,426,619,444,384,522,512,370,0
1,1768494464592,-933,579,9906,15882,-34208,8552,0,0,0,294,388,263,404,284,425,615,438,378,522,511,369,0
1,1768494464608,-923,579,9906,15882,-34208,8552,0,0,0,296,388,264,404,284,425,615,434,378,522,511,369,0
1,1768494464624,-918,588,9911,15882,-34208,8552,0,0,0,297,389,264,406,284,426,614,435,377,522,512,370,0
1,1768494464640,-923,588,9901,15882,-34208,8552,0,0,0,295,387,261,406,286,426,614,438,377,524,512,371,0
1,1768494464656,-933,583,9901,15882,-35430,8552,0,0,0,296,387,261,405,283,424,612,438,378,521,511,368,0
1,1768494464672,-942,583,9911,17104,-35430,9773,0,0,0,299,389,263,403,282,424,612,438,377,525,515,372,0
1,1768494464688,-938,583,9911,17104,-34208,8552,0,0,0,300,391,264,402,283,424,614,440,377,527,517,374,0
1,1768494464704,-928,583,9906,15882,-34208,7330,0,0,0,300,391,264,404,284,424,615,443,379,524,516,372,0
1,1768494464720,-923,574,9906,13439,-34208,7330,0,0,0,301,390,264,405,286,425,616,443,381,522,515,371,0
1,1768494464736,-923,579,9911,13439,-34208,6108,0,0,0,300,390,264,406,284,424,617,444,383,520,513,369,0
1,1768494464752,-933,588,9911,13439,-35430,6108,0,0,0,302,390,264,405,283,424,614,441,380,520,513,371,0
1,1768494464768,-928,588,9911,13439,-35430,6108,0,0,0,301,391,265,405,284,424,617,442,382,522,514,371,0
1,1768494464784,-928,583,9911,13439,-34208,7330,0,0,0,301,391,265,407,287,425,618,443,383,520,514,369,0
1,1768494464800,-928,574,9906,14660,-32986,7330,0,0,0,301,389,262,409,287,429,615,441,380,519,514,370,0
1,1768494464816,-923,574,9901,15882,-32986,7330,0,0,0,300,388,264,406,284,425,616,442,381,519,515,371,0
1,1768494464832,-923,583,9911,17104,-34208,7330,0,0,0,302,390,269,407,287,428,616,443,383,520,516,373,0
1,1768494464848,-923,588,9920,17104,-34208,7330,0,0,0,299,389,269,408,285,429,617,446,386,517,513,370,0
1,1768494464864,-933,583,9925,17104,-34208,7330,0,0,0,298,388,268,406,281,426,617,446,387,513,511,367,0
1,1768494464880,-933,583,9911,18325,-34208,7330,0,0,0,299,388,268,405,282,426,599,430,394,513,511,368,0
1,1768494464896,-928,583,9911,19547,-34208,8552,0,0,0,301,388,269,406,283,427,599,430,391,513,511,369,0
1,1768494464912,-923,583,9911,19547,-34208,8552,0,0,0,300,388,269,406,281,427,611,442,382,508,510,367,0
1,1768494464928,-928,588,9911,18325,-34208,8552,0,0,0,299,389,266,404,280,425,611,445,384,504,511,368,0
1,1768494464944,-933,593,9911,19547,-32986,8552,0,0,0,301,393,267,405,279,424,614,448,387,508,513,370,0
1,1768494464960,-928,583,9916,21991,-32986,8552,0,0,0,300,389,265,405,278,424,608,443,383,508,510,368,0
1,1768494464976,-923,583,9920,23212,-34208,9773,0,0,0,302,392,268,405,283,426,611,446,387,505,510,367,0
1,1768494464992,-923,583,9911,21991,-34208,8552,0,0,0,304,392,271,408,283,428,611,445,387,507,512,371,0
1,1768494465008,-928,579,9911,21991,-32986,8552,0,0,0,300,389,268,408,283,428,611,446,385,507,513,369,0
1,1768494465024,-928,579,9920,23212,-32986,9773,0,0,0,301,393,265,408,285,428,610,445,385,507,512,369,0
1,1768494465040,-928,579,9920,25656,-32986,9773,0,0,0,302,394,261,409,285,426,606,442,384,507,512,370,0
1,1768494465056,-933,579,9916,25656,-32986,9773,0,0,0,296,390,258,407,281,424,606,440,381,506,512,369,0
1,1768494465072,-928,579,9911,21991,-32986,9773,0,0,0,294,390,255,406,282,423,608,443,383,506,511,369,0
1,1768494465088,-923,579,9911,21991,-31764,9773,0,0,0,295,392,255,410,285,426,609,445,385,506,511,367,0
1,1768494465104,-923,579,9916,21991,-31764,8552,0,0,0,295,393,257,411,287,427,609,445,384,505,512,366,0
1,1768494465120,-928,574,9911,20769,-32986,8552,0,0,0,295,394,257,409,288,426,608,446,384,504,511,367,0
1,1768494465136,-933,569,9906,19547,-34208,8552,0,0,0,296,396,259,410,288,427,610,448,388,505,512,368,0
1,1768494465152,-923,569,9906,17104,-32986,8552,0,0,0,294,396,261,411,289,429,614,455,396,508,514,372,0
1,1768494465168,-923,569,9916,15882,-31764,8552,0,0,0,297,398,263,409,290,428,609,451,392,509,511,371,0
1,1768494465184,-923,569,9925,15882,-31764,7330,0,0,0,297,397,262,408,290,428,608,450,390,520,508,372,0
1,1768494465200,-923,569,9925,15882,-32986,7330,0,0,0,294,394,261,408,292,429,608,447,388,507,514,371,0
1,1768494465216,-918,574,9916,17104,-32986,7330,0,0,0,295,395,262,410,291,429,610,449,390,504,511,366,0
1,1768494465232,-918,564,9906,17104,-32986,8552,0,0,0,293,393,263,408,289,429,607,447,389,506,513,371,0
1,1768494465248,-918,559,9906,17104,-32986,8552,0,0,0,293,395,262,411,294,431,606,447,389,507,515,373,0
1,1768494465264,-928,569,9920,17104,-34208,8552,0,0,0,295,396,263,407,291,428,606,450,390,503,511,367,0
1,1768494465280,-928,569,9920,17104,-34208,8552,0,0,0,296,395,263,407,289,430,608,449,391,505,513,371,0
1,1768494465296,-923,564,9911,18325,-34208,8552,0,0,0,296,395,264,408,290,430,610,450,392,506,515,371,0
1,1768494465312,-914,559,9901,18325,-34208,8552,0,0,0,296,394,264,409,289,430,609,449,391,504,513,368,0
1,1768494465328,-918,564,9901,15882,-34208,8552,0,0,0,297,393,265,409,287,430,607,446,387,505,512,369,0
1,1768494465344,-918,569,9911,17104,-34208,8552,0,0,0,298,394,266,408,287,429,609,447,387,508,514,370,0
1,1768494465360,-918,564,9916,18325,-34208,8552,0,0,0,297,393,264,409,286,429,612,449,389,506,512,367,0
1,1768494465376,-918,564,9916,20769,-34208,8552,0,0,0,298,394,267,407,283,426,610,448,387,502,508,363,0
1,1768494465392,-918,574,9911,21991,-34208,9773,0,0,0,297,394,262,407,286,423,612,448,389,503,509,366,0
1,1768494465408,-918,574,9901,20769,-34208,9773,0,0,0,302,396,256,409,285,421,611,445,383,507,514,369,0
1,1768494465424,-918,569,9901,19547,-34208,9773,0,0,0,301,395,254,412,292,427,612,448,381,504,512,365,0
1,1768494465440,-918,569,9911,18325,-34208,9773,0,0,0,300,395,254,409,290,422,615,448,385,503,510,365,0
1,1768494465456,-923,564,9920,18325,-35430,9773,0,0,0,300,395,255,408,285,422,612,447,382,510,515,371,0
1,1768494465472,-928,555,9925,18325,-35430,9773,0,0,0,300,391,254,407,283,420,612,447,382,508,516,368,0
1,1768494465488,-918,555,9920,18325,-35430,9773,0,0,0,301,394,255,407,284,421,609,443,380,506,513,368,0
1,1768494465504,-914,559,9916,18325,-35430,9773,0,0,0,302,396,256,408,286,423,608,442,379,504,511,367,0
1,1768494465520,-914,564,9916,18325,-36651,9773,0,0,0,300,394,256,410,288,426,609,444,381,504,513,369,0
1,1768494465536,-918,569,9916,18325,-35430,8552,0,0,0,299,394,256,411,290,428,610,446,387,507,513,372,0
1,1768494465552,-918,564,9920,19547,-34208,8552,0,0,0,299,394,255,410,289,428,611,448,389,506,509,370,0
1,1768494465568,-923,555,9920,20769,-34208,8552,0,0,0,299,392,254,410,286,427,611,448,388,500,508,365,0
1,1768494465584,-923,550,9916,19547,-34208,8552,0,0,0,298,393,253,412,287,427,610,447,387,502,510,367,0
1,1768494465600,-923,550,9906,14660,-34208,7330,0,0,0,300,396,254,409,284,424,610,445,386,501,510,367,0
1,1768494465616,-928,555,9901,12217,-35430,7330,0,0,0,297,394,252,413,292,429,609,449,389,501,510,368,0
1,1768494465632,-918,559,9906,12217,-35430,7330,0,0,0,297,396,252,397,325,423,603,449,387,507,514,373,0
1,1768494465648,-914,564,9920,12217,-36651,7330,0,0,0,298,395,254,409,291,425,609,448,387,503,510,369,0
1,1768494465664,-928,564,9925,15882,-36651,8552,0,0,0,297,390,252,414,287,428,610,447,385,552,482,369,0
1,1768494465680,-928,564,9916,15882,-35430,8552,0,0,0,297,391,254,415,288,429,610,448,388,519,503,369,0
1,1768494465696,-923,564,9916,14660,-35430,8552,0,0,0,299,394,253,412,288,426,609,448,387,508,514,374,0
1,1768494465712,-923,564,9916,14660,-35430,8552,0,0,0,299,395,253,412,289,426,608,446,386,505,512,371,0
1,1768494465728,-928,564,9916,14660,-36651,7330,0,0,0,298,395,252,413,290,428,610,448,389,504,512,370,0
1,1768494465744,-928,564,9906,15882,-35430,7330,0,0,0,297,394,251,412,288,428,612,451,391,504,512,370,0
1,1768494465760,-923,564,9906,15882,-35430,7330,0,0,0,298,393,251,412,284,428,613,452,391,503,511,369,0
1,1768494465776,-923,559,9906,13439,-34208,7330,0,0,0,298,393,252,414,286,428,613,451,391,507,515,373,0
1,1768494465792,-923,555,9916,13439,-34208,7330,0,0,0,297,394,253,413,287,429,610,447,387,508,516,374,0
1,1768494465808,-923,559,9920,13439,-35430,7330,0,0,0,296,393,251,411,285,426,611,449,388,507,516,375,0
1,1768494465824,-933,574,9925,14660,-36651,8552,0,0,0,297,393,251,414,288,428,611,449,388,504,512,371,0
1,1768494465840,-933,569,9916,14660,-35430,7330,0,0,0,301,396,254,412,285,428,611,448,388,506,514,372,0
1,1768494465856,-928,564,9906,13439,-34208,7330,0,0,0,300,395,255,411,285,426,611,448,388,505,514,373,0
1,1768494465872,-918,559,9906,10995,-34208,6108,0,0,0,299,395,254,410,285,426,610,448,388,506,514,374,0
1,1768494465888,-918,559,9911,10995,-35430,6108,0,0,0,299,394,256,409,285,427,610,448,389,505,513,371,0
1,1768494465904,-933,564,9925,13439,-35430,7330,0,0,0,299,394,257,409,284,427,610,448,387,503,511,369,0
1,1768494465920,-923,564,9925,14660,-35430,7330,0,0,0,297,395,257,408,284,428,611,449,389,503,510,369,0
1,1768494465936,-918,559,9920,15882,-35430,7330,0,0,0,296,394,256,410,284,429,613,451,392,506,513,374,0
1,1768494465952,-918,559,9916,12217,-35430,7330,0,0,0,297,395,256,413,285,431,612,450,392,508,517,376,0
1,1768494465968,-923,564,9916,9773,-35430,6108,0,0,0,297,396,256,413,285,430,611,450,391,507,515,376,0
1,1768494465984,-923,564,9920,9773,-35430,6108,0,0,0,295,394,254,411,286,429,612,451,391,506,513,375,0
1,1768494466000,-933,564,9920,9773,-35430,6108,0,0,0,296,392,253,410,286,428,613,451,391,505,513,374,0
1,1768494466016,-933,569,9916,12217,-35430,7330,0,0,0,297,394,255,412,286,431,611,448,388,506,515,376,0
1,1768494466032,-928,569,9911,12217,-35430,7330,0,0,0,297,394,255,412,286,429,611,452,391,505,514,375,0
1,1768494466048,-928,569,9911,13439,-35430,8552,0,0,0,297,395,255,414,287,431,609,449,388,503,513,371,0
1,1768494466064,-928,569,9911,14660,-35430,8552,0,0,0,296,395,254,412,287,431,608,448,385,508,514,374,0
1,1768494466080,-928,569,9916,14660,-34208,8552,0,0,0,296,394,254,410,287,431,607,448,386,508,514,375,0
1,1768494466096,-923,569,9911,14660,-34208,8552,0,0,0,297,395,255,408,284,428,609,451,389,508,516,378,0
1,1768494466112,-928,564,9911,13439,-35430,9773,0,0,0,297,395,254,411,285,431,611,451,390,506,515,375,0
1,1768494466128,-923,569,9911,13439,-35430,8552,0,0,0,296,394,254,411,286,432,610,449,390,506,515,375,0
1,1768494466144,-923,574,9916,14660,-35430,8552,0,0,0,296,393,255,409,284,430,610,451,392,506,515,375,0
1,1768494466160,-923,579,9916,14660,-34208,8552,0,0,0,296,393,255,408,282,429,610,452,393,505,514,375,0
1,1768494466176,-933,574,9911,14660,-34208,8552,0,0,0,296,393,255,409,284,429,610,451,393,507,516,376,0
1,1768494466192,-933,574,9911,14660,-34208,7330,0,0,0,298,394,257,411,287,431,612,453,394,505,515,374,0
1,1768494466208,-923,574,9916,14660,-34208,7330,0,0,0,297,394,256,403,298,428,608,451,390,505,515,374,0
1,1768494466224,-923,559,9916,14660,-34208,7330,0,0,0,299,396,258,375,349,417,607,455,394,506,516,374,0
1,1768494466240,-928,559,9911,15882,-35430,8552,0,0,0,300,396,258,410,286,431,610,448,389,503,514,372,0
1,1768494466256,-938,564,9906,15882,-35430,8552,0,0,0,300,395,259,410,286,431,614,454,396,504,515,373,0
1,1768494466272,-933,569,9906,15882,-34208,8552,0,0,0,297,392,258,407,283,429,613,452,392,507,516,376,0
1,1768494466288,-928,574,9916,15882,-34208,8552,0,0,0,297,394,260,408,287,430,613,454,395,508,517,376,0
1,1768494466304,-923,569,9925,15882,-34208,8552,0,0,0,297,392,258,410,288,433,609,449,390,506,517,376,0
1,1768494466320,-923,569,9911,15882,-34208,8552,0,0,0,298,392,258,412,289,434,607,446,388,506,517,374,0
1,1768494466336,-928,569,9911,17104,-34208,8552,0,0,0,299,393,259,409,289,431,610,448,390,506,515,373,0
1,1768494466352,-928,569,9920,17104,-32986,8552,0,0,0,300,394,259,408,288,429,615,453,393,507,515,375,0
1,1768494466368,-928,574,9925,18325,-32986,8552,0,0,0,301,394,259,410,289,429,615,452,393,507,515,374,0
1,1768494466384,-928,574,9911,17104,-32986,8552,0,0,0,302,395,261,410,289,429,613,449,391,503,513,370,0
1,1768494466400,-928,574,9911,14660,-34208,8552,0,0,0,303,395,264,411,290,431,614,453,393,504,514,371,0
1,1768494466416,-923,569,9911,13439,-34208,7330,0,0,0,300,392,259,406,285,425,611,450,387,501,511,369,0
1,1768494466432,-923,569,9916,12217,-34208,7330,0,0,0,301,392,262,410,289,429,614,452,388,507,515,374,0
1,1768494466448,-928,569,9916,12217,-35430,7330,0,0,0,301,394,263,409,289,428,616,452,390,503,513,370,0
1,1768494466464,-933,564,9911,12217,-34208,7330,0,0,0,301,392,262,405,284,424,615,452,390,507,518,373,0
1,1768494466480,-928,564,9911,12217,-34208,7330,0,0,0,302,394,262,409,290,428,611,450,386,507,517,372,0
1,1768494466496,-928,574,9911,12217,-34208,7330,0,0,0,303,394,265,408,288,427,614,453,389,507,516,372,0
1,1768494466512,-933,574,9911,10995,-35430,6108,0,0,0,301,393,264,408,288,427,617,453,391,505,513,370,0
1,1768494466528,-938,574,9911,10995,-34208,6108,0,0,0,302,393,266,407,287,427,616,453,392,507,515,372,0
1,1768494466544,-938,574,9920,12217,-34208,7330,0,0,0,303,393,267,407,287,427,615,451,391,510,517,374,0
1,1768494466560,-933,574,9916,12217,-34208,7330,0,0,0,303,392,267,407,288,429,614,449,389,508,515,372,0
1,1768494466576,-923,579,9916,13439,-34208,7330,0,0,0,302,392,267,408,287,429,616,451,391,505,513,370,0
1,1768494466592,-923,574,9916,12217,-34208,7330,0,0,0,302,391,269,408,287,430,619,451,392,506,513,371,0
1,1768494466608,-928,574,9916,12217,-35430,7330,0,0,0,302,391,268,407,288,430,617,451,390,509,516,374,0
1,1768494466624,-933,579,9911,12217,-35430,7330,0,0,0,302,391,266,407,286,428,617,453,391,506,513,372,0
1,1768494466640,-928,574,9911,12217,-35430,7330,0,0,0,302,392,268,408,288,430,619,454,393,510,515,375,0
1,1768494466656,-933,574,9911,14660,-35430,8552,0,0,0,305,393,271,407,287,430,618,454,393,509,514,373,0
1,1768494466672,-938,574,9906,15882,-34208,8552,0,0,0,301,392,266,404,288,428,617,451,389,508,514,375,0
1,1768494466688,-942,579,9906,17104,-34208,7330,0,0,0,299,390,266,405,287,428,618,453,392,506,514,373,0
1,1768494466704,-938,574,9916,17104,-34208,7330,0,0,0,299,393,265,405,288,427,620,457,393,505,512,372,0
1,1768494466720,-928,569,9916,17104,-34208,7330,0,0,0,302,394,268,403,288,426,617,452,388,503,511,371,0
1,1768494466736,-928,569,9906,17104,-34208,8552,0,0,0,304,394,269,403,289,425,617,452,388,503,511,372,0
1,1768494466752,-938,574,9901,18325,-34208,8552,0,0,0,302,393,267,404,290,426,618,454,390,504,512,373,0
1,1768494466768,-938,579,9906,17104,-34208,7330,0,0,0,301,393,267,405,289,427,615,452,388,504,511,371,0
1,1768494466784,-938,583,9911,15882,-32986,7330,0,0,0,301,393,267,404,288,426,615,451,387,504,512,371,0
1,1768494466800,-933,574,9916,15882,-32986,7330,0,0,0,300,392,266,404,290,426,618,454,390,505,514,373,0
1,1768494466816,-933,569,9920,17104,-34208,8552,0,0,0,301,392,265,408,293,429,618,456,393,505,512,373,0
1,1768494466832,-933,569,9920,17104,-34208,8552,0,0,0,301,392,265,407,290,429,616,455,393,509,516,377,0
1,1768494466848,-928,574,9916,17104,-34208,7330,0,0,0,301,394,265,409,292,430,619,457,394,509,517,376,0
1,1768494466864,-933,583,9916,15882,-34208,7330,0,0,0,301,394,265,400,311,429,613,458,392,509,516,375,0
1,1768494466880,-933,574,9911,15882,-34208,7330,0,0,0,298,392,264,406,295,429,614,455,389,510,518,377,0
1,1768494466896,-933,574,9911,15882,-34208,8552,0,0,0,298,390,263,409,293,432,616,455,390,504,512,370,0
1,1768494466912,-933,574,9911,15882,-32986,7330,0,0,0,297,390,262,407,289,431,616,457,391,507,516,374,0
1,1768494466928,-933,579,9906,15882,-32986,7330,0,0,0,298,392,263,408,291,431,612,453,389,506,515,374,0
1,1768494466944,-938,574,9906,17104,-32986,8552,0,0,0,299,392,263,409,291,431,612,453,389,504,514,372,0
1,1768494466960,-933,574,9901,15882,-32986,8552,0,0,0,298,391,262,407,290,429,614,455,391,507,516,373,0
1,1768494466976,-928,579,9906,15882,-34208,8552,0,0,0,298,393,263,405,288,428,613,453,390,506,516,374,0
1,1768494466992,-923,579,9925,17104,-34208,8552,0,0,0,299,393,263,404,286,427,615,453,391,501,513,372,0
1,1768494467008,-923,574,9925,20769,-34208,8552,0,0,0,299,393,264,411,291,433,614,455,390,500,512,371,0
1,1768494467024,-923,574,9906,19547,-34208,8552,0,0,0,300,394,264,410,289,432,614,454,390,503,514,373,0
1,1768494467040,-928,574,9906,17104,-35430,8552,0,0,0,300,394,264,407,288,430,610,455,394,508,518,377,0
1,1768494467056,-933,574,9911,18325,-34208,8552,0,0,0,300,393,264,406,285,430,556,416,414,507,516,376,0
1,1768494467072,-923,574,9911,19547,-32986,8552,0,0,0,300,393,265,409,290,432,602,448,395,507,517,376,0
1,1768494467088,-923,569,9911,20769,-32986,8552,0,0,0,298,392,264,409,291,432,614,455,393,548,490,370,0
1,1768494467104,-923,569,9911,21991,-32986,9773,0,0,0,299,393,265,409,291,432,611,453,391,525,505,372,0
1,1768494467120,-923,569,9911,20769,-32986,9773,0,0,0,301,393,264,410,292,432,613,456,394,508,518,375,0
1,1768494467136,-933,564,9916,18325,-32986,8552,0,0,0,302,394,266,410,291,433,613,454,393,508,518,374,0
1,1768494467152,-928,564,9916,17104,-32986,8552,0,0,0,302,393,267,411,290,434,610,450,391,506,516,372,0
1,1768494467168,-918,569,9916,17104,-34208,8552,0,0,0,299,391,263,413,292,434,610,451,391,506,515,370,0
1,1768494467184,-918,569,9916,17104,-32986,8552,0,0,0,298,391,259,412,293,430,609,450,387,506,515,371,0
1,1768494467200,-918,569,9920,19547,-32986,8552,0,0,0,299,394,260,410,292,430,608,451,389,507,516,371,0
1,1768494467216,-923,559,9916,21991,-34208,9773,0,0,0,300,393,260,410,289,430,610,453,392,509,519,374,0
1,1768494467232,-923,559,9916,19547,-34208,8552,0,0,0,303,393,264,410,289,430,607,448,389,511,521,376,0
1,1768494467248,-918,564,9916,15882,-32986,8552,0,0,0,306,395,265,416,292,436,617,456,395,510,521,376,0
1,1768494467264,-918,569,9916,14660,-32986,8552,0,0,0,301,391,265,411,290,432,611,451,391,503,514,368,0
1,1768494467280,-918,564,9916,14660,-32986,8552,0,0,0,302,392,264,411,289,432,611,453,394,509,519,375,0
1,1768494467296,-928,564,9911,15882,-34208,7330,0,0,0,301,393,263,413,289,434,611,452,392,507,517,372,0
1,1768494467312,-923,564,9911,15882,-34208,7330,0,0,0,301,393,261,414,289,434,611,452,393,507,519,373,0
1,1768494467328,-923,564,9911,15882,-34208,8552,0,0,0,301,394,261,412,286,431,611,453,393,507,518,373,0
1,1768494467344,-923,564,9911,15882,-32986,8552,0,0,0,300,393,260,412,286,431,611,454,392,507,517,371,0
1,1768494467360,-928,569,9916,17104,-32986,8552,0,0,0,299,392,258,414,288,433,610,455,392,507,517,370,0
1,1768494467376,-928,569,9911,17104,-34208,8552,0,0,0,300,393,258,413,287,432,610,455,393,507,517,370,0
1,1768494467392,-918,569,9911,15882,-34208,8552,0,0,0,302,393,261,411,288,431,613,459,398,509,519,372,0
1,1768494467408,-914,569,9911,15882,-34208,8552,0,0,0,302,393,259,410,294,432,608,456,394,506,517,370,0
1,1768494467424,-918,559,9916,15882,-34208,8552,0,0,0,301,392,263,414,288,435,611,454,393,506,516,370,0
1,1768494467440,-928,559,9920,17104,-34208,8552,0,0,0,301,392,262,408,284,428,611,454,393,507,518,373,0
1,1768494467456,-933,564,9916,15882,-34208,8552,0,0,0,301,393,264,395,273,420,546,404,409,506,516,375,0
1,1768494467472,-928,569,9916,15882,-34208,8552,0,0,0,301,392,267,411,285,434,602,447,395,505,514,371,0
1,1768494467488,-923,559,9916,14660,-34208,8552,0,0,0,297,389,267,413,287,437,609,453,394,508,517,374,0
1,1768494467504,-914,555,9916,14660,-34208,7330,0,0,0,299,391,269,411,284,435,609,452,394,506,515,371,0
1,1768494467520,-914,564,9916,14660,-34208,7330,0,0,0,299,392,270,410,284,434,612,454,397,506,516,371,0
1,1768494467536,-923,579,9920,14660,-35430,7330,0,0,0,300,392,268,408,284,432,613,457,397,507,518,373,0
1,1768494467552,-923,564,9920,14660,-35430,7330,0,0,0,301,393,265,410,286,433,613,458,396,508,519,373,0
1,1768494467568,-928,559,9916,14660,-35430,7330,0,0,0,301,393,266,411,286,434,613,458,397,508,518,373,0
1,1768494467584,-918,559,9906,14660,-35430,7330,0,0,0,302,393,267,409,283,433,614,457,397,506,517,373,0
1,1768494467600,-918,564,9906,14660,-34208,8552,0,0,0,301,392,263,412,284,433,612,453,393,505,517,371,0
1,1768494467616,-918,569,9911,14660,-34208,7330,0,0,0,302,392,262,409,291,432,605,448,388,504,518,372,0
1,1768494467632,-918,564,9916,14660,-34208,7330,0,0,0,302,391,261,390,315,423,609,458,397,508,519,375,0
1,1768494467648,-918,564,9911,14660,-34208,7330,0,0,0,300,391,261,410,285,433,618,459,400,511,523,379,0
1,1768494467664,-923,564,9906,14660,-35430,7330,0,0,0,301,392,262,414,290,436,612,456,397,506,517,370,0
1,1768494467680,-923,564,9906,15882,-35430,7330,0,0,0,300,391,260,413,290,434,613,456,397,506,518,373,0
1,1768494467696,-923,569,9920,17104,-34208,8552,0,0,0,300,391,262,410,287,432,610,451,391,506,518,373,0
1,1768494467712,-923,559,9920,17104,-34208,8552,0,0,0,300,392,262,410,285,432,613,455,395,507,519,373,0
1,1768494467728,-928,559,9916,17104,-34208,8552,0,0,0,299,390,260,411,286,433,611,455,394,506,518,372,0
1,1768494467744,-928,559,9916,15882,-34208,8552,0,0,0,299,390,262,410,285,432,612,456,394,506,518,372,0
1,1768494467760,-933,569,9916,14660,-34208,7330,0,0,0,300,391,263,410,284,431,613,457,395,508,520,375,0
1,1768494467776,-928,574,9916,14660,-34208,7330,0,0,0,302,392,264,410,286,432,610,453,392,509,520,375,0
1,1768494467792,-918,579,9911,15882,-32986,7330,0,0,0,304,395,266,411,287,434,609,450,390,505,517,371,0
1,1768494467808,-923,574,9911,19547,-32986,8552,0,0,0,303,396,264,414,291,435,610,452,391,505,517,370,0
1,1768494467824,-923,569,9911,18325,-32986,7330,0,0,0,301,394,262,414,292,435,610,453,393,505,516,371,0
1,1768494467840,-918,569,9916,15882,-32986,7330,0,0,0,301,394,261,411,288,433,609,452,393,504,515,369,0
1,1768494467856,-923,564,9906,15882,-34208,7330,0,0,0,302,393,261,407,293,432,608,456,395,503,514,366,0
1,1768494467872,-923,564,9906,15882,-34208,7330,0,0,0,301,393,261,411,287,432,608,454,395,503,515,370,0
1,1768494467888,-928,564,9911,15882,-34208,8552,0,0,0,306,393,262,412,285,432,611,456,396,506,519,372,0
1,1768494467904,-923,569,9911,17104,-34208,8552,0,0,0,301,393,262,411,286,432,609,453,395,507,520,374,0
1,1768494467920,-918,569,9906,18325,-34208,8552,0,0,0,299,394,263,413,289,435,612,455,395,508,521,375,0
1,1768494467936,-918,569,9906,19547,-35430,8552,0,0,0,299,395,261,413,288,434,612,454,394,505,518,371,0
1,1768494467952,-918,559,9906,19547,-34208,8552,0,0,0,300,396,261,411,285,431,612,456,396,511,513,370,0
1,1768494467968,-928,564,9911,19547,-34208,9773,0,0,0,299,395,261,411,284,430,612,455,394,512,513,370,0
1,1768494467984,-928,564,9911,15882,-34208,8552,0,0,0,299,395,259,412,287,431,611,453,392,506,518,371,0
1,1768494468000,-923,564,9916,13439,-34208,8552,0,0,0,297,395,257,412,288,432,612,455,395,507,518,372,0
1,1768494468016,-923,569,9916,13439,-34208,7330,0,0,0,295,394,256,409,286,430,611,456,394,506,518,372,0
1,1768494468032,-923,564,9916,15882,-34208,7330,0,0,0,298,396,259,412,285,429,614,456,395,510,522,375,0
1,1768494468048,-928,564,9925,18325,-35430,8552,0,0,0,296,395,258,405,285,427,623,449,393,505,518,371,0
1,1768494468064,-923,564,9916,18325,-34208,8552,0,0,0,294,394,255,412,288,434,610,452,394,505,518,370,0
1,1768494468080,-918,559,9916,15882,-34208,8552,0,0,0,297,397,255,409,285,429,613,457,397,507,519,371,0
1,1768494468096,-914,559,9920,13439,-35430,7330,0,0,0,295,394,256,409,285,429,612,456,394,503,516,368,0
1,1768494468112,-914,559,9916,10995,-35430,7330,0,0,0,297,396,258,412,287,432,612,458,396,503,515,367,0
1,1768494468128,-923,569,9916,10995,-35430,8552,0,0,0,296,396,257,411,284,432,612,458,395,506,518,368,0
1,1768494468144,-918,569,9925,10995,-35430,7330,0,0,0,295,394,256,410,283,430,611,458,395,509,519,370,0
1,1768494468160,-918,569,9930,10995,-35430,7330,0,0,0,295,393,254,412,285,432,612,458,396,505,517,369,0
1,1768494468176,-923,564,9916,10995,-35430,6108,0,0,0,295,392,254,413,287,433,611,457,393,503,516,368,0
1,1768494468192,-923,564,9901,8552,-35430,6108,0,0,0,296,393,257,412,286,433,609,454,390,505,516,369,0
1,1768494468208,-918,569,9906,8552,-36651,6108,0,0,0,297,392,257,414,285,433,612,457,394,503,514,367,0
1,1768494468224,-918,569,9920,8552,-36651,6108,0,0,0,300,394,257,411,283,430,617,462,397,505,513,368,0
1,1768494468240,-928,574,9920,7330,-36651,6108,0,0,0,299,394,257,412,287,430,616,462,396,507,513,368,0
1,1768494468256,-933,574,9906,6108,-35430,6108,0,0,0,299,391,255,407,279,427,613,458,395,513,518,371,0
1,1768494468272,-928,574,9906,2443,-35430,4886,0,0,0,300,392,255,414,284,430,609,456,387,516,502,362,0
1,1768494468288,-928,574,9906,0,-35430,3665,0,0,0,294,390,251,414,285,431,613,456,389,505,511,367,0
1,1768494468304,-928,588,9911,0,-35430,3665,0,0,0,297,391,253,413,285,431,611,457,388,508,513,369,0
1,1768494468320,-933,598,9916,2443,-36651,3665,0,0,0,298,391,255,416,286,432,613,457,391,508,511,369,0
1,1768494468336,-938,598,9930,8552,-35430,4886,0,0,0,297,391,253,417,287,433,611,458,388,503,509,367,0
1,1768494468352,-938,588,9920,9773,-35430,4886,0,0,0,298,392,255,413,284,430,611,455,385,503,509,367,0
1,1768494468368,-938,588,9911,9773,-34208,4886,0,0,0,297,391,253,411,285,429,611,455,385,506,511,369,0
1,1768494468384,-933,583,9897,7330,-32986,4886,0,0,0,296,390,251,411,286,430,609,455,385,506,511,369,0
1,1768494468400,-933,588,9901,4886,-31764,4886,0,0,0,297,390,253,414,286,432,609,453,385,505,508,366,0
1,1768494468416,-928,588,9911,1221,-31764,2443,0,0,0,301,392,261,414,287,433,612,453,386,506,506,365,0
1,1768494468432,-923,593,9916,0,-31764,2443,0,0,0,306,391,272,411,282,431,614,450,385,505,506,364,0
1,1768494468448,-923,593,9906,0,-32986,2443,0,0,0,310,389,273,409,274,427,616,446,384,502,506,362,0
1,1768494468464,-928,593,9901,0,-32986,2443,0,0,0,310,390,272,405,272,423,614,443,378,500,505,359,0
1,1768494468480,-933,603,9906,0,-32986,1221,0,0,0,308,390,270,409,293,426,616,454,385,500,505,358,0
1,1768494468496,-938,612,9920,3665,-31764,1221,0,0,0,309,390,271,408,289,425,616,446,378,517,510,362,0
1,1768494468512,-938,612,9930,10995,-30543,4886,0,0,0,317,389,280,406,274,422,619,441,377,512,506,359,0
1,1768494468528,-938,603,9920,15882,-30543,6108,0,0,0,316,385,284,405,267,422,620,440,377,514,505,361,0
1,1768494468544,-923,598,9906,17104,-31764,7330,0,0,0,314,385,282,406,267,421,619,441,377,511,506,361,0
1,1768494468560,-918,593,9906,17104,-30543,6108,0,0,0,314,385,279,409,271,423,619,439,375,509,510,361,0
1,1768494468576,-918,598,9906,15882,-30543,6108,0,0,0,315,385,278,409,271,422,620,439,374,514,512,360,0
1,1768494468592,-923,603,9897,13439,-30543,4886,0,0,0,318,386,276,411,273,423,620,441,375,518,513,359,0
1,1768494468608,-923,607,9906,12217,-31764,3665,0,0,0,322,385,275,415,275,427,617,442,374,520,515,359,0
1,1768494468624,-923,607,9906,10995,-30543,3665,0,0,0,322,383,274,413,270,424,608,436,372,521,515,359,0
1,1768494468640,-918,612,9906,10995,-30543,3665,0,0,0,321,384,270,413,270,422,594,424,384,523,518,358,0
1,1768494468656,-914,603,9892,12217,-29321,4886,0,0,0,318,384,275,416,269,424,607,448,364,522,511,357,0
1,1768494468672,-909,588,9892,7330,-29321,3665,0,0,0,321,385,266,413,266,418,608,451,365,521,516,344,0
1,1768494468688,-914,579,9897,-2443,-30543,0,0,0,0,329,383,251,421,274,411,602,458,356,520,519,327,0
1,1768494468704,-918,593,9901,-15882,-31764,-1221,0,0,0,325,387,239,409,300,402,590,461,350,521,521,325,0
1,1768494468720,-914,607,9901,-25656,-30543,-2443,0,0,0,328,384,236,410,275,399,599,462,353,516,518,325,0
1,1768494468736,-914,626,9901,-34208,-29321,-6108,0,0,0,322,375,227,409,259,391,594,459,356,513,518,301,0
1,1768494468752,-918,631,9906,-39095,-28099,-7330,0,0,0,314,375,243,404,257,396,580,450,353,511,528,286,0
1,1768494468768,-918,622,9925,-43982,-30543,-8552,0,0,0,314,361,249,393,252,393,578,442,344,515,529,267,0
1,1768494468784,-933,660,9944,-40317,-34208,-7330,0,0,0,318,341,240,385,242,381,576,442,336,521,531,238,0
1,1768494468800,-947,698,9978,-20769,-35430,-1221,0,0,0,314,336,238,386,236,381,565,450,335,507,535,218,0
1,1768494468816,-952,727,10026,23212,-31764,7330,0,0,0,311,328,231,385,227,382,568,452,336,481,523,227,0
1,1768494468832,-976,775,10074,94073,-24434,20769,0,0,0,310,324,228,382,223,379,574,439,329,477,520,257,0
1,1768494468848,-990,827,10122,204028,-3665,40317,0,0,0,303,332,231,382,230,392,553,430,338,467,517,245,0
1,1768494468864,-947,746,10102,329867,29321,59864,0,0,0,294,341,259,386,232,414,538,440,344,470,517,293,0
1,1768494468880,-904,598,10045,426383,89186,70860,0,0,0,302,362,243,392,257,417,531,430,348,457,507,280,0
1,1768494468896,-904,497,9959,452040,184481,75747,0,0,0,312,383,210,404,265,405,529,431,343,447,507,311,0
1,1768494468912,-856,392,9887,433714,259006,86742,0,0,0,316,385,208,391,253,407,540,418,347,434,502,330,0
1,1768494468928,-746,335,10031,434936,290771,96516,0,0,0,322,382,201,407,279,405,549,411,332,429,495,382,0
1,1768494468944,-722,402,10337,563217,305432,109955,0,0,0,334,402,203,410,290,416,548,402,335,438,487,405,0
1,1768494468960,-875,387,10528,762359,392175,139277,0,0,0,348,429,194,417,307,424,548,400,333,449,475,420,0
1,1768494468976,-698,119,10413,842994,554665,175929,0,0,0,361,441,192,425,330,435,552,392,338,471,465,433,0
1,1768494468992,-186,-62,9830,829554,652404,162490,0,0,0,385,461,225,432,336,446,555,373,364,495,471,449,0
1,1768494469008,-23,-330,8188,546113,525344,98960,0,0,0,410,502,278,436,337,449,573,364,382,527,497,473,0
1,1768494469024,28,-756,6925,-78190,194255,59864,0,0,0,437,535,364,446,349,465,606,377,394,575,519,496,0
1,1768494469040,210,-655,8279,-828333,-218689,24434,0,0,0,481,558,506,471,348,491,616,397,421,602,521,514,0
1,1768494469056,-201,296,11519,-926071,-359188,-40317,0,0,0,474,565,527,449,370,514,618,393,417,607,518,522,0
1,1768494469072,-746,847,12735,-455705,-230907,-39095,0,0,0,481,580,480,451,376,515,606,394,398,605,517,547,0
1,1768494469088,-770,593,11548,186924,-26878,40317,0,0,0,497,575,378,453,388,507,613,362,392,573,514,533,0
1,1768494469104,-411,234,10772,465479,-40317,90408,0,0,0,509,559,242,482,395,489,587,336,377,509,441,550,0
1,1768494469120,-435,119,11328,696386,-131946,105068,0,0,0,497,547,213,469,394,493,540,297,400,423,372,569,0
1,1768494469136,-646,114,13577,1117883,-196698,142942,0,0,0,490,525,207,461,389,495,483,260,377,375,313,571,0
1,1768494469152,-315,157,17138,1846034,-408057,155159,0,0,0,465,467,202,431,375,482,390,212,377,305,245,560,0
1,1768494469168,-760,693,20540,3110525,-712268,125838,0,0,0,425,407,200,388,319,471,331,159,381,234,163,514,0
1,1768494469184,-1995,1306,21569,4411668,-845437,249233,0,0,0,381,364,200,364,250,441,337,132,371,207,122,436,0
1,1768494469200,-2364,885,20952,5226562,-808785,547335,0,0,0,335,323,188,341,204,383,371,141,344,206,126,321,0
1,1768494469216,-2086,-1564,19229,4895474,-830776,618195,0,0,0,295,290,173,318,177,333,397,162,323,206,148,217,0
1,1768494469232,-2837,-7379,14496,3799581,-1083674,521678,0,0,0,268,278,166,313,159,311,406,170,318,207,161,178,0
1,1768494469248,-923,-15065,4934,2316400,-1114218,265115,0,0,0,249,280,159,314,159,294,412,164,308,211,153,172,0
1,1768494469264,2488,-16381,-1416,662177,-353080,-533896,0,0,0,235,285,158,308,161,293,407,165,305,205,154,162,0
1,1768494469280,904,-12778,-100,-123394,549778,-1351233,0,0,0,218,293,159,300,167,300,395,172,306,206,175,160,0
1,1768494469296,-1512,-4340,1612,487470,410501,-1010371,0,0,0,197,298,154,290,165,304,386,181,321,215,212,152,0
1,1768494469312,-626,7657,1005,687834,133168,-409279,0,0,0,190,288,150,290,175,296,380,175,294,226,206,147,0
1,1768494469328,191,16266,-612,-97738,123394,-348193,0,0,0,210,287,164,297,168,289,409,162,291,254,206,137,0
1,1768494469344,1215,16324,-899,-1252273,56199,-652404,0,0,0,207,291,153,313,188,304,407,197,291,257,247,140,0
1,1768494469360,2933,10988,86,-2398256,125838,-869872,0,0,0,206,293,148,320,194,305,406,207,284,257,262,136,0
1,1768494469376,2215,2345,526,-2938261,398284,-785572,0,0,0,201,297,148,303,208,303,382,218,284,236,277,136,0
1,1768494469392,689,-6278,751,-2527760,447153,-450818,0,0,0,193,300,151,297,202,305,370,209,291,226,258,141,0
1,1768494469408,1028,-9576,1234,-1522276,387288,-90408,0,0,0,185,306,153,303,199,310,366,206,295,229,247,147,0
1,1768494469424,1378,-10897,1134,-945619,464257,47647,0,0,0,180,312,150,310,203,310,359,211,291,232,256,146,0
1,1768494469440,1325,-12715,421,-340862,475253,129503,0,0,0,178,312,147,315,200,311,356,210,290,233,260,145,0
1,1768494469456,3086,-10203,631,778242,398284,183259,0,0,0,221,333,160,327,224,350,339,196,312,246,255,226,0
1,1768494469472,3665,-3273,698,1400103,555887,-74525,0,0,0,361,389,191,384,305,458,323,173,365,305,232,476,0
1,1768494469488,-516,4991,5082,504574,658512,-674395,0,0,0,359,412,181,440,352,449,467,311,352,392,316,491,0
1,1768494469504,-7140,3493,19215,-4949230,210137,-1543045,0,0,0,314,410,359,392,260,398,701,668,357,706,706,265,0
1,1768494469520,-8054,3431,32825,-10047511,322536,-1756848,0,0,0,318,368,553,394,281,388,770,770,316,800,800,205,0
1,1768494469536,-5144,6987,39296,-7878939,811229,-1007927,0,0,0,334,431,379,388,338,445,669,643,366,681,681,408,0
1,1768494469552,-2100,9250,25498,-1475850,554665,-18325,0,0,0,367,469,276,440,327,473,644,572,355,609,639,428,0
1,1768494469568,-995,2770,9916,2299296,19547,448375,0,0,0,371,499,313,433,364,490,644,547,367,623,647,438,0
1,1768494469584,-138,-2938,4034,2106263,36651,409279,0,0,0,395,505,457,437,377,495,656,547,357,664,673,419,0
1,1768494469600,473,-2306,7284,-245567,202807,65973,0,0,0,406,517,465,442,376,491,657,544,356,692,674,411,0
1,1768494469616,-248,885,10978,-726929,50090,-80634,0,0,0,404,516,413,448,376,493,658,547,354,688,675,407,0
1,1768494469632,-985,1675,11500,-172263,-30543,-39095,0,0,0,389,509,387,441,374,489,661,552,350,676,677,387,0
1,1768494469648,-612,516,10031,135612,-6108,17104,0,0,0,362,495,394,424,366,478,647,553,348,669,669,345,0
1,1768494469664,-425,210,9715,37873,-31764,1221,0,0,0,341,470,373,414,352,472,620,553,338,656,656,288,0
1,1768494469680,-469,464,10021,-100181,-89186,-21991,0,0,0,327,461,268,405,333,445,605,549,317,634,637,235,0
1,1768494469696,-430,478,9973,-114842,-158824,-28099,0,0,0,295,429,225,412,302,414,599,550,293,611,611,196,0
1,1768494469712,-473,526,9973,-125838,-228463,-46425,0,0,0,259,423,221,391,294,394,581,539,307,580,580,189,0
1,1768494469728,-622,636,10045,-107512,-252898,-50090,0,0,0,248,414,217,385,281,382,568,533,277,569,569,152,0
1,1768494469744,-698,598,9992,-54977,-227241,-32986,0,0,0,238,402,207,369,278,366,557,533,287,540,542,148,0
1,1768494469760,-722,588,9944,-13439,-195476,-20769,0,0,0,217,404,232,372,267,395,551,508,286,509,529,156,0
1,1768494469776,-775,698,9978,46425,-164933,-7330,0,0,0,233,397,225,362,247,365,548,477,290,506,518,140,0
1,1768494469792,-808,737,9983,129503,-128281,13439,0,0,0,223,389,203,373,254,361,543,443,281,494,516,132,0
1,1768494469808,-756,617,9863,179594,-83077,29321,0,0,0,225,393,226,375,257,373,534,427,291,492,505,132,0
1,1768494469824,-689,512,9767,167377,-51312,30543,0,0,0,226,395,239,373,257,378,528,429,301,488,498,133,0
1,1768494469840,-631,445,9758,96516,-41538,19547,0,0,0,236,396,236,392,254,377,524,438,302,487,495,135,0
1,1768494469856,-646,469,9825,35430,-51312,6108,0,0,0,240,397,222,397,258,373,527,436,298,487,498,132,0
1,1768494469872,-703,497,9892,-1221,-58643,1221,0,0,0,235,399,206,382,264,369,532,432,295,484,503,126,0
1,1768494469888,-760,526,9968,-9773,-50090,4886,0,0,0,239,399,208,382,260,370,531,434,296,483,501,125,0
1,1768494469904,-780,550,10035,1221,-32986,12217,0,0,0,242,396,211,387,259,370,535,433,294,482,501,117,0
1,1768494469920,-765,559,10035,30543,-13439,19547,0,0,0,248,392,193,410,257,362,542,444,284,483,505,109,0
1,1768494469936,-727,531,9983,50090,0,20769,0,0,0,242,392,195,393,257,363,544,443,277,476,504,106,0
1,1768494469952,-674,488,9949,51312,1221,17104,0,0,0,245,390,199,387,259,357,537,438,292,478,501,110,0
1,1768494469968,-650,464,9935,30543,-3665,7330,0,0,0,245,394,210,376,259,366,536,438,292,478,502,118,0
1,1768494469984,-655,464,9930,6108,-15882,0,0,0,0,246,388,198,384,264,360,536,441,281,481,504,112,0
1,1768494470000,-665,483,9925,-8552,-25656,0,0,0,0,239,389,197,382,265,353,536,440,283,483,507,111,0
1,1768494470016,-670,488,9935,-21991,-31764,-1221,0,0,0,242,387,192,384,254,346,536,438,278,482,506,101,0
1,1768494470032,-674,488,9964,-36651,-39095,-2443,0,0,0,242,377,193,380,255,336,535,437,275,487,507,103,0
1,1768494470048,-684,512,9968,-45204,-43982,-6108,0,0,0,234,384,186,378,256,328,538,433,274,491,509,99,0
1,1768494470064,-689,540,9964,-47647,-46425,-7330,0,0,0,228,383,182,378,256,329,537,433,279,492,508,96,0
1,1768494470080,-689,579,9944,-36651,-47647,-6108,0,0,0,227,374,186,377,260,336,534,438,286,492,505,102,0
1,1768494470096,-674,598,9935,-13439,-51312,0,0,0,0,221,377,184,375,260,336,539,440,285,488,513,115,0
1,1768494470112,-679,569,9906,-2443,-52534,0,0,0,0,211,375,179,371,257,332,545,441,280,485,523,128,0
1,1768494470128,-679,526,9877,-19547,-52534,-2443,0,0,0,215,383,190,375,262,346,539,451,292,495,514,110,0
1,1768494470144,-670,507,9849,-64751,-58643,-12217,0,0,0,227,388,203,378,256,356,543,455,282,496,521,115,0
1,1768494470160,-674,526,9858,-118507,-70860,-25656,0,0,0,215,388,187,388,256,349,548,475,266,489,521,108,0
1,1768494470176,-703,574,9882,-152716,-78190,-36651,0,0,0,223,391,186,400,267,338,550,491,274,499,525,112,0
1,1768494470192,-746,631,9892,-167377,-78190,-41538,0,0,0,218,402,195,379,276,341,552,517,276,512,524,109,0
1,1768494470208,-775,670,9858,-164933,-70860,-41538,0,0,0,219,412,193,388,288,345,572,535,264,524,543,100,0
1,1768494470224,-775,708,9849,-152716,-59864,-35430,0,0,0,222,402,191,390,302,335,582,560,269,551,557,112,0
1,1768494470240,-780,741,9892,-140499,-56199,-29321,0,0,0,220,390,258,368,304,357,598,593,285,576,576,143,0
1,1768494470256,-808,794,9930,-113620,-61086,-20769,0,0,0,209,387,280,364,289,384,610,609,310,585,587,172,0
1,1768494470272,-832,808,9949,-84299,-68416,-14660,0,0,0,203,387,264,368,280,389,618,617,313,595,602,193,0
1,1768494470288,-837,794,9940,-59864,-67195,-8552,0,0,0,221,384,266,371,275,389,632,626,297,609,620,203,0
1,1768494470304,-842,789,9940,-40317,-59864,-2443,0,0,0,247,384,291,371,275,399,646,636,295,621,629,221,0
1,1768494470320,-847,837,9968,-7330,-53756,2443,0,0,0,251,396,303,367,280,408,655,651,316,632,635,257,0
1,1768494470336,-847,851,9987,41538,-47647,8552,0,0,0,263,398,303,371,261,418,664,658,340,628,637,274,0
1,1768494470352,-847,808,9968,86742,-45204,15882,0,0,0,254,394,307,380,261,436,650,640,355,618,625,311,0
1,1768494470368,-851,780,9944,111177,-43982,20769,0,0,0,290,394,328,404,276,433,657,632,355,618,624,304,0
1,1768494470384,-856,770,9944,140499,-43982,25656,0,0,0,300,384,326,407,282,449,663,589,371,599,633,338,0
1,1768494470400,-851,756,9959,167377,-45204,32986,0,0,0,297,396,341,409,290,471,648,587,391,593,619,367,0
1,1768494470416,-842,703,9940,179594,-46425,34208,0,0,0,310,416,306,410,298,464,630,577,400,588,609,379,0
1,1768494470432,-842,660,9916,177150,-43982,35430,0,0,0,315,435,299,413,320,462,630,565,415,589,607,382,0
1,1768494470448,-847,626,9892,164933,-41538,35430,0,0,0,347,425,344,408,310,454,646,560,402,590,615,378,0
1,1768494470464,-818,607,9877,147829,-39095,35430,0,0,0,349,421,374,412,305,453,653,547,402,586,619,385,0
1,1768494470480,-804,598,9877,128281,-40317,30543,0,0,0,342,425,368,412,311,464,648,525,409,574,610,391,0
1,1768494470496,-818,593,9887,114842,-40317,25656,0,0,0,335,429,353,411,319,482,644,507,413,556,599,393,0
1,1768494470512,-837,588,9901,109955,-36651,24434,0,0,0,332,426,351,407,315,482,647,498,417,542,594,401,0
1,1768494470528,-823,569,9901,109955,-31764,25656,0,0,0,345,421,356,397,304,463,654,495,421,538,593,411,0
1,1768494470544,-808,550,9911,108734,-30543,28099,0,0,0,358,425,363,413,313,471,652,491,409,541,593,412,0
1,1768494470560,-818,540,9930,107512,-32986,32986,0,0,0,369,448,356,439,315,486,634,474,408,555,592,422,0
1,1768494470576,-851,545,9959,116064,-32986,36651,0,0,0,351,447,369,423,325,502,626,455,416,557,573,448,0
1,1768494470592,-875,545,10002,145385,-26878,47647,0,0,0,350,454,380,449,343,521,630,439,421,515,565,433,0
1,1768494470608,-856,526,10045,188146,-21991,62308,0,0,0,369,435,404,451,343,515,633,412,416,509,531,458,0
1,1768494470624,-827,488,10078,244346,-20769,74525,0,0,0,364,474,374,432,350,515,637,379,438,511,476,481,0
1,1768494470640,-827,449,10150,310319,-24434,85521,0,0,0,376,501,352,440,365,519,624,385,449,486,480,517,0
1,1768494470656,-875,421,10308,422718,-18325,105068,0,0,0,371,506,325,465,394,527,624,391,446,460,443,516,0
1,1768494470672,-894,358,10466,575435,15882,130725,0,0,0,366,502,255,466,415,517,633,361,440,434,398,530,0
1,1768494470688,-832,210,10653,780685,79412,157603,0,0,0,365,510,200,474,454,512,626,341,422,408,376,544,0
1,1768494470704,-741,100,11131,1025031,86742,173485,0,0,0,369,529,191,488,490,517,604,332,419,395,385,552,0
1,1768494470720,-832,23,11682,1290147,-6108,200363,0,0,0,388,542,191,494,489,520,572,321,425,380,386,570,0
1,1768494470736,-933,-38,12151,1568701,-74525,232128,0,0,0,411,530,182,503,462,526,535,319,414,364,360,581,0
1,1768494470752,-1095,-177,12706,1904677,-34208,260228,0,0,0,423,499,175,505,429,521,511,314,410,366,351,589,0
1,1768494470768,-1311,-291,13323,2291966,83077,300545,0,0,0,442,482,174,511,436,511,484,317,388,335,329,606,0
1,1768494470784,-1584,-430,14213,2719572,193033,371406,0,0,0,449,485,171,492,443,522,430,286,391,334,329,600,0
1,1768494470800,-1919,-502,15778,3280346,293215,488692,0,0,0,439,465,189,476,417,500,399,279,377,286,275,591,0
1,1768494470816,-2330,-593,17458,3902207,401949,624304,0,0,0,442,439,188,473,414,508,369,243,371,280,282,506,0
1,1768494470832,-2967,-971,19329,4665788,544891,805120,0,0,0,412,422,172,443,391,484,337,200,356,270,227,435,0
1,1768494470848,-3747,-1636,20746,5286427,657290,990823,0,0,0,388,401,169,416,359,458,303,186,348,226,183,401,0
1,1768494470864,-3661,-1832,21842,5817880,775798,1196074,0,0,0,355,375,163,376,306,429,266,173,330,208,178,370,0
1,1768494470880,-3168,-1880,22967,6144082,1152091,1358564,0,0,0,301,350,165,352,258,393,283,177,298,207,192,299,0
1,1768494470896,-5197,-1675,23043,6156299,1808161,1481959,0,0,0,248,302,162,322,211,324,331,212,282,216,237,188,0
1,1768494470912,-7284,971,20569,5864306,2313957,1612684,0,0,0,228,263,156,295,181,276,362,245,274,223,281,120,0
1,1768494470928,-8102,6815,14022,5108055,2410474,1606575,0,0,0,236,266,155,295,181,279,369,250,260,224,291,124,0
1,1768494470944,-10777,14606,8322,3765373,2036624,1273043,0,0,0,233,276,150,300,186,274,362,251,248,227,295,123,0
1,1768494470960,-10634,19009,7470,897971,791681,174707,0,0,0,228,279,146,303,192,271,351,256,242,222,297,117,0
1,1768494470976,-7733,15845,6905,-1503950,90408,-934623,0,0,0,224,276,150,290,192,272,346,261,250,220,300,120,0
1,1768494470992,-6843,8671,4364,-2360383,-30543,-1407433,0,0,0,192,274,160,268,200,276,345,263,254,223,314,124,0
1,1768494471008,-6714,6910,3622,-2053728,-608421,-894306,0,0,0,182,274,162,275,186,276,338,266,255,219,312,119,0
1,1768494471024,-4326,7528,5010,-2194227,-1100779,-488692,0,0,0,182,275,166,275,189,274,338,275,253,220,321,118,0
1,1768494471040,-2287,7992,6982,-2868623,-1145983,-458148,0,0,0,196,288,183,268,179,267,333,265,246,221,313,114,0
1,1768494471056,-2660,6910,7944,-3500257,-1121548,-608421,0,0,0,195,283,180,274,183,267,341,270,245,221,313,109,0
1,1768494471072,-2775,5407,9059,-4031710,-1324355,-714712,0,0,0,190,280,175,276,186,269,341,268,248,223,317,108,0
1,1768494471088,-2043,4259,10509,-4376238,-1511280,-799011,0,0,0,189,282,178,273,184,271,342,268,248,225,320,112,0
1,1768494471104,-1670,3062,12179,-4713436,-1595580,-894306,0,0,0,191,287,180,268,188,271,346,266,248,231,323,115,0
1,1768494471120,-1675,1818,13926,-4946786,-1678657,-842994,0,0,0,191,287,173,275,192,274,348,268,250,236,332,116,0
1,1768494471136,-1359,670,15635,-5078733,-1793500,-641408,0,0,0,185,282,163,284,188,277,347,276,253,233,333,113,0
1,1768494471152,-655,-186,17090,-5111720,-1866804,-434936,0,0,0,182,278,157,282,188,277,349,277,255,234,325,112,0
1,1768494471168,-110,-765,18530,-5095837,-1811826,-470366,0,0,0,186,281,159,290,191,277,351,269,254,249,326,114,0
1,1768494471184,-124,-1167,19727,-5082398,-1709200,-723264,0,0,0,191,283,158,297,188,277,341,252,252,245,302,115,0
1,1768494471200,9,-2043,20847,-5032307,-1633453,-1192408,0,0,0,187,288,161,288,191,280,331,242,255,223,291,121,0
1,1768494471216,555,-3737,21775,-4891808,-1550375,-1634675,0,0,0,180,294,159,277,197,282,335,249,259,212,288,122,0
1,1768494471232,784,-6901,22646,-4664566,-1369559,-1980425,0,0,0,188,292,158,278,188,274,333,257,259,224,307,122,0
1,1768494471248,363,-13304,23268,-4475198,-1023810,-1931555,0,0,0,197,301,171,276,191,272,327,267,248,240,329,114,0
1,1768494471264,-363,-23445,22005,-4004832,-465479,-1479515,0,0,0,194,299,162,279,189,275,341,277,254,253,350,123,0
1,1768494471280,-2273,-31658,17607,-3053104,-182037,-605978,0,0,0,196,286,167,273,179,279,325,285,262,270,360,119,0
1,1768494471296,2220,-34232,12208,-1766622,-563217,251676,0,0,0,200,266,145,271,173,256,353,353,239,312,393,98,0
1,1768494471312,10940,-39827,9806,-108734,-63529,485026,0,0,0,195,262,129,275,182,244,390,424,225,338,424,91,0
1,1768494471328,13740,-40803,12222,2397035,1494176,183259,0,0,0,195,270,131,286,188,249,421,458,228,364,444,96,0
1,1768494471344,7958,-19310,18564,4591263,2213775,-53756,0,0,0,199,276,139,295,181,263,458,474,238,406,457,103,0
1,1768494471360,-162,5101,22316,4257730,1473406,241902,0,0,0,201,285,157,301,175,283,480,480,256,434,458,113,0
1,1768494471376,-3000,3354,17152,2304183,706160,464257,0,0,0,215,295,167,323,176,286,485,483,254,444,465,109,0
1,1768494471392,-2105,-1507,11351,1191187,406836,78190,0,0,0,232,307,179,347,173,292,507,496,262,467,482,98,0
1,1768494471408,-804,-282,8667,895528,401949,-240680,0,0,0,257,310,215,342,185,337,544,511,320,527,527,136,0
1,1768494471424,-540,435,10074,642630,411723,-227241,0,0,0,267,341,225,335,207,321,562,532,294,549,549,137,0
1,1768494471440,-641,-148,11715,75747,251676,-95294,0,0,0,264,373,235,344,223,378,526,492,339,567,568,180,0
1,1768494471456,-914,296,10873,-246789,87964,-37873,0,0,0,277,370,287,343,218,376,580,559,308,585,586,188,0
1,1768494471472,-1043,851,10031,-173485,15882,-28099,0,0,0,287,372,290,351,217,380,605,574,291,594,595,185,0
1,1768494471488,-1052,875,10021,19547,-23212,-18325,0,0,0,289,369,269,357,232,387,606,570,295,596,596,211,0
1,1768494471504,-1038,717,10093,91629,-70860,-1221,0,0,0,296,374,269,361,248,397,608,574,313,597,598,242,0
1,1768494471520,-1067,646,9863,75747,-96516,13439,0,0,0,297,381,275,359,250,398,604,567,321,595,595,262,0
1,1768494471536,-1105,674,9782,74525,-98960,21991,0,0,0,294,389,269,360,247,394,598,559,327,588,587,271,0
1,1768494471552,-1129,713,9906,102625,-87964,31764,0,0,0,289,401,252,371,258,396,600,564,341,580,581,272,0
1,1768494471568,-1105,665,9935,111177,-72082,39095,0,0,0,280,414,232,379,282,398,600,561,342,572,579,278,0
1,1768494471584,-1081,636,9901,111177,-54977,43982,0,0,0,295,433,248,377,294,394,598,549,333,558,574,286,0
1,1768494471600,-1081,655,9887,122173,-37873,43982,0,0,0,297,424,255,374,299,407,588,539,356,543,558,285,0
1,1768494471616,-1086,674,9897,153938,-20769,47647,0,0,0,309,428,263,374,275,401,590,533,354,527,554,300,0
1,1768494471632,-1081,660,9906,202807,-10995,56199,0,0,0,298,423,270,384,279,413,574,486,360,510,551,316,0
1,1768494471648,-1067,617,9906,254119,-8552,64751,0,0,0,318,430,279,390,284,414,575,434,346,501,536,346,0
1,1768494471664,-1048,579,9925,300545,-8552,72082,0,0,0,318,428,275,400,303,422,586,424,346,496,537,360,0
1,1768494471680,-1024,512,9925,334754,-7330,75747,0,0,0,332,444,248,429,327,424,581,412,356,469,510,377,0
1,1768494471696,-1014,421,9911,346971,-1221,75747,0,0,0,331,454,237,444,328,429,584,393,371,460,473,410,0
1,1768494471712,-1005,373,9968,365297,-1221,80634,0,0,0,334,461,243,455,326,444,580,355,379,466,441,434,0
1,1768494471728,-1048,349,10107,410501,-3665,87964,0,0,0,341,470,248,441,375,448,571,335,388,448,416,453,0
1,1768494471744,-1162,311,10251,499687,1221,113620,0,0,0,340,486,233,436,400,456,574,330,398,418,389,475,0
1,1768494471760,-1225,220,10366,642630,47647,163711,0,0,0,339,506,207,477,376,482,581,313,391,403,369,497,0
1,1768494471776,-1249,81,10533,816115,124616,224798,0,0,0,355,520,190,506,408,498,573,316,381,382,370,526,0
1,1768494471792,-1186,-52,10954,1036027,208915,283441,0,0,0,382,529,192,520,409,509,549,314,392,369,359,549,0
1,1768494471808,-1076,-124,11605,1276708,123394,329867,0,0,0,387,532,206,506,421,516,549,287,389,386,317,593,0
1,1768494471824,-827,-201,12031,1519832,-48869,351858,0,0,0,390,538,196,522,448,541,534,280,405,378,337,595,0
1,1768494471840,-583,-368,12404,1848478,-169820,311541,0,0,0,407,541,187,534,492,567,517,273,424,378,299,609,0
1,1768494471856,-425,-483,12873,2197893,-204028,235793,0,0,0,409,542,187,526,511,570,485,311,465,343,314,615,0
1,1768494471872,-904,-665,13491,2626720,-200363,162490,0,0,0,443,548,206,531,514,564,451,277,462,336,300,617,0
1,1768494471888,-1785,-866,14323,3123964,-186924,237015,0,0,0,447,532,204,536,509,569,441,265,453,328,296,607,0
1,1768494471904,-2330,-933,15730,3726277,-107512,393397,0,0,0,462,526,208,519,484,564,407,262,447,297,283,605,0
1,1768494471920,-3321,-981,17563,4423886,21991,609643,0,0,0,486,519,202,504,460,561,346,248,439,254,251,559,0
1,1768494471936,-4546,-1521,20516,5362175,158824,977384,0,0,0,475,488,185,486,435,551,303,224,437,228,223,480,0
1,1768494471952,-5762,-2507,23972,6252816,270002,1317025,0,0,0,446,456,175,454,397,515,282,189,423,217,188,430,0
1,1768494471968,-7523,-3374,26661,7215540,431270,1715309,0,0,0,401,432,170,417,347,465,275,155,385,205,149,399,0
1,1768494471984,-7662,-3321,28963,7830070,551000,2075720,0,0,0,323,393,169,373,291,413,291,147,346,187,139,339,0
1,1768494472000,-7963,-521,30653,7810522,1154535,2392148,0,0,0,261,339,159,339,246,349,319,172,294,186,159,215,0
1,1768494472016,-10825,5331,28552,7425677,1766622,2629163,0,0,0,243,279,138,307,179,282,358,197,265,199,214,116,0
1,1768494472032,-12356,13893,20909,6779382,1941329,2753780,0,0,0,231,275,139,313,184,291,364,196,269,202,214,121,0
1,1768494472048,-12170,21162,11806,4824613,1740965,1837482,0,0,0,231,277,132,308,187,282,353,196,256,196,217,121,0
1,1768494472064,-11289,23129,9270,1271821,1050688,102625,0,0,0,224,269,148,304,176,281,362,191,273,210,212,126,0
1,1768494472080,-8762,17808,9361,-2211332,456927,-1431868,0,0,0,219,271,139,307,186,281,348,202,260,200,225,118,0
1,1768494472096,-8078,11988,7628,-3814242,208915,-1901012,0,0,0,206,269,151,299,185,281,342,219,256,221,240,126,0
1,1768494472112,-8566,8394,5317,-4018271,-290771,-1281595,0,0,0,188,275,169,288,194,290,332,243,259,205,281,126,0
1,1768494472128,-5427,7973,6767,-4411668,-1095892,-504574,0,0,0,175,280,181,283,201,296,326,255,260,188,305,122,0
1,1768494472144,-1832,7508,9380,-5161811,-1340238,-210137,0,0,0,170,275,177,280,197,290,324,261,256,195,306,119,0
1,1768494472160,-693,5776,11351,-5900958,-1225395,-274889,0,0,0,170,276,155,281,200,274,317,276,245,205,314,114,0
1,1768494472176,-650,3847,12380,-6208834,-1335351,-342084,0,0,0,177,281,135,287,207,262,318,281,236,217,315,109,0
1,1768494472192,100,2560,13366,-6163630,-1616349,-338419,0,0,0,182,280,138,291,203,264,327,273,240,211,307,104,0
1,1768494472208,1253,2196,15051,-6073222,-1720196,-306654,0,0,0,172,284,139,282,193,264,330,264,245,210,296,107,0
1,1768494472224,1469,2067,16956,-6146526,-1705535,-254119,0,0,0,169,284,143,285,192,268,326,267,249,215,299,109,0
1,1768494472240,1249,1612,19085,-6363994,-1744631,-248011,0,0,0,172,283,140,285,187,265,325,241,244,219,283,110,0
1,1768494472256,617,775,20923,-6532592,-1792278,-426383,0,0,0,168,285,138,277,184,261,324,240,240,197,268,103,0
1,1768494472272,-966,-234,22900,-6559470,-1842369,-846659,0,0,0,190,286,142,286,177,260,330,232,239,194,254,99,0
1,1768494472288,-2641,-1430,25881,-6493497,-1947438,-1400103,0,0,0,190,283,138,288,174,260,337,233,243,211,239,106,0
1,1768494472304,-3675,-4154,29198,-6455623,-2057394,-1999972,0,0,0,195,283,138,293,179,265,332,234,245,205,252,107,0
1,1768494472320,-3838,-11457,31351,-6417750,-2092824,-2409252,0,0,0,197,287,140,298,188,271,334,249,247,209,284,108,0
1,1768494472336,-4115,-22220,30346,-6278472,-1971872,-2277305,0,0,0,199,286,141,302,187,274,347,248,250,218,289,106,0
1,1768494472352,-4273,-33448,24924,-5789780,-1828930,-1491732,0,0,0,201,283,141,304,181,275,363,242,254,225,277,107,0
1,1768494472368,335,-40995,16410,-4261395,-1937664,-196698,0,0,0,203,282,142,304,180,276,372,246,257,231,276,110,0
1,1768494472384,7887,-44326,11677,-2383596,-1811826,792903,0,0,0,201,282,140,304,180,276,369,250,254,234,279,108,0
1,1768494472400,13266,-45570,11883,-664621,-875980,1171639,0,0,0,191,275,134,294,181,265,374,291,247,245,314,102,0
1,1768494472416,12696,-40942,14362,1010371,618195,1095892,0,0,0,178,237,121,268,169,237,427,425,227,330,440,88,0
1,1768494472432,4206,-12457,18272,2805093,2957809,267558,0,0,0,201,201,123,268,148,231,478,478,226,417,465,85,0
1,1768494472448,-2723,11648,15439,4460537,4790405,-824668,0,0,0,207,190,118,283,133,241,537,536,233,458,532,83,0
1,1768494472464,1316,9002,15735,6142860,3666413,-1589471,0,0,0,195,177,134,280,125,274,571,570,236,521,574,80,0
1,1768494472480,7111,-3244,24106,5626068,1196074,-637743,0,0,0,197,226,126,293,153,268,578,579,249,566,590,90,0
1,1768494472496,2665,-4627,22742,3703065,411723,416610,0,0,0,205,236,127,321,158,276,589,589,272,584,594,95,0
1,1768494472512,-3756,-19,13720,1722639,560774,360410,0,0,0,210,254,131,332,176,287,605,605,282,594,601,102,0
1,1768494472528,-2421,1052,9916,979827,443488,-202807,0,0,0,222,275,158,339,187,308,619,618,293,600,608,129,0
1,1768494472544,-488,210,10270,574213,232128,-302989,0,0,0,231,282,199,350,184,338,631,631,311,608,617,151,0
1,1768494472560,-382,-57,10930,321315,147829,-118507,0,0,0,238,295,219,350,183,353,639,639,318,622,629,174,0
1,1768494472576,-961,469,10390,142942,119729,-12217,0,0,0,251,317,227,343,194,354,643,641,314,630,635,211,0
1,1768494472592,-1134,875,9877,98960,65973,-2443,0,0,0,262,329,241,345,230,361,649,640,309,625,631,233,0
1,1768494472608,-1028,827,9935,157603,34208,-2443,0,0,0,265,334,241,349,281,371,643,627,314,613,627,246,0
1,1768494472624,-966,741,10078,221133,8552,13439,0,0,0,269,341,232,367,272,375,617,588,336,601,614,274,0
1,1768494472640,-990,693,10088,255341,-19547,34208,0,0,0,267,326,252,388,232,407,617,590,346,564,589,303,0
1,1768494472656,-1014,636,9973,270002,-53756,45204,0,0,0,282,333,236,381,232,387,619,572,334,547,582,293,0
1,1768494472672,-1024,593,9901,265115,-58643,51312,0,0,0,277,349,238,373,233,398,613,560,349,532,576,316,0
1,1768494472688,-1028,555,9877,251676,-42760,57421,0,0,0,279,354,230,379,240,407,603,517,365,515,568,323,0
1,1768494472704,-1019,521,9863,239459,-30543,64751,0,0,0,280,358,235,387,245,414,605,489,364,499,560,327,0
1,1768494472720,-985,497,9844,224798,-28099,72082,0,0,0,277,370,264,387,248,421,599,483,365,473,548,341,0
1,1768494472736,-947,483,9849,210137,-26878,74525,0,0,0,279,367,270,383,242,424,592,470,353,463,536,346,0
1,1768494472752,-952,478,9853,195476,-20769,69638,0,0,0,283,368,259,384,254,425,585,458,350,462,525,347,0
1,1768494472768,-981,469,9849,200363,-4886,69638,0,0,0,279,388,235,389,272,425,582,463,362,455,518,353,0
1,1768494472784,-981,430,9868,221133,3665,74525,0,0,0,284,405,214,396,284,425,581,471,369,446,516,375,0
1,1768494472800,-957,363,9916,256563,0,89186,0,0,0,301,413,221,412,322,437,575,459,378,444,508,409,0
1,1768494472816,-995,354,9935,298102,-4886,108734,0,0,0,302,424,228,435,359,458,585,426,375,440,484,420,0
1,1768494472832,-1153,392,9987,379958,1221,151494,0,0,0,318,440,237,447,343,473,613,395,371,416,433,463,0
1,1768494472848,-1206,301,10165,507018,31764,215024,0,0,0,329,457,230,471,404,483,617,410,423,414,417,488,0
1,1768494472864,-1134,105,10466,660956,97738,276111,0,0,0,353,472,248,486,436,503,627,348,418,392,386,536,0
1,1768494472880,-1210,76,11012,868650,184481,327423,0,0,0,366,500,218,511,416,528,623,344,436,391,364,555,0
1,1768494472896,-1229,14,11797,1200961,262672,384845,0,0,0,400,490,205,512,433,564,612,312,436,394,373,598,0
1,1768494472912,-794,-153,12816,1646892,182037,415388,0,0,0,412,506,193,525,473,573,579,300,467,383,367,608,0
1,1768494472928,-330,-315,13663,2142915,-75747,342084,0,0,0,415,503,182,528,482,596,535,280,454,384,363,623,0
1,1768494472944,-808,-358,14362,2627942,-210137,276111,0,0,0,420,486,188,533,474,606,491,256,444,366,350,626,0
1,1768494472960,-1598,-325,15482,3319441,-183259,343306,0,0,0,439,474,202,535,467,591,457,246,450,339,317,616,0
1,1768494472976,-1995,-268,17286,4081801,-156381,478918,0,0,0,459,468,201,510,449,567,425,244,447,306,266,597,0
1,1768494472992,-3182,19,20019,5071403,-105068,681725,0,0,0,465,457,189,479,417,539,377,224,434,249,217,542,0
1,1768494473008,-5374,-607,23464,6315124,21991,1092227,0,0,0,461,439,174,491,421,515,348,190,423,240,193,456,0
1,1768494473024,-7303,-2191,27121,7451334,-73303,1518610,0,0,0,407,419,170,459,395,505,340,155,414,225,144,419,0
1,1768494473040,-6575,-2345,29954,8164824,-189368,1842369,0,0,0,350,381,162,394,312,480,288,147,366,183,128,380,0
1,1768494473056,-6666,-1612,32084,8449487,320093,2146580,0,0,0,270,365,178,347,300,396,293,168,328,194,151,292,0
1,1768494473072,-10074,2680,30854,8067086,1448972,2500882,0,0,0,247,274,145,310,183,301,344,189,281,188,213,144,0
1,1768494473088,-13361,11203,25039,7475768,2234545,2836858,0,0,0,240,268,170,298,173,314,332,196,295,196,234,136,0
1,1768494473104,-15501,19416,15898,6621779,2139250,2948035,0,0,0,241,270,164,306,179,305,344,209,283,213,246,131,0
1,1768494473120,-14343,25718,9495,3308446,816115,2130697,0,0,0,241,277,144,311,185,283,358,213,262,225,252,118,0
1,1768494473136,-7858,25192,9456,-1435533,-81855,415388,0,0,0,232,273,139,310,184,276,354,212,255,227,259,116,0
1,1768494473152,-3957,17339,9820,-4901582,386066,-1442863,0,0,0,216,266,149,300,180,278,346,220,256,247,263,133,0
1,1768494473168,-8777,9595,6728,-5142263,706160,-1949881,0,0,0,203,271,164,285,183,283,343,231,259,255,266,141,0
1,1768494473184,-11356,6599,4790,-4558276,-328645,-1370781,0,0,0,196,276,171,284,190,293,340,242,261,209,292,118,0
1,1768494473200,-5886,7322,7145,-4757418,-1561371,-665843,0,0,0,190,278,160,286,200,282,343,260,248,216,316,108,0
1,1768494473216,-1201,7264,10102,-5535660,-1690874,-631634,0,0,0,196,274,139,292,189,261,360,247,238,254,289,98,0
1,1768494473232,-957,5278,11926,-6223495,-1396437,-996932,0,0,0,179,261,168,284,175,284,346,248,253,224,304,113,0
1,1768494473248,-1593,3043,13256,-6421415,-1500285,-1191187,0,0,0,170,251,179,281,173,300,347,250,257,223,311,117,0
1,1768494473264,-818,2115,14869,-6312681,-1771509,-1130100,0,0,0,178,251,176,275,173,294,343,268,263,218,332,117,0
1,1768494473280,-71,1904,17281,-6371324,-1810604,-1017701,0,0,0,183,251,178,280,178,295,344,271,263,217,339,117,0
1,1768494473296,-43,1306,19861,-6572909,-1793500,-901637,0,0,0,186,258,149,285,185,277,347,268,246,214,341,104,0
1,1768494473312,-325,148,22081,-6750060,-1777617,-851546,0,0,0,185,258,143,284,183,272,348,252,241,259,291,120,0
1,1768494473328,-1584,-1368,24680,-6750060,-1696983,-1097113,0,0,0,183,260,144,282,175,272,349,241,242,232,280,108,0
1,1768494473344,-3996,-2775,27518,-6679200,-1656666,-1600466,0,0,0,183,261,148,282,173,274,355,241,247,209,288,99,0
1,1768494473360,-6848,-6355,30461,-6649878,-1855808,-2261423,0,0,0,185,263,150,285,175,276,365,247,251,213,293,102,0
1,1768494473376,-8068,-13582,32041,-6559470,-2174680,-2678033,0,0,0,185,267,152,285,177,281,368,253,257,214,301,104,0
1,1768494473392,-6408,-24575,29504,-6114761,-2222327,-2403143,0,0,0,185,269,156,283,178,287,359,254,268,216,310,108,0
1,1768494473408,-2301,-34151,23632,-5198463,-2085493,-1725083,0,0,0,189,271,157,287,176,288,360,247,273,236,300,119,0
1,1768494473424,5666,-40105,15606,-3413514,-1770287,-800233,0,0,0,189,270,159,275,183,285,362,245,275,254,284,126,0
1,1768494473440,9940,-42249,12055,-1601688,-1014036,-95294,0,0,0,191,273,150,249,217,269,362,250,272,233,309,111,0
1,1768494473456,10667,-43153,11476,-177150,-109955,547335,0,0,0,187,272,146,285,181,279,361,283,261,232,324,100,0
1,1768494473472,8336,-37219,13395,1244943,778242,880867,0,0,0,171,246,128,265,175,241,393,388,235,300,412,78,0
1,1768494473488,2828,-16080,19028,2908940,2078163,670730,0,0,0,191,211,119,255,154,217,425,464,219,368,455,78,0
1,1768494473504,-4312,12557,18736,4311486,3858224,-268780,0,0,0,193,190,116,273,144,238,448,502,217,402,495,94,0
1,1768494473520,-1641,9317,15271,5508782,3161838,-1091005,0,0,0,195,188,121,280,137,260,506,521,238,478,522,86,0
1,1768494473536,4862,-1584,19349,5971818,1207069,-1116661,0,0,0,205,209,136,302,145,269,537,537,243,526,541,91,0
1,1768494473552,3642,-4111,22124,4394564,530231,-51312,0,0,0,213,233,140,312,150,289,547,547,263,546,551,101,0
1,1768494473568,-1952,-1072,17530,2283414,696386,438601,0,0,0,224,258,150,327,157,305,571,567,282,570,570,113,0
1,1768494473584,-3158,894,11103,996932,621860,-81855,0,0,0,246,285,170,352,174,320,597,586,303,592,592,143,0
1,1768494473600,-832,-9,10332,475253,217468,-282219,0,0,0,270,300,194,360,183,345,614,585,326,607,607,186,0
1,1768494473616,-205,-81,10653,157603,9773,-127059,0,0,0,278,307,223,356,183,354,637,584,320,623,623,213,0
1,1768494473632,-947,473,10457,54977,9773,29321,0,0,0,272,317,237,351,197,365,638,596,340,627,627,222,0
1,1768494473648,-1253,689,10007,54977,17104,14660,0,0,0,295,319,275,342,196,364,646,583,343,629,631,230,0
1,1768494473664,-1129,703,9925,87964,-4886,-9773,0,0,0,318,324,259,356,209,381,646,566,354,607,622,262,0
1,1768494473680,-1019,727,10059,153938,-20769,12217,0,0,0,323,329,251,381,227,386,631,544,339,609,612,265,0
1,1768494473696,-1014,717,10107,222354,-39095,37873,0,0,0,325,351,252,391,227,385,617,556,334,569,588,275,0
1,1768494473712,-1062,650,10045,257785,-57421,48869,0,0,0,331,366,260,387,232,390,620,540,343,562,589,283,0
1,1768494473728,-1076,593,9944,252898,-57421,52534,0,0,0,346,356,250,396,228,395,605,530,336,547,577,291,0
1,1768494473744,-1052,555,9873,239459,-39095,61086,0,0,0,335,355,251,400,232,408,593,515,346,527,558,297,0
1,1768494473760,-1014,492,9820,217468,-23212,65973,0,0,0,331,376,258,401,240,414,578,506,351,520,549,301,0
1,1768494473776,-1005,445,9782,189368,-19547,64751,0,0,0,322,395,241,404,255,403,571,503,353,507,546,290,0
1,1768494473792,-976,425,9767,153938,-18325,61086,0,0,0,310,396,232,398,263,398,577,493,352,492,544,281,0
1,1768494473808,-942,440,9782,116064,-19547,54977,0,0,0,311,390,247,387,257,403,584,482,338,491,548,292,0
1,1768494473824,-938,478,9820,102625,-24434,48869,0,0,0,309,397,240,391,263,397,567,473,332,490,549,300,0
1,1768494473840,-942,464,9853,97738,-26878,41538,0,0,0,307,407,224,405,273,405,532,434,357,482,543,303,0
1,1768494473856,-971,430,9868,97738,-29321,41538,0,0,0,314,424,241,405,274,425,580,475,343,477,543,322,0
1,1768494473872,-1052,421,9892,135612,-28099,58643,0,0,0,324,432,270,404,296,435,590,477,349,475,549,346,0
1,1768494473888,-1100,406,9906,194255,-19547,86742,0,0,0,314,446,255,425,312,451,578,449,371,467,524,370,0
1,1768494473904,-1095,373,9940,260228,-7330,120951,0,0,0,323,449,253,436,318,453,602,434,365,450,515,421,0
1,1768494473920,-1119,378,10045,329867,15882,147829,0,0,0,354,478,253,455,351,458,610,409,383,435,483,479,0
1,1768494473936,-1282,445,10327,455705,48869,185703,0,0,0,353,514,293,481,377,492,609,375,419,435,430,515,0
1,1768494473952,-1349,392,10811,723264,106290,261450,0,0,0,379,513,279,507,388,516,614,341,426,403,380,536,0
1,1768494473968,-1139,148,11332,1076344,164933,337197,0,0,0,390,509,240,535,411,538,610,322,429,380,364,558,0
1,1768494473984,-593,-86,12318,1490511,125838,346971,0,0,0,395,510,209,555,430,561,598,313,448,377,361,582,0
1,1768494474000,-454,-105,14032,2096489,-226020,279776,0,0,0,409,499,195,557,439,580,565,296,473,370,352,605,0
1,1768494474016,-899,-114,15257,2805093,-594982,250454,0,0,0,423,485,197,546,452,590,509,278,482,346,336,625,0
1,1768494474032,-1416,-23,16496,3623652,-700051,304210,0,0,0,453,490,201,539,459,582,478,280,473,320,299,630,0
1,1768494474048,-2555,76,18348,4503298,-636521,427605,0,0,0,455,469,216,543,458,557,435,269,475,300,285,613,0
1,1768494474064,-4044,301,20952,5500230,-521678,714712,0,0,0,411,439,239,521,465,566,387,260,463,243,233,563,0
1,1768494474080,-6111,71,25096,6780604,-419053,1183856,0,0,0,423,431,165,490,409,542,355,205,444,216,182,437,0
1,1768494474096,-7374,-818,28418,7812966,-233350,1607797,0,0,0,393,431,165,420,360,503,307,149,420,204,129,386,0
1,1768494474112,-7441,-1727,30174,8500800,-67195,1938886,0,0,0,336,359,161,385,303,432,283,169,348,188,144,352,0
1,1768494474128,-6121,-1292,32088,8659625,326202,2172236,0,0,0,254,326,161,338,249,368,331,188,308,193,176,264,0
1,1768494474144,-7590,3531,31184,8196589,1370781,2332283,0,0,0,257,266,145,317,178,299,375,189,283,208,201,156,0
1,1768494474160,-11390,12672,24833,7536855,2157576,2464230,0,0,0,262,247,142,313,155,280,386,191,282,218,215,121,0
1,1768494474176,-14611,21579,13117,6250373,1734857,2521651,0,0,0,258,252,141,313,159,277,376,195,272,217,221,118,0
1,1768494474192,-11643,24790,9451,3086091,653625,1920560,0,0,0,256,259,139,314,164,271,370,201,257,214,226,115,0
1,1768494474208,-5178,22909,9375,-1391551,233350,557109,0,0,0,247,259,146,311,164,280,364,204,269,211,231,123,0
1,1768494474224,-3235,15467,8552,-4406781,1071457,-864985,0,0,0,232,254,148,303,161,287,356,203,282,212,236,131,0
1,1768494474240,-8619,9839,5422,-4634023,1081231,-989601,0,0,0,222,261,135,303,170,265,357,211,256,219,250,113,0
1,1768494474256,-10758,7499,4225,-4427551,-276111,-323758,0,0,0,215,280,131,299,188,261,358,232,243,217,270,100,0
1,1768494474272,-5814,7427,6527,-4770857,-1340238,139277,0,0,0,216,257,131,297,168,258,373,218,245,225,256,99,0
1,1768494474288,-1483,6637,9289,-5426926,-1524719,98960,0,0,0,211,259,139,290,179,258,343,237,241,215,280,98,0
1,1768494474304,-1311,5063,10873,-5944940,-1279151,-285884,0,0,0,204,256,152,288,165,274,338,223,264,215,264,111,0
1,1768494474320,-2077,3546,12199,-6189286,-1467298,-591317,0,0,0,210,256,151,290,169,266,339,231,251,215,276,104,0
1,1768494474336,-1789,2636,13965,-6316346,-1728748,-812450,0,0,0,204,257,141,294,175,267,343,237,246,216,284,97,0
1,1768494474352,-1598,2263,16243,-6437297,-1784948,-1000597,0,0,0,190,259,143,288,177,266,339,237,246,215,282,102,0
1,1768494474368,-2091,1675,18903,-6601009,-1809382,-1133765,0,0,0,186,261,144,285,179,269,336,237,248,214,279,103,0
1,1768494474384,-2675,574,21799,-6759834,-1892460,-1197295,0,0,0,187,262,142,285,181,271,334,235,250,211,278,102,0
1,1768494474400,-3254,-765,24670,-6784269,-1953547,-1324355,0,0,0,189,263,141,287,177,270,336,231,249,210,272,102,0
1,1768494474416,-4321,-2498,28676,-6731734,-2013411,-1665218,0,0,0,191,264,141,272,187,263,342,230,250,213,268,102,0
1,1768494474432,-4828,-6010,32060,-6769608,-2149023,-2218662,0,0,0,184,270,141,248,211,256,347,237,254,213,282,99,0
1,1768494474448,-4441,-12567,33582,-6829473,-2261423,-2609616,0,0,0,184,272,142,287,182,274,356,242,263,218,287,100,0
1,1768494474464,-4584,-23254,31055,-6620557,-2113593,-2412917,0,0,0,194,272,142,298,175,273,370,238,258,225,278,100,0
1,1768494474480,-5350,-34481,23153,-5632177,-2015855,-1047023,0,0,0,195,274,140,302,175,275,379,233,262,237,274,102,0
1,1768494474496,1134,-41727,15515,-3958406,-2313957,827111,0,0,0,196,274,140,256,220,259,385,232,263,243,269,101,0
1,1768494474512,14314,-44326,12873,-1951103,-1734857,1969429,0,0,0,197,275,141,292,183,273,383,233,264,242,272,101,0
1,1768494474528,17616,-44867,12888,-355523,-167377,2070833,0,0,0,176,246,134,276,176,267,402,351,259,309,360,115,0
1,1768494474544,11284,-37104,16233,1359786,1707979,1690874,0,0,0,177,196,120,252,153,232,430,444,234,346,432,93,0
1,1768494474560,2316,-7140,19339,3357315,4238183,615752,0,0,0,180,178,122,245,139,229,469,489,233,375,476,83,0
1,1768494474576,-3019,10476,16238,4841717,5396383,-682947,0,0,0,201,185,131,263,143,243,517,523,239,443,517,83,0
1,1768494474592,2335,3943,17870,5639507,3062878,-1374446,0,0,0,216,185,134,283,139,262,546,546,242,508,550,85,0
1,1768494474608,6786,-2933,22191,5181358,883311,-752585,0,0,0,214,191,140,289,126,285,560,560,262,544,566,95,0
1,1768494474624,1531,-2292,19707,3619987,521678,265115,0,0,0,216,230,147,301,130,304,579,580,294,583,583,111,0
1,1768494474640,-3297,148,13242,2368935,608421,273667,0,0,0,219,258,144,335,156,317,598,598,299,607,606,127,0
1,1768494474656,-2292,143,10423,1655444,507018,-232128,0,0,0,226,287,166,343,195,342,614,615,313,615,615,147,0
1,1768494474672,-378,-1000,11715,724486,272445,-199142,0,0,0,219,299,168,348,199,350,628,629,319,635,636,185,0
1,1768494474688,-516,-473,11299,78190,81855,-2443,0,0,0,238,305,162,380,220,376,635,635,312,633,635,212,0
1,1768494474704,-1258,354,10050,-4886,12217,54977,0,0,0,252,314,209,393,209,389,637,638,318,634,634,229,0
1,1768494474720,-1282,402,9834,84299,6108,7330,0,0,0,272,334,197,377,224,368,628,628,314,623,624,241,0
1,1768494474736,-1115,296,10078,108734,0,-4886,0,0,0,264,339,196,371,237,369,634,626,313,621,627,246,0
1,1768494474752,-1033,315,10174,119729,-28099,17104,0,0,0,265,341,189,368,241,377,622,613,341,592,601,260,0
1,1768494474768,-1048,358,10093,161268,-72082,32986,0,0,0,264,338,184,364,235,379,613,606,362,564,581,273,0
1,1768494474784,-1105,344,9973,215024,-113620,36651,0,0,0,267,338,185,360,233,378,600,587,363,538,568,292,0
1,1768494474800,-1143,268,9916,241902,-127059,40317,0,0,0,272,340,189,361,238,382,586,552,365,528,555,304,0
1,1768494474816,-1148,215,9897,248011,-123394,48869,0,0,0,273,341,190,364,249,392,579,521,370,533,550,308,0
1,1768494474832,-1167,186,9873,248011,-109955,58643,0,0,0,273,345,188,367,257,400,574,499,369,522,552,321,0
1,1768494474848,-1196,162,9815,240680,-80634,65973,0,0,0,277,363,190,377,241,402,574,475,371,506,550,329,0
1,1768494474864,-1201,143,9782,243124,-43982,74525,0,0,0,284,372,190,395,243,392,572,465,367,494,552,338,0
1,1768494474880,-1153,95,9801,255341,-14660,80634,0,0,0,284,380,195,403,263,425,564,464,384,491,542,370,0
1,1768494474896,-1095,43,9858,257785,0,79412,0,0,0,292,394,224,413,269,443,566,444,397,481,522,404,0
1,1768494474912,-1100,4,9920,257785,0,78190,0,0,0,302,387,221,416,277,445,578,412,384,467,499,420,0
1,1768494474928,-1158,-9,9973,287106,0,87964,0,0,0,318,393,200,442,299,455,576,388,379,459,469,446,0
1,1768494474944,-1186,-38,10021,351858,-3665,116064,0,0,0,308,402,211,428,324,484,585,349,381,448,446,485,0
1,1768494474960,-1158,-90,10093,434936,-13439,147829,0,0,0,316,419,202,432,348,496,590,339,384,421,430,522,0
1,1768494474976,-1220,-167,10222,515570,-21991,174707,0,0,0,352,444,195,454,386,492,595,318,410,401,396,548,0
1,1768494474992,-1416,-258,10524,632856,-12217,208915,0,0,0,373,465,198,494,399,502,579,296,424,389,356,576,0
1,1768494475008,-1732,-315,11404,896750,-29321,299323,0,0,0,388,494,197,506,420,523,566,285,428,381,344,597,0
1,1768494475024,-1387,-339,12577,1291369,-244346,431270,0,0,0,403,522,190,515,464,546,549,276,441,372,338,613,0
1,1768494475040,-445,-488,13371,1805717,-351858,431270,0,0,0,406,528,186,548,497,572,525,268,443,365,323,627,0
1,1768494475056,-339,-674,13673,2323731,-260228,273667,0,0,0,428,521,193,554,506,581,524,261,431,358,328,627,0
1,1768494475072,-1201,-693,14630,2880840,-232128,184481,0,0,0,486,516,207,555,499,555,464,277,450,330,339,627,0
1,1768494475088,-2364,-684,16147,3610213,-265115,252898,0,0,0,474,498,213,537,477,562,429,246,460,293,270,620,0
1,1768494475104,-3158,-512,18253,4498411,-277332,498466,0,0,0,487,489,208,522,438,562,426,209,441,309,222,596,0
1,1768494475120,-4469,-603,21373,5556430,-266337,833220,0,0,0,486,471,186,528,455,549,394,196,433,264,200,523,0
1,1768494475136,-6412,-1387,25422,6684087,-238237,1227839,0,0,0,458,424,199,476,400,532,333,161,424,222,146,466,0
1,1768494475152,-8327,-2541,28628,7716449,-153938,1653001,0,0,0,404,402,196,413,337,495,287,134,399,195,120,416,0
1,1768494475168,-8236,-2847,31026,8451931,1221,2095267,0,0,0,327,371,180,369,300,436,286,164,357,186,143,357,0
1,1768494475184,-7351,-976,32457,8513017,507018,2404365,0,0,0,256,310,151,328,228,342,332,187,312,185,180,224,0
1,1768494475200,-10251,6484,29672,8023104,1419650,2665815,0,0,0,240,270,138,312,179,285,380,203,286,201,228,131,0
1,1768494475216,-14032,17037,21718,7351152,1651779,2919935,0,0,0,249,266,143,315,181,287,386,218,279,211,251,124,0
1,1768494475232,-13955,25403,13007,5293758,855211,2708576,0,0,0,239,269,142,311,185,287,373,222,270,205,244,120,0
1,1768494475248,-8973,29016,10088,992045,111177,1494176,0,0,0,235,275,134,308,190,271,373,223,254,209,244,114,0
1,1768494475264,-3192,22699,11351,-3874107,553443,-577878,0,0,0,232,272,135,312,187,266,371,221,251,221,240,114,0
1,1768494475280,-6968,12438,8580,-5342627,1393994,-1584584,0,0,0,220,268,136,301,187,266,363,247,252,215,264,108,0
1,1768494475296,-11667,7499,5120,-4943121,621860,-1112996,0,0,0,199,264,133,287,188,266,356,234,252,208,263,102,0
1,1768494475312,-8102,7575,6130,-4897917,-899193,-245567,0,0,0,194,264,139,288,179,268,353,250,260,208,267,106,0
1,1768494475328,-1708,7518,9566,-5657833,-1540602,79412,0,0,0,189,269,136,282,183,263,347,245,252,215,282,104,0
1,1768494475344,-1196,5652,11442,-6374989,-1122770,-284663,0,0,0,185,272,141,281,186,266,344,248,249,215,286,104,0
1,1768494475360,-2416,3412,12467,-6658431,-1127657,-540004,0,0,0,195,273,140,288,189,265,347,258,249,215,296,100,0
1,1768494475376,-2459,1756,13749,-6521597,-1589471,-597426,0,0,0,196,264,141,290,182,267,349,251,249,220,293,100,0
1,1768494475392,-1100,1517,16128,-6381098,-1824043,-686612,0,0,0,191,258,147,287,180,269,346,248,251,221,294,104,0
1,1768494475408,-1033,1454,18650,-6462954,-1824043,-855211,0,0,0,190,258,148,285,180,271,343,244,254,221,290,106,0
1,1768494475424,-1756,612,21512,-6682865,-1868025,-1021366,0,0,0,194,258,144,288,179,271,340,239,254,218,279,104,0
1,1768494475440,-2215,-612,24029,-6753726,-1941329,-1178969,0,0,0,198,260,142,293,180,272,338,236,254,214,269,103,0
1,1768494475456,-2842,-1976,26934,-6648657,-1959655,-1474628,0,0,0,200,262,142,295,181,274,341,231,255,215,261,103,0
1,1768494475472,-3689,-4168,30102,-6504493,-1960877,-1955990,0,0,0,200,265,146,295,179,276,347,231,257,215,262,105,0
1,1768494475488,-4139,-8523,32399,-6410419,-2003637,-2372600,0,0,0,190,269,152,287,179,281,351,238,264,216,268,105,0
1,1768494475504,-4455,-16932,32112,-6326120,-1971872,-2445904,0,0,0,193,274,153,293,182,290,355,240,267,226,276,109,0
1,1768494475520,-4962,-29011,26168,-5921727,-1828930,-1727526,0,0,0,191,274,158,296,183,299,363,241,279,225,273,115,0
1,1768494475536,-966,-40488,17319,-4676784,-1948660,-438601,0,0,0,200,275,174,288,177,301,365,241,280,225,270,114,0
1,1768494475552,9810,-44790,12294,-2605951,-1723861,527787,0,0,0,201,276,178,290,177,302,363,242,279,231,285,115,0
1,1768494475568,15941,-45953,11093,-682947,-627969,800233,0,0,0,203,277,176,287,176,294,362,248,276,230,293,110,0
1,1768494475584,10605,-41641,12266,985936,751364,660956,0,0,0,179,252,146,275,174,262,384,376,248,274,374,87,0
1,1768494475600,3306,-27767,16592,2495995,1606575,591317,0,0,0,176,207,117,255,156,227,429,473,236,345,458,78,0
1,1768494475616,-3043,3876,21277,3854559,3022561,78190,0,0,0,187,195,116,254,153,230,489,510,236,419,507,85,0
1,1768494475632,-3259,17147,16870,5009094,3941302,-752585,0,0,0,193,199,128,272,156,261,533,535,241,503,543,95,0
1,1768494475648,4474,1799,19885,6416528,2162462,-930958,0,0,0,207,196,141,285,140,295,557,557,270,563,571,106,0
1,1768494475664,3594,-5436,23637,5172806,788016,73303,0,0,0,226,211,148,306,135,310,580,580,299,573,581,112,0
1,1768494475680,-1722,-2804,18233,3086091,500909,412944,0,0,0,231,249,143,342,159,304,597,597,300,580,588,120,0
1,1768494475696,-3316,885,11050,1473406,515570,-105068,0,0,0,229,275,165,343,178,329,603,603,322,602,603,165,0
1,1768494475712,-1124,4,10404,748920,315206,-312763,0,0,0,243,286,207,354,195,366,621,620,330,614,614,230,0
1,1768494475728,-406,-579,10806,278554,112399,-153938,0,0,0,241,309,197,362,221,383,621,621,330,625,625,304,0
1,1768494475744,-1086,90,10370,91629,41538,9773,0,0,0,265,324,197,358,244,391,633,623,342,630,629,318,0
1,1768494475760,-1392,598,9935,75747,24434,24434,0,0,0,287,324,209,362,236,403,638,602,338,631,634,327,0
1,1768494475776,-1306,622,9897,158824,13439,4886,0,0,0,294,331,210,368,245,410,624,584,345,609,622,346,0
1,1768494475792,-1177,454,10035,239459,1221,30543,0,0,0,295,337,210,383,260,425,610,571,361,580,601,368,0
1,1768494475808,-1124,402,10078,287106,-23212,59864,0,0,0,296,339,206,391,262,432,605,545,368,547,589,391,0
1,1768494475824,-1124,373,10021,309097,-65973,64751,0,0,0,306,342,207,390,288,423,599,513,367,529,576,404,0
1,1768494475840,-1148,315,9959,318871,-102625,58643,0,0,0,311,351,208,395,290,421,597,499,365,519,556,408,0
1,1768494475856,-1215,253,9906,305432,-100181,58643,0,0,0,302,363,206,407,283,436,592,483,366,503,540,413,0
1,1768494475872,-1215,196,9830,272445,-70860,72082,0,0,0,295,366,203,412,322,450,579,448,372,487,535,422,0
1,1768494475888,-1196,162,9801,252898,-57421,79412,0,0,0,305,354,199,405,301,447,580,452,376,475,529,425,0
1,1768494475904,-1177,148,9806,245567,-50090,84299,0,0,0,305,349,198,395,293,445,585,442,369,482,514,439,0
1,1768494475920,-1158,129,9820,244346,-39095,86742,0,0,0,306,379,184,398,301,427,579,414,362,456,489,451,0
1,1768494475936,-1148,105,9849,244346,-23212,81855,0,0,0,310,379,202,399,292,429,587,408,370,455,477,454,0
1,1768494475952,-1139,76,9906,255341,-13439,75747,0,0,0,311,396,202,433,317,442,573,395,385,466,467,475,0
1,1768494475968,-1139,43,9978,284663,-10995,75747,0,0,0,312,385,208,417,324,454,578,373,391,519,432,473,0
1,1768494475984,-1148,0,10021,322536,-17104,81855,0,0,0,318,405,198,433,314,460,585,352,379,470,418,500,0
1,1768494476000,-1220,-38,10045,368962,-20769,101403,0,0,0,326,422,199,438,342,471,596,325,377,424,407,526,0
1,1768494476016,-1344,-62,10136,450818,-9773,136833,0,0,0,338,429,199,437,358,479,603,297,390,408,389,540,0
1,1768494476032,-1421,-143,10303,610865,29321,194255,0,0,0,350,450,192,463,382,498,602,286,399,396,376,559,0
1,1768494476048,-1450,-330,10586,833220,63529,262672,0,0,0,361,472,184,489,429,534,599,290,415,386,370,578,0
1,1768494476064,-1229,-406,11457,1106887,-3665,317649,0,0,0,372,479,183,499,450,568,592,287,448,375,356,593,0
1,1768494476080,-713,-440,12505,1461189,-207694,322536,0,0,0,381,488,193,525,442,591,565,268,469,355,329,619,0
1,1768494476096,-598,-626,12974,1885130,-445931,251676,0,0,0,401,490,174,540,462,573,542,245,460,352,290,615,0
1,1768494476112,-952,-813,13481,2321287,-574213,172263,0,0,0,411,478,179,538,462,603,518,253,463,332,282,624,0
1,1768494476128,-1722,-827,14266,2763554,-548556,162490,0,0,0,455,489,187,552,473,613,467,245,462,318,284,650,0
1,1768494476144,-2689,-894,15333,3387858,-417831,317649,0,0,0,451,497,179,519,445,593,468,251,506,308,283,644,0
1,1768494476160,-3000,-904,16956,4103792,-343306,553443,0,0,0,459,482,218,518,473,603,441,257,498,282,268,622,0
1,1768494476176,-3819,-1043,19870,5049412,-332310,803898,0,0,0,458,467,224,510,444,589,404,201,498,248,215,555,0
1,1768494476192,-6255,-1631,23364,6153856,-291993,1161865,0,0,0,436,447,185,494,423,552,377,165,462,225,162,484,0
1,1768494476208,-8092,-2455,26623,7213096,-151494,1623679,0,0,0,404,427,159,453,373,491,326,145,407,206,127,416,0
1,1768494476224,-7949,-3010,29389,8015773,-144164,2008524,0,0,0,348,399,168,396,304,438,290,144,368,184,126,365,0
1,1768494476240,-6972,-2569,31840,8390844,8552,2273640,0,0,0,275,349,163,343,257,369,315,175,322,170,152,271,0
1,1768494476256,-8346,1914,31260,8115955,822224,2542421,0,0,0,243,298,147,311,219,300,351,212,288,172,197,156,0
1,1768494476272,-11002,12093,24522,7475768,1513724,2779436,0,0,0,246,274,156,306,184,295,362,220,298,173,232,128,0
1,1768494476288,-11591,20751,14883,6420193,1635897,2510656,0,0,0,237,272,152,305,180,291,362,207,289,178,222,127,0
1,1768494476304,-9437,24288,10404,3282789,1218065,913854,0,0,0,224,274,143,308,183,284,358,204,275,182,229,123,0
1,1768494476320,-6140,22723,9964,-862541,1065348,-940732,0,0,0,217,269,143,299,182,280,350,210,276,181,227,123,0
1,1768494476336,-4800,15821,9485,-4002389,1534493,-2190562,0,0,0,213,269,147,292,176,279,342,210,288,182,233,128,0
1,1768494476352,-8528,9715,6231,-4334699,1683544,-1828930,0,0,0,199,269,141,292,187,279,332,220,278,180,242,121,0
1,1768494476368,-10203,7575,4565,-4140444,866206,-840550,0,0,0,194,261,156,289,178,287,333,211,284,189,246,122,0
1,1768494476384,-6819,7556,6197,-4586376,-123394,45204,0,0,0,215,268,167,284,176,275,330,223,261,185,250,104,0
1,1768494476400,-3943,7207,8624,-5403713,-353080,338419,0,0,0,217,269,160,286,174,270,332,217,253,196,252,100,0
1,1768494476416,-4173,5800,10677,-6238155,-301767,245567,0,0,0,197,270,156,285,181,277,332,226,258,202,255,107,0
1,1768494476432,-5063,3910,12409,-6877120,-576656,97738,0,0,0,200,268,154,286,181,271,331,234,256,202,260,103,0
1,1768494476448,-4919,2201,14027,-7155675,-1093448,-94073,0,0,0,209,265,157,283,174,266,332,240,249,200,262,98,0
1,1768494476464,-4670,1033,15797,-7160562,-1440420,-387288,0,0,0,206,266,164,277,170,266,333,248,245,196,261,98,0
1,1768494476480,-4886,162,18042,-7084815,-1773952,-671951,0,0,0,207,265,165,278,171,264,333,249,243,195,262,97,0
1,1768494476496,-4962,-311,21024,-7009067,-2123367,-825889,0,0,0,201,265,166,278,179,270,337,252,248,197,266,99,0
1,1768494476512,-4589,-938,24819,-7044497,-2354274,-886976,0,0,0,204,268,170,282,171,271,336,252,245,210,261,104,0
1,1768494476528,-4694,-2148,28451,-7100697,-2441017,-1049466,0,0,0,196,267,170,279,170,279,330,251,255,248,237,128,0
1,1768494476544,-4670,-5613,32021,-7071376,-2592512,-1466076,0,0,0,196,268,169,277,169,279,333,251,259,188,260,105,0
1,1768494476560,-2837,-12184,34438,-6893003,-2791654,-1901012,0,0,0,185,275,168,277,178,286,337,256,267,194,261,104,0
1,1768494476576,14,-21703,33639,-6511823,-2638937,-2057394,0,0,0,185,275,159,290,186,284,341,242,261,207,270,102,0
1,1768494476592,191,-33534,26781,-5709146,-2045176,-1555262,0,0,0,188,276,152,294,188,280,351,236,260,218,279,96,0
1,1768494476608,1708,-43708,17630,-4338364,-1747074,-364075,0,0,0,193,279,156,294,188,280,354,235,257,220,282,100,0
1,1768494476624,10792,-47953,12691,-2342057,-1425759,963945,0,0,0,196,283,165,291,187,282,351,235,255,214,287,96,0
1,1768494476640,18391,-47633,12380,-223576,-238237,1532050,0,0,0,187,270,152,281,182,272,370,308,256,254,360,92,0
1,1768494476656,13098,-37099,16630,1512502,1389107,1207069,0,0,0,200,222,129,262,161,239,434,424,235,329,433,84,0
1,1768494476672,3517,-9796,21612,3077539,3310889,577878,0,0,0,209,182,122,252,138,230,497,499,231,397,479,82,0
1,1768494476688,-4015,15247,17975,4493524,4884478,-414166,0,0,0,200,176,128,261,129,252,533,532,250,464,529,87,0
1,1768494476704,-167,8863,15998,5914397,3606548,-1147204,0,0,0,202,177,129,278,134,264,566,566,256,541,578,85,0
1,1768494476720,5680,-4302,23551,5676159,1091005,-587652,0,0,0,208,186,136,294,135,269,587,588,268,559,591,92,0
1,1768494476736,1804,-4704,22493,3793473,398284,272445,0,0,0,215,240,140,334,146,283,611,611,273,603,612,111,0
1,1768494476752,-2785,-172,13859,1827708,531452,100181,0,0,0,219,258,164,344,159,328,611,612,303,609,609,140,0
1,1768494476768,-2225,737,9777,824668,415388,-283441,0,0,0,224,259,191,343,174,346,618,617,308,604,605,159,0
1,1768494476784,-899,-57,10361,481361,174707,-227241,0,0,0,249,276,203,372,185,375,635,635,328,615,615,195,0
1,1768494476800,-904,0,10648,243124,37873,-35430,0,0,0,272,297,241,378,195,382,645,645,341,624,623,241,0
1,1768494476816,-1445,564,10098,173485,40317,31764,0,0,0,268,314,244,362,211,384,639,639,350,621,621,263,0
1,1768494476832,-1411,559,9853,182037,35430,12217,0,0,0,265,317,245,365,204,399,633,626,369,614,614,284,0
1,1768494476848,-1273,421,9978,186924,7330,10995,0,0,0,268,316,259,367,202,418,628,606,380,609,609,297,0
1,1768494476864,-1277,469,10078,199142,-25656,32986,0,0,0,270,321,281,365,214,426,618,578,386,597,598,302,0
1,1768494476880,-1306,502,10021,228463,-56199,51312,0,0,0,275,332,288,371,226,421,607,550,391,573,574,313,0
1,1768494476896,-1306,454,9906,256563,-74525,57421,0,0,0,274,340,270,366,238,415,601,526,383,552,558,322,0
1,1768494476912,-1306,397,9839,266337,-72082,57421,0,0,0,268,341,263,361,246,418,590,502,385,535,557,322,0
1,1768494476928,-1330,344,9825,266337,-59864,62308,0,0,0,273,346,260,369,255,432,579,491,399,507,540,334,0
1,1768494476944,-1330,306,9825,252898,-48869,70860,0,0,0,275,341,228,377,255,421,592,473,385,497,528,358,0
1,1768494476960,-1320,291,9830,244346,-39095,78190,0,0,0,287,352,229,390,244,416,572,457,382,501,518,354,0
1,1768494476976,-1311,282,9853,244346,-21991,81855,0,0,0,281,370,257,382,260,426,566,455,386,507,497,351,0
1,1768494476992,-1292,253,9858,252898,-2443,81855,0,0,0,285,371,246,387,277,431,567,438,387,475,502,373,0
1,1768494477008,-1263,210,9868,262672,7330,83077,0,0,0,298,375,231,397,278,441,562,427,394,459,487,381,0
1,1768494477024,-1239,162,9916,283441,4886,84299,0,0,0,294,383,231,405,297,449,576,407,383,444,475,401,0
1,1768494477040,-1268,134,9983,328645,-2443,96516,0,0,0,295,401,232,412,312,466,586,385,386,436,452,442,0
1,1768494477056,-1368,105,10035,411723,-2443,128281,0,0,0,303,423,222,436,343,479,590,365,395,438,427,477,0
1,1768494477072,-1454,62,10136,507018,18325,171042,0,0,0,316,432,211,451,365,490,610,340,406,423,403,504,0
1,1768494477088,-1517,-38,10380,670730,80634,234572,0,0,0,335,431,222,458,364,504,626,304,420,395,382,532,0
1,1768494477104,-1526,-177,10839,896750,152716,299323,0,0,0,353,443,228,477,374,520,623,280,431,384,363,554,0
1,1768494477120,-1368,-291,11715,1235169,193033,359188,0,0,0,370,470,190,494,408,544,615,288,451,380,344,573,0
1,1768494477136,-1014,-406,12634,1640784,0,366519,0,0,0,367,466,199,503,437,573,592,292,456,345,348,589,0
1,1768494477152,-622,-526,13232,2086715,-268780,327423,0,0,0,387,460,201,514,461,603,534,290,456,325,345,611,0
1,1768494477168,-837,-703,13673,2557081,-433714,245567,0,0,0,402,491,199,554,446,578,511,253,481,351,310,620,0
1,1768494477184,-1689,-641,14821,3123964,-434936,251676,0,0,0,425,480,202,519,490,582,502,243,471,316,290,626,0
1,1768494477200,-2574,-650,16338,3798360,-398284,376292,0,0,0,446,487,210,496,466,581,449,246,468,276,256,616,0
1,1768494477216,-3201,-521,18789,4703662,-372627,618195,0,0,0,456,464,209,511,444,580,422,218,491,257,219,576,0
1,1768494477232,-4967,-626,22330,5909510,-342084,968832,0,0,0,460,445,188,508,421,552,380,197,473,220,174,496,0
1,1768494477248,-6503,-1679,26460,7120245,-328645,1358564,0,0,0,431,437,178,459,387,532,323,175,433,192,139,434,0
1,1768494477264,-7150,-2962,29590,8003556,-409279,1615127,0,0,0,380,402,178,403,334,488,277,154,386,181,127,395,0
1,1768494477280,-6135,-2938,32084,8536230,-293215,1858252,0,0,0,305,342,171,361,275,408,279,154,335,173,136,322,0
1,1768494477296,-7805,138,32720,8470257,541226,2127032,0,0,0,238,293,160,325,224,339,328,180,300,173,174,205,0
1,1768494477312,-11294,8394,28920,8014551,1422094,2450791,0,0,0,243,258,149,310,184,291,359,198,286,180,214,124,0
1,1768494477328,-13151,18439,19329,7231422,1651779,2728124,0,0,0,237,271,148,308,184,292,364,206,285,182,211,121,0
1,1768494477344,-12811,23847,11026,4913799,1014036,2517986,0,0,0,231,279,146,306,185,288,359,198,280,189,220,125,0
1,1768494477360,-8513,24962,8844,513126,171042,1580919,0,0,0,243,273,137,310,194,277,355,218,267,187,244,120,0
1,1768494477376,-2909,19224,9897,-3688404,267558,169820,0,0,0,233,264,139,305,187,275,343,208,269,188,230,120,0
1,1768494477392,-4446,10787,7676,-5108055,1160643,-753807,0,0,0,221,264,144,307,187,270,354,205,264,209,244,112,0
1,1768494477408,-8935,6690,4838,-4885700,952949,-641408,0,0,0,209,267,141,267,213,256,344,227,263,207,281,111,0
1,1768494477424,-8049,6264,5087,-4725653,-464257,34208,0,0,0,202,272,135,279,207,259,342,235,251,208,279,103,0
1,1768494477440,-3220,6307,7585,-5123937,-1299921,282219,0,0,0,194,270,138,293,192,260,347,234,241,216,268,97,0
1,1768494477456,-1095,5551,9834,-5681046,-1114218,-105068,0,0,0,192,265,136,295,190,259,348,236,237,216,268,94,0
1,1768494477472,-1689,4546,11146,-6059783,-1009149,-508239,0,0,0,192,265,130,288,198,260,346,246,240,211,275,92,0
1,1768494477488,-2924,3244,12548,-6316346,-1306029,-785572,0,0,0,196,265,129,294,196,257,351,253,242,214,282,92,0
1,1768494477504,-2268,2474,14553,-6425080,-1665218,-786794,0,0,0,203,265,126,312,184,255,356,254,242,218,288,90,0
1,1768494477520,-1789,2043,16865,-6554584,-1800830,-753807,0,0,0,185,268,132,279,185,262,349,260,245,212,294,91,0
1,1768494477536,-1909,1373,19899,-6751282,-1880243,-702495,0,0,0,187,268,136,295,195,268,341,254,246,212,291,94,0
1,1768494477552,-1981,291,22880,-6905220,-1979203,-698829,0,0,0,180,270,136,285,196,271,322,248,249,197,279,96,0
1,1768494477568,-2129,-961,25714,-6913772,-2039068,-855211,0,0,0,172,281,138,276,199,270,325,250,253,191,272,95,0
1,1768494477584,-2560,-2651,29179,-6808703,-2105041,-1318247,0,0,0,173,271,153,275,186,282,331,244,268,194,264,107,0
1,1768494477600,-2340,-6527,32921,-6741508,-2221106,-2047620,0,0,0,176,269,159,280,186,287,335,244,269,196,264,105,0
1,1768494477616,-2287,-15486,33864,-6649878,-2087937,-2537534,0,0,0,178,282,160,287,206,291,339,249,273,199,271,104,0
1,1768494477632,-4584,-27724,30437,-6304129,-1761735,-2265088,0,0,0,186,285,151,297,203,292,354,244,271,229,269,101,0
1,1768494477648,-4560,-41100,21986,-5287649,-1742187,-895528,0,0,0,188,286,147,296,199,292,351,255,270,226,290,100,0
1,1768494477664,7470,-47121,14256,-3266907,-1813048,640186,0,0,0,184,290,146,290,200,290,342,264,271,206,318,103,0
1,1768494477680,17583,-48183,10653,-1066570,-923628,1224173,0,0,0,184,268,132,276,196,265,368,319,254,256,363,95,0
1,1768494477696,15242,-43522,14108,864985,816115,867428,0,0,0,195,220,125,254,172,236,418,425,236,346,433,87,0
1,1768494477712,6532,-23933,18114,3301115,3276681,284663,0,0,0,207,189,142,253,138,249,473,486,243,423,481,96,0
1,1768494477728,-3096,3828,17243,5760459,4770857,-538783,0,0,0,202,205,153,265,169,279,522,522,260,474,527,107,0
1,1768494477744,1095,4862,20669,6574131,2533869,-1218065,0,0,0,206,210,143,266,184,289,548,548,260,495,553,110,0
1,1768494477760,6728,-2723,24694,5434257,618195,-614530,0,0,0,217,206,147,296,139,293,558,559,293,528,554,101,0
1,1768494477776,1445,-3144,19573,3409849,593761,257785,0,0,0,228,236,150,322,151,300,575,575,293,571,574,125,0
1,1768494477792,-2747,-1115,13314,1858252,669508,205250,0,0,0,232,279,160,354,169,322,589,589,299,580,581,139,0
1,1768494477808,-2196,-4,10256,879645,496022,-274889,0,0,0,236,288,184,358,185,345,604,604,334,598,598,190,0
1,1768494477824,-373,-191,10681,367740,233350,-237015,0,0,0,244,289,193,368,193,364,615,608,334,615,615,248,0
1,1768494477840,-382,23,10653,114842,108734,-12217,0,0,0,250,303,209,375,202,386,619,607,357,615,615,278,0
1,1768494477856,-961,402,10122,87964,90408,26878,0,0,0,277,330,232,376,222,402,623,604,370,615,615,295,0
1,1768494477872,-1076,536,9925,117286,64751,2443,0,0,0,308,343,241,379,244,402,629,596,357,615,616,305,0
1,1768494477888,-899,449,10050,168598,36651,0,0,0,0,307,347,229,387,256,397,624,582,346,608,610,319,0
1,1768494477904,-847,402,10098,206472,6108,24434,0,0,0,301,365,225,394,260,408,612,573,354,596,600,346,0
1,1768494477920,-875,397,10064,237015,-23212,42760,0,0,0,314,369,231,402,253,417,609,562,361,579,592,362,0
1,1768494477936,-871,358,10002,262672,-50090,47647,0,0,0,311,366,216,417,259,417,591,534,353,584,584,372,0
1,1768494477952,-847,291,9959,268780,-65973,46425,0,0,0,324,366,214,432,274,417,586,505,355,574,571,363,0
1,1768494477968,-894,253,9920,256563,-64751,48869,0,0,0,305,391,210,418,328,416,570,498,370,529,549,371,0
1,1768494477984,-938,229,9887,240680,-54977,54977,0,0,0,325,371,208,457,280,426,561,466,356,513,548,375,0
1,1768494478000,-947,201,9873,221133,-36651,67195,0,0,0,337,370,205,439,273,420,563,461,357,511,533,379,0
1,1768494478016,-890,162,9877,206472,-17104,79412,0,0,0,328,401,206,437,303,441,562,450,371,514,515,384,0
1,1768494478032,-823,148,9882,201585,-4886,83077,0,0,0,328,390,203,406,356,421,562,447,372,498,503,393,0
1,1768494478048,-827,148,9892,215024,0,79412,0,0,0,310,410,203,419,331,422,558,433,361,487,488,399,0
1,1768494478064,-837,124,9906,238237,2443,79412,0,0,0,310,433,206,451,310,434,556,418,366,482,477,415,0
1,1768494478080,-842,81,9940,273667,9773,84299,0,0,0,312,448,220,457,322,449,561,406,380,471,462,441,0
1,1768494478096,-880,62,10035,320093,14660,100181,0,0,0,309,451,221,451,340,469,575,391,386,458,444,465,0
1,1768494478112,-966,23,10174,406836,23212,134390,0,0,0,318,454,198,454,356,485,584,362,396,442,426,486,0
1,1768494478128,-1033,-47,10279,529009,54977,185703,0,0,0,334,492,200,446,380,506,575,326,424,418,401,515,0
1,1768494478144,-1086,-162,10433,690277,123394,244346,0,0,0,351,517,206,445,437,536,579,322,425,410,385,546,0
1,1768494478160,-1206,-268,10863,894306,201585,311541,0,0,0,363,521,185,458,473,538,584,316,416,394,364,575,0
1,1768494478176,-1086,-368,11801,1211956,186924,388510,0,0,0,399,535,185,503,486,535,584,306,432,373,360,583,0
1,1768494478192,-464,-464,12701,1578475,13439,408057,0,0,0,422,538,196,517,518,543,531,297,451,373,352,605,0
1,1768494478208,14,-598,13242,2001194,-219911,321315,0,0,0,442,547,200,528,510,545,527,293,458,365,339,615,0
1,1768494478224,-473,-660,13979,2480112,-322536,230907,0,0,0,442,522,210,512,530,559,499,266,443,364,321,613,0
1,1768494478240,-1454,-703,15218,3060434,-345749,249233,0,0,0,453,504,203,504,508,566,459,254,460,319,292,623,0
1,1768494478256,-2335,-636,17276,3919311,-376292,455705,0,0,0,458,485,204,495,465,560,419,249,463,288,271,628,0
1,1768494478272,-2847,-358,19956,4885700,-397062,704938,0,0,0,464,464,207,488,456,559,394,229,459,267,246,584,0
1,1768494478288,-4656,-421,23359,6139195,-353080,1040914,0,0,0,457,456,196,465,451,549,351,197,451,229,204,499,0
1,1768494478304,-6642,-1134,27102,7419569,-295658,1461189,0,0,0,423,435,177,428,396,504,300,181,416,196,165,422,0
1,1768494478320,-7269,-1608,30490,8471479,-243124,1863138,0,0,0,371,374,170,395,311,443,292,173,369,200,150,375,0
1,1768494478336,-6250,-1148,32667,8938180,147829,2158797,0,0,0,292,329,169,347,235,381,302,147,339,199,145,306,0
1,1768494478352,-7614,2019,32093,8718268,1183856,2390926,0,0,0,229,278,136,315,185,299,355,184,290,191,192,150,0
1,1768494478368,-12179,11634,25972,7993782,2015855,2612059,0,0,0,254,265,164,311,171,308,362,192,305,192,203,134,0
1,1768494478384,-15319,20363,16381,6842912,1897347,2800206,0,0,0,240,263,156,313,176,311,353,198,305,192,209,136,0
1,1768494478400,-13299,24426,9849,4262617,938289,2519208,0,0,0,237,269,155,309,177,302,346,202,285,192,213,129,0
1,1768494478416,-6331,23819,9212,-174707,357967,1240056,0,0,0,237,272,150,307,182,287,346,214,276,195,236,127,0
1,1768494478432,-3134,16310,9107,-4128227,1166752,-702495,0,0,0,230,266,146,306,177,285,343,208,271,202,240,123,0
1,1768494478448,-7250,9030,6680,-5302310,1639562,-1561371,0,0,0,214,258,152,291,167,304,335,208,271,203,248,118,0
1,1768494478464,-10926,5431,4642,-4823391,513126,-1037249,0,0,0,205,257,148,291,174,292,330,221,266,203,259,113,0
1,1768494478480,-8260,4924,5494,-4609589,-844215,-323758,0,0,0,197,259,147,289,180,280,330,229,263,196,260,108,0
1,1768494478496,-3732,5403,8260,-5199684,-1139874,-245567,0,0,0,186,260,151,280,178,282,330,239,265,192,266,107,0
1,1768494478512,-2986,5135,10370,-5932723,-1017701,-531452,0,0,0,181,261,150,279,178,281,327,246,264,198,278,110,0
1,1768494478528,-4192,4115,12074,-6542366,-1163087,-866206,0,0,0,184,260,147,285,183,281,326,239,258,206,280,108,0
1,1768494478544,-4087,2498,13979,-6801373,-1659109,-1017701,0,0,0,180,266,151,284,185,286,324,246,258,216,288,114,0
1,1768494478560,-3091,1287,15850,-6800151,-1960877,-1005484,0,0,0,185,269,147,281,185,278,325,245,261,220,293,115,0
1,1768494478576,-2081,703,18463,-6739065,-2079385,-873537,0,0,0,193,268,142,289,189,278,327,250,260,216,294,113,0
1,1768494478592,-1258,344,21416,-6775717,-2149023,-709825,0,0,0,194,271,138,294,189,273,332,252,255,214,290,107,0
1,1768494478608,-737,-129,24067,-6893003,-2180788,-649960,0,0,0,199,269,147,290,185,274,324,244,254,208,280,109,0
1,1768494478624,-1005,-914,27030,-6936985,-2197893,-913854,0,0,0,196,272,155,293,186,281,323,239,260,207,274,113,0
1,1768494478640,-1732,-2464,30653,-6914994,-2247984,-1539380,0,0,0,192,282,160,289,184,281,321,235,262,209,270,115,0
1,1768494478656,-2134,-6628,34132,-6877120,-2311514,-2439795,0,0,0,190,285,153,290,186,281,328,239,267,211,276,112,0
1,1768494478672,-3110,-18076,34716,-6745173,-2140471,-3088534,0,0,0,191,285,154,291,187,282,333,242,271,215,284,111,0
1,1768494478688,-4982,-30878,30145,-6384763,-1913229,-2635272,0,0,0,192,285,157,292,189,287,337,249,273,216,287,112,0
1,1768494478704,110,-43967,20052,-5023755,-2054950,-979827,0,0,0,191,285,157,293,190,294,340,259,274,218,288,112,0
1,1768494478720,12347,-49676,12610,-2805093,-1810604,343306,0,0,0,186,276,153,287,184,287,346,289,272,244,329,107,0
1,1768494478736,17262,-49399,11739,-524122,-373849,583987,0,0,0,182,247,135,274,175,262,375,373,252,310,412,93,0
1,1768494478752,12672,-41660,16348,1739744,1673770,547335,0,0,0,199,206,117,257,151,226,446,470,227,387,449,88,0
1,1768494478768,2000,-12596,17530,4445877,3952298,544891,0,0,0,203,188,125,251,147,239,494,508,236,434,508,87,0
1,1768494478784,-3000,6446,19463,6373767,3925420,229685,0,0,0,217,187,135,288,132,265,543,543,242,484,544,82,0
1,1768494478800,1081,2292,26058,6219829,1528384,-221133,0,0,0,201,189,146,288,140,282,551,550,276,514,548,89,0
1,1768494478816,1761,-3096,24398,4001167,465479,81855,0,0,0,229,219,147,315,141,293,561,561,283,549,554,114,0
1,1768494478832,-1344,-1622,15998,2092824,448375,191811,0,0,0,218,258,146,342,157,317,581,580,287,569,569,113,0
1,1768494478848,-2665,1139,9212,989601,612086,-109955,0,0,0,227,278,182,344,174,336,606,596,291,593,593,143,0
1,1768494478864,-1072,679,9997,478918,359188,-227241,0,0,0,246,292,203,347,184,347,626,619,303,617,617,183,0
1,1768494478880,-416,368,11050,145385,130725,-116064,0,0,0,257,301,224,349,190,362,631,631,313,631,631,213,0
1,1768494478896,-842,784,10524,43982,87964,-6108,0,0,0,256,309,250,350,200,381,632,632,318,635,635,226,0
1,1768494478912,-1115,1119,9959,35430,67195,4886,0,0,0,247,329,250,350,233,381,637,633,317,634,634,225,0
1,1768494478928,-1024,1100,10021,53756,12217,-3665,0,0,0,247,364,222,341,289,354,638,625,308,634,634,224,0
1,1768494478944,-942,1072,10088,75747,-36651,8552,0,0,0,251,369,204,352,306,355,627,615,301,627,626,218,0
1,1768494478960,-942,1105,10007,111177,-70860,26878,0,0,0,256,379,199,362,326,362,614,603,309,605,604,226,0
1,1768494478976,-981,1119,9911,151494,-90408,32986,0,0,0,261,380,206,366,326,355,589,582,307,574,574,225,0
1,1768494478992,-1014,1086,9853,186924,-102625,36651,0,0,0,269,397,197,384,346,347,579,577,303,559,559,222,0
1,1768494479008,-1048,1014,9830,193033,-96516,45204,0,0,0,267,400,199,380,347,373,578,555,337,558,558,253,0
1,1768494479024,-1067,957,9810,183259,-78190,54977,0,0,0,268,387,200,375,335,379,584,539,328,552,557,240,0
1,1768494479040,-1067,933,9806,172263,-53756,61086,0,0,0,264,388,198,371,334,381,590,538,344,551,557,251,0
1,1768494479056,-1038,928,9801,167377,-36651,65973,0,0,0,271,392,205,372,334,377,587,524,346,547,553,262,0
1,1768494479072,-985,904,9796,162490,-25656,67195,0,0,0,273,404,206,368,338,375,583,506,345,536,556,281,0
1,1768494479088,-957,885,9806,153938,-24434,62308,0,0,0,272,409,205,369,340,387,581,482,357,532,561,310,0
1,1768494479104,-971,885,9825,153938,-24434,57421,0,0,0,272,410,213,379,342,408,573,465,373,533,554,323,0
1,1768494479120,-1005,871,9863,169820,-20769,58643,0,0,0,270,430,223,387,355,421,564,472,382,515,543,321,0
1,1768494479136,-1038,832,9911,197920,-12217,70860,0,0,0,283,446,225,402,367,422,577,473,388,484,544,343,0
1,1768494479152,-1072,813,9930,238237,-2443,90408,0,0,0,284,451,233,410,385,446,592,445,394,463,536,367,0
1,1768494479168,-1124,794,9978,312763,12217,123394,0,0,0,295,448,249,426,420,458,588,425,397,461,509,412,0
1,1768494479184,-1182,751,10059,394618,31764,162490,0,0,0,320,486,285,456,379,490,617,405,387,435,455,438,0
1,1768494479200,-1325,693,10208,500909,59864,217468,0,0,0,331,519,259,475,391,514,617,353,411,436,420,486,0
1,1768494479216,-1536,646,10638,682947,117286,309097,0,0,0,373,532,267,477,390,551,625,321,426,439,394,522,0
1,1768494479232,-1852,521,11332,946841,193033,438601,0,0,0,392,533,239,500,405,580,639,319,438,441,383,556,0
1,1768494479248,-827,411,12730,1340238,207694,548556,0,0,0,378,537,201,532,428,583,608,301,448,410,390,564,0
1,1768494479264,282,287,13639,1896125,95294,373849,0,0,0,398,524,189,540,445,590,561,285,452,376,367,594,0
1,1768494479280,-258,157,14180,2460565,-39095,189368,0,0,0,433,510,191,534,460,600,525,280,454,355,357,615,0
1,1768494479296,-1359,105,15037,3101973,-125838,193033,0,0,0,448,501,198,521,476,597,483,285,455,323,333,621,0
1,1768494479312,-2072,110,16329,3791029,-133168,317649,0,0,0,451,500,207,507,494,576,440,284,456,299,298,625,0
1,1768494479328,-3067,402,18592,4679227,-23212,543670,0,0,0,465,502,206,501,497,550,401,263,456,300,285,597,0
1,1768494479344,-5159,612,20904,5627290,157603,897971,0,0,0,472,483,181,495,460,530,346,224,436,273,248,517,0
1,1768494479360,-7236,-19,23991,6732956,351858,1464854,0,0,0,438,444,138,468,425,501,322,188,394,248,203,454,0
1,1768494479376,-8049,-1426,26915,7703010,362853,1954768,0,0,0,389,414,148,433,386,472,287,154,360,223,155,401,0
1,1768494479392,-7145,-1392,28839,8399397,311541,2334726,0,0,0,340,398,167,375,290,424,252,162,336,199,139,380,0
1,1768494479408,-5675,-258,30389,8528900,731816,2568077,0,0,0,252,357,173,337,274,368,282,186,304,189,171,269,0
1,1768494479424,-8494,4039,28997,8065864,1726305,2707354,0,0,0,246,272,147,310,187,297,334,203,269,199,228,134,0
1,1768494479440,-12457,12055,22383,7512420,2267531,2891836,0,0,0,244,260,148,303,169,289,349,212,273,203,247,122,0
1,1768494479456,-13912,19272,13653,6461732,1718974,2806314,0,0,0,235,267,143,302,174,283,345,218,266,202,248,120,0
1,1768494479472,-11375,25206,9083,3258355,670730,1714087,0,0,0,230,273,143,299,179,284,347,226,262,201,249,116,0
1,1768494479488,-5321,23732,9576,-1545489,235793,-510683,0,0,0,225,269,141,298,180,281,351,230,263,203,261,112,0
1,1768494479504,-5398,13687,8446,-4433659,971275,-2471560,0,0,0,214,262,137,296,178,276,351,232,256,205,261,104,0
1,1768494479520,-10279,6575,5187,-4542393,904080,-2682920,0,0,0,208,262,140,293,176,275,345,236,249,205,258,99,0
1,1768494479536,-9806,5939,4560,-4032932,-392175,-1613905,0,0,0,208,268,147,294,179,273,332,242,246,206,271,101,0
1,1768494479552,-4833,6676,6724,-4417777,-1199739,-807563,0,0,0,198,268,151,287,183,274,327,246,241,205,282,98,0
1,1768494479568,-2976,6030,8781,-5187467,-972497,-786794,0,0,0,196,270,142,286,183,269,323,256,246,209,301,103,0
1,1768494479584,-3211,4517,10236,-5771454,-888198,-864985,0,0,0,192,269,142,282,187,264,326,260,246,209,302,103,0
1,1768494479600,-3536,3062,11390,-5969375,-1211956,-917519,0,0,0,187,269,154,279,187,294,322,260,263,209,303,111,0
1,1768494479616,-2665,2479,13204,-6084217,-1485624,-985936,0,0,0,181,272,143,276,187,273,335,264,249,208,296,102,0
1,1768494479632,-2306,2129,15424,-6280916,-1594358,-1097113,0,0,0,200,277,155,270,177,255,335,259,232,205,295,88,0
1,1768494479648,-2498,1636,18123,-6539923,-1716531,-1147204,0,0,0,194,270,144,277,178,267,341,268,244,206,303,93,0
1,1768494479664,-2311,928,20607,-6745173,-1877799,-1076344,0,0,0,177,272,145,273,181,273,343,274,251,204,309,96,0
1,1768494479680,-1670,-201,23431,-6900333,-2010968,-926071,0,0,0,175,271,148,275,182,274,344,265,248,232,291,108,0
1,1768494479696,-1689,-1258,26207,-6900333,-2003637,-946841,0,0,0,177,273,146,281,180,272,348,260,246,230,286,103,0
1,1768494479712,-2282,-2847,29777,-6907664,-2012190,-1205847,0,0,0,182,275,143,285,180,271,352,262,247,216,295,93,0
1,1768494479728,-2818,-7269,32452,-6991963,-2069611,-1621236,0,0,0,190,276,142,294,185,271,353,262,249,224,304,93,0
1,1768494479744,-3876,-17090,32782,-6889338,-2042733,-1826487,0,0,0,192,282,145,298,190,274,356,260,252,230,310,94,0
1,1768494479760,-4795,-29906,28245,-6210056,-1964542,-1307251,0,0,0,185,286,148,288,189,278,359,262,256,230,311,101,0
1,1768494479776,1675,-40397,20358,-4568050,-2029294,-230907,0,0,0,185,291,148,287,194,281,356,282,255,226,331,98,0
1,1768494479792,12792,-45589,14261,-2481334,-1588249,521678,0,0,0,189,288,147,293,186,282,360,260,258,249,309,101,0
1,1768494479808,16649,-46738,12510,-540004,-238237,599869,0,0,0,183,290,146,285,186,278,353,270,254,234,323,101,0
1,1768494479824,12644,-42330,14017,1137431,1010371,594982,0,0,0,199,243,124,272,162,229,425,437,216,362,424,78,0
1,1768494479840,4541,-18473,19100,2879618,2437352,509461,0,0,0,193,202,129,251,145,233,459,500,227,421,497,92,0
1,1768494479856,-2660,9231,16396,4664566,4052479,47647,0,0,0,199,199,137,257,138,254,518,534,236,456,535,93,0
1,1768494479872,-1387,8925,16286,6296798,3290120,-516791,0,0,0,201,197,130,276,145,266,551,555,234,515,562,90,0
1,1768494479888,3345,-2584,23053,6068335,1171639,-346971,0,0,0,199,231,132,295,167,278,571,572,258,558,574,97,0
1,1768494479904,1550,-4910,23723,4386012,459370,191811,0,0,0,207,256,139,326,170,294,592,592,294,581,584,107,0
1,1768494479920,-2388,-1028,15965,2196671,632856,89186,0,0,0,227,265,152,348,165,321,609,609,312,604,604,151,0
1,1768494479936,-2254,282,11012,974940,542448,-230907,0,0,0,236,286,176,349,183,360,621,620,325,624,624,222,0
1,1768494479952,-464,-291,10208,326202,184481,-254119,0,0,0,230,306,200,352,215,390,624,624,346,632,632,271,0
1,1768494479968,-823,-9,10557,168598,53756,-39095,0,0,0,238,327,206,362,251,399,620,620,350,629,628,292,0
1,1768494479984,-1359,440,10246,125838,39095,39095,0,0,0,249,328,201,368,222,419,622,617,361,628,628,306,0
1,1768494480000,-1454,598,9877,145385,47647,18325,0,0,0,267,340,216,371,242,408,623,593,344,628,628,321,0
1,1768494480016,-1229,497,9949,171042,19547,15882,0,0,0,283,347,225,383,261,418,629,594,365,615,615,327,0
1,1768494480032,-1124,454,10059,190589,-20769,32986,0,0,0,274,375,209,377,271,419,611,577,361,595,595,332,0
1,1768494480048,-1186,449,10021,206472,-65973,46425,0,0,0,279,363,218,379,260,436,603,563,377,574,577,342,0
1,1768494480064,-1234,406,9916,216246,-90408,50090,0,0,0,281,371,215,377,262,419,603,550,379,555,572,342,0
1,1768494480080,-1244,354,9839,207694,-92851,48869,0,0,0,283,366,213,373,257,409,602,534,388,533,568,339,0
1,1768494480096,-1244,330,9830,183259,-83077,50090,0,0,0,284,372,214,378,255,411,598,532,392,516,561,342,0
1,1768494480112,-1282,335,9830,160046,-67195,57421,0,0,0,283,373,211,385,253,416,595,524,389,512,553,343,0
1,1768494480128,-1296,349,9820,160046,-40317,67195,0,0,0,280,370,204,388,255,418,589,508,383,512,539,345,0
1,1768494480144,-1249,335,9815,174707,-14660,74525,0,0,0,278,379,202,392,264,418,584,497,378,504,524,354,0
1,1768494480160,-1182,291,9825,189368,0,73303,0,0,0,282,384,204,396,265,425,589,478,378,504,522,355,0
1,1768494480176,-1172,268,9853,193033,2443,64751,0,0,0,287,389,210,393,271,440,581,470,385,521,527,366,0
1,1768494480192,-1182,239,9873,196698,3665,62308,0,0,0,292,404,212,397,278,438,578,457,389,525,505,382,0
1,1768494480208,-1191,191,9887,202807,3665,67195,0,0,0,283,423,236,395,300,456,578,438,411,499,495,430,0
1,1768494480224,-1201,148,9892,212581,0,78190,0,0,0,295,420,205,429,307,459,585,417,398,497,485,421,0
1,1768494480240,-1229,143,9911,235793,0,96516,0,0,0,296,441,197,455,321,473,595,408,394,472,476,445,0
1,1768494480256,-1306,167,9997,305432,10995,125838,0,0,0,314,462,201,472,346,491,593,386,408,465,454,486,0
1,1768494480272,-1407,167,10169,416610,35430,164933,0,0,0,329,483,219,480,387,500,603,347,417,445,419,516,0
1,1768494480288,-1512,148,10528,592539,87964,224798,0,0,0,330,498,201,474,433,513,607,325,430,415,410,550,0
1,1768494480304,-1708,43,11040,885754,183259,315206,0,0,0,347,504,182,491,447,534,598,305,437,408,391,578,0
1,1768494480320,-1765,-234,11950,1295034,235793,439822,0,0,0,375,512,172,517,466,554,581,293,424,402,372,601,0
1,1768494480336,-641,-387,13452,1788613,1221,469144,0,0,0,393,521,167,534,485,566,552,288,429,381,355,620,0
1,1768494480352,-325,-425,14457,2320066,-224798,350636,0,0,0,411,527,177,545,483,574,521,279,455,360,338,632,0
1,1768494480368,-1426,-392,15171,2979800,-232128,295658,0,0,0,431,528,191,544,486,575,494,278,458,340,336,638,0
1,1768494480384,-2148,-425,16123,3676187,-204028,393397,0,0,0,430,510,187,528,511,553,447,270,466,323,320,637,0
1,1768494480400,-2517,-224,18425,4570493,-266337,570548,0,0,0,445,482,186,503,522,556,390,231,476,290,273,630,0
1,1768494480416,-4201,105,21239,5666385,-315206,838107,0,0,0,457,450,182,510,513,556,367,216,472,258,249,550,0
1,1768494480432,-6460,-248,24407,6935763,-291993,1315803,0,0,0,450,429,158,477,409,498,338,178,440,247,207,454,0
1,1768494480448,-7652,-2364,27456,7997447,-337197,1720196,0,0,0,397,418,160,426,353,495,282,143,389,205,162,406,0
1,1768494480464,-6542,-3469,30595,8567995,-546113,1976759,0,0,0,315,406,177,368,321,451,244,173,356,173,186,378,0
1,1768494480480,-3977,-1162,32591,8411614,91629,2139250,0,0,0,256,336,169,331,243,365,284,187,315,179,192,250,0
1,1768494480496,-8533,6068,29413,7964460,1412320,2296853,0,0,0,248,279,157,309,182,307,330,186,289,178,202,152,0
1,1768494480512,-13175,15008,21564,7531968,1714087,2542421,0,0,0,251,265,150,307,167,293,350,187,279,174,213,123,0
1,1768494480528,-12715,20669,13237,6150191,995710,2619390,0,0,0,247,267,148,311,168,287,353,190,270,179,218,115,0
1,1768494480544,-8241,24168,9404,2675589,378736,1919338,0,0,0,244,270,145,309,168,277,351,192,261,189,224,111,0
1,1768494480560,-3153,20775,9873,-1997529,800233,239459,0,0,0,238,269,140,306,170,271,348,193,259,196,228,113,0
1,1768494480576,-3058,14209,9112,-4687779,1568701,-1027475,0,0,0,227,266,140,297,173,271,348,196,262,191,229,111,0
1,1768494480592,-8126,6877,6250,-5265658,1769065,-1401324,0,0,0,216,266,145,290,174,272,343,207,252,197,247,110,0
1,1768494480608,-9270,5154,5278,-4857600,582765,-755029,0,0,0,202,266,159,281,174,280,325,219,251,189,263,108,0
1,1768494480624,-6250,4962,6523,-4976108,-362853,-300545,0,0,0,204,270,150,283,175,267,315,231,243,191,276,97,0
1,1768494480640,-3843,4508,8671,-5560095,-395840,-432492,0,0,0,201,268,154,282,170,264,312,223,242,194,270,97,0
1,1768494480656,-4091,3378,10251,-6039013,-345749,-761138,0,0,0,191,275,145,275,184,254,316,240,235,198,279,95,0
1,1768494480672,-5355,2077,11428,-6239377,-627969,-1067792,0,0,0,186,271,144,276,178,257,305,235,235,197,285,97,0
1,1768494480688,-5451,1344,12931,-6255260,-1012814,-1242499,0,0,0,184,270,145,275,177,257,307,243,238,195,289,98,0
1,1768494480704,-5446,890,14917,-6322455,-1287703,-1364672,0,0,0,180,275,147,269,178,258,311,239,237,204,292,98,0
1,1768494480720,-5647,253,17492,-6520375,-1494176,-1319468,0,0,0,186,282,148,274,186,258,315,239,238,206,289,95,0
1,1768494480736,-5594,-775,20363,-6720739,-1736079,-1128878,0,0,0,187,282,152,274,187,261,312,239,240,198,288,94,0
1,1768494480752,-5116,-2029,23527,-6838025,-1990198,-866206,0,0,0,178,279,154,266,183,266,308,237,242,194,289,95,0
1,1768494480768,-4733,-2900,26451,-6868568,-2166128,-852767,0,0,0,174,281,149,270,186,269,312,238,244,195,284,97,0
1,1768494480784,-3924,-4575,29346,-6875899,-2362826,-1086118,0,0,0,178,282,148,276,190,271,321,238,249,196,284,97,0
