sole_id,timestamp,accel_x,accel_y,accel_z,gyro_x,gyro_y,gyro_z,magn_x,magn_y,magn_z,pressure_01,pressure_02,pressure_03,pressure_04,pressure_05,pressure_06,pressure_07,pressure_08,pressure_09,pressure_10,pressure_11,pressure_12,corrupt
2,1768494463136,1005,574,9944,23212,-57421,-17104,0,0,0,428,558,234,487,437,492,575,461,416,440,395,471,0
2,1768494463152,995,579,9949,21991,-56199,-18325,0,0,0,426,556,232,488,438,494,575,461,415,439,395,470,0
2,1768494463168,995,569,9954,20769,-56199,-18325,0,0,0,426,558,232,487,438,492,574,462,415,443,397,473,0
2,1768494463184,995,569,9959,20769,-57421,-17104,0,0,0,422,554,229,486,438,493,573,461,415,443,398,470,0
2,1768494463200,995,569,9959,20769,-56199,-15882,0,0,0,427,558,234,487,438,494,570,457,411,441,396,469,0
2,1768494463216,1000,564,9959,20769,-56199,-15882,0,0,0,425,556,232,485,435,493,570,457,411,441,394,470,0
2,1768494463232,1000,564,9954,20769,-56199,-17104,0,0,0,424,555,232,485,435,493,575,465,415,442,398,472,0
2,1768494463248,1000,564,9959,19547,-56199,-17104,0,0,0,421,552,227,489,439,495,574,462,416,443,399,473,0
2,1768494463264,995,569,9968,19547,-56199,-18325,0,0,0,421,552,227,488,436,493,572,460,412,440,398,470,0
2,1768494463280,995,574,9973,20769,-56199,-18325,0,0,0,421,553,230,485,433,489,570,458,409,445,401,473,0
2,1768494463296,995,569,9973,21991,-56199,-17104,0,0,0,423,555,232,486,434,491,575,463,415,445,400,473,0
2,1768494463312,995,569,9968,23212,-56199,-17104,0,0,0,425,558,235,486,435,491,573,461,414,441,395,470,0
2,1768494463328,995,569,9964,23212,-57421,-17104,0,0,0,424,557,235,486,436,491,573,461,414,439,394,468,0
2,1768494463344,990,574,9964,21991,-56199,-18325,0,0,0,424,556,234,487,437,492,576,464,417,441,396,471,0
2,1768494463360,990,569,9968,21991,-56199,-17104,0,0,0,425,557,234,489,438,494,574,461,415,464,400,466,0
2,1768494463376,990,564,9968,21991,-56199,-15882,0,0,0,423,555,231,491,439,496,571,460,413,492,404,457,0
2,1768494463392,995,559,9973,23212,-57421,-15882,0,0,0,424,555,232,486,436,491,575,463,415,443,396,471,0
2,1768494463408,990,559,9968,24434,-57421,-17104,0,0,0,423,554,227,484,435,490,575,462,414,438,392,467,0
2,1768494463424,990,559,9968,25656,-56199,-17104,0,0,0,426,559,234,484,434,491,575,462,414,441,395,471,0
2,1768494463440,995,555,9968,24434,-56199,-17104,0,0,0,424,557,232,490,439,495,576,461,415,441,395,471,0
2,1768494463456,995,555,9973,24434,-57421,-17104,0,0,0,428,559,239,486,434,491,575,461,415,440,393,469,0
2,1768494463472,995,559,9978,24434,-57421,-17104,0,0,0,427,559,236,484,436,488,575,461,415,442,396,471,0
2,1768494463488,990,564,9978,24434,-57421,-17104,0,0,0,427,558,234,488,438,493,576,463,418,443,397,471,0
2,1768494463504,990,559,9973,25656,-57421,-17104,0,0,0,426,558,234,487,438,493,577,464,419,442,396,471,0
2,1768494463520,995,555,9968,25656,-57421,-17104,0,0,0,426,558,236,488,439,494,575,463,416,441,397,471,0
2,1768494463536,1000,555,9964,26878,-57421,-17104,0,0,0,424,556,234,491,439,496,577,464,417,441,397,470,0
2,1768494463552,1000,559,9968,26878,-57421,-17104,0,0,0,424,555,232,489,437,493,579,465,419,441,397,470,0
2,1768494463568,995,559,9978,26878,-57421,-17104,0,0,0,426,557,234,487,436,491,578,464,418,443,397,470,0
2,1768494463584,1000,559,9973,25656,-56199,-17104,0,0,0,426,558,233,487,436,493,577,464,417,442,397,471,0
2,1768494463600,1005,559,9968,24434,-56199,-17104,0,0,0,425,557,234,487,435,492,576,463,416,440,395,469,0
2,1768494463616,1000,555,9968,21991,-56199,-17104,0,0,0,430,562,239,487,434,492,576,463,416,444,399,472,0
2,1768494463632,1000,555,9978,19547,-57421,-17104,0,0,0,430,561,238,489,439,495,581,467,421,442,396,470,0
2,1768494463648,1000,555,9983,18325,-57421,-17104,0,0,0,423,555,231,488,435,493,578,466,418,442,396,469,0
2,1768494463664,990,559,9983,17104,-56199,-17104,0,0,0,425,557,234,488,437,492,578,465,417,442,396,469,0
2,1768494463680,990,559,9983,17104,-56199,-15882,0,0,0,424,556,234,486,434,492,578,465,419,442,396,469,0
2,1768494463696,1000,559,9992,18325,-56199,-15882,0,0,0,423,556,234,488,438,495,579,466,420,442,396,470,0
2,1768494463712,1000,559,9992,18325,-56199,-15882,0,0,0,425,557,236,493,443,499,576,462,417,443,397,470,0
2,1768494463728,1000,564,9983,19547,-56199,-15882,0,0,0,425,558,238,491,439,495,578,464,420,444,398,470,0
2,1768494463744,995,564,9968,19547,-57421,-15882,0,0,0,425,558,236,485,433,489,568,462,420,442,396,469,0
2,1768494463760,995,564,9968,18325,-57421,-15882,0,0,0,426,558,234,487,436,492,567,462,419,442,397,469,0
2,1768494463776,995,559,9978,18325,-57421,-15882,0,0,0,428,560,235,489,437,493,578,466,419,442,397,469,0
2,1768494463792,995,555,9983,18325,-57421,-15882,0,0,0,430,562,237,486,433,490,578,466,420,440,395,469,0
2,1768494463808,995,555,9973,19547,-56199,-17104,0,0,0,428,560,234,490,439,494,576,465,418,452,399,470,0
2,1768494463824,995,564,9973,19547,-56199,-15882,0,0,0,427,561,234,488,435,492,573,462,412,471,402,465,0
2,1768494463840,995,569,9983,20769,-57421,-15882,0,0,0,427,561,235,485,433,490,574,463,414,441,398,471,0
2,1768494463856,1000,569,9997,25656,-58643,-17104,0,0,0,427,560,234,485,433,490,572,459,410,441,398,471,0
2,1768494463872,985,559,9992,29321,-57421,-17104,0,0,0,426,559,234,490,439,493,572,460,411,442,398,471,0
2,1768494463888,985,559,9987,30543,-57421,-18325,0,0,0,426,559,236,487,435,493,575,463,414,440,395,469,0
2,1768494463904,995,555,9983,31764,-57421,-18325,0,0,0,426,559,233,489,435,494,579,469,415,417,369,476,0
2,1768494463920,990,555,9983,30543,-57421,-18325,0,0,0,428,559,235,488,436,493,580,468,417,420,372,476,0
2,1768494463936,990,559,9992,30543,-57421,-18325,0,0,0,429,560,236,490,440,495,582,471,418,403,355,473,0
2,1768494463952,995,559,9997,31764,-57421,-18325,0,0,0,425,557,232,488,438,493,578,467,415,410,362,474,0
2,1768494463968,995,555,9997,32986,-57421,-18325,0,0,0,426,558,233,491,441,497,581,471,417,391,342,479,0
2,1768494463984,1000,550,9992,34208,-57421,-18325,0,0,0,428,559,235,493,441,498,582,471,418,387,338,479,0
2,1768494464000,995,550,9987,32986,-57421,-18325,0,0,0,427,558,234,488,436,493,580,467,418,409,359,476,0
2,1768494464016,995,550,9987,29321,-57421,-18325,0,0,0,426,558,235,485,433,490,581,467,420,408,358,477,0
2,1768494464032,995,545,9978,25656,-57421,-18325,0,0,0,427,559,235,486,435,491,577,462,414,404,355,473,0
2,1768494464048,990,540,9978,24434,-58643,-17104,0,0,0,427,559,233,489,438,495,573,457,411,401,350,476,0
2,1768494464064,985,540,9978,23212,-58643,-17104,0,0,0,430,561,233,491,442,497,577,462,413,362,309,485,0
2,1768494464080,995,545,9987,23212,-58643,-17104,0,0,0,432,563,238,489,439,493,582,463,420,370,319,485,0
2,1768494464096,1000,550,9992,24434,-58643,-17104,0,0,0,431,563,237,489,438,493,583,463,418,371,316,488,0
2,1768494464112,995,545,9997,28099,-58643,-18325,0,0,0,428,559,233,489,440,494,583,467,418,369,317,487,0
2,1768494464128,995,536,9992,30543,-58643,-18325,0,0,0,429,562,236,489,439,494,576,453,417,426,377,477,0
2,1768494464144,995,536,9992,32986,-58643,-18325,0,0,0,432,563,240,491,440,495,582,458,420,390,339,484,0
2,1768494464160,995,531,9997,35430,-58643,-18325,0,0,0,433,561,237,493,442,496,583,463,421,395,322,487,0
2,1768494464176,990,531,10002,35430,-58643,-18325,0,0,0,433,562,237,492,441,495,580,459,418,388,320,489,0
2,1768494464192,990,531,9992,32986,-58643,-17104,0,0,0,433,563,238,490,439,494,580,458,417,363,311,490,0
2,1768494464208,995,526,9987,30543,-58643,-17104,0,0,0,432,562,235,491,440,494,584,462,421,359,307,489,0
2,1768494464224,990,526,9987,28099,-58643,-17104,0,0,0,429,559,233,493,443,497,585,463,423,359,307,491,0
2,1768494464240,990,526,9987,24434,-58643,-17104,0,0,0,428,559,233,494,444,498,583,461,420,358,307,492,0
2,1768494464256,995,531,9987,21991,-58643,-17104,0,0,0,434,564,240,491,440,496,580,458,418,359,306,494,0
2,1768494464272,1005,536,9997,21991,-58643,-17104,0,0,0,429,559,231,486,434,491,584,462,422,353,300,489,0
2,1768494464288,1000,526,9997,23212,-58643,-17104,0,0,0,428,560,234,491,439,494,584,463,421,353,300,490,0
2,1768494464304,995,526,9987,25656,-58643,-15882,0,0,0,430,561,234,493,442,496,583,462,420,356,304,490,0
2,1768494464320,995,526,9983,26878,-58643,-17104,0,0,0,432,562,237,494,443,498,584,463,423,357,306,491,0
2,1768494464336,995,526,9983,25656,-58643,-17104,0,0,0,432,561,234,490,439,493,584,463,423,357,306,491,0
2,1768494464352,1000,526,9987,25656,-58643,-17104,0,0,0,435,562,235,491,439,494,582,461,420,357,304,491,0
2,1768494464368,995,526,9992,25656,-58643,-17104,0,0,0,437,563,236,493,440,495,582,461,420,361,307,492,0
2,1768494464384,985,526,9997,26878,-58643,-18325,0,0,0,434,560,233,494,440,495,583,462,420,380,311,490,0
2,1768494464400,985,526,10002,25656,-58643,-19547,0,0,0,432,559,231,497,443,498,583,462,419,377,310,491,0
2,1768494464416,990,526,9997,25656,-57421,-18325,0,0,0,434,559,231,496,442,497,582,461,418,357,305,493,0
2,1768494464432,995,521,9987,24434,-57421,-17104,0,0,0,435,561,233,491,437,493,583,462,420,354,300,490,0
2,1768494464448,995,521,9992,23212,-57421,-17104,0,0,0,438,562,237,494,442,497,585,464,423,352,301,488,0
2,1768494464464,995,526,9997,23212,-57421,-17104,0,0,0,437,563,236,494,441,495,582,462,420,352,303,490,0
2,1768494464480,1005,531,9997,26878,-58643,-18325,0,0,0,437,561,233,495,441,495,583,460,421,353,298,488,0
2,1768494464496,1000,521,9987,28099,-57421,-17104,0,0,0,438,563,237,496,442,496,579,457,418,361,308,494,0
2,1768494464512,995,512,9978,28099,-57421,-17104,0,0,0,438,563,234,493,439,493,584,461,421,361,306,494,0
2,1768494464528,990,516,9983,25656,-57421,-18325,0,0,0,437,562,233,493,439,494,582,459,420,359,305,492,0
2,1768494464544,990,526,9997,23212,-57421,-18325,0,0,0,439,563,236,496,444,498,582,459,420,358,301,492,0
2,1768494464560,995,526,10002,23212,-57421,-17104,0,0,0,437,561,234,493,439,494,582,460,417,358,303,494,0
2,1768494464576,981,516,9997,23212,-57421,-15882,0,0,0,435,562,233,489,436,491,582,461,418,356,302,492,0
2,1768494464592,981,512,9997,23212,-57421,-15882,0,0,0,435,563,235,490,437,492,584,463,421,353,299,488,0
2,1768494464608,1000,512,9997,21991,-58643,-15882,0,0,0,435,563,238,492,438,494,586,465,424,355,301,489,0
2,1768494464624,990,512,9997,21991,-58643,-15882,0,0,0,435,562,236,492,438,494,586,464,424,359,305,492,0
2,1768494464640,990,516,9997,21991,-58643,-15882,0,0,0,435,562,236,490,436,492,583,461,420,360,306,493,0
2,1768494464656,990,516,10002,21991,-58643,-15882,0,0,0,436,562,237,491,437,492,570,455,421,359,304,490,0
2,1768494464672,995,512,10002,23212,-58643,-17104,0,0,0,433,560,234,491,437,492,547,448,424,353,300,487,0
2,1768494464688,995,512,9992,23212,-57421,-17104,0,0,0,433,560,237,494,441,496,585,463,422,349,296,485,0
2,1768494464704,990,512,9992,21991,-57421,-17104,0,0,0,434,562,238,495,441,497,588,467,425,359,304,491,0
2,1768494464720,985,512,9992,19547,-57421,-15882,0,0,0,435,563,238,493,441,496,580,461,422,359,302,490,0
2,1768494464736,990,516,9992,18325,-58643,-14660,0,0,0,435,563,240,492,439,494,585,463,424,358,303,488,0
2,1768494464752,990,512,9992,18325,-58643,-14660,0,0,0,433,560,234,496,442,498,586,464,424,358,304,489,0
2,1768494464768,981,512,9992,18325,-57421,-15882,0,0,0,435,562,235,493,439,497,584,464,422,362,308,490,0
2,1768494464784,981,516,9997,17104,-57421,-17104,0,0,0,435,561,235,484,477,480,586,466,423,364,309,493,0
2,1768494464800,981,521,10002,17104,-57421,-17104,0,0,0,432,559,233,488,462,488,583,463,420,361,307,492,0
2,1768494464816,995,526,10002,19547,-57421,-15882,0,0,0,434,561,235,495,442,498,583,464,420,362,308,492,0
2,1768494464832,995,526,10002,20769,-57421,-15882,0,0,0,435,561,234,491,439,495,585,465,421,366,311,492,0
2,1768494464848,985,526,10002,23212,-57421,-17104,0,0,0,434,562,235,488,436,491,585,464,421,365,310,491,0
2,1768494464864,981,521,10002,25656,-57421,-18325,0,0,0,438,564,241,491,437,493,586,466,423,361,309,490,0
2,1768494464880,981,516,10002,26878,-57421,-17104,0,0,0,437,562,237,493,440,495,588,468,427,361,308,489,0
2,1768494464896,985,516,10002,26878,-57421,-17104,0,0,0,437,563,239,491,439,493,584,464,425,369,309,488,0
2,1768494464912,990,516,9997,29321,-57421,-18325,0,0,0,436,561,237,492,440,498,586,465,424,401,321,485,0
2,1768494464928,985,516,9997,30543,-58643,-17104,0,0,0,437,564,240,494,443,499,580,457,419,369,315,494,0
2,1768494464944,981,516,10007,32986,-58643,-17104,0,0,0,439,565,242,498,447,504,581,460,422,366,312,496,0
2,1768494464960,981,516,9997,32986,-58643,-17104,0,0,0,439,565,240,493,443,500,579,457,422,364,310,492,0
2,1768494464976,990,512,9992,31764,-58643,-17104,0,0,0,437,564,238,495,443,501,582,458,423,364,313,492,0
2,1768494464992,995,512,9992,31764,-58643,-18325,0,0,0,433,560,235,491,440,497,580,457,422,365,314,494,0
2,1768494465008,995,512,9997,31764,-58643,-19547,0,0,0,436,560,234,495,441,498,580,456,422,365,311,493,0
2,1768494465024,985,502,10002,32986,-58643,-19547,0,0,0,438,561,235,494,440,497,581,456,424,368,312,493,0
2,1768494465040,981,497,10002,31764,-58643,-18325,0,0,0,440,562,238,496,442,499,581,457,425,369,313,492,0
2,1768494465056,981,497,9992,29321,-58643,-18325,0,0,0,440,563,239,496,443,499,580,456,423,366,311,491,0
2,1768494465072,990,497,9992,26878,-57421,-18325,0,0,0,437,561,239,494,441,497,580,455,421,365,310,492,0
2,1768494465088,990,497,9992,25656,-57421,-17104,0,0,0,437,560,241,495,440,500,580,454,423,365,310,493,0
2,1768494465104,985,502,9992,25656,-57421,-15882,0,0,0,439,562,240,495,439,500,579,453,425,365,309,492,0
2,1768494465120,990,502,9992,24434,-57421,-15882,0,0,0,437,561,237,496,440,501,578,454,422,369,313,494,0
2,1768494465136,995,507,10002,24434,-57421,-17104,0,0,0,438,562,239,491,434,495,580,454,422,364,307,492,0
2,1768494465152,1000,502,10007,24434,-56199,-18325,0,0,0,437,561,237,490,433,496,580,454,423,361,307,491,0
2,1768494465168,985,497,10002,24434,-56199,-18325,0,0,0,437,561,239,489,433,495,578,452,421,363,310,493,0
2,1768494465184,985,492,10002,24434,-56199,-18325,0,0,0,440,563,240,496,440,501,580,455,423,366,309,494,0
2,1768494465200,990,492,10002,25656,-56199,-17104,0,0,0,442,564,240,495,437,500,581,456,425,367,312,495,0
2,1768494465216,995,497,10007,26878,-56199,-17104,0,0,0,441,562,239,494,437,498,580,456,423,369,313,497,0
2,1768494465232,990,492,10002,26878,-57421,-17104,0,0,0,440,561,235,494,439,497,576,451,419,368,311,497,0
2,1768494465248,990,488,10002,26878,-57421,-17104,0,0,0,440,561,236,494,439,497,579,454,422,364,306,495,0
2,1768494465264,990,492,10002,29321,-58643,-18325,0,0,0,440,561,238,495,439,499,581,456,426,358,301,492,0
2,1768494465280,990,492,10007,30543,-58643,-17104,0,0,0,441,562,238,497,440,501,581,455,426,358,301,492,0
2,1768494465296,981,488,10002,31764,-58643,-15882,0,0,0,443,562,238,490,468,485,582,455,427,364,304,496,0
2,1768494465312,981,488,9997,29321,-58643,-17104,0,0,0,445,563,238,481,495,468,582,453,425,363,305,497,0
2,1768494465328,985,488,9997,29321,-58643,-17104,0,0,0,440,560,235,489,433,493,579,449,423,361,303,495,0
2,1768494465344,990,483,10002,30543,-58643,-17104,0,0,0,440,559,234,490,433,495,579,448,423,359,302,493,0
2,1768494465360,995,478,10007,31764,-59864,-17104,0,0,0,445,562,237,492,436,496,579,447,425,354,296,490,0
2,1768494465376,990,478,10007,31764,-58643,-17104,0,0,0,445,563,243,491,435,497,579,446,425,360,300,496,0
2,1768494465392,981,483,9997,31764,-57421,-18325,0,0,0,445,563,241,491,435,497,583,451,429,359,300,497,0
2,1768494465408,981,483,9992,32986,-57421,-18325,0,0,0,444,560,235,485,431,492,576,445,424,362,301,498,0
2,1768494465424,985,478,9992,32986,-58643,-18325,0,0,0,444,561,238,488,431,494,580,445,424,467,336,479,0
2,1768494465440,990,483,9997,31764,-58643,-18325,0,0,0,443,560,241,494,437,501,577,445,426,386,304,494,0
2,1768494465456,981,473,9997,28099,-58643,-17104,0,0,0,447,562,245,499,444,507,576,445,426,360,297,507,0
2,1768494465472,985,464,9997,26878,-57421,-15882,0,0,0,447,562,243,494,440,503,577,445,426,359,298,505,0
2,1768494465488,990,464,10002,26878,-57421,-15882,0,0,0,445,561,240,493,437,501,578,448,425,354,291,500,0
2,1768494465504,990,469,10011,26878,-58643,-17104,0,0,0,444,560,238,493,437,500,577,446,422,354,292,499,0
2,1768494465520,985,464,10021,26878,-58643,-18325,0,0,0,444,560,239,494,437,501,577,444,422,360,299,501,0
2,1768494465536,985,459,10011,26878,-57421,-17104,0,0,0,447,562,242,497,440,504,578,446,425,360,300,499,0
2,1768494465552,985,459,9997,25656,-57421,-15882,0,0,0,449,564,244,494,437,500,576,443,423,355,296,497,0
2,1768494465568,985,469,9997,23212,-58643,-15882,0,0,0,448,563,243,498,441,503,576,443,423,359,295,500,0
2,1768494465584,985,469,9997,20769,-58643,-14660,0,0,0,445,561,241,498,440,503,578,446,424,356,295,499,0
2,1768494465600,990,469,10002,19547,-58643,-15882,0,0,0,446,563,242,498,439,503,578,446,424,356,295,501,0
2,1768494465616,985,464,10002,18325,-57421,-15882,0,0,0,443,559,238,493,436,499,576,444,422,361,299,503,0
2,1768494465632,981,464,10002,15882,-57421,-15882,0,0,0,449,565,244,495,438,500,583,450,427,363,302,503,0
2,1768494465648,981,469,10007,14660,-56199,-14660,0,0,0,448,563,240,491,434,496,578,446,423,357,300,498,0
2,1768494465664,981,469,10007,14660,-56199,-14660,0,0,0,449,564,244,491,434,498,580,446,425,361,301,501,0
2,1768494465680,985,478,10007,15882,-56199,-14660,0,0,0,450,565,246,495,438,501,578,446,424,359,298,499,0
2,1768494465696,990,488,10007,19547,-57421,-17104,0,0,0,449,564,243,495,439,501,575,443,420,361,300,502,0
2,1768494465712,981,478,10007,19547,-57421,-17104,0,0,0,447,563,242,495,439,503,536,431,425,358,298,501,0
2,1768494465728,976,469,10011,20769,-56199,-17104,0,0,0,448,564,243,497,440,503,541,433,423,356,296,499,0
2,1768494465744,976,469,10007,20769,-56199,-17104,0,0,0,450,565,243,495,437,500,575,442,420,358,297,499,0
2,1768494465760,981,469,10002,19547,-57421,-17104,0,0,0,449,564,242,493,435,498,578,444,423,360,299,499,0
2,1768494465776,985,473,9997,18325,-57421,-17104,0,0,0,447,562,240,495,437,500,578,445,423,361,302,502,0
2,1768494465792,985,473,10002,18325,-57421,-15882,0,0,0,445,562,238,492,435,497,578,447,424,364,304,503,0
2,1768494465808,985,473,10016,19547,-57421,-14660,0,0,0,450,565,245,494,435,501,577,445,421,362,302,499,0
2,1768494465824,976,469,10016,19547,-57421,-14660,0,0,0,447,563,245,495,437,502,577,444,421,363,301,499,0
2,1768494465840,971,469,10011,19547,-57421,-14660,0,0,0,446,562,240,499,440,505,581,450,427,367,306,501,0
2,1768494465856,976,469,9992,17104,-56199,-15882,0,0,0,451,567,247,496,439,502,581,448,426,362,303,497,0
2,1768494465872,981,469,9992,15882,-56199,-14660,0,0,0,446,562,239,499,443,506,582,450,427,364,303,499,0
2,1768494465888,981,469,10002,15882,-56199,-14660,0,0,0,443,560,240,497,440,504,578,445,422,364,305,498,0
2,1768494465904,971,469,10007,15882,-57421,-14660,0,0,0,445,562,241,496,440,503,576,443,419,362,304,499,0
2,1768494465920,976,473,10002,17104,-56199,-14660,0,0,0,443,561,237,494,437,501,575,443,419,363,304,501,0
2,1768494465936,990,473,9997,19547,-56199,-15882,0,0,0,444,562,238,491,460,493,577,445,423,362,302,499,0
2,1768494465952,990,473,9992,18325,-56199,-15882,0,0,0,446,564,242,492,463,495,579,447,426,361,302,499,0
2,1768494465968,990,473,9992,17104,-56199,-14660,0,0,0,443,563,239,496,439,504,579,448,426,361,302,499,0
2,1768494465984,981,473,9997,15882,-56199,-14660,0,0,0,440,559,235,495,440,503,578,448,424,361,302,498,0
2,1768494466000,971,478,10002,15882,-56199,-14660,0,0,0,445,562,240,498,442,505,579,448,425,365,309,502,0
2,1768494466016,971,483,10002,15882,-57421,-14660,0,0,0,447,565,243,491,434,498,581,450,428,361,302,500,0
2,1768494466032,976,478,9997,15882,-57421,-14660,0,0,0,445,562,239,496,438,504,580,450,426,358,300,498,0
2,1768494466048,976,478,9997,17104,-57421,-15882,0,0,0,445,562,244,492,436,501,579,449,425,361,305,500,0
2,1768494466064,976,488,10007,20769,-57421,-15882,0,0,0,440,559,236,495,437,505,572,446,425,356,299,495,0
2,1768494466080,981,488,10002,20769,-57421,-15882,0,0,0,446,562,242,496,438,503,578,449,425,362,304,498,0
2,1768494466096,990,483,10002,21991,-57421,-15882,0,0,0,444,562,242,497,441,506,577,447,423,363,305,499,0
2,1768494466112,990,483,10011,24434,-57421,-15882,0,0,0,447,564,245,496,438,503,580,450,426,361,303,499,0
2,1768494466128,981,483,10007,24434,-57421,-15882,0,0,0,443,560,241,498,440,506,579,448,427,363,305,499,0
2,1768494466144,976,478,9997,24434,-57421,-15882,0,0,0,445,561,241,497,438,505,577,446,424,364,304,500,0
2,1768494466160,976,473,9997,23212,-57421,-15882,0,0,0,446,563,244,494,435,502,581,451,429,363,302,500,0
2,1768494466176,976,478,10007,23212,-57421,-17104,0,0,0,446,563,246,494,436,503,583,453,431,363,302,499,0
2,1768494466192,981,483,10011,23212,-57421,-17104,0,0,0,446,563,244,497,439,507,581,450,428,363,305,498,0
2,1768494466208,985,488,10002,23212,-57421,-17104,0,0,0,443,561,239,497,441,507,579,449,427,365,307,499,0
2,1768494466224,976,483,9992,23212,-57421,-17104,0,0,0,444,561,240,492,437,501,577,449,425,366,308,499,0
2,1768494466240,976,478,9992,23212,-57421,-17104,0,0,0,447,562,243,489,433,499,577,449,425,365,308,501,0
2,1768494466256,985,473,9997,21991,-57421,-17104,0,0,0,443,559,239,496,439,506,579,448,426,365,307,500,0
2,1768494466272,990,473,10007,21991,-57421,-17104,0,0,0,448,565,246,494,438,503,578,448,426,365,306,498,0
2,1768494466288,976,478,10002,21991,-57421,-17104,0,0,0,445,563,242,496,440,504,575,446,424,363,303,497,0
2,1768494466304,976,492,10007,21991,-57421,-17104,0,0,0,445,563,242,496,440,504,579,449,427,363,304,497,0
2,1768494466320,981,492,10011,24434,-57421,-15882,0,0,0,442,559,239,499,442,507,576,448,423,364,306,498,0
2,1768494466336,976,483,10011,24434,-57421,-15882,0,0,0,446,562,243,495,438,503,575,446,424,360,301,495,0
2,1768494466352,971,478,10007,25656,-57421,-15882,0,0,0,445,561,241,493,437,502,574,444,422,360,303,497,0
2,1768494466368,976,473,9997,26878,-57421,-17104,0,0,0,447,563,242,495,437,503,577,447,425,362,305,498,0
2,1768494466384,981,473,9992,25656,-57421,-17104,0,0,0,448,564,244,496,438,505,578,448,427,363,305,498,0
2,1768494466400,985,473,9987,20769,-57421,-17104,0,0,0,446,563,244,494,437,505,578,448,426,363,304,499,0
2,1768494466416,985,478,9987,18325,-57421,-17104,0,0,0,446,563,243,493,436,503,578,449,426,364,305,500,0
2,1768494466432,981,483,9992,17104,-57421,-15882,0,0,0,446,563,243,495,438,504,577,447,424,363,305,499,0
2,1768494466448,971,488,9997,17104,-57421,-15882,0,0,0,445,562,243,496,440,506,579,450,426,362,304,498,0
2,1768494466464,976,478,10002,17104,-56199,-15882,0,0,0,444,561,240,496,438,505,578,450,426,361,304,494,0
2,1768494466480,985,478,9997,15882,-56199,-15882,0,0,0,449,565,246,496,440,505,577,448,424,363,306,496,0
2,1768494466496,985,483,9997,14660,-56199,-15882,0,0,0,449,565,248,500,445,508,579,450,427,364,305,496,0
2,1768494466512,981,492,10002,13439,-56199,-15882,0,0,0,446,563,244,495,439,504,581,453,429,366,307,500,0
2,1768494466528,985,497,10007,14660,-56199,-15882,0,0,0,449,566,246,492,489,488,581,451,428,366,308,499,0
2,1768494466544,985,492,10007,14660,-56199,-14660,0,0,0,449,565,246,494,447,501,583,453,431,364,304,496,0
2,1768494466560,985,483,10007,15882,-54977,-14660,0,0,0,447,564,242,495,438,504,578,450,427,362,305,496,0
2,1768494466576,985,478,9992,17104,-54977,-14660,0,0,0,447,564,242,496,439,504,576,449,425,377,312,498,0
2,1768494466592,985,478,9992,15882,-56199,-15882,0,0,0,451,564,244,494,436,502,576,448,424,371,310,498,0
2,1768494466608,990,488,10002,15882,-56199,-14660,0,0,0,452,561,243,497,438,505,577,449,424,365,307,498,0
2,1768494466624,985,492,10007,18325,-56199,-14660,0,0,0,452,560,242,498,440,507,578,451,424,366,306,497,0
2,1768494466640,981,492,10002,19547,-56199,-15882,0,0,0,452,560,242,497,439,505,579,451,425,364,305,496,0
2,1768494466656,981,492,10002,20769,-56199,-17104,0,0,0,451,558,241,498,440,505,581,453,427,365,306,497,0
2,1768494466672,985,492,10002,21991,-57421,-17104,0,0,0,452,560,243,497,440,505,580,453,426,365,306,496,0
2,1768494466688,985,488,10002,21991,-57421,-17104,0,0,0,449,557,240,498,440,506,577,447,423,367,309,497,0
2,1768494466704,976,483,10002,21991,-57421,-15882,0,0,0,452,559,241,494,436,503,580,453,427,366,307,497,0
2,1768494466720,976,483,9992,23212,-57421,-15882,0,0,0,452,559,241,496,441,504,580,453,427,367,311,498,0
2,1768494466736,981,488,9997,23212,-56199,-17104,0,0,0,452,559,242,500,443,507,581,454,430,367,309,498,0
2,1768494466752,985,483,10007,23212,-56199,-17104,0,0,0,455,562,245,497,440,505,579,451,427,361,301,492,0
2,1768494466768,981,483,10016,21991,-57421,-18325,0,0,0,451,558,242,498,440,505,579,452,427,364,305,495,0
2,1768494466784,976,483,10011,21991,-56199,-15882,0,0,0,453,561,242,498,440,505,579,450,425,365,307,496,0
2,1768494466800,981,483,10002,21991,-56199,-15882,0,0,0,454,562,244,498,440,505,577,450,424,366,308,497,0
2,1768494466816,990,488,10002,23212,-56199,-15882,0,0,0,452,559,243,498,441,506,580,453,428,366,306,497,0
2,1768494466832,990,488,10007,24434,-56199,-15882,0,0,0,456,561,245,499,442,506,581,453,429,364,305,496,0
2,1768494466848,981,483,10002,24434,-56199,-17104,0,0,0,459,564,247,498,439,506,573,447,424,361,303,495,0
2,1768494466864,981,473,9997,21991,-56199,-15882,0,0,0,457,562,245,497,438,505,573,448,424,361,303,495,0
2,1768494466880,981,478,9997,20769,-56199,-14660,0,0,0,456,562,244,497,440,505,582,456,429,364,306,497,0
2,1768494466896,981,497,10002,19547,-56199,-15882,0,0,0,457,563,246,495,439,504,579,451,426,364,307,497,0
2,1768494466912,985,488,10002,19547,-56199,-15882,0,0,0,459,565,249,497,439,505,576,448,424,367,308,497,0
2,1768494466928,990,483,10011,20769,-56199,-17104,0,0,0,453,560,241,498,439,506,576,448,421,382,313,498,0
2,1768494466944,981,483,10011,20769,-56199,-17104,0,0,0,454,560,245,498,438,506,583,456,430,365,308,498,0
2,1768494466960,981,488,10011,20769,-56199,-17104,0,0,0,455,561,245,499,444,509,580,452,426,365,308,496,0
2,1768494466976,990,488,10016,23212,-56199,-17104,0,0,0,455,561,246,499,441,507,580,453,426,363,308,496,0
2,1768494466992,990,488,10007,24434,-56199,-17104,0,0,0,454,559,242,495,437,504,578,450,425,363,307,497,0
2,1768494467008,990,478,10002,25656,-57421,-17104,0,0,0,454,560,242,496,439,505,580,452,428,365,308,500,0
2,1768494467024,990,478,9997,25656,-56199,-17104,0,0,0,454,561,243,498,440,507,581,453,429,365,307,499,0
2,1768494467040,995,478,9997,25656,-56199,-17104,0,0,0,452,559,240,495,437,506,581,452,427,363,306,496,0
2,1768494467056,990,478,10002,25656,-56199,-17104,0,0,0,453,559,240,497,439,507,580,451,425,364,308,497,0
2,1768494467072,981,483,10002,25656,-57421,-15882,0,0,0,454,560,242,499,441,508,581,452,426,365,309,498,0
2,1768494467088,981,488,10002,25656,-56199,-15882,0,0,0,454,560,241,496,437,504,583,454,429,362,308,496,0
2,1768494467104,981,483,10002,24434,-56199,-17104,0,0,0,453,560,240,495,437,504,583,454,428,364,309,497,0
2,1768494467120,981,483,10002,24434,-56199,-17104,0,0,0,451,557,240,503,444,512,581,451,425,369,313,501,0
2,1768494467136,981,478,10002,23212,-56199,-17104,0,0,0,454,560,243,500,440,510,580,450,425,364,308,495,0
2,1768494467152,981,473,9997,23212,-56199,-15882,0,0,0,457,563,247,496,440,506,577,449,423,367,309,498,0
2,1768494467168,985,478,9997,24434,-56199,-15882,0,0,0,453,560,243,500,441,509,582,452,427,369,313,498,0
2,1768494467184,990,488,10007,24434,-56199,-17104,0,0,0,450,560,242,500,441,509,583,453,430,365,308,496,0
2,1768494467200,985,488,10002,24434,-56199,-17104,0,0,0,452,563,248,499,441,509,577,448,423,364,310,496,0
2,1768494467216,985,483,9992,24434,-57421,-15882,0,0,0,449,563,248,498,442,509,580,451,426,366,311,495,0
2,1768494467232,985,478,9992,21991,-57421,-15882,0,0,0,447,561,245,495,438,505,579,448,423,365,311,496,0
2,1768494467248,985,478,9992,20769,-57421,-15882,0,0,0,448,561,246,497,440,507,579,448,423,365,310,496,0
2,1768494467264,985,483,10002,20769,-56199,-15882,0,0,0,451,563,247,499,442,510,581,451,426,434,332,483,0
2,1768494467280,985,478,10002,19547,-56199,-15882,0,0,0,452,564,247,495,439,507,581,452,426,431,332,484,0
2,1768494467296,981,469,10002,18325,-56199,-15882,0,0,0,449,561,245,494,437,506,581,451,426,366,313,496,0
2,1768494467312,985,473,10007,18325,-56199,-15882,0,0,0,446,560,243,496,440,508,584,453,429,365,312,496,0
2,1768494467328,985,473,10007,18325,-56199,-15882,0,0,0,449,562,244,494,438,505,584,454,430,363,309,495,0
2,1768494467344,990,478,10002,19547,-56199,-15882,0,0,0,448,562,243,494,438,506,582,453,427,366,309,497,0
2,1768494467360,990,478,10002,21991,-56199,-14660,0,0,0,448,561,243,496,441,507,583,454,428,364,306,496,0
2,1768494467376,990,483,10002,24434,-57421,-14660,0,0,0,448,562,244,497,442,509,582,453,428,364,308,497,0
2,1768494467392,990,483,10007,26878,-56199,-17104,0,0,0,448,562,245,501,446,512,581,452,428,364,308,497,0
2,1768494467408,976,478,10007,26878,-56199,-17104,0,0,0,451,565,249,500,443,511,583,455,429,365,310,497,0
2,1768494467424,976,478,10002,25656,-56199,-18325,0,0,0,451,565,247,499,443,511,566,448,430,363,307,497,0
2,1768494467440,981,473,10002,25656,-56199,-17104,0,0,0,451,565,248,496,441,508,577,451,428,363,309,497,0
2,1768494467456,985,469,10002,25656,-57421,-17104,0,0,0,450,563,247,499,443,510,586,456,433,366,311,498,0
2,1768494467472,981,469,9992,24434,-56199,-17104,0,0,0,447,562,244,499,442,509,584,455,432,368,311,498,0
2,1768494467488,981,469,9992,20769,-56199,-15882,0,0,0,449,564,247,495,439,506,579,452,427,365,310,497,0
2,1768494467504,985,473,9997,19547,-56199,-15882,0,0,0,449,565,248,492,437,504,580,452,427,366,311,498,0
2,1768494467520,985,478,10002,18325,-56199,-14660,0,0,0,447,563,246,490,435,502,583,453,428,368,313,500,0
2,1768494467536,985,473,10007,17104,-56199,-14660,0,0,0,447,562,245,491,436,502,582,453,428,365,312,499,0
2,1768494467552,985,473,10007,17104,-56199,-14660,0,0,0,447,563,244,497,440,508,584,454,430,365,311,498,0
2,1768494467568,985,478,10002,18325,-57421,-14660,0,0,0,451,566,250,500,443,512,581,451,430,366,311,497,0
2,1768494467584,985,483,9997,19547,-57421,-14660,0,0,0,449,564,247,499,443,511,584,455,429,367,311,499,0
2,1768494467600,990,483,9992,20769,-57421,-14660,0,0,0,443,559,240,497,440,508,584,454,428,370,313,495,0
2,1768494467616,981,478,9997,20769,-57421,-14660,0,0,0,448,563,244,497,441,509,577,452,427,495,358,479,0
2,1768494467632,976,478,10002,19547,-57421,-14660,0,0,0,444,559,242,495,440,508,585,458,432,381,318,497,0
2,1768494467648,976,483,10007,20769,-57421,-15882,0,0,0,444,561,243,496,440,508,581,452,426,368,314,503,0
2,1768494467664,976,483,10007,20769,-56199,-15882,0,0,0,448,562,246,498,442,510,583,453,428,367,311,502,0
2,1768494467680,981,483,10007,20769,-56199,-15882,0,0,0,447,563,245,499,443,511,583,454,429,367,311,501,0
2,1768494467696,981,483,10007,20769,-57421,-15882,0,0,0,447,563,246,500,443,512,583,454,429,365,311,499,0
2,1768494467712,985,478,10011,20769,-57421,-17104,0,0,0,449,564,247,500,445,511,585,457,431,364,311,500,0
2,1768494467728,990,478,10011,20769,-57421,-17104,0,0,0,450,566,247,499,444,511,584,455,429,362,309,499,0
2,1768494467744,990,478,9997,20769,-57421,-17104,0,0,0,448,565,246,497,441,510,579,449,424,359,305,497,0
2,1768494467760,985,483,9997,20769,-56199,-17104,0,0,0,446,561,244,497,440,509,576,447,422,359,305,497,0
2,1768494467776,981,483,10002,23212,-56199,-17104,0,0,0,449,562,246,497,453,507,579,449,423,365,308,500,0
2,1768494467792,981,478,9997,24434,-56199,-17104,0,0,0,447,562,245,492,489,493,585,456,431,365,312,500,0
2,1768494467808,981,473,9987,23212,-58643,-15882,0,0,0,447,563,245,495,438,507,581,452,426,364,309,500,0
2,1768494467824,976,473,9987,20769,-58643,-15882,0,0,0,448,564,245,490,435,503,582,453,427,367,311,502,0
2,1768494467840,981,473,9997,20769,-57421,-15882,0,0,0,443,559,242,499,443,513,580,451,426,362,306,498,0
2,1768494467856,995,483,10007,21991,-56199,-17104,0,0,0,443,559,243,494,438,506,582,454,427,364,311,500,0
2,1768494467872,995,483,10007,23212,-56199,-17104,0,0,0,447,562,246,498,442,510,576,447,422,364,310,500,0
2,1768494467888,990,483,10011,25656,-58643,-17104,0,0,0,449,564,247,497,441,510,576,447,422,364,309,498,0
2,1768494467904,981,473,10007,25656,-58643,-17104,0,0,0,448,563,245,497,442,510,579,449,425,366,312,500,0
2,1768494467920,981,473,9997,25656,-58643,-18325,0,0,0,445,559,242,497,441,508,580,450,426,369,314,503,0
2,1768494467936,985,478,9992,25656,-57421,-17104,0,0,0,448,562,245,496,439,507,579,451,425,368,312,502,0
2,1768494467952,985,478,9992,24434,-57421,-17104,0,0,0,451,566,247,495,439,508,580,452,425,364,308,499,0
2,1768494467968,981,473,10002,24434,-57421,-18325,0,0,0,450,565,244,497,440,508,582,453,429,362,306,498,0
2,1768494467984,981,469,10016,23212,-57421,-17104,0,0,0,450,564,245,496,441,509,582,453,430,362,307,498,0
2,1768494468000,985,469,10016,23212,-58643,-17104,0,0,0,444,558,240,494,439,507,585,455,433,362,306,497,0
2,1768494468016,995,483,10007,24434,-57421,-15882,0,0,0,450,563,246,499,443,510,583,454,432,362,306,497,0
2,1768494468032,985,483,9997,24434,-57421,-15882,0,0,0,450,563,246,498,442,509,578,446,424,369,311,503,0
2,1768494468048,981,473,9997,24434,-57421,-15882,0,0,0,453,565,249,497,442,509,581,452,429,366,310,503,0
2,1768494468064,981,473,9997,21991,-57421,-17104,0,0,0,446,559,242,491,435,504,575,450,429,364,306,500,0
2,1768494468080,976,478,9997,20769,-57421,-15882,0,0,0,445,559,241,495,438,507,581,451,429,368,313,500,0
2,1768494468096,981,473,9997,20769,-57421,-14660,0,0,0,449,563,248,497,441,509,582,452,427,365,310,499,0
2,1768494468112,985,469,9997,18325,-56199,-14660,0,0,0,450,564,249,494,439,507,585,454,431,361,305,497,0
2,1768494468128,985,478,9997,17104,-56199,-15882,0,0,0,450,563,249,494,439,507,585,453,429,366,309,501,0
2,1768494468144,976,483,10007,17104,-57421,-15882,0,0,0,450,562,247,494,439,506,585,452,428,365,308,501,0
2,1768494468160,971,478,10002,15882,-56199,-14660,0,0,0,448,561,245,491,435,504,583,451,426,364,307,499,0
2,1768494468176,976,473,9997,14660,-56199,-14660,0,0,0,446,561,245,492,436,505,580,450,424,362,308,497,0
2,1768494468192,985,473,10002,14660,-56199,-14660,0,0,0,447,561,246,496,441,508,580,450,424,359,307,495,0
2,1768494468208,990,469,10011,14660,-57421,-15882,0,0,0,449,561,248,494,439,505,582,451,427,367,313,499,0
2,1768494468224,981,473,10016,17104,-57421,-15882,0,0,0,452,564,250,498,443,510,583,453,427,367,311,498,0
2,1768494468240,981,483,10016,15882,-56199,-15882,0,0,0,452,562,247,497,454,505,587,458,429,372,316,501,0
2,1768494468256,981,488,10007,14660,-56199,-14660,0,0,0,456,570,255,491,501,485,586,457,429,373,317,500,0
2,1768494468272,981,488,9997,12217,-56199,-14660,0,0,0,445,561,247,503,446,513,585,459,429,374,317,498,0
2,1768494468288,981,483,9997,9773,-56199,-13439,0,0,0,448,564,249,501,446,511,582,452,424,369,313,491,0
2,1768494468304,981,483,9997,7330,-56199,-12217,0,0,0,443,560,239,494,438,504,582,451,424,363,309,490,0
2,1768494468320,990,488,10002,6108,-56199,-12217,0,0,0,445,562,242,496,440,506,583,455,423,368,313,492,0
2,1768494468336,990,492,10002,8552,-54977,-12217,0,0,0,443,560,240,497,441,507,583,453,417,369,314,492,0
2,1768494468352,985,492,10002,10995,-54977,-13439,0,0,0,442,560,244,494,439,504,582,453,414,369,312,491,0
2,1768494468368,981,483,9987,7330,-54977,-13439,0,0,0,443,562,243,490,437,499,579,452,411,369,313,488,0
2,1768494468384,976,483,9987,1221,-56199,-10995,0,0,0,441,563,243,489,436,496,579,454,411,371,315,485,0
2,1768494468400,976,488,9983,-3665,-54977,-8552,0,0,0,434,560,243,490,435,493,577,455,409,373,318,479,0
2,1768494468416,976,488,9968,-12217,-53756,-7330,0,0,0,425,555,236,489,435,492,574,452,402,373,321,474,0
2,1768494468432,976,502,9968,-21991,-52534,-7330,0,0,0,422,554,233,492,439,493,580,456,400,375,324,475,0
2,1768494468448,976,536,10002,-23212,-52534,-7330,0,0,0,425,557,238,494,438,494,582,456,400,370,319,472,0
2,1768494468464,990,555,10040,-9773,-54977,-7330,0,0,0,426,558,238,493,437,489,574,457,400,375,321,472,0
2,1768494468480,995,545,10050,10995,-56199,-12217,0,0,0,428,560,242,488,435,486,516,437,408,365,317,467,0
2,1768494468496,995,531,10031,28099,-57421,-13439,0,0,0,430,561,243,489,440,488,582,461,400,375,325,473,0
2,1768494468512,990,526,10002,32986,-59864,-15882,0,0,0,428,559,241,489,439,490,579,459,396,375,327,473,0
2,1768494468528,981,516,9978,26878,-59864,-14660,0,0,0,426,557,238,492,439,490,580,460,398,371,322,469,0
2,1768494468544,976,516,9973,19547,-58643,-14660,0,0,0,423,553,234,486,433,484,581,462,396,372,323,468,0
2,1768494468560,976,521,9978,10995,-58643,-13439,0,0,0,427,557,245,489,439,492,577,459,395,376,327,468,0
2,1768494468576,976,526,9978,3665,-58643,-12217,0,0,0,428,558,241,489,438,487,575,455,392,378,329,466,0
2,1768494468592,976,526,9978,0,-58643,-9773,0,0,0,428,559,241,490,439,487,576,457,391,375,326,462,0
2,1768494468608,976,545,9997,0,-57421,-9773,0,0,0,430,560,243,488,438,486,576,454,393,415,367,453,0
2,1768494468624,976,545,10011,3665,-56199,-9773,0,0,0,431,560,243,489,436,484,578,457,394,421,370,451,0
2,1768494468640,985,545,10007,7330,-56199,-12217,0,0,0,431,557,247,489,435,485,579,462,388,379,324,456,0
2,1768494468656,981,540,9987,2443,-56199,-10995,0,0,0,427,552,250,478,428,483,575,458,378,384,335,444,0
2,1768494468672,966,536,9983,-3665,-57421,-9773,0,0,0,421,548,243,473,425,480,572,457,378,413,371,428,0
2,1768494468688,957,540,9983,-17104,-54977,-6108,0,0,0,412,542,235,471,426,478,568,462,380,441,404,416,0
2,1768494468704,961,550,9997,-26878,-52534,-3665,0,0,0,405,540,230,464,422,470,562,462,378,443,404,407,0
2,1768494468720,985,579,10016,-28099,-50090,-3665,0,0,0,406,537,230,462,420,465,561,466,362,443,404,404,0
2,1768494468736,1005,603,10021,-12217,-53756,-4886,0,0,0,394,533,223,467,424,469,560,467,362,441,408,391,0
2,1768494468752,1005,593,10011,3665,-57421,-8552,0,0,0,393,530,223,466,415,457,567,468,361,453,426,379,0
2,1768494468768,981,559,9978,6108,-59864,-12217,0,0,0,394,525,229,454,406,448,553,466,358,462,441,367,0
2,1768494468784,966,555,9983,-4886,-52534,-10995,0,0,0,395,516,226,446,400,437,549,466,347,471,454,344,0
2,1768494468800,981,574,10031,-13439,-46425,-10995,0,0,0,388,508,218,441,395,430,551,478,344,448,434,332,0
2,1768494468816,1000,622,10054,-1221,-40317,-14660,0,0,0,383,506,213,439,394,425,545,481,336,438,427,333,0
2,1768494468832,1005,674,10064,32986,-40317,-18325,0,0,0,379,506,212,439,395,424,535,477,329,456,447,330,0
2,1768494468848,1005,684,10069,90408,-50090,-20769,0,0,0,376,506,210,441,397,426,533,476,331,465,454,327,0
2,1768494468864,1000,650,10035,141720,-69638,-21991,0,0,0,379,509,212,443,399,427,535,474,330,460,445,334,0
2,1768494468880,933,579,9897,156381,-91629,-20769,0,0,0,386,517,223,445,406,435,540,475,334,463,444,345,0
2,1768494468896,885,483,9672,92851,-97738,-7330,0,0,0,393,525,231,448,423,450,550,474,346,465,444,354,0
2,1768494468912,928,406,9643,-14660,-92851,1221,0,0,0,402,533,246,451,423,452,546,469,349,462,450,381,0
2,1768494468928,1057,564,10050,-45204,-96516,-4886,0,0,0,427,541,253,463,428,463,552,476,360,466,454,410,0
2,1768494468944,1091,794,10552,145385,-128281,-36651,0,0,0,455,552,256,475,443,469,540,478,359,462,450,438,0
2,1768494468960,1057,746,10610,390953,-201585,-63529,0,0,0,473,556,269,475,455,476,544,477,366,477,470,469,0
2,1768494468976,990,454,10059,514348,-301767,-79412,0,0,0,487,561,271,487,460,481,546,467,374,508,483,479,0
2,1768494468992,693,47,8834,309097,-320093,-76969,0,0,0,509,573,284,493,467,495,572,485,383,523,480,504,0
2,1768494469008,425,-95,8408,-84299,-228463,-36651,0,0,0,518,584,331,495,477,501,588,511,386,533,481,508,0
2,1768494469024,607,287,9667,-425162,-147829,23212,0,0,0,521,593,368,502,483,528,609,529,397,521,468,529,0
2,1768494469040,1048,894,11294,-199142,-197920,7330,0,0,0,543,611,383,497,495,533,613,530,405,512,460,548,0
2,1768494469056,1038,837,11289,210137,-194255,-56199,0,0,0,561,619,375,503,502,526,609,507,404,512,445,560,0
2,1768494469072,918,550,10878,410501,-101403,-96516,0,0,0,565,619,342,513,507,527,598,468,404,458,377,581,0
2,1768494469088,861,449,10940,524122,-29321,-119729,0,0,0,566,622,288,506,515,522,563,429,411,404,327,600,0
2,1768494469104,799,421,11581,693942,-19547,-119729,0,0,0,562,615,236,512,516,517,505,391,409,429,345,596,0
2,1768494469120,679,555,13586,1188743,0,-86742,0,0,0,561,605,222,525,515,519,432,336,399,340,237,587,0
2,1768494469136,732,976,16908,1990198,201585,-40317,0,0,0,555,589,224,504,512,508,339,228,411,301,200,592,0
2,1768494469152,1287,1584,20440,3280346,474031,-56199,0,0,0,534,566,216,463,480,483,297,157,370,273,176,554,0
2,1768494469168,1952,2048,22273,4710992,496022,-195476,0,0,0,463,535,195,453,459,459,318,157,354,252,160,448,0
2,1768494469184,1923,1756,23282,5629734,296880,-382401,0,0,0,384,487,174,412,398,408,336,167,339,229,142,348,0
2,1768494469200,2474,-1646,23522,5283984,371406,-445931,0,0,0,323,473,191,396,376,404,353,171,332,204,130,271,0
2,1768494469216,4388,-10165,16625,3732386,697608,-823446,0,0,0,318,467,189,394,377,409,353,179,328,197,132,259,0
2,1768494469232,5259,-17047,2421,955393,665843,-2333505,0,0,0,305,458,187,385,373,398,353,190,325,189,133,243,0
2,1768494469248,1564,-17808,-2479,-1105666,317649,-3291341,0,0,0,279,455,182,376,372,382,350,196,314,181,134,232,0
2,1768494469264,-2938,-12969,1349,-406836,-125838,-2045176,0,0,0,263,453,174,372,369,374,346,204,307,178,136,226,0
2,1768494469280,-2014,-2928,1713,856433,-520457,312763,0,0,0,254,450,169,367,364,369,343,212,304,176,139,218,0
2,1768494469296,1038,6355,-531,882089,-674395,1681101,0,0,0,248,451,165,362,363,362,339,221,301,177,147,210,0
2,1768494469312,1923,11438,-2479,52534,-421497,1413542,0,0,0,245,450,161,362,364,360,330,234,294,177,155,202,0
2,1768494469328,1038,13093,-2469,-1028697,-87964,711047,0,0,0,245,448,160,360,365,364,325,247,286,172,157,198,0
2,1768494469344,-86,10212,-1052,-2218662,56199,120951,0,0,0,244,442,163,358,367,364,325,253,285,175,162,200,0
2,1768494469360,-670,3981,-598,-2966361,63529,-160046,0,0,0,247,441,165,358,369,363,331,258,281,179,168,200,0
2,1768494469376,-1617,-2215,-402,-2856405,91629,-333532,0,0,0,237,449,164,353,364,364,322,265,282,193,193,201,0
2,1768494469392,-2507,-5805,95,-1809382,53756,-443488,0,0,0,230,449,160,355,368,369,316,258,282,191,188,202,0
2,1768494469408,-2493,-6824,531,-855211,-62308,-557109,0,0,0,234,452,163,363,374,370,328,253,281,198,186,206,0
2,1768494469424,-2053,-8379,760,-30543,-156381,-734260,0,0,0,239,451,164,367,375,375,333,254,287,199,187,209,0
2,1768494469440,-1588,-9719,1220,888198,-96516,-891863,0,0,0,245,451,166,375,381,380,336,254,292,203,186,210,0
2,1768494469456,-1593,-7805,1813,1376890,180816,-686612,0,0,0,376,494,177,354,403,423,302,214,321,241,180,391,0
2,1768494469472,-1976,-4225,1694,1254717,302989,-95294,0,0,0,466,536,186,414,452,461,311,247,341,272,184,517,0
2,1768494469488,2392,4828,11476,-737925,211359,692721,0,0,0,479,563,220,487,474,472,437,365,360,324,248,516,0
2,1768494469504,6412,6264,26795,-5523443,168598,1208291,0,0,0,464,576,322,493,462,465,586,526,361,501,467,419,0
2,1768494469520,6039,5967,37678,-9077457,-423940,990823,0,0,0,467,578,387,484,457,464,621,595,345,634,628,367,0
2,1768494469536,3709,7150,39411,-7059158,-993266,481361,0,0,0,494,580,336,484,460,473,578,529,351,501,483,450,0
2,1768494469552,1880,7169,23531,-890641,-608421,-72082,0,0,0,506,595,319,487,477,484,566,543,360,381,361,491,0
2,1768494469568,961,1057,8446,1780061,3665,-279776,0,0,0,515,603,327,484,482,500,581,553,355,534,514,472,0
2,1768494469584,-162,-2718,4067,933402,-36651,-186924,0,0,0,514,610,369,479,477,506,589,568,364,576,568,481,0
2,1768494469600,33,-737,8959,-717155,-210137,30543,0,0,0,513,609,357,484,489,510,589,568,362,579,567,469,0
2,1768494469616,1000,1646,12031,-542448,-100181,50090,0,0,0,501,611,354,497,487,510,594,568,368,581,564,453,0
2,1768494469632,1081,1158,10844,57421,25656,-19547,0,0,0,475,596,299,497,474,503,581,567,357,579,568,445,0
2,1768494469648,789,516,9873,89186,69638,-31764,0,0,0,455,579,316,486,459,495,573,559,365,564,564,420,0
2,1768494469664,780,583,9959,4886,101403,-18325,0,0,0,435,565,276,475,444,480,565,567,356,557,566,398,0
2,1768494469680,847,660,10107,-15882,108734,-7330,0,0,0,414,554,251,465,435,471,562,577,351,460,478,394,0
2,1768494469696,871,626,10021,1221,92851,-1221,0,0,0,392,548,237,457,439,458,556,568,344,355,383,386,0
2,1768494469712,918,684,10007,21991,83077,1221,0,0,0,375,544,227,456,441,446,549,554,334,322,352,374,0
2,1768494469728,966,713,10002,59864,68416,1221,0,0,0,369,541,223,459,435,439,540,527,329,358,381,362,0
2,1768494469744,995,717,9973,107512,51312,0,0,0,0,372,538,222,457,431,434,531,502,325,364,378,362,0
2,1768494469760,1019,703,9973,149051,40317,-3665,0,0,0,374,534,216,453,435,432,524,509,316,312,327,369,0
2,1768494469776,1024,626,9944,164933,25656,-7330,0,0,0,377,534,217,459,445,435,517,506,314,363,385,354,0
2,1768494469792,1014,555,9853,139277,3665,-8552,0,0,0,380,538,217,457,430,430,511,478,316,428,453,333,0
2,1768494469808,1005,574,9801,87964,-15882,-4886,0,0,0,388,545,220,456,430,431,520,478,314,432,461,337,0
2,1768494469824,1005,603,9825,35430,-34208,0,0,0,0,395,544,222,459,437,440,525,483,323,432,458,340,0
2,1768494469840,1014,588,9877,1221,-46425,0,0,0,0,404,546,230,475,440,442,528,484,324,439,459,347,0
2,1768494469856,1019,588,9863,-19547,-59864,-1221,0,0,0,408,550,235,473,432,441,540,496,330,444,466,357,0
2,1768494469872,1000,593,9815,-53756,-79412,0,0,0,0,406,559,240,458,435,445,550,506,330,445,477,362,0
2,1768494469888,971,603,9858,-92851,-95294,9773,0,0,0,416,566,251,458,438,447,555,516,328,442,471,367,0
2,1768494469904,985,626,10002,-111177,-76969,17104,0,0,0,417,569,250,463,436,461,565,527,331,446,465,371,0
2,1768494469920,1052,693,10122,-98960,-58643,15882,0,0,0,423,567,250,467,452,467,576,539,335,439,460,380,0
2,1768494469936,1100,756,10155,-40317,-63529,1221,0,0,0,431,569,255,471,455,467,586,545,342,435,459,390,0
2,1768494469952,1086,765,10150,37873,-75747,-17104,0,0,0,434,571,258,473,450,469,588,542,348,438,462,400,0
2,1768494469968,1028,693,10102,92851,-79412,-29321,0,0,0,437,571,259,473,454,469,572,533,348,440,465,407,0
2,1768494469984,990,631,10002,92851,-74525,-29321,0,0,0,444,573,257,474,459,464,556,524,343,438,463,406,0
2,1768494470000,976,622,9940,69638,-74525,-24434,0,0,0,452,578,258,476,457,467,577,538,341,439,462,408,0
2,1768494470016,957,612,9920,34208,-72082,-18325,0,0,0,450,577,258,474,456,466,580,542,346,440,463,409,0
2,1768494470032,957,603,9949,3665,-64751,-12217,0,0,0,448,578,261,478,456,468,577,542,342,440,464,409,0
2,1768494470048,985,622,10011,-7330,-51312,-10995,0,0,0,456,580,262,478,458,464,579,542,344,440,464,409,0
2,1768494470064,1009,660,10031,3665,-42760,-14660,0,0,0,462,585,272,475,449,464,586,547,351,443,464,410,0
2,1768494470080,1024,693,10040,28099,-39095,-19547,0,0,0,463,586,270,477,451,468,582,536,348,445,462,411,0
2,1768494470096,1028,689,10035,59864,-40317,-25656,0,0,0,458,582,262,480,450,469,580,529,347,450,464,405,0
2,1768494470112,1028,650,10031,76969,-42760,-29321,0,0,0,456,584,264,479,448,468,576,522,348,455,461,406,0
2,1768494470128,1028,636,10035,89186,-43982,-31764,0,0,0,453,585,264,479,450,469,568,500,349,451,451,406,0
2,1768494470144,1048,641,10074,113620,-41538,-36651,0,0,0,450,583,255,480,451,467,563,485,351,398,381,414,0
2,1768494470160,1076,660,10126,156381,-32986,-45204,0,0,0,452,579,248,477,449,465,556,459,354,327,284,432,0
2,1768494470176,1153,674,10227,229685,-37873,-61086,0,0,0,452,573,238,477,454,466,536,413,359,294,232,447,0
2,1768494470192,1325,655,10528,372627,-96516,-92851,0,0,0,446,563,222,483,466,469,502,377,363,300,226,453,0
2,1768494470208,1636,588,11036,598647,-211359,-152716,0,0,0,456,556,216,480,467,467,468,350,362,298,218,456,0
2,1768494470224,2196,536,12323,1033583,-389732,-280998,0,0,0,465,554,210,477,462,464,430,340,346,286,214,454,0
2,1768494470240,2091,746,14381,1583362,-518013,-427605,0,0,0,462,538,198,471,445,450,386,319,333,337,279,432,0
2,1768494470256,1770,842,15678,2135584,-544891,-489913,0,0,0,450,518,200,464,427,443,372,329,317,276,206,432,0
2,1768494470272,2498,497,15486,2580294,-466701,-525344,0,0,0,408,498,191,438,418,427,337,308,293,312,278,395,0
2,1768494470288,3407,311,14993,2902831,-388510,-645073,0,0,0,359,487,184,412,393,412,323,318,291,314,312,361,0
2,1768494470304,4182,229,14036,3049439,-342084,-888198,0,0,0,276,469,178,383,382,400,327,341,280,257,258,311,0
2,1768494470320,4139,196,12682,2932153,-389732,-1154535,0,0,0,249,443,177,362,373,377,330,364,265,203,229,226,0
2,1768494470336,3953,2809,10811,2516764,-480140,-1352455,0,0,0,240,439,174,353,366,365,320,361,254,210,256,201,0
2,1768494470352,4728,9562,8327,1629788,-476474,-1431868,0,0,0,239,438,174,346,366,362,315,364,250,203,250,203,0
2,1768494470368,5527,14601,6044,526565,-301767,-1446528,0,0,0,237,434,174,337,368,362,314,374,250,179,224,198,0
2,1768494470384,4991,14874,5001,-492357,21991,-1335351,0,0,0,235,434,174,333,368,359,311,377,250,175,224,193,0
2,1768494470400,3986,12955,5082,-1061683,278554,-1106887,0,0,0,240,435,175,334,370,354,306,382,246,178,229,193,0
2,1768494470416,3268,11643,5652,-1536936,526565,-838107,0,0,0,238,436,172,336,374,353,304,386,242,177,233,189,0
2,1768494470432,2589,10643,6800,-1976759,744033,-536339,0,0,0,235,435,171,334,373,355,306,389,248,181,235,191,0
2,1768494470448,1756,8920,8274,-2367713,891863,-166155,0,0,0,239,437,175,333,371,359,307,392,251,178,232,191,0
2,1768494470464,1172,7398,9447,-2607172,970053,150272,0,0,0,240,437,176,332,368,360,306,391,253,178,233,193,0
2,1768494470480,923,6077,10557,-2776993,1004262,459370,0,0,0,238,432,170,331,365,360,298,380,257,178,233,193,0
2,1768494470496,1038,4790,11663,-2921157,1031140,730594,0,0,0,238,434,171,333,367,365,309,392,257,182,240,191,0
2,1768494470512,1196,3474,12653,-3029891,1053131,922406,0,0,0,235,440,173,329,359,361,302,382,257,224,302,191,0
2,1768494470528,961,1995,13366,-3054326,1032362,1065348,0,0,0,229,442,170,330,360,365,297,374,252,232,314,192,0
2,1768494470544,464,665,13859,-2981022,965167,1191187,0,0,0,225,440,169,331,364,367,300,377,255,226,306,193,0
2,1768494470560,67,-717,13984,-2805093,829554,1293812,0,0,0,229,438,172,333,370,370,304,383,258,198,266,194,0
2,1768494470576,19,-2378,13811,-2588846,689055,1321912,0,0,0,235,439,176,335,373,373,307,387,260,179,236,196,0
2,1768494470592,210,-4599,13361,-2298075,544891,1221730,0,0,0,236,442,179,333,370,371,302,380,258,190,254,197,0
2,1768494470608,287,-6944,12739,-1919338,401949,978606,0,0,0,232,447,179,329,367,368,295,371,255,208,281,195,0
2,1768494470624,311,-8968,12108,-1484402,243124,720820,0,0,0,229,448,178,328,367,369,292,367,256,211,283,195,0
2,1768494470640,512,-10571,11351,-999375,87964,548556,0,0,0,228,447,180,330,371,371,290,359,257,206,275,199,0
2,1768494470656,780,-12208,10514,-397062,-25656,436157,0,0,0,227,445,178,328,371,368,290,360,250,202,265,200,0
2,1768494470672,981,-12964,9968,210137,-72082,398284,0,0,0,228,443,173,325,362,357,293,375,242,204,271,191,0
2,1768494470688,660,-13596,10638,740368,-86742,444709,0,0,0,231,433,153,322,351,326,312,439,219,223,313,170,0
2,1768494470704,-1842,-16305,13132,1587027,-392175,684169,0,0,0,243,425,158,329,346,332,336,477,219,305,428,158,0
2,1768494470720,-2421,-9404,13807,2783102,-868650,994488,0,0,0,249,427,158,339,351,335,365,479,223,314,444,148,0
2,1768494470736,-1450,1722,14137,3010343,-783129,875980,0,0,0,246,426,155,348,346,335,393,512,227,364,483,147,0
2,1768494470752,-1282,3852,14606,2570520,-493579,285884,0,0,0,245,434,155,360,349,337,423,527,219,398,503,150,0
2,1768494470768,-28,894,14027,2013411,-332310,-237015,0,0,0,249,446,172,372,360,350,483,540,233,410,500,161,0
2,1768494470784,1794,119,12050,1472185,-317649,-204028,0,0,0,264,459,201,386,369,370,534,551,263,369,476,187,0
2,1768494470800,1775,655,10806,979827,-360410,83077,0,0,0,282,472,225,410,379,394,560,563,280,361,469,232,0
2,1768494470816,832,325,11021,458148,-345749,131946,0,0,0,304,488,247,428,386,409,571,573,288,377,480,273,0
2,1768494470832,660,186,10825,52534,-272445,53756,0,0,0,329,502,269,430,386,411,565,575,302,396,493,286,0
2,1768494470848,861,670,10279,-85521,-186924,8552,0,0,0,347,511,279,432,389,415,569,582,311,406,497,295,0
2,1768494470864,976,1014,10026,-80634,-119729,6108,0,0,0,358,517,276,434,394,423,598,604,308,403,501,311,0
2,1768494470880,961,1009,10074,-24434,-69638,8552,0,0,0,368,521,282,432,394,422,591,613,325,432,524,309,0
2,1768494470896,957,971,10083,13439,-36651,2443,0,0,0,370,521,283,437,399,427,582,604,333,417,508,315,0
2,1768494470912,966,966,10026,47647,-19547,-3665,0,0,0,373,526,288,448,408,433,605,617,333,405,497,326,0
2,1768494470928,971,966,9987,68416,-12217,-6108,0,0,0,371,528,288,444,413,446,606,616,334,400,490,335,0
2,1768494470944,981,961,9997,80634,-1221,-6108,0,0,0,369,531,292,447,414,451,608,608,346,408,485,337,0
2,1768494470960,1009,966,10016,101403,8552,-10995,0,0,0,371,530,286,454,419,447,609,616,344,395,468,346,0
2,1768494470976,1033,966,10026,138055,18325,-20769,0,0,0,381,537,294,447,417,438,617,606,360,397,454,352,0
2,1768494470992,1028,933,10007,191811,26878,-32986,0,0,0,384,540,291,452,419,440,614,589,365,436,472,361,0
2,1768494471008,1038,904,9997,241902,29321,-42760,0,0,0,385,538,300,456,420,451,560,541,382,455,483,364,0
2,1768494471024,1072,856,9983,271224,24434,-51312,0,0,0,389,538,295,461,422,459,572,539,372,462,486,373,0
2,1768494471040,1091,799,9954,268780,4886,-54977,0,0,0,395,537,288,467,427,461,607,547,352,465,481,385,0
2,1768494471056,1095,784,9954,268780,-12217,-59864,0,0,0,403,537,290,468,432,458,616,528,346,481,490,390,0
2,1768494471072,1076,737,9954,270002,-30543,-65973,0,0,0,412,542,293,469,439,460,612,510,350,506,508,401,0
2,1768494471088,1057,670,9959,263893,-40317,-69638,0,0,0,419,546,294,475,447,468,604,511,358,500,494,426,0
2,1768494471104,1062,631,9959,248011,-46425,-64751,0,0,0,425,549,288,479,455,474,607,517,374,477,464,439,0
2,1768494471120,1086,617,9987,235793,-57421,-61086,0,0,0,423,554,283,487,477,484,607,486,391,469,453,446,0
2,1768494471136,1100,588,10035,234572,-76969,-59864,0,0,0,436,561,290,495,473,497,599,465,381,472,440,467,0
2,1768494471152,1100,536,10059,243124,-95294,-64751,0,0,0,455,573,305,495,474,502,604,449,388,463,406,478,0
2,1768494471168,1119,507,10117,266337,-107512,-76969,0,0,0,469,578,301,495,465,502,588,432,388,447,382,496,0
2,1768494471184,1129,488,10198,305432,-128281,-90408,0,0,0,482,579,307,506,471,511,578,420,395,421,360,512,0
2,1768494471200,1182,425,10265,365297,-160046,-108734,0,0,0,488,583,293,508,481,516,572,408,397,400,330,531,0
2,1768494471216,1229,392,10361,449596,-197920,-140499,0,0,0,500,598,281,515,496,521,556,401,404,388,321,549,0
2,1768494471232,1244,306,10562,601091,-259006,-177150,0,0,0,511,608,264,530,520,530,544,395,413,395,331,557,0
2,1768494471248,1206,181,10902,824668,-316428,-215024,0,0,0,522,614,253,541,524,537,530,382,416,434,370,566,0
2,1768494471264,1143,124,11414,1103222,-295658,-250454,0,0,0,527,619,243,551,525,548,520,383,417,411,343,591,0
2,1768494471280,871,177,12031,1402546,-151494,-270002,0,0,0,534,621,229,553,531,551,511,393,416,339,268,610,0
2,1768494471296,579,110,12490,1722639,-20769,-239459,0,0,0,546,623,217,550,534,546,487,385,414,318,240,607,0
2,1768494471312,536,-33,12811,2046398,12217,-162490,0,0,0,549,624,211,558,549,548,450,379,413,314,224,611,0
2,1768494471328,938,-239,13285,2488664,17104,-91629,0,0,0,557,617,209,539,551,535,406,371,405,314,227,613,0
2,1768494471344,1459,-387,13998,2926044,7330,-113620,0,0,0,559,613,208,521,538,530,368,358,415,311,223,616,0
2,1768494471360,1861,-416,15510,3511253,-48869,-205250,0,0,0,569,601,208,523,552,530,331,326,418,299,215,607,0
2,1768494471376,2660,-483,17444,4189313,-150272,-340862,0,0,0,564,588,215,512,552,532,304,272,410,283,218,587,0
2,1768494471392,3613,-808,20373,5126381,-321315,-582765,0,0,0,538,575,213,512,539,516,293,213,400,267,176,520,0
2,1768494471408,3977,-1392,23991,6084217,-500909,-806342,0,0,0,503,553,194,507,512,496,284,172,367,256,169,476,0
2,1768494471424,4551,-1938,26848,6836803,-596204,-946841,0,0,0,464,537,179,476,477,472,276,166,346,249,173,454,0
2,1768494471440,4345,-1517,28576,7362147,-420275,-1097113,0,0,0,415,509,164,430,439,420,281,190,305,260,195,414,0
2,1768494471456,4302,210,31308,7732332,-282219,-1253495,0,0,0,283,464,154,374,383,371,299,233,275,237,230,286,0
2,1768494471472,6700,3804,30935,7694458,-428827,-1455080,0,0,0,224,439,153,339,350,354,300,264,272,217,253,217,0
2,1768494471488,7212,14381,20885,6698748,-989601,-1744631,0,0,0,228,437,157,326,341,347,298,271,266,212,260,206,0
2,1768494471504,8327,24589,9533,4329812,-1648114,-1649336,0,0,0,227,440,157,320,338,337,299,268,247,212,264,203,0
2,1768494471520,9652,25187,7322,284663,-1147204,-1189965,0,0,0,221,439,154,312,336,333,296,275,240,213,273,200,0
2,1768494471536,7882,19463,7748,-2773328,-381179,-921184,0,0,0,215,433,150,307,336,331,292,284,241,213,285,199,0
2,1768494471552,5910,13567,6355,-3808133,61086,-916297,0,0,0,213,428,145,307,339,330,289,292,234,205,280,194,0
2,1768494471568,4527,10701,4972,-4216191,586430,-929736,0,0,0,221,426,146,310,342,318,293,306,220,180,250,167,0
2,1768494471584,2603,10155,6245,-4631580,1048244,-734260,0,0,0,221,426,147,308,342,319,292,311,226,185,258,170,0
2,1768494471600,952,8772,8389,-5116607,1192408,-239459,0,0,0,221,425,147,307,343,316,292,314,223,192,263,170,0
2,1768494471616,1062,7207,9734,-5444031,1226617,219911,0,0,0,223,423,161,310,344,332,292,318,229,183,264,179,0
2,1768494471632,1541,5996,10849,-5668829,1384220,465479,0,0,0,221,424,146,309,344,320,288,323,224,191,284,162,0
2,1768494471648,985,5178,12629,-5893627,1547932,568104,0,0,0,223,425,149,309,345,318,291,330,223,185,272,161,0
2,1768494471664,497,4503,14515,-6111095,1571145,647517,0,0,0,223,422,149,311,357,322,292,337,223,185,276,160,0
2,1768494471680,732,3862,16697,-6337115,1538158,722042,0,0,0,224,422,146,312,351,322,290,337,221,189,278,158,0
2,1768494471696,1206,3508,19238,-6553362,1587027,827111,0,0,0,225,424,146,313,350,320,290,333,219,191,277,157,0
2,1768494471712,1655,3330,22402,-6783047,1679879,1061683,0,0,0,226,425,146,315,347,321,291,330,220,191,274,157,0
2,1768494471728,2885,2368,26025,-6979746,1679879,1478293,0,0,0,226,425,146,318,345,323,291,329,222,191,268,156,0
2,1768494471744,4699,-358,29423,-7068932,1672549,2010968,0,0,0,225,426,143,321,350,323,295,329,224,191,263,156,0
2,1768494471760,5757,-6408,31490,-6941872,1780061,2535090,0,0,0,232,425,142,333,348,323,302,328,229,199,262,159,0
2,1768494471776,5192,-16960,31997,-6436076,1791056,2642603,0,0,0,240,426,146,346,344,327,307,325,237,205,264,161,0
2,1768494471792,5867,-28394,28647,-5569869,1351233,2059837,0,0,0,229,429,148,329,350,336,301,326,243,198,265,163,0
2,1768494471808,4833,-35702,20440,-4069584,1216843,592539,0,0,0,223,432,145,327,352,332,304,331,246,198,268,164,0
2,1768494471824,-1895,-39013,14912,-2346944,1414763,-877202,0,0,0,225,436,149,329,358,333,302,329,244,205,277,164,0
2,1768494471840,-9298,-40684,14189,-860098,984714,-1594358,0,0,0,227,436,149,329,352,333,297,325,235,227,310,165,0
2,1768494471856,-8580,-39459,15171,579100,-134390,-1411098,0,0,0,232,401,156,324,332,337,371,449,233,210,325,146,0
2,1768494471872,-7571,-25795,20736,2631607,-1651779,-641408,0,0,0,235,363,146,307,295,325,424,465,243,217,369,144,0
2,1768494471888,-2464,354,19258,4894252,-3447723,807563,0,0,0,264,365,141,331,294,327,441,480,245,249,406,145,0
2,1768494471904,440,7284,15175,6392093,-2439795,1975538,0,0,0,261,372,139,349,301,340,480,496,248,279,427,158,0
2,1768494471920,-4503,-631,20473,6217386,-197920,1874134,0,0,0,257,392,142,367,304,364,527,536,248,333,464,166,0
2,1768494471936,-6226,-5173,24728,4438546,406836,318871,0,0,0,259,419,167,375,316,383,560,564,281,349,472,207,0
2,1768494471952,1584,-540,17123,2364048,-332310,-613308,0,0,0,259,451,200,389,344,403,583,583,313,350,465,271,0
2,1768494471968,4010,1459,10768,1264491,-466701,-131946,0,0,0,281,480,226,411,373,425,601,601,324,369,473,326,0
2,1768494471984,1761,234,10241,576656,-328645,211359,0,0,0,325,500,245,425,390,442,611,611,336,389,487,360,0
2,1768494472000,268,-181,10792,67195,-254119,124616,0,0,0,349,512,259,432,396,450,621,620,351,396,486,370,0
2,1768494472016,847,660,10437,9773,-219911,-24434,0,0,0,358,517,260,431,395,448,627,627,347,395,488,371,0
2,1768494472032,1220,1033,10069,30543,-149051,-28099,0,0,0,369,518,283,432,400,457,622,623,351,410,502,381,0
2,1768494472048,1177,942,10002,51312,-83077,10995,0,0,0,380,523,287,431,404,456,622,622,343,447,530,377,0
2,1768494472064,1014,880,10078,72082,-72082,-4886,0,0,0,395,530,263,417,482,425,617,618,341,393,479,393,0
2,1768494472080,971,918,10083,117286,-58643,-25656,0,0,0,398,531,258,439,412,448,622,622,337,390,459,401,0
2,1768494472096,1005,928,10059,182037,-21991,-30543,0,0,0,404,536,258,444,412,453,625,623,339,421,469,411,0
2,1768494472112,1033,875,10026,238237,7330,-29321,0,0,0,416,538,261,443,419,458,608,607,343,359,410,418,0
2,1768494472128,1062,804,10002,266337,18325,-32986,0,0,0,416,540,260,441,418,458,599,588,336,381,417,418,0
2,1768494472144,1086,765,9978,271224,15882,-41538,0,0,0,417,542,258,442,424,458,592,573,340,357,375,430,0
2,1768494472160,1129,765,9987,283441,10995,-53756,0,0,0,429,546,258,452,430,463,582,544,349,372,369,436,0
2,1768494472176,1186,760,10035,310319,0,-68416,0,0,0,439,550,260,456,432,463,562,503,359,440,421,431,0
2,1768494472192,1186,679,10035,344527,-20769,-87964,0,0,0,446,555,266,460,440,465,553,473,366,476,443,439,0
2,1768494472208,1134,603,10007,360410,-42760,-96516,0,0,0,455,560,262,472,454,472,566,455,365,411,363,472,0
2,1768494472224,1134,555,10021,368962,-63529,-94073,0,0,0,463,568,252,477,461,477,569,435,367,311,254,503,0
2,1768494472240,1172,488,10093,392175,-81855,-98960,0,0,0,475,578,256,484,466,492,565,416,373,305,236,519,0
2,1768494472256,1186,430,10193,438601,-96516,-114842,0,0,0,486,588,252,499,480,503,554,401,373,303,229,538,0
2,1768494472272,1201,354,10256,524122,-120951,-136833,0,0,0,499,590,251,511,494,503,539,390,373,316,222,561,0
2,1768494472288,1249,277,10380,646295,-149051,-166155,0,0,0,500,596,241,511,503,508,541,372,387,304,218,567,0
2,1768494472304,1349,153,10658,828333,-178372,-200363,0,0,0,506,609,236,527,510,525,535,356,400,314,221,577,0
2,1768494472320,1397,52,11036,1038470,-163711,-249233,0,0,0,524,609,224,534,519,523,522,350,401,322,222,583,0
2,1768494472336,1105,67,11538,1233947,-76969,-291993,0,0,0,543,616,223,535,520,526,499,343,405,323,221,594,0
2,1768494472352,914,19,12285,1506393,1221,-274889,0,0,0,551,623,213,532,524,524,485,346,411,333,228,610,0
2,1768494472368,765,0,13180,1908343,26878,-224798,0,0,0,556,621,212,546,538,533,456,342,408,326,223,617,0
2,1768494472384,684,-62,13792,2426356,19547,-133168,0,0,0,559,614,209,547,542,547,414,339,411,333,228,619,0
2,1768494472400,1119,-172,14510,2961474,36651,-75747,0,0,0,563,609,207,540,543,550,368,328,407,334,231,622,0
2,1768494472416,2278,-272,15735,3602883,17104,-136833,0,0,0,565,607,205,532,549,544,328,298,409,316,219,620,0
2,1768494472432,3082,-330,17554,4390899,-89186,-366519,0,0,0,565,600,210,526,549,546,296,248,420,298,210,610,0
2,1768494472448,3498,-421,20430,5376835,-251676,-626747,0,0,0,556,588,219,524,536,546,273,189,416,282,200,573,0
2,1768494472464,4321,-918,24130,6371324,-439822,-825889,0,0,0,522,576,209,518,520,516,265,153,388,265,176,514,0
2,1768494472480,5881,-1990,28509,7338934,-581543,-1023810,0,0,0,482,558,185,500,510,488,259,155,350,253,168,485,0
2,1768494472496,6518,-1938,31136,8046316,-488692,-1271821,0,0,0,420,517,161,460,478,447,263,156,323,245,164,444,0
2,1768494472512,5570,536,33414,8487361,-348193,-1544267,0,0,0,344,479,156,406,404,391,296,191,295,223,149,374,0
2,1768494472528,6776,5451,32945,8530122,-359188,-1782504,0,0,0,233,429,148,353,350,346,327,253,271,162,148,194,0
2,1768494472544,8772,14443,24723,7808079,-445931,-2083050,0,0,0,239,436,157,353,353,353,323,259,277,166,161,208,0
2,1768494472560,8217,22809,12672,6056117,-649960,-2315179,0,0,0,238,434,157,337,355,343,312,262,263,163,160,203,0
2,1768494472576,5857,25671,8734,1865582,-908967,-1794722,0,0,0,240,431,157,329,351,334,307,266,248,160,163,196,0
2,1768494472592,3943,21043,10179,-2652376,-1109331,-816115,0,0,0,240,428,152,330,350,333,305,274,240,158,166,187,0
2,1768494472608,5455,11509,8509,-4757418,-1263269,-182037,0,0,0,227,434,147,323,347,325,296,272,233,187,216,181,0
2,1768494472624,7829,7083,4934,-4748866,-827111,-328645,0,0,0,219,434,143,315,349,319,293,282,229,179,213,176,0
2,1768494472640,7178,6862,4642,-4718323,173485,-734260,0,0,0,221,429,143,314,353,316,294,301,225,149,176,167,0
2,1768494472656,4690,7102,6791,-5170363,968832,-918741,0,0,0,227,426,156,316,352,320,288,310,225,150,185,163,0
2,1768494472672,2732,6441,9375,-5833763,1218065,-734260,0,0,0,232,420,177,315,351,331,281,314,230,161,208,169,0
2,1768494472688,2895,4929,10279,-6092769,1318247,-393397,0,0,0,225,423,178,313,346,327,280,309,225,170,221,165,0
2,1768494472704,2943,3637,11414,-6128200,1617571,-12217,0,0,0,232,419,169,320,352,325,286,319,224,151,190,160,0
2,1768494472720,2416,3512,13065,-6118426,1872912,289550,0,0,0,230,415,145,325,356,318,290,321,220,155,196,157,0
2,1768494472736,2167,3694,15534,-6322455,2048842,654847,0,0,0,233,415,146,323,355,318,293,326,220,153,198,156,0
2,1768494472752,2191,3412,18042,-6629109,2201558,928515,0,0,0,233,414,144,320,368,319,293,328,224,153,198,156,0
2,1768494472768,2072,2603,20866,-6862460,2342057,1087340,0,0,0,230,412,148,323,354,331,292,329,228,152,195,159,0
2,1768494472784,1871,1909,24292,-6994406,2432465,1296256,0,0,0,231,413,150,326,351,334,294,325,232,152,191,160,0
2,1768494472800,1584,526,28456,-7099475,2428800,1775174,0,0,0,232,414,149,327,350,334,297,325,233,153,189,160,0
2,1768494472816,1268,-3747,32313,-7171557,2362826,2434908,0,0,0,231,420,147,332,349,334,299,321,235,154,187,160,0
2,1768494472832,440,-11854,34486,-7007846,2216219,2816088,0,0,0,236,421,160,335,353,347,305,330,249,154,189,162,0
2,1768494472848,851,-23096,32859,-6345668,1541823,2526538,0,0,0,235,420,165,334,357,357,308,338,259,152,191,166,0
2,1768494472864,4479,-34347,25666,-5142263,728151,1503950,0,0,0,232,422,160,332,361,358,308,343,262,151,193,171,0
2,1768494472880,5001,-41507,15300,-3359758,807563,-311541,0,0,0,234,425,160,332,363,356,309,345,262,153,193,173,0
2,1768494472896,-5848,-42325,12763,-1611462,1277930,-1583362,0,0,0,235,424,162,332,363,355,307,344,259,153,192,171,0
2,1768494472912,-14055,-40952,14434,81855,547335,-1632231,0,0,0,234,417,161,333,356,355,322,374,252,164,232,159,0
2,1768494472928,-8973,-34347,16836,1591914,-684169,-873537,0,0,0,237,390,152,322,334,338,382,447,239,204,345,138,0
2,1768494472944,-2737,-11854,22833,3315776,-2243097,9773,0,0,0,249,336,139,297,303,296,434,468,226,272,421,132,0
2,1768494472960,1062,12644,19181,4709770,-3742160,934623,0,0,0,242,344,153,295,280,330,418,504,238,354,477,147,0
2,1768494472976,-1617,7102,15271,5992587,-2388483,1444085,0,0,0,261,360,153,327,281,337,498,512,254,308,450,159,0
2,1768494472992,-5384,-3713,21569,5766567,-398284,943175,0,0,0,266,379,154,358,298,358,528,529,266,338,460,176,0
2,1768494473008,-2541,-4441,23670,4073249,6108,-144164,0,0,0,276,414,174,382,312,384,565,564,291,352,483,216,0
2,1768494473024,2330,224,16013,2346944,-408057,-222354,0,0,0,278,450,198,403,349,413,589,588,317,365,497,269,0
2,1768494473040,2579,1062,10667,1119105,-470366,160046,0,0,0,302,483,222,421,376,434,604,605,333,388,502,325,0
2,1768494473056,880,-81,10385,431270,-316428,208915,0,0,0,331,500,237,427,390,442,616,617,337,434,526,351,0
2,1768494473072,483,47,10614,94073,-227241,48869,0,0,0,351,508,245,429,398,447,626,626,349,449,530,368,0
2,1768494473088,1005,885,10346,42760,-180816,-47647,0,0,0,359,512,249,435,402,451,630,630,357,431,514,384,0
2,1768494473104,1143,1028,10074,48869,-105068,-8552,0,0,0,366,517,252,442,404,454,634,634,349,458,534,378,0
2,1768494473120,1048,923,10040,40317,-63529,2443,0,0,0,379,524,262,444,409,460,634,633,341,488,557,362,0
2,1768494473136,971,909,10093,45204,-59864,-15882,0,0,0,391,525,261,442,410,462,617,617,334,422,508,375,0
2,1768494473152,985,985,10083,96516,-50090,-34208,0,0,0,398,531,261,438,405,460,614,614,326,406,479,384,0
2,1768494473168,990,1014,10050,180816,-32986,-37873,0,0,0,401,533,261,438,404,458,606,607,332,381,448,397,0
2,1768494473184,966,928,10011,250454,-15882,-35430,0,0,0,407,540,261,446,409,459,601,591,333,340,399,406,0
2,1768494473200,966,827,9978,280998,1221,-32986,0,0,0,420,543,262,441,412,450,588,564,335,351,443,417,0
2,1768494473216,1024,789,9959,271224,14660,-35430,0,0,0,421,547,267,440,417,452,589,555,340,315,352,425,0
2,1768494473232,1081,765,9935,256563,6108,-42760,0,0,0,422,544,258,450,434,459,580,540,348,308,326,436,0
2,1768494473248,1110,741,9930,256563,-14660,-50090,0,0,0,430,550,257,459,438,461,575,523,358,310,313,442,0
2,1768494473264,1124,693,9944,268780,-46425,-62308,0,0,0,441,557,259,465,443,463,573,505,366,344,334,446,0
2,1768494473280,1110,650,9978,288328,-74525,-75747,0,0,0,450,560,258,472,453,467,563,483,366,416,397,449,0
2,1768494473296,1057,612,10016,312763,-83077,-86742,0,0,0,464,566,262,484,466,479,558,463,372,468,426,461,0
2,1768494473312,1052,579,10064,343306,-80634,-95294,0,0,0,479,573,260,494,473,499,556,443,371,424,360,487,0
2,1768494473328,1124,526,10112,394618,-74525,-109955,0,0,0,486,579,255,500,476,508,556,424,372,338,270,521,0
2,1768494473344,1196,464,10222,476474,-87964,-139277,0,0,0,494,589,260,509,484,509,556,408,387,305,233,549,0
2,1768494473360,1234,392,10433,586430,-119729,-173485,0,0,0,507,602,259,520,495,527,547,390,393,307,225,565,0
2,1768494473376,1354,263,10715,725707,-166155,-217468,0,0,0,522,605,256,529,501,523,541,385,399,317,221,572,0
2,1768494473392,1550,157,11222,949284,-241902,-277332,0,0,0,535,610,230,528,510,523,534,366,405,312,218,587,0
2,1768494473408,1296,239,12165,1309695,-278554,-340862,0,0,0,534,614,213,544,537,534,508,369,410,325,226,601,0
2,1768494473424,703,282,12950,1672549,-197920,-333532,0,0,0,540,615,215,543,530,533,481,357,407,339,239,612,0
2,1768494473440,320,205,13500,2131919,-79412,-235793,0,0,0,560,624,221,539,533,525,450,352,410,327,227,615,0
2,1768494473456,612,76,14151,2614503,-36651,-129503,0,0,0,559,615,209,545,549,535,403,347,398,325,223,611,0
2,1768494473472,1488,-52,15080,3188716,-43982,-106290,0,0,0,571,608,210,539,549,552,348,333,389,313,226,622,0
2,1768494473488,2349,-86,16434,3931528,-86742,-251676,0,0,0,576,607,222,522,545,532,311,304,393,307,214,612,0
2,1768494473504,2770,-71,18291,4720766,-138055,-447153,0,0,0,569,604,218,524,539,515,294,244,397,292,201,593,0
2,1768494473520,3570,-172,20933,5663942,-216246,-665843,0,0,0,543,585,205,521,529,520,274,185,383,272,184,539,0
2,1768494473536,4613,-1000,25144,6781825,-354301,-905302,0,0,0,504,570,191,510,525,506,261,159,367,264,175,501,0
2,1768494473552,5690,-1727,28719,7652919,-318871,-1112996,0,0,0,459,548,173,490,512,471,257,162,351,258,171,477,0
2,1768494473568,5594,-741,31442,8382292,-149051,-1398881,0,0,0,400,509,158,451,463,432,272,179,324,241,161,428,0
2,1768494473584,5015,2019,33256,8701164,-127059,-1656666,0,0,0,311,466,153,396,392,386,311,218,289,205,152,327,0
2,1768494473600,7111,8011,30016,8426275,-356745,-1912008,0,0,0,236,431,149,355,353,347,318,275,272,154,149,190,0
2,1768494473616,9136,17473,18990,7349930,-581543,-2246762,0,0,0,238,438,158,355,357,362,313,280,275,159,155,207,0
2,1768494473632,9064,25503,9820,4415333,-574213,-2338392,0,0,0,242,439,151,347,357,342,311,282,266,159,155,192,0
2,1768494473648,6197,27523,8844,-271224,-463035,-1841147,0,0,0,241,435,155,327,350,332,301,288,247,155,161,192,0
2,1768494473664,3455,19564,11016,-4488637,-768468,-866206,0,0,0,238,432,153,326,353,332,301,295,240,149,162,181,0
2,1768494473680,5876,10715,7494,-5172806,-1012814,-458148,0,0,0,231,429,149,321,351,328,297,308,236,144,162,174,0
2,1768494473696,8485,6240,3713,-4869817,-353080,-602313,0,0,0,226,430,149,320,354,324,288,298,227,154,185,170,0
2,1768494473712,6810,6996,4733,-4944343,872315,-923628,0,0,0,227,423,151,320,359,325,289,313,227,150,185,168,0
2,1768494473728,3015,7427,8662,-5805663,1393994,-757472,0,0,0,232,421,149,323,362,322,287,321,221,150,189,162,0
2,1768494473744,1952,5934,10796,-6411641,1380555,-322536,0,0,0,231,422,149,320,358,318,283,321,218,160,207,158,0
2,1768494473760,3038,3622,11337,-6388428,1494176,117286,0,0,0,230,421,149,320,355,317,283,319,218,167,222,155,0
2,1768494473776,3120,2603,12586,-6140417,1843591,423940,0,0,0,230,420,149,323,354,321,284,317,220,173,235,154,0
2,1768494473792,2191,3043,15171,-6085439,2100154,712268,0,0,0,229,421,149,323,354,326,284,319,222,178,244,156,0
2,1768494473808,2105,3335,17994,-6425080,2147802,1006705,0,0,0,232,421,149,323,353,322,285,323,219,177,246,151,0
2,1768494473824,2287,2593,20732,-6790377,2245540,1222952,0,0,0,232,420,149,323,349,322,288,323,224,180,242,156,0
2,1768494473840,2144,1210,23847,-6897890,2371378,1414763,0,0,0,233,418,148,325,350,324,288,319,224,181,240,156,0
2,1768494473856,2024,177,27662,-6910107,2415361,1762957,0,0,0,233,422,149,329,355,331,294,325,231,178,235,155,0
2,1768494473872,2086,-1823,31485,-7009067,2350609,2383596,0,0,0,231,421,144,329,343,330,294,316,231,181,230,161,0
2,1768494473888,1899,-8662,33773,-7015176,2257757,2971248,0,0,0,238,427,160,328,343,336,301,317,244,181,226,162,0
2,1768494473904,1828,-18664,33577,-6614448,1915673,3071430,0,0,0,230,426,159,331,349,346,303,317,250,182,227,163,0
2,1768494473920,3359,-31103,26685,-5415931,1227839,2230879,0,0,0,227,427,159,332,352,351,306,317,255,182,226,165,0
2,1768494473936,1957,-39837,17348,-3670078,1058018,773355,0,0,0,228,429,161,332,352,353,308,320,260,183,227,169,0
2,1768494473952,-5991,-42292,12620,-1744631,1244943,-691499,0,0,0,232,430,161,335,354,355,308,321,257,185,228,169,0
2,1768494473968,-10581,-40875,13701,-337197,513126,-1198517,0,0,0,234,418,161,334,345,348,317,347,249,179,215,166,0
2,1768494473984,-7724,-36688,14673,1102000,-522900,-1334129,0,0,0,238,394,157,328,326,333,358,413,240,216,286,154,0
2,1768494474000,-2359,-19286,19722,2809980,-1717753,-1076344,0,0,0,247,362,148,323,299,323,392,466,236,303,404,145,0
2,1768494474016,1651,4139,19913,4290717,-3403741,-90408,0,0,0,257,345,148,324,281,328,419,479,243,332,448,151,0
2,1768494474032,3010,11605,13596,5492900,-3585778,1435533,0,0,0,266,357,155,334,290,345,472,482,254,293,432,161,0
2,1768494474048,-3560,397,17525,5578421,-1204626,1865582,0,0,0,263,366,151,348,293,358,510,517,257,363,461,165,0
2,1768494474064,-6910,-4742,22928,4427551,-18325,751364,0,0,0,267,383,159,368,297,369,552,555,273,413,487,176,0
2,1768494474080,-746,-952,19411,2757445,-464257,-565661,0,0,0,270,414,180,384,310,387,580,580,299,425,501,212,0
2,1768494474096,2890,1158,12538,1645670,-580321,-213802,0,0,0,270,447,196,399,335,417,595,595,312,486,512,250,0
2,1768494474112,1871,397,10203,838107,-395840,226020,0,0,0,275,471,217,418,363,428,620,620,324,539,570,293,0
2,1768494474128,330,-167,10677,295658,-249233,194255,0,0,0,316,487,239,426,377,443,606,607,345,411,479,346,0
2,1768494474144,325,354,10643,74525,-206472,24434,0,0,0,340,497,246,433,388,442,612,612,342,447,510,349,0
2,1768494474160,885,1005,10141,62308,-167377,-42760,0,0,0,351,502,243,438,388,444,620,620,342,431,492,362,0
2,1768494474176,866,928,10050,67195,-97738,-3665,0,0,0,357,506,244,443,389,445,618,618,337,410,468,372,0
2,1768494474192,751,832,10117,59864,-54977,3665,0,0,0,363,509,247,445,389,443,617,617,328,450,500,359,0
2,1768494474208,708,866,10169,70860,-39095,-17104,0,0,0,366,509,248,445,390,444,615,615,332,492,537,353,0
2,1768494474224,732,923,10112,122173,-18325,-29321,0,0,0,370,511,250,449,404,448,604,604,341,475,520,364,0
2,1768494474240,746,923,10040,180816,-2443,-31764,0,0,0,377,513,250,451,413,449,597,598,339,424,465,372,0
2,1768494474256,746,856,10002,219911,0,-32986,0,0,0,376,518,247,453,403,457,591,591,347,334,379,396,0
2,1768494474272,746,784,9968,245567,-1221,-35430,0,0,0,384,522,247,454,406,453,586,583,339,329,363,402,0
2,1768494474288,770,722,9954,244346,-6108,-37873,0,0,0,387,525,251,452,409,461,584,575,343,327,353,409,0
2,1768494474304,818,693,9949,224798,-25656,-45204,0,0,0,395,531,250,457,417,462,578,565,354,327,346,418,0
2,1768494474320,832,684,9944,206472,-53756,-56199,0,0,0,403,530,248,464,421,468,582,557,351,329,337,426,0
2,1768494474336,813,674,9954,208915,-79412,-64751,0,0,0,420,539,257,470,429,470,579,536,356,332,324,442,0
2,1768494474352,775,650,9983,230907,-94073,-68416,0,0,0,441,549,257,479,440,467,576,519,353,319,300,452,0
2,1768494474368,775,636,10050,271224,-103847,-68416,0,0,0,460,560,271,485,450,469,565,487,357,412,401,455,0
2,1768494474384,823,598,10150,339641,-107512,-76969,0,0,0,476,574,276,501,465,487,562,460,374,463,435,478,0
2,1768494474400,851,531,10232,416610,-105068,-97738,0,0,0,486,585,281,507,482,507,568,443,381,375,323,520,0
2,1768494474416,847,430,10289,494800,-98960,-125838,0,0,0,498,596,273,512,499,515,567,428,383,329,267,550,0
2,1768494474432,885,368,10437,594982,-106290,-153938,0,0,0,511,606,257,525,515,515,555,409,388,336,262,572,0
2,1768494474448,985,272,10734,758694,-116064,-190589,0,0,0,524,610,248,536,523,522,539,392,398,315,230,591,0
2,1768494474464,1067,162,11409,1042136,-120951,-238237,0,0,0,533,613,233,546,524,530,529,381,412,317,228,598,0
2,1768494474480,856,201,12601,1484402,-37873,-268780,0,0,0,534,613,215,557,529,530,514,371,415,328,230,605,0
2,1768494474496,583,239,13481,1920560,74525,-259006,0,0,0,544,618,213,556,541,541,477,356,433,321,230,623,0
2,1768494474512,545,167,14060,2444682,108734,-197920,0,0,0,553,623,213,550,548,532,458,354,414,321,230,630,0
2,1768494474528,1062,71,14859,3020117,61086,-149051,0,0,0,553,611,206,554,558,553,398,356,415,323,236,627,0
2,1768494474544,1976,28,16027,3638313,-24434,-211359,0,0,0,565,616,206,538,553,548,326,343,404,311,237,623,0
2,1768494474560,2440,100,17788,4453207,-135612,-412944,0,0,0,562,605,211,527,543,537,284,293,394,288,206,613,0
2,1768494474576,2818,81,20004,5359731,-211359,-609643,0,0,0,554,589,200,525,539,531,270,219,383,280,194,565,0
2,1768494474592,3771,-397,23503,6466619,-310319,-813672,0,0,0,526,583,195,517,535,531,260,176,372,257,179,510,0
2,1768494474608,4996,-1354,27456,7465994,-349414,-998153,0,0,0,489,570,182,507,518,510,248,157,357,244,163,479,0
2,1768494474624,5489,-1631,30935,8321206,-160046,-1218065,0,0,0,440,534,164,483,480,462,254,167,331,239,157,450,0
2,1768494474640,4369,607,32624,8718268,-19547,-1431868,0,0,0,349,486,157,422,420,409,278,212,303,213,156,370,0
2,1768494474656,5178,4924,32529,8780576,-138055,-1659109,0,0,0,259,451,159,369,373,374,300,259,285,173,155,264,0
2,1768494474672,8461,12730,24144,7964460,-260228,-1976759,0,0,0,229,439,159,359,363,360,307,275,275,158,162,202,0
2,1768494474688,9466,21249,12668,6075665,-195476,-2357939,0,0,0,236,441,161,351,366,353,303,277,264,165,176,196,0
2,1768494474704,5805,26422,8667,2112371,-205250,-2235766,0,0,0,236,439,158,329,364,340,297,276,252,161,180,189,0
2,1768494474720,1775,21359,11576,-2393370,-1029918,-1219287,0,0,0,230,433,159,320,357,334,293,285,240,157,187,184,0
2,1768494474736,3464,12476,9930,-4704884,-1927890,-329867,0,0,0,229,428,156,321,359,337,289,294,236,155,188,182,0
2,1768494474752,8394,6996,4690,-4707327,-1717753,-210137,0,0,0,229,426,150,321,362,333,287,302,226,146,175,170,0
2,1768494474768,8738,6709,3536,-4623028,-329867,-568104,0,0,0,234,424,151,322,363,324,290,309,225,149,182,168,0
2,1768494474784,5671,7126,6173,-5125159,678060,-664621,0,0,0,230,419,151,319,364,323,280,314,223,144,182,166,0
2,1768494474800,3742,6192,8982,-5755572,827111,-339641,0,0,0,229,419,147,319,362,321,283,328,222,144,181,162,0
2,1768494474816,4795,4091,9815,-5982814,934623,91629,0,0,0,228,420,146,322,362,323,283,324,220,146,187,161,0
2,1768494474832,5106,2938,10748,-5965709,1380555,346971,0,0,0,232,418,146,324,359,321,287,328,223,176,207,159,0
2,1768494474848,4053,2995,12610,-6043900,1739744,527787,0,0,0,236,418,149,323,358,320,288,333,224,171,205,156,0
2,1768494474864,3426,3029,14802,-6278472,1931555,768468,0,0,0,236,418,149,324,358,320,286,337,222,147,194,153,0
2,1768494474880,3598,2603,16812,-6502049,2040289,957836,0,0,0,236,417,147,327,360,321,288,339,224,149,196,151,0
2,1768494474896,3570,2191,19191,-6636439,2183232,1077566,0,0,0,240,419,151,329,359,322,289,339,226,151,195,151,0
2,1768494474912,3316,2062,22254,-6735400,2293188,1182635,0,0,0,239,417,150,329,357,322,290,339,223,154,194,152,0
2,1768494474928,3254,1670,26642,-6900333,2365270,1466076,0,0,0,236,416,147,332,358,326,294,337,227,151,189,155,0
2,1768494474944,2837,-445,30696,-7035945,2458121,1954768,0,0,0,235,418,148,329,366,333,297,333,233,147,179,155,0
2,1768494474960,1062,-6049,33634,-6989520,2560747,2495995,0,0,0,236,418,152,335,355,340,302,330,239,147,177,159,0
2,1768494474976,-1153,-16286,34534,-6582683,2185675,2706133,0,0,0,234,423,152,337,355,341,305,325,244,143,173,157,0
2,1768494474992,976,-29006,30629,-5799554,1208291,2268753,0,0,0,235,427,153,338,360,342,307,325,248,143,174,160,0
2,1768494475008,5288,-40272,21244,-4437325,657290,833220,0,0,0,236,428,151,340,361,344,300,319,254,145,175,159,0
2,1768494475024,-1541,-45202,14807,-2460565,1241278,-1069014,0,0,0,236,428,153,341,364,347,303,327,253,145,175,160,0
2,1768494475040,-13711,-45604,14596,-449596,1133765,-1982868,0,0,0,228,398,150,323,336,336,350,415,241,207,297,148,0
2,1768494475056,-14922,-39980,20674,1451415,-762359,-1226617,0,0,0,236,351,145,303,292,317,392,475,246,245,370,132,0
2,1768494475072,-7001,-17688,22584,4279721,-3717725,-34208,0,0,0,250,340,150,300,278,324,431,479,256,242,392,141,0
2,1768494475088,952,3082,17362,6276029,-3935193,794124,0,0,0,258,361,158,318,287,351,475,483,263,254,415,163,0
2,1768494475104,-464,4130,18990,6465397,-1674992,1142317,0,0,0,266,381,157,347,291,365,511,511,273,290,430,174,0
2,1768494475120,-4704,-3235,24498,4875926,72082,522900,0,0,0,280,406,163,377,304,376,545,545,285,310,450,191,0
2,1768494475136,-488,-1895,19535,3056769,-327423,-124616,0,0,0,276,428,184,396,324,404,583,582,305,356,486,227,0
2,1768494475152,2603,689,12242,1683544,-597426,-23212,0,0,0,287,465,214,416,361,429,602,601,322,472,536,279,0
2,1768494475168,1555,234,10385,788016,-487470,204028,0,0,0,338,497,236,429,383,435,607,608,335,420,515,338,0
2,1768494475184,373,-282,10768,189368,-349414,145385,0,0,0,360,507,243,439,393,452,618,618,353,503,563,353,0
2,1768494475200,449,354,10744,7330,-250454,-14660,0,0,0,371,509,248,444,395,450,613,612,346,411,510,365,0
2,1768494475216,866,957,10179,30543,-180816,-34208,0,0,0,373,510,250,443,398,450,614,614,344,393,499,373,0
2,1768494475232,894,942,10016,50090,-97738,-1221,0,0,0,387,515,255,442,401,448,619,619,342,484,523,359,0
2,1768494475248,789,832,10107,57421,-43982,-2443,0,0,0,390,519,253,445,403,449,617,618,341,515,554,356,0
2,1768494475264,760,885,10136,103847,-21991,-24434,0,0,0,390,529,247,450,417,449,607,608,337,423,478,379,0
2,1768494475280,770,928,10093,177150,-2443,-34208,0,0,0,397,531,247,454,421,451,597,597,339,349,402,401,0
2,1768494475296,794,866,10040,239459,8552,-32986,0,0,0,407,533,250,455,416,453,591,589,340,339,379,410,0
2,1768494475312,832,760,10002,259006,10995,-32986,0,0,0,413,538,253,453,416,455,589,581,341,336,363,416,0
2,1768494475328,866,722,9983,259006,8552,-41538,0,0,0,417,537,254,455,418,461,585,568,351,333,348,423,0
2,1768494475344,866,703,9968,248011,0,-48869,0,0,0,422,540,254,463,426,466,582,555,357,326,332,429,0
2,1768494475360,866,670,9954,235793,-15882,-52534,0,0,0,430,545,255,464,434,466,575,536,353,322,317,438,0
2,1768494475376,894,636,9954,238237,-43982,-56199,0,0,0,438,548,258,473,431,466,570,512,348,315,299,451,0
2,1768494475392,909,598,9973,254119,-70860,-63529,0,0,0,450,554,258,476,437,471,570,500,356,324,297,463,0
2,1768494475408,880,574,10026,285884,-91629,-73303,0,0,0,463,562,254,481,467,473,558,475,372,461,421,463,0
2,1768494475424,861,564,10131,335975,-100181,-81855,0,0,0,481,568,265,501,467,482,549,446,366,467,410,478,0
2,1768494475440,890,507,10217,395840,-102625,-90408,0,0,0,485,589,261,503,473,501,549,429,372,333,272,510,0
2,1768494475456,952,406,10275,461814,-116064,-108734,0,0,0,503,597,270,515,482,513,546,412,375,328,251,533,0
2,1768494475472,1000,330,10351,551000,-155159,-140499,0,0,0,513,601,267,517,497,513,532,389,379,389,312,552,0
2,1768494475488,1033,258,10524,665843,-195476,-178372,0,0,0,524,604,258,521,507,519,531,381,392,360,274,568,0
2,1768494475504,1086,177,10902,853989,-254119,-216246,0,0,0,540,612,242,526,516,527,528,374,396,324,228,580,0
2,1768494475520,976,129,11639,1154535,-285884,-244346,0,0,0,553,618,233,529,523,533,487,375,400,321,221,595,0
2,1768494475536,569,157,12663,1541823,-208915,-246789,0,0,0,559,623,228,533,527,536,454,370,400,324,225,609,0
2,1768494475552,363,124,13280,1924225,-72082,-200363,0,0,0,562,626,217,539,535,537,448,356,392,332,235,613,0
2,1768494475568,512,67,14142,2464230,-2443,-119729,0,0,0,565,624,212,543,541,540,408,360,392,332,237,615,0
2,1768494475584,1402,-19,15338,3050661,-70860,-96516,0,0,0,575,626,221,522,533,532,368,340,391,327,234,621,0
2,1768494475600,2603,-81,16860,3837455,-205250,-263893,0,0,0,578,620,211,516,541,521,316,322,395,319,232,614,0
2,1768494475616,3005,-33,18932,4736649,-301767,-540004,0,0,0,561,609,212,516,545,518,299,277,395,289,210,602,0
2,1768494475632,3359,119,22196,5838649,-389732,-780685,0,0,0,542,600,216,519,534,513,287,206,386,275,194,544,0
2,1768494475648,4962,-732,26345,6994406,-590095,-998153,0,0,0,493,570,183,499,521,501,247,165,369,265,178,507,0
2,1768494475664,7441,-1976,30117,7914370,-693942,-1266934,0,0,0,455,557,173,479,508,475,235,157,340,262,178,491,0
2,1768494475680,7255,-603,32447,8553335,-531452,-1688431,0,0,0,385,518,159,439,454,432,259,184,316,245,176,431,0
2,1768494475696,6451,2325,33998,8848993,-572991,-2068389,0,0,0,266,461,150,378,396,377,292,241,287,187,166,270,0
2,1768494475712,8949,7303,30586,8521570,-828333,-2351831,0,0,0,216,441,152,355,373,361,307,271,275,166,177,206,0
2,1768494475728,11505,16855,17382,7087258,-764803,-2768441,0,0,0,224,443,156,353,368,357,303,273,267,174,186,211,0
2,1768494475744,10433,24168,7370,4309043,-498466,-2967583,0,0,0,231,440,155,343,365,346,295,273,251,188,189,200,0
2,1768494475760,5575,23618,7977,-61086,-388510,-2183232,0,0,0,232,438,155,334,364,342,291,278,241,192,194,191,0
2,1768494475776,3015,16482,9049,-3662747,-755029,-784350,0,0,0,229,436,159,328,364,339,287,285,238,165,191,187,0
2,1768494475792,6637,9107,5273,-4375016,-824668,180816,0,0,0,226,433,157,323,363,337,283,292,236,162,195,184,0
2,1768494475808,8834,6384,2957,-4290717,-64751,381179,0,0,0,228,426,156,327,372,339,279,303,228,161,200,176,0
2,1768494475824,6824,6317,4393,-4373795,1116661,263893,0,0,0,228,424,155,318,378,331,277,317,225,160,211,169,0
2,1768494475840,3924,6073,7379,-4809952,1413542,375071,0,0,0,228,424,154,319,370,330,277,320,225,163,216,169,0
2,1768494475856,3393,5278,9011,-5171585,1448972,560774,0,0,0,224,422,152,318,367,323,277,323,223,165,217,166,0
2,1768494475872,3747,4642,10155,-5483126,1648114,685390,0,0,0,224,423,164,316,367,333,278,325,223,167,222,162,0
2,1768494475888,2933,4331,11969,-5827654,1947438,763581,0,0,0,230,425,158,319,373,328,278,331,223,168,226,159,0
2,1768494475904,2086,3689,13864,-6124534,2098932,878424,0,0,0,231,422,149,321,375,323,281,336,221,178,231,157,0
2,1768494475920,1608,2900,15951,-6272364,2166128,1005484,0,0,0,231,421,148,297,396,308,285,339,223,175,232,155,0
2,1768494475936,1287,2531,17980,-6340781,2232101,1081231,0,0,0,234,419,150,303,393,312,287,341,225,169,230,155,0
2,1768494475952,928,2373,20851,-6475171,2301740,1149648,0,0,0,233,417,150,322,378,324,287,341,226,169,227,157,0
2,1768494475968,938,2153,24182,-6692639,2283414,1282817,0,0,0,230,416,148,322,378,327,287,337,229,168,221,158,0
2,1768494475984,1273,1521,28097,-6902777,2218662,1524719,0,0,0,234,417,150,324,378,330,287,332,232,165,210,158,0
2,1768494476000,1430,-1742,31940,-7039611,2146580,1857030,0,0,0,240,419,157,329,374,333,297,330,238,166,208,161,0
2,1768494476016,1167,-8743,34711,-7021285,2054950,2039068,0,0,0,237,419,149,328,369,332,301,327,241,165,200,160,0
2,1768494476032,1392,-20291,34132,-6620557,1716531,1762957,0,0,0,232,422,148,334,376,340,307,326,249,163,199,160,0
2,1768494476048,3488,-32696,27169,-5550321,1236391,812450,0,0,0,236,433,153,336,361,343,305,320,248,165,195,163,0
2,1768494476064,1871,-43215,17109,-3712838,1276708,-616973,0,0,0,231,433,153,338,365,346,305,328,251,165,200,166,0
2,1768494476080,-8322,-46297,11921,-1507615,1666440,-1684766,0,0,0,233,426,153,338,366,345,305,328,246,164,201,164,0
2,1768494476096,-14362,-43804,13821,287106,696386,-1398881,0,0,0,233,425,154,337,365,344,303,329,243,198,217,164,0
2,1768494476112,-9920,-37884,15204,1870469,-576656,-763581,0,0,0,229,418,154,337,359,345,348,429,242,205,302,148,0
2,1768494476128,-3043,-17578,19928,3336545,-1424537,-95294,0,0,0,237,361,146,306,303,326,404,468,240,209,359,144,0
2,1768494476144,-71,12797,21823,4087910,-3018896,1045801,0,0,0,246,339,150,300,282,330,456,474,249,269,407,143,0
2,1768494476160,-1387,21153,13462,4717101,-4315152,2342057,0,0,0,247,334,152,317,271,348,489,518,251,374,480,150,0
2,1768494476176,-7054,1651,16525,5621181,-2323731,1892460,0,0,0,254,347,156,343,272,364,533,570,265,449,530,160,0
2,1768494476192,-6633,-7408,24742,5079955,-434936,350636,0,0,0,264,385,170,369,301,383,582,598,291,480,545,181,0
2,1768494476208,478,-2278,21071,3083647,-371406,-282219,0,0,0,265,423,188,389,336,410,602,612,307,507,563,232,0
2,1768494476224,3220,1052,13539,1307251,-481361,-21991,0,0,0,278,458,205,416,357,432,621,624,323,524,575,289,0
2,1768494476240,875,311,9140,372627,-295658,340862,0,0,0,320,496,228,437,388,447,625,628,332,527,578,324,0
2,1768494476256,358,-52,9873,243124,-129503,135612,0,0,0,353,510,230,446,403,453,630,631,343,532,581,346,0
2,1768494476272,904,425,10428,171042,-138055,-34208,0,0,0,371,517,238,453,405,464,612,636,355,533,595,378,0
2,1768494476288,1210,832,10265,130725,-174707,-26878,0,0,0,394,525,262,460,411,467,628,635,347,544,591,383,0
2,1768494476304,1057,722,10054,144164,-138055,4886,0,0,0,408,530,259,461,422,469,627,628,344,571,603,393,0
2,1768494476320,933,631,10078,178372,-117286,0,0,0,0,427,540,261,462,433,473,627,617,351,508,524,424,0
2,1768494476336,899,689,10203,223576,-95294,-24434,0,0,0,436,544,259,465,451,472,618,588,352,495,498,437,0
2,1768494476352,923,703,10193,285884,-35430,-35430,0,0,0,441,551,259,466,444,479,607,568,355,464,454,442,0
2,1768494476368,942,593,10102,337197,25656,-41538,0,0,0,437,551,251,476,440,485,596,552,358,374,357,460,0
2,1768494476384,957,497,10026,337197,48869,-48869,0,0,0,437,551,253,482,445,487,586,532,363,318,292,477,0
2,1768494476400,1009,445,10002,326202,54977,-58643,0,0,0,446,558,257,482,449,485,580,506,370,359,324,479,0
2,1768494476416,1095,425,10021,324980,39095,-75747,0,0,0,452,561,252,485,458,484,575,481,372,440,399,476,0
2,1768494476432,1153,392,10026,342084,-10995,-95294,0,0,0,459,560,255,491,472,487,570,465,373,430,379,488,0
2,1768494476448,1139,335,10002,351858,-76969,-114842,0,0,0,469,565,250,501,470,494,575,455,380,324,253,514,0
2,1768494476464,1014,272,9983,342084,-119729,-122173,0,0,0,481,569,251,502,471,496,567,438,381,333,259,528,0
2,1768494476480,947,229,10016,335975,-128281,-114842,0,0,0,481,577,248,497,476,503,561,406,396,437,364,514,0
2,1768494476496,1005,186,10150,365297,-125838,-108734,0,0,0,495,589,248,513,506,509,563,406,385,318,232,542,0
2,1768494476512,1162,129,10327,450818,-158824,-124616,0,0,0,501,594,245,513,507,518,548,396,383,303,218,558,0
2,1768494476528,1273,62,10457,571769,-235793,-160046,0,0,0,509,603,241,522,501,520,549,393,391,311,218,569,0
2,1768494476544,1244,-52,10514,717155,-293215,-208915,0,0,0,514,599,225,531,508,518,539,380,398,320,218,584,0
2,1768494476560,1038,-143,10720,875980,-263893,-250454,0,0,0,527,603,219,533,515,523,527,375,401,325,222,592,0
2,1768494476576,679,-134,11356,1053131,-158824,-255341,0,0,0,537,610,216,535,525,526,506,367,419,324,224,597,0
2,1768494476592,780,-177,12151,1302364,-81855,-227241,0,0,0,543,613,212,540,534,527,483,359,424,331,227,603,0
2,1768494476608,713,-162,13103,1725083,-20769,-199142,0,0,0,546,614,208,546,544,537,456,354,407,336,230,608,0
2,1768494476624,492,-167,13740,2205223,-3665,-144164,0,0,0,552,613,208,548,549,546,420,350,400,330,229,615,0
2,1768494476640,1009,-320,14510,2784323,10995,-97738,0,0,0,563,612,213,545,547,539,381,346,402,330,227,620,0
2,1768494476656,2029,-416,15821,3466049,-3665,-152716,0,0,0,569,619,215,551,555,533,340,319,402,313,224,615,0
2,1768494476672,2751,-373,17803,4306599,-67195,-368962,0,0,0,569,603,214,535,538,537,320,285,405,295,203,604,0
2,1768494476688,2933,-272,20579,5325523,-119729,-602313,0,0,0,568,592,226,544,546,553,273,202,405,280,177,569,0
2,1768494476704,3699,-531,24441,6510601,-196698,-785572,0,0,0,520,573,202,533,531,532,272,158,394,273,172,504,0
2,1768494476720,5273,-1660,28954,7564955,-251676,-960280,0,0,0,480,560,180,509,508,501,265,160,368,263,167,488,0
2,1768494476736,5537,-1718,32371,8425053,-108734,-1193630,0,0,0,420,529,160,463,476,448,263,173,330,253,165,448,0
2,1768494476752,3866,550,34788,8924741,2443,-1414763,0,0,0,340,482,159,405,412,400,286,207,307,217,153,364,0
2,1768494476768,4642,6235,33596,8889310,-355523,-1560149,0,0,0,267,452,162,368,373,371,312,259,290,171,153,244,0
2,1768494476784,7169,16027,24340,8119620,-735481,-1744631,0,0,0,247,438,163,361,364,371,318,282,287,156,156,206,0
2,1768494476800,7298,23685,12806,5922949,-882089,-1809382,0,0,0,248,433,162,355,366,361,313,284,275,156,158,200,0
2,1768494476816,5034,27054,8174,1555262,-995710,-1353677,0,0,0,248,433,162,341,363,345,306,287,258,153,160,191,0
2,1768494476832,2622,20086,10576,-2867401,-1517389,-412944,0,0,0,246,428,160,331,360,340,293,293,249,147,163,183,0
2,1768494476848,4039,10935,9451,-4995655,-2184454,174707,0,0,0,243,423,157,328,361,337,287,297,242,145,166,175,0
2,1768494476864,8332,5829,4828,-4959004,-2127032,31764,0,0,0,243,423,157,325,363,331,297,304,232,147,170,172,0
2,1768494476880,8920,6020,3732,-4930904,-985936,-430049,0,0,0,240,422,153,322,363,325,293,316,229,147,181,167,0
2,1768494476896,6556,6479,5800,-5319414,-26878,-572991,0,0,0,231,422,149,321,360,325,288,317,222,150,199,165,0
2,1768494476912,5302,5656,8111,-5716476,249233,-196698,0,0,0,233,420,153,320,361,324,289,329,226,145,189,163,0
2,1768494476928,5723,4556,9466,-5948605,500909,237015,0,0,0,236,420,151,320,358,322,289,328,226,150,193,161,0
2,1768494476944,5972,3790,11036,-6159965,963945,570548,0,0,0,233,419,151,321,357,323,296,330,227,147,186,158,0
2,1768494476960,4972,3101,13409,-6478836,1352455,723264,0,0,0,246,425,156,321,350,320,291,325,223,147,183,155,0
2,1768494476976,4091,2038,15673,-6748839,1560149,752585,0,0,0,241,419,154,324,354,323,294,332,228,151,187,157,0
2,1768494476992,3598,1134,17827,-6844134,1688431,583987,0,0,0,238,416,154,325,353,325,297,336,230,150,189,155,0
2,1768494477008,3216,813,20234,-6877120,1837482,351858,0,0,0,240,417,154,323,353,323,295,337,229,146,187,154,0
2,1768494477024,2943,890,23618,-6925990,2013411,190589,0,0,0,237,415,154,324,352,325,292,332,229,144,181,154,0
2,1768494477040,3072,373,28102,-6980967,2149023,375071,0,0,0,238,414,154,330,352,329,296,327,232,145,179,155,0
2,1768494477056,3417,-2163,31911,-7013954,2261423,827111,0,0,0,241,417,155,332,354,334,304,327,240,148,181,157,0
2,1768494477072,3139,-8863,34079,-6952868,2420248,1396437,0,0,0,238,418,154,331,355,341,308,328,246,147,179,159,0
2,1768494477088,1895,-20583,33084,-6503271,2251649,1544267,0,0,0,236,418,155,335,360,346,309,328,249,148,182,161,0
2,1768494477104,1450,-31662,28102,-5615073,1803274,1172861,0,0,0,238,423,159,339,360,349,310,328,253,154,197,166,0
2,1768494477120,-1507,-41373,18841,-3843564,1584584,235793,0,0,0,241,425,161,333,354,346,313,326,261,160,202,167,0
2,1768494477136,-9203,-44862,14247,-1820378,1468520,-546113,0,0,0,239,425,161,337,360,351,308,325,257,160,208,167,0
2,1768494477152,-13318,-45599,13448,-51312,653625,-927293,0,0,0,225,396,150,326,333,344,354,431,245,163,265,143,0
2,1768494477168,-12127,-35654,18975,1762957,-919963,-830776,0,0,0,236,338,144,298,276,319,392,483,230,345,449,144,0
2,1768494477184,-6992,-7791,21651,4224743,-3535688,-68416,0,0,0,246,337,150,300,284,337,449,479,252,359,455,169,0
2,1768494477200,-990,6795,16999,6174625,-3689626,874759,0,0,0,268,340,153,333,280,357,494,498,265,309,436,169,0
2,1768494477216,-1923,2646,20086,6553362,-1662775,1133765,0,0,0,275,363,155,362,285,369,519,519,280,307,439,175,0
2,1768494477232,-3905,-4848,25814,4863709,45204,263893,0,0,0,280,395,170,378,301,384,549,549,302,309,445,200,0
2,1768494477248,473,-1689,19191,2943148,-262672,-171042,0,0,0,280,425,189,397,325,412,578,578,323,329,459,249,0
2,1768494477264,2522,727,12170,1573588,-465479,19547,0,0,0,291,461,215,418,357,436,600,600,333,401,499,298,0
2,1768494477280,1507,253,9719,674395,-415388,274889,0,0,0,324,492,244,436,385,450,618,618,338,501,552,329,0
2,1768494477296,612,-186,10571,232128,-302989,134390,0,0,0,355,503,254,442,394,456,628,627,343,557,577,339,0
2,1768494477312,650,320,10662,74525,-233350,-6108,0,0,0,371,514,255,439,395,450,631,631,336,557,582,343,0
2,1768494477328,1000,942,10122,78190,-167377,-32986,0,0,0,386,520,260,443,395,451,633,636,331,560,590,354,0
2,1768494477344,976,866,10007,86742,-101403,-3665,0,0,0,391,520,258,451,399,455,629,629,352,550,578,361,0
2,1768494477360,894,789,10126,112399,-75747,-13439,0,0,0,407,519,261,455,409,459,619,618,364,488,528,391,0
2,1768494477376,856,808,10141,173485,-61086,-30543,0,0,0,421,532,264,458,412,458,603,604,365,371,412,415,0
2,1768494477392,861,794,10088,234572,-32986,-35430,0,0,0,419,533,257,459,420,465,599,598,362,344,377,431,0
2,1768494477408,899,727,10035,278554,0,-35430,0,0,0,428,535,256,461,421,461,589,585,365,329,348,439,0
2,1768494477424,928,636,10007,298102,6108,-41538,0,0,0,430,537,259,461,426,466,590,567,366,347,349,443,0
2,1768494477440,947,593,10007,302989,2443,-50090,0,0,0,442,544,260,467,431,471,587,552,374,324,316,453,0
2,1768494477456,961,583,10011,290771,-2443,-63529,0,0,0,446,551,258,470,433,473,577,526,383,308,293,462,0
2,1768494477472,995,559,10002,284663,-18325,-73303,0,0,0,452,556,261,478,445,479,568,505,388,307,282,473,0
2,1768494477488,1033,502,10007,294437,-47647,-83077,0,0,0,459,559,263,485,457,484,563,483,397,384,345,477,0
2,1768494477504,1005,430,10016,313984,-89186,-94073,0,0,0,467,564,267,486,462,487,552,456,397,469,421,476,0
2,1768494477520,923,387,10026,332310,-119729,-97738,0,0,0,483,575,273,486,467,490,541,435,391,465,413,490,0
2,1768494477536,885,368,10117,355523,-125838,-95294,0,0,0,500,582,272,492,478,499,544,429,399,420,359,517,0
2,1768494477552,952,335,10251,405614,-135612,-97738,0,0,0,504,589,267,504,482,510,544,426,402,322,250,549,0
2,1768494477568,1086,272,10337,486248,-164933,-116064,0,0,0,502,600,249,518,493,517,534,398,385,317,242,566,0
2,1768494477584,1191,157,10514,621860,-227241,-161268,0,0,0,518,607,250,528,508,525,536,386,388,299,227,576,0
2,1768494477600,1172,38,10753,803898,-296880,-211359,0,0,0,536,611,245,527,518,528,518,368,393,391,304,596,0
2,1768494477616,981,-14,11131,1036027,-323758,-245567,0,0,0,533,622,222,535,534,523,506,367,393,325,228,594,0
2,1768494477632,732,0,11873,1292590,-244346,-241902,0,0,0,547,624,224,539,540,525,474,359,396,321,230,598,0
2,1768494477648,545,-14,12744,1609019,-139277,-217468,0,0,0,548,621,216,547,554,529,449,351,409,329,238,603,0
2,1768494477664,478,-67,13486,2024407,-81855,-167377,0,0,0,557,623,214,544,542,536,421,350,413,328,231,607,0
2,1768494477680,713,-153,14185,2618168,-74525,-108734,0,0,0,564,624,213,538,542,534,382,339,404,330,230,614,0
2,1768494477696,1421,-234,15242,3224146,-91629,-117286,0,0,0,570,621,215,531,545,532,339,325,404,323,229,616,0
2,1768494477712,2325,-191,17267,4030488,-152716,-274889,0,0,0,574,618,217,519,540,529,300,298,407,300,212,607,0
2,1768494477728,2914,-100,19846,4946786,-244346,-483805,0,0,0,568,610,218,514,539,521,275,240,399,278,192,580,0
2,1768494477744,3972,-157,23297,6092769,-420275,-737925,0,0,0,541,597,212,509,531,508,263,180,382,269,181,537,0
2,1768494477760,5671,-1268,27839,7206988,-696386,-1004262,0,0,0,498,580,192,490,506,487,250,161,363,264,171,503,0
2,1768494477776,7370,-1856,31351,8115955,-802676,-1326799,0,0,0,445,551,171,469,479,462,246,167,341,257,168,474,0
2,1768494477792,6834,263,33213,8687725,-711047,-1732413,0,0,0,363,495,168,412,424,417,274,200,306,225,162,402,0
2,1768494477808,7394,3508,33553,8797681,-802676,-2035402,0,0,0,236,429,152,349,358,358,305,273,277,159,156,204,0
2,1768494477824,10954,11725,25025,7915591,-875980,-2406809,0,0,0,243,432,166,347,383,365,316,287,284,161,162,212,0
2,1768494477840,12462,20512,12672,5977927,-615752,-2806314,0,0,0,252,428,171,352,369,369,313,287,271,161,163,218,0
2,1768494477856,8557,25087,7212,2232101,-173485,-2704911,0,0,0,258,426,167,343,366,349,314,287,255,160,168,195,0
2,1768494477872,2244,21383,9944,-1896125,-415388,-1609019,0,0,0,248,427,158,322,376,333,320,299,248,154,175,187,0
2,1768494477888,2837,12605,8662,-3759264,-1374446,-140499,0,0,0,235,422,155,323,372,333,309,302,240,151,178,182,0
2,1768494477904,8006,7030,3632,-3913202,-1396437,636521,0,0,0,225,430,149,324,373,331,291,303,232,165,210,173,0
2,1768494477920,9059,6647,2167,-3788586,32986,533896,0,0,0,223,427,146,321,380,326,289,315,229,157,202,167,0
2,1768494477936,5982,7159,4422,-4144109,1094670,433714,0,0,0,229,424,151,317,383,325,290,325,228,146,188,164,0
2,1768494477952,3728,6680,7212,-4795292,1214400,566882,0,0,0,229,424,152,318,376,326,287,327,226,151,197,161,0
2,1768494477968,3881,5498,8513,-5282762,1232726,668286,0,0,0,223,421,150,319,364,326,286,327,224,154,205,159,0
2,1768494477984,3924,4278,9700,-5583308,1621236,610865,0,0,0,224,421,153,320,359,328,289,328,226,152,203,157,0
2,1768494478000,2383,4158,11706,-5788559,1908343,596204,0,0,0,228,419,153,323,360,328,293,334,228,154,206,156,0
2,1768494478016,1416,4206,13931,-6124534,2017077,680503,0,0,0,234,418,153,324,359,327,294,339,231,155,207,159,0
2,1768494478032,1263,3933,16190,-6546031,2069611,790459,0,0,0,234,415,156,324,358,331,293,341,235,149,202,156,0
2,1768494478048,923,3101,18679,-6795264,2167349,823446,0,0,0,237,416,158,324,357,332,295,342,235,148,200,151,0
2,1768494478064,679,2330,21507,-6878342,2223549,847880,0,0,0,232,415,155,323,354,331,293,344,236,148,200,152,0
2,1768494478080,957,1837,25340,-6894225,2262644,944397,0,0,0,232,413,157,327,355,340,294,340,244,149,190,158,0
2,1768494478096,928,741,29791,-7011511,2291966,1277930,0,0,0,234,415,157,325,348,338,297,336,243,157,194,159,0
2,1768494478112,416,-3756,33897,-7160562,2223549,1847256,0,0,0,232,415,154,325,345,339,305,335,248,165,201,157,0
2,1768494478128,320,-13146,35223,-6966307,1988977,2174680,0,0,0,232,418,156,329,350,343,311,337,254,164,204,158,0
2,1768494478144,2397,-25604,32792,-6331007,1445307,1976759,0,0,0,232,420,161,334,355,350,314,338,258,160,202,164,0
2,1768494478160,5144,-38358,23646,-5006651,1062905,905302,0,0,0,233,421,162,336,356,354,315,338,258,159,200,165,0
2,1768494478176,-2718,-44048,15171,-2954144,1551597,-430049,0,0,0,236,423,161,338,355,354,313,338,256,161,201,161,0
2,1768494478192,-13127,-44646,13141,-923628,1364672,-923628,0,0,0,237,422,161,339,352,354,311,339,255,158,199,160,0
2,1768494478208,-13247,-40904,14558,869872,28099,-463035,0,0,0,235,416,155,339,350,349,328,367,248,163,224,150,0
2,1768494478224,-6685,-32557,16578,2260201,-930958,-64751,0,0,0,233,390,147,334,342,344,398,461,241,211,347,137,0
2,1768494478240,268,-5963,22187,3529579,-1894903,284663,0,0,0,248,332,149,306,272,331,439,483,246,303,423,138,0
2,1768494478256,2689,15970,16697,4571715,-3295007,971275,0,0,0,251,335,169,299,272,345,482,486,257,274,418,151,0
2,1768494478272,-847,8973,13653,5938831,-2768441,1430646,0,0,0,251,344,157,334,271,369,503,556,257,417,527,151,0
2,1768494478288,-4838,-3938,21947,5780006,-956614,864985,0,0,0,270,379,171,367,294,399,566,595,295,488,550,179,0
2,1768494478304,-2167,-4800,24192,4199087,-456927,41538,0,0,0,285,430,191,412,332,430,603,613,305,515,569,248,0
2,1768494478320,2426,-291,17272,1866804,-733038,-150272,0,0,0,301,483,208,426,370,441,624,626,331,520,573,314,0
2,1768494478336,1722,282,11155,480140,-508239,105068,0,0,0,344,502,236,443,393,460,630,630,350,530,576,352,0
2,1768494478352,387,76,9375,29321,-149051,123394,0,0,0,368,512,244,449,401,464,634,636,352,552,590,365,0
2,1768494478368,574,387,10241,124616,-70860,-6108,0,0,0,387,518,245,454,407,466,634,635,345,559,594,375,0
2,1768494478384,1033,765,10380,105068,-120951,-26878,0,0,0,406,525,248,458,411,465,634,635,344,555,591,380,0
2,1768494478400,1086,842,10122,63529,-105068,-7330,0,0,0,417,530,254,453,410,460,635,636,350,550,587,386,0
2,1768494478416,957,789,10054,95294,-75747,-9773,0,0,0,423,529,259,450,411,462,627,627,352,541,580,400,0
2,1768494478432,890,804,10131,172263,-62308,-25656,0,0,0,434,530,260,461,419,469,612,610,349,513,543,422,0
2,1768494478448,890,823,10169,254119,-36651,-39095,0,0,0,446,536,262,471,423,468,586,581,362,438,452,456,0
2,1768494478464,909,751,10107,298102,4886,-40317,0,0,0,440,546,261,478,432,473,546,533,389,346,363,458,0
2,1768494478480,923,660,10040,321315,40317,-43982,0,0,0,447,541,258,475,427,476,584,556,366,357,356,466,0
2,1768494478496,942,607,10002,310319,51312,-52534,0,0,0,447,541,249,487,431,481,581,535,371,400,378,469,0
2,1768494478512,990,574,9964,293215,45204,-58643,0,0,0,447,550,253,481,440,483,584,527,381,318,279,492,0
2,1768494478528,1081,555,9964,290771,15882,-64751,0,0,0,456,557,253,477,449,486,568,489,376,398,360,492,0
2,1768494478544,1162,512,9992,309097,-42760,-83077,0,0,0,469,562,263,484,458,495,559,469,380,457,408,486,0
2,1768494478560,1143,459,10026,328645,-97738,-103847,0,0,0,474,569,268,485,463,505,553,446,389,466,416,503,0
2,1768494478576,1014,397,10059,344527,-136833,-119729,0,0,0,480,575,262,494,468,510,551,438,385,379,321,529,0
2,1768494478592,981,349,10126,367740,-149051,-118507,0,0,0,496,583,260,499,488,516,552,433,390,325,257,547,0
2,1768494478608,1115,306,10279,430049,-164933,-128281,0,0,0,510,591,262,505,505,519,546,414,392,319,240,559,0
2,1768494478624,1311,210,10471,546113,-213802,-174707,0,0,0,522,600,264,513,509,519,536,395,396,328,238,570,0
2,1768494478640,1368,119,10725,693942,-271224,-241902,0,0,0,533,608,252,524,517,525,524,387,401,330,236,579,0
2,1768494478656,1095,71,11088,889419,-282219,-293215,0,0,0,537,612,235,534,532,539,508,380,401,327,235,588,0
2,1768494478672,861,4,11519,1155757,-222354,-290771,0,0,0,535,615,227,541,539,546,493,378,400,331,236,598,0
2,1768494478688,823,-47,12165,1457524,-156381,-270002,0,0,0,536,615,216,548,548,536,460,381,397,335,234,602,0
2,1768494478704,579,-23,13036,1849699,-106290,-232128,0,0,0,548,629,220,546,539,536,428,377,400,341,235,607,0
2,1768494478720,392,-33,13811,2331061,-69638,-157603,0,0,0,564,615,218,544,549,536,396,375,392,329,240,614,0
2,1768494478736,689,-138,14601,2912605,-45204,-84299,0,0,0,573,615,220,539,549,542,349,357,399,318,235,617,0
2,1768494478752,1746,-229,16128,3599217,-40317,-128281,0,0,0,583,615,222,534,550,548,303,339,407,307,230,620,0
2,1768494478768,2909,-248,18482,4455651,-69638,-305432,0,0,0,581,614,226,529,551,540,270,294,410,277,200,606,0
2,1768494478784,4034,-220,21502,5480682,-173485,-588874,0,0,0,562,603,220,538,541,529,252,208,406,264,180,552,0
2,1768494478800,5168,-899,25833,6670648,-422718,-913854,0,0,0,526,582,203,522,526,517,240,164,379,262,180,517,0
2,1768494478816,6570,-1866,29863,7676132,-586430,-1196074,0,0,0,479,557,178,493,510,494,235,157,355,251,172,487,0
2,1768494478832,6905,-1024,31983,8451931,-436157,-1543045,0,0,0,413,525,158,447,464,452,254,174,327,233,162,440,0
2,1768494478848,5742,1765,33275,8874650,-288328,-1859473,0,0,0,305,480,153,391,403,397,290,228,296,189,156,311,0
2,1768494478864,6671,7317,30839,8682838,-447153,-2107485,0,0,0,235,444,162,358,373,372,314,282,281,153,159,210,0
2,1768494478880,9083,15616,21004,7684684,-586430,-2410474,0,0,0,242,435,168,355,374,372,311,299,281,155,167,210,0
2,1768494478896,9791,24307,8930,5105611,-394618,-2669481,0,0,0,244,433,163,345,368,355,305,298,269,157,168,200,0
2,1768494478912,5474,25982,8758,271224,-151494,-2117258,0,0,0,244,431,162,331,362,348,302,295,257,153,166,190,0
2,1768494478928,2005,19186,11208,-3835011,-560774,-938289,0,0,0,244,424,159,331,362,339,300,301,244,151,170,179,0
2,1768494478944,4498,9308,8657,-5046968,-1221730,125838,0,0,0,238,423,161,330,368,342,294,311,242,147,178,178,0
2,1768494478960,8322,6317,4560,-4621806,-586430,184481,0,0,0,235,421,154,323,364,332,296,328,233,146,178,166,0
2,1768494478976,7829,6307,4489,-4701218,587652,-25656,0,0,0,229,416,155,324,374,338,291,335,235,148,192,173,0
2,1768494478992,4005,6738,7882,-5378057,1310916,-68416,0,0,0,229,418,153,322,371,332,286,336,227,147,192,165,0
2,1768494479008,2957,5240,9619,-5834984,1263269,193033,0,0,0,231,419,157,324,371,336,285,339,228,146,193,162,0
2,1768494479024,3254,3742,10193,-5911953,1389107,377514,0,0,0,232,417,153,326,367,333,292,343,231,149,196,159,0
2,1768494479040,2598,3187,11428,-5845980,1776396,454483,0,0,0,233,418,151,326,363,333,290,339,229,166,226,156,0
2,1768494479056,1172,3316,13567,-5940053,2029294,552222,0,0,0,234,416,151,328,362,333,292,342,231,163,221,155,0
2,1768494479072,435,3426,15955,-6224716,2019520,717155,0,0,0,236,414,154,331,362,335,295,349,235,148,197,155,0
2,1768494479088,559,3177,17965,-6491054,2001194,840550,0,0,0,235,414,154,330,361,336,294,349,234,147,195,153,0
2,1768494479104,909,2732,20282,-6693861,2072054,919963,0,0,0,232,411,150,330,356,334,297,351,233,147,194,150,0
2,1768494479120,1072,2536,23924,-6849021,2184454,1100779,0,0,0,235,411,151,330,353,335,300,351,237,149,193,152,0
2,1768494479136,818,2134,28164,-7032280,2254092,1490511,0,0,0,237,410,155,330,350,339,305,355,242,150,195,154,0
2,1768494479152,-9,-770,32299,-7230200,2213775,2184454,0,0,0,235,409,156,333,350,344,313,357,253,146,188,154,0
2,1768494479168,-670,-9174,34410,-7114136,1949881,2714685,0,0,0,235,410,154,338,352,348,314,355,253,149,188,155,0
2,1768494479184,990,-21033,33395,-6577796,1287703,2621833,0,0,0,234,414,156,339,362,349,314,357,253,151,192,156,0
2,1768494479200,6010,-33673,25470,-5305975,692721,1382998,0,0,0,235,417,160,342,366,355,315,364,257,151,194,162,0
2,1768494479216,3833,-41210,16994,-3554013,1018923,-240680,0,0,0,239,420,164,341,363,355,316,365,258,150,194,163,0
2,1768494479232,-9619,-42660,13586,-1431868,1474628,-1423316,0,0,0,239,419,161,338,362,353,313,364,253,148,195,159,0
2,1768494479248,-14390,-41091,14711,118507,239459,-940732,0,0,0,239,417,159,334,357,348,315,362,251,148,196,156,0
2,1768494479264,-8408,-37204,15056,1578475,-933402,-309097,0,0,0,233,406,152,333,349,345,353,407,248,162,254,144,0
2,1768494479280,-124,-24656,18037,2979800,-1378111,-30543,0,0,0,234,369,145,316,320,334,407,453,244,188,343,131,0
2,1768494479296,4268,8384,20713,3919311,-2371378,434936,0,0,0,242,341,149,297,291,329,437,462,246,215,388,134,0
2,1768494479312,3776,19253,14773,4758640,-2913827,1087340,0,0,0,250,348,152,308,288,341,466,480,255,248,410,146,0
2,1768494479328,-2201,3292,15194,5798332,-1381777,1423316,0,0,0,260,358,152,332,284,353,503,518,261,332,458,160,0
2,1768494479344,-5384,-6556,21966,5324301,-90408,746477,0,0,0,264,365,160,352,277,369,536,569,267,459,530,167,0
2,1768494479360,-784,-2124,21258,3573561,-346971,-295658,0,0,0,270,390,176,375,298,396,575,595,299,495,552,198,0
2,1768494479376,2512,1148,14367,2163684,-620639,-169820,0,0,0,278,434,194,397,327,412,609,611,348,517,560,252,0
2,1768494479392,1761,263,10983,1070235,-486248,171042,0,0,0,286,474,208,421,368,434,615,616,334,550,584,303,0
2,1768494479408,306,-827,10863,371406,-273667,195476,0,0,0,319,495,226,428,394,450,623,623,345,507,569,346,0
2,1768494479424,445,129,10605,117286,-190589,19547,0,0,0,352,504,243,435,397,466,620,620,353,503,565,371,0
2,1768494479440,871,823,10193,103847,-134390,-35430,0,0,0,367,512,252,436,395,459,630,630,348,506,573,382,0
2,1768494479456,933,775,10045,118507,-80634,-8552,0,0,0,374,513,249,444,402,460,626,627,344,504,569,384,0
2,1768494479472,847,665,10074,120951,-61086,1221,0,0,0,397,516,253,454,407,462,615,615,345,462,524,397,0
2,1768494479488,804,717,10145,164933,-69638,-14660,0,0,0,416,520,255,460,413,458,615,612,359,418,465,412,0
2,1768494479504,804,741,10131,255341,-52534,-28099,0,0,0,416,522,251,462,422,463,611,606,359,381,413,427,0
2,1768494479520,789,655,10088,311541,-14660,-31764,0,0,0,415,526,249,468,431,470,599,593,350,360,384,442,0
2,1768494479536,808,559,10050,310319,28099,-32986,0,0,0,422,530,249,473,435,474,594,575,350,387,399,447,0
2,1768494479552,847,516,10031,298102,50090,-39095,0,0,0,427,534,250,475,438,477,595,556,360,414,401,451,0
2,1768494479568,899,492,10026,295658,58643,-54977,0,0,0,429,537,246,479,444,479,598,541,377,369,329,471,0
2,1768494479584,947,469,10035,320093,51312,-68416,0,0,0,435,539,240,479,446,485,590,512,377,341,304,487,0
2,1768494479600,995,425,10040,346971,25656,-81855,0,0,0,446,547,237,484,452,486,579,477,378,463,425,474,0
2,1768494479616,1014,335,10011,348193,-23212,-92851,0,0,0,455,555,241,496,460,494,576,463,388,456,408,493,0
2,1768494479632,995,258,10002,326202,-79412,-103847,0,0,0,473,562,247,497,465,504,575,460,381,319,258,528,0
2,1768494479648,933,248,10040,307876,-123394,-109955,0,0,0,483,571,251,500,470,501,577,453,386,313,234,540,0
2,1768494479664,923,248,10141,328645,-136833,-109955,0,0,0,489,575,250,505,473,518,558,428,393,310,234,550,0
2,1768494479680,1000,196,10256,383623,-156381,-116064,0,0,0,501,588,253,515,523,501,558,410,400,312,232,557,0
2,1768494479696,1119,95,10323,467922,-193033,-141720,0,0,0,512,592,254,521,511,517,550,397,406,313,226,572,0
2,1768494479712,1191,0,10447,583987,-234572,-194255,0,0,0,522,595,252,526,504,532,546,392,413,319,230,585,0
2,1768494479728,1191,-62,10705,739146,-267558,-251676,0,0,0,533,602,239,534,516,545,532,385,410,319,229,592,0
2,1768494479744,985,-71,11265,946841,-234572,-293215,0,0,0,547,608,227,532,524,547,510,376,411,320,229,600,0
2,1768494479760,670,-71,12184,1244943,-155159,-300545,0,0,0,555,613,226,532,531,541,488,369,419,331,237,608,0
2,1768494479776,521,-90,13046,1613905,-87964,-266337,0,0,0,557,616,222,545,543,542,461,361,423,339,240,615,0
2,1768494479792,483,-100,13811,2133141,-46425,-194255,0,0,0,559,608,210,549,550,546,428,356,422,333,236,622,0
2,1768494479808,856,-148,14716,2714685,-26878,-142942,0,0,0,563,605,205,544,543,549,392,349,404,330,233,628,0
2,1768494479824,1904,-201,16156,3440393,-39095,-189368,0,0,0,572,610,219,534,546,541,350,335,404,318,232,615,0
2,1768494479840,2938,-114,18415,4389677,-86742,-433714,0,0,0,584,610,220,528,545,533,291,294,405,302,216,628,0
2,1768494479856,3005,105,21387,5463578,-116064,-695164,0,0,0,570,603,212,528,544,531,271,217,421,281,193,580,0
2,1768494479872,4230,-234,25551,6827029,-188146,-908967,0,0,0,524,584,198,520,528,523,263,198,401,262,180,518,0
2,1768494479888,6221,-1359,29734,7964460,-161268,-1123992,0,0,0,478,566,183,496,499,503,259,170,372,256,172,492,0
2,1768494479904,6465,-1416,33055,8768359,81855,-1409876,0,0,0,416,530,164,452,463,453,268,179,335,244,164,454,0
2,1768494479920,4848,1459,35094,9172752,190589,-1701870,0,0,0,309,474,149,394,399,397,296,223,297,200,152,328,0
2,1768494479936,6183,5900,33658,9065240,61086,-1931555,0,0,0,249,444,155,364,366,376,316,260,285,168,153,236,0
2,1768494479952,8887,14759,23244,7931474,-84299,-2359161,0,0,0,242,440,157,358,363,367,319,278,281,160,157,208,0
2,1768494479968,8523,22919,10744,5340183,-134390,-2698802,0,0,0,243,440,155,348,362,352,313,286,268,155,158,196,0
2,1768494479984,3383,25278,7815,805120,-295658,-2112371,0,0,0,242,439,160,334,360,341,308,289,255,149,158,187,0
2,1768494480000,296,17894,9978,-3084869,-1192408,-565661,0,0,0,244,430,157,334,360,340,305,294,247,151,160,183,0
2,1768494480016,3019,9255,7666,-4554611,-2123367,588874,0,0,0,241,425,155,331,360,338,301,296,239,150,165,179,0
2,1768494480032,7944,6058,3287,-4285830,-1833817,587652,0,0,0,236,424,160,329,365,339,295,297,234,147,171,174,0
2,1768494480048,9298,5857,2167,-4320038,-799011,158824,0,0,0,240,424,160,329,371,335,293,310,229,147,175,169,0
2,1768494480064,6901,6288,4580,-4809952,282219,-266337,0,0,0,237,421,156,325,368,327,286,311,223,147,175,166,0
2,1768494480080,4804,5699,7240,-5298645,609643,-272445,0,0,0,236,421,155,325,369,330,286,316,225,143,177,164,0
2,1768494480096,4383,4910,8896,-5689598,744033,-72082,0,0,0,231,421,154,321,368,326,288,323,223,142,178,159,0
2,1768494480112,4895,4211,10026,-6017022,1012814,182037,0,0,0,234,420,151,323,365,326,289,324,224,143,180,155,0
2,1768494480128,4694,3517,12002,-6334672,1481959,423940,0,0,0,237,419,152,322,365,326,290,326,227,144,181,155,0
2,1768494480144,4044,2933,14252,-6549697,1815491,637743,0,0,0,238,418,152,325,367,327,291,334,228,145,186,155,0
2,1768494480160,3603,2397,16855,-6695083,1986533,825889,0,0,0,238,417,152,325,362,326,292,337,228,143,186,151,0
2,1768494480176,3579,2005,19569,-6818477,2107485,923628,0,0,0,238,416,151,326,360,325,295,336,229,151,188,149,0
2,1768494480192,3709,1517,23560,-6980967,2289522,946841,0,0,0,239,415,149,329,361,328,296,333,231,154,188,149,0
2,1768494480208,3445,794,28145,-7171557,2464230,1060462,0,0,0,240,416,151,331,358,331,295,331,232,144,179,149,0
2,1768494480224,2517,-1201,32768,-7400021,2558303,1516167,0,0,0,244,416,154,334,357,338,300,330,240,146,176,153,0
2,1768494480240,1048,-7566,35371,-7415904,2585181,2235766,0,0,0,246,418,155,337,357,344,307,324,247,152,174,157,0
2,1768494480256,-847,-17506,35965,-7028615,2386039,2664594,0,0,0,242,422,155,340,359,346,310,320,251,162,178,156,0
2,1768494480272,-459,-29341,31988,-6124534,1617571,2366491,0,0,0,241,424,153,340,359,346,319,327,264,150,169,160,0
2,1768494480288,1263,-40047,21957,-4510628,1086118,987158,0,0,0,238,429,156,341,367,354,312,338,255,146,185,162,0
2,1768494480304,-3843,-46446,13586,-2422691,1191187,-860098,0,0,0,243,427,156,340,362,348,312,331,257,150,178,163,0
2,1768494480320,-13342,-46202,12763,-574213,923628,-1808161,0,0,0,245,424,163,339,362,358,310,332,258,147,178,163,0
2,1768494480336,-13261,-40607,14855,1087340,-280998,-1525941,0,0,0,232,419,154,344,361,350,326,407,248,219,325,147,0
2,1768494480352,-5436,-27609,18310,2755002,-1358564,-1021366,0,0,0,242,362,140,338,311,331,387,476,233,315,437,144,0
2,1768494480368,3555,6982,22325,3556457,-2653598,-431270,0,0,0,252,331,141,323,285,332,446,479,245,263,414,139,0
2,1768494480384,6379,24388,16056,4123340,-3846007,299323,0,0,0,268,339,163,325,278,362,487,489,272,253,409,156,0
2,1768494480400,1359,9724,11217,5353622,-3165503,941954,0,0,0,274,351,172,345,280,383,512,513,290,318,445,173,0
2,1768494480416,-4340,-5422,19956,5519778,-1127657,797790,0,0,0,286,373,175,370,292,393,542,542,306,409,490,183,0
2,1768494480432,-2345,-3479,22847,4036597,-460592,72082,0,0,0,295,410,188,393,315,416,581,581,324,486,535,217,0
2,1768494480448,1454,751,16286,2263866,-563217,-41538,0,0,0,288,452,203,413,351,444,604,604,337,453,528,286,0
2,1768494480464,1708,555,11194,884532,-460592,149051,0,0,0,315,483,222,432,380,454,606,606,355,364,477,346,0
2,1768494480480,248,-473,10011,184481,-234572,179594,0,0,0,343,495,230,453,402,454,617,617,363,401,497,366,0
2,1768494480496,373,378,10308,98960,-151494,29321,0,0,0,354,506,242,444,407,460,637,638,371,477,557,364,0
2,1768494480512,799,957,10294,103847,-128281,-29321,0,0,0,366,515,241,444,408,450,636,635,378,491,566,365,0
2,1768494480528,875,928,10122,92851,-96516,-12217,0,0,0,370,515,241,449,411,452,632,631,376,371,466,393,0
2,1768494480544,794,832,10054,91629,-62308,-4886,0,0,0,380,519,245,452,411,455,630,630,379,364,445,399,0
2,1768494480560,746,880,10112,140499,-45204,-21991,0,0,0,383,520,250,455,418,463,634,630,377,352,415,410,0
2,1768494480576,746,923,10131,222354,-13439,-34208,0,0,0,386,520,246,457,419,463,630,614,382,336,381,417,0
2,1768494480592,765,885,10098,280998,24434,-37873,0,0,0,389,521,241,465,423,469,624,593,386,328,358,427,0
2,1768494480608,794,775,10031,312763,59864,-39095,0,0,0,392,525,239,466,426,471,619,574,392,321,328,440,0
2,1768494480624,832,698,9973,309097,69638,-48869,0,0,0,394,525,234,464,428,474,609,549,395,322,314,446,0
2,1768494480640,880,660,9964,294437,64751,-59864,0,0,0,395,522,231,462,431,478,613,525,400,385,373,445,0
2,1768494480656,957,655,9987,295658,35430,-68416,0,0,0,402,524,232,466,436,481,593,498,413,458,438,445,0
2,1768494480672,1014,631,10002,306654,-8552,-80634,0,0,0,414,532,232,482,443,487,561,474,420,425,391,458,0
2,1768494480688,971,564,9997,313984,-61086,-95294,0,0,0,429,541,238,490,452,494,609,479,406,319,277,490,0
2,1768494480704,861,488,10021,304210,-90408,-96516,0,0,0,451,547,245,489,454,497,601,460,407,324,267,508,0
2,1768494480720,832,449,10088,302989,-101403,-91629,0,0,0,464,554,249,500,466,506,605,434,418,421,357,504,0
2,1768494480736,890,435,10165,320093,-100181,-91629,0,0,0,466,570,249,510,478,524,593,429,429,304,236,538,0
