sole_id,timestamp,accel_x,accel_y,accel_z,gyro_x,gyro_y,gyro_z,magn_x,magn_y,magn_z,pressure_01,pressure_02,pressure_03,pressure_04,pressure_05,pressure_06,pressure_07,pressure_08,pressure_09,pressure_10,pressure_11,pressure_12,corrupt,transition,grass
1,1786987226416,-2144,875,9830,289550,25656,-113620,0,0,0,78,51,26,83,33,61,448,448,90,358,411,24,0,,
2,1786987226416,5178,-2230,21402,6208834,96516,-2013411,0,0,0,29,40,23,45,38,79,120,83,81,34,49,19,0,,
1,1786987226432,-2081,1000,9906,128281,36651,-78190,0,0,0,97,53,36,89,35,69,452,452,92,392,417,17,0,,
2,1786987226432,4680,-1655,19889,6288246,474031,-2127032,0,0,0,21,32,8,50,36,50,128,82,62,53,65,11,0,,
1,1786987226448,-1909,1186,9940,96516,25656,-48869,0,0,0,107,62,40,103,34,74,454,454,90,409,418,17,0,,
2,1786987226448,2230,1349,15754,5805663,125838,-2136806,0,0,0,26,37,11,52,40,49,136,89,63,60,68,12,0,,
1,1786987226464,-1818,1292,10150,156381,-26878,-20769,0,0,0,107,63,34,111,39,82,456,456,96,414,419,12,0,,
2,1786987226464,559,6001,12443,4344473,-1700648,-1747074,0,0,0,30,43,18,49,37,48,139,91,71,61,68,17,0,,
1,1786987226480,-1856,1287,10251,216246,-81855,0,0,0,0,115,74,40,107,37,83,457,457,99,422,422,15,0,,
2,1786987226480,3311,9868,9983,2100154,-2908940,-1235169,0,0,0,29,37,18,56,39,58,143,88,70,65,67,19,0,,
1,1786987226496,-1943,1186,10112,259006,-120951,18325,0,0,0,127,82,42,113,41,78,454,454,102,421,421,16,0,,
2,1786987226496,6202,9763,7422,-271224,-2409252,-1078788,0,0,0,25,33,18,58,43,62,139,88,67,66,68,14,0,,
1,1786987226512,-2057,1091,9892,277332,-136833,32986,0,0,0,129,93,46,112,51,87,454,454,124,417,409,22,0,,
2,1786987226512,4513,6192,5039,-1550375,-1319468,-1361007,0,0,0,26,34,19,57,43,65,136,89,72,65,71,18,0,,
1,1786987226528,-2158,1014,9777,276111,-123394,47647,0,0,0,121,97,49,110,56,103,453,453,141,412,398,28,0,,
2,1786987226528,2249,4656,3890,-1591914,-1368338,-1458746,0,0,0,31,37,19,55,42,67,139,90,75,70,72,22,0,,
1,1786987226544,-2191,966,9767,259006,-83077,62308,0,0,0,124,91,63,117,56,98,445,445,128,403,381,27,0,,
2,1786987226544,2354,5226,3239,-1772730,-1705535,-1235169,0,0,0,34,39,20,57,42,65,144,95,74,71,73,21,0,,
1,1786987226560,-2163,947,9767,241902,-43982,70860,0,0,0,129,94,59,120,59,87,440,440,123,388,357,29,0,,
2,1786987226560,3866,6489,3254,-2350609,-1683544,-807563,0,0,0,32,40,21,60,43,68,150,101,77,68,73,23,0,,
1,1786987226576,-2120,928,9753,235793,-20769,76969,0,0,0,123,104,40,119,61,93,439,439,130,366,339,30,0,x,
2,1786987226576,4642,6819,3823,-3134960,-1273043,-222354,0,0,0,27,40,24,59,43,71,153,101,80,70,72,25,0,x,
1,1786987226592,-2038,885,9691,234572,-17104,81855,0,0,0,119,102,41,121,52,101,437,437,123,341,323,24,0,,
2,1786987226592,5293,6389,4556,-3832568,-855211,522900,0,0,0,24,41,23,57,42,67,142,101,72,68,78,22,0,,
1,1786987226608,-1952,851,9662,226020,-41538,85521,0,0,0,118,101,42,124,41,99,434,434,122,319,302,22,0,,
2,1786987226608,6283,5326,5254,-4302934,-443488,1313360,0,0,0,28,41,19,57,44,63,148,102,69,68,74,14,0,,
1,1786987226624,-1971,832,9662,210137,-76969,81855,0,0,0,117,104,47,126,45,103,432,428,130,304,290,27,0,,
2,1786987226624,7068,4048,6283,-4547280,36651,1990198,0,0,0,33,41,25,57,43,67,144,103,78,64,74,19,0,,
1,1786987226640,-2057,799,9643,194255,-95294,78190,0,0,0,116,113,47,124,65,109,428,407,137,296,283,32,0,,
2,1786987226640,7307,3259,7700,-4674340,398284,2493551,0,0,0,30,44,24,58,44,70,147,100,73,72,78,24,0,,
1,1786987226656,-2124,760,9624,178372,-83077,76969,0,0,0,113,115,43,131,70,109,434,420,153,273,287,33,0,,
2,1786987226656,7508,3115,9188,-4812396,507018,2772106,0,0,0,30,45,19,59,48,66,151,103,72,72,76,12,0,,
1,1786987226672,-2086,732,9643,157603,-61086,75747,0,0,0,113,113,50,131,65,116,427,396,161,277,286,47,0,,
2,1786987226672,8092,2967,10457,-4999321,568104,2869844,0,0,0,34,46,23,62,52,70,127,96,72,76,80,16,0,,
1,1786987226688,-2033,717,9686,138055,-53756,73303,0,0,0,112,97,50,133,50,126,427,382,153,280,283,36,0,,
2,1786987226688,8863,2670,11773,-5204571,714712,2744006,0,0,0,33,50,26,65,55,72,146,100,75,82,83,24,0,,
1,1786987226704,-2024,713,9734,128281,-57421,68416,0,0,0,119,109,57,139,61,140,425,372,162,296,278,36,0,,
2,1786987226704,9308,2383,13634,-5425705,977384,2436130,0,0,0,32,49,23,68,57,71,160,104,74,82,80,23,0,,
1,1786987226720,-2033,693,9767,123394,-58643,59864,0,0,0,123,112,58,142,47,143,423,365,167,287,257,34,0,,
2,1786987226720,9231,2038,15975,-5667607,1200961,2042733,0,0,0,34,50,23,69,59,72,144,101,76,81,76,18,0,,
1,1786987226736,-2067,670,9763,120951,-52534,51312,0,0,0,147,118,68,141,44,133,423,364,163,282,250,38,0,,
2,1786987226736,9174,1569,18080,-5811771,1370781,1673770,0,0,0,37,51,25,67,60,71,146,100,77,84,76,16,0,,
1,1786987226752,-2110,631,9743,120951,-43982,52534,0,0,0,137,117,62,144,46,129,423,366,160,279,240,55,0,,
2,1786987226752,8858,1373,20569,-5837428,1633453,1340238,0,0,0,38,46,23,71,55,70,173,102,74,88,74,14,0,,
1,1786987226768,-2124,607,9748,124616,-40317,64751,0,0,0,119,97,54,149,48,132,421,357,180,273,230,67,0,,
2,1786987226768,8250,1392,23383,-5822767,1920560,1193630,0,0,0,38,43,20,78,52,73,180,100,75,89,70,14,0,,
1,1786987226784,-2129,603,9758,133168,-36651,85521,0,0,0,114,84,51,151,50,135,416,351,180,271,222,55,0,,
2,1786987226784,7757,928,26216,-5787337,2152689,1298699,0,0,0,41,41,25,77,56,79,173,99,82,92,70,23,0,,
1,1786987226800,-2144,598,9753,152716,-29321,114842,0,0,0,117,87,58,148,53,141,411,334,173,259,217,44,0,,
2,1786987226800,7982,-1526,27891,-5681046,2288301,1496619,0,0,0,36,41,25,72,51,82,165,100,86,84,70,28,0,,
1,1786987226816,-2134,579,9767,193033,-24434,149051,0,0,0,116,91,67,156,55,148,406,302,186,241,209,48,0,,
2,1786987226816,7671,-5455,27551,-5446474,2442239,1511280,0,0,0,30,40,19,69,51,70,163,105,82,78,72,17,0,,
1,1786987226832,-2105,559,9810,246789,-26878,178372,0,0,0,112,94,58,171,58,154,404,287,186,244,192,47,0,,
2,1786987226832,3627,-11519,25656,-4861265,2801427,1166752,0,0,0,35,39,16,70,44,67,165,102,80,84,67,16,0,,
1,1786987226848,-2067,526,9825,301767,-31764,186924,0,0,0,106,91,61,167,64,196,405,267,205,235,175,58,0,,
2,1786987226848,-2943,-17501,24197,-4037819,2663372,728151,0,0,0,35,37,23,69,45,70,165,103,79,84,74,22,0,,
1,1786987226864,-2081,483,9830,356745,-29321,178372,0,0,0,106,94,80,168,77,252,402,237,233,201,170,92,0,,
2,1786987226864,-5987,-24536,19559,-2940705,1632231,346971,0,0,0,40,43,20,75,47,71,162,107,74,89,85,22,0,,
1,1786987226880,-2139,464,9964,433714,-14660,163711,0,0,0,114,115,82,160,95,238,402,260,227,149,183,111,0,,
2,1786987226880,-7130,-30925,14486,-1670105,955393,-135612,0,0,0,39,42,15,71,47,68,163,108,76,85,85,21,0,,
1,1786987226896,-2120,445,10208,538783,-1221,150272,0,0,0,131,149,65,200,90,246,398,221,212,173,133,115,0,,
2,1786987226896,-8882,-31806,13137,-338419,599869,-618195,0,0,0,39,45,18,68,47,63,161,110,72,86,87,16,0,,
1,1786987226912,-2105,378,10504,685390,7330,136833,0,0,0,128,145,67,214,93,264,391,180,220,239,107,131,0,,
2,1786987226912,-7776,-24489,13720,872315,-311541,-725707,0,0,0,36,44,20,70,48,66,174,104,75,96,90,17,0,,
1,1786987226928,-2402,263,10830,910189,23212,149051,0,0,0,132,122,75,227,80,279,390,117,242,171,57,142,0,,
2,1786987226928,-2924,-14874,13582,1864360,-1231504,-542448,0,0,0,37,41,16,65,45,69,174,124,75,99,118,17,0,,
1,1786987226944,-2876,191,11256,1225395,20769,226020,0,0,0,143,116,79,230,78,318,322,84,294,121,40,194,0,,
2,1786987226944,2703,-4594,14544,2381152,-1547932,-232128,0,0,0,32,43,10,49,50,50,163,196,68,98,167,15,0,,
1,1786987226960,-3201,100,11787,1632231,-80634,400727,0,0,0,122,146,76,226,93,334,293,74,299,92,38,221,0,,
2,1786987226960,6642,12400,12739,2550973,-1998751,122173,0,0,0,25,38,4,42,51,37,169,269,56,115,225,11,0,,
1,1786987226976,-2943,-95,12605,2003637,-321315,626747,0,0,0,100,164,78,246,136,342,228,84,317,82,49,230,0,,
2,1786987226976,5790,15491,8959,2679254,-2616946,389732,0,0,0,22,29,10,47,44,53,195,326,63,141,284,15,0,,
1,1786987226992,-2435,-162,13553,2331061,-487470,772133,0,0,0,90,183,75,251,170,378,192,89,324,84,59,245,0,,
2,1786987226992,1253,3766,9188,3381749,-2861292,442266,0,0,0,20,29,20,50,43,72,213,383,86,161,344,28,0,,
1,1786987227008,-2550,-100,14577,2833192,-493579,845437,0,0,0,96,173,66,255,171,362,199,83,305,88,59,217,0,,
2,1786987227008,-1244,-1186,14970,3761708,-2122145,309097,0,0,0,26,29,5,61,54,72,242,393,68,209,387,24,0,,
1,1786987227024,-3627,-19,15726,3483153,-366519,950506,0,0,0,102,147,75,251,138,315,216,75,291,99,54,151,0,,
2,1786987227024,-1904,737,18119,3524692,-1103222,31764,0,0,0,35,47,16,71,59,80,322,414,74,273,400,25,0,,
1,1786987227040,-5029,-100,17583,4230852,-232128,1144761,0,0,0,101,126,86,237,112,286,224,66,290,112,44,123,0,,
2,1786987227040,-1148,2857,17822,2912605,-59864,-367740,0,0,0,66,80,21,82,71,61,366,417,62,332,407,17,0,,
1,1786987227056,-7394,-177,20124,5087285,-186924,1489289,0,0,0,91,104,70,208,109,256,215,61,271,105,34,121,0,,
2,1786987227056,1196,813,15817,1896125,298102,-454483,0,0,0,69,77,26,82,61,66,377,426,70,356,417,27,0,,
1,1786987227072,-9629,248,22359,5765346,-310319,1995085,0,0,0,66,75,44,149,85,202,181,62,209,80,33,69,0,,
2,1786987227072,2574,-215,12763,800233,211359,-201585,0,0,0,96,94,62,89,63,73,374,432,87,376,425,33,0,,
1,1786987227088,-9490,1474,24206,6273586,-232128,2614503,0,0,0,44,54,27,90,53,134,147,56,129,60,38,45,0,,
2,1786987227088,1971,1033,9830,246789,43982,41538,0,0,0,112,95,55,110,63,73,419,439,79,393,428,25,0,,
1,1786987227104,-8049,2522,24847,6691417,105068,3025004,0,0,0,33,32,10,56,32,45,137,61,62,40,36,9,0,,
2,1786987227104,1579,1665,9317,147829,24434,50090,0,0,0,127,97,76,125,63,79,442,444,73,406,429,40,0,,
1,1786987227120,-7240,3216,23378,7043276,508239,3196046,0,0,0,10,26,0,35,29,26,127,100,43,51,66,0,0,,
2,1786987227120,1722,1541,9959,62308,-15882,21991,0,0,0,119,108,80,130,72,119,448,448,98,410,432,48,0,,
1,1786987227136,-8260,4182,17276,7006624,682947,3188716,0,0,0,20,23,1,33,20,30,139,113,59,55,53,11,0,,
2,1786987227136,1679,1665,10246,34208,-40317,20769,0,0,0,123,111,80,124,71,127,451,451,112,416,437,55,0,,
1,1786987227152,-8054,5168,11026,6522819,488692,3089756,0,0,0,19,26,3,34,24,35,137,115,60,57,60,13,0,,
2,1786987227152,1636,1871,10165,95294,-28099,15882,0,0,0,124,126,90,119,78,136,452,452,130,411,437,61,0,,
1,1786987227168,-4833,8781,8633,4976108,525344,2316400,0,0,0,19,38,3,36,32,33,134,113,53,59,58,13,0,,
2,1786987227168,1631,1890,9992,196698,-8552,0,0,0,0,126,143,99,125,84,132,450,450,132,405,433,51,0,,
1,1786987227184,-3005,13749,8973,1127657,1329242,-94073,0,0,0,18,36,0,34,34,29,132,112,51,58,57,10,0,,
2,1786987227184,1574,1804,10002,250454,1221,-17104,0,0,0,134,147,102,130,82,113,447,447,113,411,432,39,0,,
1,1786987227200,-4838,12352,7958,-2235766,1736079,-2141693,0,0,0,19,38,4,37,38,31,136,117,57,60,62,10,0,,
2,1786987227200,1497,1804,10040,289550,59864,-31764,0,0,0,130,147,103,131,84,110,441,438,106,406,429,44,0,,
1,1786987227216,-7250,5991,4833,-3611435,1297477,-2612059,0,0,0,18,38,4,40,38,33,143,116,58,64,66,8,0,,
2,1786987227216,1493,1780,9935,339641,134390,-47647,0,0,0,112,135,89,140,84,112,427,416,107,374,415,51,0,,
1,1786987227232,-6097,3024,3196,-3177720,594982,-1649336,0,0,0,19,35,6,39,31,32,148,115,57,68,70,12,0,,
2,1786987227232,1560,1689,9777,377514,195476,-63529,0,0,0,95,132,87,128,87,131,404,398,123,363,399,62,0,,
1,1786987227248,-3723,3158,3627,-3026226,412944,-930958,0,0,0,18,35,7,37,32,30,140,119,62,65,74,12,0,,
2,1786987227248,1708,1598,9681,381179,205250,-74525,0,0,0,96,141,74,126,101,126,405,388,130,320,390,53,0,,
1,1786987227264,-2584,4513,5230,-3499036,828333,-823446,0,0,0,17,33,3,39,36,32,134,120,62,63,75,9,0,,
2,1786987227264,1885,1541,9619,370184,164933,-79412,0,0,0,104,137,71,131,102,114,419,334,162,343,336,45,0,,
1,1786987227280,-4187,4489,6341,-4232074,1047023,-981049,0,0,0,19,33,2,43,37,35,138,116,57,66,74,10,0,,
2,1786987227280,1971,1497,9595,354301,87964,-83077,0,0,0,113,153,55,148,107,99,411,328,117,313,331,33,0,,
1,1786987227296,-5656,3799,7437,-4901582,697608,-1026253,0,0,0,22,36,6,44,35,36,144,114,56,75,75,12,0,,
2,1786987227296,1890,1459,9643,345749,19547,-86742,0,0,0,106,151,77,149,113,144,408,308,154,279,311,59,0,,
1,1786987227312,-5211,3129,8896,-5436700,146607,-1077566,0,0,0,21,37,5,41,37,35,146,117,56,84,79,10,0,,
2,1786987227312,1780,1435,9710,345749,-3665,-89186,0,0,0,121,153,93,159,104,153,404,302,160,261,285,57,0,,
1,1786987227328,-4704,1976,10423,-5915618,-74525,-1312138,0,0,0,20,41,2,38,34,36,153,117,60,80,76,9,0,,
2,1786987227328,1713,1387,9772,351858,9773,-85521,0,0,0,116,143,82,165,102,152,390,280,158,248,261,75,0,,
1,1786987227344,-5489,33,11552,-6073222,-224798,-1473406,0,0,0,17,41,3,39,38,37,141,117,60,77,80,15,0,,
2,1786987227344,1765,1311,9772,350636,29321,-72082,0,0,0,119,155,83,175,105,158,394,258,171,247,227,76,0,,
1,1786987227360,-5900,-1316,12601,-5905845,-524122,-1415985,0,0,0,19,44,6,40,39,38,139,117,60,76,78,15,0,,
2,1786987227360,1856,1234,9748,343306,29321,-62308,0,0,0,134,158,105,190,104,169,398,228,184,252,196,81,0,,
1,1786987227376,-5747,-1574,14094,-5577199,-874759,-1222952,0,0,0,20,40,10,38,28,36,161,116,66,79,72,10,0,,
2,1786987227376,1923,1186,9748,334754,13439,-59864,0,0,0,144,147,105,199,98,170,394,200,184,258,170,88,0,,
1,1786987227392,-5369,-1512,15711,-5395161,-1099557,-1062905,0,0,0,23,38,4,42,29,38,163,115,68,80,75,11,0,,
2,1786987227392,1904,1124,9772,328645,4886,-63529,0,0,0,145,149,108,210,105,182,394,183,192,257,154,97,0,,
1,1786987227408,-5058,-1737,17094,-5334075,-1156978,-984714,0,0,0,24,38,7,41,31,38,162,116,64,79,76,12,0,,
2,1786987227408,1856,1048,9815,322536,7330,-69638,0,0,0,151,162,116,229,116,190,396,169,200,251,146,100,0,,
1,1786987227424,-5077,-2397,17985,-5219232,-1160643,-1034805,0,0,0,22,43,8,41,32,41,162,122,67,82,83,13,0,,
2,1786987227424,1861,1019,9882,324980,23212,-70860,0,0,0,166,166,103,237,117,173,395,157,195,244,137,90,0,,
1,1786987227440,-5350,-3072,18401,-4965112,-1291369,-1276708,0,0,0,17,49,4,41,40,44,151,128,68,76,88,11,0,,
2,1786987227440,1933,1019,9949,350636,42760,-78190,0,0,0,170,174,110,234,125,176,395,148,216,226,132,94,0,,
1,1786987227456,-5326,-3742,18951,-4685336,-1539380,-1576032,0,0,0,19,46,3,42,41,43,146,130,67,74,89,9,0,,
2,1786987227456,2005,1000,9992,394618,59864,-96516,0,0,0,168,185,104,245,132,182,395,137,238,213,95,91,0,,
1,1786987227472,-4369,-4886,19865,-4437325,-1831373,-1837482,0,0,0,22,44,4,43,40,40,146,128,67,77,87,9,0,,
2,1786987227472,1995,928,10007,443488,74525,-117286,0,0,0,150,262,107,258,152,206,391,130,228,182,90,99,0,,
1,1786987227488,-2732,-7049,20401,-4357912,-1853365,-1764178,0,0,0,24,44,6,44,39,39,150,123,65,79,83,10,0,,
2,1786987227488,1947,832,10021,500909,98960,-133168,0,0,0,158,246,105,242,140,197,382,111,227,172,89,89,0,,
1,1786987227504,-1177,-10351,20282,-4287052,-1653001,-1441641,0,0,0,25,44,8,45,37,40,154,119,64,82,79,10,0,,
2,1786987227504,2048,751,10059,563217,123394,-144164,0,0,0,166,244,106,250,136,205,361,119,234,163,64,80,0,,
1,1786987227520,-751,-14280,19229,-4091575,-1251052,-891863,0,0,0,24,42,7,44,35,40,153,119,64,79,77,10,0,,
2,1786987227520,2325,670,10165,637743,144164,-173485,0,0,0,139,247,119,231,150,231,308,108,255,141,77,98,0,,
1,1786987227536,-1177,-17779,17453,-3644422,-868650,-201585,0,0,0,23,42,7,43,36,41,149,121,65,73,75,10,0,,
2,1786987227536,2522,559,10399,741590,173485,-244346,0,0,0,122,232,107,199,182,265,252,114,277,124,94,154,0,,
1,1786987227552,-114,-20153,15424,-2868623,-673173,543670,0,0,0,22,42,6,44,37,39,150,123,70,76,77,12,0,,
2,1786987227552,2546,454,10729,880867,208915,-321315,0,0,0,127,222,105,189,193,286,239,123,306,105,85,144,0,,
1,1786987227568,2971,-21703,14046,-1969429,-527787,1025031,0,0,0,26,42,4,52,33,40,162,118,73,89,74,6,0,,
2,1786987227568,2512,349,11060,1073901,250454,-393397,0,0,0,167,217,123,204,181,317,218,105,327,122,81,159,0,,
1,1786987227584,6546,-22397,13376,-927293,-199142,995710,0,0,0,31,45,8,50,32,36,174,120,70,91,85,5,0,,
2,1786987227584,2368,315,11442,1329242,270002,-450818,0,0,0,167,236,110,230,193,307,200,100,330,138,88,178,0,,
1,1786987227600,6389,-21751,13376,96516,321315,450818,0,0,0,48,36,10,48,27,33,182,125,75,99,98,10,0,,
2,1786987227600,2373,224,11792,1605353,202807,-471587,0,0,0,165,253,96,251,207,293,199,107,319,129,94,167,0,,
1,1786987227616,3766,-17492,14496,1122770,869872,-4886,0,0,0,30,41,10,32,35,31,166,184,65,108,181,10,0,,
2,1786987227616,2565,28,12203,1954768,116064,-498466,0,0,0,187,245,99,253,200,301,202,112,324,115,94,154,0,,
1,1786987227632,-1349,-861,13921,2114815,1618792,-102625,0,0,0,28,34,2,29,28,36,230,252,50,167,224,11,0,,
2,1786987227632,2603,-95,12725,2368935,117286,-557109,0,0,0,193,216,96,241,183,307,199,102,347,121,85,168,0,,
1,1786987227648,-3704,11241,11347,2467895,2161241,149051,0,0,0,35,32,0,33,23,27,246,326,35,142,286,3,0,,
2,1786987227648,2790,-248,13323,2803871,138055,-616973,0,0,0,189,198,97,240,161,316,191,78,328,129,62,172,0,,
1,1786987227664,-2794,8671,12524,3109304,2091602,384845,0,0,0,35,28,4,42,25,31,274,372,43,170,330,5,0,,
2,1786987227664,3407,-378,13993,3280346,127059,-719599,0,0,0,167,214,110,217,165,334,179,82,334,106,70,157,0,,
1,1786987227680,-488,148,18458,3748269,1149648,460592,0,0,0,25,23,3,48,29,39,286,384,46,194,350,6,0,,
2,1786987227680,4067,-502,14802,3784921,75747,-871093,0,0,0,154,240,83,225,175,285,228,98,317,97,60,105,0,,
1,1786987227696,-612,-110,19387,3032335,331088,515570,0,0,0,26,18,6,52,27,46,315,381,52,221,346,7,0,,
2,1786987227696,4781,-837,16324,4360356,34208,-1077566,0,0,0,135,176,90,214,143,260,172,67,309,74,44,85,0,,
1,1786987227712,-2249,2325,14395,1985312,-19547,494800,0,0,0,32,27,8,54,35,42,335,385,49,238,357,9,0,,
2,1786987227712,5556,-1119,18980,5061629,23212,-1332907,0,0,0,133,157,122,177,93,249,169,50,257,43,13,58,0,,
1,1786987227728,-3302,3359,8738,1496619,-59864,273667,0,0,0,41,38,13,57,38,38,349,396,49,258,378,16,0,,
2,1786987227728,6369,-1110,21167,5720142,-2443,-1565036,0,0,0,89,120,57,142,94,182,160,65,206,33,18,43,0,,
1,1786987227744,-3034,2000,8269,1398881,39095,68416,0,0,0,56,42,48,58,29,53,379,410,71,295,393,28,0,,
2,1786987227744,6389,-1689,22220,6240599,97738,-1782504,0,0,0,58,94,29,110,77,117,136,56,139,32,24,24,0,,
1,1786987227760,-2684,727,10040,1012814,144164,-50090,0,0,0,72,45,90,58,24,70,413,425,88,347,408,32,0,,
2,1786987227760,5226,-1981,22947,6684087,370184,-1973094,0,0,0,35,77,15,81,67,84,113,55,89,39,25,21,0,,
1,1786987227776,-2215,794,11395,339641,151494,-105068,0,0,0,89,48,95,69,24,69,436,436,81,408,424,29,0,,
2,1786987227776,4876,-483,22813,6933320,829554,-2072054,0,0,0,24,40,8,62,48,59,116,67,65,49,38,16,0,,
1,1786987227792,-1933,1694,10825,-30543,72082,-97738,0,0,0,103,51,113,70,23,71,445,445,76,443,443,40,0,,
2,1786987227792,6044,2675,19774,6993185,1605353,-2255314,0,0,0,25,30,13,55,41,53,124,93,62,56,68,15,0,,
1,1786987227808,-1981,2043,10165,-81855,-3665,-62308,0,0,0,109,56,118,72,23,67,456,456,81,443,443,31,0,,
2,1786987227808,5575,6824,14333,6582683,1750739,-2592512,0,0,0,29,36,20,57,46,53,131,110,65,67,86,16,0,,
1,1786987227824,-2148,2062,10064,-64751,-25656,-36651,0,0,0,108,56,120,85,24,68,467,467,91,446,446,31,0,,
2,1786987227824,3082,10983,10658,4751309,310319,-2638937,0,0,0,30,40,17,59,49,47,133,116,61,72,94,15,0,,
1,1786987227840,-2191,2139,10122,-36651,-20769,-12217,0,0,0,108,57,115,80,23,69,468,468,91,450,450,30,0,,
2,1786987227840,2493,14572,10035,1363451,-1266934,-1930334,0,0,0,29,47,10,57,51,46,135,121,59,72,111,15,0,,
1,1786987227856,-2105,2254,9906,32986,-43982,15882,0,0,0,108,58,110,75,23,70,470,470,91,455,455,29,0,,
2,1786987227856,3814,13261,10844,-2734232,-2190562,-713490,0,0,0,27,47,14,55,51,52,142,120,62,80,119,17,0,,
1,1786987227872,-2067,2239,9705,114842,-86742,40317,0,0,0,100,70,85,76,35,76,472,472,81,461,461,41,0,,
2,1786987227872,4761,7346,9097,-4415333,-2334726,-254119,0,0,0,24,52,17,52,54,56,132,121,64,78,117,16,0,,
1,1786987227888,-2148,2115,9657,173485,-116064,57421,0,0,0,109,57,84,86,28,80,464,464,83,444,444,31,0,,
2,1786987227888,5474,3651,6283,-4645019,-2250427,-403171,0,0,0,27,52,15,57,52,58,140,116,67,97,118,18,0,,
1,1786987227904,-2206,2014,9633,183259,-106290,63529,0,0,0,115,64,81,78,28,67,455,455,78,437,437,26,0,,
2,1786987227904,5948,3527,4977,-4576602,-1816713,-693942,0,0,0,26,52,15,53,49,55,133,113,70,81,116,19,0,,
1,1786987227920,-2230,1986,9581,175929,-84299,68416,0,0,0,118,65,95,81,28,67,449,449,78,432,435,26,0,,
2,1786987227920,5484,4426,6125,-5040859,-1180191,-634078,0,0,0,27,54,16,53,55,59,127,117,67,80,121,18,0,,
1,1786987227936,-2220,1995,9566,168598,-64751,69638,0,0,0,112,64,103,82,29,69,443,443,82,415,428,23,0,,
2,1786987227936,4982,4436,7427,-5485569,-767246,-291993,0,0,0,30,55,20,53,54,60,128,119,70,84,120,16,0,,
1,1786987227952,-2167,1981,9600,168598,-59864,70860,0,0,0,108,71,93,77,31,80,440,440,89,404,421,22,0,,
2,1786987227952,5412,3598,7987,-5689598,-439822,289550,0,0,0,31,55,21,57,58,64,126,119,71,86,122,23,0,,
1,1786987227968,-2124,1947,9595,167377,-68416,73303,0,0,0,111,75,82,80,33,83,438,438,87,402,418,23,0,,
2,1786987227968,6336,2780,8370,-5712811,190589,882089,0,0,0,43,53,23,68,52,63,145,115,68,102,118,18,0,,
1,1786987227984,-2120,1938,9552,167377,-87964,78190,0,0,0,115,70,81,83,32,66,434,434,76,401,416,21,0,,
2,1786987227984,6460,2062,9389,-5725029,864985,1351233,0,0,0,44,52,20,74,50,63,155,114,69,111,117,18,0,,
1,1786987228000,-2158,1933,9514,177150,-105068,83077,0,0,0,116,69,84,77,34,68,433,433,82,399,414,22,0,,
2,1786987228000,5795,1344,10973,-5663942,1335351,1659109,0,0,0,32,53,13,63,54,61,144,114,82,95,120,15,0,,
1,1786987228016,-2206,1885,9504,180816,-95294,83077,0,0,0,120,84,91,75,46,70,429,429,82,387,410,26,0,,
2,1786987228016,5278,904,12447,-5522221,1446528,1687209,0,0,0,27,52,13,57,56,61,136,114,87,84,121,14,0,,
1,1786987228032,-2234,1818,9499,169820,-69638,79412,0,0,0,119,80,93,76,35,80,428,428,84,402,412,24,0,,
2,1786987228032,4895,555,14051,-5380501,1534493,1510058,0,0,0,29,50,14,59,55,61,141,117,87,88,122,19,0,,
1,1786987228048,-2220,1765,9485,149051,-42760,75747,0,0,0,118,85,96,72,36,87,428,428,92,395,412,27,0,,
2,1786987228048,4292,670,15716,-5305975,1648114,1155757,0,0,0,28,51,13,60,54,56,145,117,93,90,123,19,0,,
1,1786987228064,-2172,1765,9485,136833,-40317,70860,0,0,0,127,101,104,87,39,78,427,424,95,394,413,24,0,,
2,1786987228064,3402,1287,17530,-5318192,1747074,866206,0,0,0,28,51,16,58,53,55,143,116,96,87,120,14,0,,
1,1786987228080,-2139,1780,9514,136833,-53756,68416,0,0,0,123,89,113,79,32,102,425,423,109,367,402,22,0,,
2,1786987228080,2359,2086,19439,-5428148,1797165,785572,0,0,0,28,53,9,59,57,59,146,122,96,92,124,19,0,,
1,1786987228096,-2139,1785,9585,151494,-76969,70860,0,0,0,123,88,111,78,26,106,424,409,125,364,398,31,0,,
2,1786987228096,1698,2172,21244,-5518556,1745852,1018923,0,0,0,29,54,13,60,57,60,147,122,95,90,124,18,0,,
1,1786987228112,-2163,1746,9638,171042,-97738,76969,0,0,0,123,94,105,82,31,94,420,400,115,361,389,29,0,,
2,1786987228112,1608,1306,22718,-5469687,1650557,1374446,0,0,0,26,53,16,62,57,63,146,123,93,93,123,17,0,,
1,1786987228128,-2201,1698,9629,196698,-112399,92851,0,0,0,108,130,99,87,61,103,420,395,127,349,373,35,0,,
2,1786987228128,1899,-1043,24063,-5274210,1521054,1740965,0,0,0,36,55,21,66,55,65,155,123,87,92,112,22,0,,
1,1786987228144,-2249,1665,9600,234572,-120951,120951,0,0,0,115,129,110,93,56,112,416,374,129,339,361,39,0,,
2,1786987228144,2656,-5800,24938,-4971221,1317025,1932777,0,0,0,36,58,21,66,58,65,152,128,86,88,111,15,0,,
1,1786987228160,-2311,1655,9605,278554,-114842,147829,0,0,0,127,125,124,95,54,122,412,366,129,319,326,41,0,,
2,1786987228160,4034,-12892,23498,-4530176,1043357,1525941,0,0,0,34,54,21,65,60,65,154,129,101,88,108,20,0,,
1,1786987228176,-2340,1655,9648,357967,-97738,174707,0,0,0,126,146,127,107,63,150,408,343,152,297,290,49,0,,
2,1786987228176,4292,-20200,20062,-3850894,1015258,598647,0,0,0,49,43,18,77,48,61,165,116,99,93,95,19,0,,
1,1786987228192,-2335,1655,9739,467922,-90408,193033,0,0,0,134,151,124,130,69,168,404,306,175,275,235,56,0,,
2,1786987228192,569,-25206,16554,-2889392,1387885,-454483,0,0,0,41,44,18,70,46,63,162,116,98,93,93,18,0,,
1,1786987228208,-2345,1641,9920,609643,-97738,202807,0,0,0,151,152,132,158,75,184,399,262,192,243,171,77,0,,
2,1786987228208,-6044,-27843,14974,-1670105,1391551,-901637,0,0,0,31,47,15,66,55,65,156,118,97,91,96,17,0,,
1,1786987228224,-2402,1545,10150,753807,-103847,202807,0,0,0,154,181,160,171,87,242,394,211,224,208,139,114,0,,
2,1786987228224,-9270,-29030,14223,-503352,685390,-753807,0,0,0,32,48,16,68,53,64,155,116,90,92,96,15,0,,
1,1786987228240,-2479,1416,10385,888198,-107512,205250,0,0,0,163,190,172,171,95,295,388,165,250,196,120,125,0,,
2,1786987228240,-7011,-27724,13491,703716,-405614,-343306,0,0,0,35,48,20,67,51,63,150,114,86,90,97,16,0,,
1,1786987228256,-2569,1249,10677,1049466,-145385,223576,0,0,0,170,194,136,219,105,277,363,105,229,190,102,122,0,,
2,1786987228256,-2105,-22292,13625,1811826,-897971,-232128,0,0,0,37,51,17,71,56,62,161,137,80,94,134,16,0,,
1,1786987228272,-2718,1067,11088,1269377,-226020,262672,0,0,0,156,222,80,251,125,320,323,83,254,198,67,158,0,,
2,1786987228272,1239,-9791,15912,2647489,-1086118,-241902,0,0,0,35,48,8,69,52,49,182,200,63,116,207,11,0,,
1,1786987228288,-3058,880,11744,1606575,-332310,349414,0,0,0,140,207,95,227,158,355,218,97,301,153,60,181,0,,
2,1786987228288,4737,15362,15687,2866179,-1577254,-98960,0,0,0,18,33,3,43,44,37,162,257,60,133,254,14,0,,
1,1786987228304,-3249,851,12653,1999972,-392175,476474,0,0,0,133,235,69,240,196,339,228,122,307,135,86,177,0,,
2,1786987228304,4996,19033,9289,2686585,-2224771,9773,0,0,0,16,27,5,41,44,39,177,304,53,147,304,11,0,,
1,1786987228320,-3278,770,13433,2372600,-423940,614530,0,0,0,114,226,55,267,195,342,199,89,300,149,90,202,0,,
2,1786987228320,1627,4728,8466,3550348,-2219884,-130725,0,0,0,15,29,1,57,46,48,214,352,45,181,361,15,0,,
1,1786987228336,-3488,789,13950,2787988,-351858,731816,0,0,0,109,211,63,242,196,333,186,93,248,112,74,165,0,,
2,1786987228336,-990,-2770,15352,4157548,-1073901,-251676,0,0,0,24,31,7,65,50,56,237,387,54,240,391,14,0,,
1,1786987228352,-4101,804,14333,3292563,-83077,849102,0,0,0,114,188,70,232,164,322,184,103,249,97,77,118,0,,
2,1786987228352,-1134,-1320,18884,3825238,-140499,-433714,0,0,0,29,29,13,65,40,56,291,395,70,305,400,23,0,,
1,1786987228368,-4838,574,15247,3843564,215024,1026253,0,0,0,108,168,74,184,148,257,180,92,235,79,58,83,0,,
2,1786987228368,1612,2479,17755,2785545,166155,-675616,0,0,0,42,42,18,68,45,61,326,404,86,322,405,16,0,,
1,1786987228384,-5848,253,17123,4458094,441044,1263269,0,0,0,89,158,57,173,142,221,160,82,191,60,42,61,0,,
2,1786987228384,4335,1191,14682,1626123,-114842,-423940,0,0,0,55,52,28,76,50,67,327,408,72,321,406,23,0,,
1,1786987228400,-7753,-100,19636,5064072,571769,1567480,0,0,0,66,132,43,136,129,175,152,81,154,56,39,45,0,,
2,1786987228400,3172,272,11399,766025,-241902,80634,0,0,0,63,63,42,81,52,71,339,413,82,349,418,35,0,,
1,1786987228416,-9949,-411,21603,5588195,574213,1996307,0,0,0,48,93,40,88,97,134,128,67,127,52,39,40,0,,
2,1786987228416,1488,890,9686,362853,-150272,223576,0,0,0,67,67,60,81,51,77,359,421,114,369,425,43,0,,
1,1786987228432,-9475,-90,22622,6032905,620639,2484999,0,0,0,37,61,25,64,57,94,102,60,87,50,39,30,0,,
2,1786987228432,1478,1387,9820,246789,-34208,108734,0,0,0,86,79,64,97,60,82,397,432,126,390,429,44,0,,
1,1786987228448,-8001,837,23464,6440963,610865,2825862,0,0,0,28,38,6,45,32,41,107,81,48,54,58,8,0,,
2,1786987228448,2014,1387,10107,155159,-35430,53756,0,0,0,111,89,70,106,63,85,414,438,128,405,433,41,0,,
1,1786987228464,-8102,3771,22301,6765943,278554,3116634,0,0,0,18,26,6,34,29,35,106,106,57,47,87,10,0,,
2,1786987228464,2067,1478,10064,112399,-30543,48869,0,0,0,114,88,71,112,65,85,422,438,133,415,435,36,0,,
1,1786987228480,-7901,8336,15726,6655987,232128,3404962,0,0,0,12,30,14,29,33,52,109,127,88,50,94,25,0,,
2,1786987228480,1971,1646,9901,144164,2443,39095,0,0,0,100,84,64,118,71,87,437,437,139,414,434,35,0,,
1,1786987228496,-6116,9806,10868,6093991,1062905,3117856,0,0,0,22,26,10,54,30,53,111,137,90,74,116,28,0,,
2,1786987228496,1943,1665,9877,215024,26878,4886,0,0,0,101,87,65,119,71,89,438,433,141,400,428,37,0,,
1,1786987228512,-6154,11686,9825,4081801,1773952,1611462,0,0,0,24,29,9,62,37,54,120,136,80,60,104,18,0,,
2,1786987228512,1899,1636,9916,267558,57421,-19547,0,0,0,120,95,70,136,75,86,436,425,139,397,424,27,0,,
1,1786987228528,-6503,13601,9102,1193630,1624901,-45204,0,0,0,24,29,10,61,37,54,123,132,78,65,109,18,0,,
2,1786987228528,1899,1574,9935,302989,108734,-32986,0,0,0,140,101,67,166,81,85,433,417,120,383,420,27,0,,
1,1786987228544,-5738,12280,7528,-1864360,1014036,-1414763,0,0,0,26,26,10,63,31,57,137,130,80,75,110,16,0,,
2,1786987228544,1981,1502,9882,328645,163711,-43982,0,0,0,124,109,59,161,92,99,427,377,133,370,417,37,0,,
1,1786987228560,-5039,8073,5221,-2946813,835663,-1642005,0,0,0,27,43,5,68,38,55,142,134,76,83,114,13,0,,
2,1786987228560,2062,1454,9796,344527,188146,-57421,0,0,0,121,99,62,165,76,107,427,357,135,367,391,26,0,,
1,1786987228576,-5336,5250,3857,-2984687,758694,-1170417,0,0,0,22,37,12,51,41,63,128,141,82,74,119,13,0,,
2,1786987228576,2163,1402,9691,351858,179594,-68416,0,0,0,100,91,64,154,80,123,421,336,160,319,389,35,0,,
1,1786987228592,-5005,4350,4144,-3170390,546113,-733038,0,0,0,16,32,14,41,42,68,122,147,86,65,120,13,0,,
2,1786987228592,2278,1335,9609,338419,125838,-69638,0,0,0,112,89,64,164,79,114,417,310,179,332,333,35,0,,
1,1786987228608,-4211,4608,5465,-3617543,455705,-652404,0,0,0,19,38,17,42,45,69,121,150,83,61,119,12,0,,
2,1786987228608,2325,1263,9581,311541,54977,-68416,0,0,0,114,94,73,153,77,122,418,303,190,326,318,43,0,,
1,1786987228624,-4340,4819,6925,-4312708,529009,-934623,0,0,0,17,38,13,44,49,70,119,154,87,61,121,16,0,,
2,1786987228624,2273,1210,9590,278554,-9773,-68416,0,0,0,105,94,70,152,85,129,416,288,185,305,297,48,0,,
1,1786987228640,-5355,4460,7982,-4950451,439822,-1295034,0,0,0,16,34,9,41,47,68,124,163,88,64,123,29,0,,
2,1786987228640,2191,1191,9629,256563,-41538,-70860,0,0,0,113,96,67,148,80,121,414,282,188,285,269,34,0,,
1,1786987228656,-6379,3340,8887,-5434257,31764,-1582140,0,0,0,18,33,12,40,44,67,129,170,86,68,123,31,0,,
2,1786987228656,2144,1182,9676,252898,-45204,-73303,0,0,0,108,93,71,142,75,124,415,277,215,257,254,39,0,,
1,1786987228672,-6637,1785,9949,-5688377,-518013,-1690874,0,0,0,19,34,15,40,42,68,130,171,88,74,126,31,0,,
2,1786987228672,2139,1143,9691,251676,-39095,-70860,0,0,0,95,89,91,141,76,141,417,265,244,240,251,59,0,,
1,1786987228688,-6192,440,11418,-5722585,-946841,-1590693,0,0,0,19,36,13,37,42,67,132,173,89,78,128,37,0,,
2,1786987228688,2148,1067,9657,238237,-39095,-57421,0,0,0,99,92,104,150,80,152,416,253,250,244,244,62,0,,
1,1786987228704,-5719,-406,12979,-5670051,-1177748,-1389107,0,0,0,16,36,9,43,44,67,133,172,89,81,130,29,0,,
2,1786987228704,2177,1019,9672,221133,-42760,-45204,0,0,0,112,97,96,158,81,150,392,236,237,250,232,49,0,,
1,1786987228720,-5498,-1105,14663,-5556430,-1282817,-1071457,0,0,0,21,39,7,45,44,66,141,167,91,99,133,38,0,,
2,1786987228720,2211,1019,9739,213802,-54977,-40317,0,0,0,111,104,103,151,80,157,362,210,237,250,232,49,0,,
1,1786987228736,-5494,-1679,15936,-5417152,-1370781,-795346,0,0,0,24,36,14,52,44,69,153,167,90,89,123,33,0,,
2,1786987228736,2211,1005,9772,216246,-67195,-40317,0,0,0,117,113,102,171,92,169,414,225,258,256,228,57,0,,
1,1786987228752,-5623,-2134,17056,-5181358,-1488067,-607200,0,0,0,16,34,10,45,47,65,134,168,87,83,123,40,0,,
2,1786987228752,2167,966,9782,224798,-70860,-43982,0,0,0,128,112,113,191,106,191,411,205,249,225,201,57,0,,
1,1786987228768,-5833,-2431,18324,-4827057,-1654223,-587652,0,0,0,21,36,13,51,49,71,137,171,93,82,125,20,0,,
2,1786987228768,2139,933,9815,238237,-52534,-51312,0,0,0,124,110,119,176,105,199,409,191,271,193,186,64,0,,
1,1786987228784,-5829,-2589,19956,-4515515,-1876578,-768468,0,0,0,19,37,7,44,47,73,129,170,90,74,124,24,0,,
2,1786987228784,2177,909,9853,263893,-23212,-63529,0,0,0,126,113,112,177,95,180,410,172,287,244,167,81,0,,
1,1786987228800,-5518,-2971,21746,-4427551,-2163684,-1062905,0,0,0,16,39,9,44,49,70,126,170,90,88,130,29,0,,
2,1786987228800,2225,875,9863,301767,-2443,-83077,0,0,0,127,107,126,189,97,209,409,134,284,240,142,73,0,,
1,1786987228816,-4661,-4546,23244,-4642575,-2463008,-1350012,0,0,0,17,43,12,42,51,70,128,170,90,83,126,23,0,,
2,1786987228816,2273,818,9834,344527,12217,-112399,0,0,0,128,123,136,198,93,230,411,136,315,247,127,103,0,,
1,1786987228832,-3369,-8848,23689,-4888143,-2520429,-1395216,0,0,0,17,43,12,40,49,67,132,168,92,68,116,16,0,,
2,1786987228832,2335,765,9858,383623,15882,-141720,0,0,0,133,115,152,213,89,271,415,109,362,194,85,122,0,,
1,1786987228848,-2431,-14209,22622,-4828278,-2316400,-1089783,0,0,0,17,40,12,43,48,66,138,165,86,68,108,17,0,,
2,1786987228848,2464,756,9992,434936,8552,-172263,0,0,0,132,119,147,215,102,275,413,100,360,158,66,116,0,,
1,1786987228864,-866,-19822,20038,-4280943,-2030516,-383623,0,0,0,17,39,12,44,47,66,142,164,82,74,104,17,0,,
2,1786987228864,2665,780,10236,526565,-14660,-221133,0,0,0,120,133,141,207,115,282,403,100,363,207,62,142,0,,
1,1786987228880,2206,-23775,17367,-3318219,-1723861,317649,0,0,0,20,41,13,44,47,66,145,161,84,81,106,16,0,,x
2,1786987228880,2794,727,10514,681725,-53756,-290771,0,0,0,124,140,121,232,117,303,393,86,378,199,53,153,0,,x
1,1786987228896,5216,-26829,15333,-2280970,-1297477,797790,0,0,0,22,43,15,46,49,67,147,160,86,83,110,19,0,,
2,1786987228896,2876,617,10863,875980,-76969,-366519,0,0,0,132,139,105,247,114,324,353,72,390,132,46,155,0,,
1,1786987228912,8293,-28796,14027,-1001818,-668286,994488,0,0,0,22,46,16,43,50,65,149,163,87,82,116,21,0,,
2,1786987228912,2900,473,11447,1141096,-42760,-459370,0,0,0,134,141,110,236,126,341,298,84,401,124,57,182,0,,
1,1786987228928,9270,-27762,13725,210137,43982,806342,0,0,0,21,45,14,41,46,63,145,158,86,82,121,22,0,,
2,1786987228928,2909,306,12050,1473406,13439,-560774,0,0,0,150,152,108,252,141,348,262,100,396,129,68,192,0,,
1,1786987228944,6389,-23110,14099,1411098,757472,471587,0,0,0,21,38,12,47,40,63,142,154,78,60,116,15,0,,
2,1786987228944,2837,196,12500,1820378,13439,-651182,0,0,0,151,156,100,261,123,365,218,70,387,134,53,210,0,,
1,1786987228960,1957,-12261,15807,2337170,1269377,244346,0,0,0,34,43,8,42,41,47,183,215,52,100,226,9,0,,
2,1786987228960,2632,119,12782,2210110,-34208,-733038,0,0,0,131,126,92,251,143,358,198,67,386,119,67,194,0,,
1,1786987228976,-4369,16190,15281,2547308,1985312,0,0,0,0,51,49,8,32,21,27,233,284,38,136,266,0,0,,
2,1786987228976,2349,57,13366,2651155,-12217,-780685,0,0,0,142,132,103,238,114,363,210,54,384,108,47,189,0,,
1,1786987228992,-5345,24713,8925,2091602,2883283,-166155,0,0,0,55,32,0,39,17,27,262,336,41,143,320,3,0,,
2,1786987228992,2651,-14,14199,3128851,69638,-824668,0,0,0,147,134,94,237,102,314,215,54,366,129,37,164,0,,
1,1786987229008,-1732,8399,8068,3165503,3094643,10995,0,0,0,23,20,0,43,30,39,277,379,44,174,366,7,0,,
2,1786987229008,3814,-100,15434,3784921,171042,-960280,0,0,0,132,145,90,231,92,299,207,52,317,113,31,133,0,,
1,1786987229024,1105,-5264,16195,4602258,1791056,232128,0,0,0,14,12,0,50,26,37,376,414,76,247,390,8,0,,
2,1786987229024,4905,-134,17128,4494746,190589,-1208291,0,0,0,107,157,73,189,101,261,178,59,251,62,29,86,0,,
1,1786987229040,-349,-1971,20555,3803246,470366,322536,0,0,0,23,44,0,55,38,41,425,430,60,329,407,8,0,,
2,1786987229040,5733,-425,19248,5297423,174707,-1473406,0,0,0,86,138,59,128,105,188,158,58,189,41,22,55,0,,
1,1786987229056,-2814,1507,18760,2257757,-42760,310319,0,0,0,36,32,6,66,35,51,438,438,62,342,412,2,0,,
2,1786987229056,5934,-454,22019,6067113,212581,-1689653,0,0,0,63,104,42,117,93,153,150,57,149,43,28,47,0,,
1,1786987229072,-3689,1000,14046,959058,-142942,59864,0,0,0,55,34,13,76,30,57,439,439,63,373,416,4,0,,
2,1786987229072,5537,-268,24197,6620557,364075,-1814269,0,0,0,53,68,39,96,58,126,130,50,126,41,23,39,0,,
1,1786987229088,-2962,512,10480,487470,-204028,-139277,0,0,0,66,48,20,81,30,67,445,445,68,399,423,10,0,,
2,1786987229088,5355,-775,25561,7086036,706160,-1931555,0,0,0,42,42,25,71,45,77,115,62,89,50,52,23,0,,
1,1786987229104,-2651,947,9155,339641,-200363,-164933,0,0,0,74,59,24,86,33,72,451,451,72,418,428,9,0,,
2,1786987229104,5379,-976,25273,7320609,1222952,-2072054,0,0,0,30,32,11,59,41,46,123,82,63,72,80,15,0,,
1,1786987229120,-2842,1359,9523,241902,-113620,-92851,0,0,0,79,65,28,90,37,78,452,452,79,431,433,12,0,,
2,1786987229120,5608,2340,19387,7216761,1170417,-2190562,0,0,0,27,35,11,57,40,46,140,100,65,83,84,16,0,,
1,1786987229136,-3019,1311,9748,116064,13439,-46425,0,0,0,78,67,29,92,41,86,453,453,86,432,436,21,0,,
2,1786987229136,4881,7164,12261,6484945,371406,-2296853,0,0,0,29,43,12,59,51,52,141,118,69,71,88,14,0,,
1,1786987229152,-2809,1363,9786,52534,100181,-23212,0,0,0,89,71,35,100,40,88,456,456,85,435,437,20,0,,
2,1786987229152,4359,13132,9030,4278500,-879645,-2133141,0,0,0,29,42,3,64,50,48,143,123,61,73,88,10,0,,
1,1786987229168,-2464,1569,9887,68416,83077,-1221,0,0,0,104,87,47,101,44,92,456,456,91,427,434,21,0,,
2,1786987229168,4867,15692,9423,259006,-1528384,-1480737,0,0,0,52,39,3,96,41,41,160,98,52,84,78,6,0,,
1,1786987229184,-2431,1713,10059,139277,-7330,26878,0,0,0,80,97,34,106,51,100,452,452,102,410,429,22,0,,
2,1786987229184,4594,11576,8418,-3084869,-1798387,-982271,0,0,0,69,45,13,102,43,45,174,102,52,93,85,15,0,,
1,1786987229200,-2560,1655,10031,223576,-75747,56199,0,0,0,88,81,35,111,39,97,448,448,99,389,422,15,0,,
2,1786987229200,3809,5412,5647,-3824016,-2106263,-1054353,0,0,0,52,51,14,104,49,53,164,111,65,92,91,19,0,,
1,1786987229216,-2622,1541,9834,289550,-113620,78190,0,0,0,75,74,30,119,47,100,443,443,101,371,415,18,0,,
2,1786987229216,4407,3546,3852,-3480710,-2349387,-1301142,0,0,0,50,52,9,99,43,44,166,112,65,96,93,16,0,,
1,1786987229232,-2665,1430,9585,313984,-122173,87964,0,0,0,75,75,27,120,47,103,439,439,101,355,410,18,0,,
2,1786987229232,5680,4259,3531,-3502701,-2105041,-1374446,0,0,0,49,44,15,97,51,53,150,109,69,90,95,22,0,,
1,1786987229248,-2761,1354,9428,304210,-105068,92851,0,0,0,90,79,31,124,43,102,433,431,114,339,403,7,0,,
2,1786987229248,6235,5551,4369,-3999945,-1420872,-1203404,0,0,0,49,45,15,101,48,52,152,111,70,94,99,18,0,,
1,1786987229264,-2785,1296,9404,282219,-58643,98960,0,0,0,86,80,31,127,40,105,424,401,124,325,367,16,0,,
2,1786987229264,5886,5551,5508,-4560719,-839328,-651182,0,0,0,48,46,24,99,47,70,155,109,82,95,97,17,0,,
1,1786987229280,-2713,1287,9456,267558,-19547,105068,0,0,0,91,77,31,145,44,108,421,384,129,310,358,17,0,,
2,1786987229280,6360,4618,6178,-4921130,-378736,156381,0,0,0,52,46,19,98,45,60,156,110,78,91,96,12,0,,
1,1786987229296,-2651,1282,9490,260228,-10995,106290,0,0,0,82,80,32,136,51,108,418,369,137,298,341,24,0,,
2,1786987229296,7307,3598,6743,-5065294,190589,879645,0,0,0,50,42,14,97,47,57,160,111,76,91,94,11,0,,
1,1786987229312,-2627,1234,9504,250454,-9773,103847,0,0,0,77,80,29,137,56,112,411,348,141,283,325,23,0,,
2,1786987229312,7159,2952,8241,-5161811,850324,1419650,0,0,0,48,42,13,99,49,60,166,112,76,98,94,14,0,,
1,1786987229328,-2617,1162,9509,239459,-8552,94073,0,0,0,82,87,30,142,56,112,408,332,162,264,309,21,0,,
2,1786987229328,6690,2555,10107,-5236336,1288925,1881464,0,0,0,51,44,12,103,49,60,174,112,74,116,97,20,0,,
1,1786987229344,-2617,1124,9518,230907,-9773,80634,0,0,0,86,89,36,138,57,118,408,329,175,251,290,28,0,,
2,1786987229344,6704,2493,11768,-5310862,1452637,2174680,0,0,0,55,44,13,106,46,60,180,110,74,124,97,21,0,,
1,1786987229360,-2603,1100,9533,229685,-10995,70860,0,0,0,89,84,38,138,61,125,405,329,161,255,278,31,0,,
2,1786987229360,7049,2378,13318,-5428148,1606575,2167349,0,0,0,58,45,12,107,44,59,182,110,75,116,96,17,0,,
1,1786987229376,-2574,1072,9566,229685,-15882,62308,0,0,0,97,89,42,153,67,126,402,315,156,259,262,29,0,,
2,1786987229376,7049,1962,15434,-5542991,1771509,1974316,0,0,0,56,47,14,106,46,61,180,111,74,111,97,15,0,,
1,1786987229392,-2574,1033,9624,235793,-29321,59864,0,0,0,100,94,46,165,72,137,399,285,166,243,231,34,0,,
2,1786987229392,6815,1301,17793,-5588195,1830152,1644449,0,0,0,54,47,17,106,47,64,180,108,77,109,95,17,0,,
1,1786987229408,-2622,990,9686,257785,-51312,69638,0,0,0,94,91,47,156,78,154,397,262,173,224,206,44,0,,
2,1786987229408,6680,823,20454,-5544212,1836260,1299921,0,0,0,51,46,17,106,54,69,184,109,82,112,96,26,0,,
1,1786987229424,-2670,957,9743,289550,-72082,89186,0,0,0,101,98,55,150,76,162,396,234,187,220,176,51,0,,
2,1786987229424,6479,784,23651,-5507560,1887573,1172861,0,0,0,52,46,13,110,55,71,177,117,84,106,107,22,0,,
1,1786987229440,-2718,933,9763,324980,-78190,112399,0,0,0,107,92,46,183,75,163,390,196,193,227,144,58,0,,
2,1786987229440,6283,210,26762,-5563760,1876578,1440420,0,0,0,52,46,13,104,50,59,180,120,77,109,103,19,0,,
1,1786987229456,-2747,885,9763,365297,-72082,134390,0,0,0,100,102,62,160,89,172,372,193,209,163,152,52,0,,
2,1786987229456,6087,-4187,28006,-5550321,1954768,2123367,0,0,0,53,47,17,103,50,60,176,121,75,103,102,19,0,,
1,1786987229472,-2761,823,9820,420275,-72082,160046,0,0,0,103,117,61,173,81,200,356,162,217,164,123,59,0,,
2,1786987229472,4900,-10863,27595,-5182580,2342057,2609616,0,0,0,48,48,12,103,53,59,169,130,71,100,118,16,0,,
1,1786987229488,-2823,756,9901,492357,-86742,188146,0,0,0,124,172,84,193,122,222,328,170,249,146,120,97,0,,
2,1786987229488,2938,-18348,26039,-4531398,2425134,2581516,0,0,0,54,52,13,104,46,58,177,119,72,107,106,16,0,,
1,1786987229504,-2971,670,9920,585208,-102625,237015,0,0,0,137,213,95,215,108,242,316,132,244,173,122,94,0,,
2,1786987229504,1732,-25326,21430,-3838677,1712866,1805717,0,0,0,56,50,14,107,45,62,181,111,73,115,105,19,0,,
1,1786987229520,-3144,593,10007,682947,-130725,299323,0,0,0,120,213,106,222,112,253,302,115,253,147,99,110,0,,
2,1786987229520,-76,-31313,16233,-2917492,1252273,645073,0,0,0,55,49,17,107,47,64,181,112,75,119,110,20,0,,
1,1786987229536,-3105,469,10275,811229,-191811,361632,0,0,0,130,208,84,266,121,266,297,116,254,138,80,113,0,,
2,1786987229536,-3780,-35381,13046,-1672549,1120326,-598647,0,0,0,53,48,15,107,45,60,184,111,76,122,111,18,0,,
1,1786987229552,-2780,325,10825,1014036,-262672,379958,0,0,0,123,221,74,283,152,299,291,104,257,134,64,142,0,,
2,1786987229552,-7695,-35271,13060,-109955,612086,-1274264,0,0,0,39,44,11,88,45,60,165,113,71,111,110,22,0,,
1,1786987229568,-2579,239,11471,1246165,-285884,362853,0,0,0,108,244,73,286,203,329,265,100,273,120,60,166,0,,
2,1786987229568,-8178,-29370,15113,1343903,-362853,-1199739,0,0,0,19,36,9,58,46,55,147,139,64,101,141,23,0,,
1,1786987229584,-2857,129,11998,1544267,-248011,340862,0,0,0,105,241,69,295,233,331,265,111,282,110,66,183,0,,
2,1786987229584,-3675,-9863,18899,2684141,-2087937,-449596,0,0,0,14,24,4,45,43,40,165,197,60,125,217,12,0,,
1,1786987229600,-3441,-14,12352,1890017,-208915,383623,0,0,0,129,203,65,311,217,326,256,109,299,118,69,194,0,,
2,1786987229600,4235,12830,14280,3032335,-3257133,478918,0,0,0,21,26,6,45,38,41,182,256,54,159,274,9,0,,
1,1786987229616,-3699,-81,12854,2338392,-169820,507018,0,0,0,152,182,65,326,207,345,198,93,329,139,69,188,0,,
2,1786987229616,5498,14515,8485,3295007,-2769662,1138652,0,0,0,27,24,6,60,40,48,228,317,51,207,343,9,0,,
1,1786987229632,-4048,0,13577,2836858,-108734,648738,0,0,0,126,190,76,320,227,368,205,86,311,146,62,185,0,,
2,1786987229632,-1373,521,11117,4130670,-664621,1237612,0,0,0,21,35,10,52,47,54,265,393,60,267,392,12,0,,
1,1786987229648,-4771,-47,14247,3327993,-32986,835663,0,0,0,104,169,103,308,214,368,221,75,305,90,49,165,0,,
2,1786987229648,-4915,-2919,19971,4041484,591317,493579,0,0,0,45,59,14,55,47,63,281,409,79,309,407,20,0,,
1,1786987229664,-5580,-430,15429,3926641,2443,1105666,0,0,0,108,156,102,283,183,333,220,68,312,93,35,154,0,,
2,1786987229664,-1220,-1292,23005,2780658,580321,-488692,0,0,0,46,49,19,69,51,64,318,412,76,342,413,28,0,,
1,1786987229680,-6556,-938,17693,4553389,-62308,1385442,0,0,0,100,178,100,221,176,306,255,76,263,82,38,125,0,,
2,1786987229680,4766,531,17712,1144761,-14660,-615752,0,0,0,65,55,26,82,60,72,341,416,79,374,420,26,0,,
1,1786987229696,-8475,-1770,20301,5163032,-70860,1676214,0,0,0,112,123,137,205,78,272,219,45,226,82,22,131,0,,
2,1786987229696,4670,1411,10930,375071,-133168,-32986,0,0,0,67,64,54,86,62,85,349,421,98,388,427,46,0,,
1,1786987229712,-10983,-2866,22182,5709146,89186,2057394,0,0,0,62,75,65,126,72,207,156,42,157,54,25,117,0,,
2,1786987229712,1880,1526,8695,357967,120951,199142,0,0,0,78,74,43,115,65,79,376,426,92,408,434,38,0,,
1,1786987229728,-12361,-2636,23905,6148969,113620,2700024,0,0,0,34,56,26,76,59,110,128,72,128,41,45,53,0,,
2,1786987229728,1852,1330,9442,268780,182037,113620,0,0,0,87,84,40,121,70,74,378,431,91,419,437,31,0,,
1,1786987229744,-10437,-138,24737,6294355,-53756,3310889,0,0,0,18,46,4,45,61,57,107,97,64,46,66,16,0,,
2,1786987229744,2656,1560,10021,79412,14660,45204,0,0,0,93,81,40,128,65,75,407,438,93,431,441,29,0,,
1,1786987229760,-9413,3326,22718,6335894,146607,3637091,0,0,0,14,28,7,26,33,36,109,105,49,46,68,6,0,,
2,1786987229760,2569,1899,9873,29321,-75747,46425,0,0,0,97,102,41,138,70,77,420,438,87,441,444,32,0,,
1,1786987229776,-9638,7092,16458,6194173,230907,3736051,0,0,0,15,22,10,30,30,39,120,111,67,47,70,8,0,,
2,1786987229776,2282,2033,9691,116064,-58643,39095,0,0,0,103,119,44,144,83,81,412,435,91,443,443,32,0,,
1,1786987229792,-7628,10184,8901,5615073,24434,3434284,0,0,0,18,35,6,42,38,40,139,121,64,52,74,4,0,,
2,1786987229792,2239,1914,9763,195476,-37873,3665,0,0,0,112,103,46,156,79,83,426,439,107,439,439,29,0,,
1,1786987229808,-3618,12199,7619,4216191,307876,2151467,0,0,0,16,37,4,41,41,36,136,133,55,56,88,6,0,,
2,1786987229808,2196,1890,9853,240680,-7330,-23212,0,0,0,118,98,47,178,70,85,431,436,112,434,438,38,0,,
1,1786987229824,-3450,14113,8499,1252273,1125213,-246789,0,0,0,11,32,8,29,44,40,112,143,59,54,106,14,0,,
2,1786987229824,2153,1914,9882,291993,57421,-47647,0,0,0,115,111,50,190,79,94,404,426,122,403,425,34,0,,
1,1786987229840,-6006,12270,7006,-1737300,1312138,-2085493,0,0,0,9,36,9,29,45,41,109,147,59,46,110,12,0,,
2,1786987229840,2153,1856,9815,366519,146607,-72082,0,0,0,111,105,43,184,74,94,413,410,147,364,410,30,0,,
1,1786987229856,-6542,7915,4536,-2670702,686612,-1855808,0,0,0,10,34,4,34,45,36,120,144,57,46,101,10,0,,
2,1786987229856,2239,1780,9715,426383,215024,-89186,0,0,0,108,115,55,164,81,104,397,372,154,348,348,34,0,,
1,1786987229872,-5072,5187,3503,-2917492,235793,-1123992,0,0,0,16,40,10,31,45,41,119,140,57,49,96,11,0,,
2,1786987229872,2450,1698,9600,466701,237015,-98960,0,0,0,118,114,55,185,78,117,413,333,140,346,324,41,0,,
1,1786987229888,-2756,4804,4292,-3095865,295658,-525344,0,0,0,16,40,9,31,46,39,114,149,57,53,110,14,0,,
2,1786987229888,2622,1603,9538,475253,177150,-102625,0,0,0,119,120,90,171,82,125,412,323,155,323,308,45,0,,
1,1786987229904,-2139,5388,5594,-3635869,680503,-529009,0,0,0,14,39,7,33,50,41,108,148,57,53,121,14,0,,
2,1786987229904,2646,1497,9518,464257,98960,-103847,0,0,0,100,125,104,154,97,157,385,308,201,265,272,77,0,,
1,1786987229920,-3335,5431,6781,-4476420,839328,-780685,0,0,0,13,37,5,33,47,45,115,148,63,49,111,15,0,,
2,1786987229920,2579,1411,9523,439822,39095,-98960,0,0,0,109,117,81,154,90,147,393,272,192,254,236,69,0,,
1,1786987229936,-4345,4833,7910,-5188689,561996,-957836,0,0,0,14,36,8,34,47,44,126,140,62,64,113,10,0,,
2,1786987229936,2517,1368,9585,421497,18325,-94073,0,0,0,110,118,77,150,82,154,399,231,202,258,194,59,0,,
1,1786987229952,-4307,3728,9451,-5762902,72082,-1136209,0,0,0,15,35,3,34,47,41,115,135,57,73,115,12,0,,
2,1786987229952,2498,1325,9652,415388,10995,-90408,0,0,0,122,121,82,153,92,160,401,209,229,252,170,64,0,,
1,1786987229968,-4173,2335,10969,-6100100,-173485,-1428202,0,0,0,10,34,6,35,48,41,120,136,60,72,115,13,0,,
2,1786987229968,2507,1244,9672,412944,9773,-84299,0,0,0,123,123,84,166,95,165,402,204,233,239,159,69,0,,
1,1786987229984,-4857,961,12170,-6234490,-353080,-1650557,0,0,0,23,37,7,41,44,37,139,133,59,85,107,14,0,,
2,1786987229984,2522,1129,9652,398284,2443,-78190,0,0,0,118,125,89,177,86,174,401,194,232,224,147,69,0,,
1,1786987230000,-5695,-119,13189,-6162408,-610865,-1651779,0,0,0,22,38,10,41,45,41,133,132,57,79,102,9,0,,
2,1786987230000,2584,1062,9672,381179,-6108,-76969,0,0,0,126,129,96,180,84,181,401,184,237,208,141,71,0,,
1,1786987230016,-6015,-899,14630,-5953492,-944397,-1384220,0,0,0,20,36,7,39,42,41,132,134,58,93,106,14,0,,
2,1786987230016,2694,1028,9676,368962,-25656,-81855,0,0,0,126,136,96,184,90,204,402,186,240,199,149,78,0,,
1,1786987230032,-6044,-1206,16176,-5765346,-1169196,-1055575,0,0,0,18,37,4,37,42,40,133,139,60,84,104,16,0,,
2,1786987230032,2737,990,9691,364075,-54977,-101403,0,0,0,130,134,115,192,90,250,401,157,284,194,147,97,0,,
1,1786987230048,-6159,-1206,17702,-5619960,-1285260,-778242,0,0,0,18,40,6,37,46,40,129,144,59,64,100,12,0,,
2,1786987230048,2660,957,9782,378736,-74525,-128281,0,0,0,130,137,131,186,96,249,397,143,301,184,138,108,0,,
1,1786987230064,-6494,-1378,19267,-5424483,-1418429,-585208,0,0,0,20,41,9,35,48,39,124,144,56,62,102,11,0,,
2,1786987230064,2646,928,9873,411723,-73303,-149051,0,0,0,126,152,101,196,119,247,381,142,294,183,108,115,0,,
1,1786987230080,-6369,-2388,21033,-5082398,-1666440,-475253,0,0,0,23,42,8,33,45,39,118,140,56,66,104,13,0,,
2,1786987230080,2665,856,9935,465479,-53756,-173485,0,0,0,139,162,91,207,136,252,392,139,276,191,87,111,0,,
1,1786987230096,-5144,-4603,23115,-4645019,-1902234,-419053,0,0,0,17,38,3,33,47,39,116,138,57,76,110,15,0,,
2,1786987230096,2675,756,9959,530231,-29321,-207694,0,0,0,114,156,94,203,131,271,360,131,296,172,94,147,0,,
1,1786987230112,-2986,-8083,24910,-4168544,-2006081,-392175,0,0,0,22,37,5,35,47,37,117,133,58,84,110,15,0,,
2,1786987230112,2703,636,9897,593761,-15882,-241902,0,0,0,133,145,99,247,99,303,337,98,329,156,72,164,0,,
1,1786987230128,-1737,-12730,25288,-4059810,-2030516,-210137,0,0,0,20,45,14,35,49,42,121,128,62,70,100,13,0,,
2,1786987230128,2770,564,9968,665843,-31764,-278554,0,0,0,121,143,116,231,89,362,300,79,357,146,89,181,0,,
1,1786987230144,-765,-17808,23378,-4361577,-2025629,173485,0,0,0,19,43,8,37,49,41,126,123,60,74,94,8,0,,
2,1786987230144,2828,521,10236,767246,-62308,-312763,0,0,0,134,148,124,236,94,379,275,72,381,157,71,205,0,,
1,1786987230160,2124,-23618,19707,-4509407,-1990198,687834,0,0,0,14,48,5,37,55,47,120,135,60,74,104,14,0,,
2,1786987230160,2823,406,10595,917519,-67195,-354301,0,0,0,140,165,126,227,119,381,262,79,389,140,57,217,0,,
1,1786987230176,6781,-29341,16381,-3587000,-1594358,1032362,0,0,0,14,47,10,33,56,48,120,140,63,75,112,12,0,,
2,1786987230176,2617,306,11021,1138652,-1221,-392175,0,0,0,150,176,118,241,138,389,243,82,387,126,60,235,0,,
1,1786987230192,10031,-33323,14304,-1921782,-872315,1086118,0,0,0,12,48,3,34,59,49,121,151,63,72,114,15,0,,
2,1786987230192,2507,272,11519,1407433,78190,-404392,0,0,0,164,180,107,254,150,395,214,96,387,127,77,266,0,,
1,1786987230208,10926,-33117,14017,-31764,-72082,835663,0,0,0,13,42,6,34,54,46,135,145,66,62,94,14,0,,
2,1786987230208,2732,177,11978,1718974,118507,-412944,0,0,0,161,188,113,239,158,397,221,108,392,123,87,287,0,,
1,1786987230224,8566,-26671,15223,1284038,718377,483805,0,0,0,18,39,9,35,46,52,171,170,67,73,114,13,0,,
2,1786987230224,3153,-38,12313,2037846,108734,-469144,0,0,0,155,192,127,247,143,399,244,89,395,127,73,284,0,,
1,1786987230240,1373,-7255,16630,2260201,1778839,134390,0,0,0,16,29,3,27,36,33,188,226,57,88,171,8,0,,
2,1786987230240,3460,-224,12806,2409252,101403,-571769,0,0,0,159,182,130,253,112,393,216,71,391,138,57,285,0,,
1,1786987230256,-7776,22502,13242,2168571,2899166,-249233,0,0,0,19,17,6,27,23,32,190,246,54,133,223,8,0,,
2,1786987230256,3838,-382,13663,2818532,89186,-701273,0,0,0,156,169,138,215,95,392,207,61,387,123,48,306,0,,
1,1786987230272,-5766,18229,8308,2124589,3060434,-398284,0,0,0,23,10,6,42,18,36,266,304,50,190,278,5,0,,
2,1786987230272,5125,-540,14797,3371976,64751,-929736,0,0,0,160,151,136,201,97,384,189,68,375,96,50,290,0,,
1,1786987230288,-124,2675,10102,3338989,2409252,-252898,0,0,0,22,10,1,54,22,31,363,386,51,235,346,0,0,,
2,1786987230288,6288,-703,16099,4014606,28099,-1275486,0,0,0,147,165,110,228,129,336,194,110,311,103,67,193,0,,
1,1786987230304,1943,-4063,18157,3942524,1401324,100181,0,0,0,27,16,1,57,24,35,403,414,55,285,390,0,0,,
2,1786987230304,6441,-794,18143,4662123,-24434,-1611462,0,0,0,121,139,87,206,121,284,194,70,252,90,35,121,0,,
1,1786987230320,-1158,-1234,21253,2495995,816115,315206,0,0,0,43,22,5,65,24,45,421,421,52,341,400,1,0,,
2,1786987230320,6403,-646,20899,5310862,-63529,-1830152,0,0,0,97,116,81,162,86,208,181,48,217,81,30,115,0,,
1,1786987230336,-3278,966,16233,775798,339641,48869,0,0,0,51,30,12,67,28,52,426,426,66,353,405,1,0,,
2,1786987230336,7087,100,23541,6042678,-6108,-2037846,0,0,0,54,96,40,106,105,129,139,81,146,62,44,67,0,,
1,1786987230352,-2660,1727,11002,185703,-48869,-201585,0,0,0,56,44,13,66,34,53,429,429,65,349,407,3,0,,
2,1786987230352,7135,770,24244,6581462,171042,-2282192,0,0,0,36,55,18,67,65,83,114,96,96,29,23,247,0,,
1,1786987230368,-1986,1684,9121,371406,-208915,-188146,0,0,0,69,48,21,79,26,62,439,439,87,372,415,17,0,,
2,1786987230368,6642,2359,23067,6918659,638965,-2583959,0,0,0,29,29,9,58,36,62,123,93,69,44,37,151,0,,
1,1786987230384,-2450,1459,9528,361632,-163711,-100181,0,0,0,75,52,27,76,28,61,440,440,96,377,415,3,0,,
2,1786987230384,6121,4513,19473,6943094,963945,-2835636,0,0,0,31,28,13,65,37,60,144,104,68,71,70,16,0,,
1,1786987230400,-2814,1368,9772,199142,-80634,-58643,0,0,0,72,56,27,90,38,63,445,445,87,387,421,16,0,,
2,1786987230400,5805,6939,11864,6449515,613308,-2864957,0,0,0,29,31,20,65,43,67,144,118,86,77,85,23,0,,
1,1786987230416,-2804,1488,9629,35430,7330,-48869,0,0,0,73,57,44,78,28,114,446,446,135,401,426,46,0,,
2,1786987230416,5719,12620,7365,4271169,-62308,-2401922,0,0,0,31,33,16,67,45,58,150,122,79,95,92,24,0,,
1,1786987230432,-2531,1765,9538,20769,51312,-29321,0,0,0,79,55,39,97,35,91,447,447,113,402,423,14,0,,
2,1786987230432,4230,16951,8705,627969,-540004,-1401324,0,0,0,45,42,11,74,49,47,168,130,57,119,104,14,0,,
1,1786987230448,-2378,1895,9719,105068,24434,4886,0,0,0,87,55,34,110,33,81,447,447,111,392,419,21,0,,
2,1786987230448,2388,14118,9892,-2856405,-1287703,-249233,0,0,0,42,53,11,69,58,54,154,135,58,106,112,8,0,,
1,1786987230464,-2359,1852,9930,175929,-24434,31764,0,0,0,86,59,38,110,39,77,440,440,121,379,414,27,0,,
2,1786987230464,3359,7705,6508,-3613878,-2042733,18325,0,0,0,30,54,15,66,68,62,136,140,60,83,118,4,0,,
1,1786987230480,-2383,1804,9911,215024,-70860,52534,0,0,0,83,56,35,110,37,80,436,436,124,370,409,20,0,,
2,1786987230480,5135,4359,3541,-3674965,-2156354,-156381,0,0,0,23,46,8,73,70,66,131,131,50,77,108,1,0,,
1,1786987230496,-2431,1742,9734,248011,-105068,72082,0,0,0,81,57,39,109,37,101,434,434,130,361,406,20,0,,
2,1786987230496,5594,4800,3546,-3921754,-1494176,-464257,0,0,0,50,45,13,73,61,60,137,122,51,90,100,8,0,,
1,1786987230512,-2507,1660,9538,257785,-113620,83077,0,0,0,80,55,52,108,37,117,432,430,145,363,402,30,0,,
2,1786987230512,4546,5412,5312,-4527733,-948062,-486248,0,0,0,34,45,26,70,54,73,143,128,73,94,100,24,0,,
1,1786987230528,-2579,1574,9428,244346,-96516,86742,0,0,0,80,52,53,112,36,131,432,422,165,356,397,46,0,,
2,1786987230528,4048,5336,6714,-5028642,-641408,-324980,0,0,0,27,54,24,42,58,64,129,145,72,84,111,22,0,,
1,1786987230544,-2574,1545,9399,226020,-67195,85521,0,0,0,82,57,50,112,39,150,429,401,189,341,388,58,0,,
2,1786987230544,4374,4867,7628,-5323079,-401949,26878,0,0,0,27,53,20,56,57,64,131,142,68,82,112,24,0,,
1,1786987230560,-2541,1560,9442,224798,-48869,84299,0,0,0,86,66,56,109,46,161,425,379,196,339,375,52,0,,
2,1786987230560,5049,4134,8427,-5496565,-21991,511905,0,0,0,31,54,16,63,60,62,132,134,63,85,108,18,0,,
1,1786987230576,-2531,1564,9533,244346,-40317,81855,0,0,0,87,74,54,116,60,172,422,373,185,331,368,43,0,,
2,1786987230576,5685,3043,9308,-5489235,551000,971275,0,0,0,29,52,19,60,61,66,130,135,68,85,111,21,0,,
1,1786987230592,-2541,1526,9600,262672,-26878,76969,0,0,0,84,91,56,117,78,164,419,351,203,326,355,40,0,,
2,1786987230592,5652,2244,10882,-5362175,1159422,1310916,0,0,0,25,52,21,56,59,70,137,137,74,82,108,23,0,,
1,1786987230608,-2531,1459,9614,274889,-8552,68416,0,0,0,92,78,62,134,64,170,420,334,238,328,327,51,0,,
2,1786987230608,5139,2091,13041,-5293758,1412320,1491732,0,0,0,26,56,27,58,61,75,138,142,83,85,109,33,0,,
1,1786987230624,-2488,1387,9605,278554,0,62308,0,0,0,95,80,70,134,55,179,412,323,217,305,312,51,0,,
2,1786987230624,5106,1655,15252,-5320636,1506393,1610240,0,0,0,28,57,32,60,63,77,132,145,89,89,111,41,0,,
1,1786987230640,-2455,1340,9633,279776,-4886,61086,0,0,0,106,80,67,144,55,176,408,304,234,278,288,62,0,,
2,1786987230640,5465,789,16951,-5352401,1552819,1543045,0,0,0,26,55,26,62,63,75,131,143,84,90,110,35,0,,
1,1786987230656,-2450,1335,9676,289550,-20769,62308,0,0,0,110,79,78,160,50,179,405,271,243,246,245,80,0,,
2,1786987230656,5474,253,18698,-5235115,1642005,1378111,0,0,0,24,55,18,66,66,72,133,143,72,91,113,26,0,,
1,1786987230672,-2488,1316,9691,320093,-39095,72082,0,0,0,145,101,116,181,56,189,404,246,246,230,222,74,0,,
2,1786987230672,5321,38,20971,-5055520,1706757,1318247,0,0,0,26,59,19,64,64,67,131,142,68,88,112,23,0,,
1,1786987230688,-2555,1244,9657,359188,-42760,91629,0,0,0,138,96,141,159,56,205,407,226,277,218,211,83,0,,
2,1786987230688,5130,-751,23440,-4877148,1685988,1478293,0,0,0,30,58,20,65,66,68,134,139,69,87,110,20,0,,
1,1786987230704,-2550,1172,9672,394618,-43982,114842,0,0,0,125,91,143,191,65,221,403,203,281,206,169,101,0,,
2,1786987230704,5216,-4130,25005,-4653571,1753183,1802052,0,0,0,30,57,19,65,57,64,139,130,71,94,105,23,0,,
1,1786987230720,-2455,1105,9767,437379,-65973,140499,0,0,0,138,104,124,194,86,220,403,177,284,211,148,121,0,,
2,1786987230720,5125,-8978,25206,-4421442,2120924,1959655,0,0,0,31,57,20,67,58,65,137,130,71,89,98,23,0,,
1,1786987230736,-2412,1048,9853,486248,-119729,155159,0,0,0,149,119,118,217,92,228,402,167,289,187,127,132,0,,
2,1786987230736,4158,-14893,23981,-4169766,2493551,1802052,0,0,0,30,60,18,64,67,65,145,145,68,87,113,20,0,,
1,1786987230752,-2459,990,9944,551000,-178372,164933,0,0,0,144,131,122,238,90,268,402,153,312,168,110,136,0,,
2,1786987230752,2167,-20674,20985,-3813020,2278527,1303586,0,0,0,29,48,12,64,53,62,149,124,67,91,95,20,0,,
1,1786987230768,-2584,933,10093,640186,-224798,173485,0,0,0,131,142,112,236,99,302,408,146,341,160,105,143,0,,
2,1786987230768,-268,-26010,16999,-3153286,1787391,612086,0,0,0,36,49,17,70,55,62,151,129,66,102,98,16,0,,
1,1786987230784,-2665,914,10327,747699,-249233,182037,0,0,0,121,143,93,232,105,300,414,148,348,148,101,159,0,,
2,1786987230784,-2560,-29700,13194,-2065946,1216843,-246789,0,0,0,34,51,14,69,58,62,151,133,69,94,102,16,0,,
1,1786987230800,-2680,885,10619,910189,-245567,184481,0,0,0,121,138,88,237,115,324,406,137,348,146,99,184,0,,
2,1786987230800,-4412,-30198,11825,-680503,722042,-1065348,0,0,0,31,40,13,63,49,58,149,127,67,88,105,20,0,,
1,1786987230816,-2703,780,10926,1123992,-224798,183259,0,0,0,117,155,77,276,159,379,380,144,354,121,95,210,0,,
2,1786987230816,-6183,-27245,13553,580321,35430,-1422094,0,0,0,28,32,14,60,40,52,155,143,65,97,135,20,0,,
1,1786987230832,-2885,607,11337,1396437,-211359,190589,0,0,0,122,159,72,297,175,403,336,101,381,125,80,204,0,,
2,1786987230832,-6953,-17329,18028,1979203,-1744631,-984714,0,0,0,23,26,10,50,36,44,163,183,67,122,186,12,0,,
1,1786987230848,-3292,464,11868,1699427,-250454,262672,0,0,0,104,162,70,263,187,402,287,101,404,115,74,223,0,,
2,1786987230848,76,1416,15228,3022561,-3718947,39095,0,0,0,20,19,7,44,34,38,183,231,68,150,221,8,0,,
1,1786987230864,-3651,306,12591,2043955,-261450,378736,0,0,0,129,148,66,295,159,402,197,128,388,113,76,258,0,,
2,1786987230864,4441,10610,10547,3313333,-3738495,856433,0,0,0,25,20,8,55,37,46,212,280,62,172,259,13,0,,
1,1786987230880,-3986,215,13256,2466673,-218689,543670,0,0,0,123,143,64,256,113,387,168,72,350,109,53,207,0,,
2,1786987230880,406,3938,10423,3409849,-1821600,1066570,0,0,0,28,25,8,63,46,61,229,322,59,206,330,9,0,,
1,1786987230896,-4292,224,13663,2921157,-120951,739146,0,0,0,112,153,62,239,120,355,156,58,352,105,49,213,0,,
2,1786987230896,-4101,-617,14922,3597996,-382401,487470,0,0,0,26,20,7,74,42,62,269,355,67,260,358,2,0,,
1,1786987230912,-4656,210,14529,3478266,2443,961501,0,0,0,88,146,68,189,131,331,123,78,339,78,61,157,0,,
2,1786987230912,-3536,-574,17563,3480710,293215,-508239,0,0,0,36,21,7,73,39,59,322,394,81,323,401,20,0,,
1,1786987230928,-5302,339,16247,4131892,141720,1191187,0,0,0,70,134,60,149,128,247,136,71,275,61,42,93,0,,
2,1786987230928,3192,1263,16501,2827084,64751,-1047023,0,0,0,44,44,18,69,39,61,341,410,65,323,407,6,0,,
1,1786987230944,-6618,574,18324,4872261,309097,1450194,0,0,0,56,133,54,123,96,202,144,58,207,59,31,70,0,,
2,1786987230944,5723,-258,13969,1717753,-261450,-317649,0,0,0,45,39,77,67,36,92,364,419,113,386,423,48,0,,
1,1786987230960,-8714,315,20263,5601634,471587,1817934,0,0,0,49,102,44,96,66,153,131,55,154,57,29,62,0,,
2,1786987230960,3426,-756,11677,818559,-388510,254119,0,0,0,68,52,46,96,58,99,393,426,89,397,428,27,0,,
1,1786987230976,-9710,100,22689,6225938,525344,2290744,0,0,0,40,71,29,75,50,96,112,60,96,44,27,42,0,,
2,1786987230976,1000,76,10385,340862,-311541,265115,0,0,0,76,64,51,89,54,117,390,433,126,433,441,39,0,,
1,1786987230992,-7738,617,24546,6577796,700051,2572964,0,0,0,23,51,11,50,43,55,102,91,53,36,53,16,0,,
2,1786987230992,1320,717,10107,164933,-210137,70860,0,0,0,90,73,48,98,58,100,412,441,105,432,442,34,0,,
1,1786987231008,-7188,1603,24321,6786712,1329242,2645046,0,0,0,12,29,1,30,37,34,110,121,49,46,82,4,0,,
2,1786987231008,2115,717,10179,59864,-221133,32986,0,0,0,91,74,62,102,55,108,423,443,142,439,443,50,0,,
1,1786987231024,-9384,3330,19210,6779382,2158797,2593733,0,0,0,13,22,4,30,32,29,124,123,59,64,88,6,0,,
2,1786987231024,2086,756,10222,-18325,-223576,50090,0,0,0,94,95,77,105,65,116,425,446,150,448,448,63,0,,
1,1786987231040,-11318,6030,12275,6447071,2241875,2610838,0,0,0,14,30,2,33,33,32,123,134,61,76,108,10,0,,
2,1786987231040,1904,966,10150,-18325,-190589,37873,0,0,0,105,114,81,111,69,113,422,447,136,451,451,64,0,,
1,1786987231056,-9935,12160,9485,4754975,1640784,2107485,0,0,0,18,30,6,36,32,43,123,126,65,83,101,21,0,,
2,1786987231056,1880,1119,10054,29321,-168598,12217,0,0,0,114,116,78,120,63,115,425,445,138,451,451,60,0,,
1,1786987231072,-6695,17994,9772,1274264,1222952,459370,0,0,0,19,28,11,36,31,53,137,122,86,76,86,20,0,,
2,1786987231072,1871,1115,10035,96516,-158824,-2443,0,0,0,115,116,75,123,63,121,433,443,142,449,449,58,0,,
1,1786987231088,-5527,16635,8791,-1946216,1385442,-1390329,0,0,0,13,29,13,36,29,52,133,127,85,80,92,29,0,,
2,1786987231088,1775,1076,10050,161268,-124616,-3665,0,0,0,105,121,86,106,64,119,423,436,144,444,445,64,0,,
1,1786987231104,-7365,10452,5130,-3138625,1232726,-1787391,0,0,0,17,31,14,36,24,53,137,134,81,82,97,25,0,,
2,1786987231104,1718,1062,9992,218689,-81855,0,0,0,0,107,121,121,95,70,138,405,414,158,436,437,77,0,,
1,1786987231120,-7891,6470,3101,-3386636,487470,-1152091,0,0,0,18,30,15,32,28,54,133,134,81,75,98,21,0,,
2,1786987231120,1742,1019,9868,266337,-48869,0,0,0,0,131,141,98,103,74,133,407,394,142,432,428,56,0,,
1,1786987231136,-5355,5675,3957,-3615100,-318871,-285884,0,0,0,13,29,6,38,35,42,144,134,66,79,99,21,0,,
2,1786987231136,1818,918,9743,279776,-46425,0,0,0,0,101,131,78,109,92,130,402,373,146,422,401,52,0,,
1,1786987231152,-3086,6341,6025,-4313930,-260228,-211359,0,0,0,17,30,3,41,35,44,144,134,64,82,98,15,0,,
2,1786987231152,1856,837,9657,261450,-59864,0,0,0,0,101,135,78,110,92,130,402,354,147,403,378,70,0,,
1,1786987231168,-2804,6322,7690,-5171585,-73303,-409279,0,0,0,21,29,7,43,31,48,147,130,72,82,99,16,0,,
2,1786987231168,1871,832,9657,234572,-79412,-1221,0,0,0,113,137,93,112,89,131,381,340,155,404,367,69,0,,
1,1786987231184,-3866,5096,8413,-5717698,-316428,-531452,0,0,0,21,30,10,42,33,46,147,131,69,82,101,16,0,,
2,1786987231184,1852,851,9729,241902,-95294,-8552,0,0,0,133,140,86,137,82,128,373,317,151,394,361,55,0,,
1,1786987231200,-3555,3541,9399,-5801998,-922406,-392175,0,0,0,20,32,8,41,32,45,150,133,71,85,102,13,0,,
2,1786987231200,1823,851,9782,265115,-108734,-19547,0,0,0,130,128,96,133,84,129,362,300,133,387,362,48,0,,
1,1786987231216,-2723,2617,10973,-5701816,-1359786,-240680,0,0,0,21,32,9,43,32,46,153,132,71,87,100,12,0,,
2,1786987231216,1775,804,9801,290771,-114842,-29321,0,0,0,122,124,96,127,86,123,350,272,140,366,334,55,0,,
1,1786987231232,-2330,2526,12940,-5649281,-1532050,-172263,0,0,0,24,33,11,43,33,46,155,132,69,89,100,14,0,,
2,1786987231232,1722,737,9825,306654,-108734,-29321,0,0,0,127,125,111,138,85,128,352,251,162,360,290,61,0,,
1,1786987231248,-2522,2479,14970,-5766567,-1639562,-141720,0,0,0,27,34,12,43,33,48,154,132,69,90,100,15,0,,
2,1786987231248,1703,693,9892,326202,-94073,-26878,0,0,0,127,145,141,138,86,141,340,238,175,339,265,66,0,,
1,1786987231264,-2775,1636,16874,-5916840,-1782504,-63529,0,0,0,28,34,11,46,33,47,152,130,67,89,100,14,0,,
2,1786987231264,1742,679,9978,362853,-72082,-26878,0,0,0,130,156,159,142,92,156,325,225,187,323,232,68,0,,
1,1786987231280,-2871,358,18468,-5904623,-1857030,-65973,0,0,0,25,31,9,48,33,45,157,130,65,94,103,15,0,,
2,1786987231280,1785,622,9997,412944,-52534,-37873,0,0,0,135,157,176,161,102,174,313,202,198,307,195,73,0,,
1,1786987231296,-3431,-837,19655,-5590638,-1833817,-387288,0,0,0,28,32,7,51,33,42,166,132,59,108,113,9,0,,
2,1786987231296,1765,521,9968,455705,-31764,-51312,0,0,0,138,168,192,171,108,189,293,174,204,277,183,88,0,,
1,1786987231312,-4063,-1890,20985,-5128824,-1918116,-944397,0,0,0,26,33,6,48,34,43,159,129,61,112,113,15,0,,
2,1786987231312,1737,435,9968,496022,-1221,-65973,0,0,0,147,176,187,163,113,191,279,161,226,254,179,105,0,,
1,1786987231328,-4000,-3201,22947,-4593706,-2163684,-1709200,0,0,0,29,28,4,51,29,41,165,119,64,116,94,10,0,,
2,1786987231328,1785,406,10045,543670,29321,-81855,0,0,0,142,187,188,155,132,199,287,163,258,232,163,115,0,,
1,1786987231344,-3182,-5518,25522,-4196644,-2419026,-2487443,0,0,0,29,28,4,51,29,43,166,118,64,112,94,10,0,,
2,1786987231344,1928,306,10160,619417,58643,-116064,0,0,0,163,220,192,171,172,210,309,144,270,218,123,91,0,,
1,1786987231360,-2995,-10591,26781,-4268726,-2383596,-2933374,0,0,0,30,29,4,51,29,45,167,118,64,109,94,10,0,,
2,1786987231360,2120,210,10313,698829,57421,-161268,0,0,0,141,211,186,169,156,224,280,130,293,216,114,123,0,,
1,1786987231376,-4264,-18449,24723,-4565606,-2042733,-2785545,0,0,0,31,33,7,53,29,41,166,117,58,115,94,5,0,,
2,1786987231376,2340,148,10643,823446,2443,-227241,0,0,0,164,236,171,191,165,226,255,147,279,169,142,136,0,,
1,1786987231392,-4709,-27882,19602,-4473977,-1826487,-1706757,0,0,0,30,34,9,53,29,45,166,119,63,113,95,5,0,,
2,1786987231392,2455,86,11036,982271,-79412,-299323,0,0,0,158,229,149,208,170,258,231,121,293,132,99,137,0,,
1,1786987231408,583,-32600,16123,-3369532,-1866804,-270002,0,0,0,30,32,5,53,32,43,167,120,64,115,98,6,0,,
2,1786987231408,2435,0,11557,1192408,-175929,-376292,0,0,0,144,250,127,223,225,286,200,90,301,137,87,171,0,,
1,1786987231424,7346,-34682,14199,-1654223,-1329242,948062,0,0,0,25,35,5,45,34,42,159,124,63,125,99,12,0,,
2,1786987231424,2225,-143,12299,1488067,-257785,-442266,0,0,0,180,244,99,232,184,283,184,78,292,134,83,151,0,,
1,1786987231440,9758,-33376,14386,-65973,-173485,1284038,0,0,0,20,34,4,40,34,44,170,179,58,106,121,10,0,,
2,1786987231440,2000,-244,12878,1899790,-263893,-482583,0,0,0,181,222,98,224,169,281,171,76,279,125,72,141,0,,
1,1786987231456,7513,-26647,16846,1199739,1171639,1076344,0,0,0,29,26,2,37,25,36,226,256,51,130,185,4,0,,
2,1786987231456,2115,-282,13247,2342057,-267558,-519235,0,0,0,182,210,92,214,164,258,163,77,249,111,69,144,0,,
1,1786987231472,674,-1349,16027,2296853,3003013,645073,0,0,0,31,16,0,39,17,25,263,323,40,201,286,7,0,,
2,1786987231472,2584,-382,13945,2839301,-324980,-599869,0,0,0,171,226,90,183,196,252,159,106,234,95,91,154,0,,
1,1786987231488,-4369,16817,11509,2950479,4247956,359188,0,0,0,23,10,0,43,21,31,279,375,39,246,363,10,0,,
2,1786987231488,3421,-531,14955,3353650,-408057,-739146,0,0,0,161,224,86,159,198,228,154,111,201,75,84,115,0,,
1,1786987231504,-2493,7939,13218,4010941,3467271,311541,0,0,0,25,10,0,52,25,41,341,402,48,285,390,7,0,,
2,1786987231504,4647,-622,16357,3982841,-531452,-995710,0,0,0,155,199,85,150,149,190,144,81,165,51,42,59,0,,
1,1786987231520,296,-1368,19238,4612032,1842369,205250,0,0,0,26,27,1,63,28,37,407,419,53,324,400,6,0,,
2,1786987231520,5336,-713,18080,4614476,-686612,-1299921,0,0,0,124,194,98,129,132,177,134,78,166,36,30,51,0,,
1,1786987231536,464,-2349,21856,3643200,525344,153938,0,0,0,21,58,0,51,40,31,433,433,74,344,408,1,0,,
2,1786987231536,5503,-1110,20799,5358509,-910189,-1580919,0,0,0,88,189,78,117,143,143,132,100,135,40,54,50,0,,
1,1786987231552,-1962,626,16898,1882686,182037,120951,0,0,0,43,24,1,68,25,39,444,444,69,389,418,6,0,,
2,1786987231552,6235,-1349,23287,6090326,-1021366,-1802052,0,0,0,59,148,29,122,110,114,108,98,89,49,59,28,0,,
1,1786987231568,-2684,1387,11222,973719,95294,-69638,0,0,0,63,31,9,80,21,47,450,450,63,421,426,1,0,,
2,1786987231568,6657,-1411,24201,6623000,-689055,-2019520,0,0,0,41,100,21,87,81,94,94,84,84,36,35,22,0,,
1,1786987231584,-2292,952,8925,614530,28099,-171042,0,0,0,67,34,14,79,23,48,458,458,69,439,439,23,0,,
2,1786987231584,7370,-579,25101,7044497,-184481,-2294409,0,0,0,36,35,11,63,40,44,131,82,72,54,49,14,0,,
1,1786987231600,-1847,512,9935,436157,40317,-138055,0,0,0,87,51,29,82,35,54,468,468,77,441,441,22,0,,
2,1786987231600,8523,1622,22895,7100697,-24434,-2609616,0,0,0,42,41,14,68,38,50,177,101,59,106,91,3,0,,
1,1786987231616,-1914,1005,10528,206472,89186,-78190,0,0,0,93,85,31,86,40,58,476,476,73,448,448,18,0,,
2,1786987231616,9619,5403,14926,6541144,-587652,-2923601,0,0,0,29,42,16,57,45,54,142,112,63,72,93,12,0,,
1,1786987231632,-1966,1502,10313,101403,111177,-37873,0,0,0,114,64,38,94,35,66,478,478,82,447,447,24,0,,
2,1786987231632,9605,12012,8925,4383568,-1029918,-2984687,0,0,0,28,45,13,52,46,48,139,109,66,66,85,16,0,,
1,1786987231648,-1856,1660,10021,138055,91629,-6108,0,0,0,113,50,36,103,38,67,479,479,87,442,442,24,0,,
2,1786987231648,7092,17042,9514,792903,-863763,-2195449,0,0,0,32,40,10,57,42,46,141,100,63,77,75,10,0,,
1,1786987231664,-1703,1564,10126,210137,42760,17104,0,0,0,109,55,42,105,34,71,467,467,88,436,436,24,0,,
2,1786987231664,4599,14070,9844,-2411695,-1147204,-733038,0,0,0,35,42,16,63,49,52,141,96,59,83,75,9,0,,
1,1786987231680,-1713,1574,10246,278554,-26878,41538,0,0,0,105,55,52,102,29,83,458,458,119,429,429,31,0,,
2,1786987231680,5403,7968,6307,-3638313,-1538158,218689,0,0,0,37,43,19,66,47,58,143,98,64,89,83,17,0,,
1,1786987231696,-1780,1636,10126,357967,-75747,62308,0,0,0,98,57,67,104,33,103,451,451,153,418,401,42,0,,
2,1786987231696,7714,4340,2459,-3351206,-1044579,234572,0,0,0,36,42,23,70,41,69,150,96,74,93,81,23,0,,
1,1786987231712,-1823,1545,9882,433714,-98960,73303,0,0,0,101,64,66,114,36,109,441,441,160,396,373,42,0,,
2,1786987231712,6800,4953,3015,-3359758,188146,-10995,0,0,0,35,44,26,74,43,74,154,96,78,94,76,23,0,,
1,1786987231728,-1899,1301,9691,437379,-86742,72082,0,0,0,110,70,49,115,34,97,432,424,151,367,363,35,0,,
2,1786987231728,4560,6092,5254,-3819129,851546,83077,0,0,0,37,46,24,75,45,72,152,107,76,93,84,21,0,,
1,1786987231744,-1952,1115,9581,388510,-57421,73303,0,0,0,102,74,50,106,37,98,425,399,152,345,344,38,0,,
2,1786987231744,3713,5939,6829,-4400673,821002,535117,0,0,0,36,46,24,73,48,74,147,121,75,87,94,19,0,,
1,1786987231760,-1957,1038,9533,307876,-20769,80634,0,0,0,101,77,58,102,34,108,419,386,154,322,315,33,0,,
2,1786987231760,4838,4556,6872,-4559498,1009149,856433,0,0,0,30,47,22,76,51,78,146,115,81,91,92,20,0,,
1,1786987231776,-1904,1067,9576,244346,0,86742,0,0,0,97,80,54,99,34,101,411,357,155,309,278,35,0,,
2,1786987231776,4905,3895,7614,-4524067,1549154,990823,0,0,0,36,45,21,81,47,77,156,96,76,110,96,20,0,,
1,1786987231792,-1832,1110,9662,200363,10995,89186,0,0,0,94,80,53,97,34,106,409,330,170,301,264,33,0,,
2,1786987231792,3579,4350,9585,-4560719,1982868,1108109,0,0,0,41,46,19,77,43,71,154,91,69,108,93,21,0,,
1,1786987231808,-1780,1124,9739,186924,7330,84299,0,0,0,90,80,53,104,34,106,404,313,170,288,254,41,0,,
2,1786987231808,2991,4608,11375,-4823391,1966986,1320690,0,0,0,39,42,16,81,44,67,155,90,69,113,97,16,0,,
1,1786987231824,-1789,1086,9743,191811,1221,75747,0,0,0,92,107,60,105,43,126,401,297,177,284,237,45,0,,
2,1786987231824,3062,4359,13137,-5172806,1955990,1522276,0,0,0,47,43,22,84,42,67,161,91,68,115,91,18,0,,
1,1786987231840,-1780,1038,9748,204028,-4886,70860,0,0,0,97,96,69,108,41,128,398,291,183,270,243,49,0,,
2,1786987231840,3330,3771,14946,-5437922,2085493,1587027,0,0,0,51,46,19,88,48,72,174,99,73,125,95,22,0,,
1,1786987231856,-1742,990,9763,212581,-23212,70860,0,0,0,98,98,66,110,41,129,396,267,195,265,225,51,0,,
2,1786987231856,3335,3019,17358,-5595525,2247984,1544267,0,0,0,53,48,19,89,45,70,179,101,73,126,84,17,0,,
1,1786987231872,-1746,947,9801,223576,-57421,78190,0,0,0,97,99,83,112,37,147,396,255,200,269,217,77,0,,
2,1786987231872,3421,2124,19856,-5709146,2313957,1494176,0,0,0,55,49,25,90,44,71,179,104,73,123,79,18,0,,
1,1786987231888,-1809,894,9810,243124,-89186,101403,0,0,0,97,97,85,120,38,141,395,238,209,271,218,86,0,,
2,1786987231888,3651,1464,22000,-5742133,2293188,1536936,0,0,0,49,44,23,88,45,69,179,101,75,121,72,18,0,,
1,1786987231904,-1871,875,9806,271224,-106290,130725,0,0,0,108,94,86,140,44,148,394,214,225,262,201,92,0,,
2,1786987231904,3900,808,24938,-5649281,2238210,1835039,0,0,0,47,42,17,90,46,68,182,105,73,122,76,16,0,,
1,1786987231920,-1890,871,9801,307876,-108734,158824,0,0,0,119,106,92,153,51,173,393,194,233,250,182,81,0,,
2,1786987231920,3771,-880,27944,-5463578,2075720,2401922,0,0,0,50,45,18,92,46,68,184,108,68,125,76,14,0,,
1,1786987231936,-1861,875,9877,353080,-101403,171042,0,0,0,127,117,86,165,59,191,392,177,228,222,161,75,0,,
2,1786987231936,4082,-4747,29150,-5265658,1974316,3092199,0,0,0,52,47,18,90,44,68,182,106,65,124,70,14,0,,
1,1786987231952,-1928,856,9997,408057,-84299,178372,0,0,0,130,124,79,175,67,220,391,159,242,191,133,101,0,,
2,1786987231952,4929,-11395,28767,-5148372,2189341,3412293,0,0,0,51,44,14,90,43,67,184,106,66,120,70,13,0,,
1,1786987231968,-2124,823,10131,504574,-39095,193033,0,0,0,131,148,92,178,79,246,393,146,273,168,110,128,0,,
2,1786987231968,4493,-22344,24924,-4770857,1952325,2801427,0,0,0,48,40,13,93,42,67,190,109,70,122,70,10,0,,
1,1786987231984,-2254,780,10294,637743,2443,223576,0,0,0,136,167,104,191,105,239,391,129,283,140,89,135,0,,
2,1786987231984,2388,-33749,17563,-3616322,1435533,1367116,0,0,0,48,38,16,93,44,71,186,108,74,123,70,15,0,,
1,1786987232000,-2234,703,10557,808785,14660,267558,0,0,0,128,176,109,196,136,271,381,96,303,131,67,157,0,,
2,1786987232000,-3642,-37367,13716,-1937664,1433089,-274889,0,0,0,47,38,21,85,44,72,187,108,76,118,76,18,0,,
1,1786987232016,-1995,574,10945,1020144,-37873,312763,0,0,0,119,201,99,172,153,277,344,83,342,112,57,189,0,,
2,1786987232016,-9863,-36463,14338,-527787,1007927,-1244943,0,0,0,29,40,15,31,30,51,165,118,67,80,96,17,0,,
1,1786987232032,-1636,464,11519,1259604,-145385,323758,0,0,0,143,166,92,236,100,308,310,73,396,117,39,216,0,,
2,1786987232032,-11639,-31983,18128,889419,-548556,-1323134,0,0,0,25,47,10,73,47,48,192,173,55,107,161,3,0,,
1,1786987232048,-1689,349,12438,1615127,-279776,310319,0,0,0,114,177,76,203,152,337,231,93,385,110,68,219,0,,
2,1786987232048,-6039,-17276,19889,2765997,-2954144,-807563,0,0,0,17,23,6,59,39,41,194,237,55,143,215,23,0,,
1,1786987232064,-2211,349,13304,2059837,-372627,327423,0,0,0,105,210,76,181,162,354,181,85,379,86,69,290,0,,
2,1786987232064,3330,5632,14218,3925420,-3841120,-194255,0,0,0,25,34,12,42,42,49,201,310,62,169,300,22,0,,
1,1786987232080,-2900,301,13811,2532647,-306654,425162,0,0,0,108,197,76,201,130,382,141,72,360,84,59,230,0,,
2,1786987232080,4824,10323,11495,4283387,-2421469,312763,0,0,0,19,26,6,64,52,73,222,372,45,225,369,11,0,,
1,1786987232096,-3445,191,14261,3027448,-169820,577878,0,0,0,113,184,86,197,129,372,141,61,332,78,48,211,0,,
2,1786987232096,-789,856,18367,4443433,-647517,307876,0,0,0,27,38,14,63,51,78,258,396,48,258,392,9,0,,
1,1786987232112,-3900,134,15132,3651752,6108,806342,0,0,0,89,185,87,176,116,361,137,59,279,74,38,165,0,,
2,1786987232112,-2325,-2699,23273,3910759,-130725,-161268,0,0,0,37,45,14,60,47,68,291,403,59,297,400,17,0,,
1,1786987232128,-4474,406,17157,4366464,142942,1060462,0,0,0,95,137,69,173,115,248,146,59,212,69,28,100,0,,
2,1786987232128,1560,-363,19674,2493551,-494800,-575435,0,0,0,55,46,38,75,46,64,322,409,72,351,412,30,0,,
1,1786987232144,-5867,430,19822,5125159,257785,1329242,0,0,0,87,126,52,153,95,169,147,56,169,61,24,60,0,,
2,1786987232144,3330,1574,12103,1434311,-426383,-211359,0,0,0,81,69,77,88,49,69,371,423,97,401,422,40,0,,
1,1786987232160,-8178,215,22555,5864306,421497,1673770,0,0,0,75,106,41,112,61,125,119,53,120,54,26,43,0,,
2,1786987232160,2675,1301,8494,896750,-238237,116064,0,0,0,100,90,106,90,54,80,424,439,125,435,432,49,0,,
1,1786987232176,-9327,440,24474,6472728,625526,2116037,0,0,0,53,68,24,69,44,81,97,60,73,58,44,26,0,,
2,1786987232176,2110,19,9557,538783,-273667,151494,0,0,0,126,74,140,104,52,97,440,440,125,444,444,58,0,,
1,1786987232192,-7695,1588,25465,6958976,916297,2408030,0,0,0,25,39,5,46,34,47,118,76,55,68,62,9,0,,
2,1786987232192,2062,363,10672,150272,-415388,96516,0,0,0,145,74,105,123,59,92,443,443,114,447,447,43,0,,
1,1786987232208,-8092,3359,24938,7230200,1367116,2535090,0,0,0,19,22,2,43,25,33,146,110,56,68,76,6,0,,
2,1786987232208,1746,1220,10547,-61086,-389732,68416,0,0,0,146,87,112,123,54,89,449,449,95,451,451,39,0,,
1,1786987232224,-9920,6164,19258,7022506,2079385,2583959,0,0,0,15,36,5,30,44,35,117,158,58,59,115,13,0,,
2,1786987232224,1598,1636,10117,-50090,-201585,58643,0,0,0,146,93,133,130,62,102,450,450,96,451,451,43,0,,
1,1786987232240,-11418,9825,12510,5942497,2499660,2364048,0,0,0,17,42,12,24,42,40,111,150,63,54,119,12,0,,
2,1786987232240,1847,1689,10122,50090,-69638,40317,0,0,0,167,114,119,131,71,92,447,447,92,447,447,40,0,,
1,1786987232256,-11485,14376,10035,3459940,1954768,1525941,0,0,0,16,34,6,37,46,48,123,155,64,59,121,9,0,,
2,1786987232256,1923,1641,10189,161268,-54977,13439,0,0,0,153,102,123,138,70,100,444,444,96,444,444,55,0,,
1,1786987232272,-8341,16372,10581,2443,1033583,-61086,0,0,0,15,39,3,33,50,49,108,157,63,56,131,12,0,,
2,1786987232272,1847,1617,10126,251676,-34208,-4886,0,0,0,148,101,124,128,66,108,436,408,120,435,426,53,0,,
1,1786987232288,-6738,12572,8327,-2136806,1094670,-1442863,0,0,0,11,39,6,21,50,45,70,133,63,53,133,14,0,,
2,1786987232288,1837,1603,10021,326202,8552,-14660,0,0,0,146,98,126,129,65,104,423,350,123,428,397,59,0,,
1,1786987232304,-8222,7901,4781,-2835636,1040914,-1771509,0,0,0,12,40,7,29,52,45,105,161,59,53,134,7,0,,
2,1786987232304,1837,1517,9897,389732,45204,-23212,0,0,0,135,100,184,126,62,130,420,325,154,412,372,84,0,,
1,1786987232320,-8772,5833,3421,-2985909,298102,-1205847,0,0,0,12,41,1,31,51,45,117,160,63,56,133,11,0,,
2,1786987232320,1856,1383,9767,406836,58643,-25656,0,0,0,140,105,146,134,69,120,416,313,141,394,337,69,0,,
1,1786987232336,-6250,5728,4814,-3602883,-252898,-739146,0,0,0,16,43,8,30,48,45,119,159,69,57,133,18,0,,
2,1786987232336,1923,1287,9696,384845,46425,-25656,0,0,0,146,108,117,138,74,108,408,291,124,375,304,49,0,,
1,1786987232352,-4369,5771,6613,-4451985,-128281,-667064,0,0,0,20,43,15,32,51,50,116,159,80,57,132,19,0,,
2,1786987232352,1995,1249,9676,357967,14660,-25656,0,0,0,147,116,119,143,82,111,401,279,125,356,278,45,0,,
1,1786987232368,-5259,5307,7528,-5133711,119729,-817337,0,0,0,21,41,17,40,48,53,135,154,82,70,130,13,0,,
2,1786987232368,2067,1244,9672,339641,-39095,-28099,0,0,0,151,126,120,149,90,117,400,277,134,340,254,46,0,,
1,1786987232384,-6283,4546,8399,-5610186,-299323,-852767,0,0,0,24,37,11,49,43,53,165,148,78,88,126,22,0,,
2,1786987232384,2062,1206,9672,339641,-90408,-35430,0,0,0,157,130,125,151,96,124,403,268,145,331,236,44,0,,
1,1786987232400,-6154,3742,9609,-5941275,-841772,-884532,0,0,0,26,36,7,49,42,54,168,148,78,102,125,26,0,,
2,1786987232400,1986,1129,9696,339641,-129503,-46425,0,0,0,156,133,123,156,117,145,398,265,147,324,232,49,0,,
1,1786987232416,-5747,2857,10964,-6123313,-1204626,-965167,0,0,0,20,37,8,42,46,54,149,153,80,89,126,19,0,,
2,1786987232416,1847,1048,9700,333532,-140499,-56199,0,0,0,155,140,128,157,98,135,388,280,150,302,241,52,0,,
1,1786987232432,-5829,1947,12672,-6216164,-1490511,-1054353,0,0,0,16,37,9,39,47,54,146,156,80,69,123,16,0,,
2,1786987232432,1765,995,9691,328645,-124616,-61086,0,0,0,154,135,144,178,99,144,395,234,173,300,214,59,0,,
1,1786987232448,-6144,1469,14558,-6208834,-1750739,-1069014,0,0,0,17,38,8,38,43,53,153,155,79,73,117,15,0,,
2,1786987232448,1761,947,9739,324980,-94073,-61086,0,0,0,139,123,181,161,82,170,394,213,193,295,193,80,0,,
1,1786987232464,-6417,976,16779,-6158743,-2043955,-1042136,0,0,0,16,38,10,41,42,51,155,152,79,78,112,18,0,,
2,1786987232464,1813,899,9810,326202,-70860,-59864,0,0,0,148,127,205,168,86,180,397,174,220,297,169,89,0,,
1,1786987232480,-6479,425,19200,-6048787,-2313957,-998153,0,0,0,21,38,10,42,40,48,160,149,78,82,110,17,0,,
2,1786987232480,1871,866,9858,338419,-61086,-62308,0,0,0,161,126,203,182,90,184,398,160,216,307,160,88,0,,
1,1786987232496,-6523,-201,21588,-5852088,-2483778,-1086118,0,0,0,27,37,10,49,44,51,162,146,72,90,109,17,0,,
2,1786987232496,1876,842,9901,370184,-61086,-74525,0,0,0,143,172,232,167,151,193,400,167,241,266,151,96,0,,
1,1786987232512,-6585,-1081,24268,-5589416,-2667037,-1379333,0,0,0,20,33,8,40,38,48,170,145,71,96,109,17,0,,
2,1786987232512,1871,823,9983,427605,-53756,-91629,0,0,0,155,157,254,168,127,216,398,138,257,233,131,101,0,,
1,1786987232528,-6188,-2727,27006,-5348736,-2908940,-1874134,0,0,0,21,40,8,47,40,48,170,147,76,94,111,17,0,,
2,1786987232528,1876,770,10040,494800,-34208,-112399,0,0,0,165,165,262,184,124,226,385,120,266,216,122,112,0,,
1,1786987232544,-4977,-6561,29456,-5225341,-3104417,-2316400,0,0,0,20,33,8,49,40,52,173,143,77,94,105,16,0,,
2,1786987232544,1923,703,10136,583987,-9773,-139277,0,0,0,153,195,269,206,147,252,385,117,279,196,102,117,0,,
1,1786987232560,-4221,-12179,29667,-5156924,-2987131,-2382374,0,0,0,21,38,8,45,39,53,172,148,79,95,108,15,0,,
2,1786987232560,2048,641,10308,693942,0,-169820,0,0,0,153,207,278,214,166,272,383,115,292,172,89,123,0,,
1,1786987232576,-4173,-19808,26178,-4926017,-2638937,-1797165,0,0,0,21,37,8,45,43,56,163,149,75,91,112,16,0,,
2,1786987232576,2292,583,10576,840550,-3665,-223576,0,0,0,172,211,269,226,179,267,378,111,296,168,94,129,0,,
1,1786987232592,-1871,-28303,20478,-4214970,-2476447,-492357,0,0,0,17,37,5,47,47,55,154,151,73,90,123,17,0,,
2,1786987232592,2368,512,10964,1026253,-21991,-298102,0,0,0,188,228,237,270,184,275,372,104,302,174,90,137,0,,
1,1786987232608,6274,-34012,17075,-2910161,-2225992,803898,0,0,0,17,38,7,49,47,56,158,152,75,93,125,14,0,,
2,1786987232608,2139,406,11423,1264491,-67195,-345749,0,0,0,198,233,206,305,173,325,325,96,328,146,72,158,0,,
1,1786987232624,13950,-36755,16204,-1352455,-1227839,1337794,0,0,0,18,39,7,48,46,58,162,151,76,102,128,18,0,,
2,1786987232624,2077,201,12002,1606575,-124616,-362853,0,0,0,175,240,151,281,197,316,263,96,329,130,78,149,0,,
1,1786987232640,13563,-34017,16156,240680,408057,985936,0,0,0,19,39,7,47,47,59,162,155,76,101,131,20,0,,
2,1786987232640,2397,4,12629,1970651,-161268,-399505,0,0,0,168,305,114,233,264,292,229,91,330,137,97,154,0,,
1,1786987232656,5163,-25182,15549,1744631,1544267,492357,0,0,0,16,41,6,42,49,53,149,155,70,83,126,16,0,,
2,1786987232656,3034,-124,13271,2408030,-147829,-514348,0,0,0,182,253,85,311,212,284,197,99,281,132,72,158,0,,
1,1786987232672,-449,-15596,15807,2723237,1712866,206472,0,0,0,15,37,4,36,42,41,162,181,59,93,165,14,0,,
2,1786987232672,3426,-205,13787,2913827,-97738,-733038,0,0,0,176,243,84,293,256,270,219,91,279,132,80,149,0,,
1,1786987232688,-2608,1201,17181,3057991,1621236,-204028,0,0,0,23,24,2,33,28,32,228,256,51,140,256,10,0,,
2,1786987232688,3474,-311,14462,3445279,-85521,-965167,0,0,0,168,244,79,280,224,280,210,85,262,140,74,190,0,,
1,1786987232704,-5068,24522,12289,2423913,2405587,-835663,0,0,0,23,14,0,42,18,30,291,333,43,177,329,2,0,,
2,1786987232704,3402,-349,15563,4062253,-96516,-1176526,0,0,0,158,233,83,254,198,259,181,100,266,91,62,110,0,,
1,1786987232720,-2747,20875,7848,2474004,3357315,-822224,0,0,0,29,12,1,68,28,36,389,412,34,277,393,0,0,,
2,1786987232720,4039,-167,17319,4829500,-79412,-1390329,0,0,0,131,231,63,249,194,217,187,101,223,76,57,73,0,,
1,1786987232736,1655,406,16070,4063475,3115412,-72082,0,0,0,43,25,6,71,26,39,442,442,34,381,429,0,0,,
2,1786987232736,5460,-4,20052,5682268,-68416,-1673770,0,0,0,97,177,69,187,164,206,152,78,185,49,39,53,0,,
1,1786987232752,985,-4398,24441,3736051,1640784,279776,0,0,0,57,28,1,73,25,41,461,461,42,426,452,2,0,,
2,1786987232752,6704,-95,23651,6575353,-64751,-1982868,0,0,0,71,105,64,141,106,169,132,56,153,35,18,44,0,,
1,1786987232768,-1430,-540,21674,2024407,240680,200363,0,0,0,89,60,24,70,25,41,460,460,45,434,441,13,0,,
2,1786987232768,6944,47,27063,7335269,69638,-2227214,0,0,0,52,62,44,103,61,109,120,55,112,33,15,30,0,,
1,1786987232784,-2574,3627,12428,756251,-345749,-12217,0,0,0,76,52,20,85,33,51,479,479,61,450,451,14,0,,
2,1786987232784,6345,-177,28954,7826405,494800,-2393370,0,0,0,34,39,25,62,41,66,112,67,74,43,36,13,0,,
1,1786987232800,-2550,2440,8671,680503,-335975,-42760,0,0,0,106,58,69,81,25,62,489,489,100,463,463,25,0,,
2,1786987232800,6432,1234,28044,7940026,1159422,-2579073,0,0,0,32,27,17,55,36,52,136,80,63,66,59,11,0,,
1,1786987232816,-2761,918,8949,649960,-223576,-50090,0,0,0,124,64,83,90,30,76,494,494,100,471,471,29,0,,
2,1786987232816,7135,7159,20349,7364591,1519832,-2891836,0,0,0,46,38,27,66,40,61,161,95,80,79,75,23,0,,
1,1786987232832,-2991,1119,10189,447153,-75747,-72082,0,0,0,133,72,116,93,25,103,501,501,139,481,481,39,0,,
2,1786987232832,5561,13409,12778,5665164,902858,-3084869,0,0,0,32,46,33,59,49,74,143,108,96,73,96,33,0,,
1,1786987232848,-2818,2077,10141,320093,61086,-58643,0,0,0,139,73,128,102,25,104,502,502,156,479,479,38,0,,
2,1786987232848,2024,16874,12175,2212553,-851546,-2251649,0,0,0,27,48,31,49,48,65,130,116,80,60,101,23,0,,
1,1786987232864,-2383,2120,9791,354301,118507,-18325,0,0,0,151,77,159,108,29,99,497,497,168,466,466,43,0,,
2,1786987232864,1593,14859,12744,-1696983,-2649933,-537561,0,0,0,28,44,34,53,46,65,133,111,75,72,101,27,0,,
1,1786987232880,-2254,1938,9834,389732,100181,4886,0,0,0,153,94,186,105,35,111,483,483,178,446,446,51,0,,
2,1786987232880,4761,8341,8791,-3566231,-3269350,465479,0,0,0,24,40,38,54,52,81,129,111,87,74,102,35,0,,
1,1786987232896,-2340,1971,10131,416610,69638,23212,0,0,0,146,111,163,107,39,117,462,462,165,428,423,46,0,,
2,1786987232896,7011,4067,4345,-3905872,-2846632,434936,0,0,0,32,39,40,62,46,86,133,99,88,75,78,35,0,,
1,1786987232912,-2201,2010,10155,465479,26878,48869,0,0,0,148,121,140,114,40,114,445,433,162,409,384,36,0,,
2,1786987232912,6752,4245,3273,-3920533,-1789835,-6108,0,0,0,33,46,41,59,48,80,134,102,89,72,86,34,0,,
1,1786987232928,-2077,1895,9964,507018,-47647,69638,0,0,0,149,135,125,118,55,119,430,385,162,381,319,29,0,,
2,1786987232928,5656,5561,4350,-4370129,-981049,-118507,0,0,0,32,44,40,63,48,82,135,104,90,79,86,36,0,,
1,1786987232944,-2172,1684,9667,511905,-123394,78190,0,0,0,145,145,120,119,68,123,415,333,156,358,261,36,0,,
2,1786987232944,4766,6345,6192,-5143485,-619417,190589,0,0,0,35,43,40,65,48,85,139,99,89,84,84,35,0,,
1,1786987232960,-2397,1526,9461,476474,-147829,85521,0,0,0,139,144,111,124,71,131,405,285,166,333,232,37,0,,
2,1786987232960,5479,5168,6963,-5711589,-434936,740368,0,0,0,35,41,38,67,46,84,144,97,89,86,82,36,0,,
1,1786987232976,-2517,1450,9399,426383,-107512,95294,0,0,0,136,138,120,124,62,146,399,266,179,296,212,44,0,,
2,1786987232976,6551,3598,7374,-5911953,-12217,1150870,0,0,0,35,43,37,65,48,81,142,99,87,91,88,34,0,,
1,1786987232992,-2493,1397,9404,377514,-48869,107512,0,0,0,128,138,136,127,69,162,399,247,203,281,180,60,0,,
2,1786987232992,6982,2230,8580,-5911953,693942,1457524,0,0,0,35,47,38,65,51,80,142,103,87,96,94,33,0,,
1,1786987233008,-2392,1368,9451,333532,-15882,117286,0,0,0,131,141,131,128,69,145,399,253,197,267,163,51,0,,
2,1786987233008,6460,1923,10356,-5911953,1042136,1599245,0,0,0,37,49,37,67,53,81,145,106,87,95,94,32,0,,
1,1786987233024,-2316,1363,9518,305432,-8552,123394,0,0,0,131,138,116,129,71,140,392,240,175,273,138,58,0,,
2,1786987233024,6317,1780,11916,-5979148,1172861,1654223,0,0,0,37,50,35,65,53,79,147,110,86,93,94,30,0,,
1,1786987233040,-2263,1368,9581,299323,-20769,124616,0,0,0,126,137,109,138,74,140,393,242,172,263,153,46,0,,
2,1786987233040,6642,1517,13357,-6106208,1269377,1549154,0,0,0,37,47,34,65,51,75,152,112,88,94,91,34,0,,
1,1786987233056,-2244,1311,9600,306654,-42760,118507,0,0,0,131,134,119,139,62,150,389,218,185,225,147,48,0,,
2,1786987233056,6843,1234,15166,-6195395,1481959,1280373,0,0,0,39,46,34,68,48,77,155,106,88,91,79,33,0,,
1,1786987233072,-2230,1244,9619,315206,-63529,111177,0,0,0,133,134,122,144,59,155,388,205,184,207,138,46,0,,
2,1786987233072,6853,1182,17382,-6243042,1687209,981049,0,0,0,37,46,34,70,47,76,159,105,88,90,78,28,0,,
1,1786987233088,-2191,1186,9696,331088,-92851,103847,0,0,0,134,135,118,149,63,153,386,188,172,209,130,47,0,,
2,1786987233088,6738,1426,20425,-6305350,1880243,700051,0,0,0,43,46,37,60,42,75,165,103,88,101,78,28,0,,
1,1786987233104,-2225,1148,9815,364075,-130725,105068,0,0,0,139,140,116,167,72,161,384,175,170,196,118,46,0,,
2,1786987233104,6642,1411,23728,-6368880,2002416,714712,0,0,0,41,42,33,76,42,76,170,105,89,103,79,26,0,,
1,1786987233120,-2397,1081,9815,428827,-166155,130725,0,0,0,139,136,118,179,72,175,384,159,182,174,98,50,0,,
2,1786987233120,7140,258,27130,-6352998,2095267,1066570,0,0,0,39,42,33,73,44,76,165,105,93,94,81,29,0,,
1,1786987233136,-2550,995,9782,500909,-185703,173485,0,0,0,129,124,121,178,68,192,384,150,205,152,87,69,0,,
2,1786987233136,7915,-3656,28911,-6192951,2359161,1707979,0,0,0,39,45,34,72,42,77,158,102,87,93,81,29,0,,
1,1786987233152,-2636,957,9906,572991,-184481,219911,0,0,0,131,126,122,194,76,217,387,150,229,129,88,86,0,,
2,1786987233152,6637,-10614,29672,-5827654,2935818,2221106,0,0,0,33,43,32,68,43,77,152,103,89,83,79,29,0,,
1,1786987233168,-2727,928,10131,700051,-166155,273667,0,0,0,139,137,112,222,79,235,382,122,239,126,78,93,0,,
2,1786987233168,2091,-19353,28949,-5002986,2949257,2168571,0,0,0,33,40,26,68,41,71,154,105,82,83,79,24,0,,
1,1786987233184,-2732,847,10327,860098,-158824,320093,0,0,0,111,141,79,246,97,258,371,118,269,120,75,106,0,,
2,1786987233184,-2321,-27398,24867,-3753156,2272418,1683544,0,0,0,37,44,25,68,47,70,156,108,79,85,80,23,0,,
1,1786987233200,-2737,760,10600,1051909,-162490,346971,0,0,0,106,153,94,259,133,292,357,122,293,113,86,134,0,,
2,1786987233200,-4642,-32543,19248,-2318844,1479515,817337,0,0,0,39,48,29,74,53,73,157,109,81,86,83,24,0,,
1,1786987233216,-2751,650,10935,1296256,-169820,360410,0,0,0,101,148,59,283,172,312,308,149,289,93,71,148,0,,
2,1786987233216,-6278,-35683,16046,-1061683,945619,-87964,0,0,0,36,46,27,75,50,72,157,109,82,84,85,23,0,,
1,1786987233232,-2388,483,11404,1569923,-188146,351858,0,0,0,118,149,64,313,148,352,297,74,303,101,41,156,0,,
2,1786987233232,-8317,-34979,15912,274889,409279,-803898,0,0,0,29,45,22,65,51,69,153,132,81,101,124,25,0,,
1,1786987233248,-2297,253,12055,1826487,-212581,317649,0,0,0,109,162,68,327,170,401,229,68,337,104,44,200,0,,
2,1786987233248,-7977,-22986,19344,1877799,-685390,-724486,0,0,0,21,42,15,53,56,57,154,204,70,141,216,24,0,,
1,1786987233264,-3177,114,12548,2149023,-223576,356745,0,0,0,108,167,73,331,170,402,225,73,379,113,41,236,0,,
2,1786987233264,-1502,1435,17975,3092199,-1903456,-201585,0,0,0,12,24,3,40,43,36,175,283,56,153,284,11,0,,
1,1786987233280,-3929,33,12945,2557081,-196698,509461,0,0,0,120,172,91,353,182,415,192,69,382,94,46,252,0,,
2,1786987233280,4972,18545,10921,3524692,-2580294,138055,0,0,0,15,25,6,47,40,51,203,327,60,173,326,14,0,,
1,1786987233296,-4072,-33,13586,3064100,-75747,717155,0,0,0,109,179,79,352,229,423,171,83,375,89,57,253,0,,
2,1786987233296,2804,8322,10806,4269948,-2312735,-40317,0,0,0,15,58,6,64,59,57,237,390,51,230,393,18,0,,
1,1786987233312,-4436,-181,14529,3615100,102625,889419,0,0,0,112,190,89,347,208,396,186,77,364,90,51,196,0,,
2,1786987233312,-856,-2325,17525,4877148,-1467298,-298102,0,0,0,19,26,5,73,51,66,285,406,67,248,401,16,0,,
1,1786987233328,-5264,-148,16195,4272391,111177,1148426,0,0,0,121,167,108,319,157,364,216,61,340,101,38,188,0,,
2,1786987233328,-1062,-2182,21794,4442212,-543670,-544891,0,0,0,28,58,21,73,59,84,324,414,98,317,416,28,0,,
1,1786987233344,-6006,-81,19028,5028642,-34208,1480737,0,0,0,114,174,106,272,139,320,226,61,298,93,32,155,0,,
2,1786987233344,1368,1234,17755,3371976,54977,-632856,0,0,0,47,48,22,70,50,71,372,436,99,345,436,34,0,,
1,1786987233360,-7102,-416,22225,5781228,-210137,1792278,0,0,0,96,148,72,220,120,273,191,60,232,75,31,103,0,,
2,1786987233360,2971,1971,13567,2448347,333532,-537561,0,0,0,63,57,29,66,44,62,390,454,72,408,460,26,0,,
1,1786987233376,-9279,-1493,24838,6510601,-293215,2164906,0,0,0,71,86,38,151,83,210,139,48,164,72,29,71,0,,
2,1786987233376,3589,612,11399,1662775,120951,-278554,0,0,0,83,66,56,74,44,101,450,474,114,458,478,62,0,,
1,1786987233392,-10557,-1646,26690,7017619,-367740,2614503,0,0,0,38,61,32,70,52,117,119,56,119,67,30,43,0,,
2,1786987233392,3168,-205,11289,867428,-235793,-23212,0,0,0,97,77,61,88,53,106,481,483,115,481,484,57,0,,
1,1786987233408,-9667,220,27164,7211875,-405614,3015230,0,0,0,17,32,13,36,30,48,110,92,76,36,41,12,0,,
2,1786987233408,2378,320,10887,291993,-370184,92851,0,0,0,107,73,62,100,51,106,490,490,99,490,490,39,0,,
1,1786987233424,-8758,5360,24130,7235087,-287106,3337767,0,0,0,14,23,9,31,31,31,109,91,67,40,40,13,0,,
2,1786987233424,1890,1177,10246,74525,-300545,76969,0,0,0,112,68,75,101,49,122,498,498,108,499,500,43,0,,
1,1786987233440,-8466,10107,17133,6957755,-103847,3540574,0,0,0,13,24,1,28,31,33,120,110,57,50,65,14,0,,
2,1786987233440,1904,1392,10035,52534,-195476,41538,0,0,0,113,77,84,99,52,121,496,503,111,510,512,52,0,,
1,1786987233456,-7298,11289,11294,6104987,266337,3538131,0,0,0,9,32,0,42,40,43,112,119,61,49,67,13,0,,
2,1786987233456,2033,1426,10098,53756,-114842,24434,0,0,0,107,90,81,96,57,108,477,499,103,516,518,57,0,,
1,1786987233472,-4647,13543,10361,3320663,1023810,2445904,0,0,0,15,30,8,38,41,38,121,135,55,50,77,11,0,,
2,1786987233472,2053,1512,10098,78190,-67195,17104,0,0,0,98,96,85,94,63,111,454,489,110,511,511,65,0,,
1,1786987233488,-3589,14883,10145,-604756,1816713,483805,0,0,0,17,30,8,44,37,40,121,119,55,59,75,16,0,,
2,1786987233488,1990,1612,9968,145385,-24434,1221,0,0,0,94,102,104,98,68,119,445,480,120,495,495,72,0,,
1,1786987233504,-5202,11514,8346,-3612657,2112371,-1180191,0,0,0,13,28,9,46,40,48,129,126,71,55,79,16,0,,
2,1786987233504,1966,1631,9882,227241,12217,-13439,0,0,0,105,115,81,93,72,111,435,463,110,474,474,55,0,,
1,1786987233520,-6848,6834,5484,-4086688,1602910,-1218065,0,0,0,16,31,10,50,39,44,128,127,66,60,83,16,0,,
2,1786987233520,1976,1579,9825,289550,37873,-21991,0,0,0,98,120,82,90,67,123,428,444,122,447,447,61,0,,
1,1786987233536,-6939,4369,3919,-4050036,893084,-785572,0,0,0,20,32,7,52,35,43,139,127,68,66,82,14,0,,
2,1786987233536,2019,1502,9739,332310,45204,-24434,0,0,0,99,122,75,94,72,106,401,431,108,444,444,62,0,,
1,1786987233552,-5494,4422,4359,-4136779,350636,-441044,0,0,0,23,33,6,55,35,45,148,127,74,69,77,15,0,,
2,1786987233552,2062,1397,9652,345749,32986,-25656,0,0,0,100,100,75,104,69,109,399,426,108,436,436,55,0,,
1,1786987233568,-4173,5527,5982,-4739092,218689,-597426,0,0,0,20,35,7,52,37,46,141,133,78,65,77,16,0,,
2,1786987233568,2091,1287,9605,324980,4886,-28099,0,0,0,96,93,74,106,70,117,389,410,112,425,410,55,0,,
1,1786987233584,-4642,5661,7470,-5615073,215024,-1077566,0,0,0,15,37,8,46,40,47,134,138,75,62,79,15,0,,
2,1786987233584,2110,1239,9600,287106,-23212,-31764,0,0,0,91,88,79,100,65,127,382,389,129,418,396,63,0,,
1,1786987233600,-5446,4474,8580,-6287025,-68416,-1430646,0,0,0,14,33,6,45,40,49,141,136,75,64,78,16,0,,
2,1786987233600,2110,1220,9609,252898,-51312,-36651,0,0,0,96,88,84,104,61,134,382,359,133,416,373,71,0,,
1,1786987233616,-5570,2656,9408,-6494719,-555887,-1506393,0,0,0,12,31,4,45,38,50,144,139,78,61,78,14,0,,
2,1786987233616,2072,1210,9619,229685,-73303,-41538,0,0,0,92,89,82,103,63,136,368,340,130,416,360,70,0,,
1,1786987233632,-5135,1550,10571,-6381098,-979827,-1384220,0,0,0,14,32,6,45,38,49,144,142,75,57,79,12,0,,
2,1786987233632,2014,1182,9614,212581,-83077,-45204,0,0,0,91,97,77,110,72,129,357,339,120,417,364,60,0,,
1,1786987233648,-4886,1373,12093,-6288246,-1251052,-1226617,0,0,0,13,31,7,43,36,48,145,140,79,58,80,11,0,,
2,1786987233648,1966,1148,9614,196698,-80634,-40317,0,0,0,99,111,78,111,76,116,354,338,108,415,371,52,0,,
1,1786987233664,-5001,1555,14036,-6322455,-1429424,-1015258,0,0,0,10,33,6,40,35,44,147,139,76,57,78,10,0,,
2,1786987233664,1966,1139,9662,188146,-75747,-34208,0,0,0,108,125,82,113,79,115,362,326,110,415,374,55,0,,
1,1786987233680,-5039,1153,16386,-6431189,-1617571,-691499,0,0,0,10,36,3,26,32,41,147,138,71,65,80,16,0,,
2,1786987233680,1995,1115,9724,197920,-69638,-30543,0,0,0,109,129,88,124,87,130,374,317,128,408,374,66,0,,
1,1786987233696,-4752,397,18659,-6462954,-1755626,-458148,0,0,0,18,37,6,42,36,49,152,138,79,61,79,12,0,,
2,1786987233696,1995,1086,9758,223576,-57421,-32986,0,0,0,104,123,102,126,89,144,373,312,148,384,359,78,0,,
1,1786987233712,-4503,-502,20981,-6346889,-1819156,-564439,0,0,0,17,40,11,44,35,46,152,131,78,64,76,10,0,,
2,1786987233712,1990,1076,9806,273667,-36651,-45204,0,0,0,117,128,110,127,87,160,361,298,173,365,309,83,0,,
1,1786987233728,-4848,-1340,23498,-6119647,-1924225,-1099557,0,0,0,18,37,10,45,35,46,160,142,79,66,86,12,0,,
2,1786987233728,2019,1057,9853,340862,-13439,-61086,0,0,0,146,149,118,147,100,153,311,245,170,353,281,79,0,,
1,1786987233744,-5264,-3187,26795,-5878967,-2236988,-1828930,0,0,0,16,33,5,45,36,46,160,138,78,71,84,14,0,,
2,1786987233744,2062,1009,9887,410501,0,-79412,0,0,0,140,160,122,159,135,167,391,247,186,332,225,64,0,,
1,1786987233760,-4967,-7231,29743,-5660277,-2503325,-2331061,0,0,0,16,33,8,48,36,49,165,135,76,72,80,16,0,,
2,1786987233760,2105,981,9959,486248,12217,-101403,0,0,0,144,165,137,169,127,174,397,168,191,292,169,91,0,,
1,1786987233776,-4656,-13251,30069,-5425705,-2340835,-2306627,0,0,0,18,34,10,51,40,53,165,139,76,72,87,16,0,,
2,1786987233776,2230,1024,10141,575435,23212,-127059,0,0,0,168,187,178,205,151,198,385,167,220,265,165,99,0,,
1,1786987233792,-5608,-20866,26235,-4960225,-1828930,-1566258,0,0,0,19,37,12,48,39,54,162,135,78,76,89,17,0,,
2,1786987233792,2426,1043,10543,731816,25656,-169820,0,0,0,169,218,216,206,174,226,349,165,250,207,165,110,0,,
1,1786987233808,-4024,-27709,20732,-4122118,-1770287,-271224,0,0,0,21,39,12,48,41,52,161,133,75,75,88,14,0,,
2,1786987233808,2416,928,10959,934623,53756,-227241,0,0,0,150,229,216,196,181,260,288,139,308,160,134,144,0,,
1,1786987233824,3062,-31323,17291,-2955366,-1997529,834441,0,0,0,23,40,12,42,41,48,165,136,73,77,90,11,0,,
2,1786987233824,2230,689,11256,1213178,153938,-279776,0,0,0,156,249,163,219,189,279,252,108,319,141,91,153,0,,
1,1786987233840,9877,-33768,16219,-1483180,-1281595,1119105,0,0,0,25,43,13,37,38,46,169,138,74,82,93,13,0,,
2,1786987233840,2354,416,11596,1502728,280998,-322536,0,0,0,180,253,117,248,206,276,238,108,324,150,91,170,0,,
1,1786987233856,10839,-33979,15563,-58643,-128281,965167,0,0,0,25,43,11,49,40,50,165,144,76,84,102,12,0,,
2,1786987233856,2957,100,12553,1855808,355523,-400727,0,0,0,182,261,102,278,207,297,215,109,342,140,92,182,0,,
1,1786987233872,6532,-29384,15400,1312138,913854,756251,0,0,0,22,36,6,50,41,53,164,169,71,106,147,15,0,,
2,1786987233872,3206,110,13591,2338392,266337,-525344,0,0,0,177,273,95,288,194,313,191,108,340,133,99,198,0,,
1,1786987233888,224,-11385,16946,2404365,1618792,630412,0,0,0,18,30,1,44,37,45,205,212,60,156,222,17,0,,
2,1786987233888,3216,119,13845,2831971,144164,-647517,0,0,0,178,247,101,280,176,315,187,92,316,132,86,217,0,,
1,1786987233904,-5752,16611,14481,2737898,2359161,282219,0,0,0,22,11,0,43,25,24,262,272,45,183,251,6,0,,
2,1786987233904,3144,-71,13907,3327993,39095,-769690,0,0,0,164,229,109,267,172,335,187,90,294,111,66,200,0,,
1,1786987233920,-6355,25048,7762,2555860,2774549,-201585,0,0,0,15,7,0,42,26,36,267,340,44,181,349,1,0,,
2,1786987233920,3828,-177,14457,3826459,-20769,-906524,0,0,0,142,257,90,235,190,333,174,118,279,85,79,152,0,,
1,1786987233936,-1545,5857,10562,3962071,2107485,-228463,0,0,0,11,12,0,49,40,50,257,387,78,189,376,9,0,,
2,1786987233936,4833,-210,15395,4329812,-21991,-1119105,0,0,0,135,225,87,201,181,292,164,81,274,74,44,120,0,,
1,1786987233952,1550,-4570,18444,4786740,883311,-20769,0,0,0,19,23,4,38,29,42,237,375,74,234,389,8,0,,
2,1786987233952,5422,-363,17161,4913799,-17104,-1406211,0,0,0,124,171,82,205,122,287,183,52,272,58,18,80,0,,
1,1786987233968,459,-1708,21986,3850894,-39095,433714,0,0,0,34,20,4,58,28,35,398,423,62,307,406,8,0,,
2,1786987233968,5982,-521,20200,5668829,-153938,-1670105,0,0,0,107,153,50,162,82,214,182,51,211,46,18,42,0,,
1,1786987233984,-3306,2569,17358,2360383,-140499,680503,0,0,0,47,26,7,67,31,40,433,435,60,337,411,13,0,,
2,1786987233984,6953,-392,23196,6304129,-289550,-1866804,0,0,0,75,116,29,141,79,131,166,57,161,61,31,41,0,,
1,1786987234000,-4460,1593,12323,1522276,-89186,273667,0,0,0,54,38,14,71,28,46,444,444,63,371,417,11,0,,
2,1786987234000,7351,-402,25321,6800151,-331088,-2063502,0,0,0,51,61,22,121,57,92,126,47,84,66,31,23,0,,
1,1786987234016,-3469,234,10074,990823,-92851,-96516,0,0,0,66,42,15,75,27,52,453,453,77,406,429,19,0,,
2,1786987234016,7891,-215,26049,7263187,-112399,-2302961,0,0,0,33,43,11,70,46,65,108,67,58,51,35,13,0,,
1,1786987234032,-2603,248,10026,537561,-63529,-142942,0,0,0,80,54,24,72,28,64,469,469,81,429,447,16,0,,
2,1786987234032,8954,1890,23799,7365813,624304,-2635272,0,0,0,28,32,30,55,35,85,126,80,87,57,52,29,0,,
1,1786987234048,-2718,1115,10102,161268,12217,-57421,0,0,0,87,66,28,74,30,67,481,481,73,447,464,19,0,,
2,1786987234048,8839,5709,17817,7010289,1072679,-3045774,0,0,0,25,34,20,48,34,70,129,92,89,57,65,20,0,,
1,1786987234064,-2924,1512,9810,23212,81855,-34208,0,0,0,90,70,27,81,40,67,442,465,77,463,471,24,0,,
2,1786987234064,7111,10409,12251,5646838,458148,-3270572,0,0,0,29,36,17,54,35,54,140,90,73,74,70,17,0,,
1,1786987234080,-2852,1622,9629,36651,136833,-32986,0,0,0,96,75,31,84,48,69,427,459,80,471,471,20,0,,
2,1786987234080,4785,15376,12065,1848478,-811229,-2420248,0,0,0,32,39,19,59,39,50,144,92,59,91,76,13,0,,
1,1786987234096,-2622,1689,9806,122173,144164,0,0,0,0,104,76,34,92,40,66,481,481,69,467,467,20,0,,
2,1786987234096,3522,14553,12376,-2265088,-1914451,-981049,0,0,0,31,41,19,60,44,53,143,101,58,96,84,13,0,,
1,1786987234112,-2445,1722,10050,210137,100181,31764,0,0,0,115,79,36,101,46,69,472,472,70,455,455,19,0,,
2,1786987234112,4283,8399,9394,-4167322,-2526538,-116064,0,0,0,31,40,20,54,45,55,139,105,63,94,90,20,0,,
1,1786987234128,-2421,1713,10117,300545,6108,54977,0,0,0,130,83,45,102,55,76,455,455,77,437,437,17,0,,
2,1786987234128,5853,4402,4828,-4031710,-2280970,-285884,0,0,0,31,44,20,49,42,55,132,104,65,98,94,25,0,,
1,1786987234144,-2464,1646,9930,367740,-64751,63529,0,0,0,125,85,44,104,43,77,444,444,77,428,429,24,0,,
2,1786987234144,6188,4168,3015,-3948632,-1456302,-571769,0,0,0,31,46,20,64,45,60,140,106,68,107,93,26,0,,
1,1786987234160,-2541,1502,9715,420275,-113620,67195,0,0,0,115,84,44,108,47,85,442,442,85,429,429,20,0,,
2,1786987234160,4685,5924,4288,-4408003,-498466,-518013,0,0,0,35,46,19,67,47,62,150,107,71,101,89,17,0,,
1,1786987234176,-2636,1344,9576,420275,-113620,68416,0,0,0,98,91,33,107,57,90,438,438,89,379,418,30,0,,
2,1786987234176,3713,6054,5771,-5007873,-210137,52534,0,0,0,38,45,18,65,44,61,155,108,72,107,89,22,0,,
1,1786987234192,-2694,1234,9480,368962,-78190,75747,0,0,0,93,99,35,99,63,90,428,428,97,350,406,27,0,,
2,1786987234192,4551,4771,5958,-5263214,25656,614530,0,0,0,32,46,23,63,50,80,144,116,87,100,92,31,0,,
1,1786987234208,-2713,1191,9442,307876,-35430,83077,0,0,0,104,113,34,106,82,90,419,401,94,319,397,22,0,,
2,1786987234208,5628,3302,6178,-5208237,663399,989601,0,0,0,34,46,21,67,53,69,149,110,73,102,95,24,0,,
1,1786987234224,-2694,1186,9461,256563,6108,91629,0,0,0,102,118,34,114,83,90,408,366,94,311,368,23,0,,
2,1786987234224,4584,3158,7992,-5181358,1280373,1175304,0,0,0,19,48,15,51,47,62,146,113,80,86,91,15,0,,
1,1786987234240,-2598,1186,9509,230907,31764,97738,0,0,0,103,114,32,114,70,84,405,351,103,293,337,29,0,,
2,1786987234240,3546,3201,9710,-5319414,1441641,1310916,0,0,0,32,53,21,60,55,66,148,118,81,89,99,24,0,,
1,1786987234256,-2507,1220,9595,238237,18325,100181,0,0,0,101,113,34,119,79,94,402,332,114,274,304,31,0,,
2,1786987234256,3565,2732,10815,-5528330,1409876,1215621,0,0,0,35,54,23,62,54,68,149,118,76,90,98,22,0,,
1,1786987234272,-2483,1215,9629,263893,-2443,97738,0,0,0,104,112,40,121,77,108,398,312,125,263,276,35,0,,
2,1786987234272,3622,2321,11974,-5638286,1550375,861319,0,0,0,40,55,20,74,52,65,165,120,74,110,100,18,0,,
1,1786987234288,-2464,1139,9600,290771,-29321,91629,0,0,0,100,116,45,120,70,113,395,298,122,271,258,43,0,,
2,1786987234288,3024,2455,13783,-5712811,1780061,353080,0,0,0,40,58,21,69,51,65,164,122,75,108,100,16,0,,
1,1786987234304,-2450,1048,9629,307876,-58643,89186,0,0,0,92,125,46,125,77,121,393,286,119,261,243,49,0,,
2,1786987234304,2196,3000,16176,-5875301,1905899,-69638,0,0,0,41,58,22,69,51,64,162,122,75,106,99,18,0,,
1,1786987234320,-2488,971,9676,335975,-100181,103847,0,0,0,108,136,47,134,85,142,389,276,131,216,219,64,0,,
2,1786987234320,1981,3268,18750,-6057339,1970651,-108734,0,0,0,41,57,22,74,52,63,168,124,76,108,103,20,0,,
1,1786987234336,-2569,899,9633,371406,-135612,133168,0,0,0,134,148,55,144,84,164,384,257,135,193,188,86,0,,
2,1786987234336,2306,3091,21914,-6103765,2098932,182037,0,0,0,34,52,21,67,53,64,162,122,87,97,103,20,0,,
1,1786987234352,-2651,827,9576,404392,-161268,164933,0,0,0,110,144,49,162,89,164,381,211,137,202,162,68,0,,
2,1786987234352,3187,1722,25589,-5971818,2267531,814894,0,0,0,28,49,17,62,53,62,154,117,90,92,100,21,0,,
1,1786987234368,-2689,818,9652,454483,-194255,201585,0,0,0,113,144,54,174,94,193,379,189,174,202,156,82,0,,
2,1786987234368,3747,-3584,28580,-5692042,2463008,1644449,0,0,0,33,53,17,65,57,63,154,120,74,101,107,19,0,,
1,1786987234384,-2737,851,9992,551000,-249233,243124,0,0,0,115,132,73,174,89,241,369,167,231,158,106,131,0,,
2,1786987234384,3311,-11916,30179,-5357288,2536312,2134363,0,0,0,34,52,20,68,53,65,160,111,83,111,102,18,0,,
1,1786987234400,-2852,775,10299,697608,-293215,280998,0,0,0,108,137,65,190,95,250,364,122,246,152,80,149,0,,
2,1786987234400,2196,-20832,28451,-4973664,2173458,1826487,0,0,0,28,49,31,58,50,76,150,117,90,115,110,31,0,,
1,1786987234416,-2823,646,10471,863763,-343306,316428,0,0,0,97,151,61,200,131,285,332,120,284,131,100,156,0,,
2,1786987234416,492,-28030,22790,-4164879,1811826,619417,0,0,0,19,37,29,61,51,75,160,125,90,91,95,31,0,,
1,1786987234432,-2732,564,10725,1093448,-410501,334754,0,0,0,93,172,61,212,138,318,283,139,297,119,82,163,0,,
2,1786987234432,-5039,-32653,19253,-2823419,1623679,-624304,0,0,0,19,28,23,71,39,59,157,125,77,85,97,21,0,,
1,1786987234448,-2952,569,11170,1343903,-401949,324980,0,0,0,93,189,67,232,132,358,248,97,304,114,59,201,0,,
2,1786987234448,-13074,-35721,19459,-794124,295658,-1227839,0,0,0,26,30,10,56,48,41,173,165,60,112,143,13,0,,
1,1786987234464,-3168,263,11672,1610240,-280998,317649,0,0,0,128,216,85,230,120,384,202,78,322,113,62,236,0,,
2,1786987234464,-15922,-35352,20220,1292590,-2059837,-1004262,0,0,0,34,33,10,64,39,53,200,281,61,158,232,12,0,,
1,1786987234480,-3139,23,12189,1877799,-191811,326202,0,0,0,147,216,84,248,125,389,169,85,332,111,71,233,0,,
2,1786987234480,-7877,-18501,17281,3258355,-3997502,-399505,0,0,0,22,31,12,53,46,69,204,362,76,179,328,25,0,,
1,1786987234496,-3326,9,12730,2199114,-152716,356745,0,0,0,160,215,80,250,156,382,152,109,324,106,90,224,0,,
2,1786987234496,3024,8030,14008,4324925,-3587000,20769,0,0,0,18,31,15,56,53,80,229,395,113,218,383,31,0,,
1,1786987234512,-3905,19,13524,2735454,-92851,475253,0,0,0,151,208,77,253,167,367,144,88,314,109,75,219,0,,
2,1786987234512,1536,8590,16477,4858822,-1656666,-9773,0,0,0,23,33,10,65,56,76,258,403,99,257,397,27,0,,
1,1786987234528,-4374,90,14333,3290120,45204,623082,0,0,0,139,194,78,251,156,348,144,68,305,100,54,214,0,,
2,1786987234528,-2139,827,21210,5076290,-270002,-328645,0,0,0,23,34,5,68,58,68,278,404,78,278,401,21,0,,
1,1786987234544,-5192,76,15242,3865555,246789,803898,0,0,0,138,172,81,223,129,318,148,71,298,79,44,165,0,,
2,1786987234544,-698,-2995,22455,4046371,188146,-758694,0,0,0,30,36,10,77,52,67,303,404,90,294,402,14,0,,
1,1786987234560,-6590,81,17248,4557054,383623,1119105,0,0,0,121,140,90,176,97,287,153,62,287,61,27,93,0,,
2,1786987234560,3656,14,15687,2412917,3665,-549778,0,0,0,48,43,22,86,46,68,341,411,100,326,409,17,0,,
1,1786987234576,-8413,81,20071,5326744,516791,1528384,0,0,0,92,103,106,132,70,260,161,50,246,45,17,72,0,,
2,1786987234576,4139,1813,9547,1417207,-152716,-87964,0,0,0,65,53,37,85,48,66,383,426,84,361,424,33,0,,
1,1786987234592,-10782,-315,22407,6100100,681725,2054950,0,0,0,74,73,80,108,48,190,141,46,162,43,12,50,0,,
2,1786987234592,2555,612,8485,946841,-250454,101403,0,0,0,79,63,51,94,50,72,422,439,84,373,431,31,0,,
1,1786987234608,-11208,-947,23823,6648657,852767,2623055,0,0,0,45,55,30,74,45,112,111,59,110,37,20,28,0,,
2,1786987234608,2282,-358,10232,433714,-375071,62308,0,0,0,102,69,53,105,53,74,448,448,85,425,439,25,0,,
1,1786987234624,-9313,-411,25130,7021285,1145983,3061656,0,0,0,22,43,9,43,46,58,99,107,71,36,43,8,0,,
2,1786987234624,2077,234,10906,35430,-474031,40317,0,0,0,123,102,60,111,86,62,456,456,93,448,448,18,0,,
1,1786987234640,-7733,1847,24699,7222870,1488067,3180164,0,0,0,11,25,5,36,28,37,101,108,49,36,57,11,0,,
2,1786987234640,1684,1215,10380,-83077,-414166,52534,0,0,0,124,109,76,111,95,65,459,459,104,449,449,22,0,,
1,1786987234656,-8901,4871,20430,7215540,1534493,3108082,0,0,0,20,27,5,36,28,39,133,125,65,39,59,10,0,,
2,1786987234656,1732,1311,10198,-40317,-244346,58643,0,0,0,125,116,68,113,96,67,460,460,103,455,455,32,0,,
1,1786987234672,-8954,7518,13251,6447071,1326799,2946813,0,0,0,12,30,6,29,30,42,121,129,64,40,67,16,0,,
2,1786987234672,1866,1296,10270,13439,-125838,45204,0,0,0,129,116,63,114,97,66,463,463,105,457,457,25,0,,
1,1786987234688,-7159,11538,10270,4185648,1295034,2180788,0,0,0,14,34,10,29,33,50,119,136,67,43,85,13,0,,
2,1786987234688,1842,1354,10169,74525,-57421,21991,0,0,0,129,119,70,109,97,63,462,462,101,453,453,24,0,,
1,1786987234704,-5206,14773,11007,428827,1423316,507018,0,0,0,15,42,8,27,38,44,116,143,59,45,114,14,0,,
2,1786987234704,1804,1402,9949,150272,8552,2443,0,0,0,123,124,61,112,95,65,454,454,103,446,446,27,0,,
1,1786987234720,-5307,11500,9241,-2241875,1574810,-987158,0,0,0,15,45,9,27,42,41,115,148,56,44,122,10,0,,
2,1786987234720,1828,1392,9897,224798,61086,-2443,0,0,0,111,117,55,115,96,69,447,430,109,433,436,27,0,,
1,1786987234736,-6345,6905,5623,-2937040,1391551,-1378111,0,0,0,20,42,7,34,39,39,130,143,56,80,119,14,0,,
2,1786987234736,1909,1325,9892,294437,96516,-6108,0,0,0,104,122,57,119,109,74,442,411,113,408,414,24,0,,
1,1786987234752,-6326,4474,3187,-2761110,794124,-946841,0,0,0,19,40,5,38,39,39,136,142,58,85,116,16,0,,
2,1786987234752,2014,1234,9830,337197,90408,-9773,0,0,0,110,123,65,122,106,89,434,395,108,384,391,32,0,,
1,1786987234768,-4517,5178,4106,-3225368,492357,-684169,0,0,0,15,43,4,37,44,42,127,148,58,54,117,9,0,,
2,1786987234768,2057,1158,9753,351858,63529,-13439,0,0,0,114,114,72,125,91,99,421,377,104,372,375,42,0,,
1,1786987234784,-3752,5819,5336,-3986506,626747,-753807,0,0,0,16,43,3,37,44,41,123,151,55,50,120,7,0,,
2,1786987234784,2048,1110,9729,342084,30543,-14660,0,0,0,111,114,74,135,88,94,413,364,110,361,352,42,0,,
1,1786987234800,-4761,5661,6063,-4736649,783129,-949284,0,0,0,18,47,6,35,44,40,122,154,59,50,122,10,0,,
2,1786987234800,2081,1091,9767,331088,0,-14660,0,0,0,115,114,81,140,87,100,403,337,121,347,317,45,0,,
1,1786987234816,-5699,4972,6647,-5163032,404392,-1022588,0,0,0,18,52,8,34,45,40,123,157,63,50,124,6,0,,
2,1786987234816,2148,1086,9763,338419,-41538,-20769,0,0,0,121,118,83,138,86,110,387,293,133,329,284,38,0,,
1,1786987234832,-5565,4345,7786,-5556430,-151494,-1119105,0,0,0,17,49,12,32,45,42,121,159,60,48,124,7,0,,
2,1786987234832,2120,1067,9705,365297,-86742,-31764,0,0,0,127,127,92,140,86,117,391,260,127,317,251,40,0,,
1,1786987234848,-4934,3589,9317,-5942497,-590095,-1274264,0,0,0,15,43,5,33,43,40,124,157,61,53,122,11,0,,
2,1786987234848,1981,990,9705,383623,-98960,-37873,0,0,0,132,149,94,150,91,111,394,237,129,324,236,46,0,,
1,1786987234864,-4843,2373,10906,-6240599,-880867,-1362229,0,0,0,15,51,7,31,46,40,103,147,59,54,123,9,0,,
2,1786987234864,1938,904,9739,393397,-97738,-35430,0,0,0,132,126,127,139,81,135,374,201,145,294,207,52,0,,
1,1786987234880,-4881,1263,12653,-6278472,-1127657,-1235169,0,0,0,16,44,7,34,44,40,131,150,61,56,115,14,0,,
2,1786987234880,2000,827,9782,404392,-100181,-31764,0,0,0,123,124,191,146,88,184,373,188,197,289,182,105,0,,
1,1786987234896,-4871,708,14615,-6206390,-1306029,-1012814,0,0,0,17,39,5,34,44,44,130,148,58,60,111,4,0,,
2,1786987234896,2033,770,9830,427605,-113620,-35430,0,0,0,129,126,211,149,87,193,376,181,210,279,175,101,0,,
1,1786987234912,-4929,277,16755,-6185621,-1423316,-780685,0,0,0,15,39,9,35,45,44,126,152,60,61,115,12,0,,
2,1786987234912,2005,684,9897,455705,-120951,-43982,0,0,0,137,154,207,160,108,179,383,167,204,264,182,98,0,,
1,1786987234928,-4962,-411,18702,-6184399,-1486845,-714712,0,0,0,19,44,8,34,45,42,127,156,59,58,120,8,0,,
2,1786987234928,1947,579,9944,482583,-109955,-53756,0,0,0,146,159,220,167,116,187,385,139,212,262,155,101,0,,
1,1786987234944,-5503,-1296,20468,-6063448,-1480737,-1016479,0,0,0,20,50,8,32,47,39,128,154,57,55,124,8,0,,
2,1786987234944,1971,521,9987,514348,-87964,-67195,0,0,0,161,146,227,197,104,213,388,124,223,259,131,107,0,,
1,1786987234960,-7020,-2335,22545,-5717698,-1580919,-1764178,0,0,0,17,47,7,32,48,42,124,156,58,54,129,5,0,,
2,1786987234960,2048,483,10035,565661,-76969,-89186,0,0,0,171,157,223,213,103,218,383,127,236,240,128,105,0,,
1,1786987234976,-8260,-4508,25192,-5255884,-2003637,-2745228,0,0,0,14,45,5,33,46,43,121,154,61,55,131,10,0,,
2,1786987234976,2100,397,10083,625526,-73303,-124616,0,0,0,163,182,220,202,116,214,373,130,247,212,125,102,0,,
1,1786987234992,-8758,-8815,27523,-4840496,-2439795,-3644422,0,0,0,17,47,3,35,46,42,127,149,62,60,122,14,0,,
2,1786987234992,2053,268,10160,696386,-54977,-167377,0,0,0,154,193,218,206,129,233,367,116,251,198,108,111,0,,
1,1786987235008,-9121,-16511,27561,-4582711,-2544864,-4079358,0,0,0,18,47,6,37,47,42,131,143,63,62,111,9,0,,
2,1786987235008,2043,177,10370,802676,-40317,-204028,0,0,0,168,205,197,232,158,241,339,108,244,190,96,119,0,,
1,1786987235024,-8691,-25742,23153,-4290717,-2360383,-3387858,0,0,0,16,48,10,35,47,45,130,141,67,61,111,10,0,,
2,1786987235024,2144,138,10705,963945,-40317,-233350,0,0,0,175,236,146,229,194,213,294,126,228,169,96,110,0,,
1,1786987235040,-3905,-31342,18664,-3573561,-2510656,-2282192,0,0,0,19,52,10,33,47,46,130,145,68,63,116,16,0,,
2,1786987235040,2158,52,11040,1166752,-35430,-270002,0,0,0,185,264,112,262,216,211,263,120,229,190,94,122,0,,
1,1786987235056,5154,-34443,15194,-2091602,-2301740,-1086118,0,0,0,20,48,10,34,47,48,132,150,70,61,117,8,0,,
2,1786987235056,2043,-105,11452,1413542,-10995,-304210,0,0,0,184,259,108,251,214,234,229,119,255,147,103,128,0,,
1,1786987235072,7437,-36180,13984,-621860,-957836,-362853,0,0,0,17,44,6,37,44,47,135,158,69,66,118,11,0,,
2,1786987235072,2124,-244,12045,1670105,32986,-328645,0,0,0,167,229,105,266,194,250,192,92,263,144,82,124,0,,
1,1786987235088,6728,-35032,13984,676838,291993,290771,0,0,0,23,28,3,48,32,40,165,172,66,103,129,7,0,,
2,1786987235088,2708,-306,12835,2052507,59864,-401949,0,0,0,173,268,72,284,236,274,186,108,215,116,77,108,0,,
1,1786987235104,3536,-23570,16070,2045176,1452637,624304,0,0,0,22,21,0,27,27,29,181,246,53,116,229,0,0,,
2,1786987235104,3469,-425,13615,2553416,-17104,-553443,0,0,0,189,257,86,276,211,265,163,84,202,115,68,122,0,,
1,1786987235120,-2895,2766,15266,3061656,2415361,395840,0,0,0,29,21,3,43,23,30,238,322,48,183,305,10,0,,
2,1786987235120,4029,-617,14252,3061656,-205250,-766025,0,0,0,172,287,84,277,223,244,172,96,222,107,76,126,0,,
1,1786987235136,-5494,15496,11624,3437949,2356718,-83077,0,0,0,25,20,0,45,22,31,294,386,40,228,374,10,0,,
2,1786987235136,4795,-799,15142,3632204,-409279,-1045801,0,0,0,171,257,81,243,209,223,178,105,191,93,71,98,0,,
1,1786987235152,-1445,6077,14816,4387234,1413542,-216246,0,0,0,28,20,4,58,25,45,352,408,46,283,398,15,0,,
2,1786987235152,5719,-909,16549,4255287,-553443,-1379333,0,0,0,148,218,79,194,217,223,156,98,194,61,49,77,0,,
1,1786987235168,2593,-3278,22847,4833165,529009,100181,0,0,0,40,27,6,69,26,44,414,427,58,335,410,14,0,,
2,1786987235168,6599,-1067,19047,5031086,-615752,-1794722,0,0,0,115,196,79,143,172,205,137,107,183,38,55,55,0,,
1,1786987235184,-76,-2048,22450,3268129,125838,541226,0,0,0,54,40,11,77,36,51,440,440,57,388,421,4,0,,
2,1786987235184,7662,-1493,22033,5780006,-559552,-2152689,0,0,0,92,163,69,121,108,171,118,80,151,31,40,46,0,,
1,1786987235200,-3531,358,16290,1560149,-204028,400727,0,0,0,65,47,16,83,34,55,445,445,62,421,427,10,0,,
2,1786987235200,9504,-1416,25403,6564357,-164933,-2598620,0,0,0,67,114,45,102,77,121,100,52,107,40,26,38,0,,
1,1786987235216,-3498,1273,9858,558330,-367740,-79412,0,0,0,75,54,23,82,35,60,461,461,71,441,441,19,0,,
2,1786987235216,9576,-162,26972,7101919,421497,-3066543,0,0,0,42,70,23,68,64,69,103,68,68,56,46,18,0,,
1,1786987235232,-2000,894,9069,389732,-323758,-161268,0,0,0,89,67,30,86,46,68,478,478,75,455,455,20,0,,
2,1786987235232,8025,2785,27063,7337713,827111,-3554013,0,0,0,37,44,19,61,38,52,127,85,61,61,57,11,0,,
1,1786987235248,-1770,866,9868,261450,-248011,-89186,0,0,0,104,77,37,97,48,78,487,487,77,463,463,21,0,,
2,1786987235248,7389,5565,22837,7147123,620639,-3887546,0,0,0,49,33,19,89,36,61,153,97,71,79,67,16,0,,
1,1786987235264,-2517,1402,10409,185703,-139277,2443,0,0,0,111,83,53,106,46,93,489,489,92,467,467,32,0,,
2,1786987235264,8595,8858,12596,6175847,-262672,-4030488,0,0,0,34,37,21,66,44,62,135,96,77,68,68,18,0,,
1,1786987235280,-2335,1684,10074,215024,-37873,14660,0,0,0,117,89,70,119,50,104,480,480,116,455,455,46,0,,
2,1786987235280,8346,14285,9576,3236364,-537561,-3722612,0,0,0,35,43,14,68,50,57,136,102,69,65,73,14,0,,
1,1786987235296,-2000,1627,9964,263893,-8552,19547,0,0,0,125,94,67,133,50,92,474,474,106,440,440,41,0,,
2,1786987235296,5656,16980,10409,-781907,-433714,-2667037,0,0,0,30,42,17,68,50,58,133,98,69,70,77,20,0,,
1,1786987235312,-1943,1550,10136,301767,-28099,41538,0,0,0,114,109,69,114,55,98,458,458,101,432,433,61,0,,
2,1786987235312,3460,12098,9279,-3488040,-581543,-1121548,0,0,0,37,43,18,69,45,63,141,99,72,80,78,16,0,,
1,1786987235328,-1995,1588,10265,353080,-59864,78190,0,0,0,97,121,50,113,68,97,448,448,91,424,425,55,0,,
2,1786987235328,4737,6097,4709,-3360980,-535117,-212581,0,0,0,35,43,21,65,45,79,138,104,83,77,78,30,0,,
1,1786987235344,-1943,1579,10112,422718,-98960,96516,0,0,0,95,126,45,116,76,99,436,436,94,367,384,60,0,,
2,1786987235344,5120,4613,2952,-2983465,186924,222354,0,0,0,34,43,20,67,48,74,141,106,77,81,81,34,0,,
1,1786987235360,-1919,1459,9868,465479,-130725,96516,0,0,0,93,131,40,120,84,102,424,424,98,311,343,66,0,,
2,1786987235360,3527,6317,4723,-3298672,836885,538783,0,0,0,37,44,19,70,48,68,144,105,70,80,82,25,0,,
1,1786987235376,-2005,1282,9633,460592,-142942,91629,0,0,0,93,126,41,126,87,110,322,336,118,275,300,62,0,,
2,1786987235376,2837,6886,6508,-4097684,934623,1007927,0,0,0,37,44,20,71,48,68,143,105,72,76,81,19,0,,
1,1786987235392,-2120,1172,9533,421497,-120951,101403,0,0,0,88,123,40,121,82,104,364,356,134,243,284,65,0,,
2,1786987235392,3455,5939,7312,-4693888,1061683,1314581,0,0,0,35,44,19,71,48,69,144,106,75,75,82,20,0,,
1,1786987235408,-2148,1134,9552,387288,-87964,113620,0,0,0,86,127,39,122,78,108,382,335,140,226,243,63,0,,
2,1786987235408,3642,4781,8226,-4954117,1453859,1318247,0,0,0,35,46,18,68,49,68,145,108,77,79,85,23,0,,
1,1786987235424,-2134,1105,9595,362853,-57421,122173,0,0,0,86,123,42,128,84,118,376,306,145,204,233,67,0,,
