sole_id,timestamp,accel_x,accel_y,accel_z,gyro_x,gyro_y,gyro_z,magn_x,magn_y,magn_z,pressure_01,pressure_02,pressure_03,pressure_04,pressure_05,pressure_06,pressure_07,pressure_08,pressure_09,pressure_10,pressure_11,pressure_12,corrupt,brick,transition,concrete
2,1790113528832,909,-813,15056,3191160,0,-252898,0,0,0,530,242,161,307,238,364,285,119,252,234,96,613,0,,,
1,1790113528848,-10203,11404,9968,5830097,2214997,150272,0,0,0,241,203,145,310,193,341,405,354,195,365,341,277,0,,,
2,1790113528848,1387,-847,15831,3786142,-29321,-320093,0,0,0,499,248,142,306,229,343,270,121,250,216,83,603,0,,,
1,1790113528864,-4948,5178,12199,6524040,1683544,904080,0,0,0,240,201,152,316,193,348,433,408,198,403,383,288,0,,,
2,1790113528864,2507,-1076,16582,4465424,-135612,-508239,0,0,0,465,266,138,305,256,348,233,120,257,193,67,540,0,,,
1,1790113528880,985,-6891,23177,5826432,717155,-250454,0,0,0,241,185,171,316,187,353,432,406,197,441,403,302,0,,,
2,1790113528880,3206,-1392,18478,5270545,-324980,-783129,0,0,0,414,278,138,294,271,335,201,120,223,191,108,500,0,,,
1,1790113528896,1990,-5192,26120,4351803,614530,-420275,0,0,0,246,182,197,307,189,356,444,411,223,437,406,316,0,,,
2,1790113528896,4225,-2096,22258,6246707,-570548,-1073901,0,0,0,399,219,134,284,227,313,186,100,210,180,92,471,0,,,
1,1790113528912,-430,-153,15716,2139250,620639,108734,0,0,0,275,183,220,311,209,351,438,383,213,454,401,320,0,,,
2,1790113528912,5805,-3149,25561,7101919,-636521,-1370781,0,0,0,371,201,147,261,200,288,245,141,219,162,83,400,0,,,
1,1790113528928,-1201,1019,8982,734260,443488,182037,0,0,0,291,195,252,319,195,361,441,382,213,461,407,334,0,,,
2,1790113528928,5872,-3287,28102,7582059,-646295,-1750739,0,0,0,298,141,133,211,152,254,195,110,166,127,53,319,0,,,
1,1790113528944,-631,-335,9313,279776,295658,15882,0,0,0,300,206,276,323,217,376,454,399,238,475,416,370,0,,,
2,1790113528944,5340,-1086,29528,7783644,-1066570,-2112371,0,0,0,229,95,118,176,88,201,174,93,140,118,49,221,0,,,
1,1790113528960,-335,-650,10830,150272,188146,-48869,0,0,0,318,218,295,333,207,380,463,425,257,471,402,375,0,,,
2,1790113528960,8418,4178,27001,8103738,-1722639,-2382374,0,0,0,184,73,110,160,63,177,180,95,138,112,67,160,0,,,
1,1790113528976,-545,76,10614,116064,85521,-19547,0,0,0,320,230,298,342,218,393,430,348,209,473,395,392,0,,,
2,1790113528976,11883,11457,19291,7982786,-1538158,-2669481,0,0,0,171,76,113,154,65,180,176,99,135,112,64,153,0,,,
1,1790113528992,-650,315,10021,100181,13439,-4886,0,0,0,340,239,289,350,223,396,441,373,245,474,375,408,0,,,
2,1790113528992,10485,15372,9968,5947383,-355523,-2649933,0,0,0,176,84,120,152,65,179,176,100,135,107,51,154,0,,,
1,1790113529008,-612,220,9978,111177,-30543,-4886,0,0,0,340,263,293,352,241,400,447,380,256,474,383,398,0,x,,
2,1790113529008,5259,16367,5943,1657888,750142,-1732413,0,0,0,183,80,120,152,60,174,186,104,143,96,53,148,0,x,,
1,1790113529024,-579,148,10155,140499,-75747,-1221,0,0,0,359,260,290,365,239,409,426,325,216,472,378,406,0,,,
2,1790113529024,1119,12854,8758,-2463008,354301,-92851,0,0,0,184,74,117,155,60,176,188,107,142,95,50,145,0,,,
1,1790113529040,-588,172,10179,163711,-124616,4886,0,0,0,363,258,298,360,234,409,424,313,228,466,345,415,0,,,
2,1790113529040,2847,7762,8557,-3600439,-829554,1053131,0,0,0,185,70,118,158,62,178,187,100,133,102,40,142,0,,,
1,1790113529056,-617,186,10122,190589,-168598,12217,0,0,0,361,271,293,356,235,404,445,330,261,455,314,420,0,,,
2,1790113529056,5757,5297,5020,-3208264,-1027475,1392772,0,0,0,187,74,122,157,62,184,193,102,144,116,60,163,0,,,
1,1790113529072,-641,148,10069,216246,-202807,19547,0,0,0,371,290,279,361,243,409,460,337,281,448,293,433,0,,,
2,1790113529072,5149,6140,4359,-3338989,-142942,1233947,0,0,0,183,76,121,156,64,184,199,110,147,113,55,156,0,,,
1,1790113529088,-650,86,10040,226020,-217468,28099,0,0,0,373,305,275,365,249,417,467,330,292,445,275,448,0,,,
2,1790113529088,2986,6704,6331,-4223522,571769,1150870,0,0,0,179,79,120,157,66,183,187,99,136,112,58,168,0,,,
1,1790113529104,-650,38,10040,213802,-217468,34208,0,0,0,359,309,281,362,248,418,472,320,307,430,258,454,0,,,
2,1790113529104,1545,5690,8997,-5237558,571769,1145983,0,0,0,182,83,119,161,64,183,211,120,153,130,58,166,0,,,
1,1790113529120,-679,14,10045,204028,-216246,37873,0,0,0,362,296,296,359,248,426,466,303,323,401,242,461,0,,,
2,1790113529120,2474,3895,9581,-5521000,444709,1004262,0,0,0,187,80,121,156,64,183,182,88,117,118,51,165,0,,,
1,1790113529136,-746,0,10031,204028,-208915,41538,0,0,0,365,280,290,361,261,434,471,292,312,393,248,467,0,,,
2,1790113529136,3187,3077,9858,-5534439,722042,772133,0,0,0,184,74,123,158,63,183,195,106,135,131,78,180,0,,,
1,1790113529152,-756,-28,10026,206472,-184481,43982,0,0,0,371,297,282,378,264,441,461,269,319,440,246,454,0,,,
2,1790113529152,2751,3082,10959,-5644394,1166752,555887,0,0,0,178,74,116,158,63,179,185,108,138,121,65,177,0,,,
1,1790113529168,-760,-67,10007,205250,-155159,43982,0,0,0,393,319,296,382,286,449,448,227,297,374,215,462,0,,,
2,1790113529168,1947,2986,12811,-5892406,1389107,466701,0,0,0,181,76,121,154,59,176,241,131,172,146,83,195,0,,,
1,1790113529184,-780,-81,10016,202807,-125838,42760,0,0,0,419,314,297,398,294,453,445,214,312,375,215,462,0,,,
2,1790113529184,1799,2474,14716,-6073222,1536936,471587,0,0,0,183,81,120,157,59,178,213,117,152,125,67,174,0,,,
1,1790113529200,-804,-95,10093,211359,-105068,47647,0,0,0,437,335,303,415,313,456,425,194,294,370,202,455,0,,,
2,1790113529200,2005,1899,16534,-6114761,1792278,553443,0,0,0,182,83,120,159,60,179,197,102,138,121,63,167,0,,,
1,1790113529216,-760,-138,10145,229685,-106290,57421,0,0,0,438,342,287,411,322,463,419,181,292,366,205,461,0,,,
2,1790113529216,1856,1507,18712,-6161186,2042733,689055,0,0,0,180,84,122,156,58,179,192,102,136,120,64,171,0,,,
1,1790113529232,-765,-186,10179,267558,-130725,63529,0,0,0,445,332,287,427,323,477,377,123,218,376,195,464,0,,,
2,1790113529232,1641,966,21521,-6236934,2169793,886976,0,0,0,177,79,123,158,65,180,193,105,144,115,51,169,0,,,
1,1790113529248,-832,-220,10212,327423,-142942,72082,0,0,0,451,329,277,436,316,472,388,120,230,376,181,465,0,,,
2,1790113529248,1617,-512,24493,-6327342,2234545,1039692,0,0,0,172,75,121,158,63,183,192,107,148,117,57,177,0,,,
1,1790113529264,-952,-268,10236,384845,-125838,95294,0,0,0,453,326,256,439,322,466,437,145,290,356,168,478,0,,,
2,1790113529264,760,-3531,27523,-6492275,2361605,1122770,0,0,0,165,72,117,158,59,184,196,111,151,115,61,176,0,,,
1,1790113529280,-1024,-325,10351,439822,-107512,131946,0,0,0,461,337,235,447,335,467,466,151,316,347,163,498,0,,,
2,1790113529280,-1292,-8475,29829,-6682865,2368935,1048244,0,0,0,162,74,115,160,62,185,201,108,148,114,63,167,0,,,
1,1790113529296,-938,-402,10567,530231,-128281,172263,0,0,0,472,340,214,456,338,472,459,132,307,354,160,510,0,,,
2,1790113529296,-3689,-14448,31150,-6690196,1981646,869872,0,0,0,164,78,116,157,62,186,203,105,147,123,71,168,0,,,
1,1790113529312,-751,-492,10662,675616,-202807,179594,0,0,0,481,318,199,462,334,482,435,105,298,358,155,515,0,,,
2,1790113529312,-3603,-21406,29504,-6201503,937067,766025,0,0,0,166,77,118,154,65,188,206,109,157,119,55,168,0,,,
1,1790113529328,-827,-564,10916,833220,-246789,166155,0,0,0,492,319,197,472,339,497,402,93,293,368,158,519,0,,,
2,1790113529328,1349,-32663,21986,-5160589,141720,549778,0,0,0,170,90,126,160,66,194,194,104,139,116,66,186,0,,,
1,1790113529344,-1210,-612,11844,1098335,-223576,183259,0,0,0,498,322,189,481,349,500,376,92,276,368,158,536,0,,,
2,1790113529344,2660,-45862,13491,-3775147,828333,-340862,0,0,0,166,82,134,160,61,199,201,102,151,136,74,206,0,,,
1,1790113529360,-1373,-670,12993,1464854,-204028,224798,0,0,0,503,337,195,488,357,493,365,92,273,369,177,557,0,,,
2,1790113529360,-9743,-52854,11275,-1935221,2246762,-1363451,0,0,0,164,82,166,161,61,220,197,112,157,124,48,188,0,,,
1,1790113529376,-1110,-741,14228,1942551,-234572,259006,0,0,0,514,350,207,483,356,493,342,96,263,351,173,571,0,,,
2,1790113529376,-22938,-46422,14615,350636,871093,-811229,0,0,0,143,93,117,172,78,196,232,147,156,150,121,156,0,,,
1,1790113529392,-1210,-784,15348,2497217,-299323,259006,0,0,0,520,327,226,475,348,496,311,82,249,361,179,568,0,,,
2,1790113529392,-15807,-28566,18549,2376265,-1979203,692721,0,0,0,155,93,95,176,92,184,283,274,147,198,247,150,0,,,
1,1790113529408,-2100,-794,16310,3175277,-355523,329867,0,0,0,517,346,229,455,359,479,330,100,249,351,182,560,0,,,
2,1790113529408,4134,8269,17382,3980397,-2729345,1166752,0,0,0,162,88,101,183,96,221,352,327,218,243,316,214,0,,,
1,1790113529424,-2895,-713,17066,3946189,-395840,536339,0,0,0,510,357,220,456,352,471,306,97,259,343,183,547,0,,,
2,1790113529424,11160,22981,10031,5562538,-2623055,1088561,0,0,0,176,94,109,206,94,238,374,347,188,274,340,205,0,,,
1,1790113529440,-3139,-392,19363,4939456,-403171,813672,0,0,0,486,357,196,431,370,457,293,106,255,319,168,525,0,,,
2,1790113529440,3043,-894,10926,6707300,-1846034,1578475,0,0,0,171,95,109,203,89,241,380,375,186,313,376,246,0,,,
1,1790113529456,-3996,19,22005,6123313,-141720,1087340,0,0,0,455,360,203,417,374,460,277,111,240,305,164,481,0,,,
2,1790113529456,-5532,-8925,22009,6421415,-2151467,1903456,0,0,0,189,101,130,202,73,234,413,385,187,333,408,253,0,,,
1,1790113529472,-4134,-196,24015,7271739,471587,1303586,0,0,0,434,357,196,398,350,434,276,110,231,288,152,452,0,,,
2,1790113529472,-6207,-3551,24331,4850269,-2571742,962723,0,0,0,204,93,139,205,63,230,450,376,200,357,398,243,0,,,
1,1790113529488,-3393,-2163,27714,8328536,1015258,1320690,0,0,0,407,322,183,367,304,390,198,71,150,262,135,432,0,,,
2,1790113529488,-909,4,15501,2274862,-1572367,123394,0,0,0,219,87,147,214,70,243,490,389,218,379,387,265,0,,,
1,1790113529504,-3350,-2818,31868,8864876,1296256,1295034,0,0,0,354,270,185,328,256,355,111,30,67,240,121,408,0,,,
2,1790113529504,985,-536,9313,521678,-436157,97738,0,0,0,235,95,181,226,91,262,504,384,231,395,386,299,0,,,
1,1790113529520,-5317,-660,33160,9209404,2095267,1367116,0,0,0,296,229,190,298,218,329,193,67,118,219,107,351,0,,,
2,1790113529520,71,-1158,9045,122173,-107512,207694,0,0,0,270,117,211,240,109,274,500,365,233,418,384,337,0,,,
1,1790113529536,-9633,7537,26977,9198408,2787988,1470963,0,0,0,271,198,185,298,194,313,292,108,170,208,103,273,0,,,
2,1790113529536,-277,-473,10356,233350,-238237,70860,0,0,0,304,127,210,265,127,284,505,350,240,432,377,365,0,,,
1,1790113529552,-10949,13854,17784,8389623,2415361,1456302,0,0,0,274,192,179,307,196,314,183,52,101,224,102,276,0,,,
2,1790113529552,33,-57,10447,245567,-241902,-18325,0,0,0,315,123,205,287,154,294,515,330,248,417,358,377,0,,,
1,1790113529568,-8231,15108,10581,6057339,1505171,1100779,0,0,0,273,191,176,298,201,308,182,61,109,208,106,272,0,,,
2,1790113529568,263,-86,10059,195476,-145385,-20769,0,0,0,329,140,220,281,175,304,514,306,248,389,315,394,0,,,
1,1790113529584,-4776,15017,8135,1715309,1032362,117286,0,0,0,261,190,179,293,185,308,274,103,167,199,98,271,0,,,
2,1790113529584,177,-167,10054,194255,-62308,-12217,0,0,0,337,158,238,280,176,323,509,265,271,362,249,405,0,,,
1,1790113529600,-3541,12620,7633,-2271196,929736,-891863,0,0,0,259,186,177,300,186,305,326,119,180,203,101,270,0,,,
2,1790113529600,86,-162,10174,226020,-1221,-26878,0,0,0,352,153,246,287,172,328,484,223,261,336,213,421,0,,,
1,1790113529616,-4900,8188,6207,-3634648,816115,-1161865,0,0,0,259,186,176,298,184,307,324,117,179,205,101,270,0,,,
2,1790113529616,105,-181,10122,240680,17104,-31764,0,0,0,371,167,269,282,180,330,472,207,254,295,189,433,0,,,
1,1790113529632,-5628,5900,4345,-3689626,447153,-827111,0,0,0,249,183,170,286,178,302,338,119,183,206,99,268,0,,,
2,1790113529632,177,-239,10045,241902,6108,-26878,0,0,0,390,159,283,293,183,334,456,173,255,281,157,444,0,,,
1,1790113529648,-4556,6025,3694,-3935193,-96516,-266337,0,0,0,253,182,183,294,181,308,222,70,120,207,101,270,0,,,
2,1790113529648,282,-291,10054,260228,-12217,-31764,0,0,0,401,173,264,296,194,340,439,159,262,272,140,458,0,,,
1,1790113529664,-2876,6101,5374,-4962669,-364075,39095,0,0,0,259,182,177,302,179,307,276,94,147,211,101,271,0,,,
2,1790113529664,320,-354,10102,300545,-10995,-57421,0,0,0,394,174,236,288,199,352,438,154,269,234,123,463,0,,,
1,1790113529680,-2081,5120,7571,-5867971,-331088,199142,0,0,0,257,182,171,295,173,302,326,111,172,214,101,270,0,,,
2,1790113529680,229,-406,10145,334754,-8552,-75747,0,0,0,406,178,250,293,218,351,418,146,277,224,113,470,0,,,
1,1790113529696,-2239,3766,9183,-6261368,-150272,278554,0,0,0,256,180,182,298,173,309,319,107,170,215,101,272,0,,,
2,1790113529696,162,-445,10174,362853,4886,-74525,0,0,0,397,233,206,313,254,363,415,157,287,221,99,481,0,,,
1,1790113529712,-2569,3153,10217,-6363994,-106290,285884,0,0,0,257,181,184,299,173,310,320,106,168,215,101,271,0,,,
2,1790113529712,167,-483,10208,398284,50090,-69638,0,0,0,410,195,166,313,234,355,394,137,266,218,92,495,0,,,
1,1790113529728,-3134,2699,11639,-6521597,-226020,256563,0,0,0,259,185,178,296,173,306,321,108,167,216,103,270,0,,,
2,1790113529728,157,-526,10275,437379,106290,-63529,0,0,0,420,179,156,313,237,360,384,126,263,215,91,509,0,,,
1,1790113529744,-3843,1919,13701,-6676757,-598647,284663,0,0,0,263,187,180,310,180,311,329,114,174,215,102,273,0,,,
2,1790113529744,258,-593,10284,467922,162490,-57421,0,0,0,421,182,146,327,238,366,393,120,277,215,90,510,0,,,
1,1790113529760,-4091,1014,15855,-6745173,-1039692,379958,0,0,0,262,186,177,313,183,311,324,110,168,214,103,271,0,,,
2,1790113529760,363,-674,10323,494800,211359,-73303,0,0,0,434,194,145,329,232,364,402,124,278,216,88,509,0,,,
1,1790113529776,-3814,124,18291,-6735400,-1507615,513126,0,0,0,258,185,176,310,179,310,343,117,179,215,103,273,0,,,
2,1790113529776,373,-737,10423,540004,219911,-89186,0,0,0,443,207,141,323,250,362,391,133,280,218,107,521,0,,,
1,1790113529792,-3455,-425,21043,-6736621,-1865582,582765,0,0,0,253,185,176,297,175,307,340,118,182,214,102,273,0,,,
2,1790113529792,459,-827,10533,634078,200363,-98960,0,0,0,439,204,133,326,259,367,380,135,283,224,122,538,0,,,
1,1790113529808,-3168,-1076,24273,-6795264,-2161241,619417,0,0,0,258,188,180,306,183,312,280,86,148,214,99,273,0,,,
2,1790113529808,583,-938,10571,741590,180816,-118507,0,0,0,443,192,139,329,243,388,380,130,277,224,104,553,0,,,
1,1790113529824,-2354,-3225,28269,-6921103,-2548529,555887,0,0,0,263,187,181,315,182,312,306,101,162,212,97,274,0,,,
2,1790113529824,516,-1019,10653,850324,171042,-136833,0,0,0,456,212,146,328,248,414,370,130,286,212,99,571,0,,,
1,1790113529840,-655,-7183,31394,-7054271,-3104417,315206,0,0,0,256,185,179,300,180,309,338,114,182,212,95,274,0,,,
2,1790113529840,488,-1139,10686,973719,178372,-146607,0,0,0,472,263,150,350,262,398,370,136,282,220,114,581,0,,,
1,1790113529856,3460,-14099,33548,-7214318,-3775147,-177150,0,0,0,247,185,181,294,183,315,338,120,194,205,94,274,0,,,
2,1790113529856,540,-1306,10672,1100779,193033,-147829,0,0,0,486,242,150,394,269,388,372,126,279,240,113,600,0,,,
1,1790113529872,6460,-21727,32256,-6998072,-3048217,-711047,0,0,0,243,186,179,293,187,317,329,116,188,202,96,274,0,,,
2,1790113529872,756,-1445,11064,1229060,180816,-157603,0,0,0,483,219,149,347,273,396,360,109,249,230,104,608,0,,,
1,1790113529888,3244,-30504,26594,-6070778,-1671327,-971275,0,0,0,250,201,183,301,193,322,322,112,184,202,101,278,0,,,
2,1790113529888,1028,-1564,12031,1459967,129503,-200363,0,0,0,479,234,150,363,269,405,349,127,263,237,77,614,0,,,
1,1790113529904,703,-41440,17286,-4324925,-1792278,-1221,0,0,0,253,208,185,303,197,325,328,116,191,203,102,282,0,,,
2,1790113529904,799,-1641,12735,1793500,100181,-237015,0,0,0,535,259,177,479,285,405,344,152,273,253,130,628,0,,,
1,1790113529920,13606,-48499,11734,-2505769,-2612059,1326799,0,0,0,250,208,190,296,196,326,346,124,204,204,101,284,0,,,
2,1790113529920,402,-1665,13400,2193006,119729,-226020,0,0,0,516,248,150,430,283,375,321,152,263,253,90,650,0,,,
1,1790113529936,31069,-46944,11438,-629191,-1066570,1045801,0,0,0,234,206,171,296,207,313,331,165,180,251,182,267,0,,,
2,1790113529936,612,-1765,14161,2663372,153938,-178372,0,0,0,508,231,161,357,253,386,304,130,258,226,88,644,0,,,
1,1790113529952,20200,-30787,13802,1903456,2952922,-1165530,0,0,0,225,202,145,299,216,308,307,228,148,313,290,255,0,,,
2,1790113529952,1502,-1995,14639,3232698,172263,-235793,0,0,0,488,246,159,340,245,377,283,119,256,246,98,650,0,,,
1,1790113529968,-2306,1541,10820,4660901,4344473,-1850921,0,0,0,239,206,145,306,214,329,324,265,152,343,333,268,0,,,
2,1790113529968,1746,-2043,15434,3886324,210137,-360410,0,0,0,459,250,160,336,261,369,262,106,253,243,107,618,0,,,
1,1790113529984,-7781,12356,9705,6291911,3093421,-1367116,0,0,0,246,214,146,324,216,349,353,299,159,392,384,282,0,,,
2,1790113529984,2971,-2191,16453,4613254,233350,-520457,0,0,0,426,268,151,330,275,382,232,110,254,219,93,579,0,,,
1,1790113530000,-1435,-1191,15549,6614448,757472,-1827708,0,0,0,250,200,159,316,204,363,390,365,193,446,425,304,0,,,
2,1790113530000,4871,-2589,18339,5566204,307876,-910189,0,0,0,404,266,143,308,255,372,215,123,243,190,79,523,0,,,
1,1790113530016,6738,-9255,24297,6159965,-497244,-2057394,0,0,0,242,178,170,305,182,344,442,406,209,458,424,312,0,,,
2,1790113530016,3828,-3551,23144,6651100,328645,-1304808,0,0,0,381,224,136,281,218,327,197,120,221,173,79,468,0,,,
1,1790113530032,4527,-4503,23292,4581489,282219,-499687,0,0,0,273,200,234,305,182,360,460,428,265,462,409,336,0,,,
2,1790113530032,2665,-5020,28064,7248526,19547,-1295034,0,0,0,339,170,140,243,171,286,183,109,188,154,78,401,0,,,
1,1790113530048,-1378,-564,15032,2091602,1006705,521678,0,0,0,305,225,291,323,198,388,452,382,266,471,410,361,0,,,
2,1790113530048,4431,-5010,30701,7611380,-24434,-1336573,0,0,0,271,119,134,195,114,240,182,101,157,132,70,302,0,,,
1,1790113530064,-1804,-708,9609,223576,624304,129503,0,0,0,337,272,273,342,232,401,459,368,276,481,411,391,0,,,
2,1790113530064,6944,-2110,31533,8081747,217468,-1678657,0,0,0,209,82,111,167,75,189,182,94,142,115,54,202,0,,,
1,1790113530080,-224,-966,9624,-62308,193033,-164933,0,0,0,360,305,306,360,253,420,480,374,285,486,396,401,0,,,
2,1790113530080,9849,5939,28140,8398175,419053,-2254092,0,0,0,190,74,109,161,64,175,184,97,133,94,36,145,0,,,
1,1790113530096,47,-526,10748,261450,72082,-79412,0,0,0,362,305,333,369,273,440,486,357,321,490,373,430,0,,,
2,1790113530096,10911,14520,17640,7602828,913854,-2888170,0,0,0,192,77,106,161,71,177,179,102,126,100,54,149,0,,,
1,1790113530112,-564,-191,10466,320093,78190,28099,0,0,0,403,329,364,398,276,437,492,354,333,492,332,448,0,,,
2,1790113530112,7011,16377,9332,4332256,1043357,-2746450,0,0,0,195,75,108,163,64,176,179,93,125,100,44,153,0,,,
1,1790113530128,-679,-205,10131,273667,8552,28099,0,0,0,429,318,378,395,269,443,491,336,330,468,299,465,0,,,
2,1790113530128,2067,15051,8011,-414166,307876,-1605353,0,0,0,187,70,103,158,56,169,179,102,129,109,58,156,0,,,
1,1790113530144,-521,-339,10169,277332,-97738,-1221,0,0,0,446,319,359,400,268,448,501,304,326,423,269,480,0,,,
2,1790113530144,1076,10658,10141,-3441614,-1069014,-223576,0,0,0,189,69,106,158,55,169,183,91,129,121,54,161,0,,,
1,1790113530160,-531,-368,10308,338419,-173485,18325,0,0,0,458,332,347,405,278,455,512,282,334,393,244,494,0,,,
2,1790113530160,3795,6905,7776,-3717725,-1782504,283441,0,0,0,187,73,115,158,61,175,181,97,129,111,58,158,0,,,
1,1790113530176,-526,-373,10303,367740,-217468,42760,0,0,0,467,348,344,404,290,465,506,253,337,367,217,500,0,,,
2,1790113530176,5618,5800,4412,-3489262,-1480737,241902,0,0,0,187,73,118,154,57,174,192,108,145,97,57,161,0,,,
1,1790113530192,-516,-411,10236,357967,-255341,43982,0,0,0,476,371,328,406,308,472,498,218,338,342,192,499,0,,,
2,1790113530192,4943,6604,3723,-3892433,-597426,111177,0,0,0,182,79,114,153,66,171,185,98,138,108,52,156,0,,,
1,1790113530208,-607,-449,10236,328645,-274889,43982,0,0,0,479,382,295,411,328,469,495,189,338,337,171,499,0,,,
2,1790113530208,3048,6671,5972,-4937012,-10995,200363,0,0,0,181,78,116,152,64,169,190,107,138,126,74,171,0,,,
1,1790113530224,-689,-469,10294,324980,-234572,57421,0,0,0,483,370,258,430,324,459,472,139,298,335,152,494,0,,,
2,1790113530224,2010,5527,8202,-5704259,157603,340862,0,0,0,166,70,114,147,55,168,186,96,132,128,69,171,0,,,
1,1790113530240,-732,-564,10538,366519,-101403,62308,0,0,0,483,351,242,428,334,446,434,110,268,352,162,487,0,,,
2,1790113530240,2287,4326,9169,-5865528,188146,437379,0,0,0,174,71,117,147,53,170,181,91,133,114,60,163,0,,,
1,1790113530256,-885,-693,10849,487470,47647,72082,0,0,0,469,360,240,439,349,454,391,107,254,349,167,478,0,,,
2,1790113530256,2818,3886,9997,-5951049,406836,535117,0,0,0,181,78,118,151,59,174,181,95,133,109,59,161,0,,,
1,1790113530272,-804,-775,10677,635299,85521,109955,0,0,0,477,365,219,442,358,439,418,114,254,340,164,486,0,,,
2,1790113530272,3125,3871,11418,-6186843,756251,654847,0,0,0,178,82,118,152,57,175,181,94,129,114,66,174,0,,,
1,1790113530288,-526,-856,10246,707381,20769,129503,0,0,0,471,352,210,458,349,461,398,107,245,340,161,489,0,,,
2,1790113530288,3278,3445,13586,-6472728,1098335,784350,0,0,0,174,80,116,152,56,177,178,95,127,109,56,173,0,,,
1,1790113530304,-411,-961,10021,681725,-57421,108734,0,0,0,471,354,213,453,375,464,390,116,244,330,164,489,0,,,
2,1790113530304,3359,2751,15812,-6665761,1395216,893084,0,0,0,170,78,115,151,66,180,183,105,135,108,46,161,0,,,
1,1790113530320,-526,-1081,10059,642630,-89186,84299,0,0,0,459,375,228,454,395,466,408,135,271,325,166,488,0,,,
2,1790113530320,3364,2014,18195,-6778160,1607797,972497,0,0,0,184,111,123,154,100,182,195,112,143,125,80,173,0,,,
1,1790113530336,-646,-1191,10150,629191,-103847,84299,0,0,0,483,356,218,452,365,464,383,113,259,325,152,493,0,,,
2,1790113530336,3402,1273,21019,-6879564,1775174,1047023,0,0,0,200,172,127,161,173,189,191,125,138,112,95,166,0,,,
1,1790113530352,-765,-1253,10332,652404,-123394,109955,0,0,0,488,342,202,449,348,463,332,90,221,328,156,496,0,,,
2,1790113530352,3235,90,24340,-6983411,1931555,1175304,0,0,0,161,149,117,144,155,178,182,121,137,111,79,168,0,,,
1,1790113530368,-856,-1330,10500,704938,-136833,151494,0,0,0,498,348,191,434,356,459,372,107,244,337,166,524,0,,,
2,1790113530368,2364,-2766,27705,-7077484,2098932,1490511,0,0,0,159,84,116,149,62,176,177,94,135,116,68,188,0,,,
1,1790113530384,-871,-1430,10567,780685,-142942,197920,0,0,0,515,349,183,433,372,458,401,120,267,336,164,544,0,,,
2,1790113530384,799,-7508,30930,-7127575,2235766,1849699,0,0,0,161,81,118,144,67,181,193,105,142,110,37,168,0,,,
1,1790113530400,-703,-1564,10471,888198,-163711,237015,0,0,0,523,346,184,438,383,462,391,113,263,334,165,544,0,,,
2,1790113530400,-1411,-13740,32868,-7050606,1888795,1998751,0,0,0,157,82,113,159,68,192,192,99,146,117,51,176,0,,,
1,1790113530416,-387,-1694,10236,985936,-196698,241902,0,0,0,525,362,194,430,373,468,395,114,264,337,172,545,0,,,
2,1790113530416,-1139,-20947,32261,-6703635,846659,2014633,0,0,0,153,79,116,158,64,192,204,106,156,102,28,166,0,,,
1,1790113530432,-425,-1794,10509,1064127,-206472,201585,0,0,0,536,380,201,431,354,462,372,110,256,335,168,556,0,,,
2,1790113530432,4575,-31581,25867,-5828876,-270002,1773952,0,0,0,153,75,116,164,66,217,194,98,171,115,52,190,0,,,
1,1790113530448,-985,-1885,11481,1208291,-168598,189368,0,0,0,541,357,209,441,355,455,284,78,218,353,181,561,0,,,
2,1790113530448,6867,-45178,16525,-4440990,673173,574213,0,0,0,155,85,120,158,66,207,199,110,163,114,45,198,0,,,
1,1790113530464,-1335,-2000,12447,1468520,-84299,243124,0,0,0,546,348,220,426,364,458,273,82,199,344,188,560,0,,,
2,1790113530464,-6135,-54792,12266,-2417804,2415361,-981049,0,0,0,158,90,119,170,71,207,207,127,148,135,82,179,0,,,
1,1790113530480,-756,-2077,13137,1898569,-12217,289550,0,0,0,555,356,245,415,342,462,287,77,213,360,184,571,0,,,
2,1790113530480,-24211,-52021,15879,-210137,1726305,-994488,0,0,0,160,89,114,179,79,218,259,198,150,181,170,177,0,,,
1,1790113530496,-521,-2100,13950,2346944,-25656,265115,0,0,0,545,360,232,420,351,452,284,87,213,346,184,562,0,,,
2,1790113530496,-14357,-30878,19387,3010343,-840550,134390,0,0,0,171,89,105,184,86,230,319,291,184,229,269,208,0,,,
1,1790113530512,-1383,-2144,15046,2950479,-70860,289550,0,0,0,536,365,219,425,361,443,281,97,213,332,185,553,0,,,
2,1790113530512,3201,1885,14883,6565579,-1880243,117286,0,0,0,177,100,108,196,101,253,345,366,200,276,378,240,0,,,
1,1790113530528,-2000,-2120,16185,3676187,-79412,415388,0,0,0,506,359,223,428,349,462,200,60,169,326,166,522,0,,,
2,1790113530528,7949,9777,15912,7867944,-2542421,-477696,0,0,0,184,125,116,202,104,258,378,417,199,328,434,258,0,,,
1,1790113530544,-2962,-2081,17429,4576602,-51312,653625,0,0,0,481,360,204,423,360,458,302,106,264,313,151,507,0,,,
2,1790113530544,1024,-3469,25001,6699969,-3472158,-221133,0,0,0,207,123,121,206,90,245,414,442,200,353,436,265,0,,,
1,1790113530560,-3369,-2325,20095,5588195,-34208,956614,0,0,0,447,332,195,412,352,454,313,111,272,291,140,477,0,,,
2,1790113530560,-3445,-6872,25369,4586376,-2773328,276111,0,0,0,226,104,149,209,79,239,435,422,202,361,433,269,0,,,
1,1790113530576,-2861,-3622,25293,6794043,129503,1165530,0,0,0,425,311,195,393,321,417,236,79,185,273,134,448,0,,,
2,1790113530576,-1507,-1722,15778,2493551,-1227839,294437,0,0,0,242,109,184,210,81,242,457,391,202,397,436,287,0,,,
1,1790113530592,-2995,-5245,29303,7615046,216246,1111774,0,0,0,394,286,190,358,286,384,131,35,89,254,124,422,0,,,
2,1790113530592,536,770,9102,948062,-306654,164933,0,0,0,269,117,188,223,95,256,478,397,207,423,431,316,0,,,
1,1790113530608,-3948,-5106,31787,8213694,243124,1141096,0,0,0,336,253,184,325,247,350,192,58,114,231,110,373,0,,,
2,1790113530608,406,-416,9614,408057,-279776,63529,0,0,0,280,128,215,242,120,280,483,378,230,405,402,341,0,,,
1,1790113530624,-6704,-1919,30863,8521570,819781,1429424,0,0,0,282,223,189,302,214,321,324,114,194,214,104,319,0,,,
2,1790113530624,28,-708,10571,217468,-268780,24434,0,0,0,308,133,226,263,145,293,488,316,216,417,369,370,0,,,
1,1790113530640,-9284,5819,24278,8152607,1684766,1870469,0,0,0,262,207,197,286,206,321,330,124,206,208,110,295,0,,,
2,1790113530640,95,-114,10409,233350,-178372,20769,0,0,0,330,157,237,282,166,306,528,305,232,431,344,395,0,,,
1,1790113530656,-8647,11505,15295,6822142,2144136,2003637,0,0,0,262,209,188,287,207,320,320,124,200,206,111,284,0,,,
2,1790113530656,253,81,10045,255341,-108734,9773,0,0,0,343,189,253,267,236,307,520,283,232,419,339,426,0,,,
1,1790113530672,-6527,11878,10442,4052479,1864360,1229060,0,0,0,262,208,175,290,205,308,300,111,174,207,107,274,0,,,
2,1790113530672,244,0,10059,250454,-48869,-4886,0,0,0,334,173,263,283,199,322,501,242,255,367,242,442,0,,,
1,1790113530688,-5920,11232,8432,488692,1025031,74525,0,0,0,263,206,174,294,202,306,318,116,179,208,103,271,0,,,
2,1790113530688,196,-95,10198,246789,15882,-18325,0,0,0,360,172,267,304,206,334,520,206,276,349,205,479,0,,,
1,1790113530704,-5608,9069,7891,-2118480,10995,-829554,0,0,0,264,206,185,299,203,315,305,113,180,202,102,271,0,,,
2,1790113530704,272,-110,10136,255341,54977,-28099,0,0,0,356,183,257,309,243,339,473,181,253,301,167,489,0,,,
1,1790113530720,-3665,6810,6427,-2796541,-293215,-1167974,0,0,0,274,200,183,301,203,315,315,118,185,205,106,275,0,,,
2,1790113530720,382,-124,10083,266337,42760,-41538,0,0,0,372,180,247,306,216,341,460,165,261,266,127,500,0,,,
1,1790113530736,-1976,5953,5063,-2915048,135612,-1214400,0,0,0,257,199,170,305,205,308,187,58,97,214,109,272,0,,,
2,1790113530736,421,-181,10150,294437,9773,-59864,0,0,0,378,179,238,306,218,357,457,157,267,236,127,512,0,,,
1,1790113530752,-2321,5991,4905,-3403741,792903,-988379,0,0,0,257,195,177,305,201,312,307,112,174,206,105,272,0,,,
2,1790113530752,344,-268,10241,353080,1221,-69638,0,0,0,388,174,215,326,222,371,447,148,272,234,119,527,0,,,
1,1790113530768,-3560,5829,5752,-4181983,773355,-561996,0,0,0,248,190,176,289,193,309,300,107,172,205,105,272,0,,,
2,1790113530768,306,-330,10289,422718,28099,-69638,0,0,0,395,185,181,332,237,371,428,148,273,222,101,526,0,,,
1,1790113530784,-3876,5355,7121,-4994434,222354,47647,0,0,0,248,189,178,294,195,312,312,115,183,203,105,272,0,,,
2,1790113530784,296,-368,10342,493579,111177,-67195,0,0,0,402,205,162,330,242,370,408,141,276,215,85,531,0,,,
1,1790113530800,-2818,4685,8490,-5569869,-105068,543670,0,0,0,251,190,181,298,197,316,323,122,193,202,103,272,0,,,
2,1790113530800,248,-430,10346,559552,246789,-58643,0,0,0,410,199,154,330,239,380,396,130,288,210,71,547,0,,,
1,1790113530816,-2177,3871,9892,-6013357,-130725,830776,0,0,0,250,192,183,291,195,315,266,96,159,204,107,274,0,,,
2,1790113530816,406,-531,10232,575435,343306,-43982,0,0,0,416,188,141,332,246,385,384,121,286,205,71,560,0,,,
1,1790113530832,-2546,3043,11438,-6278472,-196698,901637,0,0,0,248,192,186,288,195,315,260,91,155,206,110,277,0,,,
2,1790113530832,708,-646,10131,566882,344527,-53756,0,0,0,428,199,126,334,260,376,368,113,269,215,86,572,0,,,
1,1790113530848,-2866,2459,13070,-6406754,-551000,882089,0,0,0,247,191,190,291,198,318,309,112,184,207,108,279,0,,,
2,1790113530848,866,-746,10141,554665,255341,-91629,0,0,0,445,192,125,330,260,375,364,118,268,226,96,585,0,,,
1,1790113530864,-2675,2077,14778,-6460510,-1067792,791681,0,0,0,245,192,189,289,198,318,307,112,181,206,107,279,0,,,
2,1790113530864,808,-804,10246,558330,160046,-129503,0,0,0,463,187,135,330,262,373,370,127,276,234,109,602,0,,,
1,1790113530880,-2177,1545,16898,-6517932,-1572367,663399,0,0,0,246,195,190,286,195,319,306,112,182,205,106,281,0,,,
2,1790113530880,607,-856,10337,579100,51312,-149051,0,0,0,461,196,139,332,274,370,366,134,274,229,95,607,0,,,
1,1790113530896,-1737,961,19171,-6554584,-1960877,592539,0,0,0,246,195,196,286,194,322,286,101,173,205,107,284,0,,,
2,1790113530896,588,-942,10308,618195,-25656,-139277,0,0,0,443,221,133,335,277,382,365,145,268,213,83,599,0,,,
1,1790113530912,-1550,368,22258,-6561914,-2272418,678060,0,0,0,245,195,194,286,193,320,300,105,176,206,105,284,0,,,
2,1790113530912,784,-1052,10361,678060,-25656,-147829,0,0,0,472,205,147,332,277,412,380,175,303,215,88,602,0,,,
1,1790113530928,-1210,-440,25934,-6572909,-2594955,858876,0,0,0,242,195,199,287,195,326,318,115,195,203,106,287,0,,,
2,1790113530928,789,-1153,10619,766025,7330,-174707,0,0,0,462,194,134,336,262,391,320,91,265,246,71,596,0,,,
1,1790113530944,488,-2871,30375,-6680422,-3038443,985936,0,0,0,244,197,194,289,199,321,326,124,194,204,106,283,0,,,
2,1790113530944,674,-1253,10911,904080,24434,-184481,0,0,0,472,212,129,340,282,380,346,115,258,230,98,621,0,,,
1,1790113530960,3943,-7800,32979,-6969972,-3436727,746477,0,0,0,242,198,185,289,200,319,322,126,194,198,103,281,0,,,
2,1790113530960,717,-1383,10959,1069014,24434,-186924,0,0,0,491,210,143,342,278,400,357,126,277,230,104,633,0,,,
1,1790113530976,8265,-14740,33802,-7279070,-3569896,204028,0,0,0,241,198,199,284,200,329,323,126,203,199,107,288,0,,,
2,1790113530976,851,-1536,10873,1231504,37873,-205250,0,0,0,514,247,142,350,279,396,342,135,264,255,122,641,0,,,
1,1790113530992,8772,-23780,30758,-6846577,-2698802,-659734,0,0,0,240,197,206,294,198,334,276,100,173,203,105,290,0,,,
2,1790113530992,942,-1670,11213,1408655,67195,-239459,0,0,0,516,258,137,348,292,398,340,135,264,255,128,651,0,,,
1,1790113531008,4398,-34701,23306,-5546656,-1815491,-1287703,0,0,0,245,202,206,303,201,340,269,97,167,205,105,298,0,,,
2,1790113531008,827,-1742,12160,1682322,67195,-268780,0,0,0,522,249,144,342,269,390,324,134,264,252,111,662,0,,,
1,1790113531024,4158,-45900,14544,-3867998,-2315179,-904080,0,0,0,244,206,209,294,200,344,305,113,195,201,106,308,0,,,
2,1790113531024,569,-1818,13012,2053728,48869,-250454,0,0,0,527,241,148,335,248,371,310,129,264,253,102,672,0,,,
1,1790113531040,19995,-50734,11112,-1907121,-2599842,-233350,0,0,0,230,204,181,292,205,328,332,155,193,237,158,283,0,,,
2,1790113531040,603,-1919,13740,2489886,54977,-207694,0,0,0,534,245,154,326,240,371,298,127,259,242,96,669,0,,,
1,1790113531056,28848,-44991,12457,575435,-245567,-978606,0,0,0,223,198,146,299,210,314,352,241,178,292,252,249,0,,,
2,1790113531056,1196,-2057,14410,3010343,81855,-207694,0,0,0,520,241,165,315,236,374,282,130,257,219,96,655,0,,,
1,1790113531072,6537,-19109,12500,3816686,2357939,-1682322,0,0,0,230,198,140,303,205,327,370,313,181,332,332,257,0,,,
2,1790113531072,1574,-2105,15391,3622430,68416,-302989,0,0,0,479,252,166,305,240,367,259,122,254,204,95,632,0,,,
1,1790113531088,-6910,5714,10141,6449515,3709173,-750142,0,0,0,242,203,147,315,200,347,387,339,186,379,394,285,0,,,
2,1790113531088,2469,-2158,16558,4316373,-20769,-436157,0,0,0,455,295,154,309,253,374,229,112,238,205,86,586,0,,,
1,1790113531104,-3890,4723,14644,7029837,3543018,156381,0,0,0,248,200,162,317,186,354,413,385,205,427,445,298,0,,,
2,1790113531104,3943,-2445,18028,5188689,-219911,-733038,0,0,0,447,288,148,318,272,371,213,115,228,200,99,532,0,,,
1,1790113531120,2871,-5072,24804,6280916,1607797,-488692,0,0,0,236,169,176,306,166,351,447,415,231,469,452,318,0,,,
2,1790113531120,4158,-3297,21115,6199060,-437379,-1080009,0,0,0,397,241,140,289,245,329,182,108,209,188,95,484,0,,,
1,1790113531136,3756,-5460,25829,4941899,348193,-486248,0,0,0,247,163,201,313,165,359,432,370,211,462,437,327,0,,,
2,1790113531136,3823,-5336,25503,6957755,-527787,-1209513,0,0,0,366,184,136,257,200,300,177,104,183,168,89,423,0,,,
1,1790113531152,-9,-1239,15869,2659707,356745,42760,0,0,0,285,180,249,334,183,365,437,382,218,471,450,334,0,,,
2,1790113531152,4498,-5910,29279,7424456,-332310,-1295034,0,0,0,311,145,134,208,137,270,177,98,161,140,65,351,0,,,
1,1790113531168,-1555,153,9078,742812,470366,117286,0,0,0,297,217,273,324,194,384,454,390,248,479,439,366,0,,,
2,1790113531168,5331,-2579,30925,7897265,-400727,-1616349,0,0,0,220,89,106,178,100,204,184,92,145,126,45,237,0,,,
1,1790113531184,-588,-914,9518,145385,318871,-80634,0,0,0,313,250,308,343,219,401,456,385,263,481,424,390,0,,,
2,1790113531184,8671,3139,29389,8366410,-735481,-2009746,0,0,0,183,70,103,182,68,184,188,98,135,141,77,170,0,,,
1,1790113531200,-253,-765,10667,195476,109955,-85521,0,0,0,344,271,322,356,240,410,460,371,267,476,397,412,0,,,
2,1790113531200,11811,11466,20760,8007221,-254119,-2498438,0,0,0,181,76,104,182,66,187,184,95,139,137,63,161,0,,,
1,1790113531216,-545,-186,10509,248011,35430,-18325,0,0,0,363,296,359,359,249,422,450,324,267,478,384,428,0,,,
2,1790113531216,10251,16582,9772,5701816,805120,-2825862,0,0,0,178,75,105,177,63,180,191,111,137,126,47,151,0,,,
1,1790113531232,-646,-105,10102,219911,36651,0,0,0,0,394,305,364,364,263,423,457,310,280,481,353,441,0,,,
2,1790113531232,4584,16219,8356,1220508,937067,-2042733,0,0,0,177,76,106,175,63,176,199,120,143,116,52,154,0,,,
1,1790113531248,-555,-224,10107,195476,1221,-7330,0,0,0,423,313,364,372,268,427,462,301,287,467,326,451,0,,,
2,1790113531248,1110,12691,10394,-2778215,-39095,-724486,0,0,0,177,77,104,176,60,178,204,116,148,111,47,146,0,,,
1,1790113531264,-512,-277,10270,208915,-73303,-4886,0,0,0,438,321,370,382,273,438,453,278,288,452,300,464,0,,,
2,1790113531264,2502,7705,10208,-4195422,-1341460,305432,0,0,0,179,76,107,177,60,187,203,117,151,110,51,149,0,,,
1,1790113531280,-559,-248,10260,240680,-131946,17104,0,0,0,449,331,373,394,284,444,452,260,298,433,272,474,0,,,
2,1790113531280,5049,6154,6144,-3819129,-1236391,432492,0,0,0,181,82,116,178,65,190,204,117,151,104,45,147,0,,,
1,1790113531296,-574,-268,10217,276111,-174707,36651,0,0,0,456,342,363,400,291,443,463,255,316,402,247,474,0,,,
2,1790113531296,5479,6613,4340,-4076914,-338419,364075,0,0,0,177,81,116,174,61,187,203,113,152,110,49,146,0,,,
1,1790113531312,-564,-335,10198,300545,-195476,41538,0,0,0,453,345,344,395,294,449,458,234,314,379,225,471,0,,,
2,1790113531312,4058,6891,6197,-5088507,547335,355523,0,0,0,174,81,118,174,58,188,199,114,152,113,56,158,0,,,
1,1790113531328,-612,-392,10212,320093,-199142,47647,0,0,0,450,354,332,396,300,453,430,179,285,375,205,465,0,,,
2,1790113531328,2565,5350,8954,-5927836,817337,426383,0,0,0,173,82,120,176,64,189,196,115,148,105,39,159,0,,,
1,1790113531344,-698,-430,10236,351858,-174707,62308,0,0,0,460,388,302,414,317,450,405,157,254,373,203,463,0,,,
2,1790113531344,2062,3890,10193,-6128200,718377,470366,0,0,0,171,79,114,175,65,185,197,118,145,110,38,155,0,,,
1,1790113531360,-703,-497,10208,398284,-128281,79412,0,0,0,475,363,286,401,315,443,431,145,269,352,181,473,0,,,
2,1790113531360,2373,3273,10835,-6114761,626747,494800,0,0,0,176,84,118,178,63,184,204,130,149,123,71,168,0,,,
1,1790113531376,-665,-574,10107,415388,-62308,89186,0,0,0,475,359,265,407,350,440,443,168,280,337,180,479,0,,,
2,1790113531376,2914,3010,12347,-6280916,890641,525344,0,0,0,177,88,118,177,60,184,203,119,151,119,56,157,0,,,
1,1790113531392,-650,-655,10093,389732,-7330,94073,0,0,0,480,360,275,427,343,455,405,124,247,339,180,475,0,,,
2,1790113531392,2943,2388,14481,-6448293,1334129,564439,0,0,0,175,91,120,176,62,184,205,115,145,128,66,165,0,,,
1,1790113531408,-579,-713,10184,366519,12217,95294,0,0,0,478,351,268,418,331,449,401,109,243,343,172,474,0,,,
2,1790113531408,2608,1703,16558,-6524040,1732413,630412,0,0,0,170,85,113,177,62,183,207,117,150,115,64,159,0,,,
1,1790113531424,-531,-741,10423,387288,-12217,86742,0,0,0,468,355,270,435,346,456,399,117,251,351,170,470,0,,,
2,1790113531424,1899,1105,18635,-6582683,2017077,783129,0,0,0,173,81,116,177,69,184,210,117,149,127,63,171,0,,,
1,1790113531440,-564,-760,10715,466701,-51312,81855,0,0,0,471,365,243,445,355,458,353,104,223,347,171,477,0,,,
2,1790113531440,1134,540,21028,-6675535,2109928,1099557,0,0,0,175,85,120,177,58,186,206,118,149,115,67,162,0,,,
1,1790113531456,-646,-813,10873,580321,-76969,91629,0,0,0,483,371,222,448,357,450,336,94,210,340,166,489,0,,,
2,1790113531456,1000,-325,23637,-6747617,1986533,1571145,0,0,0,159,68,111,177,63,187,188,95,133,122,61,165,0,,,
1,1790113531472,-636,-923,10787,702495,-85521,105068,0,0,0,490,372,217,449,354,451,321,85,196,340,164,496,0,,,
2,1790113531472,1019,-2301,26326,-6813590,1941329,2097711,0,0,0,167,74,115,178,68,189,194,116,140,122,54,163,0,,,
1,1790113531488,-679,-1062,10681,825889,-100181,117286,0,0,0,492,365,210,447,353,458,316,87,196,339,166,504,0,,,
2,1790113531488,248,-6724,28997,-6817256,2075720,2503325,0,0,0,167,78,118,176,62,190,201,102,149,125,50,170,0,,,
1,1790113531504,-689,-1177,10658,929736,-120951,135612,0,0,0,495,363,211,452,356,465,348,108,230,338,164,511,0,,,
2,1790113531504,-1325,-11543,30782,-6768386,1866804,2625498,0,0,0,167,79,121,178,62,195,201,100,150,123,48,173,0,,,
1,1790113531520,-612,-1311,10480,1004262,-140499,149051,0,0,0,502,375,221,457,356,471,339,104,228,346,166,516,0,,,
2,1790113531520,-607,-17353,30145,-6585127,711047,2516764,0,0,0,165,80,122,177,65,203,195,96,153,126,54,183,0,,,
1,1790113531536,-650,-1474,10351,1053131,-144164,156381,0,0,0,515,378,225,456,358,465,301,86,202,353,172,533,0,,,
2,1790113531536,3957,-25111,25948,-6041457,-317649,2228436,0,0,0,166,83,125,178,73,211,195,101,158,126,53,188,0,,,
1,1790113531552,-871,-1603,10768,1109331,-102625,174707,0,0,0,529,367,218,455,356,472,286,81,193,343,169,543,0,,,
2,1790113531552,9174,-36908,18032,-4923573,-9773,1244943,0,0,0,169,85,128,182,72,217,202,102,158,127,64,198,0,,,
1,1790113531568,-823,-1694,11500,1281595,-9773,210137,0,0,0,539,386,223,444,360,477,254,73,171,337,168,546,0,,,
2,1790113531568,-497,-46345,14189,-3324328,1714087,-475253,0,0,0,169,87,125,185,68,220,204,99,158,125,68,198,0,,,
1,1790113531584,-263,-1746,12108,1536936,51312,197920,0,0,0,544,376,216,441,364,464,302,102,214,339,184,556,0,,,
2,1790113531584,-16798,-48164,14663,-1506393,1869247,-1156978,0,0,0,166,82,112,189,75,214,227,134,154,151,106,189,0,,,
1,1790113531600,-196,-1804,13084,1908343,8552,112399,0,0,0,536,361,214,435,356,450,342,115,254,338,171,557,0,,,
2,1790113531600,-20382,-40066,17133,596204,-503352,-201585,0,0,0,166,92,93,196,87,210,294,231,162,231,220,201,0,,,
1,1790113531616,-985,-1895,14343,2422691,-96516,87964,0,0,0,539,353,224,438,345,463,339,120,252,330,162,561,0,,,
2,1790113531616,-1646,-15673,16353,3568674,-2146580,384845,0,0,0,180,132,107,196,91,235,341,324,195,280,313,231,0,,,
1,1790113531632,-1837,-1943,15553,3066543,-237015,206472,0,0,0,512,356,239,436,344,465,349,131,279,353,178,534,0,,,
2,1790113531632,9188,8088,11361,6572909,-2596177,-207694,0,0,0,203,120,131,195,101,252,353,365,200,309,421,260,0,,,
1,1790113531648,-2206,-1823,17549,3914424,-304210,409279,0,0,0,493,359,216,436,351,478,319,116,259,336,168,510,0,,,
2,1790113531648,4838,1426,15257,6963863,-2019520,175929,0,0,0,200,127,113,207,108,261,392,430,214,352,486,271,0,,,
1,1790113531664,-3895,-1732,19789,5004208,-167377,703716,0,0,0,467,363,200,445,363,463,282,105,246,302,156,490,0,,,
2,1790113531664,-1215,-4886,22450,6504493,-940732,1075122,0,0,0,213,99,124,214,82,252,431,464,208,376,517,276,0,,,
1,1790113531680,-4388,-1842,22818,6178291,244346,1115439,0,0,0,439,351,194,413,350,437,286,122,244,280,150,466,0,,,
2,1790113531680,-4340,-4546,25857,5326744,-434936,1139874,0,0,0,233,95,131,221,66,235,491,429,204,425,497,296,0,,,
1,1790113531696,-3230,-3239,26896,7345043,877202,1370781,0,0,0,412,315,192,364,310,409,172,74,135,270,144,436,0,,,
2,1790113531696,-1143,-1167,17894,3210707,-802676,321315,0,0,0,242,90,158,221,63,230,504,398,188,452,434,296,0,,,
1,1790113531712,-1430,-4335,30653,7973013,1296256,1279151,0,0,0,369,275,189,329,266,368,103,34,66,246,129,409,0,,,
2,1790113531712,1105,301,10394,1364672,-818559,-4886,0,0,0,265,92,183,223,75,251,533,426,216,444,444,286,0,,,
1,1790113531728,-2177,-3374,32246,8282110,2080607,1166752,0,0,0,303,239,189,295,224,332,259,97,169,212,112,364,0,,,
2,1790113531728,703,-425,9394,597426,-487470,91629,0,0,0,272,123,215,239,116,268,535,408,219,456,411,310,0,,,
1,1790113531744,-7102,1105,30222,8322428,3299894,1143539,0,0,0,251,200,194,279,194,325,328,124,210,209,110,289,0,,,
2,1790113531744,105,-708,10323,353080,-278554,102625,0,0,0,312,125,240,261,144,293,539,358,246,455,382,352,0,,,
1,1790113531760,-10926,9428,22249,7690793,3524692,1169196,0,0,0,261,200,176,292,198,311,306,114,176,214,111,288,0,,,
2,1790113531760,95,-263,10581,307876,-215024,15882,0,0,0,336,142,255,272,167,306,543,303,238,435,343,380,0,,,
1,1790113531776,-11500,15003,12691,5671272,2641381,1193630,0,0,0,262,198,179,285,193,306,324,124,186,207,106,285,0,,,
2,1790113531776,315,-47,10155,306654,-163711,-17104,0,0,0,321,140,269,268,168,305,523,271,238,422,298,407,0,,,
1,1790113531792,-9093,14237,9772,2031737,974940,1110553,0,0,0,248,218,171,277,200,306,320,124,181,207,114,282,0,,,
2,1790113531792,397,-90,10045,304210,-76969,-15882,0,0,0,346,157,269,273,179,305,515,250,252,394,246,437,0,,,
1,1790113531808,-5900,11036,9212,-928515,-227241,823446,0,0,0,248,194,172,277,186,305,325,124,182,209,113,285,0,,,
2,1790113531808,354,-181,10179,295658,28099,-24434,0,0,0,377,174,298,295,193,323,511,236,279,363,216,467,0,,,
1,1790113531824,-2981,7279,7461,-2108706,-433714,228463,0,0,0,249,193,174,276,182,307,323,125,185,207,111,286,0,,,
2,1790113531824,339,-191,10145,289550,78190,-43982,0,0,0,385,180,296,296,198,333,501,212,293,322,188,493,0,,,
1,1790113531840,-2469,7327,4752,-2069611,18325,-284663,0,0,0,251,189,172,276,182,308,319,123,184,210,109,283,0,,,
2,1790113531840,392,-201,10069,290771,84299,-56199,0,0,0,386,184,272,298,210,345,482,180,286,287,158,516,0,,,
1,1790113531856,-2837,7977,4048,-2800206,168598,-665843,0,0,0,247,219,172,277,198,308,333,137,193,213,121,285,0,,,
2,1790113531856,483,-272,10059,307876,58643,-64751,0,0,0,386,184,286,314,229,367,460,158,282,270,138,530,0,,,
1,1790113531872,-3512,7221,5800,-4138001,-259006,-778242,0,0,0,250,205,172,281,193,311,317,126,183,216,121,287,0,,,
2,1790113531872,464,-344,10184,339641,50090,-72082,0,0,0,393,188,284,310,245,372,451,149,291,246,120,534,0,,,
1,1790113531888,-3388,5805,7446,-4976108,-756251,-674395,0,0,0,256,190,178,291,188,318,310,120,183,215,115,292,0,,,
2,1790113531888,416,-382,10308,393397,68416,-72082,0,0,0,392,192,236,305,250,371,446,149,300,230,116,541,0,,,
1,1790113531904,-2301,4714,8652,-5331631,-1066570,-434936,0,0,0,256,190,180,289,187,318,312,120,184,216,114,293,0,,,
2,1790113531904,454,-435,10303,460592,102625,-67195,0,0,0,402,186,225,326,249,381,425,131,281,227,102,548,0,,,
1,1790113531920,-1397,4393,10002,-5632177,-1049466,-183259,0,0,0,253,192,176,282,185,314,309,116,180,219,116,291,0,,,
2,1790113531920,497,-512,10303,511905,149051,-68416,0,0,0,418,205,185,327,266,379,394,136,287,223,77,559,0,,,
1,1790113531936,-1450,4101,11562,-6023131,-1087340,68416,0,0,0,258,193,179,290,190,319,309,117,182,217,115,293,0,,,
2,1790113531936,536,-598,10289,544891,217468,-75747,0,0,0,429,254,149,339,284,379,397,150,273,215,107,565,0,,,
1,1790113531952,-1354,3632,13438,-6383541,-1446528,416610,0,0,0,261,189,183,304,196,325,268,101,158,219,115,293,0,,,
2,1790113531952,660,-679,10308,559552,251676,-84299,0,0,0,431,216,141,341,273,380,374,134,275,215,106,578,0,,,
1,1790113531968,-358,3096,15577,-6619335,-1882686,763581,0,0,0,261,189,183,304,199,325,210,78,124,225,119,294,0,,,
2,1790113531968,665,-727,10433,577878,223576,-94073,0,0,0,440,205,138,440,272,345,373,137,279,211,87,593,0,,,
1,1790113531984,942,2531,17942,-6740287,-2147802,989601,0,0,0,262,191,191,303,195,327,304,114,176,216,115,291,0,,,
2,1790113531984,617,-794,10428,608421,162490,-91629,0,0,0,456,191,136,372,273,379,374,138,295,201,79,575,0,,,
1,1790113532000,1201,1832,20363,-6813590,-2244318,1054353,0,0,0,269,193,210,302,188,330,258,86,152,219,109,294,0,,,
2,1790113532000,679,-923,10251,640186,113620,-81855,0,0,0,455,203,140,348,287,407,341,115,270,200,92,595,0,,,
1,1790113532016,995,1014,23230,-6842912,-2414139,1069014,0,0,0,256,186,194,295,182,328,326,111,184,220,108,294,0,,,
2,1790113532016,813,-1043,10208,669508,105068,-87964,0,0,0,446,201,135,359,295,402,337,120,258,224,101,619,0,,,
1,1790113532032,1421,-224,27212,-6818477,-2713463,948062,0,0,0,256,186,203,314,191,338,312,103,179,225,109,297,0,,,
2,1790113532032,904,-1129,10318,717155,120951,-113620,0,0,0,454,205,146,344,292,392,339,132,265,226,89,631,0,,,
1,1790113532048,3058,-2794,31552,-6868568,-3079982,601091,0,0,0,254,190,195,300,190,332,244,76,137,233,111,297,0,,,
2,1790113532048,961,-1239,10514,813672,139277,-144164,0,0,0,469,214,153,328,283,384,334,132,275,210,74,634,0,,,
1,1790113532064,5585,-7633,34697,-7130019,-3384193,92851,0,0,0,255,194,188,305,194,329,326,119,188,215,110,288,0,,,
2,1790113532064,871,-1340,10643,949284,155159,-172263,0,0,0,480,216,150,346,290,383,342,133,277,217,76,643,0,,,
1,1790113532080,8150,-15113,34979,-7437895,-3144734,-359188,0,0,0,250,195,181,297,193,325,348,131,201,213,110,287,0,,,
2,1790113532080,847,-1459,10729,1105666,161268,-185703,0,0,0,486,215,142,356,287,379,343,135,269,230,94,649,0,,,
1,1790113532096,5154,-25388,31126,-7128797,-1773952,-693942,0,0,0,246,207,181,286,184,320,348,133,206,210,108,288,0,,,
2,1790113532096,1095,-1608,11093,1271821,156381,-202807,0,0,0,490,220,136,343,280,375,327,134,255,228,102,651,0,,,
1,1790113532112,-4058,-36970,21665,-5473352,-1374446,-120951,0,0,0,243,206,182,286,190,323,345,128,204,215,111,294,0,,,
2,1790113532112,1134,-1694,11873,1488067,141720,-235793,0,0,0,504,240,141,336,287,379,319,135,251,232,97,663,0,,,
1,1790113532128,1569,-45044,14362,-3569896,-3011565,1121548,0,0,0,243,201,182,289,196,325,344,126,203,220,115,296,0,,,
2,1790113532128,741,-1703,12754,1832595,101403,-229685,0,0,0,529,272,151,324,275,378,310,137,252,243,107,679,0,,,
1,1790113532144,28207,-47130,11605,-1595580,-3717725,1477072,0,0,0,241,199,180,295,199,324,338,130,190,241,139,286,0,,,
2,1790113532144,727,-1794,13424,2211332,52534,-186924,0,0,0,527,269,153,324,257,377,291,135,237,242,112,683,0,,,
1,1790113532160,31763,-42856,12333,287106,48869,-963945,0,0,0,230,201,163,298,210,317,342,199,173,280,222,261,0,,,
2,1790113532160,1545,-2062,13950,2704911,0,-195476,0,0,0,516,254,154,318,231,372,279,136,242,227,105,678,0,,,
1,1790113532176,7374,-26331,14256,2844188,3101973,-2750115,0,0,0,221,202,139,296,215,318,351,292,171,308,311,248,0,,,
2,1790113532176,1947,-2225,14587,3282789,-40317,-307876,0,0,0,508,258,168,307,232,351,254,120,239,220,101,641,0,,,
1,1790113532192,-10098,6570,11548,5894849,3554013,-1558928,0,0,0,233,197,144,315,206,343,350,290,165,346,338,277,0,,,
2,1790113532192,2244,-2211,15783,3902207,-97738,-422718,0,0,0,473,304,168,300,255,362,248,116,233,215,101,617,0,,,
1,1790113532208,-6570,8753,12423,6906442,3061656,-645073,0,0,0,236,198,149,318,193,348,415,363,186,379,390,284,0,,,
2,1790113532208,3613,-2383,16735,4660901,-218689,-626747,0,0,0,439,288,155,295,266,358,263,169,258,212,119,556,0,,,
1,1790113532224,2914,-5407,19023,6418971,1571145,-1287703,0,0,0,231,189,161,316,189,354,425,397,198,410,437,295,0,,,
2,1790113532224,4800,-2861,18195,5519778,-353080,-966388,0,0,0,431,280,149,295,234,351,196,109,226,196,98,524,0,,,
1,1790113532240,6020,-6111,25197,5404935,774577,-1297477,0,0,0,244,161,176,308,166,346,445,412,212,455,424,312,0,,,
2,1790113532240,4876,-4723,22718,6434854,-403171,-1281595,0,0,0,389,275,146,271,224,327,167,98,189,189,94,480,0,,,
1,1790113532256,2177,-1612,21234,3489262,896750,-219911,0,0,0,256,153,224,304,153,358,442,395,229,462,431,312,0,,,
2,1790113532256,4919,-6690,28815,7192327,-233350,-1456302,0,0,0,337,183,135,245,177,301,181,101,175,162,83,405,0,,,
1,1790113532272,-1684,86,12328,1285260,830776,276111,0,0,0,300,198,265,340,235,389,413,294,180,466,424,352,0,,,
2,1790113532272,4278,-5307,32548,7639480,-65973,-1631010,0,0,0,264,122,115,200,123,239,174,91,147,122,46,296,0,,,
1,1790113532288,-1000,-689,9064,152716,354301,-23212,0,0,0,329,223,290,365,231,428,438,351,244,473,416,378,0,,,
2,1790113532288,6355,-143,32395,8079303,-634078,-1946216,0,0,0,199,87,110,166,85,195,181,102,141,106,45,187,0,,,
1,1790113532304,-57,-775,9858,56199,129503,-129503,0,0,0,353,254,316,371,232,427,429,309,220,478,407,406,0,,,
2,1790113532304,11055,7614,27571,8229576,-917519,-2313957,0,0,0,173,76,111,158,70,186,184,103,142,102,53,152,0,,,
1,1790113532320,-239,-311,10634,215024,117286,-28099,0,0,0,375,282,330,386,248,442,406,242,182,482,401,432,0,,,
2,1790113532320,12270,14658,15386,6834360,-63529,-2719572,0,0,0,176,69,108,170,64,183,197,103,141,112,54,155,0,,,
1,1790113532336,-540,-86,10399,217468,92851,21991,0,0,0,411,290,317,400,262,444,405,237,187,479,374,452,0,,,
2,1790113532336,8609,17109,8413,3521027,839328,-2522873,0,0,0,183,66,105,183,58,176,216,96,134,128,57,156,0,,,
1,1790113532352,-536,-114,10088,167377,28099,8552,0,0,0,430,298,327,398,272,444,407,240,203,468,341,461,0,,,
2,1790113532352,3038,15381,9289,-1116661,685390,-1373225,0,0,0,184,76,106,183,62,178,222,98,140,128,58,154,0,,,
1,1790113532368,-421,-162,10193,199142,-47647,0,0,0,0,433,307,345,392,277,446,428,265,249,442,310,466,0,,,
2,1790113532368,2550,10954,10270,-3247359,-515570,-270002,0,0,0,185,80,109,182,70,182,224,115,147,128,57,154,0,,,
1,1790113532384,-416,-167,10265,257785,-106290,17104,0,0,0,441,313,347,392,279,445,458,294,298,416,280,473,0,,,
2,1790113532384,4359,7068,7662,-3815464,-1350012,410501,0,0,0,186,75,111,178,63,182,219,105,137,134,59,161,0,,,
1,1790113532400,-425,-186,10236,299323,-169820,31764,0,0,0,452,324,345,394,293,440,464,269,297,404,253,480,0,,,
2,1790113532400,5350,6652,4340,-3577226,-962723,426383,0,0,0,182,73,110,173,55,181,228,108,144,133,69,158,0,,,
1,1790113532416,-430,-234,10193,318871,-229685,35430,0,0,0,466,327,326,408,305,441,467,248,307,395,230,484,0,,,
2,1790113532416,4197,7092,4647,-4238183,-62308,425162,0,0,0,186,74,115,174,60,181,210,101,134,120,57,141,0,,,
1,1790113532432,-473,-291,10189,339641,-280998,39095,0,0,0,473,309,315,413,274,443,472,219,304,390,204,490,0,,,
2,1790113532432,2727,6518,6757,-5095837,576656,536339,0,0,0,186,72,113,183,62,184,227,113,149,131,49,156,0,,,
1,1790113532448,-550,-349,10222,371406,-311541,48869,0,0,0,465,316,292,413,276,443,433,166,260,381,192,480,0,,,
2,1790113532448,1885,5446,8399,-5546656,764803,679282,0,0,0,191,79,123,180,62,187,216,111,141,127,42,152,0,,,
1,1790113532464,-641,-425,10222,419053,-315206,64751,0,0,0,462,343,288,415,290,443,459,193,301,364,189,485,0,,,
2,1790113532464,1478,4632,9648,-5819102,800233,821002,0,0,0,187,80,115,180,64,184,209,87,137,129,56,166,0,,,
1,1790113532480,-655,-507,10107,444709,-279776,75747,0,0,0,459,352,281,439,312,454,406,133,239,376,185,471,0,,,
2,1790113532480,1593,4206,10954,-6024352,827111,940732,0,0,0,184,78,115,177,72,189,219,108,141,124,54,168,0,,,
1,1790113532496,-626,-598,9978,412944,-206472,75747,0,0,0,469,345,261,430,304,449,425,133,263,361,179,480,0,,,
2,1790113532496,1909,4053,12816,-6316346,1036027,999375,0,0,0,181,74,115,178,62,188,213,103,139,118,57,156,0,,,
1,1790113532512,-579,-655,9940,351858,-146607,69638,0,0,0,479,335,244,429,310,448,456,147,292,350,164,494,0,,,
2,1790113532512,2100,3823,15017,-6675535,1346346,1004262,0,0,0,182,76,117,173,62,186,212,100,147,117,60,157,0,,,
1,1790113532528,-631,-698,10050,299323,-118507,54977,0,0,0,475,343,228,430,327,450,456,140,287,341,167,501,0,,,
2,1790113532528,1895,3053,17410,-6949202,1634675,967610,0,0,0,176,77,119,172,62,189,206,99,141,113,43,162,0,,,
1,1790113532544,-737,-732,10260,295658,-125838,59864,0,0,0,466,369,229,427,349,455,391,118,256,394,175,475,0,,,
2,1790113532544,1483,2086,20244,-7066489,1798387,960280,0,0,0,171,77,117,171,63,192,211,101,147,117,37,164,0,,,
1,1790113532560,-827,-751,10476,356745,-149051,87964,0,0,0,465,369,234,435,358,460,369,106,244,390,179,469,0,,,
2,1790113532560,1220,1493,23369,-7108027,1782504,1055575,0,0,0,169,78,118,172,64,195,211,101,148,126,53,165,0,,,
1,1790113532576,-851,-789,10605,449596,-152716,128281,0,0,0,472,357,224,439,349,453,382,107,250,351,172,489,0,,,
2,1790113532576,871,0,27073,-7275404,1802052,1323134,0,0,0,167,80,120,175,65,197,209,99,149,128,60,174,0,,,
1,1790113532592,-847,-861,10648,544891,-125838,161268,0,0,0,486,362,209,442,344,453,370,103,243,342,161,504,0,,,
2,1790113532592,-76,-3594,31002,-7459886,1938886,1644449,0,0,0,167,82,120,177,66,196,219,104,155,127,48,179,0,,,
1,1790113532608,-832,-952,10653,656069,-87964,190589,0,0,0,498,375,212,460,355,474,347,92,225,340,159,506,0,,,
2,1790113532608,-2033,-9595,34108,-7490429,1761735,1808161,0,0,0,168,80,119,177,63,197,227,111,154,124,43,172,0,,,
1,1790113532624,-670,-1057,10528,757472,-80634,206472,0,0,0,495,373,224,465,359,473,335,88,221,345,165,508,0,,,
2,1790113532624,-1995,-16788,34974,-7318165,803898,1813048,0,0,0,165,78,118,176,64,200,227,110,157,118,49,170,0,,,
1,1790113532640,-540,-1182,10442,841772,-98960,190589,0,0,0,503,370,229,474,350,479,325,89,217,346,157,519,0,,,
2,1790113532640,4297,-26901,30887,-6703635,-624304,1554041,0,0,0,167,79,123,182,66,203,233,113,157,114,33,170,0,,,
1,1790113532656,-703,-1258,10983,932180,-107512,173485,0,0,0,515,398,211,481,389,472,322,97,213,354,176,538,0,,,
2,1790113532656,10830,-41382,20363,-5329188,21991,427605,0,0,0,166,83,129,182,65,207,220,92,146,122,43,181,0,,,
1,1790113532672,-1014,-1325,12103,1138652,-83077,186924,0,0,0,524,372,220,466,359,471,326,89,209,361,169,552,0,,,
2,1790113532672,1435,-52955,13725,-3391523,2390926,-1213178,0,0,0,174,85,124,188,65,205,238,102,157,152,88,194,0,,,
1,1790113532688,-765,-1383,12983,1488067,-59864,201585,0,0,0,537,385,225,465,388,469,374,126,261,362,187,566,0,,,
2,1790113532688,-21861,-53352,15797,-1108109,2318844,-1331686,0,0,0,163,90,110,190,84,204,249,161,151,163,133,178,0,,,
1,1790113532704,-354,-1416,13941,1958433,-83077,164933,0,0,0,531,367,224,450,372,471,313,101,222,345,173,556,0,,,
2,1790113532704,-23474,-42541,19674,1302364,-543670,-139277,0,0,0,160,81,94,187,84,202,298,258,161,205,191,162,0,,,
1,1790113532720,-1048,-1450,15013,2508212,-117286,133168,0,0,0,525,364,213,448,347,470,298,96,217,337,161,557,0,,,
2,1790113532720,1244,-8293,15831,4977329,-3363424,553443,0,0,0,175,87,99,200,89,233,339,316,192,264,279,214,0,,,
1,1790113532736,-2110,-1411,16300,3254689,-96516,226020,0,0,0,521,351,212,441,351,454,289,96,212,331,160,545,0,,,
2,1790113532736,9030,7810,10854,7021285,-3573561,-169820,0,0,0,181,108,104,201,110,251,347,401,192,321,405,257,0,,,
1,1790113532752,-2890,-1306,17386,4029267,7330,428827,0,0,0,495,354,203,436,358,460,257,89,212,319,167,518,0,,,
2,1790113532752,3512,-287,15836,7005402,-2196671,285884,0,0,0,191,106,116,196,89,243,362,411,198,317,423,270,0,,,
1,1790113532768,-4235,-1263,18669,5026199,183259,812450,0,0,0,466,351,186,429,363,462,249,89,224,301,158,486,0,,,
2,1790113532768,-4221,-7068,24910,5935166,-676838,1279151,0,0,0,209,99,134,196,78,238,393,417,189,350,442,261,0,,,
1,1790113532784,-4517,-1416,21785,6123313,477696,1241278,0,0,0,441,335,182,408,355,452,264,97,228,286,147,461,0,,,
2,1790113532784,-4111,-3527,23689,4078136,-755029,658512,0,0,0,227,99,153,202,67,238,439,390,196,382,440,258,0,,,
1,1790113532800,-4335,-2775,26015,7160562,873537,1445307,0,0,0,411,316,187,376,324,421,225,81,188,269,140,439,0,,,
2,1790113532800,603,263,14132,1740965,-943175,-226020,0,0,0,245,99,190,211,65,246,466,375,206,412,458,280,0,,,
1,1790113532816,-3685,-3804,29925,8026769,1111774,1554041,0,0,0,367,286,181,335,282,364,177,62,141,241,126,414,0,,,
2,1790113532816,1306,205,9399,651182,-582765,-98960,0,0,0,260,106,208,220,78,253,482,391,207,420,450,301,0,,,
1,1790113532832,-4503,-2469,32562,8548448,1712866,1651779,0,0,0,299,242,177,284,231,333,320,128,205,217,119,370,0,,,
2,1790113532832,416,-526,9289,226020,-241902,86742,0,0,0,269,113,249,235,104,276,506,399,219,443,426,333,0,,,
1,1790113532848,-8332,1478,31232,8869763,2492330,1800830,0,0,0,244,195,175,279,191,313,332,126,196,209,109,272,0,,,
2,1790113532848,-52,-402,10686,229685,-139277,84299,0,0,0,291,121,301,246,128,294,519,378,235,451,401,359,0,,,
1,1790113532864,-12677,10050,22632,8615643,2563190,2030516,0,0,0,254,190,183,284,189,315,318,112,185,215,112,282,0,,,
2,1790113532864,358,148,10366,234572,-163711,6108,0,0,0,322,135,292,249,134,293,519,340,234,439,363,372,0,,,
1,1790113532880,-11304,14285,13424,6704856,1649336,1965764,0,0,0,239,187,180,280,187,309,350,134,211,210,110,280,0,,,
2,1790113532880,502,258,9959,216246,-145385,-8552,0,0,0,338,139,256,253,132,292,531,295,231,451,321,399,0,,,
1,1790113532896,-7652,15190,9255,3127630,703716,1211956,0,0,0,248,188,175,293,190,311,328,125,191,208,110,280,0,,,
2,1790113532896,392,148,10016,206472,-75747,6108,0,0,0,350,142,258,262,143,294,545,262,245,427,281,417,0,,,
1,1790113532912,-5068,13074,9528,-828333,200363,-240680,0,0,0,243,182,167,287,188,312,294,103,160,213,110,273,0,,,
2,1790113532912,363,119,10169,221133,0,0,0,0,0,358,141,263,281,160,313,531,223,238,383,235,437,0,,,
1,1790113532928,-4742,9719,8714,-2957809,13439,-1470963,0,0,0,248,187,170,298,192,316,89,26,103,207,109,272,0,,,
2,1790113532928,421,100,10165,239459,45204,-18325,0,0,0,360,139,300,292,170,326,519,194,240,343,185,460,0,,,
1,1790113532944,-5436,7441,5939,-3127630,-117286,-1953547,0,0,0,250,189,172,301,192,320,40,2,33,216,112,276,0,,,
2,1790113532944,478,43,10064,243124,47647,-34208,0,0,0,379,150,258,298,189,326,492,176,244,316,150,485,0,,,
1,1790113532960,-4876,7422,5020,-3528357,-386066,-1784948,0,0,0,252,190,172,304,192,324,36,2,11,220,113,280,0,,,
2,1790113532960,526,0,10040,249233,35430,-46425,0,0,0,376,154,279,303,200,343,456,171,264,278,148,487,0,,,
1,1790113532976,-3933,7140,6432,-4603480,-659734,-1486845,0,0,0,250,189,171,303,193,324,224,85,120,210,109,277,0,,,
2,1790113532976,559,-28,10122,272445,21991,-64751,0,0,0,408,150,269,301,200,335,440,163,256,274,132,507,0,,,
1,1790113532992,-3077,5675,9174,-5782450,-801455,-1119105,0,0,0,244,185,169,293,189,321,350,137,195,208,106,272,0,,,
2,1790113532992,478,-57,10179,310319,25656,-70860,0,0,0,398,158,270,308,195,341,437,148,257,258,93,523,0,,,
1,1790113533008,-2316,3977,10806,-6250373,-703716,-744033,0,0,0,245,185,170,292,188,322,342,131,191,209,105,271,0,,,
2,1790113533008,397,-100,10212,357967,52534,-61086,0,0,0,418,164,243,313,205,352,409,135,258,241,99,533,0,,,
1,1790113533024,-1698,2914,11921,-6442184,-498466,-414166,0,0,0,252,189,175,304,192,331,250,95,140,207,107,274,0,,,
2,1790113533024,449,-177,10275,420275,122173,-45204,0,0,0,423,171,240,307,213,348,420,126,261,230,98,548,0,,,
1,1790113533040,-1976,2426,13041,-6554584,-465479,-240680,0,0,0,245,183,180,304,194,333,129,46,69,213,110,279,0,,,
2,1790113533040,536,-258,10270,482583,206472,-40317,0,0,0,427,181,220,298,219,345,412,127,265,242,99,571,0,,,
1,1790113533056,-2311,1995,14371,-6646213,-714712,-124616,0,0,0,235,177,188,304,194,332,324,124,181,206,106,277,0,,,
2,1790113533056,631,-344,10150,520457,255341,-41538,0,0,0,436,186,188,310,224,350,406,131,276,238,95,573,0,,,
1,1790113533072,-1818,1569,16362,-6725626,-1165530,-58643,0,0,0,252,190,179,305,196,332,326,123,182,205,105,276,0,,,
2,1790113533072,780,-435,10107,526565,233350,-54977,0,0,0,441,180,165,323,239,355,398,122,271,238,95,575,0,,,
1,1790113533088,-1105,1024,18406,-6789156,-1409876,-69638,0,0,0,251,192,176,300,200,332,317,120,177,204,106,276,0,,,
2,1790113533088,851,-516,10179,537561,210137,-83077,0,0,0,442,176,148,330,242,360,385,114,263,230,84,579,0,,,
1,1790113533104,-938,315,20574,-6789156,-1523497,-123394,0,0,0,243,190,178,290,192,334,333,128,190,205,106,286,0,,,
2,1790113533104,856,-588,10289,575435,206472,-114842,0,0,0,449,176,136,336,234,364,373,120,261,224,75,585,0,,,
1,1790113533120,-1229,-473,23579,-6714630,-1695761,-127059,0,0,0,251,193,183,310,201,338,353,133,199,203,101,276,0,,,
2,1790113533120,928,-665,10361,641408,207694,-140499,0,0,0,454,175,133,338,240,372,367,123,258,234,93,597,0,,,
1,1790113533136,-1124,-1928,26877,-6693861,-1926668,-95294,0,0,0,241,191,176,291,194,331,355,136,201,200,100,279,0,,,
2,1790113533136,1028,-770,10452,719599,201585,-169820,0,0,0,458,181,132,343,246,385,366,124,265,226,104,606,0,,,
1,1790113533152,-191,-5364,30097,-6849021,-2265088,-96516,0,0,0,240,189,179,289,191,331,348,133,200,200,100,278,0,,,
2,1790113533152,1067,-880,10528,817337,196698,-204028,0,0,0,473,193,136,351,250,389,369,132,275,223,96,620,0,,,
1,1790113533168,2340,-12031,32237,-7211875,-2756223,-147829,0,0,0,245,191,181,300,195,337,292,104,166,203,104,279,0,,,
2,1790113533168,1005,-990,10619,941954,202807,-232128,0,0,0,481,202,138,356,259,402,370,128,272,232,90,640,0,,,
1,1790113533184,5685,-18918,32227,-7305948,-2846632,-271224,0,0,0,240,190,178,293,193,335,326,119,187,203,106,279,0,,,
2,1790113533184,1105,-1124,10835,1083674,194255,-251676,0,0,0,477,210,138,351,272,391,369,142,271,230,87,650,0,,,
1,1790113533200,3584,-27724,27370,-6486167,-1569923,-481361,0,0,0,235,195,177,288,193,334,348,129,199,204,105,281,0,,,
2,1790113533200,1306,-1206,11634,1254717,122173,-285884,0,0,0,483,226,143,340,258,377,392,189,297,235,100,660,0,,,
1,1790113533216,-2713,-37085,19736,-5044525,-830776,-183259,0,0,0,240,199,182,292,192,335,308,109,175,206,105,283,0,,,
2,1790113533216,1330,-1263,12581,1527163,23212,-326202,0,0,0,520,240,152,340,257,399,335,141,272,222,98,656,0,,,
1,1790113533232,1957,-43325,13850,-3191160,-2103819,919963,0,0,0,244,200,181,300,194,338,286,98,151,220,115,284,0,,,
2,1790113533232,698,-1292,13184,1914451,-9773,-321315,0,0,0,508,251,157,332,251,399,337,144,285,228,107,667,0,,,
1,1790113533248,18138,-44479,12323,-1425759,-2587625,1386664,0,0,0,234,199,167,300,206,328,291,131,142,255,172,273,0,,,
2,1790113533248,559,-1416,13807,2335948,10995,-257785,0,0,0,522,248,150,321,242,388,306,124,261,237,101,675,0,,,
1,1790113533264,25637,-40334,13553,493579,-162490,218689,0,0,0,221,205,149,292,215,310,263,192,130,297,272,255,0,,,
2,1790113533264,1306,-1617,14601,2883283,81855,-223576,0,0,0,511,288,158,315,236,377,308,139,251,238,111,675,0,,,
1,1790113533280,8174,-16726,8786,4091575,3279124,-745255,0,0,0,235,217,149,302,214,332,300,242,140,334,317,271,0,,,
2,1790113533280,1579,-1660,15271,3445279,101403,-285884,0,0,0,498,307,166,308,244,368,280,127,247,230,103,649,0,,,
1,1790113533296,-3402,5604,8992,6684087,5011538,-465479,0,0,0,242,230,152,314,227,356,356,314,181,357,358,287,0,,,
2,1790113533296,2096,-1746,15568,4080579,70860,-378736,0,0,0,468,292,157,304,271,371,262,120,251,211,90,628,0,,,
1,1790113533312,-2345,3637,16223,6706078,3835011,-359188,0,0,0,258,232,152,326,227,356,393,370,191,376,387,302,0,,,
2,1790113533312,2569,-1866,16037,4814839,19547,-553443,0,0,0,433,287,147,304,272,372,233,122,248,191,90,576,0,,,
1,1790113533328,3397,-4522,22995,5546656,1141096,-927293,0,0,0,250,196,153,310,195,353,415,402,191,424,410,306,0,,,
2,1790113533328,3239,-2349,17860,5549099,-47647,-735481,0,0,0,417,281,138,305,264,369,192,110,213,172,85,517,0,,,
1,1790113533344,4029,-3536,23196,4582711,301767,-513126,0,0,0,254,179,190,313,187,353,436,405,210,451,416,322,0,,,
2,1790113533344,4517,-4225,22057,6407976,-130725,-927293,0,0,0,393,268,137,281,233,336,180,105,196,163,77,462,0,,,
1,1790113533360,114,-1220,16372,2731789,568104,202807,0,0,0,292,219,197,330,217,369,455,415,240,466,416,349,0,,,
2,1790113533360,5058,-5814,26331,6932098,-35430,-1106887,0,0,0,349,208,136,245,184,297,185,108,184,157,74,401,0,,,
1,1790113533376,-1459,-770,10725,712268,492357,259006,0,0,0,336,232,222,356,228,389,460,407,246,477,430,383,0,,,
2,1790113533376,5130,-4972,29662,7332826,-153938,-1397659,0,0,0,287,132,122,204,131,248,185,103,161,137,62,306,0,,,
1,1790113533392,-674,-894,9456,-113620,243124,10995,0,0,0,345,240,231,380,249,405,435,348,212,481,430,402,0,,,
2,1790113533392,7590,-1718,30356,7744549,-675616,-1791056,0,0,0,221,89,106,176,86,202,188,96,140,112,45,199,0,,,
1,1790113533408,-148,-492,10404,81855,111177,-41538,0,0,0,345,245,241,386,252,414,444,361,232,483,423,413,0,,,
2,1790113533408,12175,5297,26120,7915591,-641408,-2277305,0,0,0,185,73,104,176,64,198,198,95,134,111,48,159,0,,,
1,1790113533424,-349,-110,10576,218689,34208,-2443,0,0,0,354,251,266,387,245,413,448,366,237,485,418,424,0,,,
2,1790113533424,13184,12916,16668,7043276,206472,-2780658,0,0,0,191,82,111,175,64,188,199,102,145,121,60,167,0,,,
1,1790113533440,-617,4,10193,169820,-18325,15882,0,0,0,366,263,289,390,248,413,428,324,209,485,409,434,0,,,
2,1790113533440,8767,16271,9624,4317595,1071457,-2647489,0,0,0,193,80,103,182,63,181,212,101,137,126,58,157,0,,,
1,1790113533456,-564,-57,10074,123394,-51312,1221,0,0,0,374,274,310,394,254,422,424,305,218,481,385,439,0,,,
2,1790113533456,2546,14936,10533,-64751,483805,-1067792,0,0,0,193,72,97,181,59,180,211,94,140,128,60,163,0,,,
1,1790113533472,-488,-105,10174,152716,-87964,0,0,0,0,373,275,338,401,253,433,425,291,231,476,352,439,0,,,
2,1790113533472,1804,10533,11203,-2780658,-1056796,571769,0,0,0,191,83,109,179,66,180,204,100,132,130,57,167,0,,,
1,1790113533488,-521,-105,10212,180816,-131946,10995,0,0,0,369,275,326,397,259,443,441,292,256,471,324,445,0,,,
2,1790113533488,5206,7202,7413,-2928487,-1543045,1086118,0,0,0,188,82,114,179,65,186,208,104,134,125,49,167,0,,,
1,1790113533504,-555,-110,10165,177150,-167377,19547,0,0,0,376,281,332,390,260,434,447,288,266,458,292,451,0,,,
2,1790113533504,6211,6680,4254,-2929709,-915076,1018923,0,0,0,186,83,109,170,69,177,194,80,131,126,33,170,0,,,
1,1790113533520,-569,-134,10136,175929,-184481,20769,0,0,0,361,276,326,389,258,442,451,244,254,489,281,457,0,,,
2,1790113533520,4125,7351,4647,-3815464,-87964,847880,0,0,0,191,81,111,170,65,181,201,95,132,122,42,160,0,,,
1,1790113533536,-574,-167,10136,180816,-191811,23212,0,0,0,375,289,318,417,276,435,422,225,247,421,261,467,0,,,
2,1790113533536,2426,6800,6786,-4987103,138055,778242,0,0,0,193,84,108,174,68,186,204,98,136,125,52,167,0,,,
1,1790113533552,-583,-186,10131,179594,-199142,29321,0,0,0,368,305,275,395,303,442,458,241,283,377,244,479,0,,,
2,1790113533552,2359,5039,8490,-5751907,4886,669508,0,0,0,192,84,113,172,65,185,198,98,138,127,53,163,0,,,
1,1790113533568,-636,-181,10131,166155,-210137,37873,0,0,0,374,299,273,398,270,433,452,194,252,375,220,482,0,,,
2,1790113533568,2718,3756,9021,-5889962,36651,453262,0,0,0,188,88,117,172,72,187,186,89,136,142,65,163,0,,,
1,1790113533584,-727,-205,10117,160046,-208915,54977,0,0,0,399,303,288,413,282,456,455,202,283,363,203,483,0,,,
2,1790113533584,2751,3196,9739,-5968153,123394,267558,0,0,0,181,83,114,168,70,186,190,96,138,122,57,160,0,,,
1,1790113533600,-765,-272,10074,166155,-179594,72082,0,0,0,424,316,279,431,289,449,405,151,239,366,194,473,0,,,
2,1790113533600,2928,3187,11007,-6157521,239459,185703,0,0,0,179,79,114,163,62,184,196,102,142,110,49,163,0,,,
1,1790113533616,-765,-339,10035,175929,-144164,87964,0,0,0,436,317,287,442,291,454,400,142,259,378,189,465,0,,,
2,1790113533616,3689,2952,12730,-6448293,552222,207694,0,0,0,180,80,115,163,62,185,196,100,143,115,53,166,0,,,
1,1790113533632,-698,-368,10074,180816,-119729,98960,0,0,0,436,315,265,444,302,460,430,150,299,372,180,473,0,,,
2,1790113533632,4178,2282,14788,-6652322,1071457,268780,0,0,0,182,77,113,167,61,187,198,106,145,116,59,168,0,,,
1,1790113533648,-641,-363,10208,194255,-141720,94073,0,0,0,432,326,234,443,306,458,440,133,299,357,167,485,0,,,
2,1790113533648,3900,1497,16903,-6662096,1508837,397062,0,0,0,183,72,112,169,61,190,198,110,145,111,55,171,0,,,
1,1790113533664,-708,-358,10390,243124,-194255,90408,0,0,0,430,340,224,443,317,455,442,147,308,380,170,484,0,,,
2,1790113533664,3388,732,19751,-6596122,1700648,692721,0,0,0,174,71,114,164,67,193,195,100,140,94,32,156,0,,,
1,1790113533680,-842,-392,10591,344527,-240680,111177,0,0,0,438,342,214,447,356,457,452,164,327,392,179,487,0,,,
2,1790113533680,3239,-114,22952,-6582683,1743409,1091005,0,0,0,172,79,117,168,70,193,200,105,143,97,38,160,0,,,
1,1790113533696,-914,-464,10681,496022,-254119,146607,0,0,0,452,344,214,454,370,472,452,128,319,348,168,504,0,,,
2,1790113533696,3067,-2153,26178,-6687752,1881464,1569923,0,0,0,178,75,112,185,77,193,219,98,147,134,67,179,0,,,
1,1790113533712,-952,-559,10638,640186,-248011,178372,0,0,0,459,346,190,457,362,480,471,137,345,351,160,507,0,,,
2,1790113533712,2297,-5833,29145,-6790377,2171015,1998751,0,0,0,171,75,112,173,59,190,224,94,148,126,50,161,0,,,
1,1790113533728,-1048,-693,10691,781907,-256563,211359,0,0,0,469,345,179,470,373,498,483,150,358,343,157,520,0,,,
2,1790113533728,172,-11777,31519,-6740287,2280970,2241875,0,0,0,176,81,121,182,66,199,229,110,157,143,65,173,0,,,
1,1790113533744,-957,-832,10658,907745,-256563,240680,0,0,0,500,343,189,475,371,497,469,139,345,356,161,526,0,,,
2,1790113533744,-1359,-17884,32098,-6482501,1637118,2305405,0,0,0,162,82,117,166,64,200,208,101,152,115,59,175,0,,,
1,1790113533760,-708,-933,10638,984714,-208915,221133,0,0,0,501,372,175,479,340,537,457,131,339,346,147,555,0,,,
2,1790113533760,598,-26058,28504,-5848423,210137,2212553,0,0,0,158,84,121,170,72,209,262,138,197,134,86,185,0,,,
1,1790113533776,-894,-1009,11203,1084896,-142942,188146,0,0,0,509,354,182,483,345,520,445,132,319,350,163,557,0,,,
2,1790113533776,5876,-39482,19081,-4758640,-145385,1298699,0,0,0,160,88,125,167,71,213,216,111,171,113,53,189,0,,,
1,1790113533792,-1387,-1081,12337,1335351,-78190,215024,0,0,0,517,368,201,495,373,509,380,98,260,363,162,556,0,,,
2,1790113533792,2402,-51595,12687,-3321885,1093448,-444709,0,0,0,160,80,126,167,70,214,201,105,156,115,71,189,0,,,
1,1790113533808,-1311,-1172,13294,1684766,-53756,270002,0,0,0,521,352,214,476,388,495,333,97,242,357,180,563,0,,,
2,1790113533808,-14826,-55012,13304,-1264491,1997529,-1969429,0,0,0,152,78,104,172,74,193,252,165,146,149,128,169,0,,,
1,1790113533824,-885,-1263,14328,2151467,-100181,287106,0,0,0,527,334,220,469,357,485,266,76,208,355,181,571,0,,,
2,1790113533824,-21981,-42052,19487,1269377,-227241,-1639562,0,0,0,153,84,97,173,84,207,290,260,166,194,214,185,0,,,
1,1790113533840,-1411,-1253,15534,2745228,-153938,291993,0,0,0,531,338,228,456,338,472,290,84,230,344,167,565,0,,,
2,1790113533840,-2536,-2459,14740,5046968,-4288273,-553443,0,0,0,165,97,102,186,100,238,313,336,186,235,306,219,0,,,
1,1790113533856,-2048,-1129,16664,3453832,-139277,376292,0,0,0,514,348,230,449,334,457,302,94,242,348,166,547,0,,,
2,1790113533856,5575,6862,11375,6236934,-5121494,-80634,0,0,0,176,104,108,197,107,253,325,366,183,267,364,246,0,,,
1,1790113533872,-2876,-990,17563,4283387,-17104,548556,0,0,0,491,359,216,437,344,451,281,97,239,341,169,520,0,,,
2,1790113533872,3709,320,14615,6346889,-3075095,924849,0,0,0,189,101,116,199,96,253,346,376,178,302,389,258,0,,,
1,1790113533888,-4024,-914,19014,5244888,174707,853989,0,0,0,467,371,197,416,356,453,281,105,251,309,161,488,0,,,
2,1790113533888,-5532,-6264,22708,5830097,68416,1912008,0,0,0,210,93,130,199,77,249,391,385,188,337,406,256,0,,,
1,1790113533904,-4580,-985,22072,6327342,566882,1199739,0,0,0,434,369,189,399,342,442,277,105,238,285,153,462,0,,,
2,1790113533904,-5273,-2818,21837,4527733,-6108,682947,0,0,0,224,88,147,198,63,247,439,382,204,362,411,269,0,,,
1,1790113533920,-4666,-2211,25867,7320609,1167974,1430646,0,0,0,410,346,185,363,318,395,220,84,169,261,143,440,0,,,
2,1790113533920,636,-727,15319,2447126,-662177,-388510,0,0,0,235,90,163,209,60,250,488,373,217,403,400,293,0,,,
1,1790113533936,-4522,-3670,29542,8119620,1450194,1544267,0,0,0,363,285,180,331,273,359,67,13,41,247,130,409,0,,,
2,1790113533936,2857,-813,9906,735481,-723264,-205250,0,0,0,265,111,181,224,75,263,534,382,214,446,404,313,0,,,
1,1790113533952,-5652,-2383,31868,8602204,1699427,1676214,0,0,0,304,244,200,300,244,323,291,111,179,210,108,387,0,,,
2,1790113533952,593,-871,9518,240680,-339641,172263,0,0,0,309,121,198,244,95,283,533,370,219,421,409,353,0,,,
1,1790113533968,-8686,2617,30212,8867319,2185675,1874134,0,0,0,268,198,186,297,186,314,351,133,203,212,108,277,0,,,
2,1790113533968,-440,-483,10284,217468,-140499,147829,0,0,0,319,129,199,245,111,289,545,367,236,439,403,382,0,,,
1,1790113533984,-11730,10978,22694,8520348,2375044,2105041,0,0,0,268,199,190,314,202,330,331,119,187,214,110,286,0,,,
2,1790113533984,201,-162,10423,260228,-149051,-10995,0,0,0,332,136,205,263,139,300,545,353,228,458,380,398,0,,,
1,1790113534000,-10547,14706,13936,6385985,1618792,2003637,0,0,0,264,198,180,300,195,314,222,77,124,215,115,278,0,,,
2,1790113534000,593,-196,10054,211359,-168598,-20769,0,0,0,347,140,229,284,144,298,537,296,233,446,356,408,0,,,
1,1790113534016,-7245,15218,10098,2770884,658512,1297477,0,0,0,263,196,175,295,193,302,190,62,104,220,116,279,0,,,
2,1790113534016,449,-253,10007,182037,-125838,9773,0,0,0,342,143,211,283,154,304,517,267,242,445,321,419,0,,,
1,1790113534032,-4714,12567,10078,-905302,133168,51312,0,0,0,265,194,174,299,192,303,173,55,93,222,115,278,0,,,
2,1790113534032,354,-229,10131,197920,-56199,0,0,0,0,337,152,211,277,169,309,507,264,260,397,293,434,0,,,
1,1790113534048,-4101,8729,8872,-2708576,-41538,-1016479,0,0,0,268,188,170,297,190,303,187,60,101,224,115,279,0,,,
2,1790113534048,382,-244,10141,218689,-13439,-21991,0,0,0,355,218,219,276,181,317,486,242,247,366,243,437,0,,,
1,1790113534064,-4144,6910,5776,-2550973,-174707,-1393994,0,0,0,265,194,173,300,191,308,178,56,95,220,110,283,0,,,
2,1790113534064,416,-287,10069,224798,-8552,-29321,0,0,0,363,184,228,274,175,322,468,214,261,332,211,458,0,,,
1,1790113534080,-3048,7441,4704,-3043330,-437379,-1348790,0,0,0,260,194,174,304,193,314,103,28,51,212,108,282,0,,,
2,1790113534080,454,-315,10050,218689,-14660,-26878,0,0,0,365,157,241,295,181,349,449,186,261,284,151,464,0,,,
1,1790113534096,-2316,7384,5747,-4194200,-638965,-1227839,0,0,0,258,190,174,304,194,314,179,60,95,208,109,278,0,,,
2,1790113534096,540,-349,10083,222354,-14660,-40317,0,0,0,372,182,235,298,193,353,427,164,254,260,111,465,0,,,
1,1790113534112,-2263,6010,7853,-5396383,-805120,-972497,0,0,0,255,196,174,303,196,315,285,102,159,211,111,280,0,,,
2,1790113534112,536,-402,10112,235793,-7330,-68416,0,0,0,376,186,215,297,205,359,419,170,260,250,112,481,0,,,
1,1790113534128,-1770,4484,9246,-5875301,-894306,-602313,0,0,0,255,203,177,302,196,320,226,78,129,212,114,286,0,,,
2,1790113534128,469,-449,10145,259006,-6108,-86742,0,0,0,381,171,203,307,220,379,413,170,263,223,114,498,0,,,
1,1790113534144,-928,3761,10294,-6124534,-807563,-282219,0,0,0,256,199,181,297,190,319,252,89,145,208,107,288,0,,,
2,1790113534144,464,-492,10150,296880,-15882,-90408,0,0,0,393,178,191,313,230,381,392,131,251,199,96,507,0,,,
1,1790113534160,-1028,3397,11643,-6365215,-664621,-86742,0,0,0,252,196,180,284,186,312,337,124,193,207,107,285,0,,,
2,1790113534160,435,-536,10131,338419,-21991,-83077,0,0,0,399,180,164,322,229,380,380,117,247,211,92,523,0,,,
1,1790113534176,-1722,2876,13476,-6612005,-758694,84299,0,0,0,261,196,193,282,182,312,359,134,203,205,106,284,0,,,
2,1790113534176,473,-588,10208,376292,-21991,-75747,0,0,0,417,181,153,314,236,377,369,128,253,205,92,534,0,,,
1,1790113534192,-2220,2249,15730,-6851464,-1116661,261450,0,0,0,260,197,193,281,181,311,345,125,192,206,103,283,0,,,
2,1790113534192,550,-646,10370,425162,12217,-89186,0,0,0,427,193,156,323,242,375,362,126,270,219,104,555,0,,,
1,1790113534208,-2215,1287,18286,-7051828,-1510058,406836,0,0,0,260,197,193,284,182,314,302,107,173,206,103,283,0,,,
2,1790113534208,531,-698,10519,493579,68416,-112399,0,0,0,435,201,155,339,248,389,373,136,264,216,99,559,0,,,
1,1790113534224,-2115,186,20981,-7110471,-1837482,465479,0,0,0,251,197,182,289,186,311,354,134,206,206,103,280,0,,,
2,1790113534224,545,-765,10504,575435,100181,-128281,0,0,0,443,214,157,331,247,391,373,137,267,210,93,561,0,,,
1,1790113534240,-1876,-598,24508,-7078706,-2047620,405614,0,0,0,262,198,188,307,193,316,245,82,139,212,104,280,0,,,
2,1790113534240,717,-866,10471,654847,72082,-147829,0,0,0,474,205,148,441,256,385,368,137,260,202,101,569,0,,,
1,1790113534256,-1502,-1919,28576,-7170336,-2229658,262672,0,0,0,257,196,184,296,189,314,322,115,185,208,101,278,0,,,
2,1790113534256,789,-966,10691,762359,30543,-188146,0,0,0,475,218,142,348,265,411,365,139,292,233,119,600,0,,,
1,1790113534272,-1005,-5484,31796,-7426899,-2619390,23212,0,0,0,249,191,180,294,189,315,355,126,205,207,100,279,0,,,
2,1790113534272,703,-1076,10906,916297,18325,-217468,0,0,0,485,253,146,322,276,400,360,133,279,205,99,610,0,,,
1,1790113534288,1057,-12849,34103,-7659028,-3439171,-259006,0,0,0,243,194,183,292,188,318,323,112,186,206,101,278,0,,,
2,1790113534288,512,-1206,10930,1102000,32986,-235793,0,0,0,493,265,152,339,307,412,369,144,296,207,125,618,0,,,
1,1790113534304,3799,-20775,34395,-7509977,-3491705,-549778,0,0,0,240,198,189,291,187,323,330,114,189,206,100,280,0,,,
2,1790113534304,421,-1306,11184,1260825,65973,-222354,0,0,0,512,270,161,333,293,408,355,137,279,226,113,632,0,,,
1,1790113534320,1493,-30619,28820,-6456845,-2295631,-719599,0,0,0,242,201,194,293,187,328,323,108,185,211,101,285,0,,,
2,1790113534320,607,-1383,12093,1478293,81855,-206472,0,0,0,532,261,156,328,291,400,334,130,258,238,99,655,0,,,
1,1790113534336,-1292,-41421,19894,-4808731,-2127032,-145385,0,0,0,247,202,197,301,189,334,302,99,176,214,104,292,0,,,
2,1790113534336,679,-1459,13022,1808161,78190,-202807,0,0,0,551,250,159,328,273,399,314,127,264,240,105,665,0,,,
1,1790113534352,8987,-49389,13371,-2941926,-3496592,1093448,0,0,0,247,200,195,308,194,335,339,119,198,220,110,288,0,,,
2,1790113534352,411,-1536,13658,2246762,86742,-186924,0,0,0,542,244,159,321,250,388,303,125,272,243,105,666,0,,,
1,1790113534368,26891,-50586,12931,-1045801,-2453234,839328,0,0,0,236,193,165,299,201,310,282,124,150,261,177,257,0,,,
2,1790113534368,641,-1665,14290,2724458,127059,-145385,0,0,0,521,236,148,328,254,375,303,131,280,233,93,654,0,,,
1,1790113534384,24847,-42268,15391,1270599,821002,-627969,0,0,0,214,192,137,296,218,306,231,191,111,322,309,243,0,,,
2,1790113534384,1560,-1866,14965,3325550,146607,-179594,0,0,0,506,263,150,332,258,368,288,135,276,211,87,630,0,,,
1,1790113534400,3292,-5680,12806,4588819,2878397,-1154535,0,0,0,219,191,131,306,200,328,380,331,181,344,336,266,0,,,
2,1790113534400,1981,-1966,15769,3953519,92851,-316428,0,0,0,484,299,152,317,262,365,252,127,244,209,88,621,0,,,
1,1790113534416,-7193,19320,10930,6880786,3831346,-598647,0,0,0,227,202,139,315,210,351,361,359,173,384,412,290,0,,,
2,1790113534416,3354,-2230,16783,4767192,-39095,-530231,0,0,0,450,263,139,320,281,370,221,124,229,214,94,598,0,,,
1,1790113534432,-2325,4297,15309,6805038,3887546,-371406,0,0,0,225,200,153,323,199,358,441,438,216,416,434,301,0,,,
2,1790113534432,5302,-2742,18353,5605299,-146607,-895528,0,0,0,409,242,133,303,283,358,200,115,227,198,92,541,0,,,
1,1790113534448,4450,-8825,23943,6046344,2590068,-775798,0,0,0,230,174,164,311,165,352,454,454,218,439,431,303,0,,,
2,1790113534448,4661,-3967,23421,6532592,-287106,-1308473,0,0,0,389,232,142,279,230,334,177,109,195,166,76,486,0,,,
1,1790113534464,4326,-4809,24240,4899139,1220508,-256563,0,0,0,255,166,190,316,174,348,447,425,211,459,429,314,0,,,
2,1790113534464,4355,-5388,28829,7239974,-476474,-1475850,0,0,0,317,216,118,230,195,277,182,109,174,156,72,404,0,,,
1,1790113534480,-583,-157,15022,2682920,596204,235793,0,0,0,277,192,220,318,198,366,452,422,244,468,427,344,0,,,
2,1790113534480,5431,-4809,31830,7628485,-500909,-1601688,0,0,0,248,198,118,186,158,232,181,120,154,130,72,298,0,,,
1,1790113534496,-1928,-296,9715,841772,368962,92851,0,0,0,313,235,237,344,238,381,437,370,220,471,425,375,0,,,
2,1790113534496,7733,-703,32189,7985230,-833220,-1977981,0,0,0,189,84,110,164,70,190,181,101,159,130,72,187,0,,,
1,1790113534512,-512,-1550,9528,20769,293215,-139277,0,0,0,345,270,247,363,257,391,430,338,209,474,410,401,0,,,
2,1790113534512,12017,7427,28303,8126951,-1156978,-2452013,0,0,0,176,76,112,157,63,188,183,108,146,119,77,173,0,,,
1,1790113534528,-148,-914,10524,157603,182037,-53756,0,0,0,358,294,261,368,261,404,451,355,251,477,381,425,0,,,
2,1790113534528,13261,15046,17248,6858794,-635299,-2828306,0,0,0,183,75,120,163,65,194,189,104,141,119,72,177,0,,,
1,1790113534544,-536,-291,10457,283441,94073,30543,0,0,0,387,310,281,374,275,419,468,353,283,474,358,454,0,,,
2,1790113534544,9552,18300,8982,3354871,248011,-2539977,0,0,0,184,78,117,163,62,185,195,107,142,131,67,174,0,,,
1,1790113534560,-665,-339,10136,234572,48869,21991,0,0,0,430,329,284,388,285,425,463,327,281,466,348,475,0,,,
2,1790113534560,4216,15965,9882,-968832,285884,-1319468,0,0,0,178,77,115,161,61,183,186,94,127,122,64,174,0,,,
1,1790113534576,-569,-478,10155,189368,-9773,6108,0,0,0,447,341,282,403,288,428,464,318,287,453,328,479,0,,,
2,1790113534576,3412,10385,10729,-3177720,-849102,-47647,0,0,0,176,76,114,162,64,188,184,95,134,113,67,178,0,,,
1,1790113534592,-507,-512,10284,213802,-92851,15882,0,0,0,449,320,316,398,289,447,474,309,320,438,288,485,0,,,
2,1790113534592,5087,7365,7446,-3198490,-1317025,444709,0,0,0,178,78,115,160,65,187,189,103,148,102,59,170,0,,,
1,1790113534608,-531,-492,10232,249233,-155159,30543,0,0,0,449,318,299,396,298,447,475,289,330,429,256,478,0,,,
2,1790113534608,5029,7705,4666,-3145955,-629191,560774,0,0,0,179,78,116,154,61,184,190,101,145,107,55,177,0,,,
1,1790113534624,-540,-512,10169,259006,-195476,30543,0,0,0,466,328,281,399,295,445,482,256,327,381,212,485,0,,,
2,1790113534624,3230,8356,5125,-3996280,164933,775798,0,0,0,175,75,114,153,64,187,183,98,135,125,68,196,0,,,
1,1790113534640,-574,-540,10169,257785,-226020,24434,0,0,0,467,338,337,420,298,463,411,169,284,380,210,471,0,,,
2,1790113534640,2053,7384,7408,-5083620,414166,1020144,0,0,0,173,75,114,156,69,191,183,104,134,116,65,187,0,,,
1,1790113534656,-732,-579,10222,265115,-238237,35430,0,0,0,460,348,319,430,305,457,421,186,301,387,203,463,0,,,
2,1790113534656,2306,5484,8705,-5584530,467922,1080009,0,0,0,175,78,118,154,65,190,194,114,148,109,56,188,0,,,
1,1790113534672,-861,-626,10208,285884,-215024,72082,0,0,0,468,362,298,420,322,450,419,147,276,365,187,471,0,,,
2,1790113534672,2469,4398,9633,-5773898,642630,1010371,0,0,0,178,84,121,156,66,190,175,95,130,131,80,197,0,,,
1,1790113534688,-804,-698,10155,309097,-156381,109955,0,0,0,477,358,267,424,326,449,441,149,297,360,171,481,0,,,
2,1790113534688,2139,4264,11227,-6025574,830776,916297,0,0,0,178,84,119,156,68,189,189,104,148,125,70,188,0,,,
1,1790113534704,-693,-765,10275,328645,-107512,120951,0,0,0,478,369,248,435,336,456,421,131,271,357,168,477,0,,,
2,1790113534704,2072,4063,13204,-6373767,941954,857654,0,0,0,179,87,119,153,65,189,191,106,148,101,38,174,0,,,
1,1790113534720,-607,-804,10547,387288,-108734,107512,0,0,0,473,378,233,441,342,449,369,106,221,361,168,471,0,,,
2,1790113534720,2574,3555,15525,-6765943,1103222,806342,0,0,0,172,82,119,160,64,196,182,89,141,123,74,192,0,,,
1,1790113534736,-603,-837,10806,481361,-127059,85521,0,0,0,471,380,224,441,343,445,333,92,209,357,165,474,0,,,
2,1790113534736,2871,2770,17784,-7016398,1408655,753807,0,0,0,143,60,107,149,58,189,192,112,159,126,61,193,0,,,
1,1790113534752,-775,-894,10964,618195,-130725,73303,0,0,0,474,372,218,440,343,451,349,99,238,346,160,482,0,,,
2,1790113534752,2723,1904,20440,-7138571,1696983,748920,0,0,0,158,79,115,154,65,193,198,116,151,99,24,184,0,,,
1,1790113534768,-1062,-985,10892,744033,-117286,112399,0,0,0,479,361,213,439,353,451,378,113,253,345,162,493,0,,,
2,1790113534768,2330,1081,23823,-7141014,1827708,879645,0,0,0,160,85,119,159,72,199,195,105,152,112,61,193,0,,,
1,1790113534784,-1134,-1115,10801,860098,-109955,180816,0,0,0,483,368,221,434,362,449,358,108,244,357,168,500,0,,,
2,1790113534784,1823,-402,27336,-7177666,1894903,1127657,0,0,0,157,83,120,160,72,204,195,105,157,120,66,191,0,,,
1,1790113534800,-1110,-1287,10701,967610,-108734,248011,0,0,0,483,369,230,432,335,458,347,106,244,359,168,500,0,,,
2,1790113534800,866,-4144,31184,-7301061,2002416,1497841,0,0,0,157,82,121,160,72,198,196,110,156,131,55,199,0,,,
1,1790113534816,-933,-1445,10533,1060462,-108734,300545,0,0,0,491,379,232,429,335,458,325,90,226,364,170,511,0,,,
2,1790113534816,-818,-10160,33888,-7393912,1987755,1659109,0,0,0,154,85,116,163,75,202,203,116,156,128,60,195,0,,,
1,1790113534832,-464,-1579,10251,1141096,-109955,310319,0,0,0,497,376,240,438,339,458,305,87,231,359,167,507,0,,,
2,1790113534832,-1947,-17697,35036,-7341378,1523497,1646892,0,0,0,154,83,117,166,69,207,215,112,157,120,58,181,0,,,
1,1790113534848,-143,-1665,10265,1194852,-101403,256563,0,0,0,509,384,232,444,349,457,337,101,244,357,177,523,0,,,
2,1790113534848,564,-27719,31916,-6822142,509461,1474628,0,0,0,157,81,119,172,65,207,225,118,159,116,47,174,0,,,
1,1790113534864,-641,-1761,11447,1328021,-65973,182037,0,0,0,514,375,244,443,380,459,293,86,208,357,176,536,0,,,
2,1790113534864,5345,-42976,21655,-5499008,483805,724486,0,0,0,164,86,121,181,67,208,232,115,158,120,47,179,0,,,
1,1790113534880,-1191,-1861,12940,1656666,-2443,201585,0,0,0,525,379,242,439,351,442,290,90,201,355,175,541,0,,,
2,1790113534880,-1081,-56788,13663,-3552792,1976759,-702495,0,0,0,165,86,120,186,70,206,247,114,154,139,70,178,0,,,
1,1790113534896,-890,-1914,14046,2139250,54977,241902,0,0,0,531,372,239,425,342,454,313,107,226,338,170,544,0,,,
2,1790113534896,-20674,-59726,13854,-1202182,2543642,-1437976,0,0,0,156,86,107,188,77,218,275,176,154,172,135,163,0,,,
1,1790113534912,-311,-1899,14802,2656042,67195,208915,0,0,0,533,390,228,412,349,437,322,124,240,331,171,545,0,,,
2,1790113534912,-21258,-42943,19296,1645670,-554665,-349414,0,0,0,155,88,103,183,79,240,304,261,164,217,233,174,0,,,
1,1790113534928,-1172,-1923,15711,3290120,78190,175929,0,0,0,517,379,239,414,348,434,254,94,195,325,169,542,0,,,
2,1790113534928,-1732,-7379,15228,4982216,-3279124,257785,0,0,0,166,89,119,184,84,245,323,329,187,249,321,224,0,,,
1,1790113534944,-2498,-1923,16692,3995058,142942,293215,0,0,0,501,389,237,415,345,452,210,73,180,321,169,513,0,,,
2,1790113534944,7293,7791,11562,7029837,-4326147,47647,0,0,0,176,102,118,199,101,269,362,395,198,288,408,244,0,,,
1,1790113534960,-4149,-1890,18262,4899139,331088,603534,0,0,0,474,380,210,419,374,473,212,86,195,313,176,480,0,,,
2,1790113534960,2517,-856,17554,7182553,-3573561,547335,0,0,0,197,105,125,224,77,262,453,399,194,367,418,260,0,,,
1,1790113534976,-6006,-2196,21105,5995031,753807,1125213,0,0,0,446,350,189,404,375,447,243,106,211,297,168,464,0,,,
2,1790113534976,-6446,-7963,27810,6136752,-1891238,1279151,0,0,0,224,98,141,234,71,246,454,423,201,381,418,259,0,,,
1,1790113534992,-6345,-3651,25541,7176444,1382998,1666440,0,0,0,422,322,185,369,330,397,275,118,211,283,146,445,0,,,
2,1790113534992,-4694,-3239,23192,3949854,-1122770,626747,0,0,0,240,96,155,234,79,254,493,404,201,399,454,291,0,,,
1,1790113535008,-5427,-5436,29815,7919256,1642005,1912008,0,0,0,381,294,187,330,279,360,297,127,204,260,128,418,0,,,
2,1790113535008,287,440,12017,1404990,-713490,-26878,0,0,0,268,107,184,244,103,270,537,382,222,411,420,333,0,,,
1,1790113535024,-4446,-4048,33433,8505687,1937664,2098932,0,0,0,309,254,196,300,237,332,323,132,207,225,119,365,0,,,
2,1790113535024,732,-157,8676,340862,-432492,-4886,0,0,0,290,139,204,249,132,277,541,355,233,431,409,375,0,,,
1,1790113535040,-7145,760,32691,8875871,2812423,2201558,0,0,0,248,213,200,295,207,318,323,125,196,217,114,278,0,,,
2,1790113535040,-105,-559,9614,155159,-254119,62308,0,0,0,310,166,231,259,161,304,553,329,252,420,371,407,0,,,
1,1790113535056,-11739,8150,23105,8321206,2904053,2240653,0,0,0,266,216,188,302,207,319,285,106,170,228,122,295,0,,,
2,1790113535056,-421,-215,10763,296880,-200363,50090,0,0,0,327,190,257,272,210,296,557,302,242,419,352,418,0,,,
1,1790113535072,-11036,11864,13586,6374989,1728748,2067167,0,0,0,268,215,194,294,206,320,326,125,199,206,117,289,0,,,
2,1790113535072,-81,95,10342,293215,-168598,4886,0,0,0,346,181,288,291,200,323,566,274,257,407,305,438,0,,,
1,1790113535088,-5604,11907,10873,2427578,544891,1130100,0,0,0,256,204,178,276,191,300,320,125,187,221,117,279,0,,,
2,1790113535088,52,81,9983,228463,-108734,-10995,0,0,0,362,202,305,289,243,341,546,251,257,381,263,455,0,,,
1,1790113535104,-3053,10212,10634,-1130100,334754,-183259,0,0,0,258,198,177,275,185,299,285,108,164,211,115,280,0,,,
2,1790113535104,-9,0,10122,218689,-31764,-18325,0,0,0,378,197,321,291,232,356,514,231,258,347,221,476,0,,,
1,1790113535120,-4020,7250,9150,-2927266,476474,-1401324,0,0,0,258,201,177,288,189,307,288,108,166,213,115,285,0,,,
2,1790113535120,-47,-33,10212,237015,24434,-35430,0,0,0,390,186,309,298,205,357,491,214,265,312,188,487,0,,,
1,1790113535136,-4680,6255,6058,-2811201,271224,-1751961,0,0,0,257,201,178,296,195,313,248,92,144,212,116,287,0,,,
2,1790113535136,-33,-43,10145,249233,51312,-52534,0,0,0,394,193,281,304,213,350,471,196,266,282,163,482,0,,,
1,1790113535152,-4292,6757,4393,-3033556,63529,-1596801,0,0,0,252,199,172,287,192,309,285,108,167,211,116,287,0,,,
2,1790113535152,-19,-47,10145,272445,57421,-62308,0,0,0,396,190,279,309,224,358,449,175,273,261,144,489,0,,,
1,1790113535168,-4082,6915,5197,-4169766,-188146,-1005484,0,0,0,255,200,180,288,191,313,312,121,186,209,114,287,0,,,
2,1790113535168,-33,-86,10251,342084,78190,-64751,0,0,0,388,178,267,310,235,359,427,157,278,248,136,505,0,,,
1,1790113535184,-3675,6015,6944,-5327966,-615752,-293215,0,0,0,257,200,184,288,190,316,296,114,180,209,114,287,0,,,
2,1790113535184,-28,-148,10370,454483,161268,-57421,0,0,0,387,160,200,310,217,340,411,148,272,238,102,503,0,,,
1,1790113535200,-2043,4848,8542,-5911953,-1073901,299323,0,0,0,253,199,180,279,184,315,298,114,182,210,114,288,0,,,
2,1790113535200,38,-224,10433,544891,288328,-53756,0,0,0,432,177,171,319,226,339,406,138,288,241,114,514,0,,,
1,1790113535216,-516,4326,9734,-6139195,-1324355,553443,0,0,0,252,199,182,276,182,318,325,127,199,208,112,293,0,,,
2,1790113535216,191,-344,10342,599869,410501,-57421,0,0,0,438,190,145,346,238,371,390,147,258,230,110,527,0,,,
1,1790113535232,440,4283,11399,-6367659,-1513724,488692,0,0,0,252,197,182,279,183,323,324,125,198,207,109,293,0,,,
2,1790113535232,330,-469,10193,601091,426383,-69638,0,0,0,436,205,149,334,257,356,389,141,277,225,105,542,0,,,
1,1790113535248,531,4067,13519,-6690196,-1773952,235793,0,0,0,253,198,185,278,183,322,328,127,203,208,113,295,0,,,
2,1790113535248,478,-588,10150,586430,373849,-87964,0,0,0,443,202,145,334,260,361,367,126,266,232,105,566,0,,,
1,1790113535264,559,3421,15596,-6908885,-2030516,2443,0,0,0,256,202,190,278,183,321,332,130,204,207,113,295,0,,,
2,1790113535264,583,-689,10236,577878,257785,-117286,0,0,0,458,226,164,331,288,360,365,140,259,232,120,571,0,,,
1,1790113535280,440,2464,17674,-6972415,-2239431,-152716,0,0,0,248,201,185,278,185,324,331,129,203,209,113,295,0,,,
2,1790113535280,607,-746,10375,596204,130725,-153938,0,0,0,456,217,144,333,283,357,350,125,258,228,109,562,0,,,
1,1790113535296,157,1608,20239,-6987076,-2361605,-114842,0,0,0,248,203,185,278,185,317,328,129,203,211,113,295,0,,,
2,1790113535296,626,-808,10538,647517,31764,-194255,0,0,0,479,205,131,332,259,352,354,137,262,241,117,580,0,,,
1,1790113535312,-14,914,23493,-7060380,-2430021,42760,0,0,0,249,204,185,281,184,318,320,123,195,210,111,292,0,,,
2,1790113535312,641,-899,10586,725707,6108,-224798,0,0,0,498,228,134,331,289,363,347,143,276,231,122,591,0,,,
1,1790113535328,421,-368,28011,-7232644,-2546086,207694,0,0,0,253,205,191,292,191,322,281,101,169,209,108,290,0,,,
2,1790113535328,607,-1005,10720,831998,2443,-256563,0,0,0,512,222,139,339,281,364,342,134,274,217,96,606,0,,,
1,1790113535344,1598,-3378,31983,-7461108,-2809980,189368,0,0,0,247,205,189,288,191,321,292,107,175,209,110,288,0,,,
2,1790113535344,536,-1095,10849,959058,15882,-278554,0,0,0,510,217,141,352,275,366,343,125,269,239,94,617,0,,,
1,1790113535360,4292,-9509,35151,-7670023,-3172834,-8552,0,0,0,245,206,189,283,187,320,304,112,182,210,111,291,0,,,
2,1790113535360,344,-1201,10801,1109331,31764,-279776,0,0,0,505,238,134,361,286,372,346,132,279,252,103,640,0,,,
1,1790113535376,6460,-19301,35381,-7533190,-2654820,-399505,0,0,0,242,206,186,286,190,323,311,114,185,208,108,294,0,,,
2,1790113535376,124,-1311,10892,1264491,41538,-252898,0,0,0,516,251,138,348,284,376,333,136,272,239,107,654,0,,,
1,1790113535392,1617,-29432,30590,-6767165,-1578475,-671951,0,0,0,240,209,184,294,196,328,323,119,188,209,109,291,0,,,
2,1790113535392,268,-1426,11739,1452637,39095,-205250,0,0,0,530,243,149,332,277,370,325,133,257,237,116,663,0,,,
1,1790113535408,-2651,-40894,21191,-5059185,-2296853,12217,0,0,0,243,214,188,298,200,330,320,118,186,213,113,289,0,,,
2,1790113535408,469,-1536,12720,1716531,13439,-177150,0,0,0,528,243,153,338,278,367,318,136,247,248,121,674,0,,,
1,1790113535424,10327,-48743,14950,-3092199,-3878994,1175304,0,0,0,247,213,192,297,199,327,311,114,184,214,114,293,0,,,
2,1790113535424,416,-1603,13582,2101376,-30543,-157603,0,0,0,522,252,157,332,264,369,293,138,234,240,111,665,0,,,
1,1790113535440,31428,-49877,13299,-1295034,-2872288,1056796,0,0,0,233,208,181,293,200,323,326,147,187,231,150,280,0,,,
2,1790113535440,368,-1631,14256,2581516,-79412,-119729,0,0,0,521,248,155,312,241,366,278,131,240,219,100,658,0,,,
1,1790113535456,25632,-43416,14266,624304,1045801,-724486,0,0,0,199,190,138,290,205,306,333,248,154,302,281,244,0,,,
2,1790113535456,961,-1794,14725,3133738,-131946,-112399,0,0,0,510,234,145,313,236,360,252,113,235,214,85,650,0,,,
1,1790113535472,1799,-16070,12811,3369532,3431840,-1397659,0,0,0,222,178,137,294,177,324,370,290,165,339,314,262,0,,,
2,1790113535472,1622,-1938,15405,3732386,-168598,-204028,0,0,0,506,239,153,309,237,345,233,112,235,224,98,612,0,,,
1,1790113535488,-8293,11696,9327,5672494,3889989,-345749,0,0,0,235,200,142,321,211,350,370,343,161,361,384,282,0,,,
2,1790113535488,3239,-2110,16697,4509407,-317649,-417831,0,0,0,462,247,141,332,243,347,203,115,224,211,89,568,0,,,
1,1790113535504,-4245,5742,12601,6373767,3004235,-262672,0,0,0,243,187,156,317,179,366,439,431,221,389,421,300,0,,,
2,1790113535504,5900,-2636,17994,5442809,-555887,-872315,0,0,0,422,295,133,298,267,341,178,105,221,179,83,525,0,,,
1,1790113535520,4264,-8906,21971,6133086,535117,-1382998,0,0,0,239,174,159,313,175,352,447,425,205,447,429,302,0,,,
2,1790113535520,6422,-4072,21349,6315124,-712268,-1386664,0,0,0,410,237,137,268,229,315,193,117,206,159,78,480,0,,,
1,1790113535536,4316,-4666,25336,5336518,21991,-680503,0,0,0,238,156,190,313,170,371,449,415,221,464,441,315,0,,,
2,1790113535536,6417,-6585,26350,6987076,-660956,-1786169,0,0,0,342,199,143,233,195,296,165,91,160,151,55,410,0,,,
1,1790113535552,-923,-268,17865,3412293,796568,326202,0,0,0,261,179,218,337,205,385,446,403,223,469,445,351,0,,,
2,1790113535552,5766,-6135,31131,7331604,-533896,-2122145,0,0,0,273,138,125,185,133,238,171,104,149,128,66,323,0,,,
1,1790113535568,-1856,-579,10949,1235169,780685,130725,0,0,0,289,216,237,354,226,399,443,373,231,475,421,383,0,,,
2,1790113535568,6618,-1612,32500,7624819,-1045801,-2481334,0,0,0,199,85,105,161,74,187,177,103,136,111,56,174,0,,,
1,1790113535584,-574,-1162,9380,147829,276111,-155159,0,0,0,319,249,240,373,235,408,454,370,240,478,390,416,0,,,
2,1790113535584,10911,5364,27623,7754323,-1814269,-2852740,0,0,0,176,70,108,154,62,181,179,102,135,96,53,151,0,,,
1,1790113535600,-181,-689,10375,186924,-19547,-113620,0,0,0,359,288,261,397,248,427,451,343,250,486,369,461,0,,,
2,1790113535600,13539,12208,16051,6873455,-1398881,-3182607,0,0,0,180,69,111,152,61,183,175,96,134,96,56,157,0,,,
1,1790113535616,-775,-138,10528,376292,-4886,35430,0,0,0,379,307,277,408,261,437,440,301,253,480,350,484,0,,,
2,1790113535616,9069,13606,9231,3690847,25656,-2819753,0,0,0,185,66,106,152,61,178,179,100,137,110,65,159,0,,,
1,1790113535632,-966,-162,10189,346971,10995,59864,0,0,0,393,314,275,420,274,435,445,281,258,463,320,487,0,,,
2,1790113535632,2761,12706,9964,-381179,428827,-1533271,0,0,0,185,68,102,153,62,176,182,105,134,118,60,158,0,,,
1,1790113535648,-765,-311,10184,295658,-81855,34208,0,0,0,420,325,271,438,287,446,452,262,271,444,280,493,0,,,
2,1790113535648,794,9322,11428,-2921157,-695164,83077,0,0,0,185,70,105,156,60,179,184,107,136,118,53,157,0,,,
1,1790113535664,-708,-344,10284,323758,-184481,34208,0,0,0,434,335,258,441,305,467,442,235,278,420,249,492,0,,,
2,1790113535664,3881,6288,7815,-3040887,-1654223,1082453,0,0,0,185,70,111,155,58,181,184,105,144,115,55,160,0,,,
1,1790113535680,-780,-363,10270,375071,-241902,48869,0,0,0,435,373,240,436,317,467,450,227,303,398,230,497,0,,,
2,1790113535680,6010,6025,4154,-2753780,-1417207,1412320,0,0,0,180,74,116,147,60,181,183,100,141,113,59,163,0,,,
1,1790113535696,-842,-425,10217,397062,-268780,52534,0,0,0,425,368,216,444,325,465,396,156,253,377,208,485,0,,,
2,1790113535696,5441,6872,3948,-3324328,-587652,1477072,0,0,0,175,77,116,148,67,182,188,105,139,117,64,168,0,,,
1,1790113535712,-928,-507,10193,409279,-263893,56199,0,0,0,436,376,197,452,371,464,417,156,282,384,196,480,0,,,
2,1790113535712,4536,6709,5302,-4203974,-48869,1506393,0,0,0,171,74,115,152,67,185,187,99,140,112,61,172,0,,,
1,1790113535728,-966,-579,10160,431270,-230907,70860,0,0,0,436,365,185,441,342,464,449,156,293,358,176,496,0,,,
2,1790113535728,4402,5489,6843,-4941899,235793,1375668,0,0,0,169,77,107,149,67,181,192,114,150,107,60,176,0,,,
1,1790113535744,-952,-655,10270,445931,-213802,83077,0,0,0,435,358,175,439,333,473,457,146,309,336,163,503,0,,,
2,1790113535744,4594,4412,8088,-5386609,579100,1116661,0,0,0,175,79,115,153,68,186,179,99,150,124,66,168,0,,,
1,1790113535760,-918,-713,10471,470366,-277332,80634,0,0,0,444,350,181,455,322,506,432,122,312,338,151,493,0,,,
2,1790113535760,4240,3890,9595,-5700594,977384,840550,0,0,0,169,80,109,152,73,186,182,96,136,137,69,174,0,,,
1,1790113535776,-890,-760,10519,509461,-379958,73303,0,0,0,441,339,184,462,322,504,409,100,269,336,152,503,0,,,
2,1790113535776,3551,3565,11615,-6067113,1226617,656069,0,0,0,176,96,116,155,72,187,189,113,149,98,46,156,0,,,
1,1790113535792,-904,-818,10385,532674,-463035,61086,0,0,0,443,318,186,462,315,509,376,85,244,334,148,507,0,,,
2,1790113535792,3321,3172,13577,-6392093,1409876,559552,0,0,0,181,101,120,153,72,188,186,120,147,111,47,175,0,,,
1,1790113535808,-971,-894,10203,533896,-478918,45204,0,0,0,437,327,182,462,324,493,409,100,271,333,147,511,0,,,
2,1790113535808,3479,2689,15568,-6602231,1696983,533896,0,0,0,173,86,118,154,69,190,189,110,140,104,63,176,0,,,
1,1790113535824,-1282,-990,9959,518013,-390953,41538,0,0,0,436,314,184,468,313,485,415,99,269,334,144,512,0,,,
2,1790113535824,3153,2072,18004,-6692639,2103819,569326,0,0,0,174,89,120,151,65,186,185,101,138,102,45,166,0,,,
1,1790113535840,-1531,-1086,9844,496022,-266337,79412,0,0,0,440,296,191,474,305,491,393,87,256,336,143,511,0,,,
2,1790113535840,2483,1521,20937,-6761056,2423913,687834,0,0,0,174,89,118,146,61,180,181,96,139,103,49,177,0,,,
1,1790113535856,-1550,-1153,9897,477696,-168598,144164,0,0,0,446,298,198,483,317,484,380,84,252,345,147,510,0,,,
2,1790113535856,1947,1081,24235,-6861238,2552194,891863,0,0,0,167,85,112,150,68,181,177,93,137,116,62,190,0,,,
1,1790113535872,-1454,-1220,10021,483805,-117286,208915,0,0,0,458,307,203,489,323,477,341,72,229,351,151,513,0,,,
2,1790113535872,1344,-593,27973,-7015176,2643824,1150870,0,0,0,156,86,112,150,64,182,183,102,144,119,71,197,0,,,
1,1790113535888,-1301,-1292,10155,520457,-120951,238237,0,0,0,473,310,199,471,316,500,296,55,213,340,155,523,0,,,
2,1790113535888,162,-4178,31327,-7076262,2823419,1317025,0,0,0,151,86,114,149,63,185,188,107,147,118,61,196,0,,,
1,1790113535904,-1076,-1383,10222,574213,-141720,246789,0,0,0,486,303,200,471,307,495,340,70,234,343,152,540,0,,,
2,1790113535904,-2622,-9456,33835,-6957755,2850297,1153313,0,0,0,149,81,110,149,66,188,196,108,147,119,56,198,0,,,
1,1790113535920,-861,-1493,10141,634078,-183259,211359,0,0,0,503,314,233,473,297,494,292,56,203,353,144,564,0,,,
2,1790113535920,-5513,-15041,34343,-6764721,2262644,835663,0,0,0,148,81,108,149,67,185,201,110,147,117,62,207,0,,,
1,1790113535936,-847,-1569,10217,684169,-218689,161268,0,0,0,517,330,242,483,313,493,277,48,191,365,154,559,0,,,
2,1790113535936,-3933,-22196,30724,-6363994,1037249,601091,0,0,0,151,87,115,154,71,190,187,104,141,117,57,201,0,,,
1,1790113535952,-1258,-1603,11002,784350,-230907,114842,0,0,0,527,345,257,498,320,496,308,52,216,386,148,562,0,,,
2,1790113535952,2603,-35974,21363,-5363396,697608,-83077,0,0,0,166,98,124,165,76,206,193,104,150,118,58,190,0,,,
1,1790113535968,-1823,-1636,12199,1038470,-183259,152716,0,0,0,525,334,228,485,309,502,333,78,263,378,161,573,0,,,
2,1790113535968,-823,-50830,13682,-3616322,2133141,-1665218,0,0,0,186,108,128,178,84,211,197,101,152,121,42,190,0,,,
1,1790113535984,-1770,-1703,13338,1455080,-119729,224798,0,0,0,531,349,236,467,343,507,281,75,242,372,185,583,0,,,
2,1790113535984,-18645,-52787,14630,-1492954,2475225,-2202780,0,0,0,155,82,114,163,73,196,184,83,144,120,49,185,0,,,
1,1790113536000,-1349,-1742,14501,1998751,-116064,235793,0,0,0,537,344,212,469,346,501,299,90,248,372,187,584,0,,,
2,1790113536000,-28451,-45096,17382,1000597,63529,-1049466,0,0,0,154,85,114,163,73,197,207,123,157,123,71,183,0,,,
1,1790113536016,-1560,-1718,15644,2654820,-145385,223576,0,0,0,535,325,215,464,335,492,277,87,258,371,175,584,0,,,
2,1790113536016,-13390,-30217,19052,2653598,-2890614,814894,0,0,0,148,74,79,174,75,177,301,233,156,190,187,138,0,,,
1,1790113536032,-2230,-1622,16214,3375641,-173485,278554,0,0,0,525,332,231,454,352,491,277,93,271,372,186,578,0,,,
2,1790113536032,7049,7647,19717,3982841,-3269350,1373225,0,0,0,148,90,95,174,81,224,318,258,188,189,219,190,0,,,
1,1790113536048,-2479,-1454,16549,4175874,-169820,438601,0,0,0,512,354,216,454,396,481,221,76,224,368,195,544,0,,,
2,1790113536048,11629,31993,11361,4983438,-3220481,1155757,0,0,0,156,93,104,189,95,236,340,322,198,235,309,209,0,,,
1,1790113536064,-2632,-1244,17798,5110498,-81855,618195,0,0,0,483,369,194,453,401,478,223,88,243,342,190,512,0,,,
2,1790113536064,885,5116,9830,5490456,-2763554,1220508,0,0,0,171,103,116,189,86,244,361,372,206,266,385,226,0,,,
1,1790113536080,-4570,-1469,19660,6086661,174707,839328,0,0,0,449,364,194,433,379,472,211,85,227,307,177,489,0,,,
2,1790113536080,-6106,-10878,18133,5617516,-1959655,1431868,0,0,0,197,95,128,202,76,236,453,393,194,363,410,239,0,,,
1,1790113536096,-5690,-3182,23172,7070154,643851,1209513,0,0,0,428,335,198,403,353,441,156,56,140,287,156,459,0,,,
2,1790113536096,-5384,-5618,25747,4607145,-1627344,852767,0,0,0,199,82,127,209,71,231,459,400,189,383,410,244,0,,,
1,1790113536112,-5460,-5302,27480,7795862,1044579,1402546,0,0,0,407,302,188,370,294,399,257,100,204,269,136,435,0,,,
2,1790113536112,-545,674,18473,2431243,-1298699,158824,0,0,0,205,79,139,206,61,227,462,400,196,383,392,241,0,,,
1,1790113536128,-5106,-4886,30830,8359079,1167974,1494176,0,0,0,358,284,184,314,252,348,286,108,201,240,123,400,0,,,
2,1790113536128,1229,1378,9643,823446,-682947,67195,0,0,0,219,86,156,211,58,227,495,390,193,399,392,236,0,,,
1,1790113536144,-6178,-933,31978,8934514,1378111,1679879,0,0,0,269,229,178,281,210,318,307,112,195,207,99,338,0,,,
2,1790113536144,397,-234,8308,624304,-410501,179594,0,0,0,236,95,185,219,61,231,525,389,189,409,407,246,0,,,
1,1790113536160,-10533,5541,26857,9090896,1507615,1935221,0,0,0,253,212,178,287,208,313,305,114,181,207,109,289,0,,,
2,1790113536160,90,-406,10299,629191,-432492,135612,0,0,0,260,102,217,222,65,238,548,387,194,414,402,268,0,,,
1,1790113536176,-11442,10193,17764,7714006,701273,2200336,0,0,0,253,208,179,291,206,315,272,100,163,207,109,286,0,,,
2,1790113536176,177,57,10758,389732,-359188,64751,0,0,0,276,109,237,225,74,250,566,373,198,414,375,284,0,,,
1,1790113536192,-7585,12457,12012,4658458,-4886,2081828,0,0,0,252,194,179,293,199,308,301,113,176,204,106,277,0,,,
2,1790113536192,272,224,10184,201585,-224798,26878,0,0,0,271,119,250,227,87,260,570,362,211,396,347,297,0,,,
1,1790113536208,-3464,12414,11777,329867,579100,962723,0,0,0,252,191,172,302,190,301,231,101,169,207,109,273,0,,,
2,1790113536208,301,215,10007,178372,-131946,10995,0,0,0,275,131,240,231,109,262,579,322,225,391,314,317,0,,,
1,1790113536224,-3646,10136,11639,-2877175,1441641,-208915,0,0,0,243,188,178,283,181,301,301,120,191,206,106,270,0,,,
2,1790113536224,330,234,10165,239459,-80634,0,0,0,0,282,135,278,243,122,278,561,276,218,385,266,348,0,,,
1,1790113536240,-6140,7657,8968,-3670078,1339016,-598647,0,0,0,244,184,193,283,180,307,330,124,195,206,106,275,0,,,
2,1790113536240,354,248,10236,290771,-39095,-15882,0,0,0,293,143,248,261,144,284,559,247,231,367,244,382,0,,,
1,1790113536256,-6269,7078,6307,-3854559,588874,-499687,0,0,0,249,187,183,292,183,303,238,83,137,216,108,278,0,,,
2,1790113536256,358,205,10193,332310,-20769,-29321,0,0,0,294,143,280,264,155,304,535,235,240,312,179,402,0,,,
1,1790113536272,-4374,7418,5905,-4527733,95294,-351858,0,0,0,247,190,172,294,186,301,158,49,88,217,110,276,0,,,
2,1790113536272,392,124,10189,376292,-17104,-42760,0,0,0,310,152,296,265,191,310,491,202,254,279,175,418,0,,,
1,1790113536288,-3627,6412,7676,-5703037,329867,-290771,0,0,0,244,190,173,292,186,301,151,46,86,212,111,272,0,,,
2,1790113536288,435,28,10203,439822,-29321,-61086,0,0,0,327,146,360,285,190,340,466,175,259,265,143,436,0,,,
1,1790113536304,-4388,4680,9356,-6477614,577878,-152716,0,0,0,242,187,173,289,185,299,203,70,117,209,111,272,0,,,
2,1790113536304,397,-67,10203,531452,-58643,-80634,0,0,0,365,159,303,294,195,330,462,151,250,271,129,458,0,,,
1,1790113536320,-5293,3177,10390,-6822142,421497,78190,0,0,0,241,187,169,288,187,298,278,104,160,207,112,276,0,,,
2,1790113536320,339,-153,10165,571769,-94073,-81855,0,0,0,376,171,269,310,217,336,448,139,249,255,103,464,0,,,
1,1790113536336,-5029,2493,11318,-6925990,-73303,196698,0,0,0,241,192,170,291,188,301,320,122,185,206,112,276,0,,,
2,1790113536336,291,-263,10098,566882,-130725,-75747,0,0,0,393,177,240,310,244,345,421,122,256,239,102,481,0,,,
1,1790113536352,-4680,2053,12725,-7012732,-475253,162490,0,0,0,244,189,176,295,184,306,337,128,195,206,112,279,0,,,
2,1790113536352,272,-349,10102,554665,-127059,-63529,0,0,0,393,183,225,311,240,349,410,130,269,227,104,497,0,,,
1,1790113536368,-4891,1507,14721,-7104362,-824668,14660,0,0,0,246,191,177,295,185,305,298,111,170,207,112,273,0,,,
2,1790113536368,263,-406,10227,577878,-85521,-53756,0,0,0,393,188,187,315,242,356,406,124,270,226,101,508,0,,,
1,1790113536384,-5388,521,16975,-7130019,-1325577,-130725,0,0,0,248,192,177,295,188,305,46,2,17,223,114,281,0,,,
2,1790113536384,315,-445,10442,643851,8552,-54977,0,0,0,401,191,145,326,264,365,391,118,266,223,109,522,0,,,
1,1790113536400,-5384,-569,19502,-7033502,-1896125,-232128,0,0,0,241,192,175,279,177,304,308,114,180,210,108,280,0,,,
2,1790113536400,392,-536,10557,708603,118507,-78190,0,0,0,412,197,127,335,278,368,384,131,266,218,103,538,0,,,
1,1790113536416,-5029,-1450,22608,-6895446,-2315179,-300545,0,0,0,238,194,175,277,183,303,318,120,187,205,108,276,0,,,
2,1790113536416,435,-646,10610,768468,189368,-101403,0,0,0,425,199,132,333,277,376,387,140,273,219,97,555,0,,,
1,1790113536432,-4670,-2589,26551,-6844134,-2521651,-372627,0,0,0,234,195,175,272,185,302,344,135,204,202,108,279,0,,,
2,1790113536432,516,-775,10677,849102,216246,-122173,0,0,0,430,201,138,330,278,384,379,129,272,226,107,569,0,,,
1,1790113536448,-3804,-5867,29849,-6963863,-2860071,-552222,0,0,0,231,196,176,275,190,305,338,132,202,202,108,279,0,,,
2,1790113536448,655,-904,10859,968832,206472,-149051,0,0,0,431,209,133,340,280,377,365,118,262,237,111,579,0,,,
1,1790113536464,-1512,-10945,32108,-7094588,-3475823,-825889,0,0,0,231,195,177,280,184,307,337,126,202,203,104,278,0,,,
2,1790113536464,717,-1038,10940,1112996,185703,-189368,0,0,0,454,228,132,352,287,375,365,128,261,246,114,600,0,,,
1,1790113536480,3383,-17712,33046,-7040832,-3791029,-1134987,0,0,0,230,195,178,281,183,311,345,126,206,199,100,276,0,,,
2,1790113536480,622,-1172,10993,1254717,162490,-215024,0,0,0,481,255,139,346,287,380,362,131,258,247,97,610,0,,,
1,1790113536496,6235,-24527,30878,-6515488,-2940705,-1414763,0,0,0,229,196,178,283,188,315,354,129,212,198,100,281,0,,,
2,1790113536496,760,-1306,11442,1411098,133168,-234572,0,0,0,476,245,137,338,302,366,358,130,251,238,107,621,0,,,
1,1790113536512,2230,-32883,23747,-5419596,-1561371,-1320690,0,0,0,229,197,178,287,192,316,348,127,208,201,101,282,0,,,
2,1790113536512,976,-1435,12280,1654223,87964,-273667,0,0,0,487,228,146,349,264,386,329,121,245,238,105,630,0,,,
1,1790113536528,86,-43378,15252,-4004832,-1954768,10995,0,0,0,229,199,180,288,195,318,337,122,201,200,101,279,0,,,
2,1790113536528,636,-1488,13031,2028072,63529,-306654,0,0,0,494,234,136,337,249,396,311,125,247,228,80,645,0,,,
1,1790113536544,11849,-50255,10969,-2246762,-2948035,1655444,0,0,0,229,199,181,287,194,320,342,125,206,200,102,279,0,,,
2,1790113536544,234,-1541,13883,2484999,64751,-271224,0,0,0,493,294,138,327,264,372,310,131,248,243,100,656,0,,,
1,1790113536560,27183,-48063,12108,-278554,-1707979,1600466,0,0,0,219,196,166,292,200,308,357,160,198,224,144,253,0,,,
2,1790113536560,1028,-1703,14668,2983465,57421,-246789,0,0,0,481,300,143,330,253,353,306,125,237,263,118,660,0,,,
1,1790113536576,19573,-36491,15060,1718974,1601688,-177150,0,0,0,201,198,131,296,216,288,381,252,180,287,257,210,0,,,
2,1790113536576,1823,-1847,15118,3580892,18325,-328645,0,0,0,463,301,148,327,257,358,298,125,235,243,116,640,0,,,
1,1790113536592,-2622,-4264,14859,3756821,3284011,-1415985,0,0,0,215,182,129,293,189,316,373,311,175,327,315,255,0,,,
2,1790113536592,1809,-1895,15419,4247956,-35430,-497244,0,0,0,438,295,145,328,284,373,291,158,256,232,114,622,0,,,
1,1790113536608,-9739,22474,7686,5522221,3094643,-1213178,0,0,0,216,195,138,313,205,343,367,341,169,366,389,274,0,,,
2,1790113536608,2550,-1990,16812,5024977,-80634,-652404,0,0,0,429,306,140,329,287,375,254,138,246,221,108,560,0,,,
1,1790113536624,-3996,5728,10375,6808703,1821600,-1633453,0,0,0,228,206,145,320,212,363,409,420,203,391,447,298,0,,,
2,1790113536624,4656,-2751,19191,5980370,-111177,-933402,0,0,0,421,293,131,319,270,353,223,110,217,212,102,514,0,,,
1,1790113536640,4862,-12964,21239,7446447,160046,-2423913,0,0,0,226,182,150,310,177,370,454,456,242,421,451,313,0,,,
2,1790113536640,5652,-4804,23038,6900333,-9773,-1257160,0,0,0,385,257,123,283,235,324,206,112,201,181,99,459,0,,,
1,1790113536656,6168,-6460,25785,6690196,647517,-1083674,0,0,0,226,166,191,319,159,371,450,422,224,471,471,347,0,,,
2,1790113536656,4924,-5814,28107,7429343,313984,-1475850,0,0,0,329,216,122,230,184,288,192,113,184,148,93,384,0,,,
1,1790113536672,-177,-837,20808,4414112,1601688,568104,0,0,0,241,163,208,319,156,380,461,429,252,481,467,364,0,,,
2,1790113536672,4216,-3594,32256,7801970,342084,-1744631,0,0,0,255,149,116,187,119,231,186,99,155,131,70,273,0,,,
1,1790113536688,-2335,-2086,12892,1693318,1216843,252898,0,0,0,282,198,235,343,189,395,444,399,235,483,453,395,0,,,
2,1790113536688,5948,335,33735,8250345,-238237,-2109928,0,0,0,200,83,106,179,74,187,201,95,134,129,48,170,0,,,
1,1790113536704,-880,-2397,9576,238237,516791,-215024,0,0,0,320,241,248,373,221,399,435,357,228,489,444,425,0,,,
2,1790113536704,10801,8451,27690,8335867,-445931,-2552194,0,0,0,196,76,109,193,66,186,230,109,129,140,53,157,0,,,
1,1790113536720,253,-1363,9964,65973,134390,-218689,0,0,0,336,295,270,386,256,416,444,345,255,494,426,448,0,,,
2,1790113536720,12155,16152,14070,6756169,345749,-2959031,0,0,0,188,77,106,185,59,182,214,100,128,129,53,157,0,,,
1,1790113536736,-483,-832,10476,278554,162490,1221,0,0,0,358,317,291,398,277,440,436,313,247,495,401,473,0,,,
2,1790113536736,7317,16625,9691,2873510,608421,-2489886,0,0,0,184,71,113,177,61,180,209,99,138,120,58,155,0,,,
1,1790113536752,-885,-890,10318,318871,158824,54977,0,0,0,401,297,293,411,267,455,417,257,215,493,376,490,0,,,
2,1790113536752,2579,13582,10897,-1704314,-367740,-1174082,0,0,0,185,78,118,171,57,181,207,100,129,115,58,158,0,,,
1,1790113536768,-727,-985,10174,288328,58643,12217,0,0,0,431,301,304,414,269,466,421,250,240,481,342,487,0,,,
2,1790113536768,3431,9188,10710,-3484375,-1750739,-31764,0,0,0,178,70,113,165,57,180,198,107,139,120,69,168,0,,,
1,1790113536784,-626,-981,10198,322536,-35430,15882,0,0,0,426,321,299,421,296,466,435,260,276,444,299,478,0,,,
2,1790113536784,6350,7269,6077,-3288898,-1753183,244346,0,0,0,189,81,119,166,64,175,206,105,140,116,51,164,0,,,
1,1790113536800,-593,-1014,10208,366519,-81855,46425,0,0,0,431,318,308,421,305,465,469,272,329,418,256,488,0,,,
2,1790113536800,6992,7226,3239,-3359758,-846659,190589,0,0,0,172,70,110,163,50,175,202,96,132,113,48,170,0,,,
1,1790113536816,-531,-1067,10184,373849,-117286,50090,0,0,0,435,348,286,419,293,458,463,239,316,393,222,487,0,,,
2,1790113536816,5063,7480,4532,-4335921,208915,177150,0,0,0,175,77,114,161,63,179,192,106,136,116,53,171,0,,,
1,1790113536832,-559,-1115,10179,356745,-150272,29321,0,0,0,447,351,278,436,315,480,422,168,274,384,201,483,0,,,
2,1790113536832,3330,6647,6786,-5297423,772133,267558,0,0,0,178,78,116,164,61,180,198,100,137,116,46,166,0,,,
1,1790113536848,-789,-1158,10227,361632,-134390,40317,0,0,0,447,338,288,430,313,465,406,137,267,368,186,475,0,,,
2,1790113536848,2388,5034,8533,-5758015,922406,376292,0,0,0,176,79,117,162,61,181,208,114,142,128,75,177,0,,,
1,1790113536864,-871,-1220,10270,409279,-51312,80634,0,0,0,458,351,250,428,331,453,421,128,268,352,171,482,0,,,
2,1790113536864,1923,4111,9662,-5854532,955393,475253,0,0,0,175,78,116,159,59,178,204,108,145,122,75,178,0,,,
1,1790113536880,-684,-1301,10289,472809,46425,102625,0,0,0,459,318,245,437,320,473,444,127,296,348,165,492,0,,,
2,1790113536880,1722,4010,10988,-5937610,1031140,626747,0,0,0,174,79,114,160,61,182,198,103,144,111,54,167,0,,,
1,1790113536896,-588,-1421,10366,514348,75747,84299,0,0,0,465,316,235,443,324,476,427,115,282,343,157,486,0,,,
2,1790113536896,1933,3991,12854,-6219829,1244943,829554,0,0,0,175,79,113,163,62,183,200,99,143,116,47,165,0,,,
1,1790113536912,-622,-1507,10351,544891,52534,68416,0,0,0,463,315,226,446,341,474,391,102,261,343,153,484,0,,,
2,1790113536912,2244,3670,14965,-6510601,1535715,1016479,0,0,0,173,76,114,167,63,184,203,97,139,109,49,164,0,,,
1,1790113536928,-650,-1569,10107,557109,17104,72082,0,0,0,458,319,215,444,335,468,343,106,246,343,148,489,0,,,
2,1790113536928,2273,3115,17209,-6721961,1822821,1167974,0,0,0,169,77,115,169,65,188,207,105,140,103,54,165,0,,,
1,1790113536944,-612,-1660,9873,520457,-1221,81855,0,0,0,456,322,213,448,326,466,351,109,248,340,149,493,0,,,
2,1790113536944,2081,2656,19502,-6899112,1979203,1304808,0,0,0,169,79,116,171,65,186,214,103,144,121,66,174,0,,,
1,1790113536960,-574,-1742,9978,481361,-26878,90408,0,0,0,461,331,216,453,332,470,398,112,273,335,155,494,0,,,
2,1790113536960,1919,1995,22904,-7138571,2100154,1501506,0,0,0,170,77,116,175,65,184,222,96,141,128,70,173,0,,,
1,1790113536976,-698,-1775,10289,494800,-70860,108734,0,0,0,470,344,206,445,335,472,405,117,287,328,152,501,0,,,
2,1790113536976,1651,492,26398,-7332826,2183232,1717753,0,0,0,169,75,113,179,65,186,233,106,144,133,62,175,0,,,
1,1790113536992,-823,-1818,10504,566882,-111177,151494,0,0,0,478,340,190,439,344,470,379,103,250,328,154,509,0,,,
2,1790113536992,961,-3335,30093,-7442782,2234545,1935221,0,0,0,166,79,114,174,57,184,234,106,146,135,59,180,0,,,
1,1790113537008,-732,-1899,10457,682947,-135612,200363,0,0,0,480,358,195,450,381,473,334,91,218,343,174,510,0,,,
2,1790113537008,196,-8906,33256,-7470881,2103819,1992642,0,0,0,157,81,112,169,65,192,225,105,150,130,63,176,0,,,
1,1790113537024,-421,-2024,10184,785572,-163711,221133,0,0,0,486,364,195,460,343,462,330,79,204,356,163,525,0,,,
2,1790113537024,808,-16223,33931,-7362147,1392772,1729970,0,0,0,163,88,115,165,65,193,230,104,158,125,64,177,0,,,
1,1790113537040,-186,-2153,10107,852767,-194255,185703,0,0,0,493,339,211,454,350,473,252,56,166,338,160,534,0,,,
2,1790113537040,4379,-25709,30777,-6855129,477696,1271821,0,0,0,166,84,122,177,66,208,237,105,163,131,77,194,0,,,
1,1790113537056,-574,-2206,11040,960280,-194255,146607,0,0,0,517,351,202,448,371,478,344,90,219,332,165,549,0,,,
2,1790113537056,8801,-38343,21885,-5562538,659734,460592,0,0,0,160,82,117,183,67,215,251,109,170,126,79,186,0,,,
1,1790113537072,-1119,-2234,12409,1222952,-155159,164933,0,0,0,520,354,213,458,361,465,359,98,248,358,166,565,0,,,
2,1790113537072,2847,-49557,15362,-3891211,2504547,-605978,0,0,0,164,86,122,175,63,216,243,119,176,125,76,190,0,,,
1,1790113537088,-1048,-2263,13409,1626123,-109955,224798,0,0,0,521,344,228,460,358,475,357,101,252,348,162,560,0,,,
2,1790113537088,-18793,-54922,16085,-1562593,3189938,-886976,0,0,0,162,90,120,180,71,216,237,124,165,134,79,192,0,,,
1,1790113537104,-646,-2306,14266,2166128,-135612,234572,0,0,0,526,344,222,453,356,477,331,92,232,349,166,559,0,,,
2,1790113537104,-22809,-47925,17683,712268,282219,377514,0,0,0,150,90,95,182,88,196,276,214,144,173,185,142,0,,,
1,1790113537120,-1067,-2297,15525,2860071,-224798,233350,0,0,0,520,360,230,439,360,474,311,93,234,344,176,550,0,,,
2,1790113537120,-4589,-25369,18817,2824640,-2448347,1404990,0,0,0,152,91,95,192,96,225,324,296,176,218,283,177,0,,,
1,1790113537136,-2440,-2167,16673,3699399,-295658,388510,0,0,0,510,354,221,435,350,472,309,100,249,331,168,547,0,,,
2,1790113537136,12457,14233,13577,5242445,-2742784,967610,0,0,0,174,102,110,220,101,254,378,362,203,268,357,234,0,,,
1,1790113537152,-3287,-1914,18166,4772079,-349414,723264,0,0,0,487,352,201,438,350,471,301,104,258,310,157,521,0,,,
2,1790113537152,8446,14491,10208,7451334,-2963918,474031,0,0,0,187,112,122,246,107,273,419,439,197,310,419,256,0,,,
1,1790113537168,-3010,-1588,22081,5966931,-230907,1016479,0,0,0,452,371,198,426,360,464,289,107,258,298,157,473,0,,,
2,1790113537168,-871,-6398,19224,8290663,-2752558,1094670,0,0,0,191,109,128,236,96,269,458,482,192,369,449,255,0,,,
1,1790113537184,-3929,-2402,26862,7341378,294437,1183856,0,0,0,428,349,194,398,331,431,300,117,250,292,145,447,0,,,
2,1790113537184,-7437,-12677,32198,7359704,-2373822,1612684,0,0,0,206,93,135,216,73,247,514,454,208,428,455,255,0,,,
1,1790113537200,-4972,-4795,32184,8343197,582765,1269377,0,0,0,393,275,179,357,280,372,299,116,209,256,120,418,0,,,
2,1790113537200,-4058,-4182,24733,4004832,-1743409,698829,0,0,0,233,90,161,228,70,254,547,429,213,431,448,278,0,,,
1,1790113537216,-3819,-4785,37841,9018814,855211,1417207,0,0,0,315,237,180,313,239,337,256,82,154,222,109,385,0,,,
2,1790113537216,784,938,10437,428827,-610865,-90408,0,0,0,273,114,200,249,90,279,551,421,209,428,404,330,0,,,
1,1790113537232,-5020,-186,39363,9429315,1710422,1518610,0,0,0,268,187,195,288,180,317,271,82,156,223,110,293,0,,,
2,1790113537232,914,-19,8155,2443,-186924,-18325,0,0,0,305,133,219,268,132,300,557,356,223,444,357,385,0,,,
1,1790113537248,-10835,9308,29308,8850215,2155132,1650557,0,0,0,270,192,201,294,198,313,335,124,196,225,120,297,0,,,
2,1790113537248,157,-866,9906,283441,-169820,84299,0,0,0,327,149,241,271,172,296,562,286,233,444,329,415,0,,,
1,1790113537264,-13515,16276,15171,6524040,1362229,1977981,0,0,0,273,186,177,290,186,302,320,116,185,221,110,281,0,,,
2,1790113537264,-47,-545,11103,432492,-270002,48869,0,0,0,362,164,314,285,174,325,572,261,250,447,292,439,0,,,
1,1790113537280,-8245,17444,8762,2149023,-92851,2040289,0,0,0,275,182,179,301,178,307,330,115,186,221,109,275,0,,,
