sole_id,timestamp,accel_x,accel_y,accel_z,gyro_x,gyro_y,gyro_z,magn_x,magn_y,magn_z,pressure_01,pressure_02,pressure_03,pressure_04,pressure_05,pressure_06,pressure_07,pressure_08,pressure_09,pressure_10,pressure_11,pressure_12,corrupt,asphalt,transition,grass,concrete
1,1789067395616,301,512,10614,563217,-419053,-28099,0,0,0,356,391,380,326,335,329,611,544,327,532,554,366,0,,,,
2,1789067395616,4469,26848,19870,4118453,428827,-1952325,0,0,0,296,201,161,223,142,203,247,129,189,175,183,147,0,,,,
1,1789067395632,196,918,10835,619417,-447153,-45204,0,0,0,363,392,372,339,329,339,607,520,343,518,518,382,0,,,,
2,1789067395632,981,27843,19138,-786794,-2052507,-262672,0,0,0,296,201,163,223,142,203,245,127,187,179,188,148,0,,,,
1,1789067395648,282,1258,10940,786794,-488692,-61086,0,0,0,369,392,370,353,331,349,597,483,338,516,478,392,0,,,,
2,1789067395648,4910,19315,13586,-3524692,-3981619,1053131,0,0,0,293,207,171,223,144,207,242,134,185,176,187,149,0,,,,
1,1789067395664,229,1186,10792,1009149,-591317,-58643,0,0,0,371,398,369,354,335,350,597,446,337,501,432,396,0,,,,
2,1789067395664,9078,13409,7073,-4084244,-3469714,933402,0,0,0,289,212,179,218,148,210,241,138,187,175,192,150,0,,,,
1,1789067395680,-119,947,10495,1128878,-636521,-41538,0,0,0,369,403,374,355,346,359,588,419,339,463,417,410,0,,,,
2,1789067395680,7221,12002,4977,-4026823,-1154535,-122173,0,0,0,286,230,183,216,162,212,241,140,186,173,200,150,0,,,,
1,1789067395696,-382,808,10260,1172861,-580321,-24434,0,0,0,383,406,363,360,352,359,584,387,338,437,399,425,0,,,,
2,1789067395696,2402,11265,7662,-4772079,-469144,-487470,0,0,0,283,259,186,227,176,222,245,144,191,173,198,150,0,,,,
1,1789067395712,-464,598,10050,1170417,-448375,-4886,0,0,0,384,409,337,359,355,359,576,363,342,414,373,440,0,,,,
2,1789067395712,2282,7700,9341,-5798332,-1036027,-394618,0,0,0,292,208,188,227,143,222,253,138,199,180,190,155,0,,,,
1,1789067395728,-459,162,9815,1130100,-333532,14660,0,0,0,376,416,315,357,362,364,563,340,348,395,351,457,0,,,,
2,1789067395728,4536,4130,9581,-6334672,-891863,-535117,0,0,0,290,206,191,240,150,225,249,131,189,183,190,156,0,,,,
1,1789067395744,-569,-157,9595,1040914,-241902,50090,0,0,0,390,428,304,371,372,367,557,304,349,395,332,475,0,,,,
2,1789067395744,4292,2502,10859,-6427524,-75747,-745255,0,0,0,290,203,189,227,142,220,249,129,188,183,188,154,0,,,,
1,1789067395760,-756,-229,9552,907745,-146607,125838,0,0,0,411,443,299,389,386,377,557,281,354,384,312,483,0,,,,
2,1789067395760,3426,1785,13093,-6466619,439822,-586430,0,0,0,298,203,190,230,140,221,255,134,195,185,187,157,0,,,,
1,1789067395776,-813,-282,9662,811229,-30543,217468,0,0,0,414,455,295,392,403,382,555,253,363,373,298,501,0,x,,,
2,1789067395776,3747,1655,15563,-6582683,604756,92851,0,0,0,308,202,188,234,136,220,255,134,192,188,187,154,0,x,,,
1,1789067395792,-708,-421,9892,768468,89186,305432,0,0,0,430,455,293,392,400,378,544,226,354,364,274,526,0,,,,
2,1789067395792,5178,1167,17573,-6889338,888198,1031140,0,0,0,308,202,185,237,137,220,252,132,190,186,188,154,0,,,,
1,1789067395808,-670,-536,10078,778242,150272,360410,0,0,0,451,469,312,420,409,395,553,208,361,352,253,537,0,,,,
2,1789067395808,6039,86,19416,-7126353,1266934,1803274,0,0,0,308,204,184,233,138,219,251,130,192,184,186,155,0,,,,
1,1789067395824,-574,-660,10256,812450,213802,414166,0,0,0,468,498,285,420,424,392,553,208,361,360,259,553,0,,,,
2,1789067395824,6235,-1153,21636,-7095810,1607797,2146580,0,0,0,304,203,184,232,140,220,248,126,191,182,185,156,0,,,,
1,1789067395840,-287,-751,10624,905302,288328,442266,0,0,0,482,508,259,445,441,405,551,200,363,350,234,564,0,,,,
2,1789067395840,5321,-3742,25556,-6908885,2096489,1854586,0,0,0,302,204,184,236,142,227,249,123,198,180,183,155,0,,,,
1,1789067395856,-110,-827,11160,1098335,326202,441044,0,0,0,492,506,227,455,451,418,543,192,364,333,218,574,0,,,,
2,1789067395856,3082,-7523,29471,-6866125,2340835,1198517,0,0,0,304,205,179,243,144,231,256,122,198,181,180,151,0,,,,
1,1789067395872,167,-1033,11720,1364672,229685,432492,0,0,0,495,521,214,453,478,416,530,195,360,327,221,572,0,,,,
2,1789067395872,248,-14773,31481,-6965085,1987755,508239,0,0,0,305,205,175,247,144,228,262,117,194,182,178,149,0,,,,
1,1789067395888,593,-1220,12328,1667662,85521,384845,0,0,0,510,516,207,452,477,418,519,196,373,322,212,569,0,,,,
2,1789067395888,-1225,-24532,29873,-6668204,1546710,70860,0,0,0,306,203,171,254,146,230,270,116,196,186,178,150,0,,,,
1,1789067395904,722,-1191,13151,2012190,-6108,293215,0,0,0,516,511,200,459,473,417,500,192,377,317,210,569,0,,,,
2,1789067395904,-2603,-35247,25431,-5535660,1174082,-310319,0,0,0,304,198,170,260,147,234,274,121,199,197,186,153,0,,,,
1,1789067395920,473,-1124,14166,2443460,-25656,210137,0,0,0,516,512,202,438,467,421,462,193,381,304,213,567,0,,,,
2,1789067395920,-3833,-43646,19052,-3870442,814894,-422718,0,0,0,297,197,162,259,145,228,274,135,196,214,214,151,0,,,,
1,1789067395936,-229,-1282,14903,3015230,-4886,184481,0,0,0,509,514,202,423,464,437,420,193,395,283,209,563,0,,,,
2,1789067395936,-4666,-51045,12366,-1750739,598647,-2443,0,0,0,278,184,138,254,138,218,283,206,188,224,272,136,0,,,,
1,1789067395952,-808,-1459,15553,3646865,-26878,257785,0,0,0,503,512,202,427,462,445,379,189,395,267,192,545,0,,,,
2,1789067395952,-6350,-54022,12361,383623,445931,734260,0,0,0,268,133,139,247,103,214,307,344,175,233,353,121,0,,,,
1,1789067395968,-1268,-1402,16855,4454429,-35430,395840,0,0,0,490,497,213,450,472,429,335,190,388,254,181,506,0,,,,
2,1789067395968,-8174,-34419,16860,3479488,-251676,1747074,0,0,0,268,122,128,250,95,209,333,445,163,266,445,112,0,,,,
1,1789067395984,-2196,-1507,19167,5329188,-2443,596204,0,0,0,459,475,225,454,475,414,299,191,388,235,175,464,0,,,,
2,1789067395984,-6609,-296,19081,5121494,-1148426,1723861,0,0,0,271,150,157,244,101,225,342,508,184,274,517,132,0,,,,
1,1789067396000,-4154,-2196,24144,6498384,95294,922406,0,0,0,418,460,222,403,442,420,281,182,376,212,151,435,0,,,,
2,1789067396000,-5259,8781,19411,5147150,-1071457,25656,0,0,0,286,156,182,251,107,238,415,519,186,310,557,120,0,,,,
1,1789067396016,-6518,-2373,29447,7595498,251676,1288925,0,0,0,369,422,189,382,407,385,294,188,349,205,155,404,0,,,,
2,1789067396016,-1737,277,20803,5071403,95294,-1263269,0,0,0,297,206,202,291,172,247,481,536,199,355,571,117,0,,,,
1,1789067396032,-7470,-1177,32935,8465370,142942,1720196,0,0,0,333,366,163,322,336,320,319,198,310,226,200,388,0,,,,
2,1789067396032,3728,-7083,21751,4141666,1182635,-1047023,0,0,0,285,175,217,278,111,267,506,550,217,361,545,138,0,,,,
1,1789067396048,-6585,2627,35123,9055466,-293215,2191784,0,0,0,304,262,203,219,183,248,368,242,288,249,268,350,0,,,,
2,1789067396048,4838,-4173,17803,2416582,752585,-262672,0,0,0,313,185,256,273,97,284,529,547,215,377,530,165,0,,,,
1,1789067396064,-8126,10031,30198,8965058,-228463,2630385,0,0,0,304,270,223,224,194,290,369,241,313,252,271,366,0,,,,
2,1789067396064,2747,-1201,12744,1230282,322536,54977,0,0,0,313,201,267,278,109,291,535,567,213,381,544,187,0,,,,
1,1789067396080,-11127,20210,18257,6961420,96516,3051882,0,0,0,316,283,215,232,208,256,354,231,284,257,253,350,0,,,,
2,1789067396080,976,315,9188,682947,331088,15882,0,0,0,313,204,275,276,129,300,557,560,230,379,548,196,0,,,,
1,1789067396096,-8911,22617,16563,1268156,-456927,2371378,0,0,0,320,276,208,232,206,251,371,231,283,258,256,356,0,,,,
2,1789067396096,2038,-95,9585,521678,395840,-50090,0,0,0,314,213,280,286,136,307,567,536,230,383,546,203,0,,,,
1,1789067396112,-4268,17898,15788,-3534466,-186924,746477,0,0,0,325,274,210,232,202,251,376,235,285,259,262,356,0,,,,
2,1789067396112,2699,-47,10490,382401,182037,-63529,0,0,0,312,212,284,285,122,306,570,525,238,385,517,203,0,,,,
1,1789067396128,-4848,11007,10208,-4279721,1088561,-923628,0,0,0,324,274,211,236,204,255,372,236,286,265,267,354,0,,,,
2,1789067396128,2258,550,10595,408057,-35430,-100181,0,0,0,310,203,283,286,122,310,565,504,247,380,473,207,0,,,,
1,1789067396144,-7441,8662,5920,-3527135,692721,-1727526,0,0,0,320,279,211,235,206,257,371,236,286,263,268,348,0,,,,
2,1789067396144,1770,794,10289,537561,-101403,-142942,0,0,0,306,200,284,290,136,318,541,470,249,369,435,216,0,,,,
1,1789067396160,-5460,8978,6408,-3571118,-1248608,-2069611,0,0,0,316,283,213,235,209,257,374,236,288,260,269,345,0,,,,
2,1789067396160,1660,684,9944,664621,-74525,-162490,0,0,0,298,218,283,286,149,318,516,441,252,358,406,219,0,,,,
1,1789067396176,406,7982,9719,-4585154,-2106263,-2557081,0,0,0,313,286,215,236,210,259,376,237,290,259,269,344,0,,,,
2,1789067396176,1799,626,9844,739146,-105068,-167377,0,0,0,293,243,271,289,170,318,503,406,257,348,378,220,0,,,,
1,1789067396192,1426,5503,11208,-5303532,-973719,-2784323,0,0,0,310,288,218,234,207,259,376,237,290,258,269,342,0,,,,
2,1789067396192,1794,545,9830,795346,-167377,-168598,0,0,0,298,225,282,292,165,324,487,377,258,323,353,220,0,,,,
1,1789067396208,86,3522,11677,-5693264,-477696,-2399478,0,0,0,308,289,219,230,205,258,377,239,291,258,270,341,0,,,,
2,1789067396208,1703,335,9638,819781,-205250,-171042,0,0,0,301,254,316,285,186,344,476,348,274,298,340,235,0,,,,
1,1789067396224,-57,1952,12892,-6037792,-834441,-1417207,0,0,0,308,291,222,233,209,262,378,238,293,259,270,342,0,,,,
2,1789067396224,1574,81,9365,790459,-222354,-167377,0,0,0,312,245,294,287,172,334,471,318,264,322,319,230,0,,,,
1,1789067396240,1871,1234,15147,-6396980,-940732,-654847,0,0,0,308,289,221,235,210,263,377,236,292,263,272,345,0,,,,
2,1789067396240,1478,-148,9164,709825,-217468,-161268,0,0,0,318,267,321,295,218,333,472,286,259,330,312,245,0,,,,
1,1789067396256,2493,636,16946,-6714630,-668286,-318871,0,0,0,307,286,216,236,210,263,381,240,294,264,271,344,0,,,,
2,1789067396256,1488,-306,9164,616973,-186924,-171042,0,0,0,336,272,297,306,218,362,475,279,275,354,314,254,0,,,,
1,1789067396272,1450,-119,17965,-6858794,-509461,-432492,0,0,0,307,288,216,241,216,264,386,239,295,264,274,344,0,,,,
2,1789067396272,1536,-488,9303,558330,-145385,-189368,0,0,0,342,296,295,309,230,375,459,233,279,306,289,269,0,,,,
1,1789067396288,248,-1148,19258,-6823364,-733038,-790459,0,0,0,304,288,221,233,209,264,385,235,292,263,271,340,0,,,,
2,1789067396288,1536,-574,9413,527787,-113620,-200363,0,0,0,363,320,294,331,246,388,459,197,291,298,283,281,0,,,,
1,1789067396304,-847,-2244,21344,-6747617,-976162,-1093448,0,0,0,304,288,218,239,210,266,387,235,291,266,273,341,0,,,,
2,1789067396304,1560,-536,9533,526565,-79412,-211359,0,0,0,373,329,293,352,251,376,474,174,284,303,246,292,0,,,,
1,1789067396320,-2421,-3723,24211,-6743952,-1160643,-949284,0,0,0,308,289,221,239,208,265,396,235,295,264,270,337,0,,,,
2,1789067396320,1655,-512,9662,555887,-31764,-238237,0,0,0,390,334,292,348,267,388,461,171,296,300,244,318,0,,,,
1,1789067396336,-3302,-7312,27073,-6816034,-1379333,-483805,0,0,0,304,292,220,243,212,269,398,234,296,264,267,337,0,,,,
2,1789067396336,1713,-622,9930,626747,40317,-295658,0,0,0,413,348,293,356,281,397,457,145,302,309,236,370,0,,,,
1,1789067396352,-1756,-14218,27484,-6752504,-1507615,-163711,0,0,0,302,298,220,248,216,273,401,234,296,265,263,332,0,,,,
2,1789067396352,1885,-741,10504,766025,63529,-355523,0,0,0,425,364,294,366,302,406,451,127,319,313,225,390,0,,,,
1,1789067396368,2636,-24206,25149,-6023131,-1588249,-322536,0,0,0,302,300,220,254,220,278,407,233,297,265,262,331,0,,,,
2,1789067396368,1957,-789,11060,965167,18325,-399505,0,0,0,435,376,284,382,336,441,448,121,362,321,220,392,0,,,,
1,1789067396384,6015,-32289,21837,-4830722,-1176526,-525344,0,0,0,306,301,221,258,219,282,411,232,299,268,262,332,0,,,,
2,1789067396384,1670,-871,11682,1287703,-63529,-417831,0,0,0,449,399,276,394,369,458,410,110,372,309,203,405,0,,,,
1,1789067396400,5001,-39013,16860,-3316998,-278554,-388510,0,0,0,307,304,224,260,220,286,413,230,302,271,265,337,0,,,,
2,1789067396400,1708,-928,12490,1648114,-90408,-395840,0,0,0,461,415,253,404,379,450,366,106,356,292,189,418,0,,,,
1,1789067396416,2301,-45206,11926,-1766622,193033,195476,0,0,0,309,303,225,261,218,286,412,229,301,273,265,333,0,,,,
2,1789067396416,2230,-1095,13606,2153910,-107512,-415388,0,0,0,481,434,229,417,386,454,330,110,346,285,189,431,0,,,,
1,1789067396432,631,-46867,8604,-194255,246789,427605,0,0,0,305,281,210,259,204,280,440,291,295,303,310,318,0,,,,
2,1789067396432,2273,-1038,14816,2842966,-222354,-491135,0,0,0,502,463,240,413,406,474,272,108,344,269,191,443,0,,,,
1,1789067396448,181,-39918,9801,1448972,-103847,-51312,0,0,0,292,253,179,258,194,276,481,400,290,346,393,296,0,,,,
2,1789067396448,2416,-880,15750,3670078,-388510,-547335,0,0,0,505,452,247,392,401,473,205,100,339,249,187,445,0,,,,
1,1789067396464,2014,-19526,16420,3099530,667064,-967610,0,0,0,285,255,160,260,206,279,498,469,288,369,454,272,0,,,,
2,1789067396464,3096,-1129,16152,4626693,-500909,-658512,0,0,0,504,449,235,397,407,460,166,92,330,246,181,430,0,,,,
1,1789067396480,3709,6173,16697,3784921,2802649,-1561371,0,0,0,291,273,171,271,215,282,522,513,290,408,493,263,0,,,,
2,1789067396480,3843,-1086,17109,5628512,-527787,-893084,0,0,0,464,452,227,424,410,433,167,85,329,228,174,379,0,,,,
1,1789067396496,6412,9987,15094,3886324,3473379,-1047023,0,0,0,302,269,196,286,208,288,555,555,294,450,521,240,0,,,,
2,1789067396496,5451,-1249,20157,6783047,-596204,-1254717,0,0,0,424,448,244,421,431,442,179,93,338,218,147,334,0,,,,
1,1789067396512,5077,-1229,19081,3645643,2177123,95294,0,0,0,294,278,271,288,223,297,592,588,303,515,538,233,0,,,,
2,1789067396512,7532,-2837,25795,7701788,-910189,-1656666,0,0,0,403,398,205,354,382,369,157,100,272,187,150,259,0,,,,
1,1789067396528,1761,-5642,22431,2741563,1142317,502131,0,0,0,277,318,314,290,255,311,611,593,318,528,573,281,0,,,,
2,1789067396528,9528,-4307,32112,8214915,-1130100,-2029294,0,0,0,347,346,163,306,303,291,173,103,219,170,152,207,0,,,,
1,1789067396544,1024,-2895,19722,1402546,778242,119729,0,0,0,305,343,337,302,284,321,614,600,318,526,578,320,0,,,,
2,1789067396544,9131,-2416,36956,8527678,-1012814,-2387261,0,0,0,282,238,166,230,183,209,218,133,180,167,206,146,0,,,,
1,1789067396560,2416,449,13357,711047,317649,-138055,0,0,0,313,354,337,326,298,328,616,586,328,536,578,345,0,,,,
2,1789067396560,9413,4632,35764,8537452,-924849,-2576629,0,0,0,275,251,187,218,176,222,234,137,188,155,191,150,0,,,,
1,1789067396576,2105,1110,10509,596204,-343306,-111177,0,0,0,315,363,342,323,307,332,628,585,334,521,562,345,0,,,,
2,1789067396576,11753,15161,25915,7310835,-1047023,-2649933,0,0,0,279,248,190,219,171,219,233,133,190,160,185,152,0,,,,
1,1789067396592,789,703,10275,631634,-829554,-39095,0,0,0,309,367,340,335,316,344,630,578,335,507,538,357,0,,,,
2,1789067396592,10921,23938,20148,3571118,-1123992,-1999972,0,0,0,279,243,180,223,172,216,234,136,184,165,186,149,0,,,,
1,1789067396608,-19,938,10648,643851,-879645,-51312,0,0,0,317,375,348,342,323,349,628,552,342,498,506,370,0,,,,
2,1789067396608,6494,24182,20009,-1386664,-1651779,-37873,0,0,0,278,237,177,223,171,213,236,137,183,165,187,146,0,,,,
1,1789067396624,-177,1330,10811,778242,-756251,-53756,0,0,0,324,377,335,353,333,352,616,521,342,487,481,382,0,,,,
2,1789067396624,6901,17118,13921,-3970624,-2745228,1772730,0,0,0,283,232,177,219,166,210,237,137,183,164,186,146,0,,,,
1,1789067396640,-153,1234,10691,983493,-634078,-25656,0,0,0,321,380,315,354,336,355,605,486,344,466,461,395,0,,,,
2,1789067396640,9901,11753,7178,-4046371,-2244318,1993864,0,0,0,288,233,178,224,168,216,235,138,185,165,189,149,0,,,,
1,1789067396656,-167,885,10413,1077566,-548556,-3665,0,0,0,316,383,292,355,336,356,607,448,348,436,433,405,0,,,,
2,1789067396656,7130,10653,7068,-4029267,-390953,1343903,0,0,0,292,234,180,227,170,218,238,139,188,167,190,150,0,,,,
1,1789067396672,-138,713,10241,1088561,-498466,3665,0,0,0,313,378,257,366,340,362,606,419,349,406,402,415,0,,,,
2,1789067396672,2617,9255,9370,-4763527,332310,1000597,0,0,0,290,234,179,226,167,215,237,134,186,170,190,149,0,,,,
1,1789067396688,-57,650,10184,1093448,-488692,4886,0,0,0,314,375,224,369,349,365,589,402,356,390,380,428,0,,,,
2,1789067396688,2019,6245,10500,-5589416,-128281,761138,0,0,0,285,232,175,224,165,215,236,130,181,175,193,151,0,,,,
1,1789067396704,-258,531,10107,1142317,-478918,4886,0,0,0,323,384,206,377,359,362,582,378,367,383,363,442,0,,,,
2,1789067396704,3632,3565,10844,-6151412,-96516,63529,0,0,0,287,232,179,219,163,218,238,133,184,177,194,157,0,,,,
1,1789067396720,-583,339,9920,1177748,-404392,26878,0,0,0,319,404,204,384,369,370,580,337,374,367,341,465,0,,,,
2,1789067396720,3096,2397,12342,-6690196,312763,-577878,0,0,0,288,234,190,217,162,223,237,137,191,169,191,159,0,,,,
1,1789067396736,-837,157,9696,1122770,-274889,81855,0,0,0,332,414,213,400,382,383,575,306,379,358,312,472,0,,,,
2,1789067396736,1555,1804,14563,-7206988,516791,-717155,0,0,0,288,237,186,217,161,217,241,137,190,168,190,153,0,,,,
1,1789067396752,-1100,-38,9657,1031140,-189368,180816,0,0,0,353,410,182,415,390,402,575,260,386,332,278,493,0,,,,
2,1789067396752,2215,842,15970,-7387804,516791,-123394,0,0,0,289,236,185,223,164,220,239,133,186,167,187,149,0,,,,
1,1789067396768,-1306,-373,9906,961501,-133168,321315,0,0,0,373,453,172,442,429,386,575,246,383,320,252,513,0,,,,
2,1789067396768,3579,47,17214,-7348708,829554,728151,0,0,0,295,232,181,227,161,219,242,133,189,177,194,155,0,,,,
1,1789067396784,-1206,-555,10423,988379,-25656,465479,0,0,0,420,458,182,446,418,393,582,231,391,309,221,537,0,,,,
2,1789067396784,4154,-229,18951,-7238753,1288925,1649336,0,0,0,305,234,181,225,160,214,242,139,186,179,195,153,0,,,,
1,1789067396800,-770,-607,11055,1133765,167377,558330,0,0,0,442,461,179,466,473,397,581,223,394,312,212,561,0,,,,
2,1789067396800,4268,-507,22072,-7243640,1574810,2455678,0,0,0,303,238,185,228,163,219,241,160,193,172,201,149,0,,,,
1,1789067396816,-507,-741,11414,1368338,364075,572991,0,0,0,466,472,179,481,459,412,572,203,396,320,197,568,0,,,,
2,1789067396816,4154,-2144,25690,-7389025,1748296,2635272,0,0,0,296,225,175,229,163,221,239,128,187,173,187,149,0,,,,
1,1789067396832,-459,-1115,11773,1633453,393397,585208,0,0,0,485,479,182,488,462,437,569,190,388,319,192,578,0,,,,
2,1789067396832,2531,-7102,29069,-7622376,1816713,2040289,0,0,0,293,238,175,233,168,226,239,124,190,177,190,149,0,,,,
1,1789067396848,-90,-1378,12318,1913229,309097,602313,0,0,0,484,498,175,489,473,442,545,189,401,310,187,579,0,,,,
2,1789067396848,-603,-15113,31141,-7667580,1782504,1171639,0,0,0,300,244,177,243,170,229,244,114,198,187,193,151,0,,,,
1,1789067396864,703,-1387,12739,2207666,221133,563217,0,0,0,490,514,179,482,475,445,525,191,422,305,187,582,0,,,,
2,1789067396864,-5719,-27015,31691,-7187440,1706757,189368,0,0,0,302,245,178,248,173,236,246,109,199,211,194,157,0,,,,
1,1789067396880,1076,-1330,13371,2549751,167377,422718,0,0,0,505,526,187,472,475,449,486,188,434,306,190,585,0,,,,
2,1789067396880,-8169,-39540,28968,-5977927,803898,-750142,0,0,0,310,251,176,251,174,235,254,119,204,201,196,156,0,,,,
1,1789067396896,301,-1488,14539,3005456,103847,299323,0,0,0,513,532,189,463,471,451,442,180,424,300,190,578,0,,,,
2,1789067396896,-4608,-49231,21483,-4376238,-326202,-1456302,0,0,0,295,252,175,244,172,233,252,118,204,192,199,156,0,,,,
1,1789067396912,-684,-1770,15568,3666413,-18325,310319,0,0,0,508,536,192,458,471,463,399,178,408,278,186,562,0,,,,
2,1789067396912,-2670,-54615,13524,-2158797,-125838,-1412320,0,0,0,287,244,172,244,166,227,258,142,200,201,225,149,0,,,,
1,1789067396928,-196,-1430,16027,4450764,-156381,384845,0,0,0,491,537,201,459,478,479,344,184,414,254,180,540,0,,,,
2,1789067396928,-6379,-54194,12031,32986,486248,-350636,0,0,0,276,193,163,245,129,219,287,253,184,215,306,130,0,,,,
1,1789067396944,-378,-1560,16534,5191132,-222354,428827,0,0,0,473,510,204,454,468,476,308,184,429,242,174,514,0,,,,
2,1789067396944,-8777,-37501,18329,2251649,381179,1264491,0,0,0,255,145,140,241,101,207,304,389,163,242,407,124,0,,,,
1,1789067396960,-856,-2742,19478,6008470,-320093,496022,0,0,0,440,476,198,443,456,474,291,176,420,230,163,483,0,,,,
2,1789067396960,-4737,2120,20133,3610213,-718377,1683544,0,0,0,249,148,124,239,110,204,314,484,153,289,499,137,0,,,,
1,1789067396976,-1890,-3450,25331,6852686,-400727,553443,0,0,0,420,433,195,411,426,412,291,170,400,215,155,431,0,,,,
2,1789067396976,-2019,19406,12936,4328591,-1715309,128281,0,0,0,265,175,146,247,118,220,358,547,163,341,582,145,0,,,,
1,1789067396992,-4910,-3441,31586,7701788,-417831,707381,0,0,0,384,386,178,371,375,365,309,173,366,213,158,408,0,,,,
2,1789067396992,-1201,3493,15314,5485569,-1040914,-1061683,0,0,0,283,187,179,255,111,233,420,587,177,375,631,140,0,,,,
1,1789067397008,-7681,-2105,35477,8500800,-620639,1123992,0,0,0,330,330,174,297,292,285,370,209,312,229,217,355,0,,,,
2,1789067397008,1287,-7729,23622,5272988,405614,-863763,0,0,0,302,200,202,261,110,237,481,592,187,399,656,126,0,,,,
1,1789067397024,-7662,2431,37094,9127548,-1016479,1732413,0,0,0,315,290,208,240,223,247,373,243,291,230,251,339,0,,,,
2,1789067397024,3632,-5594,24254,3637091,726929,-389732,0,0,0,306,211,212,271,126,250,505,584,204,414,652,117,0,,,,
1,1789067397040,-8001,13141,29317,8489805,-724486,2348165,0,0,0,312,288,206,240,221,247,374,234,290,249,252,332,0,,,,
2,1789067397040,3168,-411,16305,1700648,175929,-109955,0,0,0,313,198,231,272,115,267,510,571,223,414,619,136,0,,,,
1,1789067397056,-8102,18994,21598,5293758,-140499,2389704,0,0,0,315,290,208,241,225,252,372,235,294,254,261,343,0,,,,
2,1789067397056,1612,282,10945,977384,219911,-86742,0,0,0,328,222,234,282,136,273,523,573,216,419,614,156,0,,,,
1,1789067397072,-4268,17851,21076,-201585,850324,941954,0,0,0,320,289,208,242,224,252,377,240,293,254,263,348,0,,,,
2,1789067397072,1526,90,9327,708603,467922,-83077,0,0,0,315,257,242,293,138,280,530,567,220,419,603,168,0,,,,
1,1789067397088,-2727,13630,18286,-4200309,2469117,-763581,0,0,0,322,289,209,243,221,252,379,243,293,252,262,348,0,,,,
2,1789067397088,2325,43,10222,560774,491135,-63529,0,0,0,310,215,242,287,132,281,529,568,218,410,566,185,0,,,,
1,1789067397104,-6484,9451,11529,-4759861,3125186,-1557706,0,0,0,325,292,210,246,221,253,382,243,293,252,257,343,0,,,,
2,1789067397104,2282,808,10533,452040,272445,-64751,0,0,0,319,202,239,288,107,287,523,528,227,393,539,187,0,,,,
1,1789067397120,-7456,8528,7719,-4063475,1395216,-1274264,0,0,0,322,296,210,245,224,253,386,243,294,255,259,338,0,,,,
2,1789067397120,1943,1244,10251,554665,185703,-92851,0,0,0,313,200,243,281,93,287,515,510,230,377,525,192,0,,,,
1,1789067397136,-4283,7901,7202,-4054923,-158824,-1125213,0,0,0,315,298,213,244,228,262,387,244,299,254,262,345,0,,,,
2,1789067397136,1866,1129,9911,742812,194255,-120951,0,0,0,306,192,242,280,92,287,508,460,234,367,477,205,0,,,,
1,1789067397152,-1258,6403,8437,-4548502,-164933,-1337794,0,0,0,312,297,217,246,232,273,389,245,303,253,261,357,0,,,,
2,1789067397152,1962,909,9729,834441,167377,-135612,0,0,0,297,193,240,284,105,291,492,432,253,347,434,199,0,,,,
1,1789067397168,-2962,4450,9021,-4927239,376292,-1315803,0,0,0,313,299,220,246,232,274,391,246,305,254,261,360,0,,,,
2,1789067397168,2014,827,9696,871093,89186,-149051,0,0,0,292,194,250,279,110,305,485,414,268,330,410,205,0,,,,
1,1789067397184,-4225,3058,10016,-5446474,129503,-877202,0,0,0,311,300,219,246,231,272,392,245,304,252,259,354,0,,,,
2,1789067397184,2057,698,9667,894306,-7330,-155159,0,0,0,294,207,258,275,132,316,480,399,273,325,387,218,0,,,,
1,1789067397200,-3105,2378,11911,-6133086,-400727,-394618,0,0,0,315,300,218,248,230,269,395,248,301,253,259,344,0,,,,
2,1789067397200,2153,492,9523,890641,-107512,-171042,0,0,0,296,220,256,282,162,321,472,368,278,314,352,225,0,,,,
1,1789067397216,-2292,1497,14247,-6841690,-383623,-294437,0,0,0,316,301,216,248,230,259,395,247,292,259,263,329,0,,,,
2,1789067397216,2158,363,9384,841772,-219911,-205250,0,0,0,299,226,252,293,179,327,466,331,283,303,320,229,0,,,,
1,1789067397232,-3235,358,15951,-7324274,-399505,-416610,0,0,0,317,302,212,250,231,259,398,248,293,264,267,329,0,,,,
2,1789067397232,2053,181,9332,778242,-320093,-234572,0,0,0,305,245,255,300,197,337,458,306,289,305,302,238,0,,,,
1,1789067397248,-3929,-976,17406,-7583281,-791681,-616973,0,0,0,317,301,211,251,228,257,403,248,296,278,265,326,0,,,,
2,1789067397248,1885,-105,9317,679282,-416610,-245567,0,0,0,310,267,267,304,220,353,449,262,293,309,292,254,0,,,,
1,1789067397264,-3388,-2244,19148,-7503868,-1145983,-948062,0,0,0,317,299,212,252,228,259,401,246,297,269,269,328,0,,,,
2,1789067397264,1904,-268,9346,594982,-491135,-246789,0,0,0,332,288,269,335,265,368,434,204,291,304,283,253,0,,,,
1,1789067397280,-3172,-3330,21617,-7264409,-1352455,-1319468,0,0,0,318,296,211,252,222,260,401,241,295,267,266,329,0,,,,
2,1789067397280,2038,-425,9490,543670,-582765,-272445,0,0,0,365,312,284,341,275,394,430,183,320,297,271,282,0,,,,
1,1789067397296,-2895,-5996,25063,-7104362,-1513724,-1440420,0,0,0,320,298,210,255,225,263,408,242,296,263,260,324,0,,,,
2,1789067397296,2158,-440,9830,568104,-674395,-346971,0,0,0,402,379,279,343,281,375,385,202,298,308,269,321,0,,,,
1,1789067397312,-2345,-10959,27389,-7075041,-1452637,-1280373,0,0,0,319,301,210,260,230,266,412,241,295,261,256,321,0,,,,
2,1789067397312,2148,-296,10413,739146,-740368,-466701,0,0,0,423,377,307,352,294,391,407,141,316,298,247,351,0,,,,
1,1789067397328,-1459,-18492,27283,-6928433,-1331686,-852767,0,0,0,319,301,211,266,229,269,412,238,294,269,262,322,0,,,,
2,1789067397328,2057,-483,10945,978606,-750142,-587652,0,0,0,452,407,292,387,359,414,390,123,363,298,240,386,0,,,,
1,1789067397344,1086,-27724,25302,-6251594,-1459967,-255341,0,0,0,318,300,211,273,227,271,413,236,294,275,266,318,0,,,,
2,1789067397344,1502,-842,11495,1263269,-649960,-671951,0,0,0,464,417,286,406,368,413,376,122,340,293,221,399,0,,,,
1,1789067397360,4675,-35630,21698,-4927239,-1342681,229685,0,0,0,319,302,210,280,227,273,419,239,296,279,267,312,0,,,,
2,1789067397360,856,-947,12366,1618792,-464257,-647517,0,0,0,472,428,260,402,393,419,335,116,316,282,213,417,0,,,,
1,1789067397376,5838,-40641,16592,-3568674,-777020,382401,0,0,0,318,281,189,277,211,272,433,286,297,305,300,301,0,,,,
2,1789067397376,818,-890,13792,2130697,-285884,-576656,0,0,0,498,471,265,397,423,449,291,116,330,275,216,453,0,,,,
1,1789067397392,5288,-46771,12476,-1765400,-39095,237015,0,0,0,299,252,158,261,195,273,460,381,298,351,376,280,0,,,,
2,1789067397392,1340,-756,15132,2751337,-266337,-532674,0,0,0,512,484,249,387,442,438,246,112,315,268,219,446,0,,,,
1,1789067397408,5987,-54156,12347,676838,1521054,-18325,0,0,0,286,262,166,259,210,285,488,457,294,377,438,267,0,,,,
2,1789067397408,1129,-564,15592,3525914,-338419,-513126,0,0,0,507,503,254,389,453,444,199,113,309,258,243,436,0,,,,
1,1789067397424,5226,-44110,14194,3654195,3802025,-251676,0,0,0,291,262,169,268,212,289,510,510,294,417,481,252,0,,,,
2,1789067397424,1402,-655,15864,4439768,-332310,-505796,0,0,0,504,492,252,384,446,440,163,110,308,239,231,415,0,,,,
1,1789067397440,1818,-8561,20272,4544837,4310265,-443488,0,0,0,299,276,186,273,212,290,531,533,301,455,509,260,0,,,,
2,1789067397440,2646,-851,16735,5307197,-277332,-635299,0,0,0,494,456,236,385,427,426,140,95,288,215,185,370,0,,,,
1,1789067397456,2010,10930,22981,4206418,3313333,-497244,0,0,0,298,276,216,276,215,297,561,560,302,482,528,237,0,,,,
2,1789067397456,3972,-971,18923,6362772,-294437,-917519,0,0,0,457,430,230,383,414,413,132,88,271,190,152,318,0,,,,
1,1789067397472,5848,3330,20521,3579670,1663996,-323758,0,0,0,282,322,296,285,275,304,585,574,311,520,554,223,0,,,,
2,1789067397472,5436,-1852,23330,7385360,-472809,-1287703,0,0,0,387,404,217,350,386,376,135,91,254,174,151,264,0,,,,
1,1789067397488,5470,-3895,17496,2439795,619417,3665,0,0,0,302,339,324,300,287,320,590,575,318,563,571,276,0,,,,
2,1789067397488,7800,-4570,30825,8216137,-697608,-1639562,0,0,0,315,350,181,297,306,301,145,91,216,165,161,204,0,,,,
1,1789067397504,2569,-3024,14673,1307251,229685,130725,0,0,0,325,360,346,311,303,329,604,575,329,575,567,310,0,,,,
2,1789067397504,9710,-5092,36003,8614421,-307876,-1974316,0,0,0,279,276,167,246,211,223,180,107,182,162,174,158,0,,,,
1,1789067397520,1086,349,12117,676838,101403,18325,0,0,0,338,373,359,324,305,328,613,572,325,585,562,327,0,,,,
2,1789067397520,9739,1584,37362,8574104,638965,-2469117,0,0,0,278,246,190,217,178,217,216,128,184,160,201,155,0,,,,
1,1789067397536,1292,818,10926,432492,-185703,-73303,0,0,0,348,388,369,329,312,329,621,573,347,589,564,340,0,,,,
2,1789067397536,8647,14898,28628,7217983,552222,-2956587,0,0,0,278,241,188,215,174,214,222,132,190,165,203,158,0,,,,
1,1789067397552,1268,684,10562,334754,-398284,-83077,0,0,0,348,391,374,333,323,336,623,569,350,591,552,363,0,,,,
2,1789067397552,7331,23426,21684,4036597,-251676,-2844188,0,0,0,279,239,180,218,174,215,211,123,174,164,192,153,0,,,,
1,1789067397568,971,1134,10701,389732,-421497,-58643,0,0,0,349,402,367,338,333,344,616,546,346,579,532,371,0,,,,
2,1789067397568,4804,23833,19401,-723264,-1293812,-1335351,0,0,0,279,239,179,223,176,218,218,130,184,162,198,152,0,,,,
1,1789067397584,1028,1526,10806,596204,-417831,-50090,0,0,0,360,411,365,348,341,350,607,519,344,551,510,374,0,,,,
2,1789067397584,5187,18037,13802,-3315776,-2068389,430049,0,0,0,281,241,181,220,174,216,213,126,174,162,202,153,0,,,,
1,1789067397600,1153,1531,10772,838107,-488692,-54977,0,0,0,363,409,362,358,345,354,601,490,343,519,478,385,0,,,,
2,1789067397600,7379,13285,7303,-3805690,-1547932,1198517,0,0,0,277,242,176,223,173,213,220,128,183,167,201,144,0,,,,
1,1789067397616,1038,1234,10600,995710,-601091,-76969,0,0,0,355,409,354,360,346,358,572,456,348,485,443,395,0,,,,
2,1789067397616,6164,11753,5479,-3687182,92851,1083674,0,0,0,281,241,181,226,177,217,220,130,181,170,197,143,0,,,,
1,1789067397632,679,1019,10418,1047023,-625526,-89186,0,0,0,355,416,342,362,346,359,540,420,357,454,419,404,0,,,,
2,1789067397632,1531,10413,7973,-4400673,845437,1053131,0,0,0,282,238,183,222,169,218,221,127,181,174,201,144,0,,,,
1,1789067397648,430,789,10203,1067792,-583987,-79412,0,0,0,361,421,319,372,353,362,584,386,359,437,401,418,0,,,,
2,1789067397648,14,7930,9705,-5172806,486248,1073901,0,0,0,282,234,180,224,168,220,219,129,180,173,202,145,0,,,,
1,1789067397664,335,516,9920,1056796,-503352,-46425,0,0,0,367,424,308,373,350,363,583,358,346,428,376,422,0,,,,
2,1789067397664,732,5350,10567,-5831319,183259,680503,0,0,0,284,234,178,226,167,221,224,130,183,177,205,147,0,,,,
1,1789067397680,315,291,9734,1004262,-419053,-19547,0,0,0,368,429,300,382,367,375,567,333,345,415,353,428,0,,,,
2,1789067397680,641,3283,11629,-6410419,234572,61086,0,0,0,281,230,178,227,167,222,225,132,185,175,205,147,0,,,,
1,1789067397696,220,110,9633,919963,-338419,-1221,0,0,0,386,423,304,379,371,379,558,301,344,392,330,438,0,,,,
2,1789067397696,-157,1952,12854,-6753726,373849,-432492,0,0,0,279,229,178,226,168,222,222,130,184,173,207,146,0,,,,
1,1789067397712,0,-23,9605,808785,-238237,42760,0,0,0,399,438,290,387,391,370,559,267,348,393,311,458,0,,,,
2,1789067397712,-181,1560,14252,-6807482,452040,-410501,0,0,0,283,232,183,226,166,223,222,128,184,174,211,147,0,,,,
1,1789067397728,-172,-86,9662,735481,-140499,118507,0,0,0,405,451,290,399,389,375,564,249,353,370,297,474,0,,,,
2,1789067397728,483,1258,15544,-6842912,564439,-57421,0,0,0,284,231,185,227,167,228,219,139,184,175,216,149,0,,,,
1,1789067397744,-148,-186,9743,700051,-57421,215024,0,0,0,416,454,300,408,402,386,558,232,358,349,279,496,0,,,,
2,1789067397744,1737,588,16563,-6874677,785572,576656,0,0,0,285,229,177,225,168,225,215,143,181,178,218,150,0,,,,
1,1789067397760,-62,-339,9777,691499,-14660,294437,0,0,0,438,486,303,419,416,395,557,216,359,343,260,517,0,,,,
2,1789067397760,3134,-62,18056,-6827029,1115439,1260825,0,0,0,284,227,175,226,162,220,222,130,179,176,214,148,0,,,,
1,1789067397776,-62,-430,9930,706160,39095,349414,0,0,0,455,493,298,431,427,396,558,206,365,335,243,539,0,,,,
2,1789067397776,4326,-540,20550,-6729291,1478293,1604132,0,0,0,283,228,179,226,162,220,229,140,186,179,213,150,0,,,,
1,1789067397792,-201,-421,10500,783129,138055,411723,0,0,0,471,497,284,447,443,405,565,203,366,322,229,559,0,,,,
2,1789067397792,4517,-2421,24268,-6759834,1874134,1393994,0,0,0,282,225,178,228,157,222,233,122,190,177,208,153,0,,,,
1,1789067397808,-205,-483,11428,1026253,287106,489913,0,0,0,483,507,259,446,454,409,556,205,371,317,224,572,0,,,,
2,1789067397808,3330,-6685,27623,-6932098,2035402,1077566,0,0,0,285,230,173,237,162,223,236,116,184,181,201,148,0,,,,
1,1789067397824,287,-775,12002,1354899,354301,548556,0,0,0,486,518,233,439,469,415,542,207,375,316,218,578,0,,,,
2,1789067397824,1751,-13869,28781,-6947981,1919338,979827,0,0,0,284,226,169,240,158,222,245,103,185,178,194,143,0,,,,
1,1789067397840,1225,-1028,12266,1736079,260228,542448,0,0,0,489,524,216,447,488,436,535,205,374,308,210,581,0,,,,
2,1789067397840,-406,-24335,28221,-6269920,1980425,863763,0,0,0,283,224,161,249,160,233,252,111,190,184,198,146,0,,,,
1,1789067397856,1765,-885,13170,2098932,103847,421497,0,0,0,501,522,199,455,489,441,520,199,380,306,205,583,0,,,,
2,1789067397856,-3819,-35237,26398,-5055520,1744631,477696,0,0,0,283,223,166,255,161,238,252,111,189,184,194,147,0,,,,
1,1789067397872,1541,-823,14596,2522873,20769,289550,0,0,0,505,522,180,459,483,427,504,198,381,300,201,582,0,,,,
2,1789067397872,-4852,-44967,20617,-3407406,676838,-34208,0,0,0,285,228,169,256,165,236,254,118,189,184,204,145,0,,,,
1,1789067397888,1048,-866,15912,3099530,-12217,212581,0,0,0,518,527,181,460,478,456,469,220,378,280,225,577,0,,,,
2,1789067397888,-2938,-51696,14094,-1568701,100181,-346971,0,0,0,285,228,168,253,167,232,269,124,204,189,207,148,0,,,,
1,1789067397904,229,-995,16645,3903428,-80634,221133,0,0,0,512,528,194,441,472,469,413,196,386,275,193,568,0,,,,
2,1789067397904,-3105,-52701,11629,394618,184481,-168598,0,0,0,282,188,187,249,131,231,288,220,187,197,262,133,0,,,,
1,1789067397920,-732,-961,17305,4794070,-153938,337197,0,0,0,488,506,195,459,495,468,352,275,394,243,168,537,0,,,,
2,1789067397920,-5273,-35362,17310,2389704,285884,636521,0,0,0,274,149,153,248,106,216,310,358,168,239,382,112,0,,,,
1,1789067397936,-1196,-995,18497,5663942,-183259,546113,0,0,0,467,473,221,455,499,462,298,189,409,235,187,490,0,,,,
2,1789067397936,-5886,-1751,20531,3705508,-313984,1369559,0,0,0,279,150,145,253,106,218,330,449,167,273,503,116,0,,,,
1,1789067397952,-1880,-1842,22512,6626666,-185703,763581,0,0,0,411,463,203,417,460,446,282,178,389,214,169,458,0,,,,
2,1789067397952,-4886,24575,14457,4401894,-1352455,1132544,0,0,0,275,166,155,251,115,233,370,516,181,317,577,126,0,,,,
1,1789067397968,-4015,-2158,28619,7644367,-73303,987158,0,0,0,375,436,201,388,418,399,281,173,362,206,160,421,0,,,,
2,1789067397968,-3321,4704,15903,5489235,-1037249,-453262,0,0,0,275,185,173,256,126,238,422,551,187,341,616,113,0,,,,
1,1789067397984,-5953,-1684,33529,8486139,-34208,1314581,0,0,0,335,385,173,333,349,334,313,189,328,212,177,387,0,,,,
2,1789067397984,713,-10433,24536,5357288,-23212,-1143539,0,0,0,283,217,208,270,144,253,457,566,191,352,630,104,0,,,,
1,1789067398000,-5474,483,37458,9171530,-310319,1718974,0,0,0,312,307,193,255,245,274,348,224,303,223,222,362,0,,,,
2,1789067398000,5245,-7824,26877,3423288,223576,-733038,0,0,0,298,241,239,283,156,274,479,581,200,379,628,115,0,,,,
1,1789067398016,-6231,8963,36601,9332799,-257785,2122145,0,0,0,306,279,211,236,209,260,368,238,296,233,240,346,0,,,,
2,1789067398016,3699,-1287,17382,1497841,-331088,-128281,0,0,0,316,239,251,287,154,273,497,578,204,404,625,130,0,,,,
1,1789067398032,-8537,19621,25637,7692015,867428,2362826,0,0,0,308,288,210,246,221,264,369,235,298,236,238,341,0,,,,
2,1789067398032,1139,1206,10423,733038,-332310,41538,0,0,0,310,255,269,274,160,282,503,567,208,419,619,163,0,,,,
1,1789067398048,-9298,21234,19937,2348165,1385442,1373225,0,0,0,315,295,213,246,223,262,365,232,297,237,239,341,0,,,,
2,1789067398048,856,674,8638,678060,30543,-46425,0,0,0,317,287,279,283,171,292,500,572,215,437,613,190,0,,,,
1,1789067398064,-7083,17812,17544,-2663372,1192408,-345749,0,0,0,320,295,217,244,218,261,368,234,296,241,241,343,0,,,,
2,1789067398064,2048,196,10054,571769,-53756,-74525,0,0,0,323,269,284,282,185,286,488,544,199,406,600,173,0,,,,
1,1789067398080,-5388,12112,12955,-4620584,1356120,-1971872,0,0,0,321,288,211,247,221,263,372,238,299,244,241,344,0,,,,
2,1789067398080,2086,732,10614,447153,-306654,-75747,0,0,0,311,268,279,281,179,293,473,505,203,397,570,192,0,,,,
1,1789067398096,-6815,9906,8049,-3788586,996932,-2350609,0,0,0,320,287,212,251,222,263,374,238,299,247,240,341,0,,,,
2,1789067398096,1340,1292,10490,537561,-386066,-106290,0,0,0,314,256,283,286,176,294,482,456,216,375,531,194,0,,,,
1,1789067398112,-5690,9361,6618,-3591887,-223576,-2289522,0,0,0,322,292,213,252,222,268,378,240,301,248,241,335,0,,,,
2,1789067398112,890,1229,10212,751364,-196698,-133168,0,0,0,335,272,287,290,184,294,466,457,201,370,490,200,0,,,,
1,1789067398128,-2000,8327,7949,-4184426,-1078788,-2177123,0,0,0,312,295,215,245,223,266,357,244,297,242,241,332,0,,,,
2,1789067398128,985,1095,10054,880867,-10995,-129503,0,0,0,314,298,283,276,211,296,451,421,222,346,444,199,0,,,,
1,1789067398144,-311,6197,9533,-4835609,-679282,-1896125,0,0,0,311,295,216,250,226,271,382,242,308,242,240,334,0,,,,
2,1789067398144,1282,952,9992,911410,13439,-112399,0,0,0,318,298,291,284,218,316,428,388,224,335,420,210,0,,,,
1,1789067398160,-521,4556,10710,-5411044,-329867,-1277930,0,0,0,306,295,215,248,225,271,377,240,303,253,254,334,0,,,,
2,1789067398160,1430,665,9834,908967,-30543,-118507,0,0,0,324,309,291,288,230,318,412,329,234,316,383,217,0,,,,
1,1789067398176,-215,3689,12060,-6029239,-444709,-629191,0,0,0,308,295,218,250,226,273,379,240,302,253,260,333,0,,,,
2,1789067398176,1464,306,9600,878424,-100181,-153938,0,0,0,348,331,295,297,246,328,393,298,242,314,349,230,0,,,,
1,1789067398192,253,2957,14228,-6750060,-557109,-215024,0,0,0,307,293,215,247,224,272,380,239,302,253,258,332,0,,,,
2,1789067398192,1335,138,9466,816115,-145385,-193033,0,0,0,369,341,299,297,251,335,374,262,249,327,312,268,0,,,,
1,1789067398208,-397,2096,16649,-7393912,-663399,-101403,0,0,0,305,292,215,251,225,272,381,239,300,258,259,333,0,,,,
2,1789067398208,1287,23,9509,759916,-164933,-222354,0,0,0,372,346,301,301,258,355,364,221,259,325,281,300,0,,,,
1,1789067398224,-990,976,18444,-7759210,-918741,-208915,0,0,0,303,292,214,251,224,271,383,239,300,256,257,331,0,,,,
2,1789067398224,1416,-129,9739,740368,-190589,-251676,0,0,0,391,362,302,317,277,373,367,194,276,338,280,312,0,,,,
1,1789067398240,-1100,-344,20397,-7804414,-1154535,-481361,0,0,0,304,295,217,252,225,274,381,237,296,251,254,329,0,,,,
2,1789067398240,1569,-229,9897,772133,-301767,-296880,0,0,0,415,373,299,336,299,384,361,178,282,336,278,319,0,,,,
1,1789067398256,-1416,-1708,23282,-7684684,-1353677,-734260,0,0,0,305,297,219,254,225,276,384,238,295,253,253,329,0,,,,
2,1789067398256,1555,-291,9863,819781,-431270,-353080,0,0,0,420,382,300,356,314,394,346,158,276,304,257,334,0,,,,
1,1789067398272,-1191,-4211,27130,-7613824,-1563815,-712268,0,0,0,305,297,216,257,224,275,390,239,297,257,254,329,0,,,,
2,1789067398272,1627,-358,9930,868650,-478918,-431270,0,0,0,428,408,307,378,338,407,345,133,281,296,244,360,0,,,,
1,1789067398288,186,-10830,30366,-7634593,-1621236,-351858,0,0,0,305,300,215,260,224,277,392,235,296,256,253,328,0,,,,
2,1789067398288,1703,-430,10476,959058,-452040,-546113,0,0,0,441,431,294,389,395,430,338,122,289,289,234,391,0,,,,
1,1789067398304,2421,-20612,31126,-7396356,-1583362,158824,0,0,0,302,304,214,264,228,280,393,237,299,255,255,327,0,,,,
2,1789067398304,1359,-679,11337,1171639,-449596,-640186,0,0,0,457,479,279,384,429,434,331,116,300,297,241,397,0,,,,
1,1789067398320,5786,-31476,28858,-6585127,-1369559,559552,0,0,0,302,308,213,272,233,283,398,245,300,260,265,321,0,,,,
2,1789067398320,569,-861,11677,1500285,-463035,-635299,0,0,0,487,477,272,389,408,424,317,106,287,301,229,411,0,,,,
1,1789067398336,7681,-41153,23144,-5205793,-730594,507018,0,0,0,305,313,213,279,238,286,407,247,298,258,256,324,0,,,,
2,1789067398336,-167,-765,12041,1853365,-378736,-535117,0,0,0,505,476,280,396,427,425,283,114,298,288,232,419,0,,,,
1,1789067398352,6767,-47365,14903,-3400075,-213802,-103847,0,0,0,304,307,213,282,233,287,411,237,297,257,241,324,0,,,,
2,1789067398352,205,-741,13290,2232101,-248011,-405614,0,0,0,530,495,265,387,439,437,256,119,296,273,220,426,0,,,,
1,1789067398368,6044,-51801,10160,-1445307,-145385,-915076,0,0,0,304,298,213,279,226,285,413,236,298,262,246,325,0,,,,
2,1789067398368,1057,-880,14706,2838079,-235793,-370184,0,0,0,546,478,289,387,439,437,239,119,298,275,229,428,0,,,,
1,1789067398384,3239,-51591,8710,434936,3665,-1602910,0,0,0,297,271,215,272,209,284,459,329,288,332,356,294,0,,,,
2,1789067398384,1316,-947,15333,3583335,-267558,-400727,0,0,0,532,478,285,383,429,437,192,126,305,261,228,427,0,,,,
1,1789067398400,760,-39545,12706,1964542,-173485,-1712866,0,0,0,283,235,164,262,193,283,485,459,278,364,442,270,0,,,,
2,1789067398400,1775,-1091,15683,4394564,-287106,-483805,0,0,0,526,486,266,380,428,432,169,115,290,241,219,393,0,,,,
1,1789067398416,1919,-2306,17463,3197268,541226,-1372003,0,0,0,281,257,169,260,211,289,504,503,286,392,477,269,0,,,,
2,1789067398416,3254,-1301,16870,5368283,-345749,-719599,0,0,0,494,481,246,380,484,424,143,111,272,215,201,345,0,,,,
1,1789067398432,2924,20641,15204,3855781,2163684,-642630,0,0,0,283,262,192,265,210,308,538,538,294,430,508,251,0,,,,
2,1789067398432,4972,-1608,19349,6334672,-437379,-1099557,0,0,0,444,457,252,377,464,404,142,100,271,202,172,308,0,,,,
1,1789067398448,3685,7231,16386,4503298,2668259,276111,0,0,0,295,264,229,272,205,308,570,570,300,480,540,240,0,,,,
2,1789067398448,6465,-2895,24709,7396356,-656069,-1591914,0,0,0,380,426,245,354,416,394,140,111,269,187,196,282,0,,,,
1,1789067398464,2211,-7068,23321,4103792,1472185,563217,0,0,0,315,281,289,282,223,311,585,598,308,523,555,257,0,,,,
2,1789067398464,7891,-4551,31399,8272337,-819781,-1992642,0,0,0,326,358,203,321,336,314,153,113,226,175,192,224,0,,,,
1,1789067398480,564,-6207,23618,2605951,635299,343306,0,0,0,329,314,336,293,251,324,598,609,310,537,571,291,0,,,,
2,1789067398480,8475,-3876,36707,8747590,-382401,-2310292,0,0,0,302,270,179,273,216,233,203,124,188,180,195,173,0,,,,
1,1789067398496,1134,-19,16209,1246165,510683,40317,0,0,0,341,351,364,302,271,330,598,610,310,536,585,317,0,,,,
2,1789067398496,7614,3053,37209,8559443,131946,-2557081,0,0,0,299,236,184,257,159,217,249,134,187,198,204,163,0,,,,
1,1789067398512,1282,1153,11423,783129,108734,-35430,0,0,0,352,375,382,304,287,331,593,612,318,533,586,331,0,,,,
2,1789067398512,7925,15908,28518,7270518,-277332,-2724458,0,0,0,298,240,184,262,161,215,260,131,189,200,197,159,0,,,,
1,1789067398528,588,526,10375,654847,-324980,-47647,0,0,0,353,378,397,305,300,337,598,603,326,531,581,350,0,,,,
2,1789067398528,8968,25742,19712,3747047,-1262047,-2162462,0,0,0,298,238,177,262,161,208,257,127,181,192,194,147,0,,,,
1,1789067398544,-157,349,10930,568104,-502131,-50090,0,0,0,357,373,414,314,308,346,601,578,329,524,563,368,0,,,,
2,1789067398544,6795,24177,18224,-905302,-1766622,-172263,0,0,0,302,235,175,265,161,209,257,129,178,207,200,148,0,,,,
1,1789067398560,-43,1129,10978,593761,-434936,-45204,0,0,0,363,379,411,324,317,355,598,545,335,506,539,363,0,,,,
2,1789067398560,6882,18267,13778,-3390302,-2294409,1589471,0,0,0,298,235,174,266,164,211,258,136,181,222,207,154,0,,,,
1,1789067398576,110,1497,10839,767246,-419053,-31764,0,0,0,363,391,386,325,324,356,569,493,345,475,507,374,0,,,,
2,1789067398576,9916,13304,6953,-3616322,-1665218,2283414,0,0,0,298,238,173,265,163,211,259,138,184,198,205,151,0,,,,
1,1789067398592,129,1335,10705,1009149,-480140,-15882,0,0,0,368,393,357,333,330,365,582,453,340,454,469,401,0,,,,
2,1789067398592,7599,12615,5915,-3733608,445931,1988977,0,0,0,300,236,175,265,163,212,259,137,179,199,208,146,0,,,,
1,1789067398608,52,1153,10595,1167974,-538783,-12217,0,0,0,383,401,357,346,339,366,565,405,344,439,428,412,0,,,,
2,1789067398608,2751,11529,8513,-4636467,1246165,1828930,0,0,0,300,238,175,267,162,210,259,136,182,199,208,146,0,,,,
1,1789067398624,-71,1043,10423,1248608,-559552,-19547,0,0,0,379,404,341,348,341,368,561,371,347,443,402,433,0,,,,
2,1789067398624,880,8456,10696,-5795889,715934,1598023,0,0,0,307,245,181,268,157,209,263,133,182,206,207,148,0,,,,
1,1789067398640,-244,741,10169,1290147,-532674,-17104,0,0,0,390,430,331,357,351,372,545,331,359,429,379,441,0,,,,
2,1789067398640,1689,4024,11438,-6691417,344527,531452,0,0,0,305,241,175,274,163,217,266,136,190,206,207,145,0,,,,
1,1789067398656,-497,272,9887,1259604,-455705,8552,0,0,0,402,423,324,369,363,376,546,295,357,412,360,459,0,,,,
2,1789067398656,464,1852,12505,-6982189,559552,-624304,0,0,0,308,238,181,274,165,218,264,134,182,201,204,143,0,,,,
1,1789067398672,-799,-76,9614,1131322,-326202,65973,0,0,0,411,436,324,376,378,380,545,275,359,386,335,474,0,,,,
2,1789067398672,-1526,1832,14443,-6973637,673173,-1125213,0,0,0,302,232,177,279,169,221,265,134,182,217,209,154,0,,,,
1,1789067398688,-1105,-291,9538,971275,-125838,156381,0,0,0,421,448,326,380,392,382,541,251,364,371,309,491,0,,,,
2,1789067398688,-1866,2306,16511,-6985854,684169,-827111,0,0,0,304,229,177,278,163,221,268,130,179,208,205,145,0,,,,
1,1789067398704,-1134,-392,9739,899193,147829,270002,0,0,0,437,457,332,388,415,390,533,225,368,362,287,504,0,,,,
2,1789067398704,-641,2378,18143,-7087258,807563,31764,0,0,0,304,231,173,276,160,221,271,132,183,204,203,142,0,,,,
1,1789067398720,-894,-512,9954,890641,371406,366519,0,0,0,456,471,331,396,427,396,530,208,364,360,274,527,0,,,,
2,1789067398720,1000,1574,19937,-7263187,1117883,1065348,0,0,0,302,231,170,276,161,221,270,130,182,202,200,140,0,,,,
1,1789067398736,-679,-646,10040,910189,442266,436157,0,0,0,472,486,326,399,431,398,532,198,363,355,260,550,0,,,,
2,1789067398736,2723,-272,22287,-7376808,1420872,1766622,0,0,0,303,236,169,278,162,221,267,127,181,203,200,141,0,,,,
1,1789067398752,-507,-760,10318,960280,430049,497244,0,0,0,476,498,307,401,449,404,532,195,365,348,245,561,0,,,,
2,1789067398752,3522,-3785,25489,-7259522,1645670,1418429,0,0,0,302,239,169,277,159,219,265,124,182,202,199,144,0,,,,
1,1789067398768,-205,-861,11083,1131322,364075,548556,0,0,0,479,516,265,408,474,410,525,203,362,339,241,576,0,,,,
2,1789067398768,3263,-8442,29040,-7066489,1671327,642630,0,0,0,302,235,171,279,160,220,268,120,186,203,197,144,0,,,,
1,1789067398784,291,-990,11892,1413542,262672,557109,0,0,0,493,536,231,411,490,414,519,211,367,319,237,579,0,,,,
2,1789067398784,3292,-14587,31150,-6893003,1501506,8552,0,0,0,303,233,172,287,164,225,269,114,189,206,198,144,0,,,,
1,1789067398800,1344,-1105,12318,1759291,57421,461814,0,0,0,496,541,214,424,492,427,510,206,373,307,217,575,0,,,,
2,1789067398800,3723,-24517,30050,-6480058,1600466,-248011,0,0,0,299,235,171,288,164,232,265,111,192,203,196,147,0,,,,
1,1789067398816,1923,-1119,12916,2074498,-169820,284663,0,0,0,503,537,207,431,479,438,493,195,385,298,209,577,0,,,,
2,1789067398816,1742,-36654,25704,-5347514,2039068,-425162,0,0,0,297,239,175,284,164,240,272,110,197,199,195,150,0,,,,
1,1789067398832,1502,-1014,14328,2528982,-367740,85521,0,0,0,508,530,206,430,483,441,463,187,378,294,201,579,0,,,,
2,1789067398832,-4493,-44780,19650,-3472158,2420248,-454483,0,0,0,294,235,177,277,159,234,278,107,193,198,196,149,0,,,,
1,1789067398848,440,-1062,15482,3150842,-489913,-30543,0,0,0,508,520,201,431,483,458,418,178,384,287,197,564,0,,,,
2,1789067398848,-8145,-49317,14606,-1528384,1764178,-102625,0,0,0,295,222,172,286,152,233,286,133,191,204,209,149,0,,,,
1,1789067398864,-521,-1225,15994,3861890,-511905,-14660,0,0,0,505,512,204,425,470,435,368,185,374,266,192,550,0,,,,
2,1789067398864,-6934,-51543,11136,145385,691499,315206,0,0,0,292,172,157,285,119,219,310,237,184,225,276,127,0,,,,
1,1789067398880,-1584,-1182,16635,4658458,-406836,119729,0,0,0,497,504,214,424,461,440,320,182,381,246,177,520,0,,,,
2,1789067398880,-7035,-42440,15046,1852143,-327423,839328,0,0,0,271,120,140,251,82,205,335,375,165,225,361,111,0,,,,
1,1789067398896,-2842,-1550,18114,5499008,-237015,376292,0,0,0,454,486,209,421,462,448,300,196,387,223,171,482,0,,,,
2,1789067398896,-9676,-8083,19181,3560122,-2249205,1826487,0,0,0,271,138,141,235,84,201,326,453,172,256,455,116,0,,,,
1,1789067398912,-3828,-2321,21636,6459289,0,728151,0,0,0,423,459,208,411,450,423,294,186,382,208,162,436,0,,,,
2,1789067398912,-9964,13965,16601,4400673,-3156951,1821600,0,0,0,285,162,158,251,92,224,392,519,170,336,534,108,0,,,,
1,1789067398928,-5742,-2991,27451,7440338,167377,1050688,0,0,0,385,428,197,376,417,394,305,182,367,203,158,408,0,,,,
2,1789067398928,-7523,4527,17855,4917465,-1962099,-42760,0,0,0,289,164,183,248,89,237,447,565,188,357,597,114,0,,,,
1,1789067398944,-6862,-2584,32098,8169711,65973,1376890,0,0,0,349,374,178,327,351,338,339,201,341,209,168,375,0,,,,
2,1789067398944,-1086,-6537,23225,4577824,-417831,-1175304,0,0,0,295,187,206,246,105,246,486,558,190,374,615,119,0,,,,
1,1789067398960,-5996,181,36080,8801346,-213802,1775174,0,0,0,320,307,192,266,256,279,382,227,313,226,211,347,0,,,,
2,1789067398960,4685,-6580,23976,3093421,134390,-742812,0,0,0,302,200,233,250,106,251,509,556,201,389,609,128,0,,,,
1,1789067398976,-6858,8805,31816,8801346,41538,2107485,0,0,0,308,276,211,237,206,258,395,239,304,236,234,337,0,,,,
2,1789067398976,2378,-1464,16080,1659109,-125838,-15882,0,0,0,327,204,242,273,125,269,517,560,203,393,596,130,0,,,,
1,1789067398992,-8528,18856,21564,7312056,697608,2368935,0,0,0,312,283,211,242,215,261,382,239,305,235,223,334,0,,,,
2,1789067398992,248,693,10437,985936,0,100181,0,0,0,320,244,252,279,153,284,517,563,205,398,580,154,0,,,,
1,1789067399008,-8657,22895,17645,2993239,1011592,1976759,0,0,0,320,291,213,242,219,259,377,238,299,235,222,332,0,,,,
2,1789067399008,756,229,8968,744033,332310,-62308,0,0,0,307,264,270,274,158,295,520,560,213,414,573,182,0,,,,
1,1789067399024,-5752,19487,18358,-2318844,1067792,769690,0,0,0,326,291,216,243,217,259,378,241,298,236,227,331,0,,,,
2,1789067399024,1832,-263,10117,502131,244346,-62308,0,0,0,305,250,276,273,147,293,525,551,218,416,559,190,0,,,,
1,1789067399040,-4455,12218,13768,-4295604,1868025,-217468,0,0,0,326,290,218,245,216,260,379,244,298,239,229,331,0,,,,
2,1789067399040,1703,282,10662,309097,70860,-26878,0,0,0,304,255,271,273,158,289,521,537,218,402,542,193,0,,,,
1,1789067399056,-5982,9121,8427,-3881437,1918116,-483805,0,0,0,328,291,218,248,218,263,374,247,298,241,233,330,0,,,,
2,1789067399056,1134,1000,10509,366519,53756,-40317,0,0,0,305,264,274,268,171,291,512,506,219,393,518,203,0,,,,
1,1789067399072,-5096,9447,7944,-4125783,821002,-657290,0,0,0,327,294,222,243,218,264,379,247,301,237,235,329,0,,,,
2,1789067399072,1005,1091,10179,594982,173485,-75747,0,0,0,303,239,278,264,155,295,503,462,224,382,478,211,0,,,,
1,1789067399088,-3163,8585,9351,-5178915,178372,-1082453,0,0,0,323,294,222,243,219,265,381,249,303,236,235,329,0,,,,
2,1789067399088,1119,942,9964,781907,272445,-92851,0,0,0,294,229,275,269,151,305,483,432,227,359,452,222,0,,,,
1,1789067399104,-3393,5872,10624,-6216164,161268,-1431868,0,0,0,321,296,222,243,219,265,381,249,301,235,235,329,0,,,,
2,1789067399104,1316,842,9968,872315,287106,-94073,0,0,0,302,243,271,266,150,306,476,408,234,329,417,226,0,,,,
1,1789067399120,-4608,2919,11227,-6596122,-316428,-1150870,0,0,0,319,293,221,246,218,266,388,247,302,242,236,329,0,,,,
2,1789067399120,1478,708,9997,921184,241902,-94073,0,0,0,289,245,270,270,163,328,482,368,249,313,400,246,0,,,,
1,1789067399136,-4024,593,12352,-6729291,-839328,-667064,0,0,0,313,289,218,247,216,267,388,247,301,239,236,326,0,,,,
2,1789067399136,1698,430,9825,932180,131946,-103847,0,0,0,292,267,283,270,196,341,459,331,256,286,375,257,0,,,,
1,1789067399152,-2943,-727,14022,-6680422,-1001818,-327423,0,0,0,312,289,218,249,219,270,389,247,301,243,237,325,0,,,,
2,1789067399152,1732,129,9466,877202,-17104,-129503,0,0,0,286,275,257,280,208,329,455,315,253,300,349,238,0,,,,
1,1789067399168,-2263,-1253,15927,-6671870,-1089783,-337197,0,0,0,312,290,220,248,218,269,391,248,300,242,239,323,0,,,,
2,1789067399168,1579,-100,9198,778242,-131946,-158824,0,0,0,301,285,271,296,207,340,449,292,268,307,326,254,0,,,,
1,1789067399184,-2096,-1478,17391,-6740287,-1160643,-806342,0,0,0,313,293,223,249,217,270,392,250,300,240,240,323,0,,,,
2,1789067399184,1407,-253,9126,676838,-171042,-188146,0,0,0,322,283,270,308,219,348,441,254,260,304,313,260,0,,,,
1,1789067399200,-2790,-2091,18482,-6643770,-1247386,-1528384,0,0,0,311,293,221,248,216,272,395,252,302,240,241,322,0,,,,
2,1789067399200,1316,-411,9222,604756,-169820,-207694,0,0,0,336,304,283,314,242,357,440,236,269,306,314,275,0,,,,
1,1789067399216,-3613,-2732,20186,-6407976,-1488067,-2083050,0,0,0,308,294,221,250,219,275,400,256,306,242,241,323,0,,,,
2,1789067399216,1383,-488,9428,564439,-174707,-221133,0,0,0,359,335,290,334,264,377,440,196,290,366,301,296,0,,,,
1,1789067399232,-3661,-4149,22861,-6239377,-1805717,-2092824,0,0,0,310,297,223,255,222,279,404,251,308,252,249,323,0,,,,
2,1789067399232,1598,-469,9710,563217,-207694,-245567,0,0,0,379,354,303,350,294,389,437,175,289,322,268,328,0,,,,
1,1789067399248,-2708,-7662,25513,-6287025,-1930334,-1590693,0,0,0,312,295,220,258,221,279,407,237,307,264,259,321,0,,,,
2,1789067399248,1713,-492,9920,597426,-296880,-295658,0,0,0,397,368,299,359,332,398,447,157,295,306,260,347,0,,,,
1,1789067399264,-660,-13850,25977,-6403089,-1800830,-979827,0,0,0,311,295,216,267,228,283,405,234,306,265,255,320,0,,,,
2,1789067399264,1742,-545,10131,670730,-377514,-362853,0,0,0,425,371,300,370,331,412,437,143,301,297,254,359,0,,,,
1,1789067399280,2311,-21282,24752,-6185621,-1732413,-629191,0,0,0,311,295,213,275,228,283,402,240,305,258,242,317,0,,,,
2,1789067399280,1828,-593,10562,801455,-403171,-445931,0,0,0,442,383,294,383,334,418,415,136,311,286,247,371,0,,,,
1,1789067399296,5144,-28690,21923,-5227784,-1238834,-586430,0,0,0,311,299,211,277,228,284,426,239,308,258,242,315,0,,,,
2,1789067399296,1694,-665,11385,1078788,-405614,-536339,0,0,0,453,407,283,401,365,429,393,123,328,287,234,388,0,,,,
1,1789067399312,5685,-35094,17367,-3878994,-489913,-641408,0,0,0,314,304,214,278,228,284,428,240,307,260,242,315,0,,,,
2,1789067399312,1550,-914,12366,1459967,-373849,-596204,0,0,0,464,425,262,423,392,457,358,107,329,288,219,413,0,,,,
1,1789067399328,4551,-41382,12208,-2285857,26878,-704938,0,0,0,314,301,215,283,228,287,429,240,307,266,252,318,0,,,,
2,1789067399328,1521,-1048,13677,1987755,-266337,-645073,0,0,0,470,434,238,433,410,466,321,112,313,281,215,436,0,,,,
1,1789067399344,2187,-44761,8911,-740368,267558,-907745,0,0,0,292,252,172,265,202,281,454,331,302,350,353,293,0,,,,
2,1789067399344,961,-976,14807,2658485,-151494,-669508,0,0,0,470,444,228,422,446,440,288,128,308,269,214,447,0,,,,
1,1789067399360,-67,-43340,10222,1044579,123394,-1202182,0,0,0,279,241,160,253,197,287,485,451,292,358,442,273,0,,,,
2,1789067399360,421,-636,15663,3395188,-84299,-613308,0,0,0,478,445,219,409,458,435,239,115,311,253,210,434,0,,,,
1,1789067399376,502,-29231,14099,3424510,244346,-1439198,0,0,0,282,259,162,262,213,290,507,506,295,391,479,255,0,,,,
2,1789067399376,1603,-717,16592,4289495,-69638,-574213,0,0,0,480,452,207,404,411,438,188,104,288,238,199,400,0,,,,
1,1789067399392,1631,-4029,18104,4846604,1320690,-1169196,0,0,0,284,266,173,264,212,296,532,538,296,442,510,243,0,,,,
2,1789067399392,3622,-957,18229,5376835,-69638,-733038,0,0,0,464,463,202,424,424,418,172,96,273,230,185,376,0,,,,
1,1789067399408,3321,7226,21861,4961447,1948660,-455705,0,0,0,293,280,234,268,209,303,562,567,298,455,530,226,0,,,,
2,1789067399408,5948,-1124,21660,6693861,-122173,-1182635,0,0,0,395,436,204,421,445,407,172,105,289,204,162,307,0,,,,
1,1789067399424,3938,-952,23153,4255287,1169196,217468,0,0,0,305,310,312,280,234,318,583,584,313,474,542,236,0,,,,
2,1789067399424,7968,-2081,26853,7997447,-190589,-1727526,0,0,0,332,386,181,381,371,367,165,101,259,182,148,244,0,,,,
1,1789067399440,1392,-5087,20952,2961474,563217,338419,0,0,0,325,345,355,300,285,336,593,583,327,513,554,280,0,,,,
2,1789067399440,10069,-3555,33941,9072570,17104,-2236988,0,0,0,296,311,168,322,268,287,224,134,203,186,164,193,0,,,,
1,1789067399456,-416,-3953,16908,1524719,572991,196698,0,0,0,350,374,375,317,318,344,603,572,331,532,562,326,0,,,,
2,1789067399456,10495,-569,39310,9417098,1139874,-2676811,0,0,0,279,215,172,214,143,215,219,146,182,169,221,157,0,,,,
1,1789067399472,392,-727,12691,715934,543670,13439,0,0,0,365,394,392,329,320,351,613,567,339,534,560,354,0,,,,
2,1789067399472,7039,9935,35228,8660847,1783726,-3167947,0,0,0,282,220,174,220,146,217,228,132,185,187,205,151,0,,,,
1,1789067399488,961,488,10806,519235,186924,-47647,0,0,0,375,408,397,344,331,362,613,556,344,535,555,372,0,,,,
2,1789067399488,6709,21861,22512,6778160,1301142,-3297450,0,0,0,300,220,177,236,149,222,228,111,184,195,195,154,0,,,,
1,1789067399504,564,449,10768,583987,-131946,-35430,0,0,0,383,417,398,345,336,365,606,525,342,519,547,383,0,,,,
2,1789067399504,5163,28164,17559,1943773,224798,-2003637,0,0,0,290,215,182,227,144,217,233,120,186,189,200,153,0,,,,
1,1789067399520,244,588,11203,686612,-210137,-12217,0,0,0,392,421,403,345,338,369,608,497,347,505,515,394,0,,,,
2,1789067399520,4230,23618,15338,-2480112,-1467298,112399,0,0,0,285,214,182,223,146,214,232,129,186,187,203,150,0,,,,
1,1789067399536,507,904,11217,835663,-260228,-3665,0,0,0,391,422,385,349,346,375,597,449,347,497,483,409,0,,,,
2,1789067399536,8968,14946,7461,-3331659,-1919338,1246165,0,0,0,291,218,182,225,145,215,228,129,186,184,207,149,0,,,,
1,1789067399552,588,875,10878,1033583,-434936,-4886,0,0,0,394,426,369,352,350,383,584,410,358,463,445,423,0,,,,
2,1789067399552,9916,12754,3225,-3098308,-119729,1121548,0,0,0,290,217,181,226,145,217,229,130,187,184,208,147,0,,,,
1,1789067399568,349,646,10581,1182635,-587652,-3665,0,0,0,401,431,369,347,348,376,563,390,360,442,420,446,0,,,,
2,1789067399568,4489,12873,5460,-3733608,1604132,951728,0,0,0,289,216,179,227,149,218,235,133,190,188,207,145,0,,,,
1,1789067399584,167,449,10327,1214400,-586430,-3665,0,0,0,397,431,360,356,360,385,558,347,370,424,382,452,0,,,,
2,1789067399584,105,10595,8978,-4951673,1446528,1205847,0,0,0,293,220,179,229,149,218,238,132,190,190,207,146,0,,,,
1,1789067399600,81,282,10035,1205847,-526565,-13439,0,0,0,400,438,340,363,370,382,549,300,369,408,354,468,0,,,,
2,1789067399600,655,6403,10078,-5841093,814894,1122770,0,0,0,290,219,177,230,151,217,234,131,188,185,207,144,0,,,,
1,1789067399616,-191,-43,9849,1167974,-450818,0,0,0,0,401,447,316,365,385,383,539,272,368,400,334,482,0,,,,
2,1789067399616,23,3613,11165,-6240599,976162,521678,0,0,0,290,218,179,229,150,218,230,131,188,180,205,141,0,,,,
1,1789067399632,-674,-335,9801,1054353,-313984,100181,0,0,0,413,453,300,373,390,389,519,249,366,367,300,487,0,,,,
2,1789067399632,-2608,2555,13299,-6403089,1081231,-146607,0,0,0,289,217,179,230,148,220,230,128,187,181,208,143,0,,,,
1,1789067399648,-985,-612,9839,941954,-65973,228463,0,0,0,437,459,291,386,396,396,515,226,361,360,280,499,0,,,,
2,1789067399648,-4020,2359,15300,-6531371,937067,-503352,0,0,0,288,215,181,233,151,221,234,132,191,182,210,144,0,,,,
1,1789067399664,-971,-818,9844,867428,285884,351858,0,0,0,445,476,290,382,410,397,509,217,362,356,273,511,0,,,,
2,1789067399664,-3977,2464,16994,-6687752,934623,-448375,0,0,0,293,218,183,231,153,222,230,123,187,181,209,144,0,,,,
1,1789067399680,-492,-1009,9643,841772,511905,433714,0,0,0,451,489,296,373,418,394,499,211,363,350,268,525,0,,,,
2,1789067399680,-4201,2014,18592,-6838025,1095892,-59864,0,0,0,292,219,180,234,156,223,230,123,189,178,206,140,0,,,,
1,1789067399696,124,-1139,9595,835663,576656,467922,0,0,0,471,494,297,384,423,393,497,202,362,353,263,539,0,,,,
2,1789067399696,-4632,1340,20535,-6919881,1117883,465479,0,0,0,292,219,180,235,158,225,230,124,189,185,207,146,0,,,,
1,1789067399712,507,-1206,9743,847880,544891,445931,0,0,0,483,506,293,403,436,396,497,199,364,354,259,551,0,,,,
2,1789067399712,-4656,277,23062,-6875899,973719,873537,0,0,0,293,224,186,237,159,232,229,121,193,179,207,148,0,,,,
1,1789067399728,430,-1210,10279,896750,530231,409279,0,0,0,491,523,291,408,448,398,492,198,366,360,253,563,0,,,,
2,1789067399728,-4776,-2172,26417,-6814812,850324,605978,0,0,0,293,225,186,239,159,234,229,127,200,181,207,150,0,,,,
1,1789067399744,162,-1249,11007,1017701,566882,408057,0,0,0,515,531,276,413,463,397,485,190,366,370,244,569,0,,,,
2,1789067399744,-5522,-5695,29518,-6916216,625526,12217,0,0,0,293,219,186,242,154,235,236,116,202,179,202,150,0,,,,
1,1789067399760,301,-1349,11691,1222952,601091,442266,0,0,0,514,535,269,413,469,403,462,192,356,341,237,570,0,,,,
2,1789067399760,-5250,-11634,31146,-7070154,175929,-450818,0,0,0,290,218,180,247,160,235,241,115,202,178,201,146,0,,,,
1,1789067399776,1048,-1502,12270,1503950,551000,434936,0,0,0,511,539,242,412,462,403,442,195,348,341,240,571,0,,,,
2,1789067399776,-1191,-22100,29112,-6731734,-246789,-563217,0,0,0,287,218,177,253,163,242,247,118,206,179,201,146,0,,,,
1,1789067399792,1675,-1588,12964,1846034,420275,366519,0,0,0,528,539,244,403,467,407,421,187,343,343,244,562,0,,,,
2,1789067399792,2818,-34089,23632,-5615073,-118507,-635299,0,0,0,290,223,175,254,163,242,249,119,204,179,199,144,0,,,,
1,1789067399808,1837,-1541,13797,2293188,267558,239459,0,0,0,512,530,228,400,463,406,386,185,337,327,236,548,0,,,,
2,1789067399808,-1871,-43201,16879,-3451388,813672,-287106,0,0,0,289,223,163,254,163,233,243,139,192,188,217,138,0,,,,
1,1789067399824,1579,-1459,14553,2828306,195476,109955,0,0,0,512,532,225,392,462,399,346,180,330,319,235,538,0,,,,
2,1789067399824,-8825,-48087,13701,-1393994,923628,669508,0,0,0,279,200,152,248,142,222,253,221,180,210,280,130,0,,,,
1,1789067399840,483,-1564,15381,3491705,226020,51312,0,0,0,513,520,217,410,452,401,319,177,326,302,224,514,0,,,,
2,1789067399840,-9763,-51849,14845,521678,-19547,1624901,0,0,0,266,156,145,243,112,216,285,346,174,242,368,126,0,,,,
1,1789067399856,-966,-1828,16980,4249178,318871,197920,0,0,0,500,501,225,405,447,407,293,180,335,270,201,482,0,,,,
2,1789067399856,-6082,-36554,17219,3202155,-1167974,1529606,0,0,0,262,131,138,248,105,220,311,431,172,264,450,126,0,,,,
1,1789067399872,-2278,-2014,19731,5158146,500909,492357,0,0,0,474,478,226,396,446,399,284,174,333,261,190,459,0,,,,
2,1789067399872,-1837,-1933,19148,4868595,-2111150,605978,0,0,0,267,139,149,246,102,232,337,474,176,274,527,131,0,,,,
1,1789067399888,-3656,-2474,24134,6272364,888198,885754,0,0,0,436,456,219,387,434,386,286,176,330,251,180,433,0,,,,
2,1789067399888,-808,13079,19200,4984660,-1947438,-386066,0,0,0,272,146,161,249,89,237,392,512,185,318,577,137,0,,,,
1,1789067399904,-5259,-2866,29250,7343821,1345125,1229060,0,0,0,390,435,198,358,405,359,288,188,320,226,176,411,0,,,,
2,1789067399904,-1474,1057,20397,4945564,-416610,-516791,0,0,0,291,152,183,253,80,243,463,522,198,368,601,124,0,,,,
1,1789067399920,-6149,-1727,32744,8289441,1534493,1574810,0,0,0,334,388,183,305,341,307,313,218,298,228,214,374,0,,,,
2,1789067399920,-478,-6446,20966,4072027,649960,-367740,0,0,0,296,189,219,266,110,268,500,519,199,372,614,121,0,,,,
1,1789067399936,-6757,1167,34850,9101892,1171639,2004859,0,0,0,300,319,204,255,255,265,354,242,281,258,271,337,0,,,,
2,1789067399936,1579,-3608,17190,2535090,426383,-312763,0,0,0,298,191,286,274,101,308,522,531,218,387,610,149,0,,,,
1,1789067399952,-8188,7915,29164,8668177,1481959,2359161,0,0,0,311,292,225,235,213,256,361,236,276,259,272,340,0,,,,
2,1789067399952,1837,-1043,12988,1342681,174707,-223576,0,0,0,304,214,288,271,109,292,522,505,221,391,600,182,0,,,,
1,1789067399968,-10208,15405,19205,6126978,2225992,2323731,0,0,0,322,301,221,238,214,257,360,235,279,265,263,338,0,,,,
2,1789067399968,1244,-229,10380,730594,289550,-84299,0,0,0,314,219,289,277,109,305,551,503,234,397,591,190,0,,,,
1,1789067399984,-10581,17334,16314,1325577,1262047,1205847,0,0,0,328,294,217,239,216,259,367,241,281,267,271,337,0,,,,
2,1789067399984,1426,-315,10150,527787,417831,-15882,0,0,0,307,233,299,272,144,310,544,511,236,394,579,198,0,,,,
1,1789067400000,-5876,13213,15108,-2772106,153938,-1064127,0,0,0,323,283,214,238,210,258,365,241,277,268,276,338,0,,,,
2,1789067400000,1670,23,10480,417831,329867,-23212,0,0,0,303,225,324,268,148,322,544,495,237,379,552,206,0,,,,
1,1789067400016,-4709,9164,10897,-3627317,673173,-2872288,0,0,0,329,288,216,243,217,262,368,243,278,272,277,338,0,,,,
2,1789067400016,1660,598,10643,474031,201585,-72082,0,0,0,316,217,318,280,145,341,549,467,245,386,526,214,0,,,,
1,1789067400032,-6972,7968,6882,-3028669,819781,-3610213,0,0,0,330,288,216,238,211,258,369,242,278,271,278,336,0,,,,
2,1789067400032,1430,727,10428,671951,173485,-118507,0,0,0,314,218,304,289,146,337,541,446,246,379,492,219,0,,,,
1,1789067400048,-5738,8126,6714,-3357315,-313984,-3407406,0,0,0,329,293,220,238,213,260,365,245,278,270,279,329,0,,,,
2,1789067400048,1244,617,10155,836885,197920,-141720,0,0,0,308,226,299,294,158,336,531,438,253,368,464,228,0,,,,
1,1789067400064,-3072,7355,7958,-4172209,-827111,-2952922,0,0,0,325,292,220,239,214,261,367,242,278,273,280,331,0,,,,
2,1789067400064,1273,459,10007,901637,217468,-128281,0,0,0,305,232,297,289,163,337,518,405,261,352,424,235,0,,,,
1,1789067400080,-2569,5814,9011,-4929682,-587652,-2316400,0,0,0,325,292,219,241,213,263,372,243,281,275,281,331,0,,,,
2,1789067400080,1445,248,9911,910189,182037,-100181,0,0,0,296,232,276,284,163,329,492,363,258,324,387,236,0,,,,
1,1789067400096,-3029,4096,9954,-5690820,-802676,-1376890,0,0,0,324,293,220,242,215,265,374,244,280,274,280,328,0,,,,
2,1789067400096,1560,19,9753,896750,139277,-98960,0,0,0,289,237,261,288,175,337,470,339,256,306,365,252,0,,,,
1,1789067400112,-2120,2703,11241,-6250373,-1222952,-724486,0,0,0,324,294,223,243,216,266,377,244,280,274,279,326,0,,,,
2,1789067400112,1660,-95,9538,851546,87964,-124616,0,0,0,296,249,271,289,186,346,467,310,260,310,335,267,0,,,,
1,1789067400128,-981,1517,12974,-6591235,-1364672,-474031,0,0,0,324,295,223,245,216,267,382,246,281,275,280,326,0,,,,
2,1789067400128,1770,-181,9337,781907,1221,-162490,0,0,0,307,267,261,287,220,334,463,281,265,314,312,248,0,,,,
1,1789067400144,-851,488,14788,-6773273,-1244943,-581543,0,0,0,322,293,221,246,218,269,383,244,282,277,280,327,0,,,,
2,1789067400144,1727,-378,9227,696386,-112399,-202807,0,0,0,300,299,260,292,277,339,458,269,274,285,308,252,0,,,,
1,1789067400160,-1316,-454,16247,-6839247,-1194852,-785572,0,0,0,321,294,222,245,216,269,383,243,281,277,279,326,0,,,,
2,1789067400160,1531,-674,9255,618195,-194255,-229685,0,0,0,305,279,251,307,233,350,452,259,279,293,297,259,0,,,,
1,1789067400176,-1962,-1206,17956,-6802595,-1306029,-1031140,0,0,0,320,295,224,247,214,269,385,244,283,278,282,329,0,,,,
2,1789067400176,1459,-794,9370,569326,-210137,-245567,0,0,0,341,300,269,327,239,366,459,188,288,316,264,281,0,,,,
1,1789067400192,-2483,-1689,20258,-6790377,-1479515,-1211956,0,0,0,326,296,223,249,215,271,389,241,281,277,278,330,0,,,,
2,1789067400192,1502,-799,9528,558330,-184481,-274889,0,0,0,351,332,269,335,263,381,459,167,313,298,252,298,0,,,,
1,1789067400208,-2981,-2742,23603,-6842912,-1709200,-1177748,0,0,0,320,299,222,251,215,271,394,239,281,266,265,326,0,,,,
2,1789067400208,1483,-760,9648,596204,-164933,-318871,0,0,0,381,347,293,343,283,413,459,154,327,288,222,329,0,,,,
1,1789067400224,-3096,-5920,26934,-6929655,-1916895,-797790,0,0,0,315,299,221,259,220,276,402,244,286,274,273,321,0,,,,
2,1789067400224,1502,-765,9849,667064,-127059,-366519,0,0,0,413,346,287,375,300,449,463,136,347,288,215,353,0,,,,
1,1789067400240,-2258,-12524,28293,-6924768,-1955990,-333532,0,0,0,317,308,224,260,222,276,400,238,284,274,262,318,0,,,,
2,1789067400240,1636,-914,10337,781907,-63529,-416610,0,0,0,426,383,281,379,334,448,445,133,340,289,203,393,0,,,,
1,1789067400256,-23,-21057,27662,-6605896,-2064724,-96516,0,0,0,318,308,219,274,225,284,417,240,291,267,248,319,0,,,,
2,1789067400256,1627,-1143,11103,1011592,-45204,-460592,0,0,0,433,408,263,385,384,459,436,137,337,280,207,398,0,,,,
1,1789067400272,3766,-29940,24757,-5662720,-2028072,-237015,0,0,0,318,308,219,277,228,286,424,238,293,267,245,324,0,,,,
2,1789067400272,1387,-1249,11844,1336573,-53756,-477696,0,0,0,446,421,245,405,396,456,405,128,330,278,196,416,0,,,,
1,1789067400288,5446,-38253,18430,-3992615,-1419650,-507018,0,0,0,320,315,221,281,230,287,427,241,291,267,248,325,0,,,,
2,1789067400288,1134,-1220,12696,1737300,12217,-447153,0,0,0,450,426,219,420,408,469,386,116,328,280,191,438,0,,,,
1,1789067400304,5321,-46130,12141,-2224771,-847880,-507018,0,0,0,322,310,220,284,233,289,432,244,291,269,252,324,0,,,,
2,1789067400304,1095,-1273,13759,2249205,145385,-410501,0,0,0,457,432,211,420,415,481,349,113,334,267,186,446,0,,,,
1,1789067400320,3278,-50274,7068,-401949,-357967,-470366,0,0,0,302,274,188,276,209,284,457,333,284,318,328,300,0,,,,
2,1789067400320,1091,-1191,14850,2967583,285884,-378736,0,0,0,464,432,208,417,413,481,298,112,349,250,189,444,0,,,,
1,1789067400336,2445,-43483,9298,1682322,-338419,-1028697,0,0,0,284,255,164,267,205,287,486,440,284,365,421,270,0,,,,
2,1789067400336,1665,-1024,15730,3814242,294437,-371406,0,0,0,462,436,200,422,429,473,263,106,358,257,195,424,0,,,,
1,1789067400352,6652,-22545,16243,3778812,1293812,-2036624,0,0,0,283,266,165,265,214,294,514,506,294,402,478,252,0,,,,
2,1789067400352,3029,-1186,16343,4779409,215024,-476474,0,0,0,451,439,193,430,440,465,224,94,375,256,179,411,0,,,,
1,1789067400368,9585,4178,19669,4915021,3539353,-2526538,0,0,0,290,271,200,266,208,299,547,545,303,449,513,237,0,,,,
2,1789067400368,4522,-1201,17525,5831319,151494,-773355,0,0,0,428,423,198,431,430,461,189,83,383,230,162,385,0,,,,
1,1789067400384,9164,6867,22526,4735427,3363424,-1132544,0,0,0,299,279,277,278,215,308,576,573,310,499,539,216,0,,,,
2,1789067400384,5891,-1689,21895,7011511,48869,-1218065,0,0,0,384,403,204,405,415,433,189,97,337,203,166,300,0,,,,
1,1789067400400,4895,-3005,25383,3843564,2178345,377514,0,0,0,314,315,348,299,258,325,585,582,323,532,554,218,0,,,,
2,1789067400400,7331,-2689,29303,8059755,-210137,-1604132,0,0,0,334,359,179,351,355,368,179,120,281,173,182,234,0,,,,
1,1789067400416,440,-7925,23699,2290744,1474628,626747,0,0,0,333,347,398,304,296,346,599,585,328,543,568,277,0,,,,
2,1789067400416,8245,-2971,36405,8734151,-359188,-1850921,0,0,0,294,281,165,288,249,289,182,91,214,177,170,191,0,,,,
1,1789067400432,1306,-2656,15707,1055575,1111774,-19547,0,0,0,367,383,400,319,305,342,613,587,335,548,569,326,0,,,,
2,1789067400432,8322,579,38970,9104335,12217,-2031737,0,0,0,292,207,165,217,138,206,228,137,179,174,212,155,0,,,,
1,1789067400448,2196,708,10624,662177,467922,-239459,0,0,0,360,378,419,325,327,358,588,577,361,537,553,339,0,,,,
2,1789067400448,9940,11485,31706,8752477,707381,-2278527,0,0,0,276,222,170,225,154,222,227,122,188,178,215,155,0,,,,
1,1789067400464,1277,569,10112,602313,-118507,-117286,0,0,0,371,410,417,337,332,358,619,555,350,553,544,348,0,,,,
2,1789067400464,7566,24852,21024,6317568,722042,-2211332,0,0,0,278,212,163,224,156,212,241,115,187,177,188,150,0,,,,
1,1789067400480,330,344,10715,586430,-353080,-34208,0,0,0,375,409,422,353,327,361,619,529,339,545,533,376,0,,,,
2,1789067400480,2971,30925,19506,1412320,-773355,-736703,0,0,0,279,212,163,226,156,215,239,118,187,172,190,147,0,,,,
1,1789067400496,335,722,11165,704938,-348193,-37873,0,0,0,379,420,411,354,341,369,607,494,338,521,500,392,0,,,,
2,1789067400496,3082,23412,18583,-3587000,-3511253,1404990,0,0,0,284,211,166,223,146,213,244,127,189,210,206,157,0,,,,
1,1789067400512,703,851,11045,962723,-455705,-54977,0,0,0,384,420,397,353,345,377,601,449,344,511,472,416,0,,,,
2,1789067400512,8662,14108,10155,-4376238,-3813020,1354899,0,0,0,284,210,166,223,145,212,235,122,187,185,202,149,0,,,,
1,1789067400528,588,579,10796,1131322,-620639,-59864,0,0,0,401,423,393,361,348,375,596,414,352,500,434,425,0,,,,
2,1789067400528,9040,11777,5910,-4295604,-2039068,356745,0,0,0,286,214,169,226,148,212,243,127,193,179,197,148,0,,,,
1,1789067400544,162,315,10605,1176526,-717155,-53756,0,0,0,394,423,375,363,356,383,587,379,359,470,406,441,0,,,,
2,1789067400544,3579,12208,8312,-5155702,-488692,-335975,0,0,0,284,211,167,227,149,215,241,120,186,181,200,150,0,,,,
1,1789067400560,-76,205,10471,1187522,-722042,-42760,0,0,0,392,427,350,368,361,385,577,344,357,428,374,459,0,,,,
2,1789067400560,2124,8250,10916,-6526484,-1160643,-270002,0,0,0,282,211,165,226,145,216,241,120,187,183,201,152,0,,,,
1,1789067400576,-244,81,10289,1209513,-675616,-17104,0,0,0,404,433,328,377,368,382,567,305,354,393,332,472,0,,,,
2,1789067400576,4546,3235,11136,-7164227,-1565036,-520457,0,0,0,287,214,169,226,145,215,243,120,188,183,199,151,0,,,,
1,1789067400592,-665,-138,10088,1238834,-575435,45204,0,0,0,408,441,304,381,382,386,551,268,357,365,293,490,0,,,,
2,1789067400592,5053,971,11830,-7071376,-836885,-1031140,0,0,0,288,215,173,228,146,217,244,120,188,184,200,151,0,,,,
1,1789067400608,-1225,-339,9940,1199739,-357967,194255,0,0,0,410,448,277,388,398,394,538,240,361,346,264,506,0,,,,
2,1789067400608,4034,674,13740,-6967528,-326202,-963945,0,0,0,286,213,171,229,144,219,244,122,189,185,202,153,0,,,,
1,1789067400624,-1363,-617,9849,1127657,-133168,371406,0,0,0,420,444,249,401,411,402,538,219,364,341,247,510,0,,,,
2,1789067400624,4618,756,15563,-6980967,-185703,-194255,0,0,0,288,213,170,228,144,217,244,121,188,185,203,152,0,,,,
1,1789067400640,-899,-947,9973,1071457,37873,521678,0,0,0,429,448,228,401,413,391,539,208,356,330,244,521,0,,,,
2,1789067400640,6920,258,16606,-7027393,240680,917519,0,0,0,288,212,172,232,147,221,246,118,189,189,203,151,0,,,,
1,1789067400656,-52,-1124,10265,1116661,112399,529009,0,0,0,447,456,218,407,424,396,537,204,355,329,241,541,0,,,,
2,1789067400656,8312,-545,17793,-6985854,941954,1935221,0,0,0,289,211,175,237,146,225,251,116,191,190,202,149,0,,,,
1,1789067400672,330,-1263,10356,1194852,119729,464257,0,0,0,463,476,204,417,432,394,539,206,361,342,234,539,0,,,,
2,1789067400672,8083,-1296,19961,-6867347,1554041,2636494,0,0,0,290,219,173,237,148,222,246,116,189,186,203,151,0,,,,
1,1789067400688,43,-1387,10385,1274264,76969,412944,0,0,0,461,484,205,417,436,410,544,201,366,458,213,514,0,,,,
2,1789067400688,6733,-2943,23426,-6800151,1879021,2563190,0,0,0,295,224,175,246,154,225,247,119,193,185,202,147,0,,,,
1,1789067400704,-445,-1517,10739,1406211,68416,442266,0,0,0,491,491,198,444,441,425,537,197,364,340,215,546,0,,,,
2,1789067400704,3795,-6015,27188,-6855129,2048842,1743409,0,0,0,285,208,170,242,144,236,251,113,202,184,196,148,0,,,,
1,1789067400720,-497,-1622,11112,1590693,122173,502131,0,0,0,470,492,202,445,450,417,521,194,366,327,208,563,0,,,,
2,1789067400720,311,-11026,29873,-6979746,1676214,520457,0,0,0,295,212,171,256,154,244,254,103,201,184,192,145,0,,,,
1,1789067400736,253,-1813,11375,1830152,174707,532674,0,0,0,481,508,203,438,455,409,512,197,374,314,202,563,0,,,,
2,1789067400736,-713,-18454,29944,-6858794,1067792,-515570,0,0,0,291,205,169,253,140,236,259,105,202,186,200,148,0,,,,
1,1789067400752,1110,-1990,11820,2074498,101403,449596,0,0,0,485,509,206,430,459,415,500,189,369,306,196,560,0,,,,
2,1789067400752,469,-28710,26628,-6080552,631634,-1202182,0,0,0,295,212,170,261,151,246,257,105,198,183,195,147,0,,,,
1,1789067400768,1416,-2144,12835,2399478,-50090,295658,0,0,0,486,517,203,429,462,431,468,186,379,294,190,566,0,,,,
2,1789067400768,-1354,-37114,21134,-4552167,912632,-1182635,0,0,0,293,213,165,259,150,237,267,114,204,194,198,147,0,,,,
1,1789067400784,942,-2177,14036,2838079,-199142,155159,0,0,0,488,520,201,431,461,447,435,184,380,282,190,561,0,,,,
2,1789067400784,-5809,-44570,15893,-2522873,1269377,-423940,0,0,0,282,202,148,258,153,229,273,145,195,210,237,138,0,,,,
1,1789067400800,134,-2201,15017,3480710,-305432,112399,0,0,0,485,514,203,448,473,444,416,190,392,280,189,542,0,,,,
2,1789067400800,-6575,-49499,12969,-582765,917519,896750,0,0,0,267,146,136,253,111,220,304,283,182,255,328,133,0,,,,
1,1789067400816,-358,-2163,16065,4238183,-394618,162490,0,0,0,467,505,207,452,477,464,382,199,411,259,179,521,0,,,,
2,1789067400816,-7341,-48480,16243,1828930,105068,1830152,0,0,0,259,121,129,254,96,218,329,416,167,281,447,126,0,,,,
1,1789067400832,-818,-2531,18032,5155702,-500909,277332,0,0,0,438,494,207,429,461,500,336,185,408,229,164,496,0,,,,
2,1789067400832,-9791,-28159,19104,4306599,-994488,2312735,0,0,0,269,145,138,255,106,227,339,478,171,309,546,122,0,,,,
1,1789067400848,-1856,-3096,22263,6265033,-646295,416610,0,0,0,406,467,201,424,456,464,328,169,399,233,158,455,0,,,,
2,1789067400848,-10346,3546,21655,5253441,-1731192,1516167,0,0,0,288,168,152,269,117,240,392,529,179,349,607,117,0,,,,
1,1789067400864,-3551,-3589,29528,7403686,-785572,579100,0,0,0,369,423,184,397,431,405,319,180,380,220,157,408,0,,,,
2,1789067400864,-6527,7188,22837,5315749,-1036027,-461814,0,0,0,312,174,192,273,113,245,465,557,186,401,637,117,0,,,,
1,1789067400880,-5384,-2900,34888,8362745,-992045,858876,0,0,0,339,369,167,336,350,344,343,195,334,211,175,363,0,,,,
2,1789067400880,760,-2172,23613,5086063,301767,-1525941,0,0,0,316,202,228,268,125,258,495,566,195,419,643,127,0,,,,
1,1789067400896,-4991,421,37961,9097005,-1302364,1287703,0,0,0,294,281,187,243,215,259,389,238,303,243,247,319,0,,,,
2,1789067400896,5250,-6704,21450,3898541,844215,-800233,0,0,0,310,228,249,279,141,279,501,571,202,418,625,145,0,,,,
1,1789067400912,-5503,9054,34314,9192300,-1165530,1733635,0,0,0,303,282,207,236,213,259,384,234,301,239,255,334,0,,,,
2,1789067400912,3015,-3067,15194,2147802,377514,-36651,0,0,0,320,222,296,292,142,297,518,566,215,437,593,174,0,,,,
1,1789067400928,-8207,19832,21976,7498981,-802676,2228436,0,0,0,303,282,204,242,219,259,378,231,301,239,243,324,0,,,,
2,1789067400928,894,-43,10614,1161865,149051,46425,0,0,0,314,243,343,280,179,323,520,567,244,428,580,207,0,,,,
1,1789067400944,-6422,21488,18808,2156354,-568104,2172236,0,0,0,316,283,210,240,216,260,383,244,299,249,253,330,0,,,,
2,1789067400944,1316,301,9609,927293,116064,-59864,0,0,0,310,250,353,279,184,332,519,546,243,428,557,223,0,,,,
1,1789067400960,-2421,16377,18449,-3395188,526565,1172861,0,0,0,320,279,211,240,211,259,384,244,297,250,257,332,0,,,,
2,1789067400960,1981,-263,10102,791681,-53756,-86742,0,0,0,308,257,341,289,189,333,532,508,251,432,510,242,0,,,,
1,1789067400976,-4221,10634,12538,-4337143,1694540,279776,0,0,0,321,279,214,239,208,260,385,245,297,252,256,334,0,,,,
2,1789067400976,1732,-210,10672,652404,-280998,-76969,0,0,0,317,273,337,295,191,331,533,469,248,429,482,248,0,,,,
1,1789067400992,-6776,8777,7365,-3898541,1167974,14660,0,0,0,320,279,215,241,208,264,387,246,299,253,256,333,0,,,,
2,1789067400992,938,349,10490,667064,-256563,-98960,0,0,0,322,264,310,311,195,336,538,445,240,421,461,239,0,,,,
1,1789067401008,-5345,8729,6365,-3903428,-425162,-68416,0,0,0,318,278,213,248,211,267,390,246,301,256,259,329,0,,,,
2,1789067401008,593,516,10275,770911,-70860,-108734,0,0,0,324,292,300,309,199,339,513,406,241,384,421,227,0,,,,
1,1789067401024,-2086,7111,8054,-4561941,-871093,-503352,0,0,0,316,279,212,247,211,266,391,247,302,256,259,324,0,,,,
2,1789067401024,756,387,10299,869872,114842,-86742,0,0,0,314,306,273,312,260,348,475,366,243,373,397,246,0,,,,
1,1789067401040,-1608,5116,9327,-5064072,-518013,-962723,0,0,0,314,281,212,243,210,265,391,248,300,256,258,321,0,,,,
2,1789067401040,1072,229,10356,927293,199142,-67195,0,0,0,338,317,281,313,248,345,451,329,247,349,383,253,0,,,,
1,1789067401056,-2904,3747,10232,-5523443,-395840,-1134987,0,0,0,310,282,210,244,212,267,392,250,300,256,262,321,0,,,,
2,1789067401056,1426,47,10193,943175,166155,-81855,0,0,0,335,321,277,311,243,355,405,285,248,312,344,258,0,,,,
1,1789067401072,-2292,2747,11844,-6093991,-828333,-1039692,0,0,0,307,281,210,245,213,269,395,250,303,258,264,323,0,,,,
2,1789067401072,1464,-181,9763,883311,28099,-122173,0,0,0,339,328,276,311,249,364,381,236,249,308,315,264,0,,,,
1,1789067401088,-1119,1646,13969,-6558249,-1078788,-949284,0,0,0,309,283,213,245,212,269,398,250,302,258,261,322,0,,,,
2,1789067401088,1373,-478,9413,794124,-113620,-146607,0,0,0,347,340,274,312,278,365,370,200,254,306,291,276,0,,,,
1,1789067401104,-545,703,15860,-6829473,-1077566,-910189,0,0,0,312,284,213,245,211,269,400,251,300,258,261,319,0,,,,
2,1789067401104,1296,-732,9265,711047,-212581,-163711,0,0,0,357,346,273,325,296,382,367,180,263,306,274,295,0,,,,
1,1789067401120,-205,-263,17501,-7011511,-1038470,-949284,0,0,0,312,286,215,243,211,270,401,250,303,259,265,322,0,,,,
2,1789067401120,1421,-847,9413,680503,-268780,-207694,0,0,0,371,354,271,341,296,387,369,161,270,306,258,309,0,,,,
1,1789067401136,47,-1124,19191,-7075041,-981049,-1144761,0,0,0,314,287,218,248,213,274,397,248,298,265,262,321,0,,,,
2,1789067401136,1464,-780,9676,739146,-331088,-296880,0,0,0,398,367,270,355,302,381,380,141,272,318,242,320,0,,,,
1,1789067401152,-220,-1435,21148,-7050606,-933402,-1467298,0,0,0,311,287,217,247,214,274,402,249,300,265,257,319,0,,,,
2,1789067401152,1210,-818,9815,814894,-344527,-376292,0,0,0,425,379,273,366,317,393,390,130,276,334,233,333,0,,,,
1,1789067401168,-1363,-2220,24469,-7070154,-1015258,-1631010,0,0,0,304,277,211,252,228,274,408,238,298,268,246,315,0,,,,
2,1789067401168,746,-961,9968,912632,-255341,-394618,0,0,0,432,388,275,369,327,414,375,129,281,324,229,337,0,,,,
1,1789067401184,-2215,-5068,27973,-7116580,-1224173,-1247386,0,0,0,308,282,215,257,216,277,420,233,302,273,246,315,0,,,,
2,1789067401184,674,-1100,10208,1028697,-151494,-377514,0,0,0,445,395,268,391,343,438,368,106,292,329,209,362,0,,,,
1,1789067401200,-1746,-11122,29920,-7147123,-1350012,-485026,0,0,0,307,288,215,260,216,280,422,230,303,266,248,316,0,,,,
2,1789067401200,1028,-1292,10634,1174082,-75747,-373849,0,0,0,457,405,250,395,369,438,362,99,298,316,200,387,0,,,,
1,1789067401216,569,-21177,28944,-6903998,-1301142,83077,0,0,0,310,292,215,271,222,284,428,227,304,266,249,315,0,,,,
2,1789067401216,1488,-1550,11251,1381777,-75747,-427605,0,0,0,461,427,259,402,408,449,341,104,312,304,200,427,0,,,,
1,1789067401232,2742,-30724,25230,-6036570,-908967,52534,0,0,0,309,292,213,277,221,285,437,227,304,271,251,312,0,,,,
2,1789067401232,1555,-1742,11897,1661553,-134390,-502131,0,0,0,490,437,233,411,426,435,319,108,308,300,193,416,0,,,,
1,1789067401248,2024,-40746,17597,-4228409,-494800,-351858,0,0,0,312,290,213,278,217,285,441,223,304,271,254,310,0,,,,
2,1789067401248,990,-1651,12553,2007303,-199142,-541226,0,0,0,485,444,253,395,444,436,285,102,335,268,192,441,0,,,,
1,1789067401264,1062,-49346,10586,-2354274,-434936,-540004,0,0,0,315,269,194,273,201,281,446,243,302,283,275,308,0,,,,
2,1789067401264,229,-1454,13390,2499660,-200363,-474031,0,0,0,498,460,229,399,424,456,246,109,295,249,202,423,0,,,,
1,1789067401280,784,-52562,6590,-579100,-420275,-547335,0,0,0,304,249,169,265,191,281,465,334,302,323,348,295,0,,,,
2,1789067401280,315,-1502,14276,3081204,-140499,-378736,0,0,0,481,473,225,391,449,457,209,110,301,243,210,402,0,,,,
1,1789067401296,2311,-47169,9552,1451415,-151494,-722042,0,0,0,289,256,166,263,205,289,494,458,303,375,443,267,0,,,,
2,1789067401296,1564,-1794,15328,3932750,-94073,-381179,0,0,0,503,492,225,479,461,420,174,107,276,251,201,418,0,,,,
1,1789067401312,5833,-21689,16635,3987728,2315179,-1194852,0,0,0,290,269,166,264,221,294,521,521,303,413,487,241,0,,,,
2,1789067401312,3283,-2005,16496,4885700,-122173,-568104,0,0,0,485,489,229,418,438,458,217,163,305,234,176,403,0,,,,
1,1789067401328,6432,3799,20406,5023755,4295604,-1192408,0,0,0,293,272,197,271,214,306,552,552,308,460,523,234,0,,,,
2,1789067401328,4905,-2182,18597,5812993,-226020,-930958,0,0,0,453,467,217,401,452,440,179,124,293,207,157,352,0,,,,
1,1789067401344,6298,5226,23881,4754975,3683517,-364075,0,0,0,298,268,277,282,204,314,584,583,312,524,563,215,0,,,,
2,1789067401344,6125,-3058,23488,6943094,-433714,-1439198,0,0,0,385,415,194,369,411,406,148,97,272,186,148,298,0,,,,
1,1789067401360,5015,-2742,25757,3957185,2218662,304210,0,0,0,313,333,368,301,265,335,592,583,320,558,589,202,0,,,,
2,1789067401360,7063,-4201,30959,8046316,-627969,-1853365,0,0,0,326,382,167,326,349,339,147,97,233,177,163,235,0,,,,
1,1789067401376,2818,-6910,22775,2444682,1211956,306654,0,0,0,340,380,384,304,302,339,606,581,327,582,605,282,0,,,,
2,1789067401376,7609,-3464,36348,8690168,-306654,-2051285,0,0,0,288,295,154,255,235,247,182,122,193,168,192,174,0,,,,
1,1789067401392,2828,-2378,15194,1154535,768468,-32986,0,0,0,362,398,408,314,334,338,612,575,337,582,572,336,0,,,,
2,1789067401392,8202,799,37152,8867319,657290,-2291966,0,0,0,272,234,165,211,168,211,214,135,184,165,206,152,0,,,,
1,1789067401408,2962,976,10796,740368,41538,-158824,0,0,0,359,402,432,330,328,352,613,554,331,589,563,378,0,,,,
2,1789067401408,8848,11414,28968,8118399,1286482,-2697580,0,0,0,272,253,175,216,181,220,220,128,191,170,202,155,0,,,,
1,1789067401424,1775,1258,10088,839328,-719599,-129503,0,0,0,375,410,433,346,328,364,630,532,334,574,542,386,0,,,,
2,1789067401424,6331,21311,21741,4643797,487470,-2445904,0,0,0,273,260,171,220,179,212,221,124,187,173,200,150,0,,,,
1,1789067401440,665,569,10720,895528,-833220,-95294,0,0,0,384,417,434,346,336,376,630,507,350,552,507,400,0,,,,
2,1789067401440,3441,23139,19650,-265115,-1303586,-838107,0,0,0,276,257,167,220,177,208,221,128,182,173,205,150,0,,,,
1,1789067401456,454,512,11026,927293,-756251,-70860,0,0,0,393,420,409,353,344,381,627,478,354,524,479,418,0,,,,
2,1789067401456,5498,16156,14625,-3477044,-3084869,1171639,0,0,0,279,258,166,217,178,209,219,134,187,175,210,149,0,,,,
1,1789067401472,665,713,10835,987158,-708603,-58643,0,0,0,394,416,381,360,348,386,623,447,359,490,453,429,0,,,,
2,1789067401472,9614,11476,6767,-3321885,-2114815,1529606,0,0,0,276,254,165,220,175,207,220,135,189,175,211,147,0,,,,
1,1789067401488,416,612,10524,1026253,-698829,-45204,0,0,0,386,419,354,361,355,385,607,405,360,459,421,438,0,,,,
2,1789067401488,7489,11160,4508,-3260798,-90408,1248608,0,0,0,281,258,170,220,178,213,222,138,193,178,213,146,0,,,,
1,1789067401504,272,531,10375,1031140,-631634,-26878,0,0,0,389,434,323,369,364,387,588,366,365,439,395,453,0,,,,
2,1789067401504,2038,11323,7312,-4230852,593761,1193630,0,0,0,288,259,173,216,176,210,219,132,187,177,212,145,0,,,,
1,1789067401520,358,516,10433,1036027,-552222,-20769,0,0,0,401,452,297,379,371,392,569,335,371,424,368,467,0,,,,
2,1789067401520,1727,8250,8805,-5384166,-79412,1220508,0,0,0,288,259,169,218,177,210,219,135,186,181,217,151,0,,,,
1,1789067401536,134,382,10399,1083674,-478918,-10995,0,0,0,405,457,275,389,384,393,547,302,368,400,332,474,0,,,,
2,1789067401536,3259,4302,9179,-6107430,-158824,698829,0,0,0,288,259,175,218,177,215,218,133,186,177,214,145,0,,,,
1,1789067401552,-416,119,10160,1099557,-356745,53756,0,0,0,411,454,258,399,399,391,538,272,365,375,304,477,0,,,,
2,1789067401552,2057,2388,10634,-6298020,456927,-160046,0,0,0,294,255,174,227,180,216,223,135,187,185,214,151,0,,,,
1,1789067401568,-1019,-177,9887,1023810,-129503,224798,0,0,0,415,462,257,392,399,388,529,250,364,360,283,487,0,,,,
2,1789067401568,153,1871,12668,-6513045,681725,-583987,0,0,0,286,253,176,220,176,216,224,136,189,172,215,147,0,,,,
1,1789067401584,-894,-425,9916,952949,163711,395840,0,0,0,425,463,262,395,404,400,523,229,372,354,268,500,0,,,,
2,1789067401584,-244,1789,14247,-6774495,618195,-367740,0,0,0,312,248,177,236,176,220,233,137,191,183,212,147,0,,,,
1,1789067401600,-483,-636,9925,932180,428827,530231,0,0,0,437,480,256,395,420,396,516,222,370,347,269,509,0,,,,
2,1789067401600,775,1450,15352,-6936985,840550,315206,0,0,0,298,250,175,231,179,222,229,135,192,181,214,150,0,,,,
1,1789067401616,153,-847,9906,982271,500909,586430,0,0,0,462,487,260,414,427,398,507,216,367,350,260,522,0,,,,
2,1789067401616,1378,904,16913,-6928433,1351233,1202182,0,0,0,290,251,174,224,172,217,228,129,192,179,210,148,0,,,,
1,1789067401632,636,-1057,9940,1061683,469144,576656,0,0,0,461,502,250,413,438,403,503,205,367,352,255,539,0,,,,
2,1789067401632,1526,0,19301,-6914994,1602910,1787391,0,0,0,288,252,174,250,191,217,230,129,192,177,208,147,0,,,,
1,1789067401648,670,-1052,10212,1132544,464257,549778,0,0,0,467,511,245,404,458,406,495,204,364,335,249,552,0,,,,
2,1789067401648,1335,-1765,22167,-6947981,1653001,1711644,0,0,0,283,256,175,253,196,224,231,140,191,178,215,149,0,,,,
1,1789067401664,354,-1124,10758,1226617,511905,547335,0,0,0,472,523,238,407,458,405,490,208,361,324,245,558,0,,,,
2,1789067401664,76,-4962,25599,-7045719,1534493,866206,0,0,0,278,257,175,237,183,230,234,139,195,180,215,149,0,,,,
1,1789067401680,507,-1407,11222,1409876,543670,583987,0,0,0,481,544,232,405,460,401,487,204,359,325,240,564,0,,,,
2,1789067401680,-1789,-9973,28131,-7133684,1174082,-21991,0,0,0,277,257,176,238,181,235,236,127,198,180,206,149,0,,,,
1,1789067401696,1564,-1526,11442,1629788,491135,574213,0,0,0,488,551,230,407,469,411,481,201,360,320,234,558,0,,,,
2,1789067401696,-2890,-17420,28944,-6980967,808785,-480140,0,0,0,277,259,181,241,185,240,235,124,196,179,204,151,0,,,,
1,1789067401712,3125,-1440,11730,1891238,317649,423940,0,0,0,488,542,223,410,474,409,471,195,359,316,227,560,0,,,,
2,1789067401712,-2555,-27724,27236,-6246707,625526,-610865,0,0,0,277,256,186,243,183,240,240,125,199,177,203,150,0,,,,
1,1789067401728,3091,-1416,12892,2218662,68416,155159,0,0,0,488,538,218,411,469,407,451,186,360,305,216,561,0,,,,
2,1789067401728,-2995,-36826,22708,-4888143,684169,-891863,0,0,0,278,258,193,239,177,238,239,128,197,171,196,142,0,,,,
1,1789067401744,1665,-1608,14486,2686585,-134390,-30543,0,0,0,488,541,213,421,463,413,429,181,357,292,202,549,0,,,,
2,1789067401744,-5805,-43254,16817,-3229033,702495,-951728,0,0,0,280,251,186,242,167,236,247,146,197,177,210,140,0,,,,
1,1789067401760,469,-1761,15601,3407406,-256563,0,0,0,0,490,534,210,424,463,415,397,189,359,277,191,529,0,,,,
2,1789067401760,-8604,-46795,12337,-1573588,497244,-349414,0,0,0,267,179,143,255,134,223,280,254,184,210,288,130,0,,,,
1,1789067401776,339,-1698,16755,4202752,-339641,116064,0,0,0,486,522,213,419,467,422,347,194,368,251,181,509,0,,,,
2,1789067401776,-9179,-48872,14620,364075,-175929,456927,0,0,0,267,109,135,258,84,208,335,388,174,247,373,123,0,,,,
1,1789067401792,143,-1713,19023,5126381,-383623,252898,0,0,0,459,504,215,423,472,431,302,184,375,230,171,482,0,,,,
2,1789067401792,-8054,-34529,18200,2844188,-1869247,742812,0,0,0,267,132,132,255,94,213,371,471,165,265,508,113,0,,,,
1,1789067401808,-985,-2220,24058,6315124,-280998,409279,0,0,0,423,468,218,419,460,417,289,178,381,221,163,441,0,,,,
2,1789067401808,-3345,-2680,19229,4261395,-3331659,377514,0,0,0,281,148,154,261,104,229,414,547,173,315,588,119,0,,,,
1,1789067401824,-2689,-2402,30629,7511198,-19547,572991,0,0,0,376,431,201,389,416,390,298,178,359,216,159,412,0,,,,
2,1789067401824,-923,8643,21339,4604702,-2917492,-179594,0,0,0,287,160,190,266,109,247,484,581,197,388,620,133,0,,,,
1,1789067401840,-4474,-1340,36448,8587543,245567,817337,0,0,0,339,379,176,314,339,330,323,204,327,215,189,394,0,,,,
2,1789067401840,-1445,-153,24402,4475198,-1649336,-485026,0,0,0,301,219,207,295,145,255,522,590,185,480,647,117,0,,,,
1,1789067401856,-4886,1301,40712,9472076,399505,1174082,0,0,0,302,267,206,220,182,250,379,249,296,247,253,356,0,,,,
2,1789067401856,-1373,-5795,21670,3059213,-853989,-306654,0,0,0,308,245,219,293,158,263,559,588,189,495,636,133,0,,,,
1,1789067401872,-6623,10988,34869,9473298,963945,1505171,0,0,0,301,281,215,229,209,252,382,248,295,254,272,345,0,,,,
2,1789067401872,-1100,-2986,15376,1530828,-377514,-94073,0,0,0,307,265,227,289,195,280,575,581,208,507,630,165,0,,,,
1,1789067401888,-9686,22718,20626,7143458,1589471,1811826,0,0,0,323,285,218,237,214,257,374,242,296,259,260,359,0,,,,
2,1789067401888,-765,1172,10361,860098,114842,-17104,0,0,0,309,276,244,312,219,302,598,569,231,497,598,212,0,,,,
1,1789067401904,-7973,23005,18908,1618792,959058,1655444,0,0,0,329,278,221,236,207,257,375,243,297,262,261,368,0,,,,
2,1789067401904,-81,1713,9131,897971,564439,-15882,0,0,0,314,272,260,316,211,314,605,559,234,480,570,213,0,,,,
1,1789067401920,-3531,17429,17994,-3187494,983493,806342,0,0,0,324,265,220,233,200,256,371,243,294,266,266,371,0,,,,
2,1789067401920,703,425,10021,971275,629191,-10995,0,0,0,314,261,268,302,205,327,604,527,245,457,536,220,0,,,,
1,1789067401936,-2842,10801,12802,-4332256,2140471,-452040,0,0,0,327,268,221,231,200,255,370,244,293,266,269,373,0,,,,
2,1789067401936,1067,-33,10715,915076,488692,-18325,0,0,0,317,255,270,302,202,333,602,496,259,434,493,246,0,,,,
1,1789067401952,-5508,9882,8695,-3849672,1949881,-1398881,0,0,0,328,275,222,232,205,256,373,248,293,262,275,370,0,,,,
2,1789067401952,851,339,10504,857654,367740,-32986,0,0,0,322,257,272,306,197,332,584,469,254,404,453,253,0,,,,
1,1789067401968,-5125,9629,8647,-4471533,1066570,-2217440,0,0,0,324,275,222,232,206,258,374,249,293,261,276,365,0,,,,
2,1789067401968,770,559,10117,840550,322536,-37873,0,0,0,315,267,266,308,208,345,556,426,251,361,413,255,0,,,,
1,1789067401984,-4163,7657,10480,-5599190,916297,-2798984,0,0,0,321,275,222,230,207,258,375,248,295,260,275,363,0,,,,
2,1789067401984,923,492,9992,839328,273667,-39095,0,0,0,306,276,244,322,222,355,537,391,256,360,382,263,0,,,,
1,1789067402000,-6613,4369,11418,-6256481,1127657,-2635272,0,0,0,319,277,222,228,210,258,375,246,293,259,278,362,0,,,,
2,1789067402000,837,373,10021,844215,185703,-41538,0,0,0,316,274,238,339,237,360,513,353,253,375,361,267,0,,,,
1,1789067402016,-9116,1526,12155,-6665761,758694,-1747074,0,0,0,319,280,224,229,209,259,378,245,292,259,278,361,0,,,,
2,1789067402016,804,229,10054,861319,140499,-43982,0,0,0,302,286,240,328,251,369,487,326,267,308,339,271,0,,,,
1,1789067402032,-9700,-784,13486,-7007846,-29321,-399505,0,0,0,322,285,225,232,207,261,381,248,293,260,279,360,0,,,,
2,1789067402032,947,76,9954,878424,127059,-63529,0,0,0,299,313,231,327,276,375,463,283,273,302,317,278,0,,,,
1,1789067402048,-8523,-2455,15376,-7249748,-529009,394618,0,0,0,322,276,222,232,203,261,385,247,293,262,278,360,0,,,,
2,1789067402048,1253,-38,9719,855211,84299,-117286,0,0,0,302,318,223,339,276,360,494,257,283,295,290,284,0,,,,
1,1789067402064,-7695,-3723,16865,-7445225,-810007,416610,0,0,0,319,274,227,228,202,259,382,243,293,271,279,359,0,,,,
2,1789067402064,1454,-220,9562,806342,30543,-197920,0,0,0,301,349,215,346,372,387,460,226,297,271,280,295,0,,,,
1,1789067402080,-7776,-4666,17669,-7534411,-1025031,-317649,0,0,0,317,274,224,228,198,258,386,243,294,271,279,359,0,,,,
2,1789067402080,1407,-492,9547,773355,-47647,-295658,0,0,0,330,347,212,360,340,389,458,173,292,266,247,300,0,,,,
1,1789067402096,-9045,-5125,18635,-7259522,-1452637,-1516167,0,0,0,320,280,225,229,201,258,390,243,295,262,267,347,0,,,,
2,1789067402096,1545,-641,9633,778242,-130725,-384845,0,0,0,338,368,215,361,380,403,444,171,295,250,261,316,0,,,,
1,1789067402112,-9672,-5293,21038,-6824586,-2138028,-2351831,0,0,0,313,275,219,231,200,258,394,239,295,271,273,338,0,,,,
2,1789067402112,1799,-636,10026,836885,-168598,-493579,0,0,0,359,383,206,378,382,411,430,155,303,254,230,343,0,,,,
1,1789067402128,-8413,-6862,24891,-6560692,-2846632,-2448347,0,0,0,314,278,223,234,204,262,398,236,296,275,275,341,0,,,,
2,1789067402128,1751,-727,10413,1010371,-177150,-632856,0,0,0,390,393,201,407,430,435,412,149,318,300,233,366,0,,,,
1,1789067402144,-4857,-12519,27609,-6659652,-3038443,-1579697,0,0,0,322,281,225,240,206,265,405,237,299,271,270,342,0,,,,
2,1789067402144,1411,-1014,10586,1219287,-201585,-756251,0,0,0,413,410,201,434,427,461,409,141,317,279,220,396,0,,,,
1,1789067402160,-512,-19885,27446,-6655987,-2756223,-467922,0,0,0,326,280,223,242,208,265,412,242,301,254,247,343,0,,,,
2,1789067402160,650,-1229,10868,1398881,-272445,-770911,0,0,0,439,457,201,472,451,467,388,141,315,265,220,414,0,,,,
1,1789067402176,6345,-27987,24039,-5908288,-2379930,438601,0,0,0,327,281,222,249,210,270,418,242,300,256,246,348,0,,,,
2,1789067402176,14,-1249,11442,1624901,-355523,-667064,0,0,0,455,492,206,498,486,500,370,142,328,266,221,424,0,,,,
1,1789067402192,12730,-33692,20339,-4660901,-1843591,718377,0,0,0,326,278,220,255,209,273,424,239,300,270,258,351,0,,,,
2,1789067402192,-86,-1196,12289,1926668,-386066,-538783,0,0,0,474,511,212,497,506,506,358,147,349,257,230,437,0,,,,
1,1789067402208,13874,-39516,15338,-3172834,-711047,492357,0,0,0,315,261,199,251,198,268,439,280,294,307,302,336,0,,,,
2,1789067402208,488,-1177,13548,2332283,-388510,-455705,0,0,0,486,525,220,499,530,479,329,149,346,245,242,461,0,,,,
1,1789067402224,9183,-46618,10878,-1607797,186924,102625,0,0,0,299,244,169,244,188,261,464,386,284,359,384,303,0,,,,
2,1789067402224,1225,-1426,14534,2919935,-375071,-469144,0,0,0,477,533,225,480,525,490,289,142,326,236,238,476,0,,,,
1,1789067402240,7212,-51150,10777,679282,1036027,-527787,0,0,0,288,249,165,247,202,268,490,479,286,385,447,274,0,,,,
2,1789067402240,1292,-1665,14989,3628539,-276111,-543670,0,0,0,477,549,225,443,499,493,256,131,328,241,232,459,0,,,,
1,1789067402256,7039,-37023,14055,3732386,2431243,-1321912,0,0,0,289,259,169,255,212,289,511,511,296,418,484,256,0,,,,
2,1789067402256,780,-1593,15769,4434881,-125838,-597426,0,0,0,472,544,227,457,513,473,234,110,343,250,210,430,0,,,,
1,1789067402272,5096,-3996,21507,4916243,3189938,-1350012,0,0,0,297,268,194,262,206,304,536,536,308,445,512,256,0,,,,
2,1789067402272,899,-1517,17712,5376835,0,-641408,0,0,0,446,489,213,453,503,474,194,106,329,192,174,386,0,,,,
1,1789067402288,4828,9495,25269,4548502,2601064,-627969,0,0,0,308,274,258,268,195,314,571,572,314,493,541,232,0,,,,
2,1789067402288,1899,-2014,21871,6522819,127059,-726929,0,0,0,391,447,200,428,461,450,169,98,324,175,138,319,0,,,,
1,1789067402304,5240,33,23273,3626096,1313360,74525,0,0,0,303,308,337,271,226,318,579,582,316,517,571,260,0,,,,
2,1789067402304,3823,-3857,28777,7676132,464257,-871093,0,0,0,361,398,184,372,412,382,191,121,299,160,124,249,0,,,,
1,1789067402320,3139,-6513,19176,2400700,588874,244346,0,0,0,321,340,392,296,268,339,596,571,324,534,578,308,0,,,,
2,1789067402320,5211,-4623,34510,8433605,1060462,-1050688,0,0,0,333,306,185,322,283,299,190,92,217,176,149,188,0,,,,
1,1789067402336,1349,-2660,14065,1328021,476474,50090,0,0,0,341,358,400,305,293,348,588,556,344,551,580,337,0,,,,
2,1789067402336,4891,-2397,39530,8903971,2094046,-1317025,0,0,0,279,244,169,218,165,220,229,140,192,166,193,155,0,,,,
1,1789067402352,1210,832,10796,671951,210137,-69638,0,0,0,355,379,409,306,300,345,597,550,333,566,577,348,0,,,,
2,1789067402352,5474,7159,37171,8450709,2802649,-1649336,0,0,0,280,253,170,227,171,228,240,141,200,172,199,156,0,,,,
1,1789067402368,1268,794,10677,535117,-167377,-59864,0,0,0,360,390,416,323,314,349,600,546,326,569,567,360,0,,,,
2,1789067402368,4886,20689,27197,6323676,2322509,-2006081,0,0,0,284,233,167,227,164,219,238,129,191,173,196,152,0,,,,
1,1789067402384,933,598,10882,543670,-398284,-51312,0,0,0,351,406,423,327,344,349,604,524,330,561,536,374,0,,,,
2,1789067402384,1732,26097,22694,1562593,-316428,-1015258,0,0,0,295,226,171,227,153,214,238,128,186,171,199,144,0,,,,
1,1789067402400,679,904,11155,700051,-433714,-53756,0,0,0,358,423,409,338,348,351,595,492,335,538,505,388,0,,,,
2,1789067402400,2775,22019,17683,-2616946,-2907718,630412,0,0,0,299,224,167,225,150,208,241,131,186,171,197,139,0,,,,
1,1789067402416,737,1172,11127,894306,-453262,-54977,0,0,0,377,426,386,348,353,360,578,460,340,507,481,402,0,,,,
2,1789067402416,7317,14740,10193,-3977954,-3046995,1264491,0,0,0,306,221,167,231,152,212,241,127,187,177,199,141,0,,,,
1,1789067402432,693,1124,10911,1049466,-492357,-59864,0,0,0,388,424,377,349,358,364,565,429,352,476,443,410,0,,,,
2,1789067402432,5829,12376,6360,-3962071,-906524,467922,0,0,0,303,218,166,235,153,217,242,131,189,180,202,144,0,,,,
1,1789067402448,469,832,10648,1147204,-508239,-68416,0,0,0,392,429,373,358,374,362,549,393,360,445,402,416,0,,,,
2,1789067402448,899,11648,7087,-4454429,72082,-147829,0,0,0,302,218,168,238,154,218,240,131,188,183,205,146,0,,,,
1,1789067402464,282,545,10385,1187522,-452040,-72082,0,0,0,398,439,355,377,404,362,529,355,357,419,379,429,0,,,,
2,1789067402464,-1210,9207,8561,-5323079,-416610,-276111,0,0,0,300,216,169,238,154,218,239,128,186,183,206,144,0,,,,
1,1789067402480,172,253,10122,1211956,-370184,-56199,0,0,0,412,441,334,382,410,370,518,320,352,407,361,448,0,,,,
2,1789067402480,320,6077,8848,-5827654,-514348,-376292,0,0,0,295,214,170,235,152,217,241,130,189,180,207,143,0,,,,
1,1789067402496,-43,-23,10035,1210734,-260228,-2443,0,0,0,422,458,331,371,403,378,506,284,351,392,328,456,0,,,,
2,1789067402496,71,4077,9954,-6161186,-109955,-572991,0,0,0,293,214,172,235,148,217,243,135,194,184,209,146,0,,,,
1,1789067402512,-392,-172,10054,1153313,-62308,105068,0,0,0,431,463,321,381,408,373,502,245,354,366,300,464,0,,,,
2,1789067402512,-1129,3383,11600,-6411641,83077,-557109,0,0,0,293,212,172,236,144,218,244,134,193,184,209,144,0,,,,
1,1789067402528,-555,-291,9916,1087340,129503,240680,0,0,0,435,466,298,384,424,377,515,235,351,359,283,480,0,,,,
2,1789067402528,-746,3105,13156,-6632774,69638,-149051,0,0,0,290,211,172,241,152,228,241,132,194,182,211,145,0,,,,
1,1789067402544,-234,-617,9710,1015258,239459,367740,0,0,0,445,485,286,392,438,379,507,218,346,353,274,496,0,,,,
2,1789067402544,138,2641,14687,-6817256,191811,338419,0,0,0,290,210,169,237,151,225,244,135,197,181,207,141,0,,,,
1,1789067402560,382,-894,9743,989601,272445,399505,0,0,0,461,487,285,403,444,391,499,208,346,355,269,516,0,,,,
2,1789067402560,995,1876,16271,-6998072,340862,831998,0,0,0,287,212,170,236,148,223,242,130,190,181,208,145,0,,,,
1,1789067402576,579,-995,9892,1015258,266337,382401,0,0,0,480,487,279,408,447,403,497,205,352,353,260,533,0,,,,
2,1789067402576,1957,1186,17745,-7120245,433714,1155757,0,0,0,282,209,170,236,151,230,242,129,195,181,208,151,0,,,,
1,1789067402592,301,-1005,10256,1093448,257785,377514,0,0,0,492,496,266,416,450,397,497,199,346,348,250,541,0,,,,
2,1789067402592,3182,114,20200,-7205766,670730,1255938,0,0,0,287,213,189,238,153,247,245,130,209,179,209,172,0,,,,
1,1789067402608,71,-1143,10916,1215621,328645,422718,0,0,0,502,502,260,423,456,401,492,197,349,339,243,549,0,,,,
2,1789067402608,3101,-2593,23814,-7243640,976162,704938,0,0,0,289,215,193,245,161,259,250,126,211,181,209,176,0,,,,
1,1789067402624,62,-1383,11600,1406211,414166,482583,0,0,0,505,509,256,420,466,404,483,199,353,334,245,555,0,,,,
2,1789067402624,2502,-6700,27470,-7335269,1062905,19547,0,0,0,303,242,189,255,171,255,261,135,209,188,211,174,0,,,,
1,1789067402640,655,-1627,11964,1690874,453262,536339,0,0,0,513,511,241,421,469,414,482,194,351,328,234,556,0,,,,
2,1789067402640,2598,-13266,30112,-7450112,1014036,-403171,0,0,0,292,237,189,253,169,255,259,125,210,184,205,170,0,,,,
1,1789067402656,2072,-1550,11825,1954768,346971,474031,0,0,0,517,512,226,427,470,420,466,190,345,322,220,553,0,,,,
2,1789067402656,3517,-24326,29605,-7053050,1182635,-340862,0,0,0,285,225,170,252,163,242,264,118,205,186,197,150,0,,,,
1,1789067402672,3067,-1340,12356,2240653,173485,268780,0,0,0,519,517,223,434,470,417,432,187,339,319,215,545,0,,,,
2,1789067402672,1450,-36865,26642,-5759237,1709200,-321315,0,0,0,283,217,161,255,157,231,268,114,199,186,193,138,0,,,,
1,1789067402688,1823,-1483,13955,2656042,68416,59864,0,0,0,522,519,224,436,466,415,404,183,339,310,209,530,0,,,,
2,1789067402688,-5393,-45178,22431,-3799581,1991420,-142942,0,0,0,285,215,163,259,154,234,266,115,196,186,198,141,0,,,,
1,1789067402704,143,-1775,15151,3221703,59864,24434,0,0,0,514,518,218,431,469,410,381,185,338,290,201,510,0,,,,
2,1789067402704,-7351,-50557,16630,-1729970,896750,708603,0,0,0,283,199,156,260,143,232,277,143,195,201,228,138,0,,,,
1,1789067402720,-713,-1981,15817,3924198,109955,179594,0,0,0,507,515,222,436,471,417,361,189,337,269,192,500,0,,,,
2,1789067402720,-2976,-53601,12490,-86742,6108,1325577,0,0,0,277,164,153,260,118,221,315,286,182,229,321,122,0,,,,
1,1789067402736,-1115,-2182,16759,4701218,178372,425162,0,0,0,486,501,225,432,470,425,326,190,349,247,178,482,0,,,,
2,1789067402736,-1622,-39411,16453,1883908,-207694,1523497,0,0,0,273,137,150,259,98,209,354,444,164,263,441,108,0,,,,
1,1789067402752,-1220,-2818,19138,5571090,254119,707381,0,0,0,459,472,226,430,460,418,328,190,357,242,163,436,0,,,,
2,1789067402752,-1895,-583,18698,3804468,-1247386,1547932,0,0,0,278,137,137,263,97,209,391,495,161,307,530,105,0,,,,
1,1789067402768,-674,-3149,24249,6471506,443488,857654,0,0,0,419,451,218,413,448,394,305,195,358,227,161,416,0,,x,,
2,1789067402768,-2699,21354,16597,4607145,-2714685,855211,0,0,0,291,160,158,275,112,238,455,572,173,361,608,111,0,,x,,
1,1789067402784,-1698,-2861,29849,7409795,758694,869872,0,0,0,367,435,213,345,398,360,285,186,330,195,151,409,0,,,,
2,1789067402784,-3603,5317,21268,5125159,-2619390,-162490,0,0,0,299,174,185,275,117,253,499,617,186,441,654,114,0,,,,
1,1789067402800,-3651,-2024,33840,8311432,728151,999375,0,0,0,326,367,189,285,308,287,348,241,301,232,225,359,0,,,,
2,1789067402800,-2354,-9892,27001,4563163,-1396437,-613308,0,0,0,313,178,223,280,120,264,535,637,189,495,655,115,0,,,,
1,1789067402816,-3919,1474,37539,8900306,487470,1314581,0,0,0,304,311,213,239,230,259,372,245,286,243,258,345,0,,,,
2,1789067402816,-636,-6125,23273,2877175,-408057,-229685,0,0,0,326,200,259,277,131,266,533,639,187,503,671,117,0,,,,
1,1789067402832,-5163,11237,32017,8371297,1385442,1413542,0,0,0,309,301,218,233,216,255,370,242,285,250,258,338,0,,,,
2,1789067402832,-1574,842,13792,1676214,28099,9773,0,0,0,323,193,268,285,128,283,523,619,188,533,646,149,0,,,,
1,1789067402848,-10638,19205,21038,4696331,2041511,846659,0,0,0,317,299,216,234,216,255,371,243,285,254,259,338,0,,,,
2,1789067402848,-1536,2641,8968,1216843,454483,-85521,0,0,0,319,217,282,276,132,283,520,598,192,484,643,140,0,,,,
1,1789067402864,-9748,18970,18559,53756,1056796,-146607,0,0,0,321,296,216,232,215,253,374,247,282,255,263,343,0,,,,
2,1789067402864,425,626,9734,1091005,651182,-194255,0,0,0,322,226,357,275,154,303,552,597,217,492,631,155,0,,,,
1,1789067402880,-5656,13869,16247,-2572964,1193630,-1313360,0,0,0,322,296,218,232,216,253,371,251,281,256,265,346,0,,,,
2,1789067402880,1598,-287,10926,784350,377514,-94073,0,0,0,320,230,312,270,147,290,542,560,220,503,589,167,0,,,,
1,1789067402896,-6556,10165,11361,-3320663,1496619,-1980425,0,0,0,322,296,220,233,216,255,366,252,281,257,267,345,0,,,,
2,1789067402896,1067,502,10859,536339,31764,-25656,0,0,0,329,236,275,272,157,267,537,559,207,491,574,160,0,,,,
1,1789067402912,-7485,9451,8552,-3540574,272445,-1794722,0,0,0,319,294,219,231,214,255,369,251,285,258,270,346,0,,,,
2,1789067402912,378,1206,10323,571769,-52534,-68416,0,0,0,326,221,259,284,176,274,527,524,203,451,545,171,0,,,,
1,1789067402928,-3972,9059,9394,-4560719,-828333,-1428202,0,0,0,318,293,219,230,214,255,375,250,287,258,269,346,0,,,,
2,1789067402928,134,1411,10007,686612,-43982,-103847,0,0,0,326,224,273,288,170,288,518,485,203,433,497,185,0,,,,
1,1789067402944,-1775,7504,10782,-5914397,-961501,-1097113,0,0,0,319,293,219,232,218,258,377,248,285,259,268,345,0,,,,
2,1789067402944,-33,1435,9930,822224,12217,-109955,0,0,0,323,258,271,299,188,305,521,440,219,413,443,193,0,,,,
1,1789067402960,-2402,4417,11227,-6935763,-735481,-627969,0,0,0,321,292,221,236,217,260,382,248,284,263,265,347,0,,,,
2,1789067402960,-196,1383,10035,928515,118507,-85521,0,0,0,319,260,264,303,198,308,527,395,231,400,406,195,0,,,,
1,1789067402976,-2967,1239,11045,-6994406,-1065348,43982,0,0,0,320,291,222,236,212,258,380,250,279,266,266,345,0,,,,
2,1789067402976,33,1196,10189,1065348,250454,-65973,0,0,0,313,239,265,300,191,311,506,362,242,381,384,203,0,,,,
1,1789067402992,-2230,-402,11825,-6560692,-1517389,483805,0,0,0,321,291,222,241,214,262,395,252,282,267,266,345,0,,,,
2,1789067402992,516,746,10093,1137431,273667,-89186,0,0,0,310,254,262,305,207,322,482,326,257,349,354,220,0,,,,
1,1789067403008,-971,-258,13907,-6223495,-1665218,343306,0,0,0,320,287,221,240,212,259,398,248,282,269,267,345,0,,,,
2,1789067403008,909,258,9748,1109331,195476,-135612,0,0,0,313,278,264,305,222,320,466,294,254,337,328,231,0,,,,
1,1789067403024,-1253,-148,15692,-6407976,-1543045,-316428,0,0,0,324,288,225,236,207,256,401,246,284,270,268,340,0,,,,
2,1789067403024,914,-134,9428,996932,62308,-186924,0,0,0,310,292,267,305,232,320,440,278,249,326,327,238,0,,,,
1,1789067403040,-2407,-650,17066,-6618113,-1615127,-1075122,0,0,0,325,282,227,237,209,258,403,247,287,268,267,339,0,,,,
2,1789067403040,789,-430,9370,875980,-48869,-235793,0,0,0,317,306,267,314,250,336,435,245,256,306,326,250,0,,,,
1,1789067403056,-3541,-1330,18626,-6679200,-1981646,-1699427,0,0,0,301,260,224,237,207,261,400,244,288,265,264,337,0,,,,
2,1789067403056,698,-478,9480,788016,-135612,-279776,0,0,0,331,336,280,320,274,368,425,225,273,300,300,266,0,,,,
1,1789067403072,-3632,-1679,21196,-6720739,-2329840,-1924225,0,0,0,306,267,222,237,209,264,401,242,290,262,261,335,0,,,,
2,1789067403072,660,-392,9657,755029,-199142,-312763,0,0,0,363,355,275,328,285,351,420,194,251,298,289,284,0,,,,
1,1789067403088,-3244,-2435,24359,-6794043,-2466673,-1866804,0,0,0,316,279,222,239,208,263,411,244,293,262,257,333,0,,,,
2,1789067403088,631,-397,9753,764803,-229685,-345749,0,0,0,374,406,275,344,381,368,426,179,278,306,274,285,0,,,,
1,1789067403104,-2019,-4919,28064,-6797708,-2356718,-1470963,0,0,0,322,282,222,243,207,264,423,250,295,242,223,337,0,,,,
2,1789067403104,603,-531,9844,800233,-224798,-383623,0,0,0,401,403,283,368,382,392,418,167,270,298,266,310,0,,,,
1,1789067403120,459,-10375,29270,-6682865,-2199114,-1177748,0,0,0,329,277,219,247,202,267,436,246,295,242,220,340,0,,,,
2,1789067403120,540,-670,10251,890641,-202807,-422718,0,0,0,437,412,277,406,397,404,425,151,288,302,242,335,0,,,,
1,1789067403136,3809,-18822,28595,-6390872,-2123367,-996932,0,0,0,336,272,217,251,196,269,443,244,296,247,219,349,0,,,,
2,1789067403136,579,-660,11098,1128878,-151494,-458148,0,0,0,445,431,266,398,408,422,423,133,283,305,232,374,0,,,,
1,1789067403152,5613,-28059,25747,-5727472,-1626123,-823446,0,0,0,341,274,218,253,193,269,446,253,299,234,190,365,0,,,,
2,1789067403152,617,-722,12002,1470963,-64751,-504574,0,0,0,445,431,244,399,405,434,398,124,304,298,213,408,0,,,,
1,1789067403168,3340,-40119,18659,-4232074,-590095,-409279,0,0,0,344,270,221,253,188,269,448,252,299,239,195,373,0,,,,
2,1789067403168,335,-904,12888,1931555,56199,-543670,0,0,0,462,449,241,403,417,458,378,134,329,282,207,434,0,,,,
1,1789067403184,3421,-50097,12103,-2441017,-323758,-86742,0,0,0,343,262,221,254,179,270,448,248,299,241,198,370,0,,,,
2,1789067403184,-172,-990,13888,2517986,213802,-513126,0,0,0,468,468,224,423,440,477,351,147,348,269,231,449,0,,,,
1,1789067403200,4915,-53462,8490,-483805,-356745,-403171,0,0,0,339,251,218,254,168,269,454,262,297,258,224,362,0,,,,
2,1789067403200,-559,-765,15132,3171612,342084,-426383,0,0,0,472,460,226,452,443,468,317,147,352,261,238,466,0,,,,
1,1789067403216,1952,-46221,9600,1448972,-513126,-1078788,0,0,0,308,229,186,246,166,262,476,395,288,348,380,298,0,,,,
2,1789067403216,138,-559,16310,3990171,345749,-332310,0,0,0,478,465,224,430,455,450,262,132,334,240,221,442,0,,,,
1,1789067403232,670,-24651,16793,3299894,-673173,-1288925,0,0,0,295,244,167,242,199,264,500,495,280,400,461,249,0,,,,
2,1789067403232,1775,-813,17267,4940678,299323,-375071,0,0,0,478,480,224,408,458,446,207,116,340,222,193,407,0,,,,
1,1789067403248,2067,7800,18420,4114788,757472,-1077566,0,0,0,299,262,170,259,211,283,535,535,276,428,508,251,0,,,,
2,1789067403248,3833,-1062,18434,6009692,241902,-663399,0,0,0,450,462,220,419,438,446,198,99,351,213,158,367,0,,,,
1,1789067403264,2881,18573,18411,4514294,2513099,-340862,0,0,0,295,252,184,267,203,295,574,582,286,459,555,240,0,,,,
2,1789067403264,5570,-1799,21904,7365813,294437,-1224173,0,0,0,396,412,204,408,408,420,193,87,324,194,133,304,0,,,,
1,1789067403280,1981,-851,23723,4515515,2924822,601091,0,0,0,318,255,238,279,192,305,605,609,290,515,584,241,0,,,,
2,1789067403280,6666,-3417,28451,8543561,557109,-1709200,0,0,0,349,358,189,349,343,356,166,89,274,174,130,235,0,,,,
1,1789067403296,-540,-8882,26379,3325550,2138028,566882,0,0,0,336,284,322,292,209,320,618,625,297,558,604,268,0,,,,
2,1789067403296,7384,-5116,37539,9291260,1185078,-2012190,0,0,0,323,299,172,276,243,273,187,104,216,170,150,180,0,,,,
1,1789067403312,-268,-4589,21473,1899790,1441641,57421,0,0,0,343,315,383,304,246,334,617,631,308,567,610,300,0,,,,
2,1789067403312,7403,-1536,42665,9330355,2327396,-2306627,0,0,0,283,258,176,214,159,217,223,125,193,166,183,153,0,,,,
1,1789067403328,2077,1703,13553,1043357,712268,-243124,0,0,0,353,336,397,313,276,340,619,631,318,561,607,320,0,,,,
2,1789067403328,5896,9164,38951,8442157,2831971,-2851518,0,0,0,282,265,181,219,168,223,228,115,197,170,188,152,0,,,,
1,1789067403344,1646,1698,10973,994488,-145385,-96516,0,0,0,363,359,398,329,304,342,619,628,322,557,600,337,0,,,,
2,1789067403344,3311,19545,26867,5595525,1071457,-3200933,0,0,0,285,270,176,226,177,219,230,118,193,171,182,148,0,,,,
1,1789067403360,186,880,10744,1032362,-698829,0,0,0,0,371,377,398,351,320,346,614,608,329,554,580,352,0,,,,
2,1789067403360,3603,19329,21569,1065348,-1762957,-1716531,0,0,0,287,266,169,225,171,218,235,129,192,175,191,150,0,,,,
1,1789067403376,-947,971,11150,1091005,-791681,-2443,0,0,0,376,384,403,364,325,355,608,566,344,545,544,363,0,,,,
2,1789067403376,6494,14376,15989,-2365270,-3349984,460592,0,0,0,288,267,177,229,176,225,236,130,195,175,191,148,0,,,,
1,1789067403392,-799,1335,11045,1226617,-623082,2443,0,0,0,381,399,419,370,351,365,594,516,351,527,502,380,0,,,,
2,1789067403392,8509,11237,9327,-2725680,-2378709,1271821,0,0,0,291,268,179,222,169,218,236,129,192,178,197,150,0,,,,
1,1789067403408,-708,1263,10830,1337794,-498466,18325,0,0,0,389,403,418,377,348,374,590,468,362,502,455,404,0,,,,
2,1789067403408,7025,10490,5776,-2753780,-836885,1298699,0,0,0,283,268,177,223,172,220,234,130,193,179,200,152,0,,,,
1,1789067403424,-799,914,10567,1368338,-400727,25656,0,0,0,400,409,391,375,343,374,582,409,359,449,424,420,0,,,,
2,1789067403424,3220,9691,5680,-3089756,276111,1171639,0,0,0,284,269,177,230,175,225,236,133,198,181,208,154,0,,,,
1,1789067403440,-780,818,10370,1324355,-348193,46425,0,0,0,409,424,386,388,343,372,572,364,359,442,390,436,0,,,,
2,1789067403440,1464,7973,6953,-3655417,359188,1122770,0,0,0,284,267,173,229,173,225,238,131,203,181,202,154,0,,,,
1,1789067403456,-660,626,10193,1276708,-335975,81855,0,0,0,408,434,362,388,359,368,556,317,352,409,363,453,0,,,,
2,1789067403456,650,6245,8365,-4487416,350636,834441,0,0,0,286,263,176,229,169,226,236,126,203,175,196,151,0,,,,
1,1789067403472,-598,134,10002,1248608,-368962,109955,0,0,0,422,437,354,393,378,384,559,280,365,391,319,463,0,,,,
2,1789067403472,-406,4589,9844,-5480682,417831,250454,0,0,0,288,261,177,232,169,228,237,126,201,174,193,151,0,,,,
1,1789067403488,-799,-239,9782,1172861,-355523,129503,0,0,0,413,436,349,392,384,389,543,253,374,379,297,485,0,,,,
2,1789067403488,-1785,3503,11184,-6168517,406836,-216246,0,0,0,289,261,175,232,168,227,239,129,201,175,193,149,0,,,,
1,1789067403504,-1048,-421,9605,1055575,-240680,164933,0,0,0,424,443,332,393,399,385,532,226,371,363,275,490,0,,,,
2,1789067403504,-2349,2646,12529,-6753726,263893,-465479,0,0,0,292,262,174,238,173,227,241,131,205,175,199,150,0,,,,
1,1789067403520,-1153,-531,9495,927293,-53756,219911,0,0,0,442,458,300,404,414,389,529,210,366,351,266,499,0,,,,
2,1789067403520,-1521,1804,13294,-7106806,251676,-444709,0,0,0,292,262,173,240,176,228,243,131,206,180,203,153,0,,,,
1,1789067403536,-1115,-612,9652,862541,54977,283441,0,0,0,451,465,292,402,424,389,530,206,368,350,255,515,0,,,,
2,1789067403536,-1115,1067,14036,-7290065,456927,-301767,0,0,0,291,260,172,232,168,223,243,131,201,182,203,149,0,,,,
1,1789067403552,-1153,-631,9987,862541,149051,346971,0,0,0,468,478,295,404,432,396,530,201,371,350,241,535,0,,,,
2,1789067403552,-1268,813,15041,-7309613,678060,124616,0,0,0,287,261,173,233,173,224,240,139,199,179,206,148,0,,,,
1,1789067403568,-1253,-737,10294,935845,285884,414166,0,0,0,479,489,295,406,438,404,526,198,372,339,236,552,0,,,,
2,1789067403568,-550,866,16343,-7250970,774577,808785,0,0,0,287,262,173,229,174,223,230,147,191,179,211,144,0,,,,
1,1789067403584,-1368,-914,10720,1084896,426383,496022,0,0,0,486,501,284,406,451,404,522,199,366,330,234,564,0,,,,
2,1789067403584,483,148,18411,-7206988,965167,1429424,0,0,0,291,259,173,237,171,230,239,132,200,182,210,149,0,,,,
1,1789067403600,-1368,-1115,11457,1318247,508239,599869,0,0,0,493,513,265,410,463,401,517,199,358,333,228,571,0,,,,
2,1789067403600,473,-2799,20847,-7200879,1159422,1519832,0,0,0,299,258,176,240,169,233,241,128,200,179,198,146,0,,,,
1,1789067403616,-875,-1311,12294,1627344,513126,692721,0,0,0,495,515,245,417,465,408,504,195,359,336,224,570,0,,,,
2,1789067403616,-622,-8652,23780,-7122688,1098335,1067792,0,0,0,323,258,177,253,178,229,247,127,197,191,202,149,0,,,,
1,1789067403632,167,-1368,12840,2003637,477696,685390,0,0,0,500,516,225,425,471,414,483,191,366,333,222,565,0,,,,
2,1789067403632,-1048,-16453,26805,-7062823,862541,609643,0,0,0,320,258,175,250,171,229,253,122,201,192,192,147,0,,,,
1,1789067403648,1119,-1301,13213,2375044,392175,576656,0,0,0,508,519,224,419,473,426,453,190,366,322,224,562,0,,,,
2,1789067403648,43,-28786,28556,-6888116,619417,386066,0,0,0,292,268,173,247,178,232,259,133,200,185,208,150,0,,,,
1,1789067403664,1220,-1215,13988,2818532,261450,387288,0,0,0,512,524,214,421,469,431,417,187,361,304,215,563,0,,,,
2,1789067403664,1986,-43340,25704,-5754350,711047,299323,0,0,0,285,261,168,245,174,232,256,124,196,182,206,146,0,,,,
1,1789067403680,47,-1526,14907,3429397,150272,289550,0,0,0,502,531,216,412,471,421,364,186,357,273,202,548,0,,,,
2,1789067403680,2010,-54232,20689,-3743382,989601,-103847,0,0,0,284,259,163,245,174,233,259,139,187,187,220,147,0,,,,
1,1789067403696,-818,-1722,15673,4169766,52534,323758,0,0,0,498,527,213,408,470,425,316,186,365,265,199,532,0,,,,
2,1789067403696,-2790,-56769,17391,-1490511,981049,-563217,0,0,0,284,187,154,250,126,222,311,255,182,215,269,128,0,,,,
1,1789067403712,-1234,-1617,16467,4926017,18325,444709,0,0,0,496,519,228,415,471,439,274,180,378,240,192,498,0,,,,
2,1789067403712,-7370,-52146,18726,845437,35430,-355523,0,0,0,275,129,140,251,80,204,367,383,163,238,358,97,0,,,,
1,1789067403728,-1359,-2172,18071,5645616,134390,587652,0,0,0,474,493,222,411,467,426,271,187,386,232,190,469,0,,,,
2,1789067403728,-3943,-24484,20244,3211929,-2092824,460592,0,0,0,276,128,142,249,73,223,403,466,171,280,460,98,0,,,,
1,1789067403744,-1167,-3038,21138,6324898,398284,654847,0,0,0,439,464,220,399,450,405,281,187,364,225,177,434,0,,,,
2,1789067403744,1282,8614,18578,3688404,-3018896,839328,0,0,0,285,150,159,254,82,233,442,525,173,338,562,103,0,,,,
1,1789067403760,-2747,-3594,27461,7106806,618195,636521,0,0,0,399,431,206,353,411,367,290,203,339,219,179,412,0,,,,
2,1789067403760,100,16850,19138,3981619,-2847853,660956,0,0,0,295,174,181,258,102,233,484,559,176,402,616,105,0,,,,
1,1789067403776,-5068,-3340,32591,7847174,616973,762359,0,0,0,341,373,190,292,335,302,332,222,316,230,220,366,0,,,,
2,1789067403776,-4489,-1134,22866,4064697,-1776396,105068,0,0,0,292,189,214,260,124,245,513,573,191,446,641,123,0,,,,
1,1789067403792,-5910,-1818,34759,8491026,398284,1181413,0,0,0,307,321,208,247,257,262,361,230,304,235,255,343,0,,,,
2,1789067403792,-3895,-6920,21469,2861292,-807563,-156381,0,0,0,293,208,239,271,134,267,542,579,195,482,655,147,0,,,,
1,1789067403808,-5580,4000,31241,8448266,546113,1721418,0,0,0,313,302,227,235,222,256,360,226,303,239,260,343,0,,,,
2,1789067403808,-2100,-981,15156,1732413,-238237,-195476,0,0,0,305,225,242,284,129,272,568,581,179,509,654,149,0,,,,
1,1789067403824,-7293,8743,24656,5798332,1477072,1979203,0,0,0,326,300,222,238,220,254,360,223,303,251,257,340,0,,,,
2,1789067403824,-1373,3278,9686,1233947,255341,-257785,0,0,0,313,224,252,286,132,263,570,582,168,504,652,142,0,,,,
1,1789067403840,-8193,9188,22426,750142,1817934,1288925,0,0,0,327,294,220,235,219,253,364,236,303,250,260,345,0,,,,
2,1789067403840,71,784,10212,1011592,588874,-259006,0,0,0,323,245,261,298,170,279,589,589,176,514,646,160,0,,,,
1,1789067403856,-6312,7504,19224,-2304183,2019520,84299,0,0,0,329,291,219,235,218,254,363,247,302,250,264,346,0,,,,
2,1789067403856,890,-469,11351,682947,572991,-157603,0,0,0,321,259,276,300,175,280,608,595,187,498,640,165,0,,,,
1,1789067403872,-6465,6738,13457,-3116634,2053728,-797790,0,0,0,326,293,220,233,220,257,361,247,299,253,266,346,0,,,,
2,1789067403872,593,478,11060,437379,467922,-81855,0,0,0,331,238,280,287,155,258,602,560,188,509,618,174,0,,,,
