sole_id,timestamp,accel_x,accel_y,accel_z,gyro_x,gyro_y,gyro_z,magn_x,magn_y,magn_z,pressure_01,pressure_02,pressure_03,pressure_04,pressure_05,pressure_06,pressure_07,pressure_08,pressure_09,pressure_10,pressure_11,pressure_12,corrupt,transition,grass
1,1774544397936,-2354,7231,11055,-4091575,-1933999,-591317,0,0,0,203,137,192,257,126,218,341,105,245,224,101,98,0,,
2,1774544397936,1134,1340,9873,-20769,-139277,-30543,0,0,0,226,141,98,317,155,159,494,536,142,363,447,50,0,,
1,1774544397952,-794,5829,12519,-4241848,-2112371,-615752,0,0,0,203,136,190,261,128,220,341,104,244,219,109,96,0,,
2,1774544397952,1134,1344,9844,-24434,-184481,-32986,0,0,0,227,151,105,301,158,158,478,526,147,368,470,44,0,,
1,1774544397968,689,4690,13965,-4289495,-2150245,-503352,0,0,0,202,137,186,245,131,214,340,104,242,203,117,90,0,,
2,1774544397968,1091,1344,9853,-15882,-233350,-32986,0,0,0,229,158,115,296,166,150,458,525,141,372,483,42,0,,
1,1774544397984,1660,3675,15175,-4302934,-2058615,-472809,0,0,0,201,139,186,242,131,214,339,105,243,197,115,91,0,,
2,1774544397984,1024,1354,9858,3665,-265115,-25656,0,0,0,231,164,139,288,181,154,465,554,137,365,478,44,0,,
1,1774544398000,2225,2522,15903,-4207639,-1916895,-588874,0,0,0,198,142,186,255,132,218,332,110,243,188,114,91,0,,
2,1774544398000,914,1373,9916,29321,-257785,-17104,0,0,0,240,174,156,297,196,161,467,548,136,364,470,43,0,,
1,1774544398016,2010,1545,16176,-3870442,-1780061,-779464,0,0,0,184,146,187,240,135,217,303,116,244,160,112,89,0,,
2,1774544398016,861,1402,9954,61086,-207694,-17104,0,0,0,248,184,143,306,211,166,456,539,139,352,482,49,0,,
1,1774544398032,1459,555,16357,-3385415,-1637118,-945619,0,0,0,158,144,187,218,136,220,259,116,244,122,105,89,0,,
2,1774544398032,875,1402,9944,95294,-174707,-20769,0,0,0,264,191,155,324,225,183,462,521,153,355,479,57,0,,
1,1774544398048,804,-684,16238,-2764776,-1408655,-1036027,0,0,0,164,144,187,223,138,223,259,116,241,127,98,86,0,,
2,1774544398048,914,1368,9930,138055,-166155,-25656,0,0,0,269,199,246,335,253,242,459,508,191,345,449,97,0,,
1,1774544398064,86,-2019,15979,-2034181,-1139874,-1021366,0,0,0,163,145,189,219,138,217,257,117,241,129,97,86,0,,
2,1774544398064,918,1320,9968,180816,-177150,-32986,0,0,0,305,189,274,353,231,268,491,472,229,341,423,113,0,,
1,1774544398080,-693,-2914,16051,-1307251,-1028697,-965167,0,0,0,169,145,191,219,140,219,251,120,239,112,101,86,0,,
2,1774544398080,904,1277,10016,221133,-182037,-43982,0,0,0,319,191,283,369,250,295,483,428,267,342,406,134,0,,
1,1774544398096,-1091,-2876,16324,-1044579,-1203404,-908967,0,0,0,170,143,190,220,136,218,257,108,235,127,96,86,0,x,
2,1774544398096,866,1244,10064,262672,-164933,-54977,0,0,0,338,252,322,377,239,305,482,376,264,348,316,145,0,x,
1,1774544398112,-727,-3062,15740,-1525941,-1434311,-941954,0,0,0,181,143,190,230,136,220,270,108,235,136,89,85,0,,
2,1774544398112,842,1206,10093,311541,-116064,-64751,0,0,0,342,281,243,378,297,284,450,322,279,328,276,166,0,,
1,1774544398128,-330,-4154,14558,-1995085,-1541823,-1042136,0,0,0,201,141,190,269,133,219,315,109,232,157,91,80,0,,
2,1774544398128,861,1134,10141,357967,-74525,-75747,0,0,0,356,281,314,381,339,324,465,291,293,275,233,204,0,,
1,1774544398144,-9,-5900,13180,-2118480,-1543045,-1197295,0,0,0,201,144,196,275,134,221,323,112,234,159,100,85,0,,
2,1774544398144,909,981,10208,406836,-29321,-91629,0,0,0,398,276,314,420,352,330,472,227,311,268,175,212,0,,
1,1774544398160,583,-7489,12041,-2065946,-1434311,-1374446,0,0,0,196,148,204,271,134,226,319,113,240,156,103,92,0,,
2,1774544398160,966,813,10308,452040,25656,-117286,0,0,0,399,281,243,442,346,361,464,161,308,247,113,223,0,,
1,1774544398176,1536,-9451,10672,-1979203,-1065348,-1605353,0,0,0,196,149,208,272,134,230,319,113,243,156,101,93,0,,
2,1774544398176,1115,784,10677,543670,125838,-160046,0,0,0,399,304,217,456,363,398,431,122,313,216,84,241,0,,
1,1774544398192,1435,-11931,8935,-1744631,-610865,-1674992,0,0,0,195,147,210,272,136,232,318,114,243,156,100,92,0,,
2,1774544398192,1287,947,11615,926071,288328,-243124,0,0,0,411,283,189,485,372,409,402,99,333,201,70,272,0,,
1,1774544398208,1019,-14611,7312,-1230282,-460592,-1406211,0,0,0,193,144,209,272,137,232,318,119,242,156,105,95,0,,
2,1774544398208,1105,1091,12333,1467298,392175,-307876,0,0,0,417,270,140,499,378,405,394,88,353,193,69,306,0,,
1,1774544398224,2182,-15711,7130,-592539,-522900,-802676,0,0,0,197,146,211,274,139,235,319,122,245,154,106,97,0,,
2,1774544398224,866,885,12356,1958433,376292,-295658,0,0,0,419,328,116,480,407,414,365,89,359,171,79,327,0,,
1,1774544398240,3589,-15520,7776,25656,-190589,-175929,0,0,0,197,149,212,269,136,232,315,122,245,154,112,94,0,,
2,1774544398240,914,536,12366,2364048,326202,-259006,0,0,0,431,356,118,459,417,437,291,85,360,146,67,342,0,,
1,1774544398256,2919,-14108,8901,533896,568104,350636,0,0,0,194,146,214,263,136,235,311,118,247,151,108,98,0,,
2,1774544398256,1153,210,12467,2759889,249233,-232128,0,0,0,450,321,129,444,393,438,251,71,373,144,63,368,0,,
1,1774544398272,119,-11993,10318,851546,984714,878424,0,0,0,146,145,192,183,131,208,270,230,224,191,249,90,0,,
2,1774544398272,1325,-57,12438,3143512,182037,-232128,0,0,0,455,360,122,453,393,407,250,80,347,140,70,372,0,,
1,1774544398288,-1301,-4982,14630,1160643,1065348,1374446,0,0,0,143,133,143,189,129,191,305,330,222,294,363,87,0,,
2,1774544398288,1440,-358,12500,3525914,130725,-260228,0,0,0,463,312,135,451,387,405,234,75,327,158,68,326,0,,
1,1774544398304,-2249,11533,16491,2006081,1368338,1505171,0,0,0,145,122,133,190,122,190,349,346,228,354,432,90,0,,
2,1774544398304,1737,-674,13266,3915646,36651,-299323,0,0,0,463,283,133,455,368,377,223,76,337,159,63,294,0,,
1,1774544398320,-3244,10447,12127,3225368,1585806,952949,0,0,0,150,125,135,208,123,188,383,400,225,369,466,85,0,,
2,1774544398320,2680,-1148,14486,4401894,-161268,-390953,0,0,0,439,286,186,428,421,377,223,78,314,145,71,260,0,,
1,1774544398336,-2354,1234,13089,4085466,1132544,244346,0,0,0,160,132,161,226,121,194,429,449,224,399,482,81,0,,
2,1774544398336,3919,-1823,16530,5011538,-448375,-602313,0,0,0,378,272,153,397,375,339,215,76,279,130,67,255,0,,
1,1774544398352,-57,-1675,16539,3495370,410501,19547,0,0,0,179,132,180,237,116,201,465,473,226,437,494,80,0,,
2,1774544398352,5604,-3364,20626,5891184,-730594,-954171,0,0,0,343,232,142,384,330,313,198,67,214,133,62,237,0,,
1,1774544398368,19,-306,15635,2238210,224798,185703,0,0,0,188,130,195,236,115,213,462,487,236,450,504,89,0,,
2,1774544398368,7202,-5317,24991,6756169,-579100,-1340238,0,0,0,323,197,99,341,308,265,210,91,182,142,68,195,0,,
1,1774544398384,-1292,808,12031,965167,345749,197920,0,0,0,185,135,214,228,119,227,451,495,245,453,508,102,0,,
2,1774544398384,6666,-6092,28628,7513642,48869,-1781283,0,0,0,252,164,69,297,261,217,192,74,147,130,59,133,0,,
1,1774544398400,-1215,626,10227,463035,315206,-50090,0,0,0,196,144,205,241,122,216,466,507,235,463,513,95,0,,
2,1774544398400,4197,-2163,29968,8137946,521678,-2191784,0,0,0,169,132,66,234,199,137,193,68,97,103,44,80,0,,
1,1774544398416,-741,603,10016,309097,222354,-160046,0,0,0,221,142,215,270,116,220,488,499,231,481,517,100,0,,
2,1774544398416,5508,3508,27461,8301658,500909,-2417804,0,0,0,138,113,58,190,147,83,217,82,70,92,41,44,0,,
1,1774544398432,-550,794,10275,256563,151494,-103847,0,0,0,223,143,217,266,113,219,480,495,232,478,517,99,0,,
2,1774544398432,8336,10394,19808,7948578,904080,-2794097,0,0,0,154,105,46,183,122,69,241,92,65,130,45,28,0,,
1,1774544398448,-521,871,10222,185703,94073,-45204,0,0,0,235,159,202,269,128,217,496,491,236,486,517,102,0,,
2,1774544398448,6594,16587,9102,5929058,1793500,-3161838,0,0,0,159,104,45,187,122,69,247,90,64,143,44,26,0,,
1,1774544398464,-526,856,10050,120951,19547,-7330,0,0,0,225,150,212,275,121,230,499,489,242,494,517,121,0,,
2,1774544398464,717,18449,8834,1530828,1265712,-2091602,0,0,0,143,110,47,181,124,76,241,90,66,90,39,24,0,,
1,1774544398480,-526,861,10040,116064,-31764,2443,0,0,0,238,159,218,287,124,225,511,486,236,482,512,112,0,,
2,1774544398480,-1043,15506,10236,-2404365,-516791,-219911,0,0,0,139,118,48,183,130,77,236,92,70,88,42,22,0,,
1,1774544398496,-540,894,10050,139277,-65973,4886,0,0,0,242,156,218,305,128,225,523,476,234,478,484,110,0,,
2,1774544398496,2881,10303,6882,-3693291,-1391551,485026,0,0,0,134,117,44,182,132,73,232,89,64,83,41,20,0,,
1,1774544398512,-569,894,9997,173485,-75747,1221,0,0,0,245,176,232,293,138,230,518,465,242,471,463,111,0,,
2,1774544398512,3819,8078,4044,-3802025,-587652,-177150,0,0,0,138,115,45,182,126,73,240,92,70,90,39,23,0,,
1,1774544398528,-593,861,9930,196698,-62308,-7330,0,0,0,248,191,239,295,154,236,521,441,247,466,452,115,0,,
2,1774544398528,153,8111,4532,-3927863,543670,-1142317,0,0,0,137,114,43,183,131,73,241,94,68,91,41,23,0,,
1,1774544398544,-617,813,9887,210137,-17104,-7330,0,0,0,255,198,243,312,168,241,531,417,254,469,438,122,0,,
2,1774544398544,-2828,8265,6657,-4502076,575435,-1071457,0,0,0,137,114,45,177,123,72,249,94,70,97,44,26,0,,
1,1774544398560,-622,770,9882,213802,42760,8552,0,0,0,270,207,259,324,183,257,532,408,263,471,425,137,0,,
2,1774544398560,-3283,7815,8116,-5167919,503352,-448375,0,0,0,130,114,44,176,124,70,249,95,70,95,44,23,0,,
1,1774544398576,-579,727,9892,217468,102625,31764,0,0,0,286,224,269,344,219,272,530,385,261,472,407,160,0,,
2,1774544398576,-2943,6628,9351,-5739689,831998,326202,0,0,0,128,114,40,180,142,72,251,102,70,94,47,22,0,,
1,1774544398592,-507,703,9949,235793,135612,47647,0,0,0,305,249,263,366,250,265,536,347,254,475,387,173,0,,
2,1774544398592,-3259,5173,10940,-6134308,1200961,971275,0,0,0,126,107,46,179,126,77,249,92,75,92,38,23,0,,
1,1774544398608,-449,655,10011,250454,141720,52534,0,0,0,332,255,260,389,226,268,555,326,257,472,406,179,0,,
2,1774544398608,-4015,3508,13175,-6382320,1364672,1475850,0,0,0,119,112,62,175,134,101,248,98,111,92,45,41,0,,
1,1774544398624,-445,612,10021,251676,129503,48869,0,0,0,341,270,295,382,231,281,548,295,278,468,378,198,0,,
2,1774544398624,-4264,2364,15257,-6532592,1150870,1551597,0,0,0,118,120,69,172,148,111,247,108,125,88,51,45,0,,
1,1774544398640,-459,598,10016,256563,129503,47647,0,0,0,347,284,363,391,246,306,532,280,301,457,346,233,0,,
2,1774544398640,-4058,1497,17353,-6720739,800233,1354899,0,0,0,118,117,66,173,145,110,247,107,123,89,49,44,0,,
1,1774544398656,-454,574,10045,279776,138055,58643,0,0,0,379,311,379,401,297,333,524,274,304,451,311,284,0,,
2,1774544398656,-3441,1048,19301,-6862460,489913,1023810,0,0,0,120,116,67,172,139,107,243,97,121,86,44,43,0,,
1,1774544398672,-397,531,10088,310319,142942,74525,0,0,0,403,322,314,412,277,314,504,252,305,437,290,308,0,,
2,1774544398672,-2761,469,21368,-6893003,259006,868650,0,0,0,124,116,69,177,140,107,242,90,121,85,40,41,0,,
1,1774544398688,-325,488,10126,345749,131946,86742,0,0,0,411,334,308,401,312,336,499,219,311,412,261,333,0,,
2,1774544398688,-1478,-1072,24206,-6740287,-20769,1054353,0,0,0,124,114,67,184,140,118,244,89,127,91,40,50,0,,
1,1774544398704,-282,449,10179,393397,114842,95294,0,0,0,427,334,340,410,319,375,481,187,335,389,224,358,0,,
2,1774544398704,866,-4015,26164,-6437297,-218689,1551597,0,0,0,124,115,69,182,140,127,242,88,133,92,42,61,0,,
1,1774544398720,-315,382,10260,475253,90408,112399,0,0,0,453,353,337,410,350,393,445,178,359,366,221,398,0,,
2,1774544398720,3441,-8269,26848,-6010913,-393397,1974316,0,0,0,121,108,69,183,135,117,241,81,124,90,37,49,0,,
1,1774544398736,-368,311,10337,581543,83077,140499,0,0,0,469,375,318,415,368,387,421,166,362,345,212,426,0,,
2,1774544398736,5187,-13170,25436,-5376835,-549778,1891238,0,0,0,125,109,69,187,139,110,242,84,116,90,33,42,0,,
1,1774544398752,-378,201,10413,729373,105068,183259,0,0,0,487,388,312,429,367,391,397,154,357,319,172,453,0,,
2,1774544398752,5379,-17013,22809,-4783074,-403171,1373225,0,0,0,125,119,46,195,160,86,242,98,72,90,50,19,0,,
1,1774544398768,-330,76,10567,869872,130725,218689,0,0,0,519,393,302,443,372,420,367,145,357,287,133,483,0,,
2,1774544398768,2957,-20014,19430,-4436103,155159,718377,0,0,0,127,112,45,200,150,85,249,84,76,88,34,18,0,,
1,1774544398784,-296,-38,10902,1009149,162490,255341,0,0,0,534,408,278,462,384,440,339,123,358,283,127,489,0,,
2,1774544398784,-95,-24713,16022,-3835011,367740,601091,0,0,0,130,109,47,203,144,85,247,84,76,102,37,25,0,,
1,1774544398800,-224,-138,11600,1225395,164933,288328,0,0,0,532,440,271,485,409,455,290,117,360,301,126,499,0,,
2,1774544398800,-765,-29590,12299,-2667037,178372,681725,0,0,0,126,116,48,205,155,90,245,93,73,91,44,26,0,,
1,1774544398816,-244,-220,12428,1550375,127059,311541,0,0,0,556,441,215,485,434,459,275,131,352,227,110,537,0,,
2,1774544398816,536,-31495,9662,-976162,102625,430049,0,0,0,131,127,35,194,157,75,272,210,61,162,175,25,0,,
1,1774544398832,-287,-325,13041,2040289,92851,344527,0,0,0,546,425,179,464,453,436,239,134,319,206,114,543,0,,
2,1774544398832,81,-29619,12888,944397,277332,-261450,0,0,0,120,133,29,186,173,79,286,339,63,224,336,23,0,,
1,1774544398848,-311,-483,13223,2525316,108734,376292,0,0,0,533,455,169,452,441,415,229,128,321,207,103,539,0,,
2,1774544398848,-741,-16525,15529,3600439,452040,-992045,0,0,0,115,137,30,198,183,109,310,414,80,278,410,31,0,,
1,1774544398864,-315,-650,13519,3025004,151494,419053,0,0,0,528,471,193,430,444,435,199,123,337,196,95,518,0,,
2,1774544398864,2349,3938,13189,5842315,1198517,-1255938,0,0,0,121,136,35,226,182,131,351,448,102,310,438,44,0,,
1,1774544398880,-703,-770,14457,3578448,221133,480140,0,0,0,516,470,182,419,423,421,189,119,374,200,93,498,0,,
2,1774544398880,5015,6532,17343,6365215,990823,-1018923,0,0,0,132,129,39,244,173,137,369,475,113,320,464,42,0,,
1,1774544398896,-1842,-976,15419,4221078,344527,638965,0,0,0,514,448,179,424,409,400,183,105,361,193,89,454,0,,
2,1774544398896,4178,-81,21258,5209458,-268780,-367740,0,0,0,150,124,47,257,161,138,388,490,111,337,475,41,0,,
1,1774544398912,-3436,-1296,16855,5119050,667064,1018923,0,0,0,453,433,182,419,405,390,181,98,340,181,91,390,0,,
2,1774544398912,1249,-2675,19310,3442836,-805120,195476,0,0,0,165,126,63,266,157,143,404,496,115,361,480,47,0,,
1,1774544398928,-5288,-2474,19827,6076887,1293812,1505171,0,0,0,345,401,167,393,387,367,178,105,323,163,94,342,0,,
2,1774544398928,-909,-660,13591,1682322,-395840,268780,0,0,0,181,132,71,271,154,156,421,500,118,374,483,46,0,,
1,1774544398944,-7532,-4709,23718,6880786,1706757,2006081,0,0,0,251,340,158,348,349,326,181,113,300,141,95,299,0,,
2,1774544398944,-143,894,10447,789237,-43982,21991,0,0,0,193,137,71,281,153,161,446,504,116,376,482,40,0,,
1,1774544398960,-9542,-6757,26575,7412238,1295034,2593733,0,0,0,206,277,175,292,273,284,201,120,271,123,87,227,0,,
2,1774544398960,684,933,9863,441044,18325,-52534,0,0,0,188,135,84,292,157,150,453,515,119,383,493,44,0,,
1,1774544398976,-8676,-3871,26790,7511198,304210,3419623,0,0,0,181,219,182,241,179,245,225,125,251,114,81,143,0,,
2,1774544398976,617,397,10452,287106,-7330,35430,0,0,0,195,129,90,290,148,156,478,522,130,397,499,50,0,,
1,1774544398992,-6374,1780,23287,7048163,663399,4169766,0,0,0,154,166,187,214,152,222,241,124,249,109,114,92,0,,
2,1774544398992,354,425,10452,117286,31764,58643,0,0,0,202,123,96,306,141,165,498,530,133,416,504,58,0,,
1,1774544399008,-7552,6848,15171,5685933,2417804,4587597,0,0,0,177,168,196,228,159,225,251,142,245,101,153,97,0,,
2,1774544399008,311,693,10227,-28099,96516,14660,0,0,0,198,125,79,306,146,151,472,538,120,416,521,47,0,,
1,1774544399024,-10308,10088,10772,3607770,2624277,4735427,0,0,0,162,154,186,207,141,215,232,104,241,109,100,105,0,,
2,1774544399024,464,861,10189,-57421,118507,-29321,0,0,0,193,117,66,305,136,147,475,541,133,430,520,40,0,,
1,1774544399040,-8978,12629,10327,311541,735481,4260174,0,0,0,170,153,182,207,139,208,230,113,221,96,99,89,0,,
2,1774544399040,521,909,10203,-31764,118507,-41538,0,0,0,202,120,69,284,124,143,439,492,138,420,513,40,0,,
1,1774544399056,-4125,10835,8853,-2284635,-311541,2506990,0,0,0,157,160,172,190,150,194,242,137,239,81,113,73,0,,
2,1774544399056,507,894,10136,-8552,118507,-41538,0,0,0,190,119,61,291,137,143,463,517,133,379,496,44,0,,
1,1774544399072,-3091,7422,6020,-3519805,-437379,125838,0,0,0,157,160,166,192,154,189,243,139,250,84,113,71,0,,
2,1774544399072,521,890,10031,-1221,116064,-41538,0,0,0,181,127,59,278,155,146,468,520,135,361,490,44,0,,
1,1774544399088,-5618,5886,4431,-3404962,-894306,-1587027,0,0,0,159,159,170,195,154,197,246,133,260,95,113,73,0,,
2,1774544399088,574,890,9978,-2443,101403,-46425,0,0,0,172,131,62,268,162,154,486,518,135,356,481,47,0,,
1,1774544399104,-5513,6393,5340,-3549127,-2193006,-2392148,0,0,0,163,158,190,204,151,205,262,132,264,103,114,74,0,,
2,1774544399104,631,885,9992,-3665,73303,-46425,0,0,0,165,128,64,268,158,164,500,522,132,348,478,45,0,,
1,1774544399120,-3704,6661,6867,-4122118,-3018896,-2753780,0,0,0,159,160,182,201,152,204,256,140,265,97,123,76,0,,
2,1774544399120,674,909,9997,-2443,31764,-46425,0,0,0,163,125,59,264,154,151,504,526,128,338,479,39,0,,
1,1774544399136,-2072,5742,8097,-4840496,-3088534,-2785545,0,0,0,151,163,172,193,151,201,241,144,269,85,126,75,0,,
2,1774544399136,679,933,9973,8552,-24434,-52534,0,0,0,162,124,58,252,151,136,507,532,128,330,480,34,0,,
1,1774544399152,-1210,4570,9049,-5291314,-3034778,-2610838,0,0,0,146,162,174,190,148,202,239,144,275,79,123,73,0,,
2,1774544399152,655,938,9968,28099,-80634,-58643,0,0,0,171,126,62,255,144,131,501,534,132,330,481,32,0,,
1,1774544399168,191,3637,10629,-5546656,-3106860,-2266310,0,0,0,142,160,174,191,149,207,241,144,274,79,121,72,0,,
2,1774544399168,617,923,9987,59864,-136833,-62308,0,0,0,181,132,74,260,141,133,481,526,139,338,481,35,0,,
1,1774544399184,2014,2684,12596,-5699372,-3079982,-1940107,0,0,0,137,160,176,189,148,208,230,137,271,85,110,76,0,,
2,1774544399184,622,890,9949,89186,-175929,-52534,0,0,0,188,139,108,260,143,155,468,520,142,348,481,44,0,,
1,1774544399200,3278,1507,14443,-5718920,-2824640,-1671327,0,0,0,135,150,173,196,142,211,237,125,276,114,88,92,0,,
2,1774544399200,583,861,9949,114842,-191811,-34208,0,0,0,198,141,135,270,145,173,473,523,143,350,484,48,0,,
1,1774544399216,3330,641,15912,-5630955,-2488664,-1489289,0,0,0,139,147,176,195,136,210,241,112,277,82,83,79,0,,
2,1774544399216,488,842,9992,133168,-182037,-24434,0,0,0,200,143,123,269,152,166,471,519,159,345,481,63,0,,
1,1774544399232,2550,129,17051,-5502674,-2249205,-1478293,0,0,0,136,147,176,198,136,213,249,112,278,82,83,79,0,,
2,1774544399232,445,842,10016,155159,-169820,-35430,0,0,0,201,147,168,269,156,203,499,511,180,353,463,74,0,,
1,1774544399248,990,-497,18076,-5244888,-2108706,-1623679,0,0,0,136,147,179,190,131,212,241,110,273,72,69,76,0,,
2,1774544399248,478,856,9997,207694,-173485,-59864,0,0,0,211,157,134,304,190,190,511,492,183,358,470,58,0,,
1,1774544399264,-880,-1110,19138,-4763527,-2062281,-1740965,0,0,0,144,150,186,203,138,223,236,108,257,82,75,86,0,,
2,1774544399264,512,842,10016,288328,-206472,-85521,0,0,0,207,163,298,331,211,297,525,444,256,374,437,119,0,,
1,1774544399280,-2555,-1880,20631,-4173431,-2034181,-1743409,0,0,0,148,151,189,207,138,226,231,105,251,86,74,90,0,,
2,1774544399280,545,789,10069,375071,-255341,-106290,0,0,0,263,184,267,370,224,271,531,396,272,372,391,119,0,,
1,1774544399296,-3598,-3058,22900,-3655417,-1999972,-1659109,0,0,0,150,152,193,208,139,226,230,104,251,85,71,90,0,,
2,1774544399296,478,693,10169,456927,-284663,-112399,0,0,0,275,197,266,387,247,285,531,345,282,361,334,135,0,,
1,1774544399312,-3943,-4465,24570,-3722612,-1999972,-1639562,0,0,0,148,149,194,206,136,226,233,102,253,83,67,88,0,,
2,1774544399312,349,598,10270,516791,-256563,-123394,0,0,0,293,188,270,393,256,322,540,259,309,333,257,159,0,,
1,1774544399328,-3785,-7217,24666,-4423886,-2130697,-1761735,0,0,0,145,149,193,207,135,229,233,101,255,83,66,89,0,,
2,1774544399328,296,536,10385,591317,-183259,-136833,0,0,0,328,194,323,405,293,352,542,224,335,280,211,204,0,,
1,1774544399344,-2335,-13342,22239,-4944343,-2339613,-2065946,0,0,0,146,152,193,213,139,235,232,102,256,86,71,93,0,,
2,1774544399344,291,445,10504,693942,-94073,-141720,0,0,0,370,203,278,436,313,367,490,195,351,237,141,247,0,,
1,1774544399360,-95,-22225,17157,-4478863,-2295631,-2357939,0,0,0,149,156,194,216,141,237,238,106,259,91,75,94,0,,
2,1774544399360,229,287,10748,802676,97738,-124616,0,0,0,408,212,267,447,333,391,495,117,383,219,87,290,0,,
1,1774544399376,3053,-32955,10634,-2943148,-2337170,-2180788,0,0,0,147,156,188,220,143,236,241,107,260,93,77,92,0,,
2,1774544399376,320,148,11342,1038470,384845,-117286,0,0,0,410,230,224,459,349,426,477,72,400,202,64,356,0,,
1,1774544399392,8513,-38650,8111,-1139874,-2570520,-1638340,0,0,0,148,153,190,217,142,233,237,112,259,91,77,92,0,,
2,1774544399392,435,28,12328,1479515,707381,-139277,0,0,0,411,241,159,464,354,439,409,63,391,179,58,397,0,,
1,1774544399408,12873,-33500,9533,934623,-1572367,-990823,0,0,0,147,154,195,212,141,236,220,113,255,91,76,95,0,,
2,1774544399408,607,0,13558,2157576,891863,-183259,0,0,0,425,266,131,458,380,431,340,67,379,163,63,405,0,,
1,1774544399424,8308,-21316,11514,2452013,886976,-349414,0,0,0,136,134,175,184,126,208,253,161,257,132,167,97,0,,
2,1774544399424,1028,-62,14548,3022561,842994,-240680,0,0,0,433,286,118,456,415,439,273,80,397,158,71,429,0,,
1,1774544399440,-1938,-9916,15056,2751337,2471560,667064,0,0,0,129,128,143,168,121,187,293,309,240,233,323,97,0,,
2,1774544399440,1378,-157,14917,3803246,671951,-302989,0,0,0,448,255,126,451,403,456,218,68,454,157,66,447,0,,
1,1774544399456,-5149,4632,18233,3297450,3579670,1317025,0,0,0,129,125,119,174,124,182,327,365,240,297,423,86,0,,x
2,1774544399456,1675,-282,15276,4505742,438601,-370184,0,0,0,441,281,132,461,404,431,202,73,455,146,68,420,0,,x
1,1774544399472,-3996,9246,14568,4238183,3450166,594982,0,0,0,133,117,100,194,129,179,363,426,251,330,470,75,0,,
2,1774544399472,2756,-344,17090,5318192,183259,-514348,0,0,0,390,247,155,468,390,411,215,72,368,133,55,381,0,,
1,1774544399488,-1076,3177,13385,5071403,1893682,-432492,0,0,0,153,115,121,200,112,181,398,460,241,379,497,75,0,,
2,1774544399488,4240,-823,20133,6296798,-92851,-777020,0,0,0,352,234,185,438,355,409,213,68,312,140,56,332,0,,
1,1774544399504,2297,-1541,18300,4597371,714712,-421497,0,0,0,186,124,173,213,103,194,435,462,241,429,514,88,0,,
2,1774544399504,5527,-2675,25254,7484320,-164933,-1077566,0,0,0,314,213,143,374,321,370,193,58,264,145,66,309,0,,
1,1774544399520,1139,-1631,19502,2711019,724486,368962,0,0,0,226,146,197,248,128,222,460,443,250,463,528,99,0,,
2,1774544399520,6302,-4761,30873,8653516,312763,-1343903,0,0,0,231,164,93,320,277,267,180,53,192,94,56,181,0,,
1,1774544399536,-1976,-277,14290,698829,1033583,530231,0,0,0,262,184,193,280,174,241,477,421,253,491,542,112,0,,
2,1774544399536,4331,-3508,34821,9459859,712268,-1681101,0,0,0,146,151,60,246,240,195,190,74,154,97,66,104,0,,
1,1774544399552,-995,315,10356,157603,635299,-46425,0,0,0,283,238,202,298,215,235,496,406,260,509,548,122,0,,
2,1774544399552,5470,1450,34840,9797056,377514,-2017077,0,0,0,118,111,46,184,148,100,226,92,88,106,59,46,0,,
1,1774544399568,9,531,9940,188146,216246,-204028,0,0,0,297,277,208,317,232,239,508,398,275,506,546,116,0,,
2,1774544399568,11552,9882,27556,9307142,588874,-2460565,0,0,0,137,102,46,190,129,87,236,92,75,108,50,34,0,,
1,1774544399584,-129,717,10452,186924,-1221,-47647,0,0,0,293,261,216,322,210,257,520,397,305,506,554,132,0,,
2,1774544399584,11155,18702,12534,6834360,2326174,-3467271,0,0,0,144,102,45,195,129,88,233,85,71,106,46,34,0,,
1,1774544399600,-478,832,10323,107512,-29321,24434,0,0,0,298,226,239,328,202,262,533,396,283,506,553,133,0,,
2,1774544399600,3096,21655,8111,2443460,2828306,-3577226,0,0,0,149,106,48,197,130,87,239,83,71,108,46,32,0,,
1,1774544399616,-502,890,10054,70860,-56199,12217,0,0,0,298,268,246,328,216,271,534,403,284,488,552,149,0,,
2,1774544399616,-2550,17875,10916,-2212553,398284,-1484402,0,0,0,150,106,48,199,129,88,242,85,71,111,49,36,0,,
1,1774544399632,-358,890,10078,109955,-113620,0,0,0,0,291,279,230,337,245,271,518,391,297,479,534,152,0,,
2,1774544399632,-19,12275,9715,-4466646,-2145358,619417,0,0,0,148,105,48,198,131,91,241,87,72,111,51,39,0,,
1,1774544399648,-349,894,10131,152716,-156381,4886,0,0,0,291,308,224,328,315,261,522,383,303,466,503,168,0,,
2,1774544399648,6882,8131,4355,-4598593,-2548529,1387885,0,0,0,144,113,52,194,141,95,241,94,77,109,56,42,0,,
1,1774544399664,-425,875,10088,184481,-172263,10995,0,0,0,301,314,214,345,335,269,519,359,318,465,479,188,0,,
2,1774544399664,6331,7767,3484,-4805065,-740368,635299,0,0,0,141,120,55,193,148,95,243,99,80,111,60,44,0,,
1,1774544399680,-459,837,9992,202807,-161268,7330,0,0,0,298,323,212,345,309,266,514,336,306,454,470,197,0,,
2,1774544399680,2660,7073,5972,-5588195,304210,30543,0,0,0,141,115,54,191,142,90,249,95,78,117,59,38,0,,
1,1774544399696,-459,818,9964,208915,-144164,7330,0,0,0,295,324,223,341,323,270,491,329,305,431,431,212,0,,
2,1774544399696,1311,5513,8016,-6273586,146607,7330,0,0,0,125,122,52,182,146,91,246,98,76,116,62,40,0,,
1,1774544399712,-483,784,9987,217468,-123394,18325,0,0,0,294,319,229,338,339,276,474,326,317,411,386,226,0,,
2,1774544399712,1354,4082,8987,-6668204,230907,155159,0,0,0,122,129,46,182,157,85,230,105,70,103,58,31,0,,
1,1774544399728,-492,737,9997,226020,-101403,35430,0,0,0,298,340,223,345,338,280,488,315,321,410,369,233,0,,
2,1774544399728,1162,2804,10050,-6784269,697608,493579,0,0,0,121,121,44,184,161,90,237,97,74,98,57,34,0,,
1,1774544399744,-454,703,9987,230907,-85521,47647,0,0,0,311,360,224,356,358,286,504,308,327,413,365,237,0,,
2,1774544399744,306,1828,12065,-6663318,1086118,1040914,0,0,0,121,108,46,190,145,90,237,89,74,97,43,26,0,,
1,1774544399760,-411,670,9987,230907,-85521,51312,0,0,0,321,342,232,356,377,292,486,308,344,393,352,244,0,,
2,1774544399760,-4,1277,14448,-6571688,1313360,1598023,0,0,0,121,113,46,190,158,94,237,95,77,97,50,33,0,,
1,1774544399776,-435,641,10007,232128,-92851,54977,0,0,0,329,348,229,359,377,297,462,306,349,364,346,260,0,,
2,1774544399776,-71,904,16836,-6619335,1412320,1965764,0,0,0,124,109,57,187,144,103,239,81,83,97,43,43,0,,
1,1774544399792,-483,598,10035,250454,-92851,67195,0,0,0,344,351,247,360,377,322,450,313,376,355,327,287,0,,
2,1774544399792,-258,239,19171,-6621779,1370781,2182010,0,0,0,121,108,56,187,143,101,238,83,82,97,44,41,0,,
1,1774544399808,-502,569,10059,276111,-86742,84299,0,0,0,360,380,257,392,403,338,467,253,354,383,319,319,0,,
2,1774544399808,-406,-464,21588,-6465397,1102000,2272418,0,0,0,124,105,55,186,140,112,238,82,92,94,39,42,0,,
1,1774544399824,-507,555,10102,311541,-84299,105068,0,0,0,418,396,257,400,396,346,458,225,362,346,271,343,0,,
2,1774544399824,196,-923,24426,-6289468,508239,2320066,0,0,0,124,112,55,184,147,103,234,84,86,91,40,38,0,,
1,1774544399840,-526,516,10217,364075,-98960,124616,0,0,0,472,393,253,439,406,375,465,199,353,355,228,389,0,,
2,1774544399840,1679,-2057,26829,-6313903,-35430,2395813,0,0,0,123,113,55,184,142,94,233,81,82,88,38,33,0,,
1,1774544399856,-598,478,10380,455705,-130725,152716,0,0,0,471,433,238,432,438,374,437,175,358,317,194,414,0,,
2,1774544399856,3919,-7073,28963,-6390872,-205250,2400700,0,0,0,121,107,48,187,137,92,233,76,80,89,36,27,0,,
1,1774544399872,-727,416,10576,609643,-169820,196698,0,0,0,490,443,227,465,442,393,419,152,397,307,157,440,0,,
2,1774544399872,5570,-15640,29681,-6261368,-21991,2028072,0,0,0,121,108,46,191,146,99,238,78,80,96,42,30,0,,
1,1774544399888,-894,335,10859,795346,-197920,261450,0,0,0,530,446,215,486,444,415,380,140,409,286,139,475,0,,
2,1774544399888,5216,-24867,26857,-5811771,133168,1160643,0,0,0,127,117,52,200,158,109,249,84,84,106,49,38,0,,
1,1774544399904,-971,205,11409,1021366,-226020,357967,0,0,0,551,458,192,483,471,436,359,137,401,262,132,505,0,,
2,1774544399904,3254,-32667,20397,-4792848,-39095,75747,0,0,0,135,122,52,208,163,106,261,87,82,109,48,38,0,,
1,1774544399920,-583,81,12184,1326799,-263893,412944,0,0,0,557,478,175,483,496,458,330,138,409,246,123,529,0,,
2,1774544399920,253,-38865,13610,-3109304,-101403,-835663,0,0,0,139,120,49,212,164,103,264,87,79,111,48,34,0,,
1,1774544399936,-71,0,13070,1870469,-287106,348193,0,0,0,559,487,171,481,496,472,285,137,409,226,113,545,0,,
2,1774544399936,-2804,-40263,10672,-1053131,-53756,-951728,0,0,0,137,117,48,209,159,97,265,106,77,119,72,35,0,,
1,1774544399952,-110,-71,13797,2519208,-285884,230907,0,0,0,548,474,165,467,496,455,260,130,381,211,109,545,0,,
2,1774544399952,-3220,-37697,10691,932180,-199142,-630412,0,0,0,134,120,49,197,148,94,273,176,76,158,160,39,0,,
1,1774544399968,-569,-138,14290,3188716,-294437,167377,0,0,0,548,472,165,466,476,437,211,115,382,210,104,538,0,,
2,1774544399968,-335,-25905,16104,2739119,-365297,-373849,0,0,0,122,136,32,171,151,73,311,318,66,236,293,27,0,,
1,1774544399984,-1191,-248,14572,3815464,-322536,216246,0,0,0,554,490,162,449,407,480,169,110,373,188,85,533,0,,
2,1774544399984,1397,6891,19191,4333478,-284663,-431270,0,0,0,122,137,37,177,163,88,327,386,73,251,354,27,0,,
1,1774544400000,-1407,-402,15022,4541172,-355523,378736,0,0,0,536,455,186,459,408,497,156,86,384,191,70,508,0,,
2,1774544400000,1502,19329,13553,5203350,-158824,-359188,0,0,0,122,137,37,197,167,93,343,426,72,263,405,27,0,,
1,1774544400016,-1531,-636,15577,5302310,-278554,520457,0,0,0,526,429,158,482,440,467,198,83,400,193,75,476,0,,
2,1774544400016,1617,5049,12500,5666385,172263,-161268,0,0,0,137,127,40,225,155,117,390,463,79,295,443,41,0,,
1,1774544400032,-2871,-1407,16506,6192951,-10995,692721,0,0,0,459,452,172,455,440,485,223,90,400,181,74,420,0,,
2,1774544400032,1617,-3919,18032,4897917,480140,213802,0,0,0,157,128,50,241,153,123,393,481,78,307,455,33,0,,
1,1774544400048,-4915,-3397,20114,7131240,273667,1033583,0,0,0,335,380,162,439,402,456,201,97,387,161,81,327,0,,
2,1774544400048,646,-2282,18095,3334102,274889,278554,0,0,0,187,134,65,260,143,137,415,494,115,345,465,45,0,,
1,1774544400064,-6570,-6202,25738,7836179,223576,1343903,0,0,0,279,329,160,397,336,372,194,100,333,145,75,267,0,,
2,1774544400064,679,430,13433,1626123,-76969,2443,0,0,0,210,139,78,282,146,149,450,500,135,370,470,51,0,,
1,1774544400080,-7178,-7178,30117,8396953,-168598,1776396,0,0,0,227,283,150,337,265,303,197,98,289,115,66,210,0,,
2,1774544400080,1349,469,10586,623082,-139277,-116064,0,0,0,221,144,101,286,150,175,451,505,153,375,475,61,0,,
1,1774544400096,-8054,-3785,29868,8739038,-313984,2382374,0,0,0,167,230,173,267,205,268,211,100,271,98,78,145,0,,
2,1774544400096,1545,38,10275,251676,-69638,-37873,0,0,0,243,139,105,290,143,186,460,508,162,417,480,66,0,,
1,1774544400112,-10547,2770,25762,8742703,-147829,3270572,0,0,0,135,187,224,225,174,275,223,108,277,90,90,120,0,,
2,1774544400112,1354,282,10437,83077,-65973,30543,0,0,0,263,138,99,295,143,176,472,511,159,447,485,67,0,,
1,1774544400128,-13294,9241,18803,7794640,-442266,4608367,0,0,0,134,155,266,217,153,290,234,105,291,97,84,126,0,,
2,1774544400128,1186,727,10299,8552,-129503,15882,0,0,0,265,140,132,289,146,185,463,509,166,448,487,68,0,,
1,1774544400144,-13113,14563,13883,5017647,-1385442,6059783,0,0,0,144,136,249,221,134,270,241,94,281,116,75,121,0,,
2,1774544400144,1172,770,10102,-25656,-171042,-17104,0,0,0,269,140,154,289,146,190,459,502,166,456,484,63,0,,
1,1774544400160,-6326,17803,13084,156381,-1990198,6251594,0,0,0,153,139,197,221,137,236,236,100,256,119,80,108,0,,
2,1774544400160,1119,756,10107,-18325,-171042,-23212,0,0,0,285,153,108,296,154,147,463,506,134,458,486,55,0,,
1,1774544400176,1368,14524,12371,-4560719,-158824,3999945,0,0,0,162,137,205,219,133,236,240,96,258,122,75,109,0,,
2,1774544400176,1024,799,10117,8552,-142942,-24434,0,0,0,279,162,105,279,158,130,431,505,119,443,494,44,0,,
1,1774544400192,-43,9657,9782,-6129421,2019520,1568701,0,0,0,147,132,231,204,129,256,234,98,273,107,79,114,0,,
2,1774544400192,990,837,10074,29321,-118507,-28099,0,0,0,277,168,118,276,169,125,387,470,118,419,495,49,0,,
1,1774544400208,-7083,7508,6757,-5667607,1780061,133168,0,0,0,142,132,199,201,132,237,226,102,268,100,87,106,0,,
2,1774544400208,1009,837,10021,41538,-109955,-36651,0,0,0,272,174,121,276,186,139,407,498,109,401,485,51,0,,
1,1774544400224,-9370,7331,5987,-5466022,-477696,-415388,0,0,0,150,138,211,201,132,238,229,102,266,98,86,109,0,,
2,1774544400224,1043,804,9978,52534,-124616,-42760,0,0,0,285,182,139,281,195,152,416,488,115,414,488,70,0,,
1,1774544400240,-5738,6920,7513,-5888740,-2519208,-807563,0,0,0,154,137,204,206,132,239,231,100,265,99,89,108,0,,
2,1774544400240,1048,775,9968,63529,-147829,-45204,0,0,0,293,191,179,287,203,166,408,467,124,403,481,68,0,,
1,1774544400256,-2153,5532,9437,-6400645,-2778215,-1573588,0,0,0,149,140,203,207,135,240,227,109,265,93,98,104,0,,
2,1774544400256,1019,770,9968,75747,-172263,-52534,0,0,0,298,197,170,288,214,164,410,456,124,403,481,65,0,,
1,1774544400272,-1732,4288,10705,-6640105,-2436130,-2169793,0,0,0,145,169,205,198,185,239,229,134,268,95,112,103,0,,
2,1774544400272,971,789,9973,95294,-185703,-62308,0,0,0,315,209,177,295,229,193,408,468,141,411,465,74,0,,
1,1774544400288,-2244,3350,12012,-6746395,-2390926,-2401922,0,0,0,145,151,209,201,151,243,233,118,271,97,101,109,0,,
2,1774544400288,918,808,9983,124616,-184481,-67195,0,0,0,359,213,152,337,247,183,426,452,135,412,464,64,0,,
1,1774544400304,-1344,2603,13898,-6827029,-2668259,-2328618,0,0,0,144,138,209,208,134,249,232,108,271,96,91,108,0,,
2,1774544400304,880,794,10002,166155,-162490,-63529,0,0,0,376,217,174,352,258,198,426,408,150,403,460,71,0,,
1,1774544400320,-4,2081,16123,-6835582,-2795319,-2221106,0,0,0,140,137,208,211,135,251,229,106,270,93,88,105,0,,
2,1774544400320,875,756,10040,218689,-133168,-63529,0,0,0,381,220,206,352,259,249,413,366,194,386,443,102,0,,
1,1774544400336,631,2220,18607,-6820921,-2711019,-2202780,0,0,0,135,137,208,209,135,252,227,105,269,90,87,104,0,,
2,1774544400336,904,684,10078,270002,-113620,-70860,0,0,0,388,228,193,357,263,248,406,340,212,361,408,107,0,,
1,1774544400352,650,2077,21009,-6847799,-2610838,-2271196,0,0,0,134,141,211,193,138,247,230,110,271,91,93,105,0,,
2,1774544400352,933,612,10107,326202,-94073,-89186,0,0,0,394,238,195,371,273,242,404,302,218,352,357,114,0,,
1,1774544400368,-306,631,23780,-6774495,-2476447,-2335948,0,0,0,137,142,213,183,137,243,234,113,272,94,94,106,0,,
2,1774544400368,957,559,10131,388510,-79412,-119729,0,0,0,402,248,237,385,302,299,418,249,269,351,301,154,0,,
1,1774544400384,-2081,-1727,27260,-6654765,-2334726,-2278527,0,0,0,142,135,215,209,128,248,235,97,276,96,75,107,0,,
2,1774544400384,1005,483,10198,464257,-64751,-157603,0,0,0,417,271,234,395,349,342,436,206,322,319,245,183,0,,
1,1774544400400,-4087,-5393,30897,-6624222,-2244318,-2089159,0,0,0,145,138,218,211,131,255,238,96,282,105,81,115,0,,
2,1774544400400,1182,344,10351,572991,-54977,-212581,0,0,0,433,299,205,408,369,342,404,151,309,294,189,209,0,,
1,1774544400416,-4666,-12232,32615,-6625444,-2247984,-1760513,0,0,0,143,138,215,219,135,255,237,95,276,106,79,113,0,,
2,1774544400416,1368,210,10605,722042,-56199,-298102,0,0,0,464,307,214,414,382,385,385,116,342,271,155,265,0,,
1,1774544400432,-2546,-22608,30500,-6356663,-2359161,-1326799,0,0,0,144,143,209,221,136,246,233,97,271,96,75,102,0,,
2,1774544400432,1469,129,11050,893084,-54977,-379958,0,0,0,462,311,165,415,399,373,361,99,335,231,120,363,0,,
1,1774544400448,3163,-34089,23981,-5360953,-2486221,-1072679,0,0,0,142,150,196,223,152,248,238,107,273,97,79,101,0,,
2,1774544400448,1531,110,11935,1216843,-19547,-467922,0,0,0,500,360,145,432,421,388,318,91,347,214,104,442,0,,
1,1774544400464,10973,-44867,15314,-3296228,-1932777,-1280373,0,0,0,139,145,194,227,149,250,238,102,274,99,74,103,0,,
2,1774544400464,1244,134,13036,1689653,91629,-533896,0,0,0,523,347,146,450,439,421,321,85,339,211,94,422,0,,
1,1774544400480,15654,-50533,10050,-817337,-730594,-1583362,0,0,0,128,145,163,186,129,211,253,199,253,166,205,102,0,,
2,1774544400480,646,172,14256,2345722,244346,-521678,0,0,0,523,385,156,437,410,432,259,75,333,198,82,450,0,,
1,1774544400496,11634,-40535,14256,1864360,983493,-1218065,0,0,0,133,141,126,169,121,183,306,306,245,257,322,94,0,,
2,1774544400496,1124,14,15080,3099530,272445,-474031,0,0,0,514,351,167,402,418,415,221,70,347,165,85,414,0,,
1,1774544400512,1694,-14376,17841,4638910,3083647,-52534,0,0,0,132,124,107,181,125,186,344,379,243,329,425,88,0,,
2,1774544400512,2100,-153,15998,3946189,190589,-529009,0,0,0,503,353,148,407,405,388,218,71,321,153,73,399,0,,
1,1774544400528,-4513,7135,18085,6536258,4140444,1435533,0,0,0,139,112,109,194,119,188,361,426,253,401,487,86,0,,
2,1774544400528,3168,-320,17133,4952895,23212,-739146,0,0,0,484,332,129,416,392,358,210,77,287,148,72,308,0,,
1,1774544400544,-3335,4254,21081,6846577,2228436,1453859,0,0,0,177,115,150,203,101,190,392,418,261,474,518,85,0,,
2,1774544400544,4455,-402,19425,6178291,-317649,-1106887,0,0,0,439,291,119,409,394,354,212,76,271,151,72,240,0,,
1,1774544400560,-215,-3704,23756,5806884,-405614,403171,0,0,0,237,129,219,229,93,209,439,381,257,515,533,83,0,,
2,1774544400560,6479,-674,23780,7397578,-935845,-1514945,0,0,0,346,246,106,366,360,329,200,68,218,146,65,185,0,,
1,1774544400576,626,-2751,19492,3546683,-569326,21991,0,0,0,273,163,272,273,116,238,465,374,260,527,523,91,0,,
2,1774544400576,9035,-2469,30763,8754920,-1574810,-2040289,0,0,0,238,210,91,304,311,293,194,70,182,119,62,171,0,,
1,1774544400592,-28,-4,13218,1423316,59864,111177,0,0,0,283,212,306,291,159,268,464,354,274,535,509,116,0,,
2,1774544400592,11251,-4613,34237,9892351,-1001818,-2608394,0,0,0,150,177,61,238,269,198,191,78,128,93,53,107,0,,
1,1774544400608,-784,646,9920,433714,238237,178372,0,0,0,305,197,310,297,168,269,468,357,301,529,495,134,0,,
2,1774544400608,10461,-1631,35319,10554529,764803,-3419623,0,0,0,112,135,46,188,196,109,196,81,78,84,40,37,0,,
1,1774544400624,-713,67,10059,260228,4886,41538,0,0,0,337,213,260,347,190,233,524,352,262,534,520,135,0,,
2,1774544400624,9873,8839,30528,9704205,897971,-4227187,0,0,0,114,106,59,170,128,95,212,83,76,87,38,36,0,,
1,1774544400640,-440,224,10418,188146,-91629,-37873,0,0,0,324,227,269,326,211,241,534,347,262,534,507,125,0,,
2,1774544400640,9408,17587,18746,7561289,432492,-4652349,0,0,0,121,108,61,174,125,92,219,81,75,94,41,37,0,,
1,1774544400656,-387,732,10208,84299,-51312,-17104,0,0,0,332,244,279,321,213,257,538,343,266,540,521,134,0,,
2,1774544400656,4804,20770,10969,3115412,597426,-3235142,0,0,0,127,109,60,174,122,91,221,80,77,92,40,34,0,,
1,1774544400672,-425,880,10050,14660,-41538,9773,0,0,0,317,222,352,308,201,311,540,342,297,543,514,155,0,,
2,1774544400672,746,19329,10643,-1241278,-17104,-581543,0,0,0,128,108,59,181,122,95,225,80,78,96,43,37,0,,
1,1774544400688,-421,885,10098,3665,-85521,13439,0,0,0,311,206,358,300,195,304,508,339,292,522,508,145,0,,
2,1774544400688,3570,13668,8341,-3431840,-1390329,1707979,0,0,0,124,107,54,184,128,101,224,81,78,94,41,36,0,,
1,1774544400704,-397,894,10150,30543,-139277,6108,0,0,0,320,218,343,298,202,275,494,350,286,514,483,130,0,,
2,1774544400704,7351,9705,4661,-3881437,-1181413,2283414,0,0,0,124,107,61,189,129,109,225,81,82,95,41,39,0,,
1,1774544400720,-397,899,10083,54977,-173485,3665,0,0,0,317,221,337,294,198,265,484,349,279,505,468,117,0,,
2,1774544400720,6494,8317,3742,-4144109,755029,1701870,0,0,0,118,107,51,188,132,104,219,79,75,91,41,30,0,,
1,1774544400736,-435,866,9978,72082,-180816,2443,0,0,0,314,230,334,298,202,268,481,336,266,494,445,133,0,,
2,1774544400736,1818,8030,7255,-5180137,1385442,1566258,0,0,0,118,108,52,185,136,103,222,84,79,93,44,33,0,,
1,1774544400752,-464,856,9935,74525,-156381,2443,0,0,0,317,242,330,305,213,272,480,323,258,486,435,137,0,,
2,1774544400752,67,6795,9389,-6069557,1110553,1817934,0,0,0,122,109,52,184,137,96,226,86,77,96,46,37,0,,
1,1774544400768,-464,890,9944,75747,-124616,3665,0,0,0,317,245,331,308,218,272,468,320,260,482,440,120,0,,
2,1774544400768,445,4637,10241,-6664539,823446,2174680,0,0,0,123,109,54,184,133,94,225,84,77,96,44,36,0,,
1,1774544400784,-464,938,9968,91629,-95294,6108,0,0,0,312,250,345,314,227,283,457,314,270,481,413,142,0,,
2,1774544400784,-86,3086,11308,-6757391,1132544,2290744,0,0,0,119,108,49,186,137,94,225,87,77,93,46,36,0,,
1,1774544400800,-464,909,9959,133168,-63529,9773,0,0,0,312,258,375,314,245,301,453,299,295,471,392,164,0,,
2,1774544400800,-1536,2081,13170,-6759834,1301142,2338392,0,0,0,119,113,54,188,144,98,226,90,79,93,47,36,0,,
1,1774544400816,-464,861,9964,178372,-36651,21991,0,0,0,331,258,353,334,228,280,453,290,284,456,355,166,0,,
2,1774544400816,-2412,1368,15137,-6817256,1066570,2290744,0,0,0,122,116,56,187,148,100,230,93,79,99,51,39,0,,
1,1774544400832,-425,875,9968,233350,-12217,39095,0,0,0,315,264,367,336,264,302,440,255,299,430,347,204,0,,
2,1774544400832,-2483,717,16664,-6911329,766025,2111150,0,0,0,122,114,54,191,149,100,230,93,78,97,49,36,0,,
1,1774544400848,-373,880,10016,306654,-2443,58643,0,0,0,336,289,346,355,290,311,430,224,288,421,301,231,0,,
2,1774544400848,-2201,258,18305,-6934542,521678,1766622,0,0,0,121,113,53,191,148,99,228,91,78,93,47,30,0,,
1,1774544400864,-406,808,10102,376292,-18325,75747,0,0,0,364,309,387,378,302,349,446,209,308,396,254,280,0,,
2,1774544400864,-1947,-28,20535,-6844134,316428,1485624,0,0,0,124,114,57,184,143,100,229,91,80,93,48,34,0,,
1,1774544400880,-540,741,10217,461814,-30543,102625,0,0,0,403,302,422,405,305,389,431,174,369,366,208,341,0,,
2,1774544400880,-1095,-741,23594,-6677978,51312,1481959,0,0,0,122,112,58,182,141,100,228,89,79,92,47,37,0,,
1,1774544400896,-607,622,10332,565661,-26878,144164,0,0,0,438,328,389,426,356,412,396,150,377,339,188,403,0,,
2,1774544400896,2148,-3694,27106,-6554584,-164933,1775174,0,0,0,120,112,55,180,140,94,226,88,75,93,48,34,0,,
1,1774544400912,-655,440,10485,682947,-56199,195476,0,0,0,464,343,396,447,349,439,365,119,377,316,152,442,0,,
2,1774544400912,5637,-9054,29456,-6539923,-108734,1886351,0,0,0,121,114,56,187,140,95,229,86,78,95,47,37,0,,
1,1774544400928,-770,325,10748,851546,-108734,261450,0,0,0,486,368,378,478,373,475,362,116,378,292,127,475,0,,
2,1774544400928,7714,-19483,29499,-6582683,-83077,1486845,0,0,0,126,114,53,186,142,90,231,86,74,96,44,36,0,,
1,1774544400944,-976,272,11251,1153313,-141720,351858,0,0,0,511,385,312,496,423,500,341,117,376,276,120,509,0,,
2,1774544400944,6800,-30552,26192,-6221051,-367740,746477,0,0,0,124,113,52,193,142,93,230,84,74,95,43,35,0,,
1,1774544400960,-952,239,12194,1543045,-95294,444709,0,0,0,535,407,241,496,447,504,307,112,369,258,115,535,0,,
2,1774544400960,3345,-40535,19640,-4841717,-660956,-3665,0,0,0,125,112,52,194,144,99,230,84,74,93,41,31,0,,
1,1774544400976,-741,153,13496,1985312,29321,482583,0,0,0,551,456,192,485,459,495,289,124,361,223,110,555,0,,
2,1774544400976,363,-45474,13036,-2448347,-426383,-240680,0,0,0,119,110,38,185,141,87,264,167,75,178,131,31,0,,
1,1774544400992,-655,-4,14534,2591290,167377,472809,0,0,0,554,457,182,454,463,482,240,123,374,199,101,560,0,,
2,1774544400992,-1761,-46149,13797,-54977,-171042,0,0,0,0,129,124,35,181,152,72,311,304,69,238,261,37,0,,
1,1774544401008,-818,-157,15118,3347541,232128,481361,0,0,0,539,443,190,443,446,468,217,111,341,210,107,543,0,,
2,1774544401008,-2450,-37157,17252,2961474,-1048244,397062,0,0,0,125,120,31,192,152,76,361,406,68,279,368,27,0,,
1,1774544401024,-1172,-181,15462,4070805,241902,553443,0,0,0,535,470,192,457,430,453,201,104,347,201,95,520,0,,
2,1774544401024,957,-4383,16692,5655390,-2546086,744033,0,0,0,126,114,31,209,144,89,385,448,71,344,432,33,0,,
1,1774544401040,-2163,-172,16286,4915021,276111,757472,0,0,0,534,400,167,438,411,462,198,74,347,200,66,522,0,,
2,1774544401040,708,11935,18607,6432410,-2083050,1092227,0,0,0,142,114,42,223,144,119,400,468,91,394,464,37,0,,
1,1774544401056,-3771,-167,17674,5953492,381179,1132544,0,0,0,485,396,156,459,421,427,246,90,351,180,62,426,0,,
2,1774544401056,-2751,3369,21081,5349957,-564439,916297,0,0,0,171,122,67,245,149,131,405,486,101,428,484,41,0,,
1,1774544401072,-6030,-1349,21062,7221648,746477,1703092,0,0,0,347,362,171,422,400,413,213,87,342,159,70,347,0,,
2,1774544401072,-2866,-3541,18530,3422067,124616,343306,0,0,0,199,138,118,268,155,149,417,500,109,454,493,41,0,,
1,1774544401088,-8274,-4522,26723,8235685,970053,2224771,0,0,0,269,315,166,363,340,361,189,106,306,135,75,281,0,,
2,1774544401088,-512,-1593,12998,1580919,107512,-23212,0,0,0,218,154,141,279,157,165,440,511,120,455,495,42,0,,
1,1774544401104,-10547,-7695,31830,8873428,393397,2786767,0,0,0,245,264,149,350,260,298,243,100,279,145,66,194,0,,
2,1774544401104,105,1139,10524,679282,87964,-4886,0,0,0,226,160,119,281,157,154,453,525,123,440,501,49,0,,
1,1774544401120,-10567,-3038,30825,8801346,-300545,3607770,0,0,0,181,191,204,277,175,269,254,93,268,129,67,120,0,,
2,1774544401120,-4,933,10514,419053,102625,14660,0,0,0,226,158,126,287,159,158,454,539,134,442,513,48,0,,
1,1774544401136,-11261,6508,24498,8108625,423940,4668232,0,0,0,145,157,218,226,143,253,242,103,263,110,89,97,0,,
2,1774544401136,-33,449,10543,241902,68416,2443,0,0,0,233,165,131,292,161,165,460,550,146,443,515,48,0,,
1,1774544401152,-14290,12845,15821,6735400,1230282,5579643,0,0,0,153,156,189,225,146,237,241,109,256,103,93,100,0,,
2,1774544401152,0,646,10270,103847,35430,-17104,0,0,0,234,162,126,309,170,163,479,543,143,448,511,47,0,,
1,1774544401168,-15032,16415,10772,3946189,-23212,6404311,0,0,0,155,147,196,220,138,232,237,100,251,102,74,99,0,,
2,1774544401168,0,938,10107,56199,20769,-28099,0,0,0,228,165,138,302,168,158,464,546,146,434,513,47,0,,
1,1774544401184,-7609,17406,10969,-270002,-2046398,5904623,0,0,0,158,143,203,219,133,236,244,98,251,111,81,101,0,,
2,1774544401184,-28,1009,10112,51312,10995,-32986,0,0,0,226,173,131,312,183,165,468,533,148,427,494,54,0,,
1,1774544401200,-469,13342,10102,-3897320,-1252273,3299894,0,0,0,155,142,204,225,137,244,252,98,257,113,84,102,0,,
2,1774544401200,-47,957,10145,64751,4886,-29321,0,0,0,228,175,147,312,186,173,472,530,152,398,482,50,0,,
1,1774544401216,-1737,8126,7307,-5175250,354301,404392,0,0,0,154,144,206,223,136,244,242,100,261,113,87,104,0,,
2,1774544401216,-57,947,10098,78190,9773,-19547,0,0,0,232,178,130,318,190,185,486,515,151,378,464,50,0,,
1,1774544401232,-7025,6312,5671,-4836830,-266337,-1282817,0,0,0,167,144,209,232,135,242,255,98,261,124,79,98,0,,
2,1774544401232,-57,957,10031,95294,15882,-12217,0,0,0,231,179,143,315,193,183,483,507,161,376,455,49,0,,
1,1774544401248,-7561,6231,6829,-4955338,-2210110,-2174680,0,0,0,167,138,222,232,132,248,266,97,267,130,81,106,0,,
2,1774544401248,-38,961,10002,117286,12217,-10995,0,0,0,231,185,163,315,201,198,494,486,180,379,453,61,0,,
1,1774544401264,-3981,5848,9442,-5584530,-3494149,-2668259,0,0,0,163,138,209,230,136,244,260,99,265,129,87,100,0,,
2,1774544401264,0,923,10011,136833,-7330,-17104,0,0,0,239,184,154,325,204,198,495,457,165,383,430,60,0,,
1,1774544401280,-2134,4307,11021,-6035348,-3359758,-3038443,0,0,0,162,140,207,230,138,246,258,98,267,129,91,103,0,,
2,1774544401280,38,894,10026,151494,-40317,-29321,0,0,0,242,177,157,297,200,204,486,465,184,381,408,73,0,,
1,1774544401296,-2024,2962,11978,-6162408,-3148399,-3099530,0,0,0,162,143,208,228,137,246,256,98,266,124,90,104,0,,
2,1774544401296,43,871,10035,153938,-75747,-41538,0,0,0,251,175,169,323,221,245,495,444,230,400,401,84,0,,
1,1774544401312,-1268,2206,13237,-6135530,-3235142,-2922379,0,0,0,161,143,209,230,135,247,255,99,266,114,86,101,0,,
2,1774544401312,23,861,10016,163711,-116064,-53756,0,0,0,280,194,184,363,239,256,505,414,252,398,392,84,0,,
1,1774544401328,435,1708,15037,-6087882,-3153286,-2768441,0,0,0,158,140,213,231,135,252,253,98,268,111,86,102,0,,
2,1774544401328,-14,842,10026,189368,-139277,-61086,0,0,0,318,204,249,378,235,267,506,378,265,388,370,91,0,,
1,1774544401344,1033,1521,16702,-6054896,-2871066,-2774549,0,0,0,156,139,213,230,135,251,252,97,267,110,81,102,0,,
2,1774544401344,-71,804,10064,219911,-130725,-56199,0,0,0,342,204,296,386,240,288,507,321,279,378,334,109,0,,
1,1774544401360,502,1541,18214,-6036570,-2697580,-2904053,0,0,0,157,139,212,225,134,249,251,101,266,106,74,100,0,,
2,1774544401360,-105,780,10126,263893,-107512,-51312,0,0,0,357,212,299,393,273,296,517,269,282,356,293,126,0,,
1,1774544401376,-540,1124,20535,-5918062,-2632829,-3086091,0,0,0,154,137,224,219,136,257,247,102,268,103,74,104,0,,
2,1774544401376,-86,751,10179,313984,-79412,-50090,0,0,0,374,211,354,401,294,321,530,231,287,337,257,149,0,,
1,1774544401392,-2153,191,23402,-5689598,-2586403,-3126408,0,0,0,152,135,231,226,132,261,248,93,270,103,72,105,0,,
2,1774544401392,-67,693,10246,376292,-39095,-54977,0,0,0,382,205,374,418,274,339,525,181,296,315,206,173,0,,
1,1774544401408,-4469,-1919,26589,-5484348,-2646268,-2827084,0,0,0,155,134,231,230,130,263,252,90,268,110,69,105,0,,
2,1774544401408,-9,622,10323,439822,8552,-69638,0,0,0,411,224,315,439,288,335,517,146,325,308,159,195,0,,
1,1774544401424,-6245,-5623,29652,-5464800,-2829527,-2291966,0,0,0,154,138,231,234,134,266,251,89,265,102,59,101,0,,
2,1774544401424,134,536,10447,518013,53756,-96516,0,0,0,422,283,329,452,329,352,513,104,310,266,111,251,0,,
1,1774544401440,-4833,-11548,29940,-5960823,-2965139,-1864360,0,0,0,148,139,222,229,136,266,251,94,273,113,72,107,0,,
2,1774544401440,416,387,10686,627969,114842,-158824,0,0,0,426,246,346,439,347,408,476,72,356,245,81,258,0,,
1,1774544401456,-1124,-20985,26958,-6195395,-3000570,-1706757,0,0,0,148,148,197,235,144,251,255,95,270,103,69,96,0,,
2,1774544401456,646,311,11452,872315,244346,-283441,0,0,0,438,246,298,448,367,417,442,74,375,249,81,334,0,,
1,1774544401472,4532,-35611,19497,-5170363,-2723237,-1783726,0,0,0,158,158,198,243,157,248,265,100,268,108,68,91,0,,
2,1774544401472,268,425,12457,1299921,289550,-378736,0,0,0,448,307,215,449,389,456,382,78,358,198,86,345,0,,
1,1774544401488,12414,-50399,12232,-2767219,-2054950,-1854586,0,0,0,165,148,205,249,145,250,274,92,268,117,63,93,0,,
2,1774544401488,-244,416,13036,1899790,172263,-324980,0,0,0,476,297,159,454,416,452,340,137,357,186,116,360,0,,
1,1774544401504,17994,-52299,10270,250454,-725707,-1799608,0,0,0,163,139,192,232,138,234,272,119,260,144,127,96,0,,
2,1774544401504,0,181,13591,2569299,59864,-224798,0,0,0,496,310,136,449,432,459,292,93,354,173,97,378,0,,
1,1774544401520,12979,-36362,12955,2783102,1326799,-1375668,0,0,0,144,130,146,206,131,209,288,227,242,228,244,90,0,,
2,1774544401520,942,-95,14319,3241250,45204,-243124,0,0,0,508,311,132,440,430,434,235,70,362,157,71,388,0,,
1,1774544401536,-435,-10500,18583,3949854,2580294,-212581,0,0,0,130,121,108,189,125,192,311,335,237,301,363,81,0,,
2,1774544401536,1435,-181,15352,4053701,81855,-431270,0,0,0,501,336,140,431,417,423,209,80,359,147,65,384,0,,
1,1774544401552,-7786,14797,16980,4911356,3390302,1433089,0,0,0,127,118,96,184,124,188,333,405,248,331,451,77,0,,
2,1774544401552,1780,-143,16831,4972443,105068,-663399,0,0,0,466,309,147,429,429,411,214,86,345,144,69,328,0,,
1,1774544401568,-4144,7231,15070,5547878,3053104,1580919,0,0,0,129,115,97,194,120,191,362,448,252,368,501,80,0,,
2,1774544401568,3043,-315,19535,6102543,-68416,-949284,0,0,0,419,297,151,419,411,395,206,81,318,133,65,273,0,,
1,1774544401584,-693,-3675,19109,5784893,1759291,769690,0,0,0,155,109,133,220,109,202,395,438,250,437,515,89,0,,
2,1774544401584,4723,-1239,23608,7320609,-362853,-1276708,0,0,0,350,275,131,379,363,355,200,79,263,132,64,231,0,,
1,1774544401600,215,-4067,22450,4615697,1072679,211359,0,0,0,189,120,224,226,99,229,450,442,268,491,523,107,0,,
2,1774544401600,6010,-3469,30366,8757364,-439822,-1676214,0,0,0,255,205,83,322,320,274,203,77,186,133,64,181,0,,
1,1774544401616,-775,-689,17535,2390926,1227839,284663,0,0,0,202,138,264,236,95,251,486,435,276,482,554,118,0,,
2,1774544401616,6307,-4867,34788,9797056,123394,-2034181,0,0,0,171,161,48,266,259,187,197,67,127,112,53,127,0,,
1,1774544401632,-751,287,12208,818559,994488,190589,0,0,0,249,178,273,259,135,256,503,439,270,498,548,123,0,,
2,1774544401632,6939,-2541,36472,10504438,916297,-2525316,0,0,0,123,129,50,215,180,122,206,71,101,94,43,61,0,,
1,1774544401648,-268,-167,9906,248011,373849,10995,0,0,0,263,188,245,267,145,242,527,434,266,508,549,114,0,,
2,1774544401648,8853,6762,33113,10278418,1308473,-3348763,0,0,0,126,110,58,188,140,97,235,98,87,98,46,38,0,,
1,1774544401664,-291,0,10380,250454,46425,-35430,0,0,0,276,200,235,271,150,237,530,438,257,508,557,117,0,,
2,1774544401664,8231,18018,20325,8233241,794124,-4123340,0,0,0,132,109,54,199,137,96,244,89,83,108,51,44,0,,
1,1774544401680,-387,478,10509,189368,-46425,-14660,0,0,0,289,207,244,277,151,239,535,444,263,508,561,131,0,,
2,1774544401680,4560,24292,9255,3703065,311541,-3538131,0,0,0,128,111,49,193,142,94,245,86,82,103,43,40,0,,
1,1774544401696,-425,674,10193,83077,-69638,9773,0,0,0,287,201,265,285,144,248,538,443,267,506,554,138,0,,
2,1774544401696,1512,20765,10050,-1401324,-375071,-973719,0,0,0,126,121,55,186,150,101,244,97,83,99,47,38,0,,
1,1774544401712,-387,622,10045,24434,-133168,13439,0,0,0,276,196,283,292,144,268,525,442,272,493,545,140,0,,
2,1774544401712,3062,14051,8935,-4124562,-1398881,1244943,0,0,0,133,123,56,197,150,100,244,93,83,104,50,40,0,,
1,1774544401728,-392,641,10131,32986,-185703,13439,0,0,0,266,195,278,291,156,275,513,437,275,486,535,140,0,,
2,1774544401728,6915,9605,4795,-4408003,-1313360,1888795,0,0,0,136,125,60,194,151,100,247,95,88,107,53,41,0,,
1,1774544401744,-421,674,10150,53756,-227241,9773,0,0,0,263,190,253,287,162,263,517,428,269,488,526,134,0,,
2,1774544401744,6360,8671,4163,-4763527,91629,1556484,0,0,0,129,126,55,190,156,100,244,96,87,118,50,40,0,,
1,1774544401760,-464,684,10031,73303,-244346,7330,0,0,0,265,188,235,293,160,255,519,417,260,480,521,123,0,,
2,1774544401760,3335,7580,6724,-5629734,1022588,1401324,0,0,0,130,127,55,188,158,98,245,99,87,111,56,41,0,,
1,1774544401776,-492,693,9920,83077,-229685,8552,0,0,0,266,197,236,298,164,260,509,401,259,465,513,119,0,,
2,1774544401776,1287,5541,9011,-6331007,978606,1595580,0,0,0,128,126,52,188,160,98,246,98,85,103,53,39,0,,
1,1774544401792,-492,708,9887,84299,-183259,13439,0,0,0,270,202,227,292,167,257,501,390,254,462,508,114,0,,
2,1774544401792,622,3546,10145,-6633996,818559,1814269,0,0,0,127,126,51,193,160,99,245,95,84,102,52,36,0,,
1,1774544401808,-492,717,9901,85521,-134390,21991,0,0,0,276,201,239,304,166,265,497,382,264,457,497,122,0,,
2,1774544401808,564,2546,11036,-6597344,905302,1931555,0,0,0,128,126,52,195,163,101,246,97,86,106,57,39,0,,
1,1774544401824,-497,689,9920,105068,-89186,31764,0,0,0,277,239,283,304,185,280,486,379,290,442,485,165,0,,
2,1774544401824,90,2029,13041,-6581462,1148426,2010968,0,0,0,130,123,55,194,162,100,247,96,87,107,56,41,0,,
1,1774544401840,-488,665,9930,136833,-48869,43982,0,0,0,282,282,282,301,240,290,502,383,299,437,473,197,0,,
2,1774544401840,-512,1469,15386,-6696304,1213178,2087937,0,0,0,130,118,57,196,153,100,246,89,86,105,48,39,0,,
1,1774544401856,-464,655,9935,173485,-13439,56199,0,0,0,312,284,284,353,240,283,506,363,291,437,461,218,0,,
2,1774544401856,-516,760,17166,-6824586,945619,2196671,0,0,0,130,114,55,197,148,102,246,85,86,104,46,39,0,,
1,1774544401872,-469,626,9949,222354,20769,79412,0,0,0,313,287,312,347,250,302,494,339,300,436,447,234,0,,
2,1774544401872,191,162,18434,-6808703,679282,2256536,0,0,0,130,114,54,197,150,105,241,92,85,103,45,36,0,,
1,1774544401888,-492,598,10021,276111,51312,106290,0,0,0,355,307,322,366,260,315,513,306,303,432,393,248,0,,
2,1774544401888,1005,-239,20124,-6618113,532674,2201558,0,0,0,130,113,53,198,148,102,224,97,83,99,38,30,0,,
1,1774544401904,-502,598,10136,345749,64751,125838,0,0,0,405,338,325,393,305,319,513,266,314,408,332,279,0,,
2,1774544401904,1541,-780,23177,-6362772,284663,2184454,0,0,0,129,111,53,201,151,103,247,84,85,98,36,34,0,,
1,1774544401920,-497,559,10279,443488,45204,145385,0,0,0,446,371,337,401,355,333,497,224,332,374,270,330,0,,
2,1774544401920,2909,-2632,26049,-6223495,-14660,2302961,0,0,0,129,110,52,201,141,105,243,76,85,94,29,28,0,,
1,1774544401936,-550,469,10418,561996,-19547,172263,0,0,0,483,400,340,402,374,352,493,189,352,348,214,388,0,,
2,1774544401936,4948,-8820,28408,-6118426,-65973,2246762,0,0,0,133,111,52,200,137,102,251,79,86,104,37,36,0,,
1,1774544401952,-626,397,10595,720820,-116064,212581,0,0,0,515,421,321,422,392,376,467,165,379,321,189,450,0,,
2,1774544401952,5498,-18200,29159,-5856975,106290,1742187,0,0,0,132,111,53,197,143,99,253,89,86,109,44,34,0,,
1,1774544401968,-650,272,10911,974940,-288328,270002,0,0,0,558,439,297,453,418,427,414,147,388,287,171,508,0,,
2,1774544401968,4632,-27140,26551,-5408600,147829,905302,0,0,0,138,109,51,204,130,98,266,93,81,152,71,38,0,,
1,1774544401984,-660,71,11634,1345125,-571769,335975,0,0,0,573,504,243,445,446,433,362,123,390,282,136,525,0,,
2,1774544401984,1225,-35400,21210,-4390899,-459370,51312,0,0,0,131,105,51,201,137,106,252,92,82,128,60,37,0,,
1,1774544402000,-756,-114,12845,1809382,-862541,399505,0,0,0,566,522,232,466,477,477,319,130,412,248,117,546,0,,
2,1774544402000,-626,-40602,13242,-2772106,-1147204,-400727,0,0,0,130,112,46,190,143,115,280,183,98,187,155,44,0,,
1,1774544402016,-952,-224,14099,2295631,-924849,427605,0,0,0,581,513,204,456,482,397,272,117,354,236,110,548,0,,
2,1774544402016,-703,-43000,9940,-976162,-1037249,-527787,0,0,0,133,124,41,182,145,87,271,266,76,259,289,37,0,,
1,1774544402032,-1052,-191,15214,2978578,-719599,447153,0,0,0,567,516,203,455,407,406,270,117,348,240,99,537,0,,
2,1774544402032,-1407,-41622,13046,2362826,-658512,-353080,0,0,0,118,128,42,184,160,89,309,375,76,276,376,34,0,,
1,1774544402048,-1091,-86,15864,3721391,-434936,448375,0,0,0,546,495,203,414,421,401,220,117,345,217,103,512,0,,
2,1774544402048,191,-18157,14716,6146526,-441044,-206472,0,0,0,120,130,46,199,162,109,335,430,92,300,425,35,0,,
1,1774544402064,-1526,-153,16329,4458094,-224798,458148,0,0,0,540,483,213,423,415,418,178,103,358,203,92,500,0,,
2,1774544402064,1483,5068,19684,7305948,70860,15882,0,0,0,149,126,49,235,154,127,381,436,103,339,444,39,0,,
1,1774544402080,-2933,-406,17195,5371948,-68416,634078,0,0,0,518,462,200,392,426,431,148,104,394,181,97,477,0,,
2,1774544402080,559,4761,22263,6156299,117286,74525,0,0,0,183,129,64,262,147,138,417,449,115,376,463,45,0,,
1,1774544402096,-4943,-478,18324,6420193,239459,1040914,0,0,0,458,427,171,386,428,422,145,105,398,166,99,416,0,,
2,1774544402096,90,-2971,19502,3436727,-160046,-63529,0,0,0,212,141,88,278,150,148,422,464,126,406,479,50,0,,
1,1774544402112,-6594,-823,20995,7519751,994488,1589471,0,0,0,352,357,154,383,385,384,163,106,351,153,92,337,0,,
2,1774544402112,631,-2967,13902,1181413,-309097,-113620,0,0,0,241,154,100,300,177,163,438,469,132,423,478,55,0,,
1,1774544402128,-8231,-2995,26546,8586321,1772730,2138028,0,0,0,261,290,148,347,310,329,185,105,296,130,79,260,0,,
2,1774544402128,569,9,10591,345749,-240680,-32986,0,0,0,267,167,102,313,206,172,453,477,139,426,479,57,0,,
1,1774544402144,-10504,-4666,29451,9109222,1511280,2634050,0,0,0,217,254,157,294,234,291,204,101,274,109,77,186,0,,
2,1774544402144,339,804,9877,129503,-158824,-3665,0,0,0,278,179,98,318,218,174,454,469,142,420,477,51,0,,
1,1774544402160,-11710,-2502,27786,9181304,585208,3437949,0,0,0,172,212,187,248,179,271,225,119,269,104,113,121,0,,
2,1774544402160,358,191,10380,97738,-153938,-24434,0,0,0,285,185,107,322,220,171,457,473,134,425,480,60,0,,
1,1774544402176,-10748,4857,21435,8306545,-8552,4473977,0,0,0,156,180,199,219,167,235,236,143,253,109,150,99,0,,
2,1774544402176,387,301,10318,4886,-180816,-36651,0,0,0,287,183,123,318,222,177,451,485,144,433,494,64,0,,
1,1774544402192,-10337,12055,14950,5582086,120951,5511226,0,0,0,163,159,209,209,147,239,232,110,255,97,93,100,0,,
2,1774544402192,335,646,10141,-39095,-178372,-41538,0,0,0,291,188,183,311,216,195,455,486,162,428,492,65,0,,
1,1774544402208,-9657,15831,13060,1481959,-361632,6461732,0,0,0,181,155,199,214,145,228,248,109,252,127,101,99,0,,
2,1774544402208,277,799,10150,-14660,-151494,-42760,0,0,0,285,195,138,310,220,174,432,486,161,428,502,70,0,,
1,1774544402224,-5307,14879,13563,-2301740,-1192408,6460510,0,0,0,183,155,199,224,137,226,268,108,252,127,96,92,0,,
2,1774544402224,272,722,10203,31764,-122173,-30543,0,0,0,291,200,130,310,225,176,434,476,146,447,497,62,0,,
1,1774544402240,-985,10988,10490,-3861890,-631634,4345695,0,0,0,177,162,202,209,140,229,245,111,253,104,96,92,0,,
2,1774544402240,277,655,10169,62308,-109955,-12217,0,0,0,291,199,168,310,226,185,438,479,145,436,489,75,0,,
1,1774544402256,-3579,8882,7293,-4130670,108734,1329242,0,0,0,172,165,202,205,143,230,242,114,255,99,96,93,0,,
2,1774544402256,263,646,10098,68416,-116064,2443,0,0,0,297,199,142,325,230,169,435,478,131,441,483,71,0,,
1,1774544402272,-7073,8461,6580,-4570493,-426383,-1032362,0,0,0,172,162,202,208,144,231,247,112,257,106,96,94,0,,
2,1774544402272,224,646,10059,59864,-125838,4886,0,0,0,298,203,153,312,236,156,427,486,125,427,487,76,0,,
1,1774544402288,-7260,8327,8102,-5448917,-1919338,-2399478,0,0,0,174,160,204,216,144,233,254,111,259,113,100,96,0,,
2,1774544402288,191,641,10069,51312,-125838,2443,0,0,0,299,204,164,308,232,158,422,484,132,411,486,78,0,,
1,1774544402304,-4828,7126,10203,-6390872,-3025004,-3037221,0,0,0,171,160,204,219,143,233,254,110,259,111,101,96,0,,
2,1774544402304,153,641,10069,45204,-113620,-2443,0,0,0,314,200,164,317,228,156,417,472,130,408,485,84,0,,
1,1774544402320,-2981,4728,11682,-6913772,-3115412,-2965139,0,0,0,166,159,203,217,143,233,251,110,261,106,98,96,0,,
2,1774544402320,134,646,10059,43982,-97738,-10995,0,0,0,315,200,175,317,229,153,415,458,129,405,489,92,0,,
1,1774544402336,-1789,2713,12983,-7002959,-3117856,-2546086,0,0,0,164,157,205,219,143,237,252,112,260,107,98,97,0,,
2,1774544402336,157,674,10059,54977,-92851,-18325,0,0,0,306,210,160,312,242,149,413,443,130,399,482,80,0,,
1,1774544402352,-95,1258,14481,-6884451,-3183829,-2078163,0,0,0,163,158,203,221,145,237,253,112,259,106,98,95,0,,
2,1774544402352,201,689,10069,87964,-101403,-30543,0,0,0,320,223,117,320,259,143,422,422,124,405,458,61,0,,
1,1774544402368,1598,559,15903,-6696304,-3070208,-1843591,0,0,0,159,159,206,217,144,238,251,111,260,107,97,99,0,,
2,1774544402368,215,665,10074,136833,-131946,-41538,0,0,0,338,231,134,335,263,159,449,393,137,411,429,68,0,,
1,1774544402384,1914,373,17463,-6480058,-2671924,-1927890,0,0,0,163,163,208,213,142,234,246,110,258,102,95,95,0,,
2,1774544402384,181,631,10078,189368,-169820,-56199,0,0,0,354,234,181,347,269,188,444,352,162,392,399,82,0,,
1,1774544402400,129,282,19301,-6269920,-2593733,-2225992,0,0,0,159,163,206,215,145,240,248,107,258,105,93,98,0,,
2,1774544402400,124,598,10102,249233,-195476,-72082,0,0,0,371,229,182,370,286,210,451,306,194,378,357,98,0,,
1,1774544402416,-1292,-550,22014,-6037792,-2858849,-2378709,0,0,0,150,156,204,211,141,240,241,102,258,97,87,97,0,,
2,1774544402416,129,550,10169,334754,-196698,-102625,0,0,0,397,234,211,397,302,257,443,270,221,361,325,140,0,,
1,1774544402432,-1813,-2464,25608,-5963266,-3026226,-2216219,0,0,0,154,158,207,216,143,241,247,104,259,97,84,95,0,,
2,1774544402432,210,497,10275,436157,-188146,-145385,0,0,0,400,248,216,387,370,315,423,222,251,317,273,164,0,,
1,1774544402448,-2804,-5546,28743,-6107430,-2891836,-1915673,0,0,0,152,156,204,220,143,238,254,109,262,100,86,97,0,,
2,1774544402448,301,411,10399,553443,-194255,-190589,0,0,0,422,292,243,383,375,318,437,198,266,310,221,227,0,,
1,1774544402464,-4283,-10691,29920,-6385985,-2692693,-1569923,0,0,0,156,156,200,230,145,241,254,108,262,103,88,98,0,,
2,1774544402464,282,296,10533,685390,-201585,-223576,0,0,0,455,295,249,398,368,350,398,156,281,286,176,262,0,,
1,1774544402480,-1756,-18621,27451,-6306572,-3060434,-1463633,0,0,0,159,163,196,236,156,242,258,110,261,110,91,98,0,,
2,1774544402480,287,143,10801,868650,-174707,-256563,0,0,0,473,312,190,426,379,365,363,121,280,251,138,303,0,,
1,1774544402496,5374,-27609,22780,-5407379,-3450166,-1943773,0,0,0,155,167,194,235,164,244,262,111,263,111,90,96,0,,
2,1774544402496,536,-14,11418,1128878,-50090,-316428,0,0,0,511,335,166,447,431,379,345,104,292,244,116,322,0,,
1,1774544402512,11208,-38769,15649,-3494149,-2565634,-3048217,0,0,0,149,167,195,230,166,246,255,115,265,103,97,96,0,,
2,1774544402512,497,-110,12347,1501506,108734,-398284,0,0,0,530,341,154,459,446,378,306,82,293,222,106,363,0,,
1,1774544402528,11710,-47417,10270,-1236391,-1318247,-3694512,0,0,0,145,162,199,221,159,245,246,118,266,97,105,98,0,,
2,1774544402528,19,-62,13486,2029294,241902,-416610,0,0,0,532,336,157,448,450,379,268,69,285,189,93,381,0,,
1,1774544402544,9241,-44436,10064,1066570,-364075,-3007900,0,0,0,145,150,200,211,143,236,249,129,262,120,130,101,0,,
2,1774544402544,71,-86,14625,2686585,287106,-376292,0,0,0,530,349,164,418,459,384,233,76,298,168,92,367,0,,
1,1774544402560,5178,-29040,13089,2808758,791681,-1361007,0,0,0,144,138,175,195,138,215,276,208,250,213,249,105,0,,
2,1774544402560,1201,-363,15486,3464827,188146,-400727,0,0,0,508,378,159,429,442,368,212,87,296,164,95,339,0,,
1,1774544402576,-885,-8609,18688,3841120,1573588,153938,0,0,0,125,137,108,173,131,186,316,345,240,312,384,88,0,,
2,1774544402576,2234,-588,16482,4351803,-9773,-638965,0,0,0,497,386,142,460,420,370,214,90,264,168,86,296,0,,
1,1774544402592,-4398,14060,17367,4884478,1933999,1112996,0,0,0,132,128,93,186,138,190,330,376,242,336,472,78,0,,
2,1774544402592,2909,-550,17736,5274210,-213802,-950506,0,0,0,495,348,127,438,423,411,206,84,259,166,80,277,0,,
1,1774544402608,-3302,11797,14611,5882632,2300518,1202182,0,0,0,150,131,104,198,131,199,367,432,261,408,493,89,0,,
2,1774544402608,3953,-464,19765,6407976,-647517,-1350012,0,0,0,425,274,142,404,415,407,192,69,262,148,65,272,0,,
1,1774544402624,-512,-2522,18401,6273586,1643227,583987,0,0,0,186,139,186,210,126,209,404,426,257,456,523,86,0,,
2,1774544402624,4685,-856,23675,7651697,-1205847,-1754404,0,0,0,349,234,116,372,338,322,189,66,216,128,55,224,0,,
1,1774544402640,416,-4479,21670,4752531,515570,415388,0,0,0,224,151,211,251,117,231,442,405,279,502,541,93,0,,
2,1774544402640,5197,-2823,30045,8930849,-1269377,-2029294,0,0,0,249,211,75,326,280,277,201,65,180,119,53,233,0,,
1,1774544402656,-641,-1899,18583,2390926,167377,583987,0,0,0,253,178,264,275,155,262,477,398,299,520,549,124,0,,
2,1774544402656,5623,-4412,35013,9911899,-52534,-2219884,0,0,0,159,191,65,253,257,199,219,80,139,114,60,102,0,,
1,1774544402672,-1244,-363,12687,640186,267558,416610,0,0,0,271,220,312,285,186,269,491,384,305,523,557,152,0,,
2,1774544402672,5431,-1842,36554,10323622,1183856,-2537534,0,0,0,111,109,49,170,135,81,211,68,72,98,43,30,0,,
1,1774544402688,-875,-224,10078,178372,186924,108734,0,0,0,284,256,336,307,241,274,501,382,298,519,547,177,0,,
2,1774544402688,7652,7068,29030,9567371,1507615,-3237585,0,0,0,117,110,51,176,139,91,225,85,73,96,46,38,0,,
1,1774544402704,-387,-38,10222,321315,-15882,-48869,0,0,0,292,276,340,311,281,282,502,377,301,512,544,186,0,,
2,1774544402704,7700,15013,17755,7616267,1577254,-3988950,0,0,0,136,113,52,186,131,86,241,84,72,111,42,36,0,,
1,1774544402720,-440,445,10413,311541,-101403,0,0,0,0,298,301,324,305,299,275,497,372,310,509,557,185,0,,
2,1774544402720,2699,18870,11194,3597996,1243721,-3506366,0,0,0,133,110,49,186,128,87,238,85,72,140,44,37,0,,
1,1774544402736,-598,626,10184,257785,-94073,42760,0,0,0,308,321,324,317,309,272,499,364,318,502,553,200,0,,
2,1774544402736,-1344,16161,11347,-1290147,-695164,-477696,0,0,0,131,109,63,185,128,97,236,86,81,157,47,41,0,,
1,1774544402752,-622,497,10011,256563,-46425,41538,0,0,0,321,307,367,327,295,295,502,326,338,485,510,226,0,,
2,1774544402752,2072,10868,8001,-3365867,-2371378,1929112,0,0,0,132,112,75,185,129,103,236,84,86,125,45,46,0,,
1,1774544402768,-512,435,10150,284663,-36651,36651,0,0,0,337,333,388,344,324,294,504,304,338,481,443,243,0,,
2,1774544402768,6982,7556,3072,-3502701,-1733635,2449569,0,0,0,130,114,77,182,135,106,234,87,89,100,46,45,0,,
1,1774544402784,-435,469,10275,312763,-68416,42760,0,0,0,334,367,380,346,338,293,480,295,322,450,406,276,0,,
2,1774544402784,6987,6690,1986,-3820351,37873,2096489,0,0,0,127,115,73,179,141,105,233,90,89,98,47,43,0,,
1,1774544402800,-397,454,10227,342084,-131946,46425,0,0,0,369,392,387,364,373,325,477,261,310,442,365,304,0,,
2,1774544402800,3450,6609,4666,-4676784,959058,1815491,0,0,0,125,119,67,179,146,100,231,91,83,97,47,40,0,,
1,1774544402816,-402,397,10145,367740,-194255,46425,0,0,0,366,372,410,364,372,333,467,249,326,429,343,310,0,,
2,1774544402816,2038,5513,6566,-5503895,783129,1899790,0,0,0,123,121,64,180,147,98,230,94,79,96,49,40,0,,
1,1774544402832,-531,315,10078,394618,-235793,52534,0,0,0,380,371,363,362,378,342,461,229,350,393,300,325,0,,
2,1774544402832,2053,4307,7422,-6014579,750142,1918116,0,0,0,121,119,70,178,145,111,233,95,91,96,48,49,0,,
1,1774544402848,-655,239,10054,408057,-208915,72082,0,0,0,385,372,384,374,379,346,446,201,352,376,277,328,0,,
2,1774544402848,1588,3508,8360,-6233268,1111774,1787391,0,0,0,120,119,79,179,146,132,231,88,111,95,43,62,0,,
1,1774544402864,-689,162,10069,423940,-160046,98960,0,0,0,395,380,376,382,380,362,428,185,342,362,239,344,0,,
2,1774544402864,-19,2967,10275,-6360328,1453859,1626123,0,0,0,127,121,70,189,150,108,236,92,87,100,49,46,0,,
1,1774544402880,-607,95,10122,441044,-144164,125838,0,0,0,408,384,379,399,385,386,425,167,359,369,212,362,0,,
2,1774544402880,-1076,2402,12179,-6484945,1503950,1488067,0,0,0,126,119,70,189,147,109,236,90,93,101,49,45,0,,
1,1774544402896,-588,19,10165,461814,-182037,149051,0,0,0,423,367,404,400,365,408,416,149,372,352,186,399,0,,
2,1774544402896,-1541,1694,14137,-6673091,1369559,1297477,0,0,0,128,119,67,193,147,110,235,88,91,107,42,44,0,,
1,1774544402912,-674,-43,10208,491135,-228463,180816,0,0,0,443,376,397,400,371,433,406,160,378,322,195,438,0,,
2,1774544402912,-1660,1296,15984,-6820921,1167974,1149648,0,0,0,120,123,73,180,149,113,232,92,96,92,47,43,0,,
1,1774544402928,-756,-100,10260,551000,-257785,226020,0,0,0,462,392,378,402,393,446,389,152,381,303,187,462,0,,
2,1774544402928,-1450,1234,17961,-6879564,955393,1165530,0,0,0,120,122,78,180,149,113,228,86,95,92,45,44,0,,
1,1774544402944,-808,-162,10346,634078,-265115,266337,0,0,0,481,394,370,406,406,448,366,122,379,292,154,476,0,,
2,1774544402944,-909,172,21028,-6873455,755029,1497841,0,0,0,119,114,74,179,143,117,227,80,91,90,42,41,0,,
1,1774544402960,-856,-253,10547,764803,-256563,312763,0,0,0,502,408,344,420,430,454,356,118,374,289,152,480,0,,
2,1774544402960,311,-2502,24331,-6851464,616973,1914451,0,0,0,123,107,77,182,139,114,230,83,92,98,47,51,0,,
1,1774544402976,-981,-354,10839,933402,-237015,360410,0,0,0,516,412,310,433,440,442,337,111,367,280,135,495,0,,
2,1774544402976,2368,-8442,27724,-6796486,593761,2098932,0,0,0,124,106,72,185,136,113,233,80,92,93,41,44,0,,
1,1774544402992,-1143,-449,11184,1150870,-193033,415388,0,0,0,540,433,282,439,441,460,311,112,377,251,128,545,0,,
2,1774544402992,3287,-16659,29863,-6582683,656069,1885130,0,0,0,120,109,71,185,140,112,233,80,93,91,38,40,0,,
1,1774544403008,-928,-574,11438,1419650,-123394,459370,0,0,0,552,460,216,449,466,447,323,142,361,248,139,568,0,,
2,1774544403008,1890,-26422,29739,-6096435,543670,1362229,0,0,0,120,112,71,186,143,113,230,81,92,90,38,40,0,,
1,1774544403024,-507,-708,11816,1683544,-75747,447153,0,0,0,557,469,199,437,466,464,290,152,373,217,128,568,0,,
2,1774544403024,-737,-36558,24517,-5165476,-353080,796568,0,0,0,122,112,71,185,139,115,231,82,97,91,38,43,0,,
1,1774544403040,-521,-928,12553,2007303,-21991,381179,0,0,0,555,464,190,414,481,482,253,144,363,221,125,561,0,,
2,1774544403040,-277,-43680,16314,-3760486,-1389107,439822,0,0,0,125,121,61,185,150,108,232,124,92,110,83,41,0,,
1,1774544403056,-1048,-1158,13376,2494773,57421,356745,0,0,0,561,463,212,406,480,463,219,131,355,223,124,561,0,,
2,1774544403056,1856,-45690,10433,-1439198,-1199739,158824,0,0,0,124,129,45,176,159,90,251,228,76,165,187,35,0,,
1,1774544403072,-1349,-1282,13998,3088534,125838,399505,0,0,0,556,463,223,420,435,457,194,122,354,226,109,549,0,,
2,1774544403072,1206,-40167,13309,1561371,-250454,68416,0,0,0,113,116,37,159,140,75,300,356,68,241,301,33,0,,
1,1774544403088,-1316,-1368,14457,3754377,167377,489913,0,0,0,548,450,222,411,410,469,177,106,369,229,97,532,0,,
2,1774544403088,1139,-10930,15132,5099503,147829,261450,0,0,0,103,106,30,163,132,78,337,430,66,275,382,30,0,,
1,1774544403104,-1694,-1469,15324,4504520,190589,632856,0,0,0,545,449,214,421,403,463,175,95,374,229,94,515,0,,
2,1774544403104,1943,9064,13457,7043276,-10995,392175,0,0,0,116,114,43,176,138,104,375,457,85,287,433,38,0,,
1,1774544403120,-2718,-1459,16530,5338962,226020,872315,0,0,0,521,432,189,432,421,445,178,99,366,201,94,501,0,,
2,1774544403120,1593,5015,17238,7161784,-4886,547335,0,0,0,193,94,60,231,103,110,468,486,91,384,456,34,0,,
1,1774544403136,-4106,-1493,18334,6482501,498466,1284038,0,0,0,454,398,175,422,413,447,182,106,360,165,87,444,0,,
2,1774544403136,-277,-4235,24785,4689001,-196698,574213,0,0,0,242,76,89,245,75,120,502,498,117,460,488,49,0,,
1,1774544403152,-4761,-2952,22383,7748214,856433,1683544,0,0,0,360,360,178,389,362,433,193,103,343,142,74,340,0,,
2,1774544403152,-196,-4972,20966,1392772,-668286,172263,0,0,0,285,94,120,272,81,119,521,508,128,448,491,37,0,,
1,1774544403168,-5690,-7236,29313,8809898,766025,1877799,0,0,0,270,307,167,341,296,350,209,95,292,127,64,238,0,,
2,1774544403168,626,-770,11998,79412,-659734,-52534,0,0,0,280,107,187,274,86,176,545,509,182,466,511,67,0,,
1,1774544403184,-8753,-7264,31021,9133657,18325,2260201,0,0,0,212,245,147,297,218,266,227,94,248,126,67,160,0,,
2,1774544403184,717,904,8628,81855,-324980,-41538,0,0,0,276,116,171,277,104,168,549,508,160,464,524,65,0,,
1,1774544403200,-11385,-1564,26872,8940623,-329867,3200933,0,0,0,149,200,185,224,173,237,239,113,251,99,82,94,0,,
2,1774544403200,598,57,10217,326202,-58643,24434,0,0,0,281,124,163,289,134,171,532,502,159,466,519,65,0,,
1,1774544403216,-13199,5939,19492,7914370,-232128,4779409,0,0,0,156,194,171,227,179,220,238,119,239,92,96,90,0,,
2,1774544403216,636,-95,10830,155159,-34208,10995,0,0,0,282,175,177,285,189,175,536,486,172,469,502,65,0,,
1,1774544403232,-13017,10528,14816,5707924,-684169,6785491,0,0,0,143,175,177,211,158,215,218,110,233,92,90,90,0,,
2,1774544403232,684,373,10270,62308,-43982,-8552,0,0,0,304,170,210,288,178,183,535,471,179,472,463,80,0,,
1,1774544403248,-8102,13539,13108,1640784,-1590693,8135503,0,0,0,132,182,223,197,179,250,214,132,257,88,117,111,0,,
2,1774544403248,646,536,10011,144164,-46425,-14660,0,0,0,317,159,218,298,168,192,535,449,184,451,445,77,0,,
1,1774544403264,-684,12802,11462,-2532647,-1253495,6649878,0,0,0,124,188,249,189,199,263,226,153,271,88,134,117,0,,
2,1774544403264,593,440,10150,227241,-41538,-17104,0,0,0,315,165,214,310,182,199,525,427,195,413,438,75,0,,
1,1774544403280,2072,8796,9112,-5119050,194255,3602883,0,0,0,125,185,255,188,197,266,225,143,273,93,126,120,0,,
2,1774544403280,583,335,10270,267558,-28099,-15882,0,0,0,317,171,215,328,199,216,514,400,211,400,406,94,0,,
1,1774544403296,-2713,4962,6460,-5374392,1369559,532674,0,0,0,131,186,260,188,197,268,223,140,274,97,124,121,0,,
2,1774544403296,622,315,10193,290771,-19547,-3665,0,0,0,322,205,216,341,218,228,517,357,227,396,359,106,0,,
1,1774544403312,-8777,3948,4919,-4868595,310319,-1330464,0,0,0,129,183,267,192,201,273,231,145,277,99,127,121,0,,
2,1774544403312,674,282,10122,311541,-30543,-1221,0,0,0,326,225,224,345,233,234,517,318,234,377,324,109,0,,
1,1774544403328,-9270,4101,5503,-4847826,-1569923,-2225992,0,0,0,129,182,270,196,203,276,238,146,277,101,128,119,0,,
2,1774544403328,708,205,10083,317649,-65973,-14660,0,0,0,333,193,227,355,235,249,502,291,231,380,289,125,0,,
1,1774544403344,-5795,4197,7609,-5357288,-2692693,-2785545,0,0,0,127,185,270,194,205,275,231,146,277,101,129,120,0,,
2,1774544403344,655,129,10083,302989,-111177,-32986,0,0,0,342,199,208,362,243,248,487,253,232,391,248,134,0,,
1,1774544403360,-4053,3718,9093,-5797111,-2825862,-3115412,0,0,0,123,186,269,186,208,271,221,147,276,95,130,120,0,,
2,1774544403360,574,105,10112,285884,-130725,-40317,0,0,0,346,211,235,350,255,244,465,240,232,324,247,128,0,,
1,1774544403376,-4292,2770,10050,-6015800,-2852740,-3026226,0,0,0,125,188,264,182,208,266,219,147,274,89,130,115,0,,
2,1774544403376,536,95,10136,287106,-118507,-40317,0,0,0,347,248,208,360,274,266,465,231,246,333,238,137,0,,
1,1774544403392,-3938,2067,11485,-6134308,-3258355,-2684141,0,0,0,122,186,251,186,208,262,223,153,282,96,138,115,0,,
2,1774544403392,550,57,10160,306654,-100181,-42760,0,0,0,385,234,203,390,315,258,471,212,242,334,219,139,0,,
1,1774544403408,-2378,1698,13663,-6273586,-3676187,-2354274,0,0,0,125,189,251,187,208,260,227,151,288,91,133,114,0,,
2,1774544403408,593,0,10184,339641,-100181,-52534,0,0,0,378,229,315,390,350,302,463,202,272,324,201,175,0,,
1,1774544403424,-746,1340,16290,-6411641,-3698178,-2238210,0,0,0,124,186,252,188,201,261,228,154,289,98,140,114,0,,
2,1774544403424,593,-43,10232,393397,-111177,-69638,0,0,0,395,249,221,386,339,290,444,173,274,293,175,203,0,,
1,1774544403440,-134,1081,19071,-6495940,-3514918,-2327396,0,0,0,132,179,251,186,191,257,228,127,288,100,109,117,0,,
2,1774544403440,574,-95,10327,471587,-117286,-87964,0,0,0,414,251,241,397,350,271,449,154,262,272,147,171,0,,
1,1774544403456,-660,1105,22249,-6566801,-3391523,-2588846,0,0,0,132,187,251,190,196,258,232,120,288,95,96,109,0,,
2,1774544403456,555,-181,10480,602313,-91629,-111177,0,0,0,421,256,268,437,350,300,445,128,264,267,139,211,0,,
1,1774544403472,-1100,378,26925,-6795264,-3329215,-2978578,0,0,0,137,179,249,197,190,256,243,123,290,99,94,107,0,,
2,1774544403472,507,-291,10614,763581,-37873,-131946,0,0,0,435,264,262,428,380,331,393,191,287,246,125,255,0,,
1,1774544403488,-1966,-2502,31394,-7147123,-2904053,-3345098,0,0,0,139,172,247,205,185,254,253,118,290,107,86,105,0,,
2,1774544403488,531,-402,10839,970053,63529,-151494,0,0,0,450,260,234,448,369,373,407,115,320,242,93,307,0,,
1,1774544403504,-5508,-9739,33787,-7483099,-2196671,-3431840,0,0,0,141,157,223,217,162,246,250,109,281,103,80,97,0,,
2,1774544403504,607,-507,11213,1214400,186924,-174707,0,0,0,479,286,214,441,373,391,391,82,356,210,81,340,0,,
1,1774544403520,-8748,-20272,32036,-7442782,-2158797,-2932153,0,0,0,147,150,207,229,152,242,250,107,274,101,82,91,0,,
2,1774544403520,536,-660,11696,1582140,356745,-205250,0,0,0,499,299,181,445,385,383,351,74,357,191,80,379,0,,
1,1774544403536,-6580,-33108,25326,-6581462,-2973691,-1838704,0,0,0,147,160,205,230,168,239,253,116,272,107,92,89,0,,
2,1774544403536,253,-789,12036,1988977,540004,-179594,0,0,0,500,298,149,465,397,384,318,63,349,197,84,410,0,,
1,1774544403552,6025,-48097,15884,-4318817,-3854559,-896750,0,0,0,145,166,189,223,166,230,249,122,271,106,102,89,0,,
2,1774544403552,201,-990,12347,2452013,718377,-113620,0,0,0,493,303,142,484,411,410,277,66,370,192,85,435,0,,
1,1774544403568,19411,-55266,11639,-1456302,-3268129,-1080009,0,0,0,151,150,176,211,137,213,271,148,263,142,140,90,0,,
2,1774544403568,603,-1253,12825,2934596,828333,-64751,0,0,0,484,320,155,490,419,439,232,74,382,169,76,453,0,,
1,1774544403584,21517,-46599,13409,1703092,-356745,-1958433,0,0,0,141,126,132,175,114,173,333,275,237,255,288,83,0,,
2,1774544403584,1588,-1521,13725,3490483,861319,-103847,0,0,0,481,333,164,467,428,444,214,82,367,168,78,423,0,,
1,1774544403600,7671,-22502,19650,4159992,3109304,-1714087,0,0,0,136,127,99,176,123,166,356,389,229,325,461,80,0,,
2,1774544403600,3058,-1689,15573,4222300,733038,-301767,0,0,0,471,293,151,467,433,431,218,86,387,198,86,359,0,,
1,1774544403616,-3354,4886,20459,6061004,5286427,-417831,0,0,0,146,103,107,192,100,176,385,393,223,389,509,86,0,,
2,1774544403616,4417,-1469,19401,5401270,305432,-698829,0,0,0,421,261,151,484,398,420,218,74,368,184,70,298,0,,
1,1774544403632,-1617,8174,22005,6648657,4805065,681725,0,0,0,181,145,230,279,163,248,454,405,239,500,541,103,0,,
2,1774544403632,5197,-1646,24618,6893003,-392175,-1122770,0,0,0,361,228,156,410,332,362,198,49,317,145,45,218,0,,
1,1774544403648,1608,-1411,24034,5359731,3310889,894306,0,0,0,201,206,232,302,219,258,495,392,247,536,561,125,0,,
2,1774544403648,5862,-3603,31227,8319984,-632856,-1369559,0,0,0,271,183,73,352,311,271,182,64,230,123,59,154,0,,
1,1774544403664,1976,-5714,20306,2415361,1991420,332310,0,0,0,246,266,259,348,266,274,519,389,279,553,553,167,0,,
2,1774544403664,6456,-4240,36807,9524610,-164933,-1590693,0,0,0,176,191,68,283,280,241,197,72,179,107,56,132,0,,
1,1774544403680,1828,-1474,13591,581543,866206,6108,0,0,0,269,303,272,362,287,298,483,378,283,538,538,189,0,,
2,1774544403680,7269,-751,37554,10407921,532674,-1915673,0,0,0,118,129,50,215,187,145,202,80,107,89,41,55,0,,
1,1774544403696,1014,1325,10026,226020,-7330,32986,0,0,0,293,299,269,377,292,298,509,383,277,526,519,191,0,,
2,1774544403696,11170,6010,32471,10857518,1762957,-2614503,0,0,0,116,108,55,172,142,100,228,95,79,114,65,41,0,,
1,1774544403712,196,899,10093,360410,-230907,81855,0,0,0,294,305,284,379,307,301,550,389,278,530,504,198,0,,
2,1774544403712,12849,15032,21861,9911899,3566231,-3696956,0,0,0,119,106,64,177,140,103,226,91,83,112,63,49,0,,
1,1774544403728,-4,512,10346,270002,-189368,41538,0,0,0,289,324,294,371,321,297,561,380,272,533,495,194,0,,
2,1774544403728,5034,22388,13117,5100724,4136779,-4136779,0,0,0,117,105,71,180,137,108,221,86,83,100,51,47,0,,
1,1774544403744,148,737,10179,135612,-97738,-1221,0,0,0,297,327,299,366,320,293,565,365,261,519,486,195,0,,
2,1774544403744,-4292,22177,13539,-806342,1846034,-2398256,0,0,0,120,104,69,178,135,103,224,90,84,98,52,45,0,,
1,1774544403760,291,971,10093,129503,-98960,-1221,0,0,0,291,332,321,352,324,319,551,349,262,492,470,226,0,,
2,1774544403760,-4670,14606,14658,-5112942,-2522873,663399,0,0,0,124,107,63,178,137,101,228,94,84,104,60,49,0,,
1,1774544403776,335,1024,10208,161268,-162490,1221,0,0,0,293,347,321,365,347,324,544,331,279,471,427,231,0,,
2,1774544403776,4795,7604,9217,-6068335,-3853337,1456302,0,0,0,123,108,62,178,138,103,231,93,88,104,59,50,0,,
1,1774544403792,339,1000,10294,194255,-248011,0,0,0,0,317,330,315,420,311,314,490,301,282,436,369,239,0,,
2,1774544403792,7642,5317,6192,-6385985,-1955990,364075,0,0,0,122,106,64,176,137,103,235,92,89,100,54,44,0,,
1,1774544403808,301,971,10184,227241,-326202,0,0,0,0,324,338,273,388,333,292,535,279,271,423,317,226,0,,
2,1774544403808,2450,5422,8370,-7017619,-156381,-626747,0,0,0,122,107,64,177,139,100,238,94,84,99,54,40,0,,
1,1774544403824,201,947,10026,256563,-367740,14660,0,0,0,312,364,316,370,332,310,539,283,287,405,313,267,0,,
2,1774544403824,-1052,4824,10313,-7484320,288328,-665843,0,0,0,120,108,63,180,141,102,240,95,86,100,57,39,0,,
1,1774544403840,28,880,9925,261450,-327423,43982,0,0,0,314,357,350,390,333,341,546,261,283,379,300,277,0,,
2,1774544403840,-1119,3661,10361,-7379252,301767,109955,0,0,0,124,112,66,182,142,105,241,97,90,104,61,43,0,,
1,1774544403856,-67,818,9892,255341,-243124,69638,0,0,0,348,373,360,417,335,364,533,241,301,387,269,302,0,,
2,1774544403856,-1057,3216,10576,-6888116,919963,1145983,0,0,0,130,107,65,183,137,108,238,93,90,110,63,50,0,,
1,1774544403872,-14,775,9944,251676,-146607,87964,0,0,0,360,377,374,410,346,358,517,218,303,381,248,316,0,,
2,1774544403872,-1770,3144,12112,-6526484,1535715,2149023,0,0,0,124,111,63,175,144,104,241,98,92,110,65,46,0,,
1,1774544403888,38,746,10021,266337,-114842,102625,0,0,0,354,381,411,394,357,386,508,196,313,358,236,347,0,,
2,1774544403888,-2450,2761,14524,-6495940,1725083,2787988,0,0,0,123,109,67,182,143,106,239,98,92,105,57,47,0,,
1,1774544403904,-23,741,10083,295658,-105068,129503,0,0,0,385,381,411,411,357,425,503,171,328,359,213,395,0,,
2,1774544403904,-2684,2010,16870,-6574131,1568701,3032335,0,0,0,123,110,68,183,141,106,236,92,88,105,51,46,0,,
1,1774544403920,-138,722,10174,346971,-87964,183259,0,0,0,423,385,411,427,368,424,494,148,324,345,189,420,0,,
2,1774544403920,-2598,1311,19100,-6646213,1042136,2809980,0,0,0,124,116,69,183,152,106,238,101,92,107,60,47,0,,
1,1774544403936,-258,703,10346,423940,-73303,254119,0,0,0,458,416,372,442,388,409,478,141,316,325,169,434,0,,
2,1774544403936,-2139,775,21512,-6718295,188146,2328618,0,0,0,124,113,65,183,148,103,237,98,90,104,60,46,0,,
1,1774544403952,-502,665,10581,542448,-103847,356745,0,0,0,479,442,349,463,414,421,461,138,330,313,152,468,0,,
2,1774544403952,-387,-540,23833,-6842912,-559552,1924225,0,0,0,124,107,65,183,136,102,238,90,90,103,54,42,0,,
1,1774544403968,-885,492,10887,720820,-255341,529009,0,0,0,476,435,374,471,435,444,420,126,350,290,141,506,0,,
2,1774544403968,2397,-4077,26197,-7033502,-819781,1648114,0,0,0,123,101,64,183,130,103,237,88,91,103,47,40,0,,
1,1774544403984,-861,291,11299,976162,-443488,733038,0,0,0,489,449,308,474,445,457,348,121,342,270,137,526,0,,
2,1774544403984,4848,-12672,28647,-7125132,-616973,1384220,0,0,0,124,104,62,185,137,102,238,90,92,104,48,44,0,,
1,1774544404000,-67,215,11619,1325577,-449596,805120,0,0,0,522,465,297,468,481,457,325,121,329,271,151,544,0,,
2,1774544404000,5585,-23268,29140,-6779382,-294437,1056796,0,0,0,125,111,63,185,147,103,241,96,97,106,56,50,0,,
1,1774544404016,545,210,11849,1646892,-301767,702495,0,0,0,540,452,227,476,466,487,357,125,350,262,145,575,0,,
2,1774544404016,4613,-33194,26499,-5806884,-101403,625526,0,0,0,125,111,64,184,147,107,243,98,101,109,60,50,0,,
1,1774544404032,502,119,12447,1966986,-134390,515570,0,0,0,565,441,195,481,482,489,273,145,354,215,114,576,0,,
2,1774544404032,4134,-41703,21186,-4461759,-388510,147829,0,0,0,124,108,61,185,139,106,246,95,96,119,60,44,0,,
1,1774544404048,-100,-177,13639,2469117,-24434,400727,0,0,0,559,443,192,462,461,476,246,125,337,216,100,575,0,,
2,1774544404048,4800,-47116,13864,-2492330,-635299,-437379,0,0,0,122,111,55,180,135,96,259,148,87,159,121,43,0,,
1,1774544404064,-507,-358,14568,3106860,76969,381179,0,0,0,559,439,187,475,457,451,229,115,358,251,99,562,0,,
2,1774544404064,3522,-47341,12385,-261450,-290771,-830776,0,0,0,114,125,46,164,139,78,291,341,71,230,309,40,0,,
1,1774544404080,-713,-291,14993,3782477,211359,414166,0,0,0,554,432,196,449,430,465,208,109,353,227,90,545,0,,
2,1774544404080,569,-33845,17080,2891836,-52534,-702495,0,0,0,101,114,36,158,148,77,310,432,67,298,423,38,0,,
1,1774544404096,-1292,-296,15606,4561941,351858,529009,0,0,0,547,431,193,443,414,435,183,109,344,210,88,531,0,,
2,1774544404096,1660,-258,16233,5786115,74525,-150272,0,0,0,111,110,42,187,144,108,376,457,97,369,455,43,0,,
1,1774544404112,-2005,-344,16534,5345070,449596,737925,0,0,0,535,417,184,425,430,420,169,99,333,184,84,510,0,,
2,1774544404112,1612,12208,20277,6941872,349414,219911,0,0,0,154,108,72,215,106,117,405,508,100,404,508,83,0,,
1,1774544404128,-3503,-708,17970,6425080,619417,1143539,0,0,0,461,381,177,397,416,430,188,123,324,157,78,455,0,,
2,1774544404128,555,1162,24369,5116607,105068,59864,0,0,0,159,124,57,219,125,120,400,519,99,436,516,49,0,,
1,1774544404144,-5474,-2048,21325,7619932,918741,1649336,0,0,0,343,334,171,364,360,398,199,129,309,141,76,362,0,,
2,1774544404144,502,-4077,19727,2235766,-205250,-102625,0,0,0,200,131,80,253,132,140,437,510,113,432,497,46,0,,
1,1774544404160,-7274,-5163,26384,8514239,989601,2095267,0,0,0,252,286,156,325,289,323,200,99,278,131,75,261,0,,
2,1774544404160,167,-143,11710,673173,-122173,-46425,0,0,0,205,119,109,263,132,164,451,511,151,463,515,67,0,,
1,1774544404176,-7810,-7887,29930,8903971,406836,2594955,0,0,0,201,237,148,279,212,263,221,97,244,119,69,171,0,,
2,1774544404176,67,2479,8604,376292,139277,-37873,0,0,0,213,122,154,273,126,175,463,525,163,449,506,69,0,,
1,1774544404192,-8978,-5489,28475,8801346,158824,3401297,0,0,0,158,200,176,226,171,229,218,104,233,96,75,102,0,,
2,1774544404192,612,1445,10165,471587,249233,-68416,0,0,0,214,125,127,281,128,173,481,537,167,433,501,57,0,,
1,1774544404208,-11533,3029,20167,7755545,1048244,4769635,0,0,0,158,184,205,221,160,234,229,110,242,96,86,102,0,,
2,1774544404208,765,775,10677,234572,201585,-47647,0,0,0,210,125,106,286,133,175,490,553,167,419,509,53,0,,
1,1774544404224,-13582,9112,14668,5837428,1325577,6131865,0,0,0,171,169,183,255,155,217,288,109,225,134,98,89,0,,
2,1774544404224,689,1062,10236,41538,161268,-36651,0,0,0,209,121,107,292,131,180,510,560,174,399,506,54,0,,
1,1774544404240,-10629,12596,13194,2266310,-86742,6184399,0,0,0,156,174,195,215,164,225,236,109,233,110,89,95,0,,
2,1774544404240,646,1507,9892,35430,141720,-53756,0,0,0,208,118,100,297,128,182,529,535,193,389,491,55,0,,
1,1774544404256,-4508,12433,11217,-1637118,-981049,4557054,0,0,0,166,166,212,221,147,228,248,105,239,115,86,96,0,,
2,1774544404256,650,1469,10045,101403,116064,-65973,0,0,0,203,115,92,302,130,189,532,505,210,381,476,67,0,,
1,1774544404272,-1751,8590,8250,-3744603,-421497,1827708,0,0,0,162,161,209,222,147,229,247,102,240,110,84,96,0,,
2,1774544404272,626,1373,10131,142942,106290,-63529,0,0,0,198,120,90,301,140,192,533,497,211,357,462,67,0,,
1,1774544404288,-4455,5652,5656,-4009719,96516,-533896,0,0,0,149,157,231,207,144,244,237,106,256,109,95,109,0,,
2,1774544404288,636,1359,10031,161268,112399,-50090,0,0,0,198,127,86,286,147,180,538,484,201,335,443,46,0,,
1,1774544404304,-7020,5570,5503,-4136779,-895528,-1913229,0,0,0,143,161,227,198,148,245,228,110,254,105,102,108,0,,
2,1774544404304,689,1368,9940,177150,113620,-46425,0,0,0,200,112,87,265,129,174,538,454,196,333,412,47,0,,
1,1774544404320,-6034,5996,7092,-4932125,-2097711,-2579073,0,0,0,145,161,215,201,150,238,230,109,250,101,95,101,0,,
2,1774544404320,741,1354,9930,190589,98960,-53756,0,0,0,205,114,83,307,131,164,538,429,188,333,377,49,0,,
1,1774544404336,-4168,5393,8935,-5973040,-2663372,-2878397,0,0,0,147,159,210,206,147,233,237,109,248,99,90,97,0,,
2,1774544404336,784,1325,9935,202807,74525,-63529,0,0,0,205,126,85,302,140,166,533,440,200,293,364,45,0,,
1,1774544404352,-3369,3780,10088,-6630331,-2882062,-2893057,0,0,0,145,157,208,205,146,234,237,108,247,96,88,96,0,,
2,1774544404352,818,1277,9930,211359,39095,-73303,0,0,0,212,117,92,313,130,185,533,386,220,298,337,52,0,,
1,1774544404368,-2699,2134,10677,-6582683,-3056769,-2570520,0,0,0,143,155,206,204,148,236,235,106,247,94,85,94,0,,
2,1774544404368,813,1244,9930,216246,6108,-76969,0,0,0,206,119,101,318,130,202,545,370,255,290,321,68,0,,
1,1774544404384,-1038,942,11643,-6310237,-3225368,-2174680,0,0,0,143,154,205,206,148,235,236,105,248,98,90,94,0,,
2,1774544404384,775,1215,9968,227241,-13439,-79412,0,0,0,209,122,177,328,133,253,522,354,265,298,330,81,0,,
1,1774544404400,823,545,12907,-6032905,-3185051,-1927890,0,0,0,142,154,205,205,146,234,235,105,248,102,101,95,0,,
2,1774544404400,770,1182,10026,255341,-20769,-84299,0,0,0,211,128,140,316,147,281,525,336,281,290,315,83,0,,
1,1774544404416,1631,598,14228,-5852088,-2899166,-1935221,0,0,0,142,157,207,206,149,236,236,111,250,102,116,95,0,,
2,1774544404416,775,1134,10050,287106,-23212,-87964,0,0,0,217,137,193,332,168,289,523,287,321,276,266,104,0,,
1,1774544404432,1153,885,15367,-5748241,-2651155,-2125811,0,0,0,142,158,208,205,148,235,235,111,250,102,113,98,0,,
2,1774544404432,784,1067,10054,324980,-15882,-92851,0,0,0,228,152,209,346,186,267,538,278,337,269,241,105,0,,
1,1774544404448,-220,961,16721,-5670051,-2565634,-2394591,0,0,0,148,158,208,210,150,235,244,117,253,98,98,95,0,,
2,1774544404448,804,1028,10098,376292,3665,-102625,0,0,0,234,158,207,364,210,280,541,231,321,271,204,107,0,,
1,1774544404464,-1598,373,18798,-5459913,-2632829,-2478891,0,0,0,150,162,211,210,152,235,247,123,254,98,104,95,0,,
2,1774544404464,842,981,10189,460592,46425,-120951,0,0,0,248,156,178,380,224,293,542,185,324,286,160,128,0,,
1,1774544404480,-3029,-354,21698,-5175250,-2744006,-2366491,0,0,0,150,159,212,214,152,238,247,115,254,153,88,116,0,,
2,1774544404480,914,904,10308,591317,119729,-149051,0,0,0,285,156,175,402,237,310,544,157,334,274,126,170,0,,
1,1774544404496,-4039,-1569,24991,-5067738,-2978578,-2123367,0,0,0,153,159,213,214,150,238,247,110,253,111,84,100,0,,
2,1774544404496,966,775,10495,764803,234572,-180816,0,0,0,314,161,173,433,256,333,545,121,342,242,96,197,0,,
1,1774544404512,-2809,-4982,27638,-5374392,-3310889,-1946216,0,0,0,153,167,213,211,143,237,241,110,253,97,81,94,0,,
2,1774544404512,1105,612,10720,962723,367740,-208915,0,0,0,319,170,137,442,275,366,537,85,379,220,72,231,0,,
1,1774544404528,626,-10705,28174,-5673716,-3371976,-1999972,0,0,0,151,167,209,215,151,237,245,117,255,97,86,94,0,,
2,1774544404528,1320,483,10983,1150870,465479,-256563,0,0,0,337,194,128,431,314,412,501,76,427,204,70,307,0,,
1,1774544404544,4388,-21019,24843,-5334075,-2604729,-2285857,0,0,0,150,163,203,219,156,238,249,117,254,101,86,91,0,,
2,1774544404544,1292,454,11524,1398881,494800,-306654,0,0,0,360,230,140,454,368,428,458,72,422,200,84,331,0,,
1,1774544404560,4197,-33385,17937,-4195422,-1314581,-2340835,0,0,0,151,163,199,219,155,235,249,114,253,105,86,89,0,,
2,1774544404560,1086,402,12285,1804495,492357,-311541,0,0,0,365,225,110,469,369,465,403,64,442,182,65,364,0,,
1,1774544404576,5005,-44594,11021,-2339613,-960280,-1602910,0,0,0,154,163,198,217,154,232,252,117,252,132,91,98,0,,
2,1774544404576,1033,153,12974,2338392,549778,-280998,0,0,0,382,236,105,480,380,455,364,67,413,177,69,399,0,,
1,1774544404592,12026,-47642,9203,-41538,-988379,-780685,0,0,0,154,152,177,208,146,216,265,167,243,192,162,103,0,,
2,1774544404592,1340,-14,13725,2984687,587652,-252898,0,0,0,386,273,109,433,386,455,238,66,404,156,75,421,0,,
1,1774544404608,14845,-36989,13524,2255314,332310,-554665,0,0,0,145,139,124,193,136,183,293,290,227,260,341,83,0,,
2,1774544404608,2182,-67,14209,3655417,533896,-304210,0,0,0,394,261,113,448,411,436,212,76,386,168,79,427,0,,
1,1774544404624,1608,-8557,18171,4450764,2988352,56199,0,0,0,132,145,90,190,157,185,342,401,236,326,460,69,0,,
2,1774544404624,3163,-263,15290,4398229,425162,-470366,0,0,0,404,252,126,443,412,440,209,80,377,160,76,379,0,,
1,1774544404640,-6164,11385,17774,5881410,4302934,1180191,0,0,0,155,127,123,217,128,204,418,464,254,424,490,90,0,,
2,1774544404640,4589,-349,18090,5315749,212581,-758694,0,0,0,388,265,146,431,399,412,214,84,362,131,56,332,0,,
1,1774544404656,-4187,6939,19478,6602231,2755002,1499063,0,0,0,163,129,150,204,107,203,423,485,243,478,541,95,0,,
2,1774544404656,7307,-732,22761,6671870,-328645,-1263269,0,0,0,314,256,157,390,343,371,206,64,281,127,53,306,0,,
1,1774544404672,-114,-3512,22531,5742133,638965,746477,0,0,0,228,170,154,281,186,210,492,443,251,557,560,87,0,,
2,1774544404672,9451,-2555,28413,8046316,-861319,-1860695,0,0,0,243,215,94,340,299,286,196,62,208,128,58,196,0,,
1,1774544404688,-201,-4015,19741,3671300,419053,461814,0,0,0,293,210,202,340,211,238,499,442,267,565,566,142,0,,
2,1774544404688,9954,-4503,34070,9198408,-761138,-2497217,0,0,0,170,178,78,274,262,265,186,65,191,103,55,156,0,,
1,1774544404704,-1756,-1311,14223,1466076,722042,309097,0,0,0,286,252,255,336,229,290,514,400,271,560,560,167,0,,
2,1774544404704,8485,-1220,36329,9941220,-338419,-3006678,0,0,0,122,144,64,219,216,186,208,64,142,96,40,99,0,,
1,1774544404720,-1292,-536,10935,416610,323758,23212,0,0,0,303,255,241,341,252,285,508,395,266,563,562,180,0,,
2,1774544404720,7595,7049,33026,10156245,-427605,-3299894,0,0,0,114,119,53,192,164,114,227,72,95,97,37,50,0,,
1,1774544404736,-698,-373,10232,251676,-89186,-94073,0,0,0,313,263,220,344,278,278,502,403,272,561,548,182,0,,
2,1774544404736,8523,14979,24814,9508728,-715934,-3607770,0,0,0,122,111,57,184,136,102,224,79,86,91,40,41,0,,
1,1774544404752,-780,38,10294,277332,-177150,-65973,0,0,0,319,273,205,345,300,268,502,410,275,567,528,192,0,,
2,1774544404752,7475,20650,13405,7561289,-304210,-3952298,0,0,0,129,112,60,182,133,100,224,80,87,93,41,42,0,,
1,1774544404768,-995,325,10150,215024,-134390,-35430,0,0,0,321,278,201,341,299,266,509,389,287,558,487,200,0,,
2,1774544404768,2081,22809,7619,1879021,675616,-3093421,0,0,0,133,114,59,180,132,98,230,86,85,98,44,48,0,,
1,1774544404784,-952,335,10035,162490,-128281,-29321,0,0,0,328,286,194,355,297,266,515,361,298,530,452,203,0,,
2,1774544404784,-1789,19014,9188,-2904053,276111,-1202182,0,0,0,130,116,59,178,133,97,229,89,85,95,44,47,0,,
1,1774544404800,-851,320,10069,168598,-168598,-20769,0,0,0,341,295,179,386,304,259,510,341,294,491,435,208,0,,
2,1774544404800,315,11232,8379,-4943121,-1441641,905302,0,0,0,129,116,68,180,133,105,229,86,85,96,47,45,0,,
1,1774544404816,-827,335,10165,221133,-230907,-8552,0,0,0,347,287,178,386,292,267,502,315,294,442,401,218,0,,
2,1774544404816,4532,7284,5360,-4969999,-1916895,1594358,0,0,0,126,119,100,177,128,122,229,89,91,96,46,48,0,,
1,1774544404832,-904,368,10136,288328,-291993,-1221,0,0,0,342,281,185,359,291,289,500,301,304,411,372,241,0,,
2,1774544404832,6623,6374,4082,-5050633,-813672,1286482,0,0,0,126,111,63,177,132,98,204,96,88,91,40,42,0,,
1,1774544404848,-1048,325,9992,334754,-312763,7330,0,0,0,340,322,176,386,350,289,496,283,306,414,340,257,0,,
2,1774544404848,4134,6092,6795,-5999918,511905,806342,0,0,0,121,109,63,177,135,109,225,84,104,91,39,60,0,,
1,1774544404864,-1182,215,9868,324980,-246789,30543,0,0,0,362,365,168,423,386,318,472,287,322,399,308,281,0,,
2,1774544404864,1273,5297,9590,-6845355,813672,723264,0,0,0,121,113,63,178,143,102,227,88,91,95,42,46,0,,
1,1774544404880,-1210,134,9853,295658,-156381,54977,0,0,0,374,375,187,408,389,307,477,282,330,400,303,305,0,,
2,1774544404880,603,4211,10739,-7175223,414166,1003040,0,0,0,120,110,59,178,137,101,230,87,103,94,43,45,0,,
1,1774544404896,-1139,100,9930,267558,-79412,76969,0,0,0,384,400,176,407,413,318,463,257,328,403,278,319,0,,
2,1774544404896,1780,3153,11246,-7187440,384845,1315803,0,0,0,118,107,79,180,136,129,232,87,113,95,44,67,0,,
1,1774544404912,-1072,76,9992,262672,-53756,90408,0,0,0,432,376,180,439,394,326,475,236,345,413,264,357,0,,
2,1774544404912,2440,2000,12859,-7203322,863763,1605353,0,0,0,118,109,74,183,144,125,232,89,103,93,44,73,0,,
1,1774544404928,-1062,38,10002,265115,-45204,100181,0,0,0,448,380,208,431,406,349,463,232,360,395,261,380,0,,
2,1774544404928,1459,1019,15529,-7178888,1244943,1910786,0,0,0,120,107,92,185,141,145,234,90,118,96,50,84,0,,
1,1774544404944,-1081,-9,9992,266337,-34208,111177,0,0,0,477,388,231,429,424,362,457,218,367,404,251,407,0,,
2,1774544404944,1048,526,17865,-7061602,1229060,2277305,0,0,0,121,109,87,182,139,146,233,88,125,96,51,85,0,,
1,1774544404960,-1081,-33,10031,272445,-14660,119729,0,0,0,484,394,239,439,429,369,439,204,367,391,236,420,0,,
2,1774544404960,1684,86,20306,-6886894,1143539,2621833,0,0,0,122,112,67,181,144,124,232,87,107,94,46,69,0,,
1,1774544404976,-1048,-71,10136,302989,-15882,124616,0,0,0,485,407,231,457,433,388,414,192,369,359,227,440,0,,
2,1774544404976,2306,-1172,23235,-6659652,1058018,2846632,0,0,0,123,109,66,185,141,116,235,83,95,95,40,63,0,,
1,1774544404992,-1048,-129,10232,366519,-58643,129503,0,0,0,498,427,226,456,449,411,394,176,371,350,217,466,0,,
2,1774544404992,3254,-3345,26120,-6376211,796568,2879618,0,0,0,123,108,73,185,134,123,239,80,104,95,40,71,0,,
1,1774544405008,-1100,-177,10323,448375,-123394,149051,0,0,0,507,439,237,435,474,421,369,158,379,337,189,478,0,,
2,1774544405008,5498,-7307,27982,-6102543,623082,2585181,0,0,0,121,109,84,184,138,133,238,82,113,96,45,70,0,,
1,1774544405024,-1239,-253,10433,561996,-204028,194255,0,0,0,526,436,238,450,487,446,340,139,407,295,156,511,0,,
2,1774544405024,6915,-13452,28848,-5871636,774577,1926668,0,0,0,121,109,82,187,140,135,239,81,113,99,43,71,0,,
1,1774544405040,-1430,-344,10686,717155,-262672,266337,0,0,0,539,432,220,465,462,477,308,135,408,274,139,548,0,,
2,1774544405040,5422,-20655,27489,-5672494,896750,943175,0,0,0,124,111,96,188,143,156,242,84,127,97,42,81,0,,
1,1774544405056,-1665,-430,11208,902858,-265115,344527,0,0,0,555,451,192,458,485,444,284,140,395,238,141,554,0,,
2,1774544405056,2029,-26838,22277,-5253441,444709,12217,0,0,0,124,111,83,188,143,142,243,84,118,105,52,65,0,,
1,1774544405072,-1947,-531,11892,1175304,-249233,449596,0,0,0,563,461,175,461,507,445,279,135,369,213,111,562,0,,
2,1774544405072,349,-32093,16223,-4179539,-69638,-643851,0,0,0,124,113,78,191,144,134,243,87,111,101,54,69,0,,
1,1774544405088,-1631,-583,12763,1601688,-250454,558330,0,0,0,570,449,192,469,464,463,283,131,339,199,108,569,0,,
2,1774544405088,540,-34539,11878,-2427578,-131946,-1051909,0,0,0,122,112,72,189,144,132,243,84,109,105,54,66,0,,
1,1774544405104,-875,-674,13467,2129476,-211359,572991,0,0,0,570,457,192,453,481,489,230,128,352,221,113,574,0,,
2,1774544405104,-272,-33993,9700,-604756,114842,-1279151,0,0,0,125,112,76,194,143,131,246,84,111,104,50,64,0,,
1,1774544405120,-473,-794,13807,2687807,-131946,481361,0,0,0,567,475,200,452,457,448,232,127,354,242,109,572,0,,
2,1774544405120,-2105,-29825,10390,882089,251676,-1093448,0,0,0,114,107,91,175,138,136,261,190,98,150,159,73,0,,
1,1774544405136,-1009,-918,14089,3316998,-47647,389732,0,0,0,559,479,202,443,425,432,206,115,350,249,98,562,0,,
2,1774544405136,-2321,-21081,16156,2169793,-448375,-586430,0,0,0,106,110,49,172,141,101,316,352,81,219,313,44,0,,
1,1774544405152,-2019,-1134,14362,3951076,0,427605,0,0,0,543,466,218,436,415,448,186,102,365,247,106,537,0,,
2,1774544405152,378,-540,18985,4158770,-2456899,-31764,0,0,0,114,114,42,184,145,105,353,420,90,276,388,38,0,,
1,1774544405168,-2842,-1373,14816,4651127,25656,658512,0,0,0,529,453,219,444,438,466,183,97,377,225,108,516,0,,
2,1774544405168,2311,8930,12758,5608964,-2970026,339641,0,0,0,115,118,57,201,146,140,381,453,116,301,433,50,0,,
1,1774544405184,-3694,-1622,15774,5555208,168598,1003040,0,0,0,513,431,190,456,457,468,179,97,371,192,90,499,0,,
2,1774544405184,813,3804,13883,6649878,-833220,835663,0,0,0,137,111,76,225,127,194,434,508,167,371,492,68,0,,
1,1774544405200,-5206,-2292,17898,6643770,387288,1424537,0,0,0,463,381,169,441,431,454,167,95,357,165,76,443,0,,
2,1774544405200,-2249,-4039,23072,6213721,934623,963945,0,0,0,174,109,86,253,114,214,467,558,184,415,529,64,0,,
1,1774544405216,-5766,-5173,23929,7787310,351858,1795943,0,0,0,358,316,170,388,370,409,172,95,329,142,72,337,0,,
2,1774544405216,-957,-4216,22397,3299894,158824,328645,0,0,0,196,120,95,276,123,216,472,572,193,401,530,61,0,,
1,1774544405232,-6250,-8135,31318,8648630,-287106,1976759,0,0,0,270,288,144,334,283,327,220,99,299,139,65,255,0,,
2,1774544405232,904,-1464,14194,452040,-582765,-56199,0,0,0,210,128,110,291,133,241,474,569,226,385,523,80,0,,
1,1774544405248,-7470,-5168,33117,9166643,-899193,2430021,0,0,0,196,246,135,295,203,261,254,88,258,140,59,143,0,,
2,1774544405248,717,737,8628,-342084,-376292,0,0,0,0,234,136,116,308,138,266,477,570,228,380,520,94,0,,
1,1774544405264,-9600,3455,28293,9233838,-641408,3445279,0,0,0,165,217,171,258,181,249,272,112,252,113,88,105,0,,
2,1774544405264,191,698,9408,117286,84299,87964,0,0,0,257,142,125,338,144,283,484,555,236,382,506,100,0,,
1,1774544405280,-12624,10667,20545,8311432,57421,4718323,0,0,0,152,210,188,232,187,243,237,118,263,104,92,121,0,,
2,1774544405280,373,306,10648,282219,142942,57421,0,0,0,270,145,150,335,145,288,484,562,248,364,499,103,0,,
1,1774544405296,-13960,15759,14515,5852088,-75747,5977927,0,0,0,140,192,191,215,179,233,223,115,242,92,80,99,0,,
2,1774544405296,598,382,10370,152716,8552,10995,0,0,0,256,148,128,349,175,282,488,552,235,400,476,100,0,,
1,1774544405312,-10064,18769,12237,1232726,-1098335,6644992,0,0,0,147,176,184,235,166,227,240,106,232,97,73,92,0,,
2,1774544405312,579,531,9949,94073,-65973,-6108,0,0,0,254,150,138,329,186,292,490,518,252,361,453,114,0,,
1,1774544405328,-2053,15850,11342,-3744603,-1067792,5499008,0,0,0,140,161,194,225,153,233,227,101,234,88,73,92,0,,
2,1774544405328,459,502,10050,150272,-50090,-7330,0,0,0,270,157,169,360,204,317,513,484,268,376,414,127,0,,
1,1774544405344,1225,9499,8920,-6356663,371406,3081204,0,0,0,136,157,201,204,148,239,218,102,240,83,75,94,0,,
2,1774544405344,406,459,10179,190589,-40317,-13439,0,0,0,288,159,147,398,214,316,504,403,293,348,391,133,0,,
1,1774544405360,-2790,6092,7097,-6333450,1139874,1000597,0,0,0,136,156,202,203,147,240,219,104,244,85,78,96,0,,
2,1774544405360,411,445,10179,213802,-35430,-15882,0,0,0,274,167,201,371,227,351,479,367,288,337,340,151,0,,
1,1774544405376,-7030,4929,6982,-6261368,537561,-560774,0,0,0,137,153,203,214,145,239,218,103,242,89,81,95,0,,
2,1774544405376,449,430,10093,228463,-26878,-14660,0,0,0,272,166,168,381,229,335,472,356,287,334,313,148,0,,
1,1774544405392,-7465,4804,8667,-6709743,-1069014,-1375668,0,0,0,140,151,202,217,145,238,220,100,241,93,81,93,0,,
2,1774544405392,497,392,10050,233350,-32986,-19547,0,0,0,278,181,140,376,252,321,479,342,279,329,304,163,0,,
1,1774544405408,-5589,3407,10327,-7150788,-1879021,-1810604,0,0,0,139,148,206,220,145,243,221,101,245,89,80,95,0,,
2,1774544405408,502,349,10050,221133,-61086,-29321,0,0,0,290,179,154,375,254,318,484,288,277,315,264,180,0,,
1,1774544405424,-4824,1679,11509,-7192327,-2147802,-1996307,0,0,0,136,150,225,217,143,257,221,104,255,90,85,104,0,,
2,1774544405424,488,320,10069,208915,-87964,-36651,0,0,0,290,195,173,377,269,345,487,252,299,314,234,207,0,,
1,1774544405440,-4943,646,12620,-6878342,-2349387,-1773952,0,0,0,137,147,232,222,145,265,228,100,259,92,83,104,0,,
2,1774544405440,478,291,10088,204028,-107512,-39095,0,0,0,299,189,193,396,278,373,489,232,323,321,212,228,0,,
1,1774544405456,-3756,521,14505,-6693861,-2796541,-1425759,0,0,0,134,147,251,215,139,273,228,104,271,89,85,113,0,,
2,1774544405456,459,258,10102,206472,-117286,-45204,0,0,0,313,178,216,398,269,385,477,213,328,307,192,236,0,,
1,1774544405472,-2033,574,17166,-6666983,-3170390,-1295034,0,0,0,132,148,245,215,142,271,227,103,269,89,85,109,0,,
2,1774544405472,430,220,10136,216246,-118507,-48869,0,0,0,323,191,219,388,284,394,464,192,335,280,177,243,0,,
1,1774544405488,-1316,536,20162,-6723182,-3356093,-1628566,0,0,0,134,148,246,215,142,273,221,100,268,86,82,110,0,,
2,1774544405488,416,177,10184,239459,-107512,-48869,0,0,0,344,201,198,411,316,398,468,166,351,263,156,248,0,,
1,1774544405504,-1340,-81,22761,-6682865,-3571118,-2007303,0,0,0,132,174,244,211,192,270,222,121,267,84,94,108,0,,
2,1774544405504,435,143,10256,278554,-95294,-57421,0,0,0,358,199,201,428,296,396,468,138,341,245,131,245,0,,
1,1774544405520,-1631,-1502,25680,-6506936,-3805690,-2210110,0,0,0,137,169,253,210,180,270,227,119,270,92,97,114,0,,
2,1774544405520,464,105,10337,348193,-76969,-72082,0,0,0,362,207,216,432,286,414,450,99,341,231,96,261,0,,
1,1774544405536,-2402,-3752,29528,-6493497,-3854559,-2101376,0,0,0,141,155,256,213,149,271,236,103,273,97,84,116,0,,
2,1774544405536,497,28,10528,470366,-37873,-96516,0,0,0,376,201,210,434,289,418,426,80,344,209,72,264,0,,
1,1774544405552,-3306,-7173,32447,-6806260,-3667634,-1904677,0,0,0,137,161,244,215,157,270,240,103,275,99,82,114,0,,
2,1774544405552,564,-52,10744,621860,9773,-133168,0,0,0,406,208,234,436,303,458,392,64,367,187,72,291,0,,
1,1774544405568,-3910,-14314,31892,-6996850,-3343876,-1577254,0,0,0,133,170,235,214,170,270,242,110,276,95,82,111,0,,
2,1774544405568,655,-105,11079,828333,80634,-188146,0,0,0,374,210,175,463,347,407,397,68,371,199,82,320,0,,
1,1774544405584,-626,-24359,27327,-6221051,-3633426,-1246165,0,0,0,133,173,214,215,170,255,248,113,273,88,74,99,0,,
2,1774544405584,512,-105,11710,1142317,105068,-226020,0,0,0,388,232,128,483,339,471,405,60,386,191,68,364,0,,
1,1774544405600,8145,-37769,19454,-4393342,-4043927,-1359786,0,0,0,136,175,188,221,172,237,253,116,271,89,72,87,0,,
2,1774544405600,215,-153,12289,1543045,40317,-189368,0,0,0,410,235,94,469,364,487,340,60,385,174,62,370,0,,
1,1774544405616,16238,-51098,13141,-2043955,-3313333,-2083050,0,0,0,142,177,197,225,178,245,250,124,269,92,85,90,0,,
2,1774544405616,67,-311,12668,2021963,26878,-100181,0,0,0,424,249,85,498,390,465,294,61,393,186,83,375,0,,
1,1774544405632,19210,-49604,11596,1047023,-1434311,-2613281,0,0,0,146,179,197,206,170,234,246,145,252,111,124,92,0,,
2,1774544405632,483,-531,13271,2546086,96516,-52534,0,0,0,449,278,104,497,354,461,245,51,408,189,78,405,0,,
1,1774544405648,10136,-30150,13639,2961474,862541,-2034181,0,0,0,134,143,148,161,136,184,263,211,225,212,246,91,0,,
2,1774544405648,1497,-693,14414,3240029,174707,-169820,0,0,0,459,290,107,483,388,433,216,70,441,191,84,383,0,,
1,1774544405664,579,-8212,19334,3958406,2051285,-885754,0,0,0,118,170,103,185,181,189,292,355,222,301,384,79,0,,
2,1774544405664,2230,-727,15788,4069584,160046,-403171,0,0,0,444,302,96,475,401,405,214,72,414,180,82,344,0,,
1,1774544405680,-2215,11155,19372,5117828,2059837,107512,0,0,0,128,145,110,192,161,193,351,416,237,384,470,85,0,,
2,1774544405680,2469,-775,18018,5166698,36651,-676838,0,0,0,404,312,116,466,426,399,231,80,377,161,79,288,0,,
1,1774544405696,-201,6561,18109,6481280,1506393,229685,0,0,0,172,124,157,219,116,197,429,428,243,457,499,85,0,,
2,1774544405696,3182,-1579,21138,6372546,-70860,-878424,0,0,0,352,279,160,443,396,395,227,68,318,139,63,275,0,,
1,1774544405712,765,-2871,24130,6161186,1398881,312763,0,0,0,219,131,242,241,99,240,482,393,254,505,514,113,0,,
2,1774544405712,4034,-3254,26585,7732332,149051,-1049466,0,0,0,298,213,152,388,322,360,198,48,245,125,51,265,0,,
1,1774544405728,-880,-4704,23369,3326772,1905899,554665,0,0,0,268,150,242,278,115,259,510,370,253,521,514,144,0,,
2,1774544405728,3780,-4584,33199,9104335,656069,-1174082,0,0,0,239,166,93,312,271,286,179,51,195,119,57,189,0,,
1,1774544405744,-1631,-569,13682,707381,1506393,279776,0,0,0,290,166,242,300,136,280,517,382,266,519,516,177,0,,
2,1774544405744,3991,-4498,36965,10227105,1181413,-1330464,0,0,0,167,139,62,245,219,204,184,61,149,106,49,103,0,,
1,1774544405760,-737,1325,8825,112399,552222,-68416,0,0,0,313,194,265,319,153,280,526,367,270,526,501,190,0,,
2,1774544405760,5465,-894,36458,10614394,1340238,-1673770,0,0,0,108,109,53,189,162,145,205,77,102,97,39,52,0,,
1,1774544405776,-430,871,9495,411723,86742,-120951,0,0,0,345,222,282,340,169,267,532,319,269,536,459,193,0,,
2,1774544405776,10902,8853,27743,9817826,1450194,-2483778,0,0,0,117,107,58,179,138,104,225,89,89,106,55,48,0,,
1,1774544405792,-660,655,10466,445931,107512,-42760,0,0,0,350,237,320,333,191,293,512,293,299,528,428,220,0,,
2,1774544405792,12103,17453,13012,7511198,2480112,-3650530,0,0,0,126,112,75,178,131,120,224,85,119,96,44,57,0,,
1,1774544405808,-703,827,10313,359188,114842,-2443,0,0,0,344,271,360,323,226,321,494,285,313,517,423,253,0,,
2,1774544405808,3177,18592,8269,2874731,3018896,-3742160,0,0,0,122,111,69,177,123,116,223,79,106,96,44,57,0,,
1,1774544405824,-583,885,9983,321315,43982,3665,0,0,0,355,306,339,337,274,311,509,267,293,502,393,263,0,,
2,1774544405824,-4776,15156,10122,-1761735,1156978,-1910786,0,0,0,120,109,88,169,122,146,222,84,153,96,49,81,0,,
1,1774544405840,-478,794,10035,343306,-68416,0,0,0,0,345,295,372,348,268,325,481,246,306,458,350,288,0,,
2,1774544405840,-2536,9131,9327,-4057366,-2257757,750142,0,0,0,122,109,96,174,124,145,195,97,150,95,46,80,0,,
1,1774544405856,-555,851,10256,382401,-134390,9773,0,0,0,344,311,321,374,285,337,456,225,330,413,294,319,0,,
2,1774544405856,5288,5900,3709,-4073249,-2767219,1543045,0,0,0,129,110,103,170,121,144,216,80,150,88,39,78,0,,
1,1774544405872,-631,856,10284,464257,-202807,24434,0,0,0,358,340,327,374,333,354,434,219,330,394,272,335,0,,
2,1774544405872,6101,5340,2096,-4211304,-1183856,1138652,0,0,0,134,110,99,191,125,151,248,86,154,112,46,77,0,,
1,1774544405888,-641,698,10107,566882,-263893,37873,0,0,0,357,363,337,378,351,390,430,188,372,369,241,373,0,,
2,1774544405888,1765,5254,4245,-4709770,74525,702495,0,0,0,141,109,100,202,129,153,261,88,159,122,51,79,0,,
1,1774544405904,-636,516,9992,605978,-287106,43982,0,0,0,381,356,339,393,363,389,437,162,347,383,205,378,0,,
2,1774544405904,-492,4737,6125,-5188689,-111177,824668,0,0,0,144,108,101,203,126,151,263,86,159,122,52,80,0,,
1,1774544405920,-689,406,9983,596204,-284663,46425,0,0,0,385,363,358,401,360,407,418,153,342,341,200,405,0,,
2,1774544405920,325,4268,6499,-5513669,-217468,1050688,0,0,0,143,106,95,206,128,149,265,87,157,123,51,76,0,,
1,1774544405936,-770,349,10026,570548,-265115,53756,0,0,0,392,363,380,400,371,419,422,144,348,329,176,434,0,,
2,1774544405936,847,3474,7293,-5789780,313984,1215621,0,0,0,138,105,86,208,135,149,267,91,155,123,54,77,0,,
1,1774544405952,-794,291,10007,560774,-244346,65973,0,0,0,410,371,364,408,381,426,438,137,354,320,160,446,0,,
2,1774544405952,210,2479,8997,-5952270,788016,1407433,0,0,0,135,106,84,206,140,149,267,91,155,119,54,77,0,,
1,1774544405968,-813,210,9992,537561,-211359,83077,0,0,0,424,395,324,431,390,446,416,138,356,302,163,464,0,,
2,1774544405968,186,1890,10868,-6051231,923628,1598023,0,0,0,136,107,86,204,136,149,266,86,158,118,49,76,0,,
1,1774544405984,-861,143,10035,508239,-166155,101403,0,0,0,435,402,301,449,394,464,383,140,359,292,158,493,0,,
2,1774544405984,459,1459,12768,-6192951,945619,1668883,0,0,0,139,106,89,194,126,148,265,81,159,120,45,75,0,,
1,1774544406000,-928,90,10169,509461,-111177,128281,0,0,0,451,381,291,448,398,456,375,138,367,283,143,512,0,,
2,1774544406000,459,1182,14501,-6354220,835663,1569923,0,0,0,138,108,90,183,121,144,265,79,156,118,43,73,0,,
1,1774544406016,-971,43,10346,576656,-69638,166155,0,0,0,457,365,278,438,425,455,351,135,384,271,141,519,0,,
2,1774544406016,425,1052,16506,-6503271,552222,1439198,0,0,0,137,110,87,200,131,147,268,87,159,121,49,76,0,,
1,1774544406032,-957,-23,10466,663399,-45204,204028,0,0,0,471,359,293,451,439,502,326,132,387,249,139,541,0,,
2,1774544406032,871,899,18573,-6576575,302989,1387885,0,0,0,135,105,92,202,132,157,270,87,165,131,49,82,0,,
1,1774544406048,-914,-134,10648,773355,-32986,240680,0,0,0,494,368,226,445,434,502,308,133,392,228,127,556,0,,
2,1774544406048,2000,224,22067,-6646213,145385,1525941,0,0,0,139,110,100,202,139,159,269,86,164,175,54,87,0,,
1,1774544406064,-1000,-282,10945,913854,-35430,270002,0,0,0,499,381,228,477,437,503,310,129,371,229,129,567,0,,
2,1774544406064,3570,-2062,26082,-6781825,122173,1861917,0,0,0,135,104,97,201,143,157,262,86,164,115,52,77,0,,
1,1774544406080,-1134,-411,11251,1130100,-52534,323758,0,0,0,527,400,199,495,430,497,310,138,372,251,129,558,0,,
2,1774544406080,5474,-7973,29322,-6856351,193033,2084272,0,0,0,138,100,97,201,124,161,262,70,173,115,38,83,0,,
1,1774544406096,-1110,-512,11495,1389107,-73303,387288,0,0,0,531,415,185,506,440,512,289,127,394,257,122,559,0,,
2,1774544406096,6111,-18899,30303,-6492275,511905,1573588,0,0,0,140,101,94,195,118,152,259,70,162,111,33,78,0,,
1,1774544406112,-1000,-646,11663,1645670,-79412,433714,0,0,0,533,417,174,493,454,511,268,128,399,219,107,567,0,,
2,1774544406112,3302,-29121,28403,-5737246,740368,632856,0,0,0,135,102,100,201,126,158,263,76,176,115,35,87,0,,
1,1774544406128,-746,-784,12007,1952325,-61086,448375,0,0,0,539,422,175,481,458,515,241,127,388,207,98,570,0,,
2,1774544406128,-1871,-37985,22378,-4492302,73303,-244346,0,0,0,138,104,114,203,126,174,269,80,173,117,40,99,0,,
1,1774544406144,-741,-938,12787,2324953,-7330,420275,0,0,0,544,435,180,494,449,507,226,124,378,215,95,568,0,,
2,1774544406144,-3239,-44134,15180,-3082425,-1032362,-651182,0,0,0,133,111,90,182,140,145,284,182,136,172,159,78,0,,
1,1774544406160,-890,-1162,13558,2817310,58643,405614,0,0,0,548,439,193,484,440,493,212,116,392,208,95,567,0,,
2,1774544406160,-1344,-48710,11921,-944397,-1512502,-803898,0,0,0,120,117,54,168,148,101,307,307,91,228,282,50,0,,
1,1774544406176,-966,-1292,13907,3406184,101403,433714,0,0,0,543,432,200,450,443,502,187,108,406,205,102,563,0,,
2,1774544406176,-349,-36726,12036,2842966,-940732,-614530,0,0,0,111,112,42,170,141,95,333,392,91,252,348,57,0,,
1,1774544406192,-861,-1383,14132,4024380,78190,486248,0,0,0,532,432,182,448,445,512,169,100,399,211,101,552,0,,
2,1774544406192,2311,-3675,12419,6533814,-640186,-134390,0,0,0,116,110,53,180,137,122,362,430,106,280,388,60,0,,
1,1774544406208,-1072,-1593,14663,4712214,63529,547335,0,0,0,523,427,154,455,445,490,163,89,414,184,77,533,0,,
2,1774544406208,2474,7791,16329,6864903,-491135,307876,0,0,0,134,111,58,209,139,142,400,462,112,328,430,44,0,,
1,1774544406224,-2330,-2182,16022,5595525,85521,685390,0,0,0,450,393,146,458,456,476,183,123,425,169,94,483,0,,
2,1774544406224,186,1095,21636,5506339,-156381,571769,0,0,0,167,111,95,241,135,163,433,505,146,368,463,54,0,,
1,1774544406240,-4398,-3637,19454,6517932,40317,972497,0,0,0,322,362,180,423,399,448,190,118,366,137,79,343,0,,
2,1774544406240,-1253,-5747,21727,2850297,25656,350636,0,0,0,201,136,180,242,150,190,441,518,179,392,479,69,0,,
1,1774544406256,-6063,-6001,24852,7412238,-285884,1312138,0,0,0,289,331,190,386,366,398,201,118,318,135,76,252,0,,
2,1774544406256,205,-2483,14362,594982,-83077,-19547,0,0,0,220,150,135,264,190,180,464,510,176,401,483,54,0,,
1,1774544406272,-7403,-7245,28418,8091520,-783129,1681101,0,0,0,235,277,157,321,270,315,218,107,291,115,61,207,0,,
2,1774544406272,1028,928,9394,-89186,-169820,-102625,0,0,0,264,155,150,281,165,209,493,490,183,414,478,61,0,,
1,1774544406288,-8695,-5321,28805,8558221,-1213178,2351831,0,0,0,203,224,147,297,198,255,268,110,250,135,64,117,0,,
2,1774544406288,794,847,9624,147829,-95294,-7330,0,0,0,256,160,164,299,170,221,503,496,197,413,470,61,0,,
1,1774544406304,-9949,727,25862,8605869,-910189,3418401,0,0,0,164,165,206,244,151,258,258,99,258,119,69,107,0,,
2,1774544406304,564,157,10466,182037,-8552,30543,0,0,0,258,160,193,307,174,214,516,498,180,399,474,63,0,,
1,1774544406320,-11820,8016,18645,7326717,-147829,4703662,0,0,0,151,151,205,222,142,237,252,100,247,97,68,93,0,,
2,1774544406320,579,196,10418,34208,32986,4886,0,0,0,240,161,252,301,177,232,528,505,200,416,477,81,0,,
1,1774544406336,-12337,11931,13816,4613254,-395840,5898514,0,0,0,149,148,200,217,141,233,239,100,245,90,71,94,0,,
2,1774544406336,679,550,10059,1221,34208,-10995,0,0,0,245,170,159,309,201,205,545,499,182,412,477,54,0,,
1,1774544406352,-7489,14228,12701,616973,-1252273,5871636,0,0,0,150,150,205,212,143,237,237,107,249,96,85,99,0,,
2,1774544406352,698,622,10011,32986,30543,-14660,0,0,0,208,158,113,307,189,209,539,498,174,372,473,63,0,,
1,1774544406368,-818,13400,11462,-3558900,-1001818,4417777,0,0,0,151,154,217,207,144,238,237,112,252,99,92,100,0,,
2,1774544406368,670,531,10102,56199,32986,-20769,0,0,0,211,151,115,304,180,210,523,498,167,384,472,57,0,,
1,1774544406384,823,8906,9222,-5531995,794124,1910786,0,0,0,153,156,225,205,141,239,235,113,253,99,94,102,0,,
2,1774544406384,670,516,10112,62308,37873,-26878,0,0,0,223,156,123,302,175,209,517,484,167,366,456,50,0,,
1,1774544406400,-3886,6278,7092,-5321857,1588249,306654,0,0,0,153,158,221,202,143,238,238,124,252,99,106,101,0,,
2,1774544406400,698,569,10050,73303,35430,-30543,0,0,0,226,159,137,300,179,219,508,471,177,345,431,60,0,,
1,1774544406416,-7863,5671,6034,-5138598,783129,-546113,0,0,0,150,164,218,197,151,238,230,144,253,92,121,97,0,,
2,1774544406416,708,583,10021,97738,19547,-30543,0,0,0,222,158,146,307,190,224,503,451,186,330,426,65,0,,
1,1774544406432,-7532,6087,6853,-5615073,-1175304,-807563,0,0,0,147,163,217,201,152,242,218,145,254,76,111,92,0,,
2,1774544406432,732,550,10035,125838,0,-35430,0,0,0,221,162,153,307,195,225,505,435,201,314,421,68,0,,
1,1774544406448,-4268,5245,8758,-6429967,-2205223,-1147204,0,0,0,140,158,213,201,149,238,241,142,257,82,109,95,0,,
2,1774544406448,756,497,10040,138055,-21991,-42760,0,0,0,227,175,165,301,194,236,496,423,219,307,391,77,0,,
1,1774544406464,-2598,3426,10433,-6902777,-2345722,-1653001,0,0,0,146,158,219,206,149,247,238,127,264,98,108,103,0,,
2,1774544406464,741,478,10040,141720,-46425,-46425,0,0,0,235,187,168,314,209,257,477,394,226,304,369,77,0,,
1,1774544406480,-2957,1971,11816,-6863681,-2357939,-2052507,0,0,0,142,159,215,209,154,243,238,131,259,101,111,98,0,,
2,1774544406480,708,469,10050,149051,-58643,-46425,0,0,0,248,190,166,323,224,277,474,366,244,303,337,97,0,,
1,1774544406496,-2498,1095,13778,-6819699,-2658485,-2425134,0,0,0,144,155,219,210,143,246,235,110,258,93,90,102,0,,
2,1774544406496,703,449,10069,168598,-57421,-45204,0,0,0,273,186,187,338,210,284,492,302,278,297,302,118,0,,
1,1774544406512,-1354,770,16099,-6886894,-2872288,-2869844,0,0,0,142,161,215,210,154,245,235,123,257,99,108,101,0,,
2,1774544406512,717,440,10093,199142,-57421,-46425,0,0,0,275,174,281,372,237,350,485,297,295,289,267,146,0,,
1,1774544406528,-1086,564,18473,-6980967,-2795319,-3378084,0,0,0,140,158,211,213,151,246,237,116,257,94,88,98,0,,
2,1774544406528,713,411,10122,238237,-57421,-47647,0,0,0,298,223,219,396,307,382,487,278,309,269,221,164,0,,
1,1774544406544,-1507,105,20827,-6968750,-2764776,-3654195,0,0,0,144,153,212,215,144,245,239,106,258,88,72,96,0,,
2,1774544406544,717,349,10165,282219,-43982,-52534,0,0,0,320,257,178,448,386,324,485,226,306,275,213,159,0,,
1,1774544406560,-1952,-1277,23819,-6805038,-2774549,-3523470,0,0,0,148,153,210,217,141,242,245,106,257,89,73,97,0,,
